[{"start_time":1551900749275,"click_time":1551900751874,"finger_time":1551900749284,"fix_duration":318.2505774422586,"trial":0,"RT":9,"MT":2590,"sideResp":1,"stimulus":"img/250/equaldotsize/R/6_Ratio_250_L_6_R_24.png","xmouse":[10,10,9,9,2,0,0,0,0,0,0,0,0,0,0,0,0,0,89,100,146,180,252,281,322,381,455,581,629,641,683,699,703,703,703,703,703,703,703,703,703,703,703,703,703,703,703,703,703,705,733,757,786,789,789,789,789,789,789,789,789,789,789,789,789,789,789,789,789,801,815,817,817,817,818,818,819,819,819,820,821,823,823,823,823,823,823,823,823,823,823,820,803,798,796,795,795,794,791,784,773,770,769,768,767,764,759,733,707,678,611,562,457,439,434,434,435,436,436,437,437,438,438,438,438,438,438,438,438,438,438],"ymouse":[490,490,475,461,437,404,348,221,143,74,5,5,5,5,5,5,5,5,0,7,31,58,117,147,187,237,290,382,424,435,466,477,481,481,481,481,481,481,481,481,481,481,481,481,481,481,481,481,481,482,498,510,524,526,526,526,526,526,526,526,526,526,526,526,526,526,526,526,526,528,534,535,535,535,536,536,537,537,537,537,537,537,537,537,537,537,537,537,537,537,537,537,534,532,532,531,531,531,530,528,526,526,526,526,525,524,522,505,487,466,394,328,190,152,129,119,114,112,111,107,104,102,102,102,102,102,102,102,102,102,97],"timestamp_mouse":[9,19,39,58,79,99,118,139,158,180,200,219,238,258,279,299,319,340,359,380,399,419,439,459,479,499,519,539,558,580,598,619,638,658,679,699,718,738,759,779,798,818,838,859,879,899,919,939,959,979,998,1018,1038,1058,1078,1099,1119,1138,1159,1179,1198,1220,1238,1259,1278,1299,1318,1340,1359,1378,1400,1418,1440,1459,1479,1499,1519,1540,1559,1580,1598,1619,1638,1659,1678,1698,1718,1740,1759,1778,1798,1818,1839,1859,1879,1899,1920,1938,1959,1979,2000,2018,2038,2059,2079,2100,2118,2139,2158,2178,2199,2219,2238,2258,2280,2299,2320,2339,2358,2378,2398,2419,2440,2460,2480,2498,2518,2539,2559,2580,2599],"xSR":741.5,"ySR":501.8,"xT1":424.9,"yT1":0,"xT2":1058.1,"yT2":0,"toosoon":0,"cond_shown":"equaldotsize","ratio_trial":250,"smaller_num":"6","larger_num":"24","correct_side":2,"subjID":"AngelSantiagoTinjacaCortes35","gender":"0","age":"11","school":"6","test":{"fix_dur":[250,1500],"timestim":300,"targets_dim":[100,100],"targets_relative_coord":[0.3,0.7],"size_stim":[880,420],"start_dim":[100,100],"size_start":[300,300],"size_fix":60,"samplingrate":20,"img_types":["equaldotsize","equaldotanddens","randomdotsizeEA"],"ratios":[250,500,750,900],"rep_conds":9,"nTrials":120,"trials_to_rest":500,"Trials_order":[72,62,101,53,64,80,98,29,3,19,90,85,108,47,7,63,35,30,22,77,60,33,17,111,118,45,58,40,116,76,83,11,79,49,66,119,37,36,117,48,78,51,20,57,92,28,27,31,1,112,38,81,109,100,18,106,71,55,34,82,107,104,44,23,42,70,13,12,50,113,68,114,99,96,6,73,24,67,2,8,65,75,103,41,9,16,26,32,102,84,15,0,110,39,105,88,56,4,97,95,86,94,25,46,5,89,54,69,61,52,91,10,43,14,21,115,87,93,59,74],"cond_shown":["equaldotsize","randomdotsizeEA","randomdotsizeEA","randomdotsizeEA","equaldotanddens","randomdotsizeEA","randomdotsizeEA","randomdotsizeEA","equaldotsize","equaldotanddens","equaldotsize","equaldotanddens","equaldotsize","randomdotsizeEA","equaldotanddens","equaldotsize","randomdotsizeEA","equaldotsize","equaldotanddens","randomdotsizeEA","equaldotsize","equaldotsize","randomdotsizeEA","equaldotsize","equaldotanddens","equaldotsize","equaldotanddens","equaldotanddens","randomdotsizeEA","equaldotanddens","randomdotsizeEA","randomdotsizeEA","equaldotanddens","equaldotanddens","equaldotsize","randomdotsizeEA","equaldotanddens","equaldotsize","equaldotsize","equaldotsize","equaldotsize","equaldotsize","randomdotsizeEA","equaldotsize","randomdotsizeEA","equaldotanddens","equaldotsize","equaldotanddens","equaldotanddens","equaldotanddens","randomdotsizeEA","equaldotsize","equaldotanddens","equaldotanddens","equaldotsize","equaldotanddens","randomdotsizeEA","equaldotanddens","equaldotanddens","equaldotanddens","randomdotsizeEA","randomdotsizeEA","randomdotsizeEA","randomdotsizeEA","equaldotsize","equaldotanddens","equaldotanddens","equaldotsize","randomdotsizeEA","randomdotsizeEA","randomdotsizeEA","equaldotsize","equaldotsize","equaldotsize","equaldotsize","equaldotanddens","equaldotsize","equaldotanddens","randomdotsizeEA","randomdotsizeEA","randomdotsizeEA","equaldotsize","equaldotanddens","randomdotsizeEA","equaldotsize","equaldotanddens","randomdotsizeEA","randomdotsizeEA","equaldotsize","equaldotsize","equaldotsize","equaldotsize","randomdotsizeEA","equaldotsize","equaldotsize","equaldotanddens","randomdotsizeEA","equaldotanddens","equaldotanddens","randomdotsizeEA","randomdotsizeEA","equaldotanddens","equaldotanddens","equaldotanddens","randomdotsizeEA","randomdotsizeEA","equaldotsize","equaldotsize","equaldotanddens","equaldotanddens","equaldotanddens","equaldotanddens","equaldotanddens","randomdotsizeEA","equaldotsize","equaldotanddens","equaldotsize","equaldotsize","randomdotsizeEA","randomdotsizeEA"],"ratio_trial":[250,250,500,500,500,750,250,500,500,750,750,250,250,900,750,500,900,750,900,500,250,900,500,500,900,900,900,500,750,500,900,900,750,250,750,900,250,250,900,250,750,500,750,900,750,500,500,750,250,500,250,900,250,500,750,900,900,750,900,900,900,750,750,900,750,900,250,250,250,500,750,750,500,250,750,250,250,750,250,750,500,500,750,500,900,500,250,750,750,250,500,250,250,500,900,500,750,500,250,900,250,900,250,900,500,500,750,900,250,500,750,900,750,250,900,750,500,900,900,250],"smaller_num":["6","4","5","5","2","15","2","10","6","3","3","2","2","18","3","5","9","6","18","2","6","9","2","9","9","9","9","6","9","6","18","9","18","3","9","9","4","3","18","2","6","4","15","18","15","2","5","15","5","10","4","9","1","10","3","9","18","15","18","9","18","3","12","9","15","18","2","4","4","9","6","15","5","3","6","1","2","3","1","3","9","9","3","6","9","9","1","3","15","3","9","3","2","4","18","4","15","3","1","18","3","18","1","18","3","2","15","18","2","10","12","18","6","5","18","3","9","18","18","2"],"larger_num":["24","16","10","10","4","20","8","20","12","4","4","8","8","20","4","10","10","8","20","4","24","10","4","18","10","10","10","12","12","12","20","10","24","12","12","10","16","12","20","8","8","8","20","20","20","4","10","20","20","20","16","10","4","20","4","10","20","20","20","10","20","4","16","10","20","20","8","16","16","18","8","20","10","12","8","4","8","4","4","4","18","18","4","12","10","18","4","4","20","12","18","12","8","8","20","8","20","6","4","20","12","20","4","20","6","4","20","20","8","20","16","20","8","20","20","4","18","20","20","8"],"correct_side":[2,1,2,1,2,1,1,2,1,1,2,1,1,1,2,1,2,1,1,1,2,2,2,2,2,1,2,1,2,1,1,2,1,2,2,2,1,1,1,1,1,1,2,2,2,2,1,2,2,2,1,2,2,2,1,2,1,2,1,2,2,1,2,1,2,1,1,2,1,1,1,2,2,1,1,2,1,2,2,1,2,1,2,1,2,1,2,1,2,2,2,2,1,1,1,1,1,2,2,1,1,1,2,1,2,1,2,2,2,2,2,2,1,2,1,2,1,2,1,1],"img_shown":["img/250/equaldotsize/R/6_Ratio_250_L_6_R_24.png","img/250/randomdotsizeEA/L/2_Ratio_250_L_16_R_4.png","img/500/randomdotsizeEA/R/14_Ratio_500_L_5_R_10.png","img/500/randomdotsizeEA/L/7_Ratio_500_L_10_R_5.png","img/500/equaldotanddens/R/9_Ratio_500_L_2_R_4.png","img/750/randomdotsizeEA/L/1_Ratio_750_L_20_R_15.png","img/250/randomdotsizeEA/L/1_Ratio_250_L_8_R_2.png","img/500/randomdotsizeEA/R/3_Ratio_500_L_10_R_20.png","img/500/equaldotsize/L/11_Ratio_500_L_12_R_6.png","img/750/equaldotanddens/L/10_Ratio_750_L_4_R_3.png","img/750/equaldotsize/R/7_Ratio_750_L_3_R_4.png","img/250/equaldotanddens/L/3_Ratio_250_L_8_R_2.png","img/250/equaldotsize/L/3_Ratio_250_L_8_R_2.png","img/900/randomdotsizeEA/L/2_Ratio_900_L_20_R_18.png","img/750/equaldotanddens/R/7_Ratio_750_L_3_R_4.png","img/500/equaldotsize/L/7_Ratio_500_L_10_R_5.png","img/900/randomdotsizeEA/R/6_Ratio_900_L_9_R_10.png","img/750/equaldotsize/L/14_Ratio_750_L_8_R_6.png","img/900/equaldotanddens/L/10_Ratio_900_L_20_R_18.png","img/500/randomdotsizeEA/L/5_Ratio_500_L_4_R_2.png","img/250/equaldotsize/R/6_Ratio_250_L_6_R_24.png","img/900/equaldotsize/R/15_Ratio_900_L_9_R_10.png","img/500/randomdotsizeEA/R/9_Ratio_500_L_2_R_4.png","img/500/equaldotsize/R/1_Ratio_500_L_9_R_18.png","img/900/equaldotanddens/R/15_Ratio_900_L_9_R_10.png","img/900/equaldotsize/L/1_Ratio_900_L_10_R_9.png","img/900/equaldotanddens/R/5_Ratio_900_L_9_R_10.png","img/500/equaldotanddens/L/11_Ratio_500_L_12_R_6.png","img/750/randomdotsizeEA/R/15_Ratio_750_L_9_R_12.png","img/500/equaldotanddens/L/11_Ratio_500_L_12_R_6.png","img/900/randomdotsizeEA/L/4_Ratio_900_L_20_R_18.png","img/900/randomdotsizeEA/R/7_Ratio_900_L_9_R_10.png","img/750/equaldotanddens/L/6_Ratio_750_L_24_R_18.png","img/250/equaldotanddens/R/9_Ratio_250_L_3_R_12.png","img/750/equaldotsize/R/15_Ratio_750_L_9_R_12.png","img/900/randomdotsizeEA/R/6_Ratio_900_L_9_R_10.png","img/250/equaldotanddens/L/2_Ratio_250_L_16_R_4.png","img/250/equaldotsize/L/15_Ratio_250_L_12_R_3.png","img/900/equaldotsize/L/10_Ratio_900_L_20_R_18.png","img/250/equaldotsize/L/1_Ratio_250_L_8_R_2.png","img/750/equaldotsize/L/14_Ratio_750_L_8_R_6.png","img/500/equaldotsize/L/8_Ratio_500_L_8_R_4.png","img/750/randomdotsizeEA/R/3_Ratio_750_L_15_R_20.png","img/900/equaldotsize/R/12_Ratio_900_L_18_R_20.png","img/750/randomdotsizeEA/R/3_Ratio_750_L_15_R_20.png","img/500/equaldotanddens/R/9_Ratio_500_L_2_R_4.png","img/500/equaldotsize/L/7_Ratio_500_L_10_R_5.png","img/750/equaldotanddens/R/4_Ratio_750_L_15_R_20.png","img/250/equaldotanddens/R/12_Ratio_250_L_5_R_20.png","img/500/equaldotanddens/R/3_Ratio_500_L_10_R_20.png","img/250/randomdotsizeEA/L/2_Ratio_250_L_16_R_4.png","img/900/equaldotsize/R/5_Ratio_900_L_9_R_10.png","img/250/equaldotanddens/R/8_Ratio_250_L_1_R_4.png","img/500/equaldotanddens/R/3_Ratio_500_L_10_R_20.png","img/750/equaldotsize/L/10_Ratio_750_L_4_R_3.png","img/900/equaldotanddens/R/6_Ratio_900_L_9_R_10.png","img/900/randomdotsizeEA/L/2_Ratio_900_L_20_R_18.png","img/750/equaldotanddens/R/5_Ratio_750_L_15_R_20.png","img/900/equaldotanddens/L/2_Ratio_900_L_20_R_18.png","img/900/equaldotanddens/R/7_Ratio_900_L_9_R_10.png","img/900/randomdotsizeEA/R/12_Ratio_900_L_18_R_20.png","img/750/randomdotsizeEA/L/9_Ratio_750_L_4_R_3.png","img/750/randomdotsizeEA/R/11_Ratio_750_L_12_R_16.png","img/900/randomdotsizeEA/L/1_Ratio_900_L_10_R_9.png","img/750/equaldotsize/R/4_Ratio_750_L_15_R_20.png","img/900/equaldotanddens/L/2_Ratio_900_L_20_R_18.png","img/250/equaldotanddens/L/3_Ratio_250_L_8_R_2.png","img/250/equaldotsize/R/10_Ratio_250_L_4_R_16.png","img/250/randomdotsizeEA/L/2_Ratio_250_L_16_R_4.png","img/500/randomdotsizeEA/L/4_Ratio_500_L_18_R_9.png","img/750/randomdotsizeEA/L/13_Ratio_750_L_8_R_6.png","img/750/equaldotsize/R/3_Ratio_750_L_15_R_20.png","img/500/equaldotsize/R/14_Ratio_500_L_5_R_10.png","img/250/equaldotsize/L/15_Ratio_250_L_12_R_3.png","img/750/equaldotsize/L/14_Ratio_750_L_8_R_6.png","img/250/equaldotanddens/R/8_Ratio_250_L_1_R_4.png","img/250/equaldotsize/L/1_Ratio_250_L_8_R_2.png","img/750/equaldotanddens/R/12_Ratio_750_L_3_R_4.png","img/250/randomdotsizeEA/R/8_Ratio_250_L_1_R_4.png","img/750/randomdotsizeEA/L/9_Ratio_750_L_4_R_3.png","img/500/randomdotsizeEA/R/1_Ratio_500_L_9_R_18.png","img/500/equaldotsize/L/4_Ratio_500_L_18_R_9.png","img/750/equaldotanddens/R/7_Ratio_750_L_3_R_4.png","img/500/randomdotsizeEA/L/13_Ratio_500_L_12_R_6.png","img/900/equaldotsize/R/5_Ratio_900_L_9_R_10.png","img/500/equaldotanddens/L/4_Ratio_500_L_18_R_9.png","img/250/randomdotsizeEA/R/8_Ratio_250_L_1_R_4.png","img/750/randomdotsizeEA/L/10_Ratio_750_L_4_R_3.png","img/750/equaldotsize/R/3_Ratio_750_L_15_R_20.png","img/250/equaldotsize/R/11_Ratio_250_L_3_R_12.png","img/500/equaldotsize/R/6_Ratio_500_L_9_R_18.png","img/250/equaldotsize/R/9_Ratio_250_L_3_R_12.png","img/250/randomdotsizeEA/L/3_Ratio_250_L_8_R_2.png","img/500/equaldotsize/L/8_Ratio_500_L_8_R_4.png","img/900/equaldotsize/L/8_Ratio_900_L_20_R_18.png","img/500/equaldotanddens/L/8_Ratio_500_L_8_R_4.png","img/750/randomdotsizeEA/L/1_Ratio_750_L_20_R_15.png","img/500/equaldotanddens/R/2_Ratio_500_L_3_R_6.png","img/250/equaldotanddens/R/8_Ratio_250_L_1_R_4.png","img/900/randomdotsizeEA/L/8_Ratio_900_L_20_R_18.png","img/250/randomdotsizeEA/L/14_Ratio_250_L_12_R_3.png","img/900/equaldotanddens/L/2_Ratio_900_L_20_R_18.png","img/250/equaldotanddens/R/8_Ratio_250_L_1_R_4.png","img/900/equaldotanddens/L/10_Ratio_900_L_20_R_18.png","img/500/randomdotsizeEA/R/2_Ratio_500_L_3_R_6.png","img/500/randomdotsizeEA/L/5_Ratio_500_L_4_R_2.png","img/750/equaldotsize/R/5_Ratio_750_L_15_R_20.png","img/900/equaldotsize/R/11_Ratio_900_L_18_R_20.png","img/250/equaldotanddens/R/13_Ratio_250_L_2_R_8.png","img/500/equaldotanddens/R/3_Ratio_500_L_10_R_20.png","img/750/equaldotanddens/R/11_Ratio_750_L_12_R_16.png","img/900/equaldotanddens/R/12_Ratio_900_L_18_R_20.png","img/750/equaldotanddens/L/14_Ratio_750_L_8_R_6.png","img/250/randomdotsizeEA/R/12_Ratio_250_L_5_R_20.png","img/900/equaldotsize/L/2_Ratio_900_L_20_R_18.png","img/750/equaldotanddens/R/12_Ratio_750_L_3_R_4.png","img/500/equaldotsize/L/4_Ratio_500_L_18_R_9.png","img/900/equaldotsize/R/14_Ratio_900_L_18_R_20.png","img/900/randomdotsizeEA/L/2_Ratio_900_L_20_R_18.png","img/250/randomdotsizeEA/L/1_Ratio_250_L_8_R_2.png"],"Rat0":[["12_Ratio_0_L_9_R_0.png","13_Ratio_0_L_6_R_0.png","5_Ratio_0_L_2_R_0.png","6_Ratio_0_L_4_R_0.png","8_Ratio_0_L_6_R_0.png"],["1_Ratio_0_L_0_R_17.png","10_Ratio_0_L_0_R_22.png","11_Ratio_0_L_0_R_1.png","14_Ratio_0_L_0_R_24.png","15_Ratio_0_L_0_R_4.png","2_Ratio_0_L_0_R_5.png","3_Ratio_0_L_0_R_17.png","4_Ratio_0_L_0_R_7.png","7_Ratio_0_L_0_R_19.png","9_Ratio_0_L_0_R_15.png"]],"Rat250":[["1_Ratio_250_L_8_R_2.png","14_Ratio_250_L_12_R_3.png","15_Ratio_250_L_12_R_3.png","2_Ratio_250_L_16_R_4.png","3_Ratio_250_L_8_R_2.png","5_Ratio_250_L_24_R_6.png","7_Ratio_250_L_8_R_2.png"],["10_Ratio_250_L_4_R_16.png","11_Ratio_250_L_3_R_12.png","12_Ratio_250_L_5_R_20.png","13_Ratio_250_L_2_R_8.png","4_Ratio_250_L_3_R_12.png","6_Ratio_250_L_6_R_24.png","8_Ratio_250_L_1_R_4.png","9_Ratio_250_L_3_R_12.png"]],"Rat500":[["10_Ratio_500_L_4_R_2.png","11_Ratio_500_L_12_R_6.png","13_Ratio_500_L_12_R_6.png","4_Ratio_500_L_18_R_9.png","5_Ratio_500_L_4_R_2.png","7_Ratio_500_L_10_R_5.png","8_Ratio_500_L_8_R_4.png"],["1_Ratio_500_L_9_R_18.png","12_Ratio_500_L_1_R_2.png","14_Ratio_500_L_5_R_10.png","15_Ratio_500_L_1_R_2.png","2_Ratio_500_L_3_R_6.png","3_Ratio_500_L_10_R_20.png","6_Ratio_500_L_9_R_18.png","9_Ratio_500_L_2_R_4.png"]],"Rat750":[["1_Ratio_750_L_20_R_15.png","10_Ratio_750_L_4_R_3.png","13_Ratio_750_L_8_R_6.png","14_Ratio_750_L_8_R_6.png","6_Ratio_750_L_24_R_18.png","8_Ratio_750_L_4_R_3.png","9_Ratio_750_L_4_R_3.png"],["11_Ratio_750_L_12_R_16.png","12_Ratio_750_L_3_R_4.png","15_Ratio_750_L_9_R_12.png","2_Ratio_750_L_6_R_8.png","3_Ratio_750_L_15_R_20.png","4_Ratio_750_L_15_R_20.png","5_Ratio_750_L_15_R_20.png","7_Ratio_750_L_3_R_4.png"]],"Rat900":[["1_Ratio_900_L_10_R_9.png","10_Ratio_900_L_20_R_18.png","2_Ratio_900_L_20_R_18.png","4_Ratio_900_L_20_R_18.png","8_Ratio_900_L_20_R_18.png"],["11_Ratio_900_L_18_R_20.png","12_Ratio_900_L_18_R_20.png","13_Ratio_900_L_18_R_20.png","14_Ratio_900_L_18_R_20.png","15_Ratio_900_L_9_R_10.png","3_Ratio_900_L_9_R_10.png","5_Ratio_900_L_9_R_10.png","6_Ratio_900_L_9_R_10.png","7_Ratio_900_L_9_R_10.png","9_Ratio_900_L_18_R_20.png"]],"Rat1000":[["10_Ratio_1000_L_16_R_16.png","11_Ratio_1000_L_6_R_6.png","12_Ratio_1000_L_14_R_14.png","13_Ratio_1000_L_20_R_20.png","15_Ratio_1000_L_15_R_15.png","2_Ratio_1000_L_17_R_17.png","4_Ratio_1000_L_9_R_9.png","5_Ratio_1000_L_6_R_6.png","6_Ratio_1000_L_19_R_19.png","8_Ratio_1000_L_14_R_14.png","9_Ratio_1000_L_25_R_25.png"],["1_Ratio_1000_L_1_R_1.png","14_Ratio_1000_L_17_R_17.png","3_Ratio_1000_L_17_R_17.png","7_Ratio_1000_L_6_R_6.png"]]}},{"start_time":1551900753241,"click_time":1551900754193,"finger_time":1551900754093,"fix_duration":585.1035718134328,"trial":1,"RT":852,"MT":100,"sideResp":1,"stimulus":"img/250/randomdotsizeEA/L/2_Ratio_250_L_16_R_4.png","xmouse":[800,800,800,800,800,800,800,800,800,800,800,800,800,800,800,800,800,800,800,800,800,800,800,800,800,800,800,800,800,800,800,800,800,800,800,800,800,800,800,800,795,778,691,641,589,537,494],"ymouse":[522,522,522,522,522,522,522,522,522,522,522,522,522,522,522,522,522,522,522,522,522,522,522,522,522,522,522,522,522,522,522,522,522,522,522,522,522,522,511,503,475,445,333,272,213,146,86],"timestamp_mouse":[13,55,73,93,112,133,153,172,193,214,232,252,273,292,313,332,353,372,394,413,433,452,473,493,512,534,553,574,593,612,633,653,674,693,713,734,753,774,794,813,833,852,873,892,913,932,952],"xSR":741.5,"ySR":469.95,"xT1":424.9,"yT1":0,"xT2":1058.1,"yT2":0,"toosoon":0,"cond_shown":"randomdotsizeEA","ratio_trial":250,"smaller_num":"4","larger_num":"16","correct_side":1,"subjID":"AngelSantiagoTinjacaCortes35","gender":"0","age":"11","school":"6"},{"start_time":1551900755938,"click_time":1551900759013,"finger_time":1551900758414,"fix_duration":824.6023979889226,"trial":2,"RT":2476,"MT":599,"sideResp":2,"stimulus":"img/500/randomdotsizeEA/R/14_Ratio_500_L_5_R_10.png","xmouse":[753,753,753,753,753,753,753,753,753,753,753,753,753,753,753,753,753,753,753,753,753,753,753,753,753,753,753,753,753,753,753,753,753,753,753,753,753,753,753,753,753,753,753,753,753,753,753,753,753,753,753,753,753,753,753,753,753,753,753,753,754,754,754,754,754,754,754,754,754,754,754,754,754,754,754,754,754,754,754,754,754,754,754,754,754,754,754,754,754,754,754,754,754,754,754,754,754,754,754,754,754,754,754,754,754,754,754,754,754,754,754,754,754,754,754,754,754,754,754,754,754,754,754,754,754,754,754,754,754,754,769,784,813,832,881,907,944,965,1004,1026,1038,1052,1063,1079,1081,1081,1081,1082,1082,1082,1082,1082,1082,1084],"ymouse":[512,512,512,512,512,512,512,512,512,512,512,512,512,512,512,512,512,512,512,512,512,512,512,512,512,512,512,512,512,512,512,512,512,512,512,512,512,512,512,512,512,512,512,512,512,512,512,512,512,512,512,512,512,512,512,512,512,512,512,512,513,513,513,513,513,513,513,513,513,513,513,513,513,513,513,513,513,513,513,513,513,513,513,513,513,513,513,513,513,513,513,513,513,513,513,513,513,513,513,513,513,513,513,513,513,513,513,513,513,513,513,513,513,513,513,513,513,513,513,513,513,513,513,584,584,584,584,584,584,584,578,569,551,533,473,441,395,360,296,259,230,196,168,126,110,107,104,103,103,103,103,103,103,99],"timestamp_mouse":[19,35,56,75,95,115,136,156,175,195,216,237,255,275,294,315,336,355,375,395,416,434,456,476,496,516,534,555,576,596,614,634,655,675,695,716,735,756,774,796,815,835,856,876,895,916,935,955,974,994,1015,1035,1056,1074,1096,1115,1136,1156,1176,1195,1216,1235,1254,1275,1295,1315,1336,1355,1374,1395,1416,1436,1456,1476,1494,1515,1534,1556,1574,1596,1615,1635,1654,1676,1696,1714,1736,1756,1774,1796,1815,1835,1854,1876,1895,1915,1935,1954,1975,1994,2016,2036,2056,2075,2096,2116,2136,2156,2175,2195,2215,2236,2255,2275,2294,2316,2336,2356,2376,2396,2415,2443,2454,2476,2497,2516,2536,2555,2576,2595,2615,2635,2656,2675,2695,2715,2736,2755,2775,2795,2815,2835,2856,2875,2895,2915,2935,2956,2975,2996,3016,3035,3055,3075],"xSR":741.5,"ySR":469.95,"xT1":424.9,"yT1":0,"xT2":1058.1,"yT2":0,"toosoon":0,"cond_shown":"randomdotsizeEA","ratio_trial":500,"smaller_num":"5","larger_num":"10","correct_side":2,"subjID":"AngelSantiagoTinjacaCortes35","gender":"0","age":"11","school":"6"},{"start_time":1551900760264,"click_time":1551900761193,"finger_time":1551900760392,"fix_duration":649.2840361438845,"trial":3,"RT":128,"MT":801,"sideResp":1,"stimulus":"img/500/randomdotsizeEA/L/7_Ratio_500_L_10_R_5.png","xmouse":[788,787,787,815,830,839,843,843,843,843,843,843,843,843,843,843,843,843,843,844,845,846,846,846,846,846,846,846,845,842,838,832,808,796,775,755,738,700,671,646,617,595,566,561,546,533,519],"ymouse":[613,613,613,613,615,620,621,621,621,621,621,621,621,621,621,621,621,621,621,622,622,622,622,622,622,622,622,622,622,622,621,621,617,610,596,582,567,521,491,452,402,351,220,145,89,45,15],"timestamp_mouse":[10,29,49,70,89,110,128,150,168,189,210,229,250,269,290,310,330,349,368,389,410,430,450,469,489,509,529,549,569,589,609,628,649,670,688,709,729,749,768,789,810,828,850,869,890,908,928],"xSR":741.5,"ySR":573.95,"xT1":424.9,"yT1":0,"xT2":1058.1,"yT2":0,"toosoon":0,"cond_shown":"randomdotsizeEA","ratio_trial":500,"smaller_num":"5","larger_num":"10","correct_side":1,"subjID":"AngelSantiagoTinjacaCortes35","gender":"0","age":"11","school":"6"},{"start_time":1551900762937,"click_time":1551900763773,"finger_time":1551900763632,"fix_duration":542.5534389839751,"trial":4,"RT":695,"MT":141,"sideResp":2,"stimulus":"img/500/equaldotanddens/R/9_Ratio_500_L_2_R_4.png","xmouse":[791,791,791,791,793,794,795,795,795,795,795,795,795,795,795,795,795,795,795,795,795,795,795,795,795,795,795,795,795,795,795,796,796,808,834,867,919,988,1049,1063,1075,1094],"ymouse":[606,606,606,606,607,607,608,608,608,608,608,608,608,608,608,608,608,608,608,608,608,608,608,608,608,608,608,608,608,608,608,608,608,576,517,439,358,248,162,135,114,89],"timestamp_mouse":[22,40,56,77,95,116,136,157,177,196,216,236,256,275,296,316,336,357,376,396,417,437,457,477,496,517,535,556,575,596,617,635,656,676,695,716,737,756,776,795,816,835],"xSR":741.5,"ySR":573.95,"xT1":424.9,"yT1":0,"xT2":1058.1,"yT2":0,"toosoon":0,"cond_shown":"equaldotanddens","ratio_trial":500,"smaller_num":"2","larger_num":"4","correct_side":2,"subjID":"AngelSantiagoTinjacaCortes35","gender":"0","age":"11","school":"6"},{"start_time":1551900765125,"click_time":1551900766133,"finger_time":1551900765813,"fix_duration":289.51621282087723,"trial":5,"RT":688,"MT":320,"sideResp":1,"stimulus":"img/750/randomdotsizeEA/L/1_Ratio_750_L_20_R_15.png","xmouse":[769,769,769,769,769,769,769,769,769,769,769,769,769,769,769,769,769,769,769,769,769,769,769,769,769,769,769,769,769,769,769,769,769,769,743,711,683,642,622,606,602,598,591,584,575,571,569,560,552,526,509],"ymouse":[654,654,654,654,654,654,654,654,654,654,654,654,654,654,654,654,654,654,654,654,654,654,654,654,654,654,654,654,654,654,654,654,654,603,485,405,338,244,201,142,126,115,102,93,81,78,76,73,71,69,66],"timestamp_mouse":[8,40,48,69,89,108,129,147,168,188,208,229,248,268,289,307,328,348,368,388,407,428,447,468,487,508,527,547,568,588,607,627,648,669,688,707,728,747,769,788,808,828,847,868,888,908,928,947,968,988,1008],"xSR":741.5,"ySR":573.95,"xT1":424.9,"yT1":0,"xT2":1058.1,"yT2":0,"toosoon":0,"cond_shown":"randomdotsizeEA","ratio_trial":750,"smaller_num":"15","larger_num":"20","correct_side":1,"subjID":"AngelSantiagoTinjacaCortes35","gender":"0","age":"11","school":"6"},{"start_time":1551900767225,"click_time":1551900768133,"finger_time":1551900767953,"fix_duration":250,"trial":6,"RT":728,"MT":180,"sideResp":1,"stimulus":"img/250/randomdotsizeEA/L/1_Ratio_250_L_8_R_2.png","xmouse":[791,791,791,791,793,793,793,793,793,793,793,793,793,793,793,793,793,793,793,793,793,793,793,793,793,793,793,793,793,793,793,793,793,793,786,753,732,703,662,605,488,460,457,453,451,450],"ymouse":[630,630,630,630,630,630,630,630,630,630,630,630,630,630,630,630,630,630,630,630,630,630,630,630,630,630,630,630,630,630,630,630,630,628,620,589,563,522,459,388,234,178,169,150,126,69],"timestamp_mouse":[13,27,48,68,89,119,127,149,168,187,208,228,248,268,288,308,328,349,368,388,407,428,449,468,488,507,528,548,568,589,607,629,648,668,688,709,727,749,768,787,808,828,849,869,887,908],"xSR":741.5,"ySR":573.95,"xT1":424.9,"yT1":0,"xT2":1058.1,"yT2":0,"toosoon":0,"cond_shown":"randomdotsizeEA","ratio_trial":250,"smaller_num":"2","larger_num":"8","correct_side":1,"subjID":"AngelSantiagoTinjacaCortes35","gender":"0","age":"11","school":"6"},{"start_time":1551900770054,"click_time":1551900771174,"finger_time":1551900770713,"fix_duration":1320.557317356712,"trial":7,"RT":659,"MT":461,"sideResp":2,"stimulus":"img/500/randomdotsizeEA/R/3_Ratio_500_L_10_R_20.png","xmouse":[834,834,834,834,834,834,834,834,834,834,834,834,834,834,834,834,834,834,834,834,834,834,834,834,834,834,834,834,834,834,834,836,860,887,925,961,990,1021,1028,1031,1036,1041,1048,1049,1049,1049,1049,1049,1049,1049,1052,1057,1062,1062,1062,1064],"ymouse":[646,646,646,646,646,646,646,646,646,646,646,646,646,646,646,646,646,646,646,646,646,646,646,646,646,646,646,646,646,646,646,644,616,582,520,444,367,255,231,214,199,177,148,139,137,137,137,137,137,137,133,125,111,106,103,96],"timestamp_mouse":[19,42,59,80,100,120,139,160,180,199,219,240,260,279,299,319,339,359,379,399,419,440,460,478,499,520,540,559,579,599,619,639,659,679,698,719,740,759,780,799,820,839,859,879,899,919,939,960,979,999,1019,1040,1059,1079,1099,1119],"xSR":741.5,"ySR":573.95,"xT1":424.9,"yT1":0,"xT2":1058.1,"yT2":0,"toosoon":0,"cond_shown":"randomdotsizeEA","ratio_trial":500,"smaller_num":"10","larger_num":"20","correct_side":2,"subjID":"AngelSantiagoTinjacaCortes35","gender":"0","age":"11","school":"6"},{"start_time":1551900772080,"click_time":1551900772894,"finger_time":1551900772553,"fix_duration":385.87881095039023,"trial":8,"RT":473,"MT":341,"sideResp":1,"stimulus":"img/500/equaldotsize/L/11_Ratio_500_L_12_R_6.png","xmouse":[783,783,783,783,783,783,783,783,783,783,783,783,783,783,783,783,783,780,777,775,774,771,757,717,647,571,453,423,404,393,378,364,360,360,360,360,360,372,404,414,441],"ymouse":[619,619,619,619,619,619,619,619,619,619,619,619,619,619,619,619,619,620,623,624,624,624,601,553,479,405,273,220,164,109,17,0,0,0,0,0,0,3,19,23,38],"timestamp_mouse":[17,34,54,73,92,113,134,152,173,194,213,234,253,274,292,313,334,354,373,393,413,433,453,473,492,513,533,553,574,593,614,633,653,673,693,713,733,752,774,794,814],"xSR":741.5,"ySR":573.95,"xT1":424.9,"yT1":0,"xT2":1058.1,"yT2":0,"toosoon":0,"cond_shown":"equaldotsize","ratio_trial":500,"smaller_num":"6","larger_num":"12","correct_side":1,"subjID":"AngelSantiagoTinjacaCortes35","gender":"0","age":"11","school":"6"},{"start_time":1551900774146,"click_time":1551900775153,"finger_time":1551900774853,"fix_duration":250,"trial":9,"RT":707,"MT":300,"sideResp":1,"stimulus":"img/750/equaldotanddens/L/10_Ratio_750_L_4_R_3.png","xmouse":[817,817,817,817,817,817,817,817,817,817,817,817,817,817,817,817,817,817,817,817,817,817,817,817,816,811,809,805,804,803,800,800,795,775,758,740,717,676,641,589,574,566,561,557,557,554,551,541,531,526,524],"ymouse":[638,638,638,638,638,638,638,638,638,638,638,638,638,638,638,638,638,638,638,638,638,638,638,638,634,627,626,623,623,623,622,621,620,607,594,579,550,495,436,322,275,236,205,143,115,87,66,37,18,13,12],"timestamp_mouse":[6,36,47,68,87,107,127,147,168,187,207,228,248,268,287,308,327,348,367,386,407,428,448,466,487,508,527,546,567,588,607,626,647,667,686,707,727,747,766,787,807,827,848,867,886,907,927,948,967,987,1007],"xSR":741.5,"ySR":573.95,"xT1":424.9,"yT1":0,"xT2":1058.1,"yT2":0,"toosoon":0,"cond_shown":"equaldotanddens","ratio_trial":750,"smaller_num":"3","larger_num":"4","correct_side":1,"subjID":"AngelSantiagoTinjacaCortes35","gender":"0","age":"11","school":"6"},{"start_time":1551900776585,"click_time":1551900795534,"finger_time":1551900795274,"fix_duration":528.9554109158801,"trial":10,"RT":18689,"MT":260,"sideResp":1,"stimulus":"img/750/equaldotsize/R/7_Ratio_750_L_3_R_4.png","xmouse":[776,776,776,776,776,776,776,776,776,776,776,776,776,776,776,776,779,779,779,779,779,779,779,779,779,779,779,779,779,779,779,779,779,779,779,779,779,779,779,779,779,779,779,779,779,779,779,779,779,779,779,779,779,779,779,779,779,779,779,779,779,779,779,779,779,779,779,779,779,779,779,779,779,779,779,779,779,779,779,779,779,779,779,779,779,779,779,779,779,779,779,779,779,779,779,779,779,779,779,779,779,779,779,779,779,779,779,779,779,779,779,779,779,779,779,779,779,779,779,779,779,779,779,779,779,779,779,779,779,779,779,779,779,779,779,779,779,779,779,779,779,779,779,779,779,779,779,779,779,779,779,779,779,779,779,779,779,779,779,779,779,779,779,779,779,779,779,779,779,779,779,779,779,779,779,779,779,779,779,779,779,779,779,779,779,779,779,779,779,779,779,779,779,779,779,779,779,779,779,779,779,779,779,779,779,779,779,779,779,779,779,779,779,779,779,779,779,779,779,779,779,779,779,779,779,779,779,779,779,779,779,779,779,779,779,779,779,779,779,779,779,779,779,779,779,779,779,779,779,779,779,779,779,779,779,779,779,779,779,779,779,779,779,779,779,779,779,779,779,779,779,779,779,779,779,779,779,779,779,779,779,779,779,779,779,779,779,779,779,779,779,779,779,779,779,779,779,779,779,779,779,779,779,779,779,779,779,779,779,779,779,779,779,779,779,779,779,779,779,779,779,779,779,779,779,779,779,779,779,779,779,779,779,779,779,779,779,779,779,779,779,779,779,779,779,779,779,779,779,779,779,779,779,779,779,779,779,779,779,779,779,779,779,779,779,779,779,779,779,779,779,779,779,779,779,779,779,779,779,779,779,779,779,779,779,779,779,779,779,779,779,779,779,779,779,779,779,779,779,779,779,779,779,779,779,779,779,779,779,779,779,779,779,779,779,779,779,779,779,779,779,779,779,779,779,779,779,779,779,779,779,779,779,779,779,779,779,779,779,779,779,779,779,779,779,779,779,779,779,779,779,779,779,779,779,779,779,779,779,779,779,779,779,779,779,779,779,779,779,779,779,779,779,779,779,779,779,779,779,779,779,779,779,779,779,779,779,779,779,779,779,779,779,779,779,779,779,779,779,779,779,779,779,779,779,779,779,779,779,779,779,779,779,779,779,779,779,779,779,779,779,779,779,779,779,779,779,779,779,779,779,779,779,779,779,779,779,779,779,779,779,779,779,779,779,779,779,779,779,779,779,779,779,779,779,779,779,779,779,779,779,779,779,779,779,779,779,779,779,779,779,779,779,779,779,779,779,779,779,779,779,779,779,779,779,779,779,779,779,779,779,779,779,779,779,779,779,779,779,779,779,779,779,779,779,779,779,779,779,779,779,779,779,779,779,779,779,779,779,779,779,779,779,779,779,779,779,779,779,779,779,779,779,779,779,779,779,779,779,779,779,779,779,779,779,779,779,779,779,779,779,779,779,779,779,779,779,779,779,779,779,779,779,779,779,779,779,779,779,779,779,779,779,779,779,779,779,779,779,779,779,779,779,779,779,779,779,779,779,779,779,779,779,779,779,779,779,779,779,779,779,779,779,779,779,779,779,779,779,779,779,779,779,779,779,779,779,779,779,779,779,779,779,779,779,779,779,779,779,779,779,779,779,779,779,779,779,779,779,779,779,779,779,779,779,779,779,779,779,779,779,779,779,779,779,779,779,779,779,779,779,779,779,779,779,779,779,779,779,779,779,779,779,779,779,779,779,779,779,779,779,779,779,779,779,779,779,779,779,779,779,779,779,779,779,779,779,779,779,779,779,779,779,779,779,779,779,779,779,779,779,779,779,779,779,779,779,779,779,779,779,779,779,779,779,779,779,779,779,779,779,779,779,779,779,779,779,779,779,779,779,779,779,779,779,779,779,779,779,779,779,779,779,779,779,779,779,779,779,779,779,779,779,779,779,779,779,779,779,779,779,779,779,779,779,779,779,779,779,779,779,779,779,779,779,779,779,779,779,779,779,779,779,779,779,779,779,779,779,779,779,779,779,779,779,779,779,779,779,779,779,779,779,779,779,779,779,779,779,779,779,779,779,779,779,779,779,779,779,779,779,779,768,756,715,636,519,508,499,485,475,454,441,433,430,430,432,435],"ymouse":[601,601,601,601,601,601,601,601,601,601,601,601,601,601,601,601,603,603,603,603,603,603,603,603,603,603,603,603,603,603,603,603,603,603,603,603,603,603,603,603,603,603,603,603,603,603,603,603,603,603,603,603,603,603,603,603,603,603,603,603,603,603,603,603,603,603,603,603,603,603,603,603,603,603,603,603,603,603,603,603,603,603,603,603,603,603,603,603,603,603,603,603,603,603,603,603,603,603,603,603,603,603,603,603,603,603,603,603,603,603,603,603,603,603,603,603,603,603,603,603,603,603,603,603,603,603,603,603,603,603,603,603,603,603,603,603,603,603,603,603,603,603,603,603,603,603,603,603,603,603,603,603,603,603,603,603,603,603,603,603,603,603,603,603,603,603,603,603,603,603,603,603,603,603,603,603,603,603,603,603,603,603,603,603,603,603,603,603,603,603,603,603,603,603,603,603,603,603,603,603,603,603,603,603,603,603,603,603,603,603,603,603,603,603,603,603,603,603,603,603,603,603,603,603,603,603,603,603,603,603,603,603,603,603,603,603,603,603,603,603,603,603,603,603,603,603,603,603,603,603,603,603,603,603,603,603,603,603,603,603,603,603,603,603,603,603,603,603,603,603,603,603,603,603,603,603,603,603,603,603,603,603,603,603,603,603,603,603,603,603,603,603,603,603,603,603,603,603,603,603,603,603,603,603,603,603,603,603,603,603,603,603,603,603,603,603,603,603,603,603,603,603,603,603,603,603,603,603,603,603,603,603,603,603,603,603,603,603,603,603,603,603,603,603,603,603,603,603,603,603,603,603,603,603,603,603,603,603,603,603,603,603,603,603,603,603,603,603,603,603,603,603,603,603,603,603,603,603,603,603,603,603,603,603,603,603,603,603,603,603,603,603,603,603,603,603,603,603,603,603,603,603,603,603,603,603,603,603,603,603,603,603,603,603,603,603,603,603,603,603,603,603,603,603,603,603,603,603,603,603,603,603,603,603,603,603,603,603,603,603,603,603,603,603,603,603,603,603,603,603,603,603,603,603,603,603,603,603,603,603,603,603,603,603,603,603,603,603,603,603,603,603,603,603,603,603,603,603,603,603,603,603,603,603,603,603,603,603,603,603,603,603,603,603,603,603,603,603,603,603,603,603,603,603,603,603,603,603,603,603,603,603,603,603,603,603,603,603,603,603,603,603,603,603,603,603,603,603,603,603,603,603,603,603,603,603,603,603,603,603,603,603,603,603,603,603,603,603,603,603,603,603,603,603,603,603,603,603,603,603,603,603,603,603,603,603,603,603,603,603,603,603,603,603,603,603,603,603,603,603,603,603,603,603,603,603,603,603,603,603,603,603,603,603,603,603,603,603,603,603,603,603,603,603,603,603,603,603,603,603,603,603,603,603,603,603,603,603,603,603,603,603,603,603,603,603,603,603,603,603,603,603,603,603,603,603,603,603,603,603,603,603,603,603,603,603,603,603,603,603,603,603,603,603,603,603,603,603,603,603,603,603,603,603,603,603,603,603,603,603,603,603,603,603,603,603,603,603,603,603,603,603,603,603,603,603,603,603,603,603,603,603,603,603,603,603,603,603,603,603,603,603,603,603,603,603,603,603,603,603,603,603,603,603,603,603,603,603,603,603,603,603,603,603,603,603,603,603,603,603,603,603,603,603,603,603,603,603,603,603,603,603,603,603,603,603,603,603,603,603,603,603,603,603,603,603,603,603,603,603,603,603,603,603,603,603,603,603,603,603,603,603,603,603,603,603,603,603,603,603,603,603,603,603,603,603,603,603,603,603,603,603,603,603,603,603,603,603,603,603,603,603,603,603,603,603,603,603,603,603,603,603,603,603,603,603,603,603,603,603,603,603,603,603,603,603,603,603,603,603,603,603,603,603,603,603,603,603,603,603,603,603,603,603,603,603,603,603,603,603,603,603,603,603,603,603,603,603,603,603,603,603,603,603,603,603,603,603,603,603,603,603,603,603,603,603,603,603,603,603,603,603,603,603,603,603,603,603,603,603,603,603,603,603,603,603,603,603,603,603,603,603,603,603,603,603,603,603,603,603,603,603,603,603,603,603,603,603,603,603,603,603,603,603,603,603,603,603,603,603,603,603,603,603,581,544,437,412,379,328,289,221,165,134,117,114,109,96],"timestamp_mouse":[10,28,58,69,88,108,129,149,167,189,209,228,249,268,289,308,329,348,368,388,408,429,449,468,489,509,528,548,568,588,609,629,647,668,688,707,729,749,767,789,808,828,849,869,888,908,929,947,968,989,1007,1029,1049,1067,1089,1109,1128,1148,1167,1188,1209,1227,1248,1268,1287,1308,1327,1348,1368,1388,1408,1428,1449,1469,1488,1508,1528,1549,1568,1588,1608,1627,1648,1668,1689,1708,1729,1747,1768,1788,1808,1827,1848,1869,1889,1909,1927,1949,1968,1988,2009,2028,2048,2068,2088,2109,2128,2147,2168,2188,2208,2227,2247,2269,2288,2307,2327,2348,2368,2388,2409,2429,2447,2468,2488,2508,2527,2548,2567,2588,2607,2627,2649,2667,2688,2708,2728,2748,2768,2788,2809,2828,2848,2868,2888,2909,2928,2948,2969,2987,3007,3028,3048,3069,3088,3108,3128,3148,3168,3188,3209,3229,3249,3268,3289,3308,3327,3348,3368,3388,3409,3429,3449,3469,3488,3509,3529,3547,3568,3587,3608,3629,3647,3668,3688,3709,3728,3748,3768,3788,3808,3829,3847,3868,3888,3909,3927,3948,3969,3989,4007,4029,4049,4068,4089,4107,4128,4149,4167,4189,4209,4228,4248,4268,4287,4309,4327,4349,4369,4388,4408,4428,4447,4469,4489,4507,4527,4549,4568,4588,4608,4628,4648,4668,4688,4708,4729,4748,4768,4788,4808,4827,4849,4868,4888,4908,4929,4948,4968,4988,5008,5028,5047,5067,5089,5107,5127,5148,5168,5189,5208,5228,5248,5269,5289,5307,5329,5348,5369,5387,5408,5428,5449,5468,5489,5509,5528,5549,5568,5589,5609,5629,5648,5669,5688,5708,5728,5749,5769,5787,5809,5829,5849,5868,5889,5908,5929,5949,5968,5988,6009,6029,6048,6069,6088,6108,6128,6149,6168,6189,6209,6227,6248,6268,6288,6307,6327,6348,6368,6388,6408,6428,6449,6469,6487,6507,6529,6547,6569,6587,6608,6628,6647,6668,6689,6709,6727,6748,6767,6788,6808,6828,6848,6868,6888,6908,6927,6949,6968,6988,7008,7027,7049,7069,7087,7108,7128,7149,7169,7189,7208,7228,7247,7268,7288,7307,7328,7348,7368,7389,7409,7427,7449,7468,7489,7508,7529,7548,7568,7588,7608,7628,7649,7668,7688,7708,7729,7748,7768,7787,7808,7828,7848,7869,7888,7908,7928,7949,7969,7989,8007,8028,8048,8067,8088,8108,8129,8148,8168,8188,8207,8229,8249,8267,8288,8308,8329,8348,8368,8388,8408,8428,8449,8468,8488,8508,8529,8549,8567,8588,8608,8628,8648,8668,8688,8708,8728,8748,8768,8788,8808,8828,8848,8869,8888,8908,8928,8948,8968,8988,9009,9029,9048,9068,9087,9109,9128,9149,9169,9188,9208,9229,9249,9269,9288,9309,9329,9349,9368,9388,9408,9428,9449,9468,9488,9508,9529,9548,9569,9587,9608,9628,9649,9669,9688,9709,9728,9749,9769,9788,9809,9829,9849,9869,9889,9909,9928,9948,9968,9988,10009,10028,10048,10069,10088,10109,10128,10148,10169,10187,10207,10229,10249,10269,10287,10308,10329,10348,10369,10389,10409,10429,10448,10468,10488,10508,10529,10548,10568,10588,10608,10627,10647,10668,10688,10708,10728,10749,10768,10788,10808,10829,10848,10868,10889,10909,10928,10947,10968,10989,11008,11028,11048,11067,11089,11108,11128,11148,11168,11189,11208,11228,11248,11269,11288,11309,11328,11349,11368,11388,11409,11427,11449,11468,11488,11508,11528,11548,11568,11589,11609,11627,11648,11668,11689,11709,11729,11748,11768,11789,11808,11828,11849,11869,11888,11907,11928,11949,11969,11988,12008,12029,12048,12068,12088,12109,12127,12148,12168,12187,12209,12229,12247,12269,12288,12308,12328,12347,12368,12389,12409,12429,12449,12468,12488,12508,12529,12549,12569,12587,12609,12628,12648,12668,12688,12709,12727,12748,12769,12789,12809,12829,12848,12867,12889,12908,12946,12948,12968,12989,13007,13028,13049,13069,13089,13108,13129,13149,13168,13189,13208,13229,13247,13268,13288,13308,13329,13347,13368,13388,13408,13429,13449,13469,13488,13509,13528,13549,13568,13588,13608,13629,13647,13667,13687,13708,13727,13748,13767,13788,13808,13829,13848,13869,13888,13908,13928,13948,13969,13987,14008,14029,14047,14069,14089,14109,14129,14148,14168,14189,14209,14228,14248,14268,14288,14309,14329,14349,14368,14388,14407,14428,14449,14467,14489,14508,14529,14547,14568,14589,14608,14629,14648,14668,14688,14708,14728,14749,14768,14788,14809,14827,14847,14869,14887,14908,14928,14948,14968,14988,15009,15027,15049,15067,15088,15108,15127,15148,15168,15188,15208,15227,15249,15268,15287,15308,15329,15348,15368,15388,15409,15428,15447,15468,15488,15508,15528,15547,15568,15588,15609,15628,15649,15668,15688,15708,15729,15748,15768,15789,15807,15828,15849,15867,15888,15908,15927,15949,15968,15988,16008,16029,16048,16068,16089,16108,16128,16149,16168,16188,16209,16228,16247,16268,16289,16308,16327,16348,16369,16387,16409,16428,16449,16469,16489,16508,16529,16548,16569,16587,16608,16628,16647,16667,16688,16708,16727,16748,16768,16789,16807,16828,16847,16868,16888,16908,16928,16948,16968,16987,17008,17029,17047,17068,17088,17108,17127,17148,17168,17188,17208,17228,17249,17269,17288,17308,17329,17349,17368,17388,17407,17428,17449,17468,17489,17507,17529,17547,17569,17588,17608,17629,17648,17668,17689,17709,17729,17748,17769,17788,17809,17829,17848,17868,17889,17908,17928,17947,17968,17988,18009,18028,18049,18067,18088,18108,18129,18148,18168,18188,18209,18229,18249,18269,18289,18308,18329,18349,18368,18388,18409,18428,18448,18469,18488,18507,18529,18549,18569,18588,18609,18628,18649,18668,18689,18709,18728,18748,18768,18787,18808,18827,18848,18868,18888,18909,18928,18949],"xSR":741.5,"ySR":573.95,"xT1":424.9,"yT1":0,"xT2":1058.1,"yT2":0,"toosoon":0,"cond_shown":"equaldotsize","ratio_trial":750,"smaller_num":"3","larger_num":"4","correct_side":2,"subjID":"AngelSantiagoTinjacaCortes35","gender":"0","age":"11","school":"6"},{"start_time":1551900798638,"click_time":1551900799674,"finger_time":1551900799413,"fix_duration":541.8903918378741,"trial":11,"RT":775,"MT":261,"sideResp":1,"stimulus":"img/250/equaldotanddens/L/3_Ratio_250_L_8_R_2.png","xmouse":[831,831,831,831,831,831,831,831,831,831,831,831,831,831,831,831,831,831,831,831,831,831,831,831,831,831,831,831,831,831,831,831,831,831,831,830,829,828,745,664,589,520,503,465,457,453,454,454,454,454,454,454],"ymouse":[592,592,592,592,592,592,592,592,592,592,592,593,593,593,593,593,593,593,593,593,593,593,593,593,593,593,593,593,593,593,593,593,593,593,593,593,593,589,363,208,80,0,0,0,0,0,0,0,0,0,0,3],"timestamp_mouse":[16,40,55,75,95,115,135,155,175,195,216,235,254,275,296,316,335,355,375,395,415,436,455,475,495,514,535,555,574,596,615,635,656,676,696,714,736,756,775,794,815,836,856,876,895,915,935,955,975,995,1015,1035],"xSR":741.5,"ySR":573.95,"xT1":424.9,"yT1":0,"xT2":1058.1,"yT2":0,"toosoon":0,"cond_shown":"equaldotanddens","ratio_trial":250,"smaller_num":"2","larger_num":"8","correct_side":1,"subjID":"AngelSantiagoTinjacaCortes35","gender":"0","age":"11","school":"6"},{"start_time":1551900801263,"click_time":1551900802253,"finger_time":1551900801813,"fix_duration":888.4285350245146,"trial":12,"RT":550,"MT":440,"sideResp":1,"stimulus":"img/250/equaldotsize/L/3_Ratio_250_L_8_R_2.png","xmouse":[812,812,812,812,812,812,812,812,812,812,812,812,812,812,812,812,812,812,812,812,812,812,812,812,812,812,804,750,704,653,615,600,591,574,565,555,544,518,512,510,510,510,510,510,510,510,510,510,509,507],"ymouse":[608,608,608,608,608,608,608,608,608,608,608,608,608,608,608,608,608,608,608,608,608,608,608,608,608,608,588,490,429,365,311,276,249,192,154,112,64,0,0,0,0,0,0,0,0,0,0,0,0,4],"timestamp_mouse":[10,34,50,70,90,110,130,150,171,190,211,229,250,270,291,311,330,350,370,389,411,430,450,470,491,509,530,550,570,590,610,629,650,671,690,710,730,751,770,790,810,831,850,871,890,911,931,950,970,990],"xSR":741.5,"ySR":573.95,"xT1":424.9,"yT1":0,"xT2":1058.1,"yT2":0,"toosoon":0,"cond_shown":"equaldotsize","ratio_trial":250,"smaller_num":"2","larger_num":"8","correct_side":1,"subjID":"AngelSantiagoTinjacaCortes35","gender":"0","age":"11","school":"6"},{"start_time":1551900808559,"click_time":1551900809513,"finger_time":1551900809313,"fix_duration":1344.3962035371783,"trial":13,"RT":754,"MT":200,"sideResp":1,"stimulus":"img/900/randomdotsizeEA/L/2_Ratio_900_L_20_R_18.png","xmouse":[785,785,785,785,785,785,785,785,785,785,785,785,785,785,785,785,785,785,785,785,785,784,784,784,784,784,784,784,784,784,784,784,784,784,782,775,766,732,701,658,606,546,511,512,512,501,486,433],"ymouse":[621,621,621,621,621,621,621,621,621,621,621,621,621,621,621,621,621,621,621,621,621,622,623,624,624,625,625,625,625,625,625,625,625,625,623,610,593,536,485,413,334,252,179,161,150,127,100,25],"timestamp_mouse":[15,34,55,73,94,113,134,154,174,194,214,234,254,274,294,314,335,355,375,395,415,434,455,475,494,514,534,554,574,595,615,633,655,675,695,714,734,754,774,794,814,834,854,874,895,914,935,953],"xSR":741.5,"ySR":573.95,"xT1":424.9,"yT1":0,"xT2":1058.1,"yT2":0,"toosoon":0,"cond_shown":"randomdotsizeEA","ratio_trial":900,"smaller_num":"18","larger_num":"20","correct_side":1,"subjID":"AngelSantiagoTinjacaCortes35","gender":"0","age":"11","school":"6"},{"start_time":1551900810946,"click_time":1551900812273,"finger_time":1551900811613,"fix_duration":591.7966819230719,"trial":14,"RT":667,"MT":660,"sideResp":2,"stimulus":"img/750/equaldotanddens/R/7_Ratio_750_L_3_R_4.png","xmouse":[830,830,830,830,830,830,830,830,830,830,830,830,830,830,830,830,830,830,830,830,830,830,830,830,830,830,830,830,830,830,830,830,828,804,780,755,746,745,745,745,745,744,744,746,748,749,749,749,750,771,790,812,828,846,880,905,911,931,944,970,987,999,1007,1022,1035,1054,1060],"ymouse":[630,630,630,630,630,630,630,630,630,630,630,630,630,630,630,630,630,630,630,630,630,630,630,630,630,630,630,630,630,630,630,630,620,566,523,481,458,454,454,454,454,454,454,446,443,443,443,443,443,443,442,437,430,418,390,366,358,334,308,233,188,152,126,81,57,24,12],"timestamp_mouse":[9,27,48,68,86,108,127,148,168,187,206,227,248,266,287,307,327,348,367,387,407,427,447,466,488,507,527,548,566,587,607,627,647,667,686,707,728,747,767,786,807,828,847,867,887,907,927,946,966,988,1008,1027,1047,1066,1088,1107,1128,1147,1168,1187,1207,1228,1247,1267,1287,1307,1327],"xSR":741.5,"ySR":573.95,"xT1":424.9,"yT1":0,"xT2":1058.1,"yT2":0,"toosoon":0,"cond_shown":"equaldotanddens","ratio_trial":750,"smaller_num":"3","larger_num":"4","correct_side":2,"subjID":"AngelSantiagoTinjacaCortes35","gender":"0","age":"11","school":"6"},{"start_time":1551900814241,"click_time":1551900815234,"finger_time":1551900814913,"fix_duration":1125.3215532054962,"trial":15,"RT":672,"MT":321,"sideResp":1,"stimulus":"img/500/equaldotsize/L/7_Ratio_500_L_10_R_5.png","xmouse":[823,823,823,823,823,823,823,823,823,823,823,823,823,823,823,823,823,823,823,823,823,823,823,823,823,823,823,823,823,823,823,823,823,720,659,618,594,588,581,572,564,556,544,514,507,504,501,493,483,467],"ymouse":[627,627,627,627,627,627,627,627,627,627,627,627,627,627,627,627,627,627,627,627,627,627,627,627,627,627,627,627,627,627,627,627,625,510,441,378,336,309,263,244,227,211,181,150,143,139,132,121,109,86],"timestamp_mouse":[13,38,52,72,93,112,132,152,173,192,211,232,251,272,292,312,333,352,372,392,412,433,451,473,493,512,532,553,572,592,612,633,652,672,691,713,733,752,772,791,812,833,852,872,892,912,932,952,971,993],"xSR":741.5,"ySR":573.95,"xT1":424.9,"yT1":0,"xT2":1058.1,"yT2":0,"toosoon":0,"cond_shown":"equaldotsize","ratio_trial":500,"smaller_num":"5","larger_num":"10","correct_side":1,"subjID":"AngelSantiagoTinjacaCortes35","gender":"0","age":"11","school":"6"},{"start_time":1551900818686,"click_time":1551900819694,"finger_time":1551900819533,"fix_duration":250,"trial":16,"RT":847,"MT":161,"sideResp":1,"stimulus":"img/900/randomdotsizeEA/R/6_Ratio_900_L_9_R_10.png","xmouse":[812,812,812,812,812,812,812,812,812,812,812,812,812,812,812,812,812,812,812,812,812,812,812,812,812,812,812,812,812,812,812,812,812,812,812,812,812,812,812,812,811,810,791,772,747,717,647,616,562,541,492],"ymouse":[591,591,591,591,591,591,591,591,591,591,591,591,591,591,591,591,591,591,591,591,591,591,591,591,591,591,591,591,591,591,591,591,591,591,591,591,591,591,591,591,592,591,547,510,465,419,300,239,160,137,83],"timestamp_mouse":[11,28,47,69,88,108,128,148,168,189,208,228,248,269,288,308,328,348,368,388,409,428,448,469,488,509,527,547,567,588,608,627,648,669,689,708,729,749,768,788,808,828,847,868,888,909,928,947,967,988,1008],"xSR":741.5,"ySR":573.95,"xT1":424.9,"yT1":0,"xT2":1058.1,"yT2":0,"toosoon":0,"cond_shown":"randomdotsizeEA","ratio_trial":900,"smaller_num":"9","larger_num":"10","correct_side":2,"subjID":"AngelSantiagoTinjacaCortes35","gender":"0","age":"11","school":"6"},{"start_time":1551900823367,"click_time":1551900824334,"finger_time":1551900823994,"fix_duration":392.92702209296425,"trial":17,"RT":627,"MT":340,"sideResp":1,"stimulus":"img/750/equaldotsize/L/14_Ratio_750_L_8_R_6.png","xmouse":[811,811,811,811,811,811,811,811,811,811,811,811,811,811,811,811,811,811,811,811,811,811,811,811,811,811,811,811,811,811,809,795,741,711,688,653,610,575,513,499,495,494,494,494,494,491,480,475,464],"ymouse":[613,613,613,613,613,613,613,613,613,613,613,613,613,613,613,613,613,613,613,613,613,613,613,613,613,613,613,613,613,606,585,536,410,345,289,218,127,60,0,0,0,0,0,0,0,0,0,0,8],"timestamp_mouse":[9,37,47,67,87,107,127,147,168,187,208,227,248,268,287,307,327,346,368,387,408,428,448,467,487,507,528,546,567,587,607,627,647,668,686,706,727,747,768,788,807,827,847,868,887,907,926,946,966],"xSR":741.5,"ySR":573.95,"xT1":424.9,"yT1":0,"xT2":1058.1,"yT2":0,"toosoon":0,"cond_shown":"equaldotsize","ratio_trial":750,"smaller_num":"6","larger_num":"8","correct_side":1,"subjID":"AngelSantiagoTinjacaCortes35","gender":"0","age":"11","school":"6"},{"start_time":1551900828310,"click_time":1551900829254,"finger_time":1551900828933,"fix_duration":1273.7171249323458,"trial":18,"RT":623,"MT":321,"sideResp":1,"stimulus":"img/900/equaldotanddens/L/10_Ratio_900_L_20_R_18.png","xmouse":[776,776,776,776,776,776,776,776,776,776,776,776,776,776,776,776,776,776,776,776,776,776,776,776,776,776,776,776,776,776,775,756,710,654,624,620,622,625,625,619,612,608,604,599,588,556,536,516],"ymouse":[584,584,584,584,584,584,584,584,584,584,584,584,584,584,584,584,584,584,584,584,584,584,584,584,584,584,584,584,584,584,584,554,482,388,313,280,244,219,211,186,174,162,155,148,139,118,108,97],"timestamp_mouse":[9,24,46,64,84,104,124,144,164,185,204,224,243,264,285,305,324,345,364,384,405,423,443,465,484,504,524,544,564,584,605,623,644,664,684,703,723,745,764,784,804,824,844,864,884,904,924,944],"xSR":741.5,"ySR":573.95,"xT1":424.9,"yT1":0,"xT2":1058.1,"yT2":0,"toosoon":0,"cond_shown":"equaldotanddens","ratio_trial":900,"smaller_num":"18","larger_num":"20","correct_side":1,"subjID":"AngelSantiagoTinjacaCortes35","gender":"0","age":"11","school":"6"},{"start_time":1551900831107,"click_time":1551900832314,"finger_time":1551900831814,"fix_duration":1272.9826454268843,"trial":19,"RT":707,"MT":500,"sideResp":1,"stimulus":"img/500/randomdotsizeEA/L/5_Ratio_500_L_4_R_2.png","xmouse":[796,796,796,796,796,796,796,796,796,796,796,796,796,796,796,796,796,796,796,796,796,796,796,796,796,796,796,796,796,796,796,796,796,796,779,739,703,662,603,572,536,531,526,521,513,495,484,477,476,476,476,476,476,476,476,476,476,476,476,476,476],"ymouse":[610,610,610,610,610,610,610,610,610,610,610,610,610,610,610,610,610,610,610,610,610,610,610,610,610,610,610,610,610,610,610,610,610,610,608,586,560,524,437,374,269,241,214,191,175,146,134,124,123,123,123,123,123,123,122,118,115,113,110,103,98],"timestamp_mouse":[10,40,47,67,86,108,126,147,167,188,207,227,247,267,287,306,328,347,367,387,407,427,446,468,487,506,527,547,567,588,607,628,648,666,687,707,727,748,766,787,807,827,847,867,888,907,927,947,967,988,1007,1026,1047,1067,1087,1106,1127,1147,1168,1187,1207],"xSR":741.5,"ySR":573.95,"xT1":424.9,"yT1":0,"xT2":1058.1,"yT2":0,"toosoon":0,"cond_shown":"randomdotsizeEA","ratio_trial":500,"smaller_num":"2","larger_num":"4","correct_side":1,"subjID":"AngelSantiagoTinjacaCortes35","gender":"0","age":"11","school":"6"},{"start_time":1551900833827,"click_time":1551900834854,"finger_time":1551900834454,"fix_duration":970.4388941751849,"trial":20,"RT":627,"MT":400,"sideResp":2,"stimulus":"img/250/equaldotsize/R/6_Ratio_250_L_6_R_24.png","xmouse":[791,791,791,791,791,791,791,791,791,791,791,791,791,791,791,791,791,791,791,791,791,791,791,791,791,791,791,791,791,810,837,865,889,901,925,935,947,957,966,978,981,985,989,992,999,1007,1022,1033,1045,1065,1074,1083],"ymouse":[653,653,653,653,653,653,653,653,653,653,653,653,653,653,653,653,653,653,653,653,653,653,653,653,653,653,653,653,652,633,610,578,534,504,452,426,405,383,366,336,328,320,311,304,290,276,258,243,222,166,128,96],"timestamp_mouse":[10,36,47,67,87,107,128,148,167,187,208,228,247,267,287,307,327,348,368,387,407,427,447,467,488,507,527,547,567,586,607,627,647,667,687,707,727,747,766,787,806,827,847,867,887,906,927,948,967,987,1007,1026],"xSR":741.5,"ySR":573.95,"xT1":424.9,"yT1":0,"xT2":1058.1,"yT2":0,"toosoon":0,"cond_shown":"equaldotsize","ratio_trial":250,"smaller_num":"6","larger_num":"24","correct_side":2,"subjID":"AngelSantiagoTinjacaCortes35","gender":"0","age":"11","school":"6"},{"start_time":1551900835865,"click_time":1551900836974,"finger_time":1551900836714,"fix_duration":250,"trial":21,"RT":849,"MT":260,"sideResp":1,"stimulus":"img/900/equaldotsize/R/15_Ratio_900_L_9_R_10.png","xmouse":[826,826,826,826,826,826,826,826,826,826,826,826,826,826,826,826,826,826,826,826,826,826,826,826,826,826,826,826,826,826,826,826,826,826,826,826,826,826,826,826,826,825,681,605,539,506,482,464,461,460,460,460,460,461,462,462],"ymouse":[654,654,654,654,654,654,654,654,654,654,654,654,654,654,654,654,654,654,654,654,654,654,654,654,654,654,654,654,654,654,654,654,654,654,654,654,654,654,654,654,654,651,511,438,377,332,290,227,202,182,159,144,124,115,107,98],"timestamp_mouse":[10,39,49,68,89,110,128,148,170,189,209,229,249,270,290,309,329,349,368,390,409,430,448,470,490,509,530,550,568,589,608,630,649,669,689,709,729,749,769,790,809,829,849,868,890,908,929,949,969,989,1010,1029,1049,1069,1089,1109],"xSR":741.5,"ySR":573.95,"xT1":424.9,"yT1":0,"xT2":1058.1,"yT2":0,"toosoon":0,"cond_shown":"equaldotsize","ratio_trial":900,"smaller_num":"9","larger_num":"10","correct_side":2,"subjID":"AngelSantiagoTinjacaCortes35","gender":"0","age":"11","school":"6"},{"start_time":1551900840579,"click_time":1551900841875,"finger_time":1551900841215,"fix_duration":784.7626593066161,"trial":22,"RT":636,"MT":660,"sideResp":2,"stimulus":"img/500/randomdotsizeEA/R/9_Ratio_500_L_2_R_4.png","xmouse":[817,817,817,817,817,817,817,817,817,817,817,817,817,817,817,817,817,817,817,817,817,817,817,817,817,817,817,817,817,814,810,801,797,788,786,785,785,785,785,785,792,803,871,894,964,983,995,1001,1011,1026,1036,1047,1052,1053,1054,1054,1055,1058,1062,1068,1072,1075,1083,1087,1096],"ymouse":[642,642,642,642,642,642,642,642,642,642,642,642,642,642,642,642,642,642,642,642,642,642,642,642,642,642,635,629,622,612,599,571,554,535,531,526,525,525,525,525,525,528,531,520,464,434,366,328,303,279,263,237,221,217,207,205,202,192,185,173,161,152,125,111,91],"timestamp_mouse":[15,34,55,75,95,115,135,155,175,194,214,235,255,275,294,316,335,354,375,395,416,434,455,474,495,515,535,555,576,596,615,636,654,675,695,715,736,756,775,796,815,835,856,875,895,914,935,955,976,994,1016,1035,1055,1075,1095,1115,1135,1155,1175,1195,1215,1234,1255,1275,1296],"xSR":741.5,"ySR":573.95,"xT1":424.9,"yT1":0,"xT2":1058.1,"yT2":0,"toosoon":0,"cond_shown":"randomdotsizeEA","ratio_trial":500,"smaller_num":"2","larger_num":"4","correct_side":2,"subjID":"AngelSantiagoTinjacaCortes35","gender":"0","age":"11","school":"6"},{"start_time":1551900843076,"click_time":1551900843933,"finger_time":1551900843693,"fix_duration":481.73611311633624,"trial":23,"RT":617,"MT":240,"sideResp":2,"stimulus":"img/500/equaldotsize/R/1_Ratio_500_L_9_R_18.png","xmouse":[807,807,807,807,807,807,807,807,807,807,807,807,807,807,807,807,807,807,807,807,807,807,807,807,807,807,807,807,807,815,852,943,970,995,1018,1038,1053,1070,1078,1083,1093,1106,1114],"ymouse":[655,655,655,655,655,655,655,655,655,655,655,655,655,655,655,655,655,655,655,655,655,655,655,655,655,655,655,655,655,649,638,593,570,537,495,444,399,315,268,241,206,123,71],"timestamp_mouse":[18,38,58,79,99,119,139,158,178,198,218,239,259,279,299,317,338,357,378,399,418,438,458,478,499,519,538,559,579,598,617,638,658,678,699,717,737,757,779,797,818,838,857],"xSR":741.5,"ySR":573.95,"xT1":424.9,"yT1":0,"xT2":1058.1,"yT2":0,"toosoon":0,"cond_shown":"equaldotsize","ratio_trial":500,"smaller_num":"9","larger_num":"18","correct_side":2,"subjID":"AngelSantiagoTinjacaCortes35","gender":"0","age":"11","school":"6"},{"start_time":1551900845861,"click_time":1551900846594,"finger_time":1551900846195,"fix_duration":824.4808954911746,"trial":24,"RT":334,"MT":399,"sideResp":2,"stimulus":"img/900/equaldotanddens/R/15_Ratio_900_L_9_R_10.png","xmouse":[753,753,753,753,753,753,753,753,753,753,753,753,753,753,753,779,936,1157,1418,1418,1418,1506,891,537,284,186,197,796,1087,1100,685,108,0,58,367,824,1152],"ymouse":[639,639,639,639,639,639,639,639,639,639,639,639,639,639,639,613,438,229,0,0,0,0,0,14,72,149,179,240,245,245,337,445,451,356,236,107,20],"timestamp_mouse":[12,42,52,74,93,112,132,153,173,192,214,233,252,273,292,313,333,352,372,394,414,434,454,472,493,513,533,553,572,592,612,633,652,672,694,712,733],"xSR":741.5,"ySR":573.95,"xT1":424.9,"yT1":0,"xT2":1058.1,"yT2":0,"toosoon":0,"cond_shown":"equaldotanddens","ratio_trial":900,"smaller_num":"9","larger_num":"10","correct_side":2,"subjID":"AngelSantiagoTinjacaCortes35","gender":"0","age":"11","school":"6"},{"start_time":1551900896871,"click_time":1551900897915,"finger_time":1551900897514,"fix_duration":694.1388687398778,"trial":25,"RT":643,"MT":401,"sideResp":1,"stimulus":"img/900/equaldotsize/L/1_Ratio_900_L_10_R_9.png","xmouse":[786,786,786,786,786,786,786,786,786,786,786,786,786,786,786,786,786,786,786,786,786,786,786,786,786,786,786,786,786,786,785,784,762,716,677,635,599,571,571,569,562,557,552,552,552,552,551,549,545,543,538,529,520],"ymouse":[623,623,623,623,623,623,623,623,623,623,623,623,623,623,623,623,623,623,623,623,623,623,623,623,623,623,623,623,623,623,622,615,561,471,400,315,232,99,50,0,0,0,0,0,0,0,0,0,7,11,19,30,33],"timestamp_mouse":[9,23,44,64,83,103,123,143,164,184,203,224,243,263,283,303,323,344,364,384,403,423,444,463,483,503,524,543,563,583,604,624,643,663,684,703,723,744,763,784,803,823,844,863,883,904,924,943,964,983,1004,1023,1044],"xSR":741.5,"ySR":573.95,"xT1":424.9,"yT1":0,"xT2":1058.1,"yT2":0,"toosoon":0,"cond_shown":"equaldotsize","ratio_trial":900,"smaller_num":"9","larger_num":"10","correct_side":1,"subjID":"AngelSantiagoTinjacaCortes35","gender":"0","age":"11","school":"6"},{"start_time":1551900899008,"click_time":1551900900114,"finger_time":1551900899714,"fix_duration":373.48193279197585,"trial":26,"RT":706,"MT":400,"sideResp":2,"stimulus":"img/900/equaldotanddens/R/5_Ratio_900_L_9_R_10.png","xmouse":[817,817,817,817,817,817,817,817,817,817,817,817,817,817,817,817,817,817,817,817,817,817,817,817,817,817,817,817,817,817,817,817,817,817,818,870,913,956,999,1035,1060,1091,1102,1119,1134,1174,1188,1197,1200,1201,1200,1195,1193,1165,1141,1114],"ymouse":[647,647,647,647,647,647,647,647,647,647,647,647,647,647,647,647,647,647,647,647,647,647,647,647,647,647,647,647,647,647,647,647,647,647,647,606,553,476,399,330,273,215,192,162,138,82,56,33,11,0,0,0,0,0,0,16],"timestamp_mouse":[12,27,47,67,87,106,127,146,166,186,206,226,246,267,287,306,327,347,366,386,406,426,446,466,487,507,527,546,566,586,606,626,646,666,687,706,725,746,767,787,806,826,846,866,886,906,926,946,967,986,1007,1025,1046,1067,1086,1106],"xSR":741.5,"ySR":573.95,"xT1":424.9,"yT1":0,"xT2":1058.1,"yT2":0,"toosoon":0,"cond_shown":"equaldotanddens","ratio_trial":900,"smaller_num":"9","larger_num":"10","correct_side":2,"subjID":"AngelSantiagoTinjacaCortes35","gender":"0","age":"11","school":"6"},{"start_time":1551900901949,"click_time":1551900902934,"finger_time":1551900902514,"fix_duration":613.1789321721518,"trial":27,"RT":565,"MT":420,"sideResp":1,"stimulus":"img/500/equaldotanddens/L/11_Ratio_500_L_12_R_6.png","xmouse":[806,806,806,806,806,806,806,806,806,806,806,806,806,806,806,806,806,806,806,806,806,806,806,806,806,806,806,804,771,743,714,685,668,651,646,642,635,624,619,596,562,537,511,490,490,490,490,490,488,486],"ymouse":[651,651,651,651,651,651,651,651,651,651,651,651,651,651,651,651,651,651,651,651,651,651,651,651,651,651,651,641,546,494,438,388,350,297,275,251,227,197,181,127,76,29,0,0,0,0,0,0,0,1],"timestamp_mouse":[9,38,46,65,85,105,125,145,166,186,205,225,246,265,286,306,325,345,365,385,405,425,445,465,486,506,525,545,565,585,605,625,646,665,685,705,725,746,765,786,805,825,845,865,885,906,925,945,966,985],"xSR":741.5,"ySR":573.95,"xT1":424.9,"yT1":0,"xT2":1058.1,"yT2":0,"toosoon":0,"cond_shown":"equaldotanddens","ratio_trial":500,"smaller_num":"6","larger_num":"12","correct_side":1,"subjID":"AngelSantiagoTinjacaCortes35","gender":"0","age":"11","school":"6"},{"start_time":1551900906203,"click_time":1551900907254,"finger_time":1551900907035,"fix_duration":547.6318308572606,"trial":28,"RT":832,"MT":219,"sideResp":2,"stimulus":"img/750/randomdotsizeEA/R/15_Ratio_750_L_9_R_12.png","xmouse":[801,801,801,801,801,801,801,801,801,801,801,801,801,801,801,801,801,801,801,801,801,801,801,801,801,801,801,801,801,801,801,801,801,801,801,801,801,803,809,820,839,927,982,1047,1125,1157,1166,1171,1171,1171,1164,1160,1157],"ymouse":[650,650,650,650,650,650,650,650,650,650,650,650,650,650,650,650,650,650,650,650,650,650,650,650,650,650,650,650,650,650,650,650,650,650,650,650,650,643,632,615,585,479,426,368,298,211,163,120,92,73,51,47,46],"timestamp_mouse":[11,41,51,72,91,111,132,152,172,192,212,231,251,272,292,312,331,351,371,391,411,431,451,471,491,511,531,552,571,591,611,631,651,672,692,711,731,751,772,792,811,832,851,872,891,911,931,952,971,992,1012,1031,1051],"xSR":741.5,"ySR":573.95,"xT1":424.9,"yT1":0,"xT2":1058.1,"yT2":0,"toosoon":0,"cond_shown":"randomdotsizeEA","ratio_trial":750,"smaller_num":"9","larger_num":"12","correct_side":2,"subjID":"AngelSantiagoTinjacaCortes35","gender":"0","age":"11","school":"6"},{"start_time":1551900908557,"click_time":1551900910034,"finger_time":1551900909734,"fix_duration":640.6322443766664,"trial":29,"RT":1177,"MT":300,"sideResp":1,"stimulus":"img/500/equaldotanddens/L/11_Ratio_500_L_12_R_6.png","xmouse":[814,814,814,814,814,814,814,814,814,814,814,814,814,814,814,814,814,814,814,814,814,814,814,814,814,814,814,814,814,814,814,814,814,814,814,814,814,814,814,814,814,814,814,814,814,814,814,814,814,814,814,814,814,814,814,814,814,799,788,771,744,710,603,564,548,543,542,542,542,542,541,538,529,523],"ymouse":[627,627,627,627,627,627,627,627,627,627,627,627,627,627,627,627,627,627,627,627,627,627,627,627,627,627,627,627,627,627,627,627,627,627,627,627,627,627,627,627,627,627,627,627,627,627,627,627,627,627,627,627,627,627,627,627,627,605,548,437,311,174,0,0,0,0,0,0,0,0,0,4,11,15],"timestamp_mouse":[17,37,58,77,97,117,137,157,177,197,217,237,258,277,297,317,338,357,378,398,417,438,457,477,498,517,537,558,578,597,617,637,657,677,697,718,738,758,777,797,817,837,858,877,897,917,937,958,977,997,1018,1037,1057,1077,1097,1117,1137,1157,1177,1198,1217,1237,1258,1277,1298,1318,1338,1358,1378,1397,1417,1437,1457,1477],"xSR":741.5,"ySR":573.95,"xT1":424.9,"yT1":0,"xT2":1058.1,"yT2":0,"toosoon":0,"cond_shown":"equaldotanddens","ratio_trial":500,"smaller_num":"6","larger_num":"12","correct_side":1,"subjID":"AngelSantiagoTinjacaCortes35","gender":"0","age":"11","school":"6"},{"start_time":1551900915379,"click_time":1551900916334,"finger_time":1551900915994,"fix_duration":1463.8201189737404,"trial":30,"RT":615,"MT":340,"sideResp":1,"stimulus":"img/900/randomdotsizeEA/L/4_Ratio_900_L_20_R_18.png","xmouse":[752,752,752,752,752,752,752,752,752,752,752,752,752,752,752,752,752,752,752,752,752,752,752,752,752,752,752,751,751,750,746,735,713,700,697,689,684,677,674,666,652,631,603,586,569,549,514,502],"ymouse":[608,608,608,608,608,608,608,608,608,608,608,608,608,608,608,608,608,608,608,608,608,608,608,608,608,608,608,608,596,582,555,529,479,444,433,404,382,340,317,298,271,236,194,167,149,135,104,93],"timestamp_mouse":[15,40,56,76,95,116,135,155,175,195,215,236,255,276,295,315,335,355,376,395,415,435,455,476,495,515,535,556,575,595,615,635,655,675,695,715,735,755,776,795,815,835,856,875,895,916,935,954],"xSR":741.5,"ySR":573.95,"xT1":424.9,"yT1":0,"xT2":1058.1,"yT2":0,"toosoon":0,"cond_shown":"randomdotsizeEA","ratio_trial":900,"smaller_num":"18","larger_num":"20","correct_side":1,"subjID":"AngelSantiagoTinjacaCortes35","gender":"0","age":"11","school":"6"},{"start_time":1551900927868,"click_time":1551900929394,"finger_time":1551900928734,"fix_duration":272.72423859850426,"trial":31,"RT":866,"MT":660,"sideResp":1,"stimulus":"img/900/randomdotsizeEA/R/7_Ratio_900_L_9_R_10.png","xmouse":[795,795,795,795,795,795,795,795,795,795,795,795,795,795,795,795,795,795,795,795,795,795,795,795,795,795,795,795,795,795,795,795,795,795,795,795,795,795,795,795,795,795,790,740,684,643,606,502,448,398,340,324,319,319,319,319,319,319,319,320,331,347,373,383,393,398,399,401,402,404,404,404,404,404,407,416,432],"ymouse":[633,633,633,633,633,633,633,633,633,633,633,633,633,633,633,633,633,633,633,633,633,633,633,633,633,633,633,633,633,633,633,633,633,633,633,633,633,633,633,633,633,633,616,518,381,235,103,0,0,0,0,0,0,0,0,0,0,0,0,3,15,21,27,29,29,29,29,30,30,30,30,30,30,30,33,39,48],"timestamp_mouse":[8,26,46,67,86,107,126,147,167,187,207,226,246,267,286,306,326,346,367,386,407,427,447,467,487,506,526,546,566,587,606,626,646,666,686,706,727,747,766,786,806,827,846,866,886,907,926,946,966,987,1007,1027,1046,1066,1086,1107,1127,1147,1167,1187,1206,1227,1246,1266,1286,1306,1326,1347,1367,1387,1406,1427,1446,1466,1486,1506,1526],"xSR":741.5,"ySR":573.95,"xT1":424.9,"yT1":0,"xT2":1058.1,"yT2":0,"toosoon":0,"cond_shown":"randomdotsizeEA","ratio_trial":900,"smaller_num":"9","larger_num":"10","correct_side":2,"subjID":"AngelSantiagoTinjacaCortes35","gender":"0","age":"11","school":"6"},{"start_time":1551900942161,"click_time":1551900943315,"finger_time":1551900942715,"fix_duration":526.4675566490029,"trial":32,"RT":554,"MT":600,"sideResp":1,"stimulus":"img/750/equaldotanddens/L/6_Ratio_750_L_24_R_18.png","xmouse":[802,802,802,802,802,802,802,802,802,802,802,802,802,802,802,802,801,801,801,801,801,801,800,799,796,792,787,781,764,743,705,639,542,319,228,158,100,95,94,94,94,93,93,106,144,227,296,350,382,384,384,385,385,385,397,413,429,445],"ymouse":[619,619,619,619,619,619,619,619,619,619,619,619,619,619,619,619,619,621,622,622,622,622,622,616,606,593,579,561,496,440,362,254,134,0,0,0,0,0,0,0,0,9,9,71,118,178,194,199,196,194,193,191,188,185,168,153,133,97],"timestamp_mouse":[14,40,53,73,93,113,133,153,174,193,214,234,253,274,293,314,333,353,373,393,413,433,454,474,493,514,533,554,574,593,613,633,653,674,693,713,733,754,774,793,813,834,853,874,893,914,933,953,973,994,1013,1033,1053,1073,1093,1113,1133,1154],"xSR":741.5,"ySR":573.95,"xT1":424.9,"yT1":0,"xT2":1058.1,"yT2":0,"toosoon":0,"cond_shown":"equaldotanddens","ratio_trial":750,"smaller_num":"18","larger_num":"24","correct_side":1,"subjID":"AngelSantiagoTinjacaCortes35","gender":"0","age":"11","school":"6"},{"start_time":1551900945711,"click_time":1551900946434,"finger_time":1551900946214,"fix_duration":1497.9130916134995,"trial":33,"RT":503,"MT":220,"sideResp":2,"stimulus":"img/250/equaldotanddens/R/9_Ratio_250_L_3_R_12.png","xmouse":[801,802,802,803,803,803,803,803,803,803,803,803,803,803,803,803,801,800,799,798,798,798,798,798,801,806,833,840,867,903,971,1008,1049,1081,1105,1121,1134],"ymouse":[640,636,636,635,635,635,635,635,635,635,635,635,635,635,631,619,611,604,600,599,599,599,594,589,575,556,489,474,429,376,306,273,237,201,164,131,87],"timestamp_mouse":[3,23,45,63,83,103,124,143,163,183,203,224,244,263,283,305,323,344,363,383,403,423,443,463,483,503,523,544,563,583,603,623,643,663,684,703,723],"xSR":741.5,"ySR":573.95,"xT1":424.9,"yT1":0,"xT2":1058.1,"yT2":0,"toosoon":0,"cond_shown":"equaldotanddens","ratio_trial":250,"smaller_num":"3","larger_num":"12","correct_side":2,"subjID":"AngelSantiagoTinjacaCortes35","gender":"0","age":"11","school":"6"},{"start_time":1551900947575,"click_time":1551900948535,"finger_time":1551900948234,"fix_duration":258.1941856268026,"trial":34,"RT":659,"MT":301,"sideResp":1,"stimulus":"img/750/equaldotsize/R/15_Ratio_750_L_9_R_12.png","xmouse":[826,826,826,826,826,826,826,826,826,826,826,826,826,826,826,826,826,826,826,826,826,826,826,825,823,823,822,822,822,822,822,822,822,824,826,829,831,831,823,819,817,815,814,808,782,739,660,580,434],"ymouse":[673,673,673,673,673,673,673,673,673,673,673,673,673,673,673,673,673,673,673,673,668,663,650,644,638,636,632,628,623,616,610,602,591,565,544,503,467,431,375,367,363,360,358,327,272,224,168,122,47],"timestamp_mouse":[1,19,46,60,79,100,119,140,159,179,200,220,239,260,279,299,320,339,360,380,399,419,440,460,480,500,519,539,559,580,599,620,639,659,679,700,719,739,759,780,800,819,839,859,879,899,920,939,960],"xSR":741.5,"ySR":573.95,"xT1":424.9,"yT1":0,"xT2":1058.1,"yT2":0,"toosoon":0,"cond_shown":"equaldotsize","ratio_trial":750,"smaller_num":"9","larger_num":"12","correct_side":2,"subjID":"AngelSantiagoTinjacaCortes35","gender":"0","age":"11","school":"6"},{"start_time":1551900953728,"click_time":1551900954534,"finger_time":1551900954094,"fix_duration":1231.1138128064936,"trial":35,"RT":366,"MT":440,"sideResp":1,"stimulus":"img/900/randomdotsizeEA/R/6_Ratio_900_L_9_R_10.png","xmouse":[769,769,769,769,769,769,769,769,769,769,769,769,769,769,769,770,771,777,787,818,836,849,859,860,860,852,841,798,689,577,556,544,537,532,532,532,532,524,517,505,501],"ymouse":[612,612,612,612,612,612,612,612,612,612,612,612,612,611,607,604,600,587,566,487,432,383,328,276,223,103,53,0,0,0,0,0,0,0,0,0,0,0,0,0,2],"timestamp_mouse":[10,32,47,66,86,106,126,146,167,186,206,227,246,266,287,307,326,347,366,386,406,427,446,468,486,507,527,546,566,587,606,628,647,667,686,707,726,746,767,787,806],"xSR":741.5,"ySR":573.95,"xT1":424.9,"yT1":0,"xT2":1058.1,"yT2":0,"toosoon":0,"cond_shown":"randomdotsizeEA","ratio_trial":900,"smaller_num":"9","larger_num":"10","correct_side":2,"subjID":"AngelSantiagoTinjacaCortes35","gender":"0","age":"11","school":"6"},{"start_time":1551900956067,"click_time":1551900956695,"finger_time":1551900956434,"fix_duration":710.6434377339551,"trial":36,"RT":367,"MT":261,"sideResp":1,"stimulus":"img/250/equaldotanddens/L/2_Ratio_250_L_16_R_4.png","xmouse":[828,828,828,828,828,828,828,827,827,826,826,826,826,826,827,828,830,834,855,881,893,896,896,896,892,885,862,823,696,625,515,468],"ymouse":[619,619,619,619,619,619,619,619,619,617,616,613,611,608,604,601,593,583,536,475,439,409,376,369,365,362,357,344,276,227,146,97],"timestamp_mouse":[9,35,48,67,87,108,128,148,167,187,208,229,248,267,288,308,328,348,367,388,407,427,448,467,487,507,527,547,568,587,607,628],"xSR":741.5,"ySR":573.95,"xT1":424.9,"yT1":0,"xT2":1058.1,"yT2":0,"toosoon":0,"cond_shown":"equaldotanddens","ratio_trial":250,"smaller_num":"4","larger_num":"16","correct_side":1,"subjID":"AngelSantiagoTinjacaCortes35","gender":"0","age":"11","school":"6"},{"start_time":1551900957807,"click_time":1551900958514,"finger_time":1551900958214,"fix_duration":250,"trial":37,"RT":407,"MT":300,"sideResp":1,"stimulus":"img/250/equaldotsize/L/15_Ratio_250_L_12_R_3.png","xmouse":[802,802,802,802,802,802,802,802,802,802,802,802,802,802,802,802,798,791,785,781,764,752,741,716,686,615,576,543,526,517,509,503,497,483,475,471],"ymouse":[650,650,650,650,650,650,650,650,650,650,650,650,650,649,647,642,625,612,601,595,561,540,517,476,437,360,327,299,280,262,243,197,170,129,104,78],"timestamp_mouse":[7,28,47,68,88,108,127,149,167,187,208,228,248,267,287,307,328,349,367,387,407,427,447,468,489,508,527,548,568,588,608,628,648,668,687,707],"xSR":741.5,"ySR":573.95,"xT1":424.9,"yT1":0,"xT2":1058.1,"yT2":0,"toosoon":0,"cond_shown":"equaldotsize","ratio_trial":250,"smaller_num":"3","larger_num":"12","correct_side":1,"subjID":"AngelSantiagoTinjacaCortes35","gender":"0","age":"11","school":"6"},{"start_time":1551900960069,"click_time":1551900960675,"finger_time":1551900960394,"fix_duration":892.9674582238292,"trial":38,"RT":325,"MT":281,"sideResp":1,"stimulus":"img/900/equaldotsize/L/10_Ratio_900_L_20_R_18.png","xmouse":[774,774,774,774,774,774,774,774,774,774,774,774,774,774,771,767,759,726,710,694,679,667,661,648,635,615,586,551,500,485,480],"ymouse":[642,642,642,642,642,642,642,642,642,642,642,642,642,642,624,597,555,460,430,410,400,395,390,364,335,298,257,212,140,109,93],"timestamp_mouse":[5,35,46,66,85,107,126,145,165,185,205,225,245,266,285,305,325,346,365,385,405,427,446,466,487,506,527,545,566,585,606],"xSR":741.5,"ySR":573.95,"xT1":424.9,"yT1":0,"xT2":1058.1,"yT2":0,"toosoon":0,"cond_shown":"equaldotsize","ratio_trial":900,"smaller_num":"18","larger_num":"20","correct_side":1,"subjID":"AngelSantiagoTinjacaCortes35","gender":"0","age":"11","school":"6"},{"start_time":1551900961836,"click_time":1551900962494,"finger_time":1551900962175,"fix_duration":378.60770525638685,"trial":39,"RT":339,"MT":319,"sideResp":1,"stimulus":"img/250/equaldotsize/L/1_Ratio_250_L_8_R_2.png","xmouse":[822,822,822,822,822,822,822,822,822,822,822,822,822,822,809,788,753,717,689,647,636,629,622,619,616,614,611,604,596,587,544,531,507,497],"ymouse":[658,658,658,658,658,658,658,658,658,658,658,658,658,658,646,625,598,564,529,472,454,440,423,416,394,378,363,344,323,294,186,160,104,73],"timestamp_mouse":[1,18,38,58,78,98,120,138,159,179,198,219,239,258,279,299,319,339,358,379,398,418,438,458,479,498,519,539,558,578,598,618,638,658],"xSR":741.5,"ySR":573.95,"xT1":424.9,"yT1":0,"xT2":1058.1,"yT2":0,"toosoon":0,"cond_shown":"equaldotsize","ratio_trial":250,"smaller_num":"2","larger_num":"8","correct_side":1,"subjID":"AngelSantiagoTinjacaCortes35","gender":"0","age":"11","school":"6"},{"start_time":1551900970316,"click_time":1551900971375,"finger_time":1551900970934,"fix_duration":600.5710171172127,"trial":40,"RT":618,"MT":441,"sideResp":1,"stimulus":"img/750/equaldotsize/L/14_Ratio_750_L_8_R_6.png","xmouse":[788,788,788,788,788,788,788,788,788,788,788,788,788,788,788,788,788,788,788,788,788,788,788,788,788,788,788,788,788,784,773,762,752,737,667,626,596,573,542,512,502,499,499,499,499,499,499,499,499,503,506,511,518],"ymouse":[628,628,628,628,628,628,628,628,628,628,628,628,628,628,628,628,628,628,628,628,628,628,628,628,628,628,628,622,610,596,553,527,502,473,372,326,289,260,218,175,160,155,152,152,150,147,144,142,137,124,116,105,90],"timestamp_mouse":[33,39,58,78,98,118,140,158,178,198,218,238,258,279,299,319,338,359,378,399,418,438,458,478,499,518,538,559,579,598,618,639,659,679,699,719,738,760,779,799,820,839,859,878,898,918,938,958,978,998,1018,1039,1059],"xSR":741.5,"ySR":573.95,"xT1":424.9,"yT1":0,"xT2":1058.1,"yT2":0,"toosoon":0,"cond_shown":"equaldotsize","ratio_trial":750,"smaller_num":"6","larger_num":"8","correct_side":1,"subjID":"AngelSantiagoTinjacaCortes35","gender":"0","age":"11","school":"6"},{"start_time":1551900976666,"click_time":1551900977656,"finger_time":1551900977294,"fix_duration":250,"trial":41,"RT":628,"MT":362,"sideResp":1,"stimulus":"img/500/equaldotsize/L/8_Ratio_500_L_8_R_4.png","xmouse":[749,749,749,749,749,749,749,749,749,749,749,749,749,749,749,749,749,749,750,750,750,750,750,747,746,746,746,746,745,745,749,756,766,766,749,726,712,696,688,673,596,534,483,483,483,484,484,484,484,484],"ymouse":[643,643,643,643,643,643,643,643,643,643,643,643,643,643,643,643,643,643,643,643,643,643,642,641,640,640,640,640,636,623,602,573,481,432,368,311,286,266,258,246,197,167,136,135,131,128,125,114,106,99],"timestamp_mouse":[8,28,48,70,88,108,128,149,169,188,208,228,248,268,288,308,328,348,368,388,408,428,448,468,489,508,528,549,569,588,609,628,648,668,689,709,729,748,769,788,808,829,849,869,888,909,929,948,969,990],"xSR":741.5,"ySR":573.95,"xT1":424.9,"yT1":0,"xT2":1058.1,"yT2":0,"toosoon":0,"cond_shown":"equaldotsize","ratio_trial":500,"smaller_num":"4","larger_num":"8","correct_side":1,"subjID":"AngelSantiagoTinjacaCortes35","gender":"0","age":"11","school":"6"},{"start_time":1551900979714,"click_time":1551900980815,"finger_time":1551900980475,"fix_duration":1279.8443402291052,"trial":42,"RT":761,"MT":340,"sideResp":1,"stimulus":"img/750/randomdotsizeEA/R/3_Ratio_750_L_15_R_20.png","xmouse":[783,783,783,783,783,783,783,783,783,783,783,783,783,783,783,782,779,779,779,779,779,779,779,781,783,790,791,791,791,798,812,813,813,813,813,813,813,808,788,756,632,572,523,484,463,452,451,451,451,451,455,459,463,469,472,474],"ymouse":[652,652,652,652,652,652,652,652,652,652,652,652,652,652,652,650,649,649,649,649,648,648,649,649,650,654,655,655,655,653,631,628,626,626,626,624,611,592,561,514,388,333,284,238,206,173,166,162,156,152,141,131,124,114,105,91],"timestamp_mouse":[4,22,40,60,80,100,120,140,160,180,200,220,241,260,280,300,322,341,361,380,400,420,441,461,481,501,521,540,561,580,601,620,641,660,680,701,721,740,761,781,801,821,840,860,880,900,920,940,961,981,1000,1022,1040,1060,1082,1101],"xSR":741.5,"ySR":573.95,"xT1":424.9,"yT1":0,"xT2":1058.1,"yT2":0,"toosoon":0,"cond_shown":"randomdotsizeEA","ratio_trial":750,"smaller_num":"15","larger_num":"20","correct_side":2,"subjID":"AngelSantiagoTinjacaCortes35","gender":"0","age":"11","school":"6"},{"start_time":1551900981808,"click_time":1551901040035,"finger_time":1551901039735,"fix_duration":250,"trial":43,"RT":57927,"MT":300,"sideResp":2,"stimulus":"img/900/equaldotsize/R/12_Ratio_900_L_18_R_20.png","xmouse":[813,813,813,813,813,813,813,813,813,813,813,813,813,813,813,813,813,813,813,813,813,813,813,813,813,813,813,813,813,813,813,813,813,813,813,813,813,813,813,813,813,813,813,813,813,813,813,813,813,813,813,813,813,813,813,813,813,813,813,813,813,813,813,813,813,813,813,813,813,813,813,813,813,813,813,813,813,813,813,813,813,813,813,813,813,813,813,813,813,813,813,813,813,813,813,813,813,813,813,813,813,813,813,813,813,813,813,813,813,813,813,813,813,813,813,813,813,813,813,813,813,813,813,813,813,813,813,813,813,813,813,813,813,813,813,813,813,813,813,813,813,813,813,813,813,813,813,813,813,813,813,813,813,813,813,813,813,813,813,813,813,813,813,813,813,813,813,813,813,813,813,813,813,813,813,813,813,813,813,813,813,813,813,813,813,813,813,813,813,813,813,813,813,813,813,813,813,813,813,813,813,813,813,813,813,813,813,813,813,813,813,813,813,813,813,813,813,813,813,813,813,813,813,813,813,813,813,813,813,813,813,813,813,813,813,813,813,813,813,813,813,813,813,813,813,813,813,813,813,813,813,813,813,813,813,813,813,813,813,813,813,813,813,813,813,813,813,813,813,813,813,813,813,813,813,813,813,813,813,813,813,813,813,813,813,813,813,813,813,813,813,813,813,813,813,813,813,813,813,813,813,813,813,813,813,813,813,813,813,813,813,813,813,813,813,813,813,813,813,813,813,813,813,813,813,813,813,813,813,813,813,813,813,813,813,813,813,813,813,813,813,813,813,813,813,813,813,813,813,813,813,813,813,813,813,813,813,813,813,813,813,813,813,813,813,813,813,813,813,813,813,813,813,813,813,813,813,813,813,813,813,813,813,813,813,813,813,813,813,813,813,813,813,813,813,813,813,813,813,813,813,813,813,813,813,813,813,813,813,813,813,813,813,813,813,813,813,813,813,813,813,813,813,813,813,813,813,813,813,813,813,813,813,813,813,813,813,813,813,813,813,813,813,813,813,813,813,813,813,813,813,813,813,813,813,813,813,813,813,813,813,813,813,813,813,813,813,813,813,813,813,813,813,813,813,813,813,813,813,813,813,813,813,813,813,813,813,813,813,813,813,813,813,813,813,813,813,813,813,813,813,813,813,813,813,813,813,813,813,813,813,813,813,813,813,813,813,813,813,813,813,813,813,813,813,813,813,813,813,813,813,813,813,813,813,813,813,813,813,813,813,813,813,813,813,813,813,813,813,813,813,813,813,813,813,813,813,813,813,813,813,813,813,813,813,813,813,813,813,813,813,813,813,813,813,813,813,813,813,813,813,813,813,813,813,813,813,813,813,813,813,813,813,813,813,813,813,813,813,813,813,813,813,813,813,813,813,813,813,813,813,813,813,813,813,813,813,813,813,813,813,813,813,813,813,813,813,813,813,813,813,813,813,813,813,813,813,813,813,813,813,813,813,813,813,813,813,813,813,813,813,813,813,813,813,813,813,813,813,813,813,813,813,813,813,813,813,813,813,813,813,813,813,813,813,813,813,813,813,813,813,813,813,813,813,813,813,813,813,813,813,813,813,813,813,813,813,813,813,813,813,813,813,813,813,813,813,813,813,813,813,813,813,813,813,813,813,813,813,813,813,813,813,813,813,813,813,813,813,813,813,813,813,813,813,813,813,813,813,813,813,813,813,813,813,813,813,813,813,813,813,813,813,813,813,813,813,813,813,813,813,813,813,813,813,813,813,813,813,813,813,813,813,813,813,813,813,813,813,813,813,813,813,813,813,813,813,813,813,813,813,813,813,813,813,813,813,813,813,813,813,813,813,813,813,813,813,813,813,813,813,813,813,813,813,813,813,813,813,813,813,813,813,813,813,813,813,813,813,813,813,813,813,813,813,813,813,813,813,813,813,813,813,813,813,813,813,813,813,813,813,813,813,813,813,813,813,813,813,813,813,813,813,813,813,813,813,813,813,813,813,813,813,813,813,813,813,813,813,813,813,813,813,813,813,813,813,813,813,813,813,813,813,813,813,813,813,813,813,813,813,813,813,813,813,813,813,813,813,813,813,813,813,813,813,813,813,813,813,813,813,813,813,813,813,813,813,813,813,813,813,813,813,813,813,813,813,813,813,813,813,813,813,813,813,813,813,813,813,813,813,813,813,813,813,813,813,813,813,813,813,813,813,813,813,813,813,813,813,813,813,813,813,813,813,813,813,813,813,813,813,813,813,813,813,813,813,813,813,813,813,813,813,813,813,813,813,813,813,813,813,813,813,813,813,813,813,813,813,813,813,813,813,813,813,813,813,813,813,813,813,813,813,813,813,813,813,813,813,813,813,813,813,813,813,813,813,813,813,813,813,813,813,813,813,813,813,813,813,813,813,813,813,813,813,813,813,813,813,813,813,813,813,813,813,813,813,813,813,813,813,813,813,813,813,813,813,813,813,813,813,813,813,813,813,813,813,813,813,813,813,813,813,813,813,813,813,813,813,813,813,813,813,813,813,813,813,813,813,813,813,813,813,813,813,813,813,813,813,813,813,813,813,813,813,813,813,813,813,813,813,813,813,813,813,813,813,813,813,813,813,813,813,813,813,813,813,813,813,813,813,813,813,813,813,813,813,813,813,813,813,813,813,813,813,813,813,813,813,813,813,813,813,813,813,813,813,813,813,813,813,813,813,813,813,813,813,813,813,813,813,813,813,813,813,813,813,813,813,813,813,813,813,813,813,813,813,813,813,813,813,813,813,813,813,813,813,813,813,813,813,813,813,813,813,813,813,813,813,813,813,813,813,813,813,813,813,813,813,813,813,813,813,813,813,813,813,813,813,813,813,813,813,813,813,813,813,813,813,813,813,813,813,813,813,813,813,813,813,813,813,813,813,813,813,813,813,813,813,813,813,813,813,813,813,813,813,813,813,813,813,813,813,813,813,813,813,813,813,813,813,813,813,813,813,813,813,813,813,813,813,813,813,813,813,813,813,813,813,813,813,813,813,813,813,813,813,813,813,813,813,813,813,813,813,813,813,813,813,813,813,813,813,813,813,813,813,813,813,813,813,813,813,813,813,813,813,813,813,813,813,813,813,813,813,813,813,813,813,813,813,813,813,813,813,813,813,813,813,813,813,813,813,813,813,813,813,813,813,813,813,813,813,813,813,813,813,813,813,813,813,813,813,813,813,813,813,813,813,813,813,813,813,813,813,813,813,813,813,813,813,813,813,813,813,813,813,813,813,813,813,813,813,813,813,813,813,813,813,813,813,813,813,813,813,813,813,813,813,813,813,813,813,813,813,813,813,813,813,813,813,813,813,813,813,813,813,813,813,813,813,813,813,813,813,813,813,813,813,813,813,813,813,813,813,813,813,813,813,813,813,813,813,813,813,813,813,813,813,813,813,813,813,813,813,813,813,813,813,813,813,813,813,813,813,813,813,813,813,813,813,813,813,813,813,813,813,813,813,813,813,813,813,813,813,813,813,813,813,813,813,813,813,813,813,813,813,813,813,813,813,813,813,813,813,812,812,812,812,812,812,812,812,812,812,812,812,812,812,812,812,812,812,812,812,812,812,812,812,812,812,812,812,812,812,812,812,812,812,812,812,812,812,812,812,812,812,812,812,812,812,812,812,812,812,812,812,812,812,812,812,812,812,812,812,812,812,812,812,812,812,812,812,812,812,812,812,812,812,812,812,812,812,812,812,812,812,812,812,812,812,812,812,812,812,812,812,812,812,812,812,812,812,812,812,812,812,812,812,812,812,812,812,812,812,812,812,812,812,812,812,812,812,812,812,812,812,812,812,812,812,812,812,812,812,812,812,812,812,812,812,812,812,812,812,812,812,812,812,812,812,812,812,812,812,812,812,812,812,812,812,812,812,812,812,812,812,812,812,812,812,812,812,812,812,812,812,812,812,812,812,812,812,812,812,812,812,812,812,812,812,812,812,812,812,812,812,812,812,812,812,812,812,812,812,812,812,812,812,812,812,812,812,812,812,812,812,812,812,812,812,812,812,812,812,812,812,812,812,812,812,812,812,812,812,812,812,812,812,812,812,812,812,812,812,812,812,812,812,812,812,812,812,812,812,812,812,812,812,812,812,812,812,812,812,812,812,812,812,812,812,812,812,812,812,812,812,812,812,812,812,812,812,812,812,812,812,812,812,812,812,812,812,812,812,812,812,812,812,812,812,812,812,812,812,812,812,812,812,812,812,812,812,812,812,812,812,812,812,812,812,812,812,812,812,812,812,812,812,812,812,812,812,812,812,812,812,812,812,812,812,812,812,812,812,812,812,812,812,812,812,812,812,812,812,812,812,812,812,812,812,812,812,812,812,812,812,812,812,812,812,812,812,812,812,812,812,812,812,812,812,812,812,812,812,812,812,812,812,812,812,812,812,812,812,812,812,812,812,812,812,812,812,812,812,812,812,812,812,812,812,812,812,812,812,812,812,812,812,812,812,812,812,812,812,812,812,812,812,812,812,812,812,812,812,812,812,812,812,812,812,812,812,812,812,812,812,812,812,812,812,812,812,812,812,812,812,812,812,812,812,812,812,812,812,812,812,812,812,812,812,812,812,812,812,812,812,812,812,812,812,812,812,812,812,812,812,812,812,812,812,812,812,812,812,812,812,812,812,812,812,812,812,812,812,812,812,812,812,812,812,812,812,812,812,812,812,812,812,812,812,812,812,812,812,812,812,812,812,812,812,812,812,812,812,812,812,812,812,812,812,812,812,812,812,812,812,812,812,812,812,812,812,812,812,812,812,812,812,812,812,812,812,812,812,812,812,812,812,812,812,812,812,812,812,812,812,812,812,812,812,812,812,812,812,812,812,812,812,812,812,812,812,812,812,812,812,812,812,812,812,812,812,812,812,812,812,812,812,812,812,812,812,812,812,812,812,812,812,812,812,812,812,812,812,812,812,812,812,812,812,812,812,812,812,812,812,812,812,812,812,812,812,812,812,812,812,812,812,812,812,812,812,812,812,812,812,812,812,812,812,812,812,812,812,812,812,812,812,812,812,812,812,812,812,812,812,812,812,812,812,812,812,812,812,812,812,812,812,812,812,812,812,812,812,812,812,812,812,812,812,812,812,812,812,812,812,812,812,812,812,812,812,812,812,812,812,812,812,812,812,812,812,812,812,812,812,812,812,812,812,812,812,812,812,812,812,812,812,812,812,812,812,812,812,812,812,812,812,812,812,812,812,812,812,812,812,812,812,812,812,812,812,812,812,812,812,812,812,812,812,812,812,812,812,812,812,812,812,812,812,812,812,812,812,812,812,812,812,812,812,812,812,812,812,812,812,812,812,812,812,812,812,812,812,812,812,812,812,812,812,812,812,812,812,812,812,812,812,812,812,812,812,812,812,812,812,812,812,812,812,812,812,812,812,812,812,812,812,812,812,812,812,812,812,812,812,812,812,812,812,812,812,812,812,812,812,812,812,812,812,812,812,812,812,812,812,812,812,812,812,812,812,812,812,812,812,812,812,812,812,812,812,812,812,812,812,812,812,812,812,812,812,812,812,812,812,812,812,812,812,812,812,812,812,812,812,812,812,812,812,812,812,812,812,812,812,812,812,812,812,812,812,812,812,812,812,812,812,812,812,812,812,812,812,812,812,812,812,812,812,812,812,812,812,812,812,812,812,812,812,812,812,812,812,812,812,812,812,812,812,812,812,812,812,812,812,812,812,812,812,812,812,812,812,812,812,812,812,812,812,812,812,812,812,812,812,812,812,812,812,812,812,812,812,812,812,812,812,812,812,812,812,812,812,812,812,812,812,812,812,812,812,812,812,812,812,812,812,812,812,812,812,812,812,812,812,812,812,812,812,812,812,812,812,812,812,812,812,812,812,812,812,812,812,812,812,812,812,812,812,812,812,812,812,812,812,812,812,812,812,812,812,812,812,812,812,812,812,812,812,812,812,812,812,812,812,812,812,812,812,812,812,812,812,812,812,812,812,812,812,812,812,812,812,812,812,812,812,812,812,812,812,812,812,812,812,812,812,812,812,812,812,812,812,812,812,812,812,812,812,812,812,812,812,812,812,812,812,812,812,812,812,812,812,812,812,812,812,812,812,812,812,812,812,812,812,812,812,812,812,812,812,812,812,812,812,812,812,812,812,812,812,812,812,812,812,812,812,812,812,812,812,812,812,812,812,812,812,812,812,812,812,812,812,812,812,812,812,812,812,812,812,812,812,812,812,812,812,812,812,812,812,812,812,812,812,812,812,812,812,812,812,812,812,812,812,812,812,812,812,812,812,812,812,812,812,812,812,812,812,812,812,812,812,812,812,812,812,812,812,812,812,812,812,812,812,812,812,812,812,812,812,812,812,812,812,812,812,812,812,812,812,812,812,812,812,812,812,812,812,812,812,812,812,812,812,812,812,812,812,812,812,812,812,812,812,812,812,812,812,812,812,812,812,812,812,812,812,812,812,812,812,812,812,812,812,812,812,812,812,812,812,812,812,812,812,812,812,812,812,812,812,812,812,812,812,812,812,812,812,812,812,812,812,812,812,812,812,812,812,812,812,812,812,812,883,995,1045,1048,1048,1048,1057,1062,1080,1084,1084,1084,1084,1084,1089,1099],"ymouse":[642,642,642,642,642,642,642,642,642,642,642,642,642,642,642,642,642,642,642,642,642,642,642,642,642,642,642,642,642,642,642,642,642,642,642,642,642,642,642,642,642,642,642,642,642,642,642,642,642,642,642,642,642,642,642,642,642,642,642,642,642,642,642,642,642,642,642,642,642,642,642,642,642,642,642,642,642,642,642,642,642,642,642,642,642,642,642,642,642,642,642,642,642,642,642,642,642,642,642,642,642,642,642,642,642,642,642,642,642,642,642,642,642,642,642,642,642,642,642,642,642,642,642,642,642,642,642,642,642,642,642,642,642,642,642,642,642,642,642,642,642,642,642,642,642,642,642,642,642,642,642,642,642,642,642,642,642,642,642,642,642,642,642,642,642,642,642,642,642,642,642,642,642,642,642,642,642,642,642,642,642,642,642,642,642,642,642,642,642,642,642,642,642,642,642,642,642,642,642,642,642,642,642,642,642,642,642,642,642,642,642,642,642,642,642,642,642,642,642,642,642,642,642,642,642,642,642,642,642,642,642,642,642,642,642,642,642,642,642,642,642,642,642,642,642,642,642,642,642,642,642,642,642,642,642,642,642,642,642,642,642,642,642,642,642,642,642,642,642,642,642,642,642,642,642,642,642,642,642,642,642,642,642,642,642,642,642,642,642,642,642,642,642,642,642,642,642,642,642,642,642,642,642,642,642,642,642,642,642,642,642,642,642,642,642,642,642,642,642,642,642,642,642,642,642,642,642,642,642,642,642,642,642,642,642,642,642,642,642,642,642,642,642,642,642,642,642,642,642,642,642,642,642,642,642,642,642,642,642,642,642,642,642,642,642,642,642,642,642,642,642,642,642,642,642,642,642,642,642,642,642,642,642,642,642,642,642,642,642,642,642,642,642,642,642,642,642,642,642,642,642,642,642,642,642,642,642,642,642,642,642,642,642,642,642,642,642,642,642,642,642,642,642,642,642,642,642,642,642,642,642,642,642,642,642,642,642,642,642,642,642,642,642,642,642,642,642,642,642,642,642,642,642,642,642,642,642,642,642,642,642,642,642,642,642,642,642,642,642,642,642,642,642,642,642,642,642,642,642,642,642,642,642,642,642,642,642,642,642,642,642,642,642,642,642,642,642,642,642,642,642,642,642,642,642,642,642,642,642,642,642,642,642,642,642,642,642,642,642,642,642,642,642,642,642,642,642,642,642,642,642,642,642,642,642,642,642,642,642,642,642,642,642,642,642,642,642,642,642,642,642,642,642,642,642,642,642,642,642,642,642,642,642,642,642,642,642,642,642,642,642,642,642,642,642,642,642,642,642,642,642,642,642,642,642,642,642,642,642,642,642,642,642,642,642,642,642,642,642,642,642,642,642,642,642,642,642,642,642,642,642,642,642,642,642,642,642,642,642,642,642,642,642,642,642,642,642,642,642,642,642,642,642,642,642,642,642,642,642,642,642,642,642,642,642,642,642,642,642,642,642,642,642,642,642,642,642,642,642,642,642,642,642,642,642,642,642,642,642,642,642,642,642,642,642,642,642,642,642,642,642,642,642,642,642,642,642,642,642,642,642,642,642,642,642,642,642,642,642,642,642,642,642,642,642,642,642,642,642,642,642,642,642,642,642,642,642,642,642,642,642,642,642,642,642,642,642,642,642,642,642,642,642,642,642,642,642,642,642,642,642,642,642,642,642,642,642,642,642,642,642,642,642,642,642,642,642,642,642,642,642,642,642,642,642,642,642,642,642,642,642,642,642,642,642,642,642,642,642,642,642,642,642,642,642,642,642,642,642,642,642,642,642,642,642,642,642,642,642,642,642,642,642,642,642,642,642,642,642,642,642,642,642,642,642,642,642,642,642,642,642,642,642,642,642,642,642,642,642,642,642,642,642,642,642,642,642,642,642,642,642,642,642,642,642,642,642,642,642,642,642,642,642,642,642,642,642,642,642,642,642,642,642,642,642,642,642,642,642,642,642,642,642,642,642,642,642,642,642,642,642,642,642,642,642,642,642,642,642,642,642,642,642,642,642,642,642,642,642,642,642,642,642,642,642,642,642,642,642,642,642,642,642,642,642,642,642,642,642,642,642,642,642,642,642,642,642,642,642,642,642,642,642,642,642,642,642,642,642,642,642,642,642,642,642,642,642,642,642,642,642,642,642,642,642,642,642,642,642,642,642,642,642,642,642,642,642,642,642,642,642,642,642,642,642,642,642,642,642,642,642,642,642,642,642,642,642,642,642,642,642,642,642,642,642,642,642,642,642,642,642,642,642,642,642,642,642,642,642,642,642,642,642,642,642,642,642,642,642,642,642,642,642,642,642,642,642,642,642,642,642,642,642,642,642,642,642,642,642,642,642,642,642,642,642,642,642,642,642,642,642,642,642,642,642,642,642,642,642,642,642,642,642,642,642,642,642,642,642,642,642,642,642,642,642,642,642,642,642,642,642,642,642,642,642,642,642,642,642,642,642,642,642,642,642,642,642,642,642,642,642,642,642,642,642,642,642,642,642,642,642,642,642,642,642,642,642,642,642,642,642,642,642,642,642,642,642,642,642,642,642,642,642,642,642,642,642,642,642,642,642,642,642,642,642,642,642,642,642,642,642,642,642,642,642,642,642,642,642,642,642,642,642,642,642,642,642,642,642,642,642,642,642,642,642,642,642,642,642,642,642,642,642,642,642,642,642,642,642,642,642,642,642,642,642,642,642,642,642,642,642,642,642,642,642,642,642,642,642,642,642,642,642,642,642,642,642,642,642,642,642,642,642,642,642,642,642,642,642,642,642,642,642,642,642,642,642,642,642,642,642,642,642,642,642,642,642,642,642,642,642,642,642,642,642,642,642,642,642,642,642,642,642,642,642,642,642,642,642,642,642,642,642,642,642,642,642,642,642,642,642,642,642,642,642,642,642,642,642,642,642,642,642,642,642,642,642,642,642,642,642,642,642,642,642,642,642,642,642,642,642,642,642,642,642,642,642,642,642,642,642,642,642,642,642,642,642,642,642,642,642,642,642,642,642,642,642,642,642,642,642,642,642,642,642,642,642,642,642,642,642,642,642,642,642,642,642,642,642,642,642,642,642,642,642,642,642,642,642,642,642,642,642,642,642,642,642,642,642,642,642,642,642,642,642,642,642,642,642,642,642,642,642,642,642,642,642,642,642,642,642,642,642,642,642,642,642,642,642,642,642,642,642,642,642,642,642,642,642,642,642,642,642,642,642,642,642,642,642,642,642,642,642,642,642,642,642,642,642,642,642,642,642,642,642,642,642,642,642,642,642,642,642,642,642,642,642,642,642,642,642,642,642,642,642,642,642,642,642,642,642,642,642,642,642,642,642,642,642,642,642,642,642,642,642,642,642,642,642,642,642,642,642,642,642,642,642,642,642,642,642,642,642,642,642,642,642,642,642,642,642,642,642,642,642,642,642,642,642,642,642,642,642,642,642,642,642,642,642,642,642,642,642,642,642,642,642,642,642,642,642,642,642,642,642,642,642,642,642,642,642,642,642,642,642,642,642,642,642,642,642,642,642,642,642,642,642,642,642,642,642,642,642,642,642,642,642,642,642,642,642,642,642,642,642,642,642,642,642,642,642,642,642,642,642,642,642,642,642,642,642,642,642,642,642,642,642,642,642,642,642,642,642,642,642,642,642,642,642,642,642,642,642,642,642,642,642,642,642,642,642,642,642,642,642,642,642,642,642,642,642,642,642,642,642,642,642,642,642,642,642,642,642,642,642,642,642,642,642,642,642,642,642,642,642,642,642,642,642,642,642,642,642,642,642,642,642,642,642,642,642,642,642,642,642,642,642,642,642,642,642,642,642,642,642,642,642,642,642,642,642,642,642,642,642,642,642,642,642,642,642,642,642,642,642,642,642,642,642,642,642,642,642,642,642,642,642,642,642,642,642,642,642,642,642,642,642,642,642,642,642,642,642,642,642,642,642,642,642,642,642,642,642,642,642,642,642,642,642,642,642,642,642,642,642,642,642,642,642,642,642,642,642,642,642,642,642,642,642,642,642,642,642,642,642,642,642,642,642,642,642,642,642,642,642,642,642,642,642,642,642,642,642,642,642,642,642,642,642,642,642,642,642,642,642,642,642,642,642,642,642,642,642,642,642,642,642,642,642,642,642,642,642,642,642,642,642,642,642,642,642,642,642,642,642,642,642,642,642,642,642,642,642,642,642,642,642,642,642,642,642,642,642,642,642,642,642,642,642,642,642,642,642,642,642,642,642,642,642,642,642,642,642,642,642,642,642,642,642,642,642,642,642,642,642,642,642,642,642,642,642,642,642,642,642,642,642,642,642,642,642,642,642,642,642,642,642,642,642,642,642,642,642,642,642,642,642,642,642,642,642,642,642,642,642,642,642,642,642,642,642,642,642,642,642,642,642,642,642,642,642,642,642,642,642,642,642,642,642,642,642,642,642,642,642,642,642,642,642,642,642,642,642,642,642,642,642,642,642,642,642,642,642,642,642,642,642,642,642,642,642,642,642,642,642,642,642,642,642,642,642,642,642,642,642,642,642,642,642,642,642,642,642,642,642,642,642,642,642,642,642,642,642,642,642,642,642,642,642,642,642,642,642,642,642,642,642,642,642,642,642,642,642,642,642,642,642,642,642,642,642,642,642,642,642,642,642,642,642,642,642,642,642,642,642,642,642,642,642,642,642,642,642,642,642,642,642,642,642,642,642,642,642,642,642,642,642,642,642,642,642,642,642,642,642,642,642,642,642,642,642,642,642,642,642,642,642,642,642,642,642,642,642,642,642,642,642,642,642,642,642,642,642,642,642,642,642,642,642,642,642,642,642,642,642,642,642,642,642,642,642,642,642,642,642,642,642,642,642,642,642,642,642,642,642,642,642,642,642,642,642,642,642,642,642,642,642,642,642,642,642,642,642,642,642,642,642,642,642,642,642,642,642,642,642,642,642,642,642,642,642,642,642,642,642,642,642,642,642,642,642,642,642,642,642,642,642,642,642,642,642,642,642,642,642,642,642,642,642,642,642,642,642,642,642,642,642,642,642,642,642,642,642,642,642,642,642,642,642,642,642,642,642,642,642,642,642,642,642,642,642,642,642,642,642,642,642,642,642,642,642,642,642,642,642,642,642,642,642,642,642,642,642,642,642,642,642,642,642,642,642,642,642,642,642,642,642,642,642,642,642,642,642,642,642,642,642,642,642,642,642,642,642,642,642,642,642,642,642,642,642,642,642,642,642,642,642,642,642,642,642,642,642,642,642,642,642,642,642,642,642,642,642,642,642,642,642,642,642,642,642,642,642,642,642,642,642,642,642,642,642,642,642,642,642,642,642,642,642,642,642,642,642,642,642,642,642,642,642,642,642,642,642,642,642,642,642,642,642,642,642,642,642,642,642,642,642,642,642,642,642,642,642,642,642,642,642,642,642,642,642,642,642,642,642,642,642,642,642,642,642,642,642,642,642,642,642,642,642,642,642,642,642,642,642,642,642,642,642,642,642,642,642,642,642,642,642,642,642,642,642,642,642,642,642,642,642,642,642,642,642,642,642,642,642,642,642,642,642,642,642,642,642,642,642,642,642,642,642,642,642,642,642,642,642,642,642,642,642,642,642,642,642,642,642,642,642,642,642,642,642,642,642,642,642,642,642,642,642,642,642,642,642,642,642,642,642,642,642,642,642,642,642,642,642,642,642,642,642,642,642,642,642,642,642,642,642,642,642,642,642,642,642,642,642,642,642,642,642,642,642,642,642,642,642,642,642,642,642,642,642,642,642,642,642,642,642,642,642,642,642,642,642,642,642,642,642,642,642,642,642,642,642,642,642,642,642,642,642,642,642,642,642,642,642,642,642,642,642,642,642,642,642,642,642,642,642,642,642,642,642,642,642,642,642,642,642,642,642,642,642,642,642,642,642,642,642,642,642,642,642,642,642,642,642,642,642,642,642,642,642,642,642,642,642,642,642,642,642,642,642,642,642,642,642,642,642,642,642,642,642,642,642,642,642,642,642,642,642,642,642,642,642,642,642,642,642,642,642,642,642,642,642,642,642,642,642,642,642,642,642,642,642,642,642,642,642,642,642,642,642,642,642,642,642,642,642,642,642,642,642,642,642,642,642,642,642,642,642,642,642,642,642,642,642,642,642,642,642,642,642,642,642,642,642,642,642,642,642,642,642,642,642,642,642,642,642,642,642,642,642,642,642,642,642,642,642,642,642,642,642,642,642,642,642,642,642,642,642,642,642,642,642,642,642,642,642,642,642,642,642,642,642,642,642,642,642,642,642,642,642,642,642,642,642,642,642,642,642,642,642,642,642,642,642,642,642,642,642,642,642,642,642,642,642,642,642,642,642,642,642,642,642,642,642,642,642,642,642,642,642,642,642,642,642,642,642,642,642,642,642,642,642,642,642,642,642,642,642,642,642,642,642,642,642,642,642,642,642,642,642,642,642,642,642,642,642,642,642,642,642,642,642,642,642,642,642,642,642,642,642,642,642,642,642,642,642,642,642,642,642,642,642,642,642,642,642,642,642,642,642,642,642,642,642,642,545,419,353,341,340,329,284,247,172,153,151,149,145,139,109,83],"timestamp_mouse":[7,28,46,66,86,107,126,147,166,186,207,227,247,267,288,306,326,346,366,386,406,426,448,466,486,507,526,546,568,587,606,626,646,666,687,706,726,747,766,786,807,826,848,866,886,907,926,947,966,986,1006,1027,1048,1066,1086,1107,1127,1146,1166,1188,1208,1226,1247,1266,1286,1308,1327,1347,1367,1386,1406,1427,1446,1466,1488,1507,1526,1546,1566,1586,1606,1626,1646,1666,1688,1706,1726,1746,1767,1787,1807,1826,1846,1867,1888,1908,1926,1946,1966,1987,2006,2026,2046,2066,2086,2106,2126,2147,2167,2187,2207,2226,2246,2267,2286,2306,2326,2346,2367,2388,2406,2426,2446,2467,2486,2507,2527,2547,2566,2586,2607,2628,2646,2667,2687,2706,2727,2747,2767,2786,2807,2827,2847,2866,2887,2907,2927,2946,2967,2986,3007,3026,3046,3067,3087,3108,3127,3146,3166,3187,3206,3226,3247,3267,3286