[{"start_time":1551899771584,"click_time":1551899772293,"finger_time":1551899771593,"fix_duration":1446.1221905510895,"trial":0,"RT":9,"MT":700,"sideResp":2,"stimulus":[],"xmouse":[799,799,799,799,799,799,799,799,799,799,799,799,799,799,799,799,800,855,951,1036,1215,1265,1305,1335,1358,1376,1377,1377,1377,1377,1377,1377,1372,1351,1276,1150],"ymouse":[561,561,561,561,561,561,561,561,561,561,561,561,561,561,561,561,561,564,530,487,381,348,318,278,225,162,155,153,153,153,153,153,150,144,117,55],"timestamp_mouse":[9,29,49,69,89,109,129,149,170,189,210,229,249,269,290,309,330,349,370,390,409,430,449,469,490,509,529,549,570,590,609,629,648,669,690,708],"xSR":741.5,"ySR":501.8,"xT1":424.9,"yT1":0,"xT2":1058.1,"yT2":0,"toosoon":0,"cond_shown":"Congruent","ratio_trial":100,"L_num":1,"L_den":2,"R_num":18,"R_den":30,"correct_side":2,"subjID":"AngelSantiagoTinjacaCortes35","gender":"0","age":"11","school":"6","test":{"fix_dur":[250,1500],"timestim":1000,"targets_dim":[100,100],"targets_relative_coord":[0.3,0.7],"size_stim":[880,420],"start_dim":[100,100],"size_start":[300,300],"size_fix":60,"samplingrate":20,"img_types":["Congruent","Incongruent"],"ratios":[100,200,300],"rep_conds":19,"nTrials":120,"trials_to_rest":500,"Trials_order":[54,83,7,77,43,17,27,96,47,39,9,89,103,80,35,102,41,105,25,70,2,24,45,56,32,81,107,12,63,108,3,21,95,11,79,118,75,5,1,88,87,62,90,67,46,15,51,112,114,13,73,76,19,52,48,116,40,93,68,110,104,99,30,57,86,113,37,22,49,6,29,59,71,72,91,44,38,115,42,20,84,117,61,78,94,64,101,31,53,85,4,98,33,23,66,14,18,50,8,60,82,65,0,69,16,100,111,58,97,119,28,92,55,74,34,36,106,10,109,26],"cond_shown":["Congruent","Incongruent","Incongruent","Incongruent","Incongruent","Incongruent","Incongruent","Congruent","Incongruent","Incongruent","Incongruent","Incongruent","Incongruent","Congruent","Incongruent","Congruent","Incongruent","Incongruent","Incongruent","Congruent","Congruent","Congruent","Incongruent","Congruent","Congruent","Incongruent","Incongruent","Congruent","Incongruent","Congruent","Incongruent","Incongruent","Incongruent","Incongruent","Incongruent","Congruent","Incongruent","Incongruent","Incongruent","Congruent","Incongruent","Congruent","Congruent","Incongruent","Congruent","Incongruent","Incongruent","Congruent","Congruent","Incongruent","Incongruent","Congruent","Incongruent","Congruent","Congruent","Congruent","Congruent","Incongruent","Congruent","Congruent","Congruent","Incongruent","Congruent","Incongruent","Congruent","Incongruent","Incongruent","Congruent","Incongruent","Congruent","Incongruent","Incongruent","Incongruent","Congruent","Incongruent","Congruent","Congruent","Incongruent","Congruent","Congruent","Congruent","Incongruent","Incongruent","Congruent","Congruent","Congruent","Incongruent","Incongruent","Incongruent","Incongruent","Congruent","Congruent","Incongruent","Incongruent","Congruent","Congruent","Congruent","Congruent","Congruent","Congruent","Congruent","Incongruent","Congruent","Incongruent","Congruent","Congruent","Incongruent","Congruent","Incongruent","Incongruent","Congruent","Congruent","Incongruent","Congruent","Congruent","Congruent","Congruent","Congruent","Incongruent","Congruent"],"ratio_trial":[100,300,100,300,100,300,200,100,300,200,200,300,100,200,300,100,300,200,100,300,200,100,200,200,200,200,300,100,200,100,200,200,300,300,100,300,200,300,100,300,200,200,100,100,300,200,200,300,100,100,100,300,100,300,100,200,300,200,200,200,200,200,100,200,200,300,100,300,100,100,300,300,300,100,100,200,200,100,100,200,100,200,100,100,300,300,300,100,300,100,300,200,200,300,100,200,100,200,200,100,300,300,100,200,300,300,200,300,100,300,300,200,100,200,300,100,300,300,100,200],"left_num":[1,4,11,4,1,13,6,10,1,9,4,2,9,8,1,11,13,1,6,5,20,11,7,7,9,7,4,11,1,11,11,7,4,4,9,3,7,4,9,20,14,7,4,2,20,4,7,2,11,17,10,24,12,1,15,7,3,1,11,11,16,7,11,3,3,13,10,3,9,15,4,8,4,2,3,16,8,13,11,3,11,3,13,4,1,3,4,3,4,6,4,8,1,4,6,12,4,4,6,8,5,13,10,11,18,1,7,4,1,4,1,5,17,9,24,10,20,20,11,1],"right_num":[18,2,9,2,8,12,3,3,3,8,1,6,6,3,3,6,12,3,13,7,9,4,4,18,13,4,2,6,3,4,3,6,6,2,6,2,12,6,20,14,6,18,15,6,5,6,6,10,4,10,9,8,9,6,13,2,11,2,3,3,9,4,6,1,9,12,8,2,14,13,8,14,2,11,4,12,2,12,6,14,6,11,6,6,19,11,2,11,2,7,2,2,2,6,15,6,6,3,11,2,6,12,3,3,9,19,6,13,8,2,7,14,10,4,2,3,14,14,9,21],"left_den":[2,20,22,20,2,26,20,25,2,15,30,4,18,15,2,22,26,2,10,25,25,22,15,15,30,15,20,22,2,22,20,15,5,20,18,6,10,5,10,25,30,15,10,4,25,5,15,20,22,30,25,30,24,5,25,21,12,3,22,22,30,15,22,10,12,26,25,6,15,25,5,10,20,5,6,20,15,26,22,10,22,4,26,8,3,12,20,5,20,10,5,15,3,5,12,20,8,10,20,16,25,26,25,20,20,3,15,20,2,20,20,10,30,20,30,25,25,25,22,2],"right_den":[30,4,15,4,20,15,6,10,15,10,3,30,10,9,15,15,15,10,26,14,15,10,6,27,26,6,4,15,10,10,4,9,12,4,10,10,24,12,25,28,9,27,30,15,10,10,9,25,10,15,18,16,15,12,26,15,20,15,10,10,27,6,15,2,20,15,16,10,28,26,16,28,4,22,10,20,6,20,15,28,15,20,10,10,30,20,4,22,4,14,4,6,15,12,25,15,10,15,22,5,12,15,10,4,15,30,9,26,20,4,20,20,15,16,4,10,28,28,15,30],"correct_side":[2,2,2,2,1,2,2,1,1,2,2,1,2,1,1,1,2,1,1,2,1,1,2,2,2,2,2,1,1,1,2,2,1,2,2,1,1,1,1,1,2,2,2,1,1,1,2,2,1,2,2,1,2,2,1,1,2,1,1,1,1,2,1,2,2,2,2,1,1,1,1,1,2,2,1,1,1,2,1,2,1,1,2,2,2,2,2,1,2,1,1,1,1,1,2,1,2,1,2,1,2,2,1,2,1,2,2,2,1,2,2,2,2,1,1,1,1,1,2,2],"img_shown":["img2/100/Congruent/R/C_Dist_100_LN_1_LD_2_RN_18_RD_30_1.png","img2/300/Incongruent/R/I_Dist_300_LN_4_LD_20_RN_2_RD_4_1.png","img2/100/Incongruent/R/I_Dist_100_LN_11_LD_22_RN_9_RD_15_1.png","img2/300/Incongruent/R/I_Dist_300_LN_4_LD_20_RN_2_RD_4_1.png","img2/100/Incongruent/L/I_Dist_100_LN_1_LD_2_RN_8_RD_20_0.png","img2/300/Incongruent/R/I_Dist_300_LN_13_LD_26_RN_12_RD_15_1.png","img2/200/Incongruent/R/I_Dist_200_LN_6_LD_20_RN_3_RD_6_1.png","img2/100/Congruent/L/C_Dist_100_LN_10_LD_25_RN_3_RD_10_0.png","img2/300/Incongruent/L/I_Dist_300_LN_1_LD_2_RN_3_RD_15_0.png","img2/200/Incongruent/R/I_Dist_200_LN_9_LD_15_RN_8_RD_10_1.png","img2/200/Incongruent/R/I_Dist_200_LN_4_LD_30_RN_1_RD_3_1.png","img2/300/Incongruent/L/I_Dist_300_LN_2_LD_4_RN_6_RD_30_0.png","img2/100/Incongruent/R/I_Dist_100_LN_9_LD_18_RN_6_RD_10_1.png","img2/200/Congruent/L/C_Dist_200_LN_8_LD_15_RN_3_RD_9_0.png","img2/300/Incongruent/L/I_Dist_300_LN_1_LD_2_RN_3_RD_15_0.png","img2/100/Congruent/L/C_Dist_100_LN_11_LD_22_RN_6_RD_15_0.png","img2/300/Incongruent/R/I_Dist_300_LN_13_LD_26_RN_12_RD_15_1.png","img2/200/Incongruent/L/I_Dist_200_LN_1_LD_2_RN_3_RD_10_0.png","img2/100/Incongruent/L/I_Dist_100_LN_6_LD_10_RN_13_RD_26_0.png","img2/300/Congruent/R/C_Dist_300_LN_5_LD_25_RN_7_RD_14_1.png","img2/200/Congruent/L/C_Dist_200_LN_20_LD_25_RN_9_RD_15_0.png","img2/100/Congruent/L/C_Dist_100_LN_11_LD_22_RN_4_RD_10_0.png","img2/200/Incongruent/R/I_Dist_200_LN_7_LD_15_RN_4_RD_6_1.png","img2/200/Congruent/R/C_Dist_200_LN_7_LD_15_RN_18_RD_27_1.png","img2/200/Congruent/R/C_Dist_200_LN_9_LD_30_RN_13_RD_26_1.png","img2/200/Incongruent/R/I_Dist_200_LN_7_LD_15_RN_4_RD_6_1.png","img2/300/Incongruent/R/I_Dist_300_LN_4_LD_20_RN_2_RD_4_1.png","img2/100/Congruent/L/C_Dist_100_LN_11_LD_22_RN_6_RD_15_0.png","img2/200/Incongruent/L/I_Dist_200_LN_1_LD_2_RN_3_RD_10_0.png","img2/100/Congruent/L/C_Dist_100_LN_11_LD_22_RN_4_RD_10_0.png","img2/200/Incongruent/R/I_Dist_200_LN_11_LD_20_RN_3_RD_4_1.png","img2/200/Incongruent/R/I_Dist_200_LN_7_LD_15_RN_6_RD_9_1.png","img2/300/Incongruent/L/I_Dist_300_LN_4_LD_5_RN_6_RD_12_0.png","img2/300/Incongruent/R/I_Dist_300_LN_4_LD_20_RN_2_RD_4_1.png","img2/100/Incongruent/R/I_Dist_100_LN_9_LD_18_RN_6_RD_10_1.png","img2/300/Congruent/L/C_Dist_300_LN_3_LD_6_RN_2_RD_10_0.png","img2/200/Incongruent/L/I_Dist_200_LN_7_LD_10_RN_12_RD_24_0.png","img2/300/Incongruent/L/I_Dist_300_LN_4_LD_5_RN_6_RD_12_0.png","img2/100/Incongruent/L/I_Dist_100_LN_9_LD_10_RN_20_RD_25_0.png","img2/300/Congruent/L/C_Dist_300_LN_20_LD_25_RN_14_RD_28_0.png","img2/200/Incongruent/R/I_Dist_200_LN_14_LD_30_RN_6_RD_9_1.png","img2/200/Congruent/R/C_Dist_200_LN_7_LD_15_RN_18_RD_27_1.png","img2/100/Congruent/R/C_Dist_100_LN_4_LD_10_RN_15_RD_30_1.png","img2/100/Incongruent/L/I_Dist_100_LN_2_LD_4_RN_6_RD_15_0.png","img2/300/Congruent/L/C_Dist_300_LN_20_LD_25_RN_5_RD_10_0.png","img2/200/Incongruent/L/I_Dist_200_LN_4_LD_5_RN_6_RD_10_0.png","img2/200/Incongruent/R/I_Dist_200_LN_7_LD_15_RN_6_RD_9_1.png","img2/300/Congruent/R/C_Dist_300_LN_2_LD_20_RN_10_RD_25_1.png","img2/100/Congruent/L/C_Dist_100_LN_11_LD_22_RN_4_RD_10_0.png","img2/100/Incongruent/R/I_Dist_100_LN_17_LD_30_RN_10_RD_15_1.png","img2/100/Incongruent/R/I_Dist_100_LN_10_LD_25_RN_9_RD_18_1.png","img2/300/Congruent/L/C_Dist_300_LN_24_LD_30_RN_8_RD_16_0.png","img2/100/Incongruent/R/I_Dist_100_LN_12_LD_24_RN_9_RD_15_1.png","img2/300/Congruent/R/C_Dist_300_LN_1_LD_5_RN_6_RD_12_1.png","img2/100/Congruent/L/C_Dist_100_LN_15_LD_25_RN_13_RD_26_0.png","img2/200/Congruent/L/C_Dist_200_LN_7_LD_21_RN_2_RD_15_0.png","img2/300/Congruent/R/C_Dist_300_LN_3_LD_12_RN_11_RD_20_1.png","img2/200/Incongruent/L/I_Dist_200_LN_1_LD_3_RN_2_RD_15_0.png","img2/200/Congruent/L/C_Dist_200_LN_11_LD_22_RN_3_RD_10_0.png","img2/200/Congruent/L/C_Dist_200_LN_11_LD_22_RN_3_RD_10_0.png","img2/200/Congruent/L/C_Dist_200_LN_16_LD_30_RN_9_RD_27_0.png","img2/200/Incongruent/R/I_Dist_200_LN_7_LD_15_RN_4_RD_6_1.png","img2/100/Congruent/L/C_Dist_100_LN_11_LD_22_RN_6_RD_15_0.png","img2/200/Incongruent/R/I_Dist_200_LN_3_LD_10_RN_1_RD_2_1.png","img2/200/Congruent/R/C_Dist_200_LN_3_LD_12_RN_9_RD_20_1.png","img2/300/Incongruent/R/I_Dist_300_LN_13_LD_26_RN_12_RD_15_1.png","img2/100/Incongruent/R/I_Dist_100_LN_10_LD_25_RN_8_RD_16_1.png","img2/300/Congruent/L/C_Dist_300_LN_3_LD_6_RN_2_RD_10_0.png","img2/100/Incongruent/L/I_Dist_100_LN_9_LD_15_RN_14_RD_28_0.png","img2/100/Congruent/L/C_Dist_100_LN_15_LD_25_RN_13_RD_26_0.png","img2/300/Incongruent/L/I_Dist_300_LN_4_LD_5_RN_8_RD_16_0.png","img2/300/Incongruent/L/I_Dist_300_LN_8_LD_10_RN_14_RD_28_0.png","img2/300/Incongruent/R/I_Dist_300_LN_4_LD_20_RN_2_RD_4_1.png","img2/100/Congruent/R/C_Dist_100_LN_2_LD_5_RN_11_RD_22_1.png","img2/100/Incongruent/L/I_Dist_100_LN_3_LD_6_RN_4_RD_10_0.png","img2/200/Congruent/L/C_Dist_200_LN_16_LD_20_RN_12_RD_20_0.png","img2/200/Congruent/L/C_Dist_200_LN_8_LD_15_RN_2_RD_6_0.png","img2/100/Incongruent/R/I_Dist_100_LN_13_LD_26_RN_12_RD_20_1.png","img2/100/Congruent/L/C_Dist_100_LN_11_LD_22_RN_6_RD_15_0.png","img2/200/Congruent/R/C_Dist_200_LN_3_LD_10_RN_14_RD_28_1.png","img2/100/Congruent/L/C_Dist_100_LN_11_LD_22_RN_6_RD_15_0.png","img2/200/Incongruent/L/I_Dist_200_LN_3_LD_4_RN_11_RD_20_0.png","img2/100/Incongruent/R/I_Dist_100_LN_13_LD_26_RN_6_RD_10_1.png","img2/100/Congruent/R/C_Dist_100_LN_4_LD_8_RN_6_RD_10_1.png","img2/300/Congruent/R/C_Dist_300_LN_1_LD_3_RN_19_RD_30_1.png","img2/300/Congruent/R/C_Dist_300_LN_3_LD_12_RN_11_RD_20_1.png","img2/300/Incongruent/R/I_Dist_300_LN_4_LD_20_RN_2_RD_4_1.png","img2/100/Incongruent/L/I_Dist_100_LN_3_LD_5_RN_11_RD_22_0.png","img2/300/Incongruent/R/I_Dist_300_LN_4_LD_20_RN_2_RD_4_1.png","img2/100/Incongruent/L/I_Dist_100_LN_6_LD_10_RN_7_RD_14_0.png","img2/300/Congruent/L/C_Dist_300_LN_4_LD_5_RN_2_RD_4_0.png","img2/200/Congruent/L/C_Dist_200_LN_8_LD_15_RN_2_RD_6_0.png","img2/200/Incongruent/L/I_Dist_200_LN_1_LD_3_RN_2_RD_15_0.png","img2/300/Incongruent/L/I_Dist_300_LN_4_LD_5_RN_6_RD_12_0.png","img2/100/Congruent/R/C_Dist_100_LN_6_LD_12_RN_15_RD_25_1.png","img2/200/Congruent/L/C_Dist_200_LN_12_LD_20_RN_6_RD_15_0.png","img2/100/Congruent/R/C_Dist_100_LN_4_LD_8_RN_6_RD_10_1.png","img2/200/Congruent/L/C_Dist_200_LN_4_LD_10_RN_3_RD_15_0.png","img2/200/Congruent/R/C_Dist_200_LN_6_LD_20_RN_11_RD_22_1.png","img2/100/Congruent/L/C_Dist_100_LN_8_LD_16_RN_2_RD_5_0.png","img2/300/Congruent/R/C_Dist_300_LN_5_LD_25_RN_6_RD_12_1.png","img2/300/Incongruent/R/I_Dist_300_LN_13_LD_26_RN_12_RD_15_1.png","img2/100/Congruent/L/C_Dist_100_LN_10_LD_25_RN_3_RD_10_0.png","img2/200/Incongruent/R/I_Dist_200_LN_11_LD_20_RN_3_RD_4_1.png","img2/300/Congruent/L/C_Dist_300_LN_18_LD_20_RN_9_RD_15_0.png","img2/300/Congruent/R/C_Dist_300_LN_1_LD_3_RN_19_RD_30_1.png","img2/200/Incongruent/R/I_Dist_200_LN_7_LD_15_RN_6_RD_9_1.png","img2/300/Congruent/R/C_Dist_300_LN_4_LD_20_RN_13_RD_26_1.png","img2/100/Incongruent/L/I_Dist_100_LN_1_LD_2_RN_8_RD_20_0.png","img2/300/Incongruent/R/I_Dist_300_LN_4_LD_20_RN_2_RD_4_1.png","img2/300/Congruent/R/C_Dist_300_LN_1_LD_20_RN_7_RD_20_1.png","img2/200/Congruent/R/C_Dist_200_LN_5_LD_10_RN_14_RD_20_1.png","img2/100/Incongruent/R/I_Dist_100_LN_17_LD_30_RN_10_RD_15_1.png","img2/200/Congruent/L/C_Dist_200_LN_9_LD_20_RN_4_RD_16_0.png","img2/300/Congruent/L/C_Dist_300_LN_24_LD_30_RN_2_RD_4_0.png","img2/100/Congruent/L/C_Dist_100_LN_10_LD_25_RN_3_RD_10_0.png","img2/300/Congruent/L/C_Dist_300_LN_20_LD_25_RN_14_RD_28_0.png","img2/300/Congruent/L/C_Dist_300_LN_20_LD_25_RN_14_RD_28_0.png","img2/100/Incongruent/R/I_Dist_100_LN_11_LD_22_RN_9_RD_15_1.png","img2/200/Congruent/R/C_Dist_200_LN_1_LD_2_RN_21_RD_30_1.png"],"dist100_C":[["C_Dist_100_LN_10_LD_25_RN_3_RD_10_0.png","C_Dist_100_LN_11_LD_22_RN_4_RD_10_0.png","C_Dist_100_LN_11_LD_22_RN_6_RD_15_0.png","C_Dist_100_LN_15_LD_25_RN_13_RD_26_0.png","C_Dist_100_LN_3_LD_6_RN_2_RD_5_0.png","C_Dist_100_LN_6_LD_20_RN_5_RD_25_0.png","C_Dist_100_LN_8_LD_16_RN_2_RD_5_0.png","C_Dist_100_LN_9_LD_15_RN_8_RD_16_0.png"],["C_Dist_100_LN_1_LD_2_RN_18_RD_30_1.png","C_Dist_100_LN_1_LD_2_RN_3_RD_5_1.png","C_Dist_100_LN_12_LD_30_RN_13_RD_26_1.png","C_Dist_100_LN_2_LD_5_RN_11_RD_22_1.png","C_Dist_100_LN_2_LD_5_RN_6_RD_12_1.png","C_Dist_100_LN_3_LD_20_RN_4_RD_16_1.png","C_Dist_100_LN_4_LD_10_RN_15_RD_30_1.png","C_Dist_100_LN_4_LD_8_RN_6_RD_10_1.png","C_Dist_100_LN_6_LD_12_RN_15_RD_25_1.png","C_Dist_100_LN_7_LD_14_RN_15_RD_25_1.png","C_Dist_100_LN_7_LD_14_RN_9_RD_15_1.png"]],"dist100_I":[["I_Dist_100_LN_1_LD_2_RN_8_RD_20_0.png","I_Dist_100_LN_2_LD_4_RN_6_RD_15_0.png","I_Dist_100_LN_2_LD_4_RN_8_RD_20_0.png","I_Dist_100_LN_3_LD_5_RN_11_RD_22_0.png","I_Dist_100_LN_3_LD_5_RN_8_RD_16_0.png","I_Dist_100_LN_3_LD_6_RN_4_RD_10_0.png","I_Dist_100_LN_3_LD_9_RN_7_RD_30_0.png","I_Dist_100_LN_4_LD_8_RN_8_RD_20_0.png","I_Dist_100_LN_6_LD_10_RN_11_RD_22_0.png","I_Dist_100_LN_6_LD_10_RN_13_RD_26_0.png","I_Dist_100_LN_6_LD_10_RN_7_RD_14_0.png","I_Dist_100_LN_9_LD_10_RN_20_RD_25_0.png","I_Dist_100_LN_9_LD_15_RN_13_RD_26_0.png","I_Dist_100_LN_9_LD_15_RN_14_RD_28_0.png"],["I_Dist_100_LN_10_LD_25_RN_8_RD_16_1.png","I_Dist_100_LN_10_LD_25_RN_9_RD_18_1.png","I_Dist_100_LN_11_LD_22_RN_9_RD_15_1.png","I_Dist_100_LN_12_LD_24_RN_9_RD_15_1.png","I_Dist_100_LN_12_LD_30_RN_2_RD_4_1.png","I_Dist_100_LN_13_LD_26_RN_12_RD_20_1.png","I_Dist_100_LN_13_LD_26_RN_6_RD_10_1.png","I_Dist_100_LN_17_LD_30_RN_10_RD_15_1.png","I_Dist_100_LN_6_LD_12_RN_3_RD_5_1.png","I_Dist_100_LN_8_LD_16_RN_6_RD_10_1.png","I_Dist_100_LN_8_LD_20_RN_1_RD_2_1.png","I_Dist_100_LN_9_LD_18_RN_6_RD_10_1.png"]],"dist100_S":[["E_Dist_100_LN_2_LD_12_RN_2_RD_30_0.png","E_Dist_100_LN_6_LD_10_RN_6_RD_12_0.png"],["E_Dist_100_LN_6_LD_12_RN_6_RD_10_1.png"]],"dist200_C":[["C_Dist_200_LN_11_LD_22_RN_3_RD_10_0.png","C_Dist_200_LN_12_LD_15_RN_6_RD_10_0.png","C_Dist_200_LN_12_LD_20_RN_6_RD_15_0.png","C_Dist_200_LN_14_LD_28_RN_6_RD_20_0.png","C_Dist_200_LN_15_LD_25_RN_4_RD_10_0.png","C_Dist_200_LN_16_LD_20_RN_12_RD_20_0.png","C_Dist_200_LN_16_LD_30_RN_9_RD_27_0.png","C_Dist_200_LN_20_LD_25_RN_9_RD_15_0.png","C_Dist_200_LN_21_LD_30_RN_2_RD_4_0.png","C_Dist_200_LN_4_LD_10_RN_3_RD_15_0.png","C_Dist_200_LN_4_LD_8_RN_3_RD_10_0.png","C_Dist_200_LN_6_LD_15_RN_3_RD_15_0.png","C_Dist_200_LN_7_LD_21_RN_2_RD_15_0.png","C_Dist_200_LN_8_LD_15_RN_2_RD_6_0.png","C_Dist_200_LN_8_LD_15_RN_3_RD_9_0.png","C_Dist_200_LN_8_LD_15_RN_7_RD_21_0.png","C_Dist_200_LN_9_LD_20_RN_4_RD_16_0.png"],["C_Dist_200_LN_1_LD_2_RN_21_RD_30_1.png","C_Dist_200_LN_13_LD_26_RN_14_RD_20_1.png","C_Dist_200_LN_3_LD_10_RN_11_RD_22_1.png","C_Dist_200_LN_3_LD_10_RN_14_RD_28_1.png","C_Dist_200_LN_3_LD_10_RN_7_RD_14_1.png","C_Dist_200_LN_3_LD_12_RN_9_RD_20_1.png","C_Dist_200_LN_3_LD_6_RN_14_RD_20_1.png","C_Dist_200_LN_5_LD_10_RN_14_RD_20_1.png","C_Dist_200_LN_6_LD_12_RN_7_RD_10_1.png","C_Dist_200_LN_6_LD_20_RN_11_RD_22_1.png","C_Dist_200_LN_7_LD_15_RN_18_RD_27_1.png","C_Dist_200_LN_9_LD_30_RN_13_RD_26_1.png"]],"dist200_I":[["I_Dist_200_LN_1_LD_2_RN_3_RD_10_0.png","I_Dist_200_LN_1_LD_3_RN_2_RD_15_0.png","I_Dist_200_LN_3_LD_4_RN_11_RD_20_0.png","I_Dist_200_LN_4_LD_5_RN_6_RD_10_0.png","I_Dist_200_LN_4_LD_6_RN_14_RD_30_0.png","I_Dist_200_LN_7_LD_10_RN_12_RD_24_0.png","I_Dist_200_LN_7_LD_10_RN_14_RD_28_0.png","I_Dist_200_LN_7_LD_10_RN_8_RD_16_0.png"],["I_Dist_200_LN_11_LD_20_RN_3_RD_4_1.png","I_Dist_200_LN_14_LD_30_RN_12_RD_18_1.png","I_Dist_200_LN_14_LD_30_RN_6_RD_9_1.png","I_Dist_200_LN_3_LD_10_RN_1_RD_2_1.png","I_Dist_200_LN_4_LD_30_RN_1_RD_3_1.png","I_Dist_200_LN_6_LD_20_RN_3_RD_6_1.png","I_Dist_200_LN_7_LD_15_RN_4_RD_6_1.png","I_Dist_200_LN_7_LD_15_RN_6_RD_9_1.png","I_Dist_200_LN_9_LD_15_RN_8_RD_10_1.png"]],"dist200_S":[["E_Dist_200_LN_3_LD_6_RN_3_RD_10_0.png"],["E_Dist_200_LN_3_LD_10_RN_3_RD_6_1.png"]],"dist300_C":[["C_Dist_300_LN_11_LD_22_RN_1_RD_5_0.png","C_Dist_300_LN_11_LD_22_RN_2_RD_10_0.png","C_Dist_300_LN_11_LD_22_RN_4_RD_20_0.png","C_Dist_300_LN_12_LD_24_RN_2_RD_10_0.png","C_Dist_300_LN_18_LD_20_RN_9_RD_15_0.png","C_Dist_300_LN_20_LD_25_RN_13_RD_26_0.png","C_Dist_300_LN_20_LD_25_RN_14_RD_28_0.png","C_Dist_300_LN_20_LD_25_RN_5_RD_10_0.png","C_Dist_300_LN_20_LD_25_RN_8_RD_16_0.png","C_Dist_300_LN_20_LD_25_RN_9_RD_18_0.png","C_Dist_300_LN_24_LD_30_RN_2_RD_4_0.png","C_Dist_300_LN_24_LD_30_RN_8_RD_16_0.png","C_Dist_300_LN_3_LD_6_RN_2_RD_10_0.png","C_Dist_300_LN_4_LD_10_RN_1_RD_10_0.png","C_Dist_300_LN_4_LD_5_RN_2_RD_4_0.png","C_Dist_300_LN_8_LD_16_RN_1_RD_5_0.png","C_Dist_300_LN_9_LD_10_RN_3_RD_5_0.png"],["C_Dist_300_LN_1_LD_20_RN_7_RD_20_1.png","C_Dist_300_LN_1_LD_3_RN_19_RD_30_1.png","C_Dist_300_LN_1_LD_30_RN_8_RD_24_1.png","C_Dist_300_LN_1_LD_5_RN_11_RD_22_1.png","C_Dist_300_LN_1_LD_5_RN_3_RD_6_1.png","C_Dist_300_LN_1_LD_5_RN_6_RD_12_1.png","C_Dist_300_LN_2_LD_10_RN_12_RD_24_1.png","C_Dist_300_LN_2_LD_20_RN_10_RD_25_1.png","C_Dist_300_LN_3_LD_12_RN_11_RD_20_1.png","C_Dist_300_LN_3_LD_6_RN_4_RD_5_1.png","C_Dist_300_LN_4_LD_20_RN_13_RD_26_1.png","C_Dist_300_LN_5_LD_25_RN_6_RD_12_1.png","C_Dist_300_LN_5_LD_25_RN_7_RD_14_1.png","C_Dist_300_LN_7_LD_14_RN_20_RD_25_1.png","C_Dist_300_LN_8_LD_15_RN_10_RD_12_1.png"]],"dist300_I":[["I_Dist_300_LN_1_LD_2_RN_2_RD_10_0.png","I_Dist_300_LN_1_LD_2_RN_3_RD_15_0.png","I_Dist_300_LN_2_LD_4_RN_6_RD_30_0.png","I_Dist_300_LN_3_LD_6_RN_4_RD_20_0.png","I_Dist_300_LN_4_LD_5_RN_6_RD_12_0.png","I_Dist_300_LN_4_LD_5_RN_8_RD_16_0.png","I_Dist_300_LN_7_LD_10_RN_8_RD_20_0.png","I_Dist_300_LN_8_LD_10_RN_14_RD_28_0.png","I_Dist_300_LN_8_LD_10_RN_9_RD_18_0.png"],["I_Dist_300_LN_13_LD_26_RN_12_RD_15_1.png","I_Dist_300_LN_4_LD_20_RN_2_RD_4_1.png"]],"dist300_S":[["E_Dist_300_LN_9_LD_12_RN_9_RD_20_0.png"],["E_Dist_300_LN_18_LD_30_RN_18_RD_20_1.png","E_Dist_300_LN_3_LD_10_RN_3_RD_5_1.png","E_Dist_300_LN_9_LD_20_RN_9_RD_12_1.png"]],"dist500_C":[["C_Dist_500_LN_10_LD_13_RN_7_RD_26_0.png","C_Dist_500_LN_10_LD_15_RN_4_RD_24_0.png","C_Dist_500_LN_12_LD_16_RN_3_RD_12_0.png","C_Dist_500_LN_12_LD_18_RN_4_RD_24_0.png","C_Dist_500_LN_15_LD_18_RN_5_RD_15_0.png","C_Dist_500_LN_15_LD_20_RN_1_RD_4_0.png","C_Dist_500_LN_18_LD_27_RN_1_RD_6_0.png","C_Dist_500_LN_20_LD_24_RN_1_RD_3_0.png","C_Dist_500_LN_20_LD_24_RN_3_RD_9_0.png","C_Dist_500_LN_20_LD_24_RN_7_RD_21_0.png","C_Dist_500_LN_20_LD_28_RN_3_RD_14_0.png","C_Dist_500_LN_21_LD_28_RN_6_RD_24_0.png","C_Dist_500_LN_22_LD_28_RN_2_RD_7_0.png","C_Dist_500_LN_25_LD_30_RN_9_RD_27_0.png","C_Dist_500_LN_4_LD_6_RN_1_RD_6_0.png","C_Dist_500_LN_5_LD_6_RN_2_RD_6_0.png","C_Dist_500_LN_6_LD_9_RN_1_RD_6_0.png","C_Dist_500_LN_7_LD_10_RN_1_RD_5_0.png","C_Dist_500_LN_8_LD_12_RN_1_RD_6_0.png","C_Dist_500_LN_8_LD_12_RN_4_RD_24_0.png"],["C_Dist_500_LN_1_LD_4_RN_12_RD_16_1.png","C_Dist_500_LN_1_LD_4_RN_9_RD_12_1.png","C_Dist_500_LN_1_LD_9_RN_11_RD_18_1.png","C_Dist_500_LN_10_LD_24_RN_22_RD_24_1.png","C_Dist_500_LN_2_LD_12_RN_10_RD_15_1.png","C_Dist_500_LN_2_LD_12_RN_12_RD_18_1.png","C_Dist_500_LN_2_LD_12_RN_4_RD_6_1.png","C_Dist_500_LN_2_LD_24_RN_7_RD_12_1.png","C_Dist_500_LN_2_LD_5_RN_18_RD_20_1.png","C_Dist_500_LN_2_LD_5_RN_9_RD_10_1.png","C_Dist_500_LN_2_LD_8_RN_12_RD_16_1.png","C_Dist_500_LN_2_LD_8_RN_21_RD_28_1.png","C_Dist_500_LN_3_LD_10_RN_4_RD_5_1.png","C_Dist_500_LN_3_LD_12_RN_15_RD_20_1.png","C_Dist_500_LN_3_LD_30_RN_6_RD_10_1.png","C_Dist_500_LN_3_LD_8_RN_14_RD_16_1.png","C_Dist_500_LN_4_LD_16_RN_15_RD_20_1.png","C_Dist_500_LN_4_LD_24_RN_12_RD_18_1.png","C_Dist_500_LN_5_LD_14_RN_6_RD_7_1.png","C_Dist_500_LN_7_LD_21_RN_20_RD_24_1.png","C_Dist_500_LN_7_LD_28_RN_12_RD_16_1.png","C_Dist_500_LN_7_LD_28_RN_9_RD_12_1.png","C_Dist_500_LN_9_LD_27_RN_20_RD_24_1.png"]],"dist500_I":[["I_Dist_500_LN_2_LD_3_RN_4_RD_24_0.png","I_Dist_500_LN_5_LD_6_RN_6_RD_18_0.png","I_Dist_500_LN_7_LD_8_RN_9_RD_24_0.png"],["I_Dist_500_LN_7_LD_21_RN_5_RD_6_1.png"]],"dist500_S":[["E_Dist_500_LN_6_LD_8_RN_6_RD_24_0.png"],["E_Dist_500_LN_2_LD_12_RN_2_RD_3_1.png","E_Dist_500_LN_6_LD_24_RN_6_RD_8_1.png"]]}},{"start_time":1551899774547,"click_time":1551899779055,"finger_time":1551899778634,"fix_duration":250,"trial":1,"RT":4087,"MT":421,"sideResp":1,"stimulus":[],"xmouse":[821,821,821,821,821,821,821,821,821,821,821,821,821,821,821,821,821,821,821,821,821,821,821,821,821,821,821,821,821,821,821,821,821,821,821,821,821,821,821,821,821,821,821,821,821,821,821,821,821,821,821,821,821,821,821,821,821,821,821,821,821,821,821,821,821,821,821,821,821,821,821,821,821,821,821,821,821,821,821,821,821,821,821,821,821,821,821,821,821,821,821,821,821,821,821,821,821,821,821,821,821,821,821,821,821,821,821,821,821,821,821,821,821,821,821,821,821,821,821,821,821,821,821,821,821,821,821,821,821,821,821,821,821,821,821,821,821,821,821,821,821,821,821,821,821,821,821,821,821,821,821,821,821,821,821,821,821,821,821,821,821,821,821,821,821,821,821,821,821,821,821,821,821,821,821,821,821,821,821,821,821,821,821,821,821,821,821,821,821,821,821,821,821,821,821,821,821,821,821,821,821,821,821,840,855,863,869,875,875,878,887,894,908,912,912,913,913,913,913,913,913,912,782,664,552,508],"ymouse":[616,616,616,616,616,616,616,616,616,616,616,616,616,616,616,616,616,616,616,616,616,616,616,616,616,616,616,616,616,616,616,616,616,616,616,616,616,616,616,616,616,616,616,616,616,616,616,616,616,616,616,616,616,616,616,616,616,616,616,616,616,616,616,616,616,616,616,616,616,616,616,616,616,616,616,616,616,616,616,616,616,616,616,616,616,616,616,616,616,616,616,616,616,616,616,616,616,616,616,616,616,616,616,616,616,616,616,616,616,616,616,616,616,616,616,616,616,616,616,616,616,616,616,616,616,616,616,616,616,616,616,616,616,616,616,616,616,616,616,616,616,616,616,616,616,616,616,616,616,616,616,616,616,616,616,616,616,616,616,616,616,616,616,616,616,616,616,616,616,616,616,616,616,616,616,616,616,616,616,616,616,616,616,616,616,616,616,616,616,616,616,616,616,616,616,616,616,616,616,616,616,616,616,585,536,486,427,312,258,202,150,120,77,68,66,65,65,65,65,65,65,65,68,78,96,96],"timestamp_mouse":[8,35,46,66,87,106,126,146,166,187,206,226,247,267,286,306,327,346,367,386,406,427,446,466,487,506,527,546,566,587,606,626,647,667,686,706,727,746,766,786,807,827,846,867,886,906,927,947,966,987,1006,1026,1047,1066,1086,1107,1128,1146,1166,1187,1206,1227,1246,1267,1287,1307,1327,1347,1367,1387,1406,1426,1447,1466,1486,1507,1527,1546,1566,1586,1607,1627,1647,1667,1687,1706,1726,1747,1768,1787,1806,1826,1846,1866,1886,1906,1926,1946,1967,1987,2006,2026,2047,2066,2086,2106,2127,2147,2167,2186,2207,2226,2246,2266,2288,2306,2326,2346,2366,2386,2406,2426,2446,2466,2486,2506,2526,2546,2566,2587,2607,2626,2646,2666,2686,2706,2727,2746,2766,2787,2806,2826,2846,2866,2886,2906,2926,2946,2966,2987,3006,3026,3046,3067,3087,3107,3126,3146,3167,3186,3206,3226,3246,3267,3287,3306,3326,3346,3367,3386,3407,3427,3447,3466,3486,3506,3526,3547,3566,3587,3606,3627,3647,3667,3687,3706,3728,3746,3767,3786,3806,3827,3847,3866,3887,3906,3928,3946,3967,3987,4006,4026,4046,4066,4087,4106,4126,4146,4167,4186,4206,4226,4247,4267,4286,4306,4326,4347,4366,4386,4406,4427,4446,4467,4486,4507],"xSR":741.5,"ySR":573.95,"xT1":424.9,"yT1":0,"xT2":1058.1,"yT2":0,"toosoon":0,"cond_shown":"Incongruent","ratio_trial":300,"L_num":4,"L_den":20,"R_num":2,"R_den":4,"correct_side":2,"subjID":"AngelSantiagoTinjacaCortes35","gender":"0","school":"6","age":"11"},{"start_time":1551899781551,"click_time":1551899787013,"finger_time":1551899786434,"fix_duration":1255.2107247454153,"trial":2,"RT":4883,"MT":579,"sideResp":2,"stimulus":[],"xmouse":[798,798,798,798,798,798,798,798,798,798,798,798,798,798,798,798,798,798,798,798,798,798,798,798,798,798,798,798,798,798,798,798,798,798,798,798,798,798,798,798,798,798,798,798,798,798,798,798,798,798,798,798,798,798,798,798,798,798,798,798,798,798,798,798,798,798,798,798,798,798,798,798,798,798,798,798,798,798,798,798,798,798,798,798,798,798,798,798,798,798,798,798,798,798,798,798,798,798,798,798,798,798,798,798,798,798,798,798,798,798,798,798,798,798,798,798,798,798,798,798,798,798,798,798,798,798,798,798,798,798,798,798,798,798,798,798,798,798,798,798,798,798,798,798,798,798,798,798,798,798,798,798,798,798,798,798,798,798,798,798,798,798,798,798,798,798,798,798,798,798,798,798,798,798,798,798,798,798,798,798,798,798,798,798,798,798,798,798,798,798,798,798,798,798,798,798,798,798,798,798,798,798,798,798,798,798,798,798,798,798,798,798,798,798,798,798,798,798,798,798,798,801,805,808,809,809,809,809,809,809,809,809,809,809,809,809,809,809,809,809,809,809,809,809,808,808,851,1055,1206,1331,1407,1437,1445,1444,1444,1444,1444,1445,1443,1439,1434,1423,1386,1364,1333,1296,1268,1236,1209,1200,1193,1176,1162,1157],"ymouse":[601,601,601,601,601,601,601,601,601,601,601,601,601,601,601,601,601,601,601,601,601,601,601,601,601,601,601,601,601,601,601,601,601,601,601,601,601,601,601,601,601,601,601,601,601,601,601,601,601,601,601,601,601,601,601,601,601,601,601,601,601,601,601,601,601,601,601,601,601,601,601,601,601,601,601,601,601,601,601,601,601,601,601,601,601,601,601,601,601,601,601,601,601,601,601,601,601,601,601,601,601,601,601,601,601,601,601,601,601,601,601,601,601,601,601,601,601,601,601,601,601,601,601,601,601,601,601,601,601,601,601,601,601,601,601,601,601,601,601,601,601,601,601,601,601,601,601,601,601,601,601,601,601,601,601,601,601,601,601,601,601,601,601,601,601,601,601,601,601,601,601,601,601,601,601,601,601,601,601,601,601,601,601,601,601,601,601,601,601,601,601,601,601,601,601,601,601,601,601,601,601,601,601,601,601,601,601,601,601,601,601,601,601,601,601,601,601,601,601,601,601,598,593,588,587,587,587,587,587,587,587,587,587,587,587,587,587,587,587,587,587,587,587,575,552,513,370,27,0,0,0,0,0,0,0,0,0,10,16,21,27,35,52,60,68,74,74,74,74,73,72,69,67,66],"timestamp_mouse":[9,23,42,62,82,102,122,142,163,182,202,223,242,262,283,302,322,343,363,383,403,423,442,463,483,503,522,542,562,582,602,622,644,662,683,702,722,742,763,782,802,822,842,863,882,902,922,943,963,983,1002,1023,1043,1063,1082,1102,1122,1142,1162,1182,1202,1222,1243,1263,1283,1302,1322,1342,1362,1382,1402,1422,1443,1462,1483,1503,1522,1543,1563,1582,1603,1623,1642,1662,1683,1702,1722,1742,1762,1782,1803,1822,1842,1862,1882,1903,1922,1942,1963,1983,2002,2023,2042,2063,2082,2104,2122,2143,2163,2182,2203,2222,2242,2263,2283,2302,2322,2342,2363,2383,2402,2422,2442,2462,2482,2503,2522,2543,2563,2582,2603,2623,2643,2663,2682,2702,2722,2742,2762,2782,2802,2822,2842,2862,2882,2902,2923,2943,2962,2982,3002,3022,3043,3062,3082,3102,3122,3142,3162,3183,3202,3222,3242,3264,3283,3303,3322,3342,3362,3382,3402,3422,3443,3462,3482,3502,3523,3543,3562,3582,3602,3623,3642,3662,3683,3702,3723,3743,3763,3783,3803,3822,3842,3862,3883,3902,3922,3942,3964,3983,4002,4022,4042,4063,4084,4103,4122,4142,4162,4183,4203,4222,4242,4262,4282,4303,4322,4343,4363,4383,4402,4422,4442,4462,4483,4502,4522,4542,4563,4582,4602,4623,4642,4663,4682,4702,4722,4742,4763,4782,4803,4822,4842,4862,4883,4902,4923,4942,4962,4982,5002,5022,5043,5062,5082,5103,5123,5143,5163,5182,5203,5223,5242,5263,5283,5303,5322,5342,5362,5382,5404,5423,5442,5462],"xSR":741.5,"ySR":573.95,"xT1":424.9,"yT1":0,"xT2":1058.1,"yT2":0,"toosoon":0,"cond_shown":"Incongruent","ratio_trial":100,"L_num":11,"L_den":22,"R_num":9,"R_den":15,"correct_side":2,"subjID":"AngelSantiagoTinjacaCortes35","gender":"0","school":"6","age":"11"},{"start_time":1551899789324,"click_time":1551899791994,"finger_time":1551899791354,"fix_duration":1249.690178734235,"trial":3,"RT":2030,"MT":640,"sideResp":2,"stimulus":[],"xmouse":[832,832,832,832,832,832,832,832,832,832,832,832,832,832,832,832,832,832,832,832,832,832,832,832,832,832,832,832,832,832,832,832,832,832,832,832,832,832,832,832,832,832,832,832,832,832,832,832,832,832,832,832,832,832,832,832,832,832,832,832,832,832,832,832,832,832,832,832,832,832,832,832,832,832,832,832,832,832,832,832,832,832,832,832,832,832,832,832,832,832,832,832,832,832,832,832,832,832,832,833,839,848,858,879,884,888,891,895,909,913,921,921,925,941,947,952,956,962,988,1000,1008,1016,1021,1030,1038,1041,1045,1047,1055,1057,1058,1061,1063,1068],"ymouse":[626,626,626,626,626,626,626,626,626,626,626,626,626,626,626,626,626,626,626,626,626,626,626,626,626,626,626,626,626,626,626,626,626,626,626,626,626,626,626,626,626,626,626,626,626,626,626,626,626,626,626,626,626,626,626,626,626,626,626,626,626,626,626,626,626,626,626,626,626,626,626,626,626,626,626,626,626,626,626,626,626,626,626,626,626,626,626,626,626,626,626,626,626,626,626,626,626,626,626,621,612,595,577,515,491,469,451,435,399,390,375,373,362,328,315,308,302,290,261,252,246,239,233,212,201,192,181,172,154,146,138,123,106,75],"timestamp_mouse":[10,35,49,69,90,109,129,149,170,190,209,230,250,269,290,311,330,350,369,390,409,430,450,470,490,509,530,549,569,590,610,629,649,669,689,709,730,749,770,790,809,830,849,870,890,910,930,950,969,989,1009,1030,1050,1070,1090,1109,1130,1150,1169,1189,1209,1230,1250,1269,1290,1310,1329,1349,1370,1390,1410,1430,1450,1469,1489,1510,1530,1549,1570,1589,1610,1630,1649,1670,1690,1710,1730,1750,1769,1790,1809,1830,1849,1869,1889,1909,1930,1950,1970,1990,2009,2030,2049,2069,2089,2109,2129,2149,2169,2189,2209,2229,2250,2270,2289,2309,2331,2350,2369,2390,2409,2430,2450,2469,2489,2509,2530,2549,2569,2589,2609,2630,2651,2670],"xSR":741.5,"ySR":573.95,"xT1":424.9,"yT1":0,"xT2":1058.1,"yT2":0,"toosoon":0,"cond_shown":"Incongruent","ratio_trial":300,"L_num":4,"L_den":20,"R_num":2,"R_den":4,"correct_side":2,"subjID":"AngelSantiagoTinjacaCortes35","gender":"0","school":"6","age":"11"},{"start_time":1551899794673,"click_time":1551899796454,"finger_time":1551899796133,"fix_duration":1217.5926803821146,"trial":4,"RT":1460,"MT":321,"sideResp":1,"stimulus":[],"xmouse":[760,760,760,760,760,760,760,760,760,760,760,760,760,760,760,760,760,760,760,760,760,760,760,760,760,760,760,760,760,760,760,760,760,760,760,760,760,760,760,760,760,760,760,760,760,760,760,760,760,760,760,760,760,760,760,760,760,760,760,760,760,760,760,760,760,760,760,760,760,760,759,753,750,741,730,725,694,671,655,638,623,607,604,598,595,594,588,571,536,513],"ymouse":[645,645,645,645,645,645,645,645,645,645,645,645,645,645,645,645,645,645,645,645,645,645,645,645,645,645,645,645,645,645,645,645,645,645,645,645,645,645,645,645,645,645,645,645,645,645,645,645,645,645,645,645,645,645,645,645,645,645,645,645,645,645,645,645,645,645,645,645,645,645,641,600,587,523,441,353,160,71,0,0,0,0,0,0,0,0,0,0,0,1],"timestamp_mouse":[8,20,40,61,81,100,121,141,161,180,201,222,240,261,280,301,322,340,360,381,400,421,441,461,481,501,521,541,561,580,600,621,640,661,680,700,721,741,761,780,801,820,841,860,881,900,921,941,960,980,1000,1020,1041,1060,1080,1100,1120,1140,1160,1181,1200,1220,1241,1261,1280,1300,1321,1340,1360,1380,1400,1420,1441,1460,1481,1501,1520,1540,1560,1580,1600,1621,1640,1661,1680,1700,1721,1740,1760,1781],"xSR":741.5,"ySR":573.95,"xT1":424.9,"yT1":0,"xT2":1058.1,"yT2":0,"toosoon":0,"cond_shown":"Incongruent","ratio_trial":100,"L_num":1,"L_den":2,"R_num":8,"R_den":20,"correct_side":1,"subjID":"AngelSantiagoTinjacaCortes35","gender":"0","school":"6","age":"11"},{"start_time":1551899799270,"click_time":1551899819853,"finger_time":1551899818554,"fix_duration":616.6727638293193,"trial":5,"RT":19284,"MT":1299,"sideResp":1,"stimulus":[],"xmouse":[756,756,756,756,756,756,756,756,756,756,756,756,756,756,756,756,756,756,756,756,756,756,756,756,756,756,756,756,756,756,756,756,756,756,756,756,756,756,756,756,756,756,756,756,756,756,756,756,756,756,756,756,756,756,756,756,756,756,756,756,756,756,756,756,756,756,756,756,756,756,756,756,756,756,756,756,756,756,756,756,756,756,756,756,756,756,756,756,756,756,756,756,756,756,756,756,756,756,756,756,756,756,756,756,756,756,756,756,756,756,756,756,756,756,756,756,756,756,756,756,756,756,756,756,756,756,756,756,756,756,756,756,756,756,756,756,756,756,756,756,756,756,756,756,756,756,756,756,756,756,756,756,756,756,756,756,756,756,756,756,756,756,756,756,756,756,756,756,756,756,756,756,756,756,756,756,756,756,756,756,756,756,756,756,756,756,756,756,756,756,756,756,756,756,756,756,756,756,756,756,756,756,756,756,756,756,756,756,756,756,756,756,756,756,756,756,756,756,756,756,756,756,756,756,756,756,756,756,756,756,756,756,756,756,756,756,756,756,756,756,756,756,756,756,756,756,756,756,756,756,756,756,756,756,756,756,756,756,756,756,756,756,756,756,756,756,756,756,756,756,756,756,756,756,756,756,756,756,756,756,756,756,756,756,756,756,756,756,756,756,756,756,756,756,756,756,756,756,756,756,756,756,756,756,756,756,756,756,756,756,756,756,756,756,756,756,756,756,756,756,756,756,756,756,756,756,756,756,756,756,756,756,756,756,756,756,756,756,756,756,756,756,756,756,756,756,756,756,756,756,756,756,756,756,756,756,756,756,756,756,756,756,756,756,756,756,756,756,756,756,756,756,756,756,756,756,756,756,756,756,756,756,756,756,756,756,756,756,756,756,756,756,756,756,756,756,756,756,756,756,756,756,756,756,756,756,756,756,756,756,756,756,756,756,756,756,756,756,756,756,756,756,756,756,756,756,756,756,756,756,756,756,756,756,756,756,756,756,756,756,756,756,756,756,756,756,756,756,756,756,756,756,756,756,756,756,756,756,756,756,756,756,756,756,756,756,756,756,756,756,756,756,756,756,756,756,756,756,756,756,756,756,756,756,756,756,756,756,756,756,756,756,756,756,756,756,756,756,756,756,756,756,756,756,756,756,756,756,756,756,756,756,756,756,756,756,756,756,756,756,756,756,756,756,756,756,756,756,756,756,756,756,756,756,756,756,756,756,756,756,756,756,756,756,756,756,756,756,756,756,756,756,756,756,756,756,756,756,756,756,756,756,756,756,756,756,756,756,756,756,756,756,756,756,756,756,756,756,756,756,756,756,756,756,756,756,756,756,756,756,756,756,756,756,756,756,756,756,756,756,756,756,756,756,756,756,756,756,756,756,756,756,756,756,756,756,756,756,756,756,756,756,756,756,756,756,756,756,756,756,756,756,756,756,756,756,756,756,756,756,756,756,756,756,756,756,756,756,756,756,756,756,756,756,756,756,756,756,756,756,756,756,756,756,756,756,756,756,756,756,756,756,756,756,756,756,756,756,756,756,756,756,756,756,756,756,756,756,756,756,756,756,756,756,756,756,756,756,756,756,756,756,756,756,756,756,756,756,756,756,756,756,756,756,756,756,756,756,756,756,756,756,756,756,756,756,756,756,756,756,756,756,756,756,756,756,756,756,756,756,756,756,756,756,756,756,756,756,756,756,756,756,756,756,756,756,756,756,756,756,756,756,756,756,756,756,756,756,756,756,756,756,756,756,756,756,756,756,756,756,756,756,756,756,756,756,756,756,756,756,756,756,756,756,756,756,756,756,756,756,756,756,756,756,756,756,756,756,756,756,756,756,756,756,756,756,756,756,756,756,756,756,756,756,756,756,756,756,756,756,756,756,756,756,756,756,756,756,756,756,756,756,756,756,756,756,756,756,756,756,756,756,756,756,756,756,756,756,756,756,756,756,756,756,756,756,756,756,756,756,756,756,756,756,756,756,756,756,756,756,756,756,756,756,756,756,756,756,756,756,756,756,756,756,756,756,756,756,756,756,756,756,756,756,756,756,756,756,756,756,756,756,756,756,756,756,756,756,756,756,756,756,756,756,756,756,756,756,756,756,756,756,756,756,756,756,756,756,756,756,756,756,756,756,756,756,756,756,756,756,756,756,756,756,756,756,756,756,756,756,756,756,756,780,905,1015,1087,1087,1087,1086,1086,1080,1074,1070,1069,1068,1068,1066,1064,1059,1048,1003,993,986,985,984,997,1005,1015,1020,1011,993,992,992,992,992,992,992,992,989,972,924,903,855,794,768,704,673,646,627,610,579,572,563,552,544,526,522,520,518,515,500,493,488,484,483,483,481,478,476],"ymouse":[637,637,637,637,637,637,637,637,637,637,637,637,637,637,637,637,637,637,637,637,637,637,637,637,637,637,637,637,637,637,637,637,637,637,637,637,637,637,637,637,637,637,637,637,637,637,637,637,637,637,637,637,637,637,637,637,637,637,637,637,637,637,637,637,637,637,637,637,637,637,637,637,637,637,637,637,637,637,637,637,637,637,637,637,637,637,637,637,637,637,637,637,637,637,637,637,637,637,637,637,637,637,637,637,637,637,637,637,637,637,637,637,637,637,637,637,637,637,637,637,637,637,637,637,637,637,637,637,637,637,637,637,637,637,637,637,637,637,637,637,637,637,637,637,637,637,637,637,637,637,637,637,637,637,637,637,637,637,637,637,637,637,637,637,637,637,637,637,637,637,637,637,637,637,637,637,637,637,637,637,637,637,637,637,637,637,637,637,637,637,637,637,637,637,637,637,637,637,637,637,637,637,637,637,637,637,637,637,637,637,637,637,637,637,637,637,637,637,637,637,637,637,637,637,637,637,637,637,637,637,637,637,637,637,637,637,637,637,637,637,637,637,637,637,637,637,637,637,637,637,637,637,637,637,637,637,637,637,637,637,637,637,637,637,637,637,637,637,637,637,637,637,637,637,637,637,637,637,637,637,637,637,637,637,637,637,637,637,637,637,637,637,637,637,637,637,637,637,637,637,637,637,637,637,637,637,637,637,637,637,637,637,637,637,637,637,637,637,637,637,637,637,637,637,637,637,637,637,637,637,637,637,637,637,637,637,637,637,637,637,637,637,637,637,637,637,637,637,637,637,637,637,637,637,637,637,637,637,637,637,637,637,637,637,637,637,637,637,637,637,637,637,637,637,637,637,637,637,637,637,637,637,637,637,637,637,637,637,637,637,637,637,637,637,637,637,637,637,637,637,637,637,637,637,637,637,637,637,637,637,637,637,637,637,637,637,637,637,637,637,637,637,637,637,637,637,637,637,637,637,637,637,637,637,637,637,637,637,637,637,637,637,637,637,637,637,637,637,637,637,637,637,637,637,637,637,637,637,637,637,637,637,637,637,637,637,637,637,637,637,637,637,637,637,637,637,637,637,637,637,637,637,637,637,637,637,637,637,637,637,637,637,637,637,637,637,637,637,637,637,637,637,637,637,637,637,637,637,637,637,637,637,637,637,637,637,637,637,637,637,637,637,637,637,637,637,637,637,637,637,637,637,637,637,637,637,637,637,637,637,637,637,637,637,637,637,637,637,637,637,637,637,637,637,637,637,637,637,637,637,637,637,637,637,637,637,637,637,637,637,637,637,637,637,637,637,637,637,637,637,637,637,637,637,637,637,637,637,637,637,637,637,637,637,637,637,637,637,637,637,637,637,637,637,637,637,637,637,637,637,637,637,637,637,637,637,637,637,637,637,637,637,637,637,637,637,637,637,637,637,637,637,637,637,637,637,637,637,637,637,637,637,637,637,637,637,637,637,637,637,637,637,637,637,637,637,637,637,637,637,637,637,637,637,637,637,637,637,637,637,637,637,637,637,637,637,637,637,637,637,637,637,637,637,637,637,637,637,637,637,637,637,637,637,637,637,637,637,637,637,637,637,637,637,637,637,637,637,637,637,637,637,637,637,637,637,637,637,637,637,637,637,637,637,637,637,637,637,637,637,637,637,637,637,637,637,637,637,637,637,637,637,637,637,637,637,637,637,637,637,637,637,637,637,637,637,637,637,637,637,637,637,637,637,637,637,637,637,637,637,637,637,637,637,637,637,637,637,637,637,637,637,637,637,637,637,637,637,637,637,637,637,637,637,637,637,637,637,637,637,637,637,637,637,637,637,637,637,637,637,637,637,637,637,637,637,637,637,637,637,637,637,637,637,637,637,637,637,637,637,637,637,637,637,637,637,637,637,637,637,637,637,637,637,637,637,637,637,637,637,637,637,637,637,637,637,637,637,637,637,637,637,637,637,637,637,637,637,637,637,637,637,637,637,637,637,637,637,637,637,637,637,637,637,637,637,637,637,637,637,637,637,637,637,637,637,637,637,637,637,637,637,637,637,637,637,637,637,637,637,637,637,637,637,637,637,637,637,637,637,637,637,637,637,637,637,637,637,637,637,637,637,637,637,637,637,637,637,637,637,637,637,637,637,637,637,637,637,637,637,637,637,637,637,637,637,637,637,637,637,637,637,637,640,659,673,685,685,685,685,685,683,682,682,684,684,684,685,685,684,680,662,657,652,650,640,587,552,486,427,372,336,330,330,330,330,330,330,330,332,339,352,353,346,332,317,280,265,249,237,226,203,195,186,179,174,162,158,154,148,144,131,123,116,111,108,106,102,100,97],"timestamp_mouse":[8,40,44,64,85,104,123,144,164,183,203,223,244,263,284,303,323,343,363,384,403,423,443,463,483,503,523,543,563,583,603,623,643,664,685,703,724,744,764,784,803,823,844,863,883,904,923,944,964,983,1003,1023,1043,1063,1084,1104,1123,1143,1163,1183,1204,1223,1243,1263,1283,1303,1324,1344,1364,1384,1404,1424,1443,1464,1484,1503,1523,1543,1564,1584,1604,1623,1643,1663,1683,1704,1724,1743,1763,1783,1803,1824,1843,1863,1884,1904,1923,1943,1964,1983,2004,2024,2044,2064,2083,2104,2125,2144,2164,2184,2204,2224,2243,2263,2283,2304,2323,2344,2364,2383,2403,2424,2444,2463,2484,2503,2524,2544,2563,2584,2603,2623,2644,2663,2683,2705,2723,2743,2764,2784,2804,2824,2843,2865,2883,2903,2924,2943,2963,2983,3004,3023,3044,3064,3084,3104,3124,3143,3163,3184,3203,3223,3244,3264,3283,3304,3323,3344,3364,3384,3404,3423,3443,3463,3483,3504,3524,3543,3564,3584,3603,3624,3643,3664,3684,3704,3724,3744,3764,3784,3803,3823,3843,3863,3884,3903,3924,3944,3964,3984,4003,4024,4043,4063,4083,4103,4124,4143,4164,4183,4203,4223,4244,4264,4283,4304,4323,4344,4363,4383,4403,4423,4443,4464,4483,4503,4523,4544,4564,4583,4604,4624,4644,4663,4683,4703,4723,4743,4764,4784,4803,4824,4843,4864,4884,4903,4924,4943,4963,4984,5004,5023,5043,5064,5083,5104,5123,5143,5163,5184,5205,5223,5243,5264,5284,5306,5323,5343,5364,5383,5404,5424,5444,5463,5484,5503,5524,5544,5563,5583,5603,5624,5644,5663,5683,5704,5723,5743,5763,5783,5803,5823,5844,5863,5884,5904,5924,5944,5964,5984,6003,6025,6044,6064,6083,6104,6123,6144,6164,6184,6203,6223,6243,6264,6284,6303,6323,6344,6363,6384,6403,6424,6444,6464,6484,6503,6524,6544,6564,6584,6603,6623,6644,6664,6684,6704,6723,6744,6764,6783,6803,6824,6843,6863,6884,6903,6924,6944,6963,6983,7004,7023,7043,7063,7084,7104,7123,7143,7164,7183,7204,7223,7243,7263,7283,7303,7324,7343,7364,7383,7403,7424,7444,7463,7483,7503,7523,7543,7563,7584,7603,7624,7644,7663,7683,7704,7723,7744,7763,7784,7804,7823,7844,7863,7884,7904,7923,7943,7963,7983,8004,8023,8044,8063,8083,8103,8124,8144,8163,8183,8204,8223,8244,8264,8284,8303,8324,8343,8364,8384,8403,8424,8444,8463,8484,8503,8524,8544,8564,8583,8604,8623,8644,8663,8683,8704,8723,8743,8763,8783,8804,8824,8843,8864,8884,8904,8923,8943,8964,8983,9003,9023,9043,9063,9083,9103,9123,9143,9163,9183,9203,9223,9243,9263,9283,9303,9323,9343,9364,9383,9403,9423,9444,9464,9483,9503,9523,9544,9565,9584,9604,9624,9643,9664,9683,9703,9724,9743,9764,9783,9804,9824,9844,9863,9883,9905,9924,9944,9963,9984,10004,10024,10044,10063,10084,10104,10124,10144,10163,10184,10204,10223,10244,10264,10283,10304,10323,10343,10363,10384,10403,10424,10444,10463,10483,10504,10524,10543,10564,10584,10604,10624,10644,10663,10684,10704,10724,10743,10764,10783,10804,10824,10843,10864,10884,10904,10924,10943,10963,10983,11004,11023,11044,11064,11084,11104,11123,11144,11164,11183,11203,11223,11243,11263,11284,11304,11324,11343,11363,11383,11403,11423,11444,11463,11483,11503,11523,11544,11564,11583,11603,11623,11643,11663,11683,11703,11723,11743,11763,11783,11804,11823,11843,11864,11883,11903,11923,11943,11963,11983,12004,12023,12044,12063,12084,12103,12123,12143,12163,12184,12203,12224,12244,12263,12284,12303,12324,12343,12364,12383,12403,12423,12444,12464,12483,12503,12523,12544,12563,12583,12603,12623,12644,12664,12683,12704,12723,12744,12763,12784,12804,12823,12844,12864,12884,12903,12923,12944,12964,12984,13004,13023,13043,13063,13085,13103,13125,13144,13163,13185,13204,13223,13244,13263,13284,13304,13324,13344,13363,13384,13404,13423,13443,13463,13483,13504,13523,13544,13563,13583,13603,13624,13645,13663,13683,13703,13723,13743,13763,13784,13804,13824,13844,13863,13883,13904,13923,13943,13964,13983,14003,14023,14044,14063,14084,14104,14124,14144,14164,14184,14203,14224,14244,14264,14283,14304,14323,14344,14365,14384,14403,14423,14443,14463,14484,14504,14523,14543,14564,14583,14604,14624,14644,14663,14684,14703,14724,14743,14764,14784,14803,14824,14844,14863,14883,14904,14923,14944,14963,14983,15003,15023,15045,15063,15084,15103,15123,15144,15164,15184,15203,15223,15244,15263,15283,15303,15325,15344,15363,15384,15403,15424,15444,15463,15484,15503,15524,15544,15563,15583,15603,15624,15644,15663,15684,15703,15723,15743,15764,15783,15804,15824,15844,15865,15883,15903,15924,15943,15963,15984,16004,16025,16044,16064,16083,16105,16124,16144,16164,16183,16204,16225,16244,16263,16283,16303,16324,16343,16363,16384,16404,16423,16444,16464,16484,16503,16524,16544,16564,16584,16604,16624,16644,16663,16684,16705,16723,16743,16763,16784,16804,16825,16844,16864,16884,16903,16923,16943,16964,16984,17003,17023,17044,17063,17084,17105,17123,17144,17163,17183,17203,17225,17244,17264,17283,17304,17325,17344,17363,17384,17403,17424,17444,17464,17484,17504,17523,17543,17564,17584,17604,17623,17645,17663,17684,17704,17725,17743,17764,17784,17804,17824,17843,17864,17884,17903,17924,17944,17964,17984,18003,18023,18045,18064,18084,18104,18124,18144,18164,18183,18204,18224,18243,18264,18283,18303,18323,18345,18363,18383,18405,18423,18443,18463,18483,18503,18524,18545,18563,18583,18603,18624,18644,18664,18683,18704,18724,18743,18765,18784,18804,18824,18844,18864,18883,18903,18923,18944,18963,18984,19004,19023,19043,19063,19083,19103,19123,19143,19165,19183,19204,19223,19244,19263,19284,19304,19323,19344,19365,19383,19404,19423,19443,19464,19484,19504,19523,19544,19564,19583,19603,19623,19644,19664,19684,19704,19724,19744,19763,19783,19803,19824,19843,19863,19884,19905,19925,19944,19964,19983,20004,20024,20044,20063,20084,20103,20123,20143,20163,20185,20204,20223,20243,20263,20283,20304,20323,20344,20363,20383,20403,20423,20444,20463,20483,20504,20524,20544,20563,20583],"xSR":741.5,"ySR":573.95,"xT1":424.9,"yT1":0,"xT2":1058.1,"yT2":0,"toosoon":0,"cond_shown":"Incongruent","ratio_trial":300,"L_num":13,"L_den":26,"R_num":12,"R_den":15,"correct_side":2,"subjID":"AngelSantiagoTinjacaCortes35","gender":"0","school":"6","age":"11"},{"start_time":1551899822473,"click_time":1551899823473,"finger_time":1551899823334,"fix_duration":1478.6754089083604,"trial":6,"RT":861,"MT":139,"sideResp":2,"stimulus":[],"xmouse":[822,822,822,822,822,822,822,822,822,822,822,822,822,822,822,822,822,822,822,822,822,822,822,822,822,822,822,822,822,822,822,822,822,822,822,822,822,822,822,822,822,822,822,824,827,832,877,915,973,1022,1075],"ymouse":[603,603,603,603,603,603,603,603,603,603,603,603,603,603,603,603,603,603,603,603,603,603,603,603,603,603,603,603,603,603,603,603,603,603,603,603,603,603,603,603,603,603,589,565,542,513,363,265,171,95,24],"timestamp_mouse":[8,33,42,61,81,100,121,141,160,181,201,220,263,263,280,302,320,340,360,381,401,420,440,460,480,500,521,540,560,581,600,620,641,660,680,701,720,741,760,781,800,820,840,861,881,900,920,941,960,982,1000],"xSR":741.5,"ySR":573.95,"xT1":424.9,"yT1":0,"xT2":1058.1,"yT2":0,"toosoon":0,"cond_shown":"Incongruent","ratio_trial":200,"L_num":6,"L_den":20,"R_num":3,"R_den":6,"correct_side":2,"subjID":"AngelSantiagoTinjacaCortes35","gender":"0","school":"6","age":"11"},{"start_time":1551899825562,"click_time":1551899826894,"finger_time":1551899826734,"fix_duration":906.1687698864163,"trial":7,"RT":1172,"MT":160,"sideResp":2,"stimulus":[],"xmouse":[769,769,769,769,769,769,769,769,769,769,769,769,769,769,769,769,769,769,769,769,769,769,769,769,769,769,769,769,769,769,769,769,769,769,769,769,769,769,769,769,769,769,769,769,769,769,769,769,769,769,769,769,769,769,769,769,770,810,866,914,936,971,985,1000,1021,1044,1111],"ymouse":[591,591,591,591,591,591,591,591,591,591,591,591,591,591,591,591,591,591,591,591,591,591,591,591,591,591,591,591,591,591,591,591,591,591,591,591,591,591,591,591,591,591,591,591,591,591,591,591,591,591,591,591,591,591,591,591,591,577,543,505,479,406,369,310,242,168,46],"timestamp_mouse":[11,34,51,72,91,111,131,151,172,192,211,231,252,271,291,312,332,351,373,391,412,431,451,471,491,511,531,552,572,591,611,632,651,672,691,711,731,751,771,792,811,831,852,871,891,911,932,952,972,991,1011,1032,1051,1071,1092,1111,1131,1151,1172,1192,1211,1231,1251,1272,1291,1311,1332],"xSR":741.5,"ySR":573.95,"xT1":424.9,"yT1":0,"xT2":1058.1,"yT2":0,"toosoon":0,"cond_shown":"Congruent","ratio_trial":100,"L_num":10,"L_den":25,"R_num":3,"R_den":10,"correct_side":1,"subjID":"AngelSantiagoTinjacaCortes35","gender":"0","school":"6","age":"11"},{"start_time":1551899828346,"click_time":1551899829834,"finger_time":1551899829193,"fix_duration":632.5528712909522,"trial":8,"RT":847,"MT":641,"sideResp":1,"stimulus":[],"xmouse":[809,809,809,809,809,809,809,809,809,809,809,809,809,809,809,809,809,809,809,809,809,808,808,807,807,807,807,807,807,807,807,807,807,807,807,807,807,807,807,807,801,789,743,707,667,615,542,385,335,302,287,274,269,271,273,280,288,295,299,308,315,329,352,377,402,413,413,413,413,413,413,413,413,419,439],"ymouse":[638,638,638,638,638,638,638,638,638,638,638,637,637,637,637,637,637,637,637,637,637,637,637,636,636,636,636,636,636,636,636,636,636,636,636,636,636,636,636,636,627,612,530,476,419,333,202,27,0,0,0,0,0,0,0,0,1,1,2,5,9,13,20,27,33,37,37,37,37,37,37,37,37,38,43],"timestamp_mouse":[11,37,48,67,87,108,127,148,167,188,208,228,248,267,287,307,327,347,368,387,407,428,448,469,487,507,527,548,568,587,608,627,649,669,688,708,728,749,768,787,807,829,847,868,887,908,928,948,967,988,1008,1027,1048,1068,1088,1107,1127,1148,1168,1188,1207,1228,1247,1269,1287,1308,1328,1348,1368,1387,1408,1428,1447,1467,1488],"xSR":741.5,"ySR":573.95,"xT1":424.9,"yT1":0,"xT2":1058.1,"yT2":0,"toosoon":0,"cond_shown":"Incongruent","ratio_trial":300,"L_num":1,"L_den":2,"R_num":3,"R_den":15,"correct_side":1,"subjID":"AngelSantiagoTinjacaCortes35","gender":"0","school":"6","age":"11"},{"start_time":1551899830886,"click_time":1551899833054,"finger_time":1551899832873,"fix_duration":250,"trial":9,"RT":1987,"MT":181,"sideResp":1,"stimulus":[],"xmouse":[835,835,835,835,835,835,835,835,835,835,835,835,835,835,835,835,835,835,835,835,835,835,835,835,835,835,835,835,835,835,835,835,835,835,835,835,835,835,835,835,835,835,835,835,835,835,835,835,835,835,835,835,835,835,835,835,835,835,835,835,835,835,835,835,835,835,835,835,835,835,835,835,835,835,835,835,835,835,835,835,835,835,835,835,835,835,835,835,835,835,835,835,835,835,823,795,780,762,747,724,674,657,639,613,599,564,546,525,507],"ymouse":[639,639,639,639,639,639,639,639,639,639,639,639,639,639,639,639,639,639,639,639,639,639,639,639,639,639,639,639,639,639,639,639,639,639,639,639,639,639,639,639,639,639,639,639,639,639,639,639,639,639,639,639,639,639,639,639,639,639,639,639,639,639,639,639,639,639,639,639,639,639,639,639,639,639,639,639,639,639,639,639,639,639,639,639,639,639,639,639,639,639,639,639,639,639,632,616,605,591,579,555,495,463,418,380,336,238,178,109,34],"timestamp_mouse":[8,40,48,68,88,107,128,149,167,188,208,228,248,268,288,308,328,347,367,389,408,429,447,468,488,507,527,548,568,587,607,627,647,667,688,707,727,747,768,787,807,828,847,867,888,909,928,947,967,988,1008,1027,1048,1067,1087,1107,1127,1148,1167,1188,1207,1228,1247,1268,1289,1308,1327,1348,1368,1388,1408,1427,1447,1467,1487,1507,1528,1548,1568,1587,1609,1628,1647,1668,1688,1708,1727,1747,1767,1787,1807,1828,1849,1868,1889,1907,1927,1948,1967,1987,2008,2027,2047,2068,2087,2107,2128,2147,2168],"xSR":741.5,"ySR":573.95,"xT1":424.9,"yT1":0,"xT2":1058.1,"yT2":0,"toosoon":0,"cond_shown":"Incongruent","ratio_trial":200,"L_num":9,"L_den":15,"R_num":8,"R_den":10,"correct_side":2,"subjID":"AngelSantiagoTinjacaCortes35","gender":"0","school":"6","age":"11"},{"start_time":1551899835026,"click_time":1551899836914,"finger_time":1551899835793,"fix_duration":852.4401636387582,"trial":10,"RT":767,"MT":1121,"sideResp":2,"stimulus":[],"xmouse":[808,808,808,808,808,808,808,808,808,808,808,808,808,808,808,808,808,808,808,808,808,808,808,808,808,809,808,806,806,806,806,806,806,806,805,805,816,833,866,881,888,893,896,907,915,923,932,946,976,990,1003,1011,1016,1021,1026,1030,1037,1049,1086,1101,1109,1112,1112,1114,1113,1112,1112,1112,1112,1112,1112,1112,1112,1112,1112,1112,1112,1112,1112,1112,1112,1112,1112,1112,1112,1112,1112,1112,1112,1112,1112,1112,1112,1111,1118],"ymouse":[646,646,646,646,646,646,646,646,646,646,646,646,646,646,646,646,646,646,646,646,646,646,646,646,646,643,639,638,637,637,637,637,637,637,637,634,625,613,574,548,526,507,497,482,477,473,464,453,425,405,387,362,335,297,282,267,249,233,202,185,170,152,145,127,120,118,118,118,118,118,118,118,118,118,118,118,118,118,118,117,117,117,117,117,117,117,117,117,117,117,117,117,117,108,96],"timestamp_mouse":[8,30,47,67,88,107,127,147,167,187,207,227,248,267,288,307,328,348,367,387,407,427,447,468,487,508,527,548,567,587,607,627,647,667,688,707,727,748,767,789,809,827,847,867,889,907,928,949,967,987,1007,1028,1049,1067,1087,1107,1129,1147,1167,1187,1208,1227,1247,1267,1287,1307,1328,1348,1367,1388,1408,1429,1448,1467,1487,1509,1528,1548,1569,1588,1607,1629,1647,1668,1687,1708,1727,1747,1767,1787,1807,1828,1848,1867,1888],"xSR":741.5,"ySR":573.95,"xT1":424.9,"yT1":0,"xT2":1058.1,"yT2":0,"toosoon":0,"cond_shown":"Incongruent","ratio_trial":200,"L_num":4,"L_den":30,"R_num":1,"R_den":3,"correct_side":2,"subjID":"AngelSantiagoTinjacaCortes35","gender":"0","school":"6","age":"11"},{"start_time":1551899838652,"click_time":1551899840054,"finger_time":1551899839514,"fix_duration":615.4918503887367,"trial":11,"RT":862,"MT":540,"sideResp":1,"stimulus":[],"xmouse":[758,758,758,758,758,758,758,758,758,758,758,758,758,758,758,758,758,758,758,758,758,758,758,758,758,758,758,758,758,758,758,758,758,758,758,758,758,758,758,758,758,758,750,746,740,731,722,711,708,702,694,686,677,648,636,627,614,604,599,591,581,571,554,545,537,533,527,515,507,499,491],"ymouse":[603,603,603,603,603,603,603,603,603,603,603,603,603,603,603,603,603,603,603,603,603,603,603,603,603,603,603,603,603,603,603,603,603,603,603,603,603,603,603,603,603,603,575,557,533,502,480,435,412,391,366,343,323,283,273,268,258,249,243,236,228,219,201,195,185,180,166,143,129,113,97],"timestamp_mouse":[8,21,41,61,81,101,121,142,161,183,202,222,241,261,281,301,321,341,361,383,403,421,441,461,481,501,521,541,562,581,601,621,643,661,682,701,722,742,762,783,801,821,841,862,881,901,921,942,962,981,1001,1022,1041,1061,1081,1103,1122,1141,1162,1182,1202,1221,1241,1262,1281,1301,1321,1341,1361,1382,1402],"xSR":741.5,"ySR":573.95,"xT1":424.9,"yT1":0,"xT2":1058.1,"yT2":0,"toosoon":0,"cond_shown":"Incongruent","ratio_trial":300,"L_num":2,"L_den":4,"R_num":6,"R_den":30,"correct_side":1,"subjID":"AngelSantiagoTinjacaCortes35","gender":"0","school":"6","age":"11"},{"start_time":1551899842100,"click_time":1551899844033,"finger_time":1551899843574,"fix_duration":1085.3500226237923,"trial":12,"RT":1474,"MT":459,"sideResp":2,"stimulus":[],"xmouse":[799,799,799,799,799,799,799,799,799,799,799,799,799,799,799,799,799,799,799,799,799,799,799,799,799,799,799,799,799,799,800,801,803,804,804,804,804,804,804,804,804,804,804,804,804,804,804,804,804,804,804,804,804,804,804,804,804,804,804,804,804,804,804,804,804,804,804,804,804,807,812,816,820,827,841,848,858,865,869,887,901,913,929,944,962,982,991,997,1002,1007,1011,1019,1027,1035,1043,1062,1071],"ymouse":[599,599,599,599,598,598,598,598,598,598,598,598,598,598,598,598,598,598,598,598,598,598,598,598,598,598,598,598,598,598,599,600,600,601,601,601,601,601,601,601,601,601,601,601,601,601,601,601,601,601,601,601,601,601,601,601,601,601,601,601,601,601,601,601,601,601,601,601,601,601,596,590,580,571,540,524,508,496,482,455,427,400,375,347,309,268,251,238,229,216,206,192,179,167,152,113,95],"timestamp_mouse":[18,39,54,74,94,114,133,153,173,193,214,233,253,273,293,314,334,353,374,393,414,434,453,474,494,513,533,554,574,594,615,633,655,674,694,713,733,755,773,793,813,833,854,873,894,913,935,954,974,993,1013,1034,1053,1074,1093,1114,1135,1153,1173,1193,1214,1234,1254,1273,1294,1313,1334,1353,1373,1393,1414,1433,1453,1474,1493,1513,1533,1553,1573,1593,1614,1634,1654,1674,1693,1713,1733,1753,1773,1793,1813,1833,1854,1873,1893,1915,1933],"xSR":741.5,"ySR":573.95,"xT1":424.9,"yT1":0,"xT2":1058.1,"yT2":0,"toosoon":0,"cond_shown":"Incongruent","ratio_trial":100,"L_num":9,"L_den":18,"R_num":6,"R_den":10,"correct_side":2,"subjID":"AngelSantiagoTinjacaCortes35","gender":"0","school":"6","age":"11"},{"start_time":1551899846215,"click_time":1551899847993,"finger_time":1551899847293,"fix_duration":1119.2086519641334,"trial":13,"RT":1078,"MT":700,"sideResp":2,"stimulus":[],"xmouse":[758,758,758,758,758,758,758,758,758,758,758,758,758,758,758,758,758,758,758,758,758,758,758,758,758,758,758,758,758,758,758,758,758,758,758,758,758,758,758,758,758,758,758,758,758,758,758,758,758,763,764,778,794,851,858,870,890,898,909,911,911,912,913,920,926,939,949,964,1018,1043,1063,1085,1103,1127,1143,1143,1143,1143,1143,1143,1143,1143,1143,1143,1143,1143,1143,1143,1140],"ymouse":[646,646,646,646,646,646,646,646,646,646,646,646,646,646,646,646,646,646,646,646,646,646,646,646,646,646,646,646,646,646,646,646,646,646,646,646,646,646,646,646,646,646,646,646,646,646,646,646,646,640,638,627,609,542,531,515,486,471,452,449,448,445,444,433,420,387,353,303,157,73,0,0,0,0,0,0,0,0,0,0,0,0,0,0,0,0,0,0,5],"timestamp_mouse":[18,39,58,79,99,119,139,159,179,198,219,238,259,278,299,318,339,359,378,399,419,438,459,478,498,518,538,558,579,598,618,639,660,678,698,719,739,759,778,798,819,838,860,879,899,919,939,959,979,998,1018,1040,1059,1078,1098,1118,1138,1158,1178,1198,1218,1239,1258,1278,1298,1318,1339,1358,1379,1398,1418,1438,1459,1478,1498,1518,1539,1559,1579,1599,1619,1639,1659,1679,1699,1719,1738,1759,1778],"xSR":741.5,"ySR":573.95,"xT1":424.9,"yT1":0,"xT2":1058.1,"yT2":0,"toosoon":0,"cond_shown":"Congruent","ratio_trial":200,"L_num":8,"L_den":15,"R_num":3,"R_den":9,"correct_side":1,"subjID":"AngelSantiagoTinjacaCortes35","gender":"0","school":"6","age":"11"},{"start_time":1551899849272,"click_time":1551899850374,"finger_time":1551899849993,"fix_duration":378.3835666250242,"trial":14,"RT":721,"MT":381,"sideResp":1,"stimulus":[],"xmouse":[806,806,806,806,805,805,805,805,805,805,805,805,805,805,805,805,805,805,805,805,805,805,805,805,805,805,805,805,805,805,805,805,805,805,801,796,713,644,606,574,558,552,552,548,545,543,540,540,541,541,541,540,533,529,526,523],"ymouse":[631,631,631,631,631,631,631,631,631,631,631,631,631,631,631,631,631,631,631,631,631,631,631,631,631,631,631,631,631,631,631,631,631,631,628,614,543,493,458,412,354,265,232,203,179,163,134,127,120,110,98,75,58,48,39,35],"timestamp_mouse":[11,33,41,62,81,101,121,142,161,181,202,222,241,261,282,301,322,342,361,382,401,421,442,463,482,502,522,542,562,581,601,621,641,661,681,703,721,741,761,781,801,821,843,861,881,903,921,941,961,981,1002,1021,1041,1061,1081,1101],"xSR":741.5,"ySR":573.95,"xT1":424.9,"yT1":0,"xT2":1058.1,"yT2":0,"toosoon":0,"cond_shown":"Incongruent","ratio_trial":300,"L_num":1,"L_den":2,"R_num":3,"R_den":15,"correct_side":1,"subjID":"AngelSantiagoTinjacaCortes35","gender":"0","school":"6","age":"11"},{"start_time":1551899853065,"click_time":1551899854714,"finger_time":1551899854455,"fix_duration":250,"trial":15,"RT":1390,"MT":259,"sideResp":2,"stimulus":[],"xmouse":[780,780,780,780,780,780,780,780,780,780,780,780,780,780,780,780,780,780,780,780,780,780,780,780,780,780,780,780,780,780,780,780,780,780,780,780,780,780,780,780,780,780,780,780,780,780,780,780,780,780,780,780,780,780,780,780,780,780,780,780,780,780,780,780,780,780,780,788,838,883,935,1019,1038,1058,1077,1088,1104,1113,1121,1134,1141,1140,1136],"ymouse":[655,655,655,655,655,655,655,655,655,655,655,655,655,655,655,655,655,655,655,655,655,655,655,655,655,655,655,655,655,655,655,655,655,655,655,655,655,655,655,655,655,655,655,655,655,655,655,655,655,655,655,655,655,655,655,655,655,655,655,655,655,655,655,655,655,655,654,646,617,592,559,492,469,443,421,397,342,310,279,235,193,133,98],"timestamp_mouse":[8,39,49,68,89,110,129,149,170,188,208,229,248,268,289,308,329,348,369,388,408,428,448,468,489,509,529,548,568,588,609,629,649,669,688,709,728,749,768,788,808,828,848,868,889,909,928,948,968,988,1010,1028,1048,1069,1089,1110,1128,1149,1168,1189,1209,1229,1248,1268,1289,1308,1329,1348,1369,1390,1409,1428,1448,1468,1488,1510,1529,1548,1568,1588,1608,1628,1649],"xSR":741.5,"ySR":573.95,"xT1":424.9,"yT1":0,"xT2":1058.1,"yT2":0,"toosoon":0,"cond_shown":"Congruent","ratio_trial":100,"L_num":11,"L_den":22,"R_num":6,"R_den":15,"correct_side":1,"subjID":"AngelSantiagoTinjacaCortes35","gender":"0","school":"6","age":"11"},{"start_time":1551899857683,"click_time":1551899859294,"finger_time":1551899858913,"fix_duration":1388.2633783884114,"trial":16,"RT":1230,"MT":381,"sideResp":1,"stimulus":[],"xmouse":[804,804,804,804,804,804,804,804,804,804,804,804,804,804,804,804,804,804,804,804,804,804,804,804,804,804,804,804,804,804,804,804,804,804,804,804,804,804,804,804,804,804,804,804,804,804,804,804,804,804,804,804,804,804,804,804,804,804,804,802,792,713,675,643,626,597,585,571,557,545,527,527,527,527,527,526,522,514,505,501,501],"ymouse":[618,618,618,618,618,618,618,618,618,618,618,618,618,618,618,618,618,618,618,618,618,618,618,618,618,618,618,618,618,618,618,618,618,618,618,618,618,618,618,618,618,618,618,618,618,618,618,618,618,618,618,618,618,618,618,618,618,618,617,614,599,526,489,445,407,339,316,292,273,261,251,251,251,251,251,246,224,204,170,144,59],"timestamp_mouse":[11,40,51,70,91,111,130,151,170,190,210,231,250,270,291,312,332,350,370,391,411,431,450,470,490,511,531,550,571,591,611,630,650,670,690,710,730,751,770,791,811,830,850,870,890,910,931,951,970,990,1010,1030,1050,1071,1090,1110,1131,1151,1171,1191,1210,1230,1251,1270,1290,1310,1330,1352,1372,1390,1410,1430,1450,1472,1490,1510,1530,1550,1570,1591,1611],"xSR":741.5,"ySR":573.95,"xT1":424.9,"yT1":0,"xT2":1058.1,"yT2":0,"toosoon":0,"cond_shown":"Incongruent","ratio_trial":300,"L_num":13,"L_den":26,"R_num":12,"R_den":15,"correct_side":2,"subjID":"AngelSantiagoTinjacaCortes35","gender":"0","school":"6","age":"11"},{"start_time":1551899861408,"click_time":1551899862793,"finger_time":1551899862373,"fix_duration":1193.8938001359222,"trial":17,"RT":965,"MT":420,"sideResp":1,"stimulus":[],"xmouse":[787,787,787,787,787,787,787,787,787,787,787,787,787,787,787,787,787,787,787,787,787,787,787,787,787,787,787,787,787,787,787,787,787,787,787,787,787,787,787,787,787,787,787,787,787,787,779,765,729,644,619,611,608,602,599,589,588,587,586,585,582,579,574,569,562,538,526,515,493,449],"ymouse":[635,635,635,635,635,635,635,635,635,635,635,635,635,635,635,635,635,635,635,635,635,635,635,635,635,635,635,635,635,635,635,635,635,635,635,635,635,635,635,635,635,635,635,635,635,635,626,610,571,465,422,385,335,278,250,219,216,215,212,205,189,181,171,163,156,144,139,132,122,97],"timestamp_mouse":[9,35,45,66,85,105,126,145,167,186,205,226,246,266,286,307,326,345,366,386,406,425,445,466,485,505,525,545,566,585,606,626,646,665,686,706,725,745,766,785,805,826,846,867,885,906,926,946,965,985,1005,1025,1045,1065,1085,1106,1125,1146,1167,1185,1207,1225,1245,1265,1285,1305,1325,1346,1365,1385],"xSR":741.5,"ySR":573.95,"xT1":424.9,"yT1":0,"xT2":1058.1,"yT2":0,"toosoon":0,"cond_shown":"Incongruent","ratio_trial":200,"L_num":1,"L_den":2,"R_num":3,"R_den":10,"correct_side":1,"subjID":"AngelSantiagoTinjacaCortes35","gender":"0","school":"6","age":"11"},{"start_time":1551899863856,"click_time":1551899865454,"finger_time":1551899865173,"fix_duration":339.15372854403216,"trial":18,"RT":1317,"MT":281,"sideResp":1,"stimulus":[],"xmouse":[782,782,782,782,782,782,782,782,782,782,782,782,782,782,782,782,782,782,782,782,782,782,782,782,782,782,782,782,782,782,782,782,782,782,782,782,782,782,782,782,782,782,782,782,782,782,782,782,782,782,782,782,782,782,782,782,782,782,782,782,782,782,782,766,754,733,616,562,524,491,476,462,461,459,459,459,462,467,479,492],"ymouse":[615,615,615,615,615,615,615,615,615,615,615,615,615,615,615,615,615,615,615,615,615,615,615,615,615,615,615,615,615,615,615,615,615,615,615,615,615,615,615,615,615,615,615,615,615,615,615,615,615,615,615,615,615,615,615,615,615,615,615,615,615,615,615,595,582,561,469,424,383,347,325,289,279,272,262,250,212,180,126,94],"timestamp_mouse":[23,37,57,77,97,117,137,158,178,197,217,238,257,277,297,317,338,357,378,398,417,437,457,477,497,518,537,558,577,598,618,637,657,677,698,717,739,759,777,797,817,837,858,878,898,917,937,957,979,998,1017,1038,1057,1077,1097,1117,1138,1157,1177,1197,1217,1239,1258,1278,1299,1317,1337,1357,1377,1397,1417,1438,1458,1477,1498,1518,1537,1557,1577,1598],"xSR":741.5,"ySR":573.95,"xT1":424.9,"yT1":0,"xT2":1058.1,"yT2":0,"toosoon":0,"cond_shown":"Incongruent","ratio_trial":100,"L_num":6,"L_den":10,"R_num":13,"R_den":26,"correct_side":1,"subjID":"AngelSantiagoTinjacaCortes35","gender":"0","school":"6","age":"11"},{"start_time":1551899869811,"click_time":1551899871755,"finger_time":1551899870993,"fix_duration":1154.8610110788495,"trial":19,"RT":1182,"MT":762,"sideResp":2,"stimulus":[],"xmouse":[813,813,813,813,813,813,813,813,813,813,813,813,813,813,813,813,813,813,813,813,813,813,813,813,813,813,813,813,813,813,813,813,813,813,813,813,813,813,813,813,813,813,813,813,813,813,813,813,813,813,813,813,813,813,813,813,813,816,823,849,858,869,887,909,960,1011,1050,1088,1124,1163,1177,1191,1203,1207,1208,1208,1208,1208,1208,1208,1208,1208,1208,1204,1188,1183,1177,1174,1172,1170,1169,1169,1169,1169,1169,1167,1159,1142],"ymouse":[635,635,635,635,635,635,635,635,635,635,635,635,635,635,635,635,635,635,635,635,635,635,635,635,635,635,635,635,635,635,635,635,635,635,635,635,635,635,635,635,635,635,635,635,635,635,635,635,635,635,635,635,635,635,635,628,618,605,583,465,395,316,233,157,36,0,0,0,0,0,0,0,0,0,0,0,0,0,0,0,0,0,0,6,34,44,55,62,69,78,80,80,80,80,80,81,80,74],"timestamp_mouse":[9,35,44,63,83,102,122,143,163,182,202,223,244,263,283,302,323,342,363,382,403,423,442,462,482,503,523,542,562,584,603,622,642,662,683,702,723,743,763,782,803,822,842,863,882,902,922,942,962,983,1002,1022,1042,1062,1082,1103,1122,1143,1162,1182,1203,1222,1242,1262,1282,1303,1323,1342,1363,1382,1402,1423,1443,1463,1482,1502,1522,1542,1562,1582,1603,1622,1642,1663,1682,1703,1722,1743,1762,1782,1802,1824,1843,1862,1883,1902,1923,1944],"xSR":741.5,"ySR":573.95,"xT1":424.9,"yT1":0,"xT2":1058.1,"yT2":0,"toosoon":0,"cond_shown":"Congruent","ratio_trial":300,"L_num":5,"L_den":25,"R_num":7,"R_den":14,"correct_side":2,"subjID":"AngelSantiagoTinjacaCortes35","gender":"0","school":"6","age":"11"},{"start_time":1551899873585,"click_time":1551899875192,"finger_time":1551899874872,"fix_duration":831.4054052993315,"trial":20,"RT":1287,"MT":320,"sideResp":2,"stimulus":[],"xmouse":[811,811,811,811,811,811,811,811,811,811,811,811,811,811,811,811,811,811,811,811,810,810,810,808,808,807,806,805,805,805,805,805,805,805,805,805,805,805,805,805,805,805,805,805,805,805,805,804,803,803,803,803,803,803,803,803,803,803,803,803,803,806,808,817,834,878,896,917,931,941,947,948,949,949,949,949,950,953,963,1002,1112],"ymouse":[604,604,604,604,604,604,604,604,604,604,604,604,604,604,604,604,604,604,604,604,604,604,604,604,604,609,609,611,611,611,611,611,611,611,611,611,611,611,611,611,611,611,611,611,611,611,613,617,619,619,619,619,619,619,619,619,619,619,619,619,619,614,606,585,521,359,279,213,159,119,71,56,47,43,43,43,42,41,41,41,41],"timestamp_mouse":[9,29,48,68,87,108,128,148,167,188,207,228,248,267,288,308,329,347,368,388,408,428,447,469,487,507,528,547,567,588,609,627,649,668,688,709,728,748,767,787,807,827,848,867,887,907,928,948,968,987,1008,1027,1049,1068,1087,1107,1129,1147,1168,1188,1207,1228,1249,1267,1287,1307,1329,1348,1368,1387,1408,1429,1448,1468,1487,1507,1527,1549,1567,1587,1607],"xSR":741.5,"ySR":573.95,"xT1":424.9,"yT1":0,"xT2":1058.1,"yT2":0,"toosoon":0,"cond_shown":"Congruent","ratio_trial":200,"L_num":20,"L_den":25,"R_num":9,"R_den":15,"correct_side":1,"subjID":"AngelSantiagoTinjacaCortes35","gender":"0","school":"6","age":"11"},{"start_time":1551899877547,"click_time":1551899878892,"finger_time":1551899878333,"fix_duration":912.1243045723609,"trial":21,"RT":786,"MT":559,"sideResp":2,"stimulus":[],"xmouse":[809,809,809,809,809,809,809,809,809,809,809,809,809,809,809,809,809,809,809,809,809,809,809,809,809,809,809,809,809,809,809,809,809,809,809,809,810,818,825,842,858,874,909,922,935,959,981,995,996,997,997,997,997,997,997,997,997,997,1005,1021,1033,1047,1059,1064,1068,1077,1080,1089],"ymouse":[591,591,591,591,591,591,591,591,591,591,591,591,591,592,592,593,593,593,593,593,593,593,593,594,594,594,595,596,597,598,598,598,598,598,598,598,598,590,575,551,526,483,381,356,321,277,239,206,201,200,200,200,200,200,200,200,200,200,196,193,192,190,180,174,162,146,135,96],"timestamp_mouse":[9,40,46,66,86,106,126,146,165,186,207,225,246,266,285,305,325,345,365,386,405,427,446,466,486,505,525,545,566,587,606,627,646,666,686,705,726,745,767,786,805,827,846,865,886,905,925,946,965,985,1005,1026,1045,1066,1086,1107,1127,1146,1166,1185,1205,1225,1246,1265,1285,1305,1325,1345],"xSR":741.5,"ySR":573.95,"xT1":424.9,"yT1":0,"xT2":1058.1,"yT2":0,"toosoon":0,"cond_shown":"Congruent","ratio_trial":100,"L_num":11,"L_den":22,"R_num":4,"R_den":10,"correct_side":1,"subjID":"AngelSantiagoTinjacaCortes35","gender":"0","school":"6","age":"11"},{"start_time":1551899881058,"click_time":1551899882073,"finger_time":1551899881752,"fix_duration":1344.7310243348406,"trial":22,"RT":694,"MT":321,"sideResp":2,"stimulus":[],"xmouse":[755,755,755,755,756,757,757,757,757,757,757,757,757,757,757,757,757,761,764,767,769,770,770,770,770,770,770,770,770,773,778,788,799,811,822,830,858,876,892,900,906,912,914,919,925,933,972,998,1027,1058,1081],"ymouse":[605,605,605,605,605,605,605,605,605,605,605,605,605,605,605,605,605,607,608,610,611,611,611,611,611,611,611,611,611,612,612,611,602,586,566,545,496,471,449,439,427,411,404,392,373,352,253,191,129,71,25],"timestamp_mouse":[15,35,55,74,96,114,136,156,175,194,214,234,254,276,295,315,335,355,374,394,416,435,455,475,496,515,534,555,575,594,615,634,656,676,694,714,734,756,775,794,814,834,856,875,895,916,935,955,974,995,1014],"xSR":741.5,"ySR":573.95,"xT1":424.9,"yT1":0,"xT2":1058.1,"yT2":0,"toosoon":0,"cond_shown":"Incongruent","ratio_trial":200,"L_num":7,"L_den":15,"R_num":4,"R_den":6,"correct_side":2,"subjID":"AngelSantiagoTinjacaCortes35","gender":"0","school":"6","age":"11"},{"start_time":1551899884238,"click_time":1551899885434,"finger_time":1551899884992,"fix_duration":1243.2855363130766,"trial":23,"RT":754,"MT":442,"sideResp":1,"stimulus":[],"xmouse":[780,780,780,780,780,780,780,780,780,780,780,780,780,780,780,780,780,780,780,780,780,780,780,780,780,780,780,780,780,780,780,780,780,780,780,780,780,765,755,744,731,707,662,641,623,603,586,558,542,519,499,490,488,485,485,484,484,484,484,482],"ymouse":[601,601,601,601,601,601,601,601,601,601,601,601,601,601,601,601,601,601,601,601,601,601,601,601,601,601,601,601,601,601,601,601,601,601,601,601,598,568,543,517,479,412,297,246,198,153,95,0,0,0,0,0,0,0,0,0,0,0,0,1],"timestamp_mouse":[15,38,54,76,94,114,135,155,174,196,214,235,256,275,294,314,335,354,374,396,415,434,456,475,495,515,534,555,574,595,615,635,655,675,696,715,734,754,776,795,816,835,855,876,894,914,936,955,975,994,1014,1035,1055,1075,1096,1114,1135,1154,1175,1196],"xSR":741.5,"ySR":573.95,"xT1":424.9,"yT1":0,"xT2":1058.1,"yT2":0,"toosoon":0,"cond_shown":"Congruent","ratio_trial":200,"L_num":7,"L_den":15,"R_num":18,"R_den":27,"correct_side":2,"subjID":"AngelSantiagoTinjacaCortes35","gender":"0","school":"6","age":"11"},{"start_time":1551899886425,"click_time":1551899887933,"finger_time":1551899887534,"fix_duration":250,"trial":24,"RT":1109,"MT":399,"sideResp":1,"stimulus":[],"xmouse":[822,822,822,822,822,822,822,822,822,822,822,822,822,822,822,822,822,822,822,822,822,822,822,822,822,822,822,822,822,822,823,823,824,824,824,824,824,824,824,824,824,824,824,824,824,824,824,824,823,809,797,793,791,785,783,779,773,760,721,694,671,655,642,596,575,561,551,546,546,549,549,549,549,539,533,524],"ymouse":[607,607,607,607,607,607,607,607,607,607,607,607,607,607,607,607,607,607,607,607,607,607,607,607,607,607,607,607,607,607,606,605,604,604,604,604,604,604,604,604,604,604,604,604,604,604,604,602,602,602,602,602,601,587,576,557,535,511,445,404,373,349,327,269,239,215,192,175,163,160,157,155,146,121,105,87],"timestamp_mouse":[7,36,48,69,87,108,128,147,168,187,209,228,247,267,287,307,327,347,369,387,408,427,448,469,487,508,528,548,568,588,608,628,648,669,687,707,728,747,768,787,809,829,848,868,888,908,929,947,968,987,1008,1028,1048,1067,1088,1109,1128,1149,1167,1187,1208,1227,1247,1267,1289,1307,1327,1349,1368,1387,1409,1429,1448,1467,1489,1508],"xSR":741.5,"ySR":573.95,"xT1":424.9,"yT1":0,"xT2":1058.1,"yT2":0,"toosoon":0,"cond_shown":"Congruent","ratio_trial":200,"L_num":9,"L_den":30,"R_num":13,"R_den":26,"correct_side":2,"subjID":"AngelSantiagoTinjacaCortes35","gender":"0","school":"6","age":"11"},{"start_time":1551899889515,"click_time":1551899890092,"finger_time":1551899889752,"fix_duration":801.8566271466177,"trial":25,"RT":237,"MT":340,"sideResp":1,"stimulus":[],"xmouse":[786,786,786,786,786,786,786,786,779,765,750,742,738,735,734,733,731,729,727,725,722,716,706,668,637,601,562,530,462],"ymouse":[608,608,608,608,608,608,608,608,606,594,580,565,555,530,522,509,495,484,441,423,404,385,363,301,264,219,171,120,10],"timestamp_mouse":[18,43,58,78,98,117,137,158,178,199,219,237,257,277,299,318,337,357,378,397,417,438,458,477,497,518,537,558,577],"xSR":741.5,"ySR":573.95,"xT1":424.9,"yT1":0,"xT2":1058.1,"yT2":0,"toosoon":0,"cond_shown":"Incongruent","ratio_trial":200,"L_num":7,"L_den":15,"R_num":4,"R_den":6,"correct_side":2,"subjID":"AngelSantiagoTinjacaCortes35","gender":"0","school":"6","age":"11"},{"start_time":1551899893927,"click_time":1551899895413,"finger_time":1551899894593,"fix_duration":1033.7702397545104,"trial":26,"RT":666,"MT":820,"sideResp":2,"stimulus":[],"xmouse":[802,802,802,802,802,802,802,802,802,802,802,802,802,802,802,802,802,802,802,802,802,802,802,802,802,802,802,802,802,802,802,810,822,858,869,880,890,900,936,945,959,970,978,983,985,987,990,993,1006,1014,1021,1029,1034,1048,1058,1067,1081,1100,1117,1157,1171,1185,1187,1191,1191,1191,1191,1191,1191,1191,1189,1183,1177,1164,1157],"ymouse":[667,667,667,667,667,667,667,667,667,667,667,667,667,667,667,667,667,667,667,667,667,667,667,667,667,667,667,667,667,667,667,662,660,647,637,631,619,605,562,547,526,504,486,459,454,449,444,436,412,395,376,357,338,294,271,258,228,175,110,0,0,0,0,0,0,0,0,0,0,0,3,11,18,32,36],"timestamp_mouse":[10,31,46,66,86,105,127,145,166,186,206,225,245,267,285,305,326,346,365,385,407,425,446,467,486,505,525,547,565,587,606,626,647,666,687,705,726,746,766,786,805,826,846,866,887,905,925,946,966,985,1005,1026,1045,1066,1085,1107,1125,1145,1165,1186,1206,1226,1247,1266,1286,1306,1326,1347,1366,1385,1407,1427,1447,1465,1486],"xSR":741.5,"ySR":573.95,"xT1":424.9,"yT1":0,"xT2":1058.1,"yT2":0,"toosoon":0,"cond_shown":"Incongruent","ratio_trial":300,"L_num":4,"L_den":20,"R_num":2,"R_den":4,"correct_side":2,"subjID":"AngelSantiagoTinjacaCortes35","gender":"0","school":"6","age":"11"},{"start_time":1551899898992,"click_time":1551899900954,"finger_time":1551899900372,"fix_duration":678.4117455868304,"trial":27,"RT":1380,"MT":582,"sideResp":2,"stimulus":[],"xmouse":[798,798,798,798,798,798,798,798,798,798,798,798,798,798,798,798,798,798,798,798,798,798,798,798,798,798,798,798,798,798,798,798,798,798,798,798,798,798,798,798,798,798,798,798,798,798,798,798,798,798,798,798,798,798,798,798,798,798,798,798,798,798,798,798,798,798,798,800,832,889,950,964,977,984,990,1005,1011,1016,1018,1019,1020,1020,1020,1020,1021,1014,997,997,1007,1018,1042,1053,1060,1063,1067,1068,1069,1078,1099],"ymouse":[612,612,612,612,612,612,612,612,612,612,612,612,612,612,612,612,612,612,612,612,612,612,612,612,612,612,612,612,612,612,612,612,612,612,612,612,612,612,612,612,612,612,612,612,612,612,612,612,612,612,612,612,612,612,612,612,612,612,612,612,612,612,612,612,612,612,612,611,590,567,506,480,454,428,405,359,344,334,329,327,323,316,306,298,274,252,186,141,105,67,12,0,0,0,0,0,0,0,6],"timestamp_mouse":[8,34,41,60,80,101,122,140,160,180,200,220,240,261,281,301,321,341,360,380,401,420,440,460,481,501,521,541,561,580,600,621,641,660,680,701,720,741,760,780,801,821,842,861,880,901,920,942,960,982,1000,1020,1041,1060,1082,1100,1122,1141,1160,1180,1201,1221,1242,1260,1280,1300,1321,1340,1361,1380,1400,1420,1441,1461,1481,1501,1521,1540,1560,1580,1600,1621,1640,1662,1680,1700,1721,1740,1760,1780,1800,1820,1840,1860,1881,1901,1921,1941,1962],"xSR":741.5,"ySR":573.95,"xT1":424.9,"yT1":0,"xT2":1058.1,"yT2":0,"toosoon":0,"cond_shown":"Congruent","ratio_trial":100,"L_num":11,"L_den":22,"R_num":6,"R_den":15,"correct_side":1,"subjID":"AngelSantiagoTinjacaCortes35","gender":"0","school":"6","age":"11"},{"start_time":1551899903761,"click_time":1551899905653,"finger_time":1551899905332,"fix_duration":267.4321943430137,"trial":28,"RT":1571,"MT":321,"sideResp":1,"stimulus":[],"xmouse":[785,785,785,785,785,785,785,785,785,785,785,785,785,785,785,785,785,785,785,785,785,785,785,785,785,785,785,785,785,785,785,785,785,785,785,785,785,785,785,785,785,785,785,785,785,785,785,785,785,785,785,785,785,785,785,785,785,785,785,785,785,785,785,785,785,785,785,785,785,785,785,785,785,784,784,784,781,761,736,717,701,682,678,674,670,664,657,650,642,632,620,583,562,543,522],"ymouse":[613,613,613,613,613,613,613,613,613,613,613,613,613,613,613,613,613,613,613,613,613,613,613,613,613,613,613,613,613,613,613,613,613,613,613,613,613,613,613,613,613,613,613,613,613,613,613,613,613,613,613,613,613,613,613,613,613,613,613,613,613,613,613,613,613,613,613,613,613,613,613,613,613,612,612,612,609,593,575,561,549,522,508,490,472,435,378,334,271,213,160,85,58,38,20],"timestamp_mouse":[19,34,51,71,93,111,133,152,171,192,211,232,253,271,291,312,331,352,373,391,423,432,451,472,491,511,532,551,572,591,611,633,651,672,691,712,732,751,772,793,812,832,851,871,892,912,932,952,971,993,1011,1031,1052,1072,1092,1111,1131,1151,1172,1192,1212,1232,1252,1271,1292,1311,1331,1351,1372,1391,1411,1432,1451,1473,1491,1511,1531,1552,1571,1591,1612,1632,1653,1672,1693,1711,1731,1751,1772,1793,1813,1832,1851,1872,1892],"xSR":741.5,"ySR":573.95,"xT1":424.9,"yT1":0,"xT2":1058.1,"yT2":0,"toosoon":0,"cond_shown":"Incongruent","ratio_trial":200,"L_num":1,"L_den":2,"R_num":3,"R_den":10,"correct_side":1,"subjID":"AngelSantiagoTinjacaCortes35","gender":"0","school":"6","age":"11"},{"start_time":1551899907552,"click_time":1551899908573,"finger_time":1551899908413,"fix_duration":658.5331364501999,"trial":29,"RT":861,"MT":160,"sideResp":2,"stimulus":[],"xmouse":[796,796,796,796,796,796,796,796,796,796,796,796,796,796,796,796,796,796,796,796,796,796,796,796,796,796,796,796,796,796,796,796,796,796,796,796,796,796,800,800,801,803,826,854,906,944,981,1051,1076,1097,1115,1126],"ymouse":[640,640,640,640,640,640,640,640,640,640,640,640,640,640,640,640,640,640,640,640,640,640,640,640,640,640,640,640,640,640,640,640,640,640,640,640,640,638,632,631,630,623,590,557,511,461,402,256,199,155,119,94],"timestamp_mouse":[8,20,40,61,81,100,120,141,161,181,200,220,241,260,280,302,321,342,360,380,402,421,441,460,481,502,520,540,562,580,601,620,640,660,681,700,722,740,761,781,800,820,841,861,880,900,920,940,960,980,1000,1021],"xSR":741.5,"ySR":573.95,"xT1":424.9,"yT1":0,"xT2":1058.1,"yT2":0,"toosoon":0,"cond_shown":"Congruent","ratio_trial":100,"L_num":11,"L_den":22,"R_num":4,"R_den":10,"correct_side":1,"subjID":"AngelSantiagoTinjacaCortes35","gender":"0","school":"6","age":"11"},{"start_time":1551899914361,"click_time":1551899915213,"finger_time":1551899915074,"fix_duration":1447.8361196323083,"trial":30,"RT":713,"MT":139,"sideResp":2,"stimulus":[],"xmouse":[819,819,819,819,819,819,819,819,819,819,819,819,819,819,819,819,819,819,819,819,819,819,819,819,819,819,819,819,819,819,819,819,819,819,825,839,975,1037,1092,1131,1155,1161,1155],"ymouse":[632,632,632,632,632,632,632,632,632,632,632,632,632,632,632,632,632,632,632,632,632,632,632,632,632,632,632,632,632,632,632,632,632,626,604,548,347,279,217,165,123,61,28],"timestamp_mouse":[11,32,53,71,91,111,131,151,172,192,211,233,252,272,292,312,333,351,371,391,412,433,451,471,491,511,531,553,572,592,612,632,651,671,691,713,732,752,771,791,811,831,852],"xSR":741.5,"ySR":573.95,"xT1":424.9,"yT1":0,"xT2":1058.1,"yT2":0,"toosoon":0,"cond_shown":"Incongruent","ratio_trial":200,"L_num":11,"L_den":20,"R_num":3,"R_den":4,"correct_side":2,"subjID":"AngelSantiagoTinjacaCortes35","gender":"0","school":"6","age":"11"},{"start_time":1551899916525,"click_time":1551899918692,"finger_time":1551899918072,"fix_duration":250,"trial":31,"RT":1547,"MT":620,"sideResp":1,"stimulus":[],"xmouse":[792,792,792,792,792,792,792,792,792,792,792,792,792,792,792,792,792,792,792,792,792,792,792,792,792,792,792,792,792,792,792,792,792,792,792,792,792,792,792,792,792,792,792,792,792,792,792,792,792,792,792,792,792,792,792,792,792,792,792,792,792,792,792,792,792,792,792,792,792,792,792,794,796,804,805,809,816,833,898,926,946,956,961,959,954,954,954,954,942,907,851,775,685,606,516,500,491,482,448,445,445,445,445,445,445,445,445,445,445],"ymouse":[626,626,626,626,626,626,626,626,626,626,626,626,626,626,626,626,626,626,626,626,626,626,626,626,626,626,626,626,626,626,626,626,626,626,626,626,626,626,626,626,626,626,626,626,626,626,626,626,626,626,626,626,626,626,626,626,626,626,626,626,626,626,626,626,626,626,626,626,626,626,626,620,617,600,595,588,575,552,456,406,358,315,279,228,215,215,215,215,226,250,280,321,366,401,402,382,354,323,232,217,212,209,204,186,173,155,134,110,37],"timestamp_mouse":[11,38,47,69,88,108,128,147,168,187,208,227,248,268,288,308,328,348,368,388,408,427,448,468,487,507,527,547,567,588,608,627,648,669,687,708,729,747,767,789,808,828,847,867,888,907,928,947,971,987,1008,1029,1047,1067,1088,1107,1128,1147,1169,1188,1208,1229,1248,1268,1289,1307,1327,1348,1368,1388,1408,1428,1447,1467,1488,1508,1528,1547,1567,1587,1607,1628,1648,1668,1688,1707,1727,1749,1768,1789,1808,1828,1849,1867,1887,1907,1927,1949,1968,1989,2009,2029,2048,2067,2087,2107,2127,2149,2167],"xSR":741.5,"ySR":573.95,"xT1":424.9,"yT1":0,"xT2":1058.1,"yT2":0,"toosoon":0,"cond_shown":"Incongruent","ratio_trial":200,"L_num":7,"L_den":15,"R_num":6,"R_den":9,"correct_side":2,"subjID":"AngelSantiagoTinjacaCortes35","gender":"0","school":"6","age":"11"},{"start_time":1551899921937,"click_time":1551899923652,"finger_time":1551899923513,"fix_duration":882.8643860201335,"trial":32,"RT":1576,"MT":139,"sideResp":1,"stimulus":[],"xmouse":[790,790,790,790,790,790,790,790,790,790,790,790,790,790,790,790,790,790,790,790,790,790,790,790,790,790,790,790,790,790,790,790,790,790,790,790,790,790,790,790,790,790,790,790,791,791,791,791,791,791,791,791,791,791,791,791,791,792,792,792,792,792,792,792,792,792,792,792,792,792,792,792,792,792,792,792,792,792,746,697,635,582,506,479,460,444],"ymouse":[653,653,653,653,653,653,653,653,653,653,653,653,653,653,653,653,653,653,653,653,653,653,653,653,653,653,653,653,653,653,653,653,653,653,653,653,653,653,653,653,653,653,653,653,653,653,653,653,653,653,653,653,653,653,653,653,653,653,653,653,653,653,653,653,653,653,653,653,653,653,653,653,653,653,653,653,653,645,569,496,406,318,182,132,108,92],"timestamp_mouse":[16,36,56,75,96,117,136,156,177,195,215,235,255,276,295,317,335,356,376,396,415,435,456,476,495,515,536,555,575,595,616,637,656,676,695,715,735,756,777,795,815,837,855,877,895,917,935,955,977,995,1016,1036,1055,1076,1097,1115,1136,1156,1177,1197,1216,1236,1256,1276,1295,1317,1335,1356,1375,1395,1417,1435,1456,1476,1497,1515,1536,1555,1576,1595,1615,1635,1655,1675,1695,1715],"xSR":741.5,"ySR":573.95,"xT1":424.9,"yT1":0,"xT2":1058.1,"yT2":0,"toosoon":0,"cond_shown":"Incongruent","ratio_trial":300,"L_num":4,"L_den":5,"R_num":6,"R_den":12,"correct_side":1,"subjID":"AngelSantiagoTinjacaCortes35","gender":"0","school":"6","age":"11"},{"start_time":1551899925825,"click_time":1551899927693,"finger_time":1551899926654,"fix_duration":671.3079191929718,"trial":33,"RT":829,"MT":1039,"sideResp":2,"stimulus":[],"xmouse":[815,815,815,815,815,815,815,815,815,815,815,815,815,815,815,815,815,815,815,815,815,815,815,815,815,815,815,815,815,815,815,815,815,815,815,815,815,815,815,814,817,827,850,859,903,920,934,949,975,983,990,999,1005,1007,1007,1009,1010,1011,1012,1013,1013,1014,1015,1025,1030,1038,1045,1052,1056,1057,1057,1057,1057,1057,1057,1057,1057,1057,1057,1057,1057,1057,1057,1057,1057,1057,1057,1057,1057,1057,1057,1057,1057,1073],"ymouse":[601,601,601,601,601,601,601,601,601,601,601,601,601,601,601,601,601,601,601,601,601,601,601,601,601,601,601,601,601,601,601,601,601,601,601,601,601,601,601,590,582,561,529,518,471,451,430,406,360,341,322,304,279,255,250,247,243,241,235,233,230,229,226,203,183,160,134,107,71,63,59,59,59,59,59,59,59,59,59,59,59,59,59,59,59,59,59,59,59,59,59,59,59,62],"timestamp_mouse":[10,35,47,69,88,108,127,148,168,188,207,228,247,267,288,308,329,347,368,389,408,428,448,468,488,509,527,549,567,588,608,628,647,668,687,709,727,749,768,789,808,829,847,867,888,908,927,947,967,987,1008,1027,1048,1067,1088,1108,1128,1149,1167,1187,1207,1228,1247,1267,1289,1307,1328,1347,1367,1387,1407,1427,1449,1467,1488,1508,1528,1547,1567,1588,1608,1629,1647,1668,1688,1709,1728,1748,1767,1788,1808,1827,1848,1868],"xSR":741.5,"ySR":573.95,"xT1":424.9,"yT1":0,"xT2":1058.1,"yT2":0,"toosoon":0,"cond_shown":"Incongruent","ratio_trial":300,"L_num":4,"L_den":20,"R_num":2,"R_den":4,"correct_side":2,"subjID":"AngelSantiagoTinjacaCortes35","gender":"0","school":"6","age":"11"},{"start_time":1551899930987,"click_time":1551899935014,"finger_time":1551899932392,"fix_duration":393.3009181731145,"trial":34,"RT":1405,"MT":2622,"sideResp":1,"stimulus":[],"xmouse":[829,829,829,829,829,829,829,829,829,829,829,829,829,829,829,829,829,829,829,829,829,829,829,829,829,829,829,829,829,829,829,829,829,829,829,829,829,829,829,829,829,829,829,829,829,829,829,829,829,829,829,829,829,829,829,829,829,829,829,829,829,829,829,829,829,829,829,829,829,828,862,882,896,909,919,923,922,915,876,796,655,628,613,610,610,706,947,1087,1209,1293,1329,1329,1318,1252,1150,824,751,737,736,739,1009,1185,1316,1339,1340,1115,918,721,546,438,416,427,533,705,884,1095,1098,1088,994,801,390,311,306,330,419,771,842,848,846,817,686,636,632,637,700,976,1189,1266,1280,1280,1110,948,784,664,611,718,849,974,1054,1075,1067,994,860,687,521,362,362,363,389,447,554,607,662,703,715,713,577,426,342,334,508,751,1068,1412,1412,1412,1412,1529,1369,1148,524,178,0,0,0,0,0,0,0,6,30,73,113,134,147,170,179,187,206,235,378,459],"ymouse":[643,643,643,643,643,643,643,643,643,643,643,643,643,643,643,643,643,643,643,643,643,643,643,643,643,643,643,643,643,643,643,643,643,643,643,643,643,643,643,643,643,643,643,643,643,643,643,643,643,643,643,643,643,643,643,643,643,643,643,643,643,643,643,643,643,643,643,643,643,643,630,615,602,588,573,549,545,541,530,516,497,496,494,492,492,462,434,419,401,390,385,385,385,385,375,349,349,349,349,346,337,335,333,330,330,346,349,349,371,382,382,373,355,340,336,337,338,348,371,386,387,387,385,373,350,334,332,332,332,340,363,368,371,372,371,334,317,309,309,309,332,354,373,375,366,319,292,275,268,267,272,297,324,348,361,386,387,388,389,389,387,384,382,377,377,388,430,449,443,438,394,361,323,287,287,287,287,277,277,274,204,127,33,0,0,0,0,0,0,0,7,23,37,44,49,56,57,57,58,63,69,69],"timestamp_mouse":[14,36,45,67,87,105,126,146,165,186,207,226,247,265,286,305,325,345,365,386,406,425,445,466,486,505,526,546,566,586,605,625,646,665,685,707,725,746,767,787,805,825,846,865,885,905,925,945,966,987,1006,1025,1045,1067,1086,1106,1127,1146,1165,1186,1206,1226,1245,1265,1285,1306,1326,1346,1365,1385,1405,1426,1445,1466,1486,1505,1526,1545,1566,1587,1605,1626,1646,1665,1685,1706,1727,1745,1765,1787,1806,1826,1845,1865,1887,1906,1927,1946,1965,1985,2005,2026,2045,2065,2085,2106,2127,2146,2166,2186,2205,2225,2245,2265,2286,2306,2326,2346,2365,2387,2406,2425,2445,2467,2485,2505,2526,2546,2567,2587,2606,2627,2647,2666,2687,2706,2728,2746,2766,2786,2806,2826,2847,2867,2887,2906,2927,2946,2968,2986,3006,3026,3046,3067,3088,3106,3126,3146,3168,3188,3207,3226,3246,3266,3286,3306,3326,3347,3366,3386,3406,3426,3446,3466,3486,3507,3526,3546,3567,3587,3607,3628,3647,3666,3686,3706,3726,3746,3768,3786,3807,3827,3846,3866,3886,3907,3926,3948,3968,3986,4007,4027],"xSR":741.5,"ySR":573.95,"xT1":424.9,"yT1":0,"xT2":1058.1,"yT2":0,"toosoon":0,"cond_shown":"Incongruent","ratio_trial":100,"L_num":9,"L_den":18,"R_num":6,"R_den":10,"correct_side":2,"subjID":"AngelSantiagoTinjacaCortes35","gender":"0","school":"6","age":"11"},{"start_time":1551899936844,"click_time":1551899938015,"finger_time":1551899937233,"fix_duration":510.56939551631444,"trial":35,"RT":389,"MT":782,"sideResp":1,"stimulus":[],"xmouse":[772,772,772,772,772,772,772,772,772,772,772,772,772,772,772,772,772,772,776,788,813,826,838,839,840,840,840,840,835,824,811,783,764,709,687,666,650,631,628,628,628,627,598,564,522,468,419,364,359,358,356,354,350,350,350,350,362,420,461],"ymouse":[653,653,653,653,653,653,653,653,653,653,653,653,653,653,653,653,653,635,603,549,477,435,392,385,383,383,383,383,385,390,396,411,427,470,491,513,529,546,548,548,548,548,478,412,325,227,119,0,0,0,0,0,0,0,0,1,16,49,69],"timestamp_mouse":[9,33,50,69,90,109,129,150,170,190,209,229,249,269,289,309,329,350,369,389,409,429,450,469,489,509,529,550,569,589,609,629,649,669,690,710,729,750,769,789,809,830,850,869,889,909,929,949,969,991,1010,1029,1049,1069,1089,1109,1129,1149,1171],"xSR":741.5,"ySR":573.95,"xT1":424.9,"yT1":0,"xT2":1058.1,"yT2":0,"toosoon":0,"cond_shown":"Congruent","ratio_trial":300,"L_num":3,"L_den":6,"R_num":2,"R_den":10,"correct_side":1,"subjID":"AngelSantiagoTinjacaCortes35","gender":"0","school":"6","age":"11"},{"start_time":1551899941815,"click_time":1551899943134,"finger_time":1551899942713,"fix_duration":741.3846491870668,"trial":36,"RT":898,"MT":421,"sideResp":1,"stimulus":[],"xmouse":[803,803,803,804,804,804,804,804,804,804,803,803,803,803,803,803,803,803,803,803,803,803,803,803,803,803,803,803,803,803,803,803,803,803,803,803,803,803,803,803,803,799,776,751,702,682,664,649,620,612,603,595,586,566,559,553,552,551,547,544,542,538,532,507,501,498],"ymouse":[603,603,603,604,604,604,604,611,623,626,627,627,627,627,627,627,627,627,627,627,627,627,627,627,627,627,627,627,627,627,627,627,627,627,627,627,627,627,627,627,627,625,610,591,545,523,503,482,440,422,400,377,352,276,247,229,219,209,191,182,174,164,152,114,104,98],"timestamp_mouse":[19,39,60,78,98,118,140,158,178,198,219,238,258,278,298,319,338,358,379,398,419,439,458,478,498,519,539,558,578,598,618,639,659,679,699,719,739,758,778,798,818,840,858,878,898,919,938,958,978,998,1019,1038,1058,1078,1098,1118,1139,1159,1178,1198,1218,1238,1258,1278,1299,1319],"xSR":741.5,"ySR":573.95,"xT1":424.9,"yT1":0,"xT2":1058.1,"yT2":0,"toosoon":0,"cond_shown":"Incongruent","ratio_trial":200,"L_num":7,"L_den":10,"R_num":12,"R_den":24,"correct_side":1,"subjID":"AngelSantiagoTinjacaCortes35","gender":"0","school":"6","age":"11"},{"start_time":1551899944549,"click_time":1551899946275,"finger_time":1551899945933,"fix_duration":753.0492476234773,"trial":37,"RT":1384,"MT":342,"sideResp":1,"stimulus":[],"xmouse":[785,785,785,785,785,785,785,785,785,785,785,785,785,785,785,785,785,785,785,785,785,785,785,785,785,785,785,785,785,785,785,785,785,785,785,785,785,785,785,785,785,785,785,785,785,785,785,785,785,785,785,785,785,785,785,785,785,785,785,785,785,785,785,785,785,785,783,768,760,755,750,746,738,731,707,646,572,507,505,504,503,503,498,491,483,480,479],"ymouse":[631,631,631,631,631,631,631,631,631,631,631,631,631,631,631,631,631,631,631,631,631,631,631,631,631,631,631,631,631,631,631,631,631,631,631,631,631,631,631,631,631,631,631,631,631,631,631,631,631,631,631,631,631,631,631,631,631,631,631,631,631,631,631,631,631,631,625,599,577,557,539,519,488,475,450,411,358,288,275,258,241,224,186,164,139,115,92],"timestamp_mouse":[10,24,44,64,85,106,125,144,164,184,204,225,245,264,284,304,324,345,365,384,405,424,445,464,485,504,526,545,565,584,604,624,645,665,685,704,725,745,764,784,805,824,844,865,884,905,924,945,966,985,1005,1024,1044,1065,1086,1106,1125,1145,1164,1184,1204,1225,1245,1265,1285,1305,1324,1345,1365,1384,1404,1424,1444,1465,1485,1504,1525,1544,1565,1584,1604,1624,1644,1664,1685,1704,1726],"xSR":741.5,"ySR":573.95,"xT1":424.9,"yT1":0,"xT2":1058.1,"yT2":0,"toosoon":0,"cond_shown":"Incongruent","ratio_trial":300,"L_num":4,"L_den":5,"R_num":6,"R_den":12,"correct_side":1,"subjID":"AngelSantiagoTinjacaCortes35","gender":"0","school":"6","age":"11"},{"start_time":1551899947525,"click_time":1551899949433,"finger_time":1551899948934,"fix_duration":250,"trial":38,"RT":1409,"MT":499,"sideResp":1,"stimulus":[],"xmouse":[805,805,805,805,805,805,805,805,805,805,805,805,805,805,805,805,805,805,805,805,805,805,805,805,805,805,805,805,805,805,805,805,805,805,805,805,805,805,805,805,805,805,805,805,805,805,805,805,805,805,805,805,805,805,805,805,805,805,805,805,805,805,805,805,805,805,805,805,805,805,802,791,774,730,698,662,629,602,571,547,545,545,545,545,545,545,545,545,545,545,545,545,545,533,528,523],"ymouse":[596,596,596,596,596,596,596,596,596,596,596,596,596,596,596,596,596,596,596,596,596,596,596,596,596,596,596,596,596,596,596,596,596,596,596,596,596,596,596,596,596,596,596,596,596,596,596,596,596,596,596,596,596,596,596,596,596,596,596,596,596,596,596,596,596,596,596,596,596,593,572,554,526,454,400,344,280,226,163,118,112,112,112,112,112,112,112,112,112,112,112,112,111,103,100,97],"timestamp_mouse":[9,31,49,69,88,110,129,148,168,188,208,228,248,268,288,308,328,348,370,389,410,429,448,468,488,510,528,549,569,589,608,628,650,669,689,708,729,748,768,788,809,828,848,869,888,909,929,948,969,988,1008,1029,1049,1068,1089,1108,1130,1148,1169,1188,1208,1229,1248,1268,1288,1308,1329,1348,1368,1388,1409,1429,1449,1469,1489,1509,1528,1549,1568,1589,1608,1628,1648,1669,1689,1709,1728,1748,1768,1789,1809,1828,1848,1868,1888,1908],"xSR":741.5,"ySR":573.95,"xT1":424.9,"yT1":0,"xT2":1058.1,"yT2":0,"toosoon":0,"cond_shown":"Incongruent","ratio_trial":100,"L_num":9,"L_den":10,"R_num":20,"R_den":25,"correct_side":1,"subjID":"AngelSantiagoTinjacaCortes35","gender":"0","school":"6","age":"11"},{"start_time":1551899951595,"click_time":1551899954254,"finger_time":1551899953873,"fix_duration":1279.1922334978647,"trial":39,"RT":2278,"MT":381,"sideResp":2,"stimulus":[],"xmouse":[763,763,763,763,763,763,763,763,763,763,763,763,763,763,763,763,763,763,763,763,763,763,763,763,763,763,763,763,763,763,763,763,763,763,763,763,763,763,763,763,763,763,763,763,763,763,763,763,763,763,763,763,763,763,763,763,763,763,763,763,763,763,763,763,763,763,763,763,763,763,762,762,762,762,762,762,762,762,762,762,762,762,762,762,762,762,762,762,762,762,762,762,762,762,762,762,762,762,762,762,762,762,762,762,762,762,762,762,762,762,762,764,772,784,802,874,903,928,943,954,961,964,965,967,970,976,982,987,993,1000,1019,1034,1049,1067],"ymouse":[649,649,649,649,649,649,649,649,649,649,649,649,649,649,649,649,649,649,649,649,649,649,649,649,649,649,649,649,649,649,649,649,649,649,649,649,649,649,649,649,649,649,649,649,649,649,649,649,649,649,649,649,649,649,649,649,649,649,649,649,649,649,649,649,649,649,649,649,649,649,649,649,649,649,649,649,649,649,649,649,649,649,649,649,649,649,649,649,649,649,649,649,649,649,649,649,649,649,649,649,649,649,649,649,649,649,649,649,649,649,649,641,623,600,571,471,430,392,363,338,317,293,283,274,265,251,234,217,198,176,127,94,54,9],"timestamp_mouse":[1,36,38,58,80,99,118,139,159,179,199,218,238,259,278,299,319,338,360,378,398,419,439,458,479,498,518,538,558,578,598,620,638,659,678,700,719,738,760,779,798,818,838,858,878,899,918,938,958,978,998,1018,1038,1058,1078,1098,1120,1139,1158,1179,1199,1218,1239,1259,1279,1298,1319,1339,1359,1379,1398,1419,1440,1459,1480,1500,1518,1539,1560,1579,1598,1619,1638,1658,1680,1698,1720,1739,1758,1779,1799,1818,1839,1858,1878,1899,1918,1938,1958,1978,1998,2019,2040,2058,2078,2099,2118,2138,2159,2179,2198,2218,2240,2258,2278,2299,2318,2338,2358,2378,2398,2419,2438,2458,2479,2498,2519,2539,2559,2578,2598,2618,2638,2659],"xSR":741.5,"ySR":573.95,"xT1":424.9,"yT1":0,"xT2":1058.1,"yT2":0,"toosoon":0,"cond_shown":"Congruent","ratio_trial":300,"L_num":20,"L_den":25,"R_num":14,"R_den":28,"correct_side":1,"subjID":"AngelSantiagoTinjacaCortes35","gender":"0","school":"6","age":"11"},{"start_time":1551899955485,"click_time":1551899956393,"finger_time":1551899956193,"fix_duration":250,"trial":40,"RT":708,"MT":200,"sideResp":2,"stimulus":[],"xmouse":[776,776,776,777,777,777,777,777,777,777,777,777,777,777,777,777,777,777,777,777,777,777,777,777,777,777,777,777,777,777,777,777,777,779,790,884,928,963,990,1008,1037,1046,1062,1072,1081,1095],"ymouse":[597,597,597,596,596,596,596,596,596,596,596,596,596,596,596,596,596,596,596,596,596,596,596,596,596,596,596,596,596,596,596,596,596,594,591,542,493,437,387,332,206,176,145,121,100,68],"timestamp_mouse":[13,40,48,69,89,108,128,149,169,188,209,228,249,269,289,308,330,348,368,388,409,428,450,468,490,508,529,549,569,588,609,629,649,670,689,708,728,748,769,789,808,828,848,868,888,908],"xSR":741.5,"ySR":573.95,"xT1":424.9,"yT1":0,"xT2":1058.1,"yT2":0,"toosoon":0,"cond_shown":"Incongruent","ratio_trial":200,"L_num":14,"L_den":30,"R_num":6,"R_den":9,"correct_side":2,"subjID":"AngelSantiagoTinjacaCortes35","gender":"0","school":"6","age":"11"},{"start_time":1551899959279,"click_time":1551899964573,"finger_time":1551899961433,"fix_duration":383.5764854364984,"trial":41,"RT":2154,"MT":3140,"sideResp":1,"stimulus":[],"xmouse":[779,779,779,779,779,779,779,779,779,779,779,779,779,779,779,779,779,779,779,779,779,779,779,779,779,779,779,779,779,779,779,779,779,779,779,779,779,779,779,779,779,779,779,779,779,779,779,779,779,779,779,779,779,779,779,779,779,779,779,779,779,779,779,779,779,779,779,779,779,779,779,779,779,779,779,779,779,779,779,779,779,779,779,779,779,779,779,779,779,779,779,779,779,779,779,779,779,779,779,779,779,779,779,779,779,775,750,710,673,648,598,591,586,582,582,582,582,582,582,582,582,582,582,582,582,582,582,582,582,582,582,582,582,582,582,582,582,582,582,582,582,582,582,582,582,582,582,582,582,582,582,582,582,582,582,582,582,582,582,582,582,582,582,582,582,582,582,582,582,582,582,582,582,581,581,577,574,574,573,573,573,573,573,573,573,573,573,573,574,575,594,614,631,650,671,705,717,733,742,748,752,752,752,752,752,753,753,754,754,754,754,754,754,755,755,735,718,703,692,684,669,659,648,636,621,582,556,522,492,469,386,358,331,314,307,307,307,307,307,311,328,328,328,328,328,328,330,332,337,340,349,352,353,355,356,359,366,374,384,396,449,470,482,487,488],"ymouse":[622,622,622,622,622,622,622,622,622,622,622,622,622,622,622,622,622,622,622,622,622,622,622,622,622,622,622,622,622,622,622,622,622,622,622,622,622,622,622,622,622,622,622,622,622,622,622,622,622,622,622,622,622,622,622,622,622,622,622,622,622,622,622,622,622,622,622,622,622,622,622,622,622,622,622,622,622,622,622,622,622,622,622,622,622,622,622,622,622,622,622,622,622,622,622,622,622,622,622,622,622,622,622,622,622,614,596,572,552,539,521,520,518,517,517,517,517,517,517,517,517,517,517,517,517,517,517,517,517,517,517,517,517,517,517,517,517,517,517,517,517,517,517,517,517,517,517,517,517,517,517,517,517,517,517,517,517,517,517,517,517,517,517,517,517,517,517,517,517,517,517,517,517,519,524,533,535,536,537,537,537,537,537,537,537,537,537,537,540,541,556,567,575,586,596,606,609,616,618,620,622,622,622,622,622,622,622,623,623,623,623,623,623,623,623,612,605,598,593,588,570,554,535,514,484,418,382,335,296,265,183,157,134,121,116,116,116,116,115,115,115,115,115,115,115,115,115,115,115,117,118,120,120,120,121,121,122,123,125,125,125,117