[{"start_time":1551789958207,"click_time":1551789960200,"finger_time":1551789960079,"fix_duration":1064.3746432262326,"trial":0,"RT":1872,"MT":121,"sideResp":1,"stimulus":[],"xmouse":[774,774,774,774,774,774,774,774,774,774,774,774,774,774,775,775,775,775,775,775,775,775,775,775,775,775,775,775,775,775,775,775,775,775,775,775,775,775,775,775,775,775,775,775,775,775,775,775,775,775,775,775,775,775,775,775,775,775,775,775,775,775,775,775,775,775,775,775,775,775,775,775,775,775,775,775,781,786,786,786,786,786,786,786,786,786,786,785,783,767,756,743,729,710,653,600,570,550,517],"ymouse":[509,509,509,509,509,509,509,509,509,509,509,509,509,509,510,510,510,510,510,510,510,510,510,510,510,510,510,510,510,510,510,510,510,510,510,510,510,510,510,510,510,510,510,510,510,510,510,510,510,510,510,510,510,510,510,510,510,510,510,510,510,510,510,510,510,510,510,510,510,510,510,510,510,510,510,509,508,508,508,508,508,508,508,508,508,508,507,507,506,495,484,466,441,395,288,199,149,100,27],"timestamp_mouse":[12,52,72,93,112,131,151,171,193,211,231,251,271,292,313,331,352,373,393,411,431,451,471,492,511,532,551,571,592,611,631,652,672,692,711,731,752,771,792,812,831,851,872,891,911,931,952,971,992,1011,1031,1051,1071,1092,1113,1131,1152,1172,1192,1212,1232,1252,1271,1291,1311,1333,1352,1373,1392,1412,1432,1452,1471,1493,1512,1531,1553,1572,1592,1612,1631,1651,1671,1691,1712,1731,1752,1772,1791,1811,1831,1852,1872,1891,1913,1931,1951,1971,1992],"xSR":741.5,"ySR":449.15000000000003,"xT1":424.9,"yT1":0,"xT2":1058.1,"yT2":0,"toosoon":0,"cond_shown":"Congruent","ratio_trial":300,"L_num":11,"L_den":22,"R_num":1,"R_den":5,"correct_side":1,"subjID":"VioletaPreciadoLozano           nr.28","gender":"1","age":"11","school":"6","test":{"fix_dur":[250,1500],"timestim":1000,"targets_dim":[100,100],"targets_relative_coord":[0.3,0.7],"size_stim":[880,420],"start_dim":[100,100],"size_start":[300,300],"size_fix":60,"samplingrate":20,"img_types":["Congruent","Incongruent"],"ratios":[100,200,300],"rep_conds":19,"nTrials":120,"trials_to_rest":500,"Trials_order":[46,17,74,44,1,81,102,60,12,78,107,38,9,22,97,119,77,96,118,6,111,29,72,20,89,32,7,55,95,5,47,33,37,54,98,31,48,64,85,101,73,88,41,115,36,63,76,65,42,8,25,39,28,71,116,45,104,117,67,59,26,90,113,109,11,23,79,49,105,35,24,94,92,43,91,114,34,15,80,14,112,66,18,40,10,3,61,13,2,57,27,56,58,53,110,50,93,62,84,51,86,70,82,87,99,103,75,69,0,30,106,108,16,52,4,68,21,100,83,19],"cond_shown":["Congruent","Incongruent","Congruent","Congruent","Incongruent","Incongruent","Congruent","Congruent","Congruent","Congruent","Incongruent","Congruent","Incongruent","Congruent","Incongruent","Incongruent","Incongruent","Congruent","Congruent","Congruent","Incongruent","Incongruent","Congruent","Congruent","Incongruent","Congruent","Incongruent","Incongruent","Incongruent","Incongruent","Incongruent","Incongruent","Incongruent","Congruent","Congruent","Incongruent","Congruent","Congruent","Incongruent","Incongruent","Incongruent","Congruent","Incongruent","Incongruent","Congruent","Incongruent","Congruent","Incongruent","Congruent","Congruent","Incongruent","Incongruent","Congruent","Incongruent","Congruent","Incongruent","Congruent","Incongruent","Incongruent","Incongruent","Congruent","Congruent","Incongruent","Incongruent","Incongruent","Incongruent","Incongruent","Incongruent","Incongruent","Incongruent","Congruent","Congruent","Congruent","Incongruent","Incongruent","Congruent","Congruent","Incongruent","Congruent","Congruent","Congruent","Congruent","Congruent","Congruent","Congruent","Incongruent","Incongruent","Incongruent","Congruent","Incongruent","Incongruent","Congruent","Congruent","Incongruent","Congruent","Congruent","Incongruent","Congruent","Congruent","Incongruent","Congruent","Congruent","Congruent","Incongruent","Incongruent","Incongruent","Incongruent","Incongruent","Congruent","Congruent","Congruent","Congruent","Congruent","Congruent","Congruent","Congruent","Incongruent","Congruent","Incongruent","Incongruent"],"ratio_trial":[300,300,200,200,100,200,100,100,100,100,300,200,200,300,100,300,300,100,300,100,200,300,100,200,300,200,100,100,300,300,300,200,100,100,200,100,100,300,100,300,100,300,300,100,100,200,300,300,100,200,100,200,300,300,200,200,200,200,100,300,200,100,300,100,300,300,100,100,200,300,100,300,200,100,100,100,300,200,200,200,300,100,100,300,300,200,100,100,200,200,200,200,300,300,200,200,200,200,100,200,200,300,300,200,200,100,200,200,100,100,300,100,300,300,300,200,200,300,300,100],"left_num":[11,2,12,16,17,7,11,3,4,10,8,15,14,3,2,7,13,1,9,4,1,4,11,12,4,4,10,11,13,7,2,1,11,2,16,8,1,20,3,13,8,4,13,3,11,3,8,4,6,13,13,3,12,3,6,4,12,7,13,13,9,7,4,1,4,3,13,12,14,13,6,9,6,6,17,10,20,4,21,9,11,8,3,18,4,14,6,13,21,4,1,21,4,13,5,11,7,3,3,7,7,11,3,6,4,6,7,4,3,7,11,3,12,18,12,6,1,24,13,9],"right_num":[1,6,6,9,10,4,6,2,15,3,14,4,12,4,6,8,12,18,3,6,2,6,6,6,6,3,9,9,12,8,6,2,9,6,9,6,3,13,7,12,6,13,12,11,6,1,10,2,15,14,12,11,2,4,3,1,6,6,12,12,4,15,2,8,2,4,12,9,6,12,5,3,3,11,10,3,13,6,2,13,1,2,2,9,13,12,11,6,2,1,3,2,13,12,14,3,8,7,4,14,18,4,2,3,6,11,8,6,4,9,2,2,2,9,2,7,2,8,12,20],"left_den":[22,4,20,30,30,15,22,6,10,25,10,25,30,6,4,10,26,2,10,8,3,5,22,20,5,10,25,22,26,10,4,3,22,5,30,16,2,25,9,26,16,20,26,5,22,10,15,20,12,26,26,4,24,6,15,30,15,15,26,26,20,14,20,2,20,6,26,24,30,26,20,10,15,10,30,25,25,5,30,30,22,16,6,20,20,30,10,26,30,30,2,30,20,26,10,22,10,10,20,10,15,22,6,20,5,10,10,5,20,14,22,6,24,20,24,12,3,30,26,10],"right_den":[5,30,15,27,15,6,15,5,30,10,28,10,18,5,15,20,15,30,5,10,15,12,15,15,12,15,18,15,15,20,30,15,15,12,27,10,5,26,30,15,10,26,15,22,15,2,12,4,25,20,20,20,10,20,15,3,10,9,20,15,16,25,4,20,4,20,20,15,9,15,25,5,15,22,15,10,26,10,4,26,5,5,5,15,26,18,22,10,4,3,10,4,26,15,20,10,16,14,16,28,27,20,10,6,10,22,16,10,16,15,10,5,10,15,10,10,15,16,15,25],"correct_side":[1,1,1,1,2,2,1,1,2,1,1,1,2,2,1,1,2,2,1,2,1,1,1,1,1,1,2,2,2,1,1,1,2,2,1,2,2,1,1,2,2,2,2,1,1,2,2,2,2,2,2,1,1,1,1,2,1,2,2,2,1,2,2,1,2,1,2,2,2,2,1,1,1,1,2,1,1,1,1,2,1,1,1,1,2,2,1,2,1,2,1,1,2,2,2,1,1,2,2,1,2,1,1,2,1,1,1,1,2,2,1,1,1,1,1,2,1,1,2,1],"img_shown":["img2/300/Congruent/L/C_Dist_300_LN_11_LD_22_RN_1_RD_5_0.png","img2/300/Incongruent/L/I_Dist_300_LN_2_LD_4_RN_6_RD_30_0.png","img2/200/Congruent/L/C_Dist_200_LN_12_LD_20_RN_6_RD_15_0.png","img2/200/Congruent/L/C_Dist_200_LN_16_LD_30_RN_9_RD_27_0.png","img2/100/Incongruent/R/I_Dist_100_LN_17_LD_30_RN_10_RD_15_1.png","img2/200/Incongruent/R/I_Dist_200_LN_7_LD_15_RN_4_RD_6_1.png","img2/100/Congruent/L/C_Dist_100_LN_11_LD_22_RN_6_RD_15_0.png","img2/100/Congruent/L/C_Dist_100_LN_3_LD_6_RN_2_RD_5_0.png","img2/100/Congruent/R/C_Dist_100_LN_4_LD_10_RN_15_RD_30_1.png","img2/100/Congruent/L/C_Dist_100_LN_10_LD_25_RN_3_RD_10_0.png","img2/300/Incongruent/L/I_Dist_300_LN_8_LD_10_RN_14_RD_28_0.png","img2/200/Congruent/L/C_Dist_200_LN_15_LD_25_RN_4_RD_10_0.png","img2/200/Incongruent/R/I_Dist_200_LN_14_LD_30_RN_12_RD_18_1.png","img2/300/Congruent/R/C_Dist_300_LN_3_LD_6_RN_4_RD_5_1.png","img2/100/Incongruent/L/I_Dist_100_LN_2_LD_4_RN_6_RD_15_0.png","img2/300/Incongruent/L/I_Dist_300_LN_7_LD_10_RN_8_RD_20_0.png","img2/300/Incongruent/R/I_Dist_300_LN_13_LD_26_RN_12_RD_15_1.png","img2/100/Congruent/R/C_Dist_100_LN_1_LD_2_RN_18_RD_30_1.png","img2/300/Congruent/L/C_Dist_300_LN_9_LD_10_RN_3_RD_5_0.png","img2/100/Congruent/R/C_Dist_100_LN_4_LD_8_RN_6_RD_10_1.png","img2/200/Incongruent/L/I_Dist_200_LN_1_LD_3_RN_2_RD_15_0.png","img2/300/Incongruent/L/I_Dist_300_LN_4_LD_5_RN_6_RD_12_0.png","img2/100/Congruent/L/C_Dist_100_LN_11_LD_22_RN_6_RD_15_0.png","img2/200/Congruent/L/C_Dist_200_LN_12_LD_20_RN_6_RD_15_0.png","img2/300/Incongruent/L/I_Dist_300_LN_4_LD_5_RN_6_RD_12_0.png","img2/200/Congruent/L/C_Dist_200_LN_4_LD_10_RN_3_RD_15_0.png","img2/100/Incongruent/R/I_Dist_100_LN_10_LD_25_RN_9_RD_18_1.png","img2/100/Incongruent/R/I_Dist_100_LN_11_LD_22_RN_9_RD_15_1.png","img2/300/Incongruent/R/I_Dist_300_LN_13_LD_26_RN_12_RD_15_1.png","img2/300/Incongruent/L/I_Dist_300_LN_7_LD_10_RN_8_RD_20_0.png","img2/300/Incongruent/L/I_Dist_300_LN_2_LD_4_RN_6_RD_30_0.png","img2/200/Incongruent/L/I_Dist_200_LN_1_LD_3_RN_2_RD_15_0.png","img2/100/Incongruent/R/I_Dist_100_LN_11_LD_22_RN_9_RD_15_1.png","img2/100/Congruent/R/C_Dist_100_LN_2_LD_5_RN_6_RD_12_1.png","img2/200/Congruent/L/C_Dist_200_LN_16_LD_30_RN_9_RD_27_0.png","img2/100/Incongruent/R/I_Dist_100_LN_8_LD_16_RN_6_RD_10_1.png","img2/100/Congruent/R/C_Dist_100_LN_1_LD_2_RN_3_RD_5_1.png","img2/300/Congruent/L/C_Dist_300_LN_20_LD_25_RN_13_RD_26_0.png","img2/100/Incongruent/L/I_Dist_100_LN_3_LD_9_RN_7_RD_30_0.png","img2/300/Incongruent/R/I_Dist_300_LN_13_LD_26_RN_12_RD_15_1.png","img2/100/Incongruent/R/I_Dist_100_LN_8_LD_16_RN_6_RD_10_1.png","img2/300/Congruent/R/C_Dist_300_LN_4_LD_20_RN_13_RD_26_1.png","img2/300/Incongruent/R/I_Dist_300_LN_13_LD_26_RN_12_RD_15_1.png","img2/100/Incongruent/L/I_Dist_100_LN_3_LD_5_RN_11_RD_22_0.png","img2/100/Congruent/L/C_Dist_100_LN_11_LD_22_RN_6_RD_15_0.png","img2/200/Incongruent/R/I_Dist_200_LN_3_LD_10_RN_1_RD_2_1.png","img2/300/Congruent/R/C_Dist_300_LN_8_LD_15_RN_10_RD_12_1.png","img2/300/Incongruent/R/I_Dist_300_LN_4_LD_20_RN_2_RD_4_1.png","img2/100/Congruent/R/C_Dist_100_LN_6_LD_12_RN_15_RD_25_1.png","img2/200/Congruent/R/C_Dist_200_LN_13_LD_26_RN_14_RD_20_1.png","img2/100/Incongruent/R/I_Dist_100_LN_13_LD_26_RN_12_RD_20_1.png","img2/200/Incongruent/L/I_Dist_200_LN_3_LD_4_RN_11_RD_20_0.png","img2/300/Congruent/L/C_Dist_300_LN_12_LD_24_RN_2_RD_10_0.png","img2/300/Incongruent/L/I_Dist_300_LN_3_LD_6_RN_4_RD_20_0.png","img2/200/Congruent/L/C_Dist_200_LN_6_LD_15_RN_3_RD_15_0.png","img2/200/Incongruent/R/I_Dist_200_LN_4_LD_30_RN_1_RD_3_1.png","img2/200/Congruent/L/C_Dist_200_LN_12_LD_15_RN_6_RD_10_0.png","img2/200/Incongruent/R/I_Dist_200_LN_7_LD_15_RN_6_RD_9_1.png","img2/100/Incongruent/R/I_Dist_100_LN_13_LD_26_RN_12_RD_20_1.png","img2/300/Incongruent/R/I_Dist_300_LN_13_LD_26_RN_12_RD_15_1.png","img2/200/Congruent/L/C_Dist_200_LN_9_LD_20_RN_4_RD_16_0.png","img2/100/Congruent/R/C_Dist_100_LN_7_LD_14_RN_15_RD_25_1.png","img2/300/Incongruent/R/I_Dist_300_LN_4_LD_20_RN_2_RD_4_1.png","img2/100/Incongruent/L/I_Dist_100_LN_1_LD_2_RN_8_RD_20_0.png","img2/300/Incongruent/R/I_Dist_300_LN_4_LD_20_RN_2_RD_4_1.png","img2/300/Incongruent/L/I_Dist_300_LN_3_LD_6_RN_4_RD_20_0.png","img2/100/Incongruent/R/I_Dist_100_LN_13_LD_26_RN_12_RD_20_1.png","img2/100/Incongruent/R/I_Dist_100_LN_12_LD_24_RN_9_RD_15_1.png","img2/200/Incongruent/R/I_Dist_200_LN_14_LD_30_RN_6_RD_9_1.png","img2/300/Incongruent/R/I_Dist_300_LN_13_LD_26_RN_12_RD_15_1.png","img2/100/Congruent/L/C_Dist_100_LN_6_LD_20_RN_5_RD_25_0.png","img2/300/Congruent/L/C_Dist_300_LN_9_LD_10_RN_3_RD_5_0.png","img2/200/Congruent/L/C_Dist_200_LN_6_LD_15_RN_3_RD_15_0.png","img2/100/Incongruent/L/I_Dist_100_LN_6_LD_10_RN_11_RD_22_0.png","img2/100/Incongruent/R/I_Dist_100_LN_17_LD_30_RN_10_RD_15_1.png","img2/100/Congruent/L/C_Dist_100_LN_10_LD_25_RN_3_RD_10_0.png","img2/300/Congruent/L/C_Dist_300_LN_20_LD_25_RN_13_RD_26_0.png","img2/200/Incongruent/L/I_Dist_200_LN_4_LD_5_RN_6_RD_10_0.png","img2/200/Congruent/L/C_Dist_200_LN_21_LD_30_RN_2_RD_4_0.png","img2/200/Congruent/R/C_Dist_200_LN_9_LD_30_RN_13_RD_26_1.png","img2/300/Congruent/L/C_Dist_300_LN_11_LD_22_RN_1_RD_5_0.png","img2/100/Congruent/L/C_Dist_100_LN_8_LD_16_RN_2_RD_5_0.png","img2/100/Congruent/L/C_Dist_100_LN_3_LD_6_RN_2_RD_5_0.png","img2/300/Congruent/L/C_Dist_300_LN_18_LD_20_RN_9_RD_15_0.png","img2/300/Congruent/R/C_Dist_300_LN_4_LD_20_RN_13_RD_26_1.png","img2/200/Incongruent/R/I_Dist_200_LN_14_LD_30_RN_12_RD_18_1.png","img2/100/Incongruent/L/I_Dist_100_LN_6_LD_10_RN_11_RD_22_0.png","img2/100/Incongruent/R/I_Dist_100_LN_13_LD_26_RN_6_RD_10_1.png","img2/200/Congruent/L/C_Dist_200_LN_21_LD_30_RN_2_RD_4_0.png","img2/200/Incongruent/R/I_Dist_200_LN_4_LD_30_RN_1_RD_3_1.png","img2/200/Incongruent/L/I_Dist_200_LN_1_LD_2_RN_3_RD_10_0.png","img2/200/Congruent/L/C_Dist_200_LN_21_LD_30_RN_2_RD_4_0.png","img2/300/Congruent/R/C_Dist_300_LN_4_LD_20_RN_13_RD_26_1.png","img2/300/Incongruent/R/I_Dist_300_LN_13_LD_26_RN_12_RD_15_1.png","img2/200/Congruent/R/C_Dist_200_LN_5_LD_10_RN_14_RD_20_1.png","img2/200/Congruent/L/C_Dist_200_LN_11_LD_22_RN_3_RD_10_0.png","img2/200/Incongruent/L/I_Dist_200_LN_7_LD_10_RN_8_RD_16_0.png","img2/200/Congruent/R/C_Dist_200_LN_3_LD_10_RN_7_RD_14_1.png","img2/100/Congruent/R/C_Dist_100_LN_3_LD_20_RN_4_RD_16_1.png","img2/200/Incongruent/L/I_Dist_200_LN_7_LD_10_RN_14_RD_28_0.png","img2/200/Congruent/R/C_Dist_200_LN_7_LD_15_RN_18_RD_27_1.png","img2/300/Congruent/L/C_Dist_300_LN_11_LD_22_RN_4_RD_20_0.png","img2/300/Congruent/L/C_Dist_300_LN_3_LD_6_RN_2_RD_10_0.png","img2/200/Incongruent/R/I_Dist_200_LN_6_LD_20_RN_3_RD_6_1.png","img2/200/Incongruent/L/I_Dist_200_LN_4_LD_5_RN_6_RD_10_0.png","img2/100/Incongruent/L/I_Dist_100_LN_6_LD_10_RN_11_RD_22_0.png","img2/200/Incongruent/L/I_Dist_200_LN_7_LD_10_RN_8_RD_16_0.png","img2/200/Incongruent/L/I_Dist_200_LN_4_LD_5_RN_6_RD_10_0.png","img2/100/Congruent/R/C_Dist_100_LN_3_LD_20_RN_4_RD_16_1.png","img2/100/Congruent/R/C_Dist_100_LN_7_LD_14_RN_9_RD_15_1.png","img2/300/Congruent/L/C_Dist_300_LN_11_LD_22_RN_2_RD_10_0.png","img2/100/Congruent/L/C_Dist_100_LN_3_LD_6_RN_2_RD_5_0.png","img2/300/Congruent/L/C_Dist_300_LN_12_LD_24_RN_2_RD_10_0.png","img2/300/Congruent/L/C_Dist_300_LN_18_LD_20_RN_9_RD_15_0.png","img2/300/Congruent/L/C_Dist_300_LN_12_LD_24_RN_2_RD_10_0.png","img2/200/Congruent/R/C_Dist_200_LN_6_LD_12_RN_7_RD_10_1.png","img2/200/Incongruent/L/I_Dist_200_LN_1_LD_3_RN_2_RD_15_0.png","img2/300/Congruent/L/C_Dist_300_LN_24_LD_30_RN_8_RD_16_0.png","img2/300/Incongruent/R/I_Dist_300_LN_13_LD_26_RN_12_RD_15_1.png","img2/100/Incongruent/L/I_Dist_100_LN_9_LD_10_RN_20_RD_25_0.png"],"dist100_C":[["C_Dist_100_LN_10_LD_25_RN_3_RD_10_0.png","C_Dist_100_LN_11_LD_22_RN_4_RD_10_0.png","C_Dist_100_LN_11_LD_22_RN_6_RD_15_0.png","C_Dist_100_LN_15_LD_25_RN_13_RD_26_0.png","C_Dist_100_LN_3_LD_6_RN_2_RD_5_0.png","C_Dist_100_LN_6_LD_20_RN_5_RD_25_0.png","C_Dist_100_LN_8_LD_16_RN_2_RD_5_0.png","C_Dist_100_LN_9_LD_15_RN_8_RD_16_0.png"],["C_Dist_100_LN_1_LD_2_RN_18_RD_30_1.png","C_Dist_100_LN_1_LD_2_RN_3_RD_5_1.png","C_Dist_100_LN_12_LD_30_RN_13_RD_26_1.png","C_Dist_100_LN_2_LD_5_RN_11_RD_22_1.png","C_Dist_100_LN_2_LD_5_RN_6_RD_12_1.png","C_Dist_100_LN_3_LD_20_RN_4_RD_16_1.png","C_Dist_100_LN_4_LD_10_RN_15_RD_30_1.png","C_Dist_100_LN_4_LD_8_RN_6_RD_10_1.png","C_Dist_100_LN_6_LD_12_RN_15_RD_25_1.png","C_Dist_100_LN_7_LD_14_RN_15_RD_25_1.png","C_Dist_100_LN_7_LD_14_RN_9_RD_15_1.png"]],"dist100_I":[["I_Dist_100_LN_1_LD_2_RN_8_RD_20_0.png","I_Dist_100_LN_2_LD_4_RN_6_RD_15_0.png","I_Dist_100_LN_2_LD_4_RN_8_RD_20_0.png","I_Dist_100_LN_3_LD_5_RN_11_RD_22_0.png","I_Dist_100_LN_3_LD_5_RN_8_RD_16_0.png","I_Dist_100_LN_3_LD_6_RN_4_RD_10_0.png","I_Dist_100_LN_3_LD_9_RN_7_RD_30_0.png","I_Dist_100_LN_4_LD_8_RN_8_RD_20_0.png","I_Dist_100_LN_6_LD_10_RN_11_RD_22_0.png","I_Dist_100_LN_6_LD_10_RN_13_RD_26_0.png","I_Dist_100_LN_6_LD_10_RN_7_RD_14_0.png","I_Dist_100_LN_9_LD_10_RN_20_RD_25_0.png","I_Dist_100_LN_9_LD_15_RN_13_RD_26_0.png","I_Dist_100_LN_9_LD_15_RN_14_RD_28_0.png"],["I_Dist_100_LN_10_LD_25_RN_8_RD_16_1.png","I_Dist_100_LN_10_LD_25_RN_9_RD_18_1.png","I_Dist_100_LN_11_LD_22_RN_9_RD_15_1.png","I_Dist_100_LN_12_LD_24_RN_9_RD_15_1.png","I_Dist_100_LN_12_LD_30_RN_2_RD_4_1.png","I_Dist_100_LN_13_LD_26_RN_12_RD_20_1.png","I_Dist_100_LN_13_LD_26_RN_6_RD_10_1.png","I_Dist_100_LN_17_LD_30_RN_10_RD_15_1.png","I_Dist_100_LN_6_LD_12_RN_3_RD_5_1.png","I_Dist_100_LN_8_LD_16_RN_6_RD_10_1.png","I_Dist_100_LN_8_LD_20_RN_1_RD_2_1.png","I_Dist_100_LN_9_LD_18_RN_6_RD_10_1.png"]],"dist100_S":[["E_Dist_100_LN_2_LD_12_RN_2_RD_30_0.png","E_Dist_100_LN_6_LD_10_RN_6_RD_12_0.png"],["E_Dist_100_LN_6_LD_12_RN_6_RD_10_1.png"]],"dist200_C":[["C_Dist_200_LN_11_LD_22_RN_3_RD_10_0.png","C_Dist_200_LN_12_LD_15_RN_6_RD_10_0.png","C_Dist_200_LN_12_LD_20_RN_6_RD_15_0.png","C_Dist_200_LN_14_LD_28_RN_6_RD_20_0.png","C_Dist_200_LN_15_LD_25_RN_4_RD_10_0.png","C_Dist_200_LN_16_LD_20_RN_12_RD_20_0.png","C_Dist_200_LN_16_LD_30_RN_9_RD_27_0.png","C_Dist_200_LN_20_LD_25_RN_9_RD_15_0.png","C_Dist_200_LN_21_LD_30_RN_2_RD_4_0.png","C_Dist_200_LN_4_LD_10_RN_3_RD_15_0.png","C_Dist_200_LN_4_LD_8_RN_3_RD_10_0.png","C_Dist_200_LN_6_LD_15_RN_3_RD_15_0.png","C_Dist_200_LN_7_LD_21_RN_2_RD_15_0.png","C_Dist_200_LN_8_LD_15_RN_2_RD_6_0.png","C_Dist_200_LN_8_LD_15_RN_3_RD_9_0.png","C_Dist_200_LN_8_LD_15_RN_7_RD_21_0.png","C_Dist_200_LN_9_LD_20_RN_4_RD_16_0.png"],["C_Dist_200_LN_1_LD_2_RN_21_RD_30_1.png","C_Dist_200_LN_13_LD_26_RN_14_RD_20_1.png","C_Dist_200_LN_3_LD_10_RN_11_RD_22_1.png","C_Dist_200_LN_3_LD_10_RN_14_RD_28_1.png","C_Dist_200_LN_3_LD_10_RN_7_RD_14_1.png","C_Dist_200_LN_3_LD_12_RN_9_RD_20_1.png","C_Dist_200_LN_3_LD_6_RN_14_RD_20_1.png","C_Dist_200_LN_5_LD_10_RN_14_RD_20_1.png","C_Dist_200_LN_6_LD_12_RN_7_RD_10_1.png","C_Dist_200_LN_6_LD_20_RN_11_RD_22_1.png","C_Dist_200_LN_7_LD_15_RN_18_RD_27_1.png","C_Dist_200_LN_9_LD_30_RN_13_RD_26_1.png"]],"dist200_I":[["I_Dist_200_LN_1_LD_2_RN_3_RD_10_0.png","I_Dist_200_LN_1_LD_3_RN_2_RD_15_0.png","I_Dist_200_LN_3_LD_4_RN_11_RD_20_0.png","I_Dist_200_LN_4_LD_5_RN_6_RD_10_0.png","I_Dist_200_LN_4_LD_6_RN_14_RD_30_0.png","I_Dist_200_LN_7_LD_10_RN_12_RD_24_0.png","I_Dist_200_LN_7_LD_10_RN_14_RD_28_0.png","I_Dist_200_LN_7_LD_10_RN_8_RD_16_0.png"],["I_Dist_200_LN_11_LD_20_RN_3_RD_4_1.png","I_Dist_200_LN_14_LD_30_RN_12_RD_18_1.png","I_Dist_200_LN_14_LD_30_RN_6_RD_9_1.png","I_Dist_200_LN_3_LD_10_RN_1_RD_2_1.png","I_Dist_200_LN_4_LD_30_RN_1_RD_3_1.png","I_Dist_200_LN_6_LD_20_RN_3_RD_6_1.png","I_Dist_200_LN_7_LD_15_RN_4_RD_6_1.png","I_Dist_200_LN_7_LD_15_RN_6_RD_9_1.png","I_Dist_200_LN_9_LD_15_RN_8_RD_10_1.png"]],"dist200_S":[["E_Dist_200_LN_3_LD_6_RN_3_RD_10_0.png"],["E_Dist_200_LN_3_LD_10_RN_3_RD_6_1.png"]],"dist300_C":[["C_Dist_300_LN_11_LD_22_RN_1_RD_5_0.png","C_Dist_300_LN_11_LD_22_RN_2_RD_10_0.png","C_Dist_300_LN_11_LD_22_RN_4_RD_20_0.png","C_Dist_300_LN_12_LD_24_RN_2_RD_10_0.png","C_Dist_300_LN_18_LD_20_RN_9_RD_15_0.png","C_Dist_300_LN_20_LD_25_RN_13_RD_26_0.png","C_Dist_300_LN_20_LD_25_RN_14_RD_28_0.png","C_Dist_300_LN_20_LD_25_RN_5_RD_10_0.png","C_Dist_300_LN_20_LD_25_RN_8_RD_16_0.png","C_Dist_300_LN_20_LD_25_RN_9_RD_18_0.png","C_Dist_300_LN_24_LD_30_RN_2_RD_4_0.png","C_Dist_300_LN_24_LD_30_RN_8_RD_16_0.png","C_Dist_300_LN_3_LD_6_RN_2_RD_10_0.png","C_Dist_300_LN_4_LD_10_RN_1_RD_10_0.png","C_Dist_300_LN_4_LD_5_RN_2_RD_4_0.png","C_Dist_300_LN_8_LD_16_RN_1_RD_5_0.png","C_Dist_300_LN_9_LD_10_RN_3_RD_5_0.png"],["C_Dist_300_LN_1_LD_20_RN_7_RD_20_1.png","C_Dist_300_LN_1_LD_3_RN_19_RD_30_1.png","C_Dist_300_LN_1_LD_30_RN_8_RD_24_1.png","C_Dist_300_LN_1_LD_5_RN_11_RD_22_1.png","C_Dist_300_LN_1_LD_5_RN_3_RD_6_1.png","C_Dist_300_LN_1_LD_5_RN_6_RD_12_1.png","C_Dist_300_LN_2_LD_10_RN_12_RD_24_1.png","C_Dist_300_LN_2_LD_20_RN_10_RD_25_1.png","C_Dist_300_LN_3_LD_12_RN_11_RD_20_1.png","C_Dist_300_LN_3_LD_6_RN_4_RD_5_1.png","C_Dist_300_LN_4_LD_20_RN_13_RD_26_1.png","C_Dist_300_LN_5_LD_25_RN_6_RD_12_1.png","C_Dist_300_LN_5_LD_25_RN_7_RD_14_1.png","C_Dist_300_LN_7_LD_14_RN_20_RD_25_1.png","C_Dist_300_LN_8_LD_15_RN_10_RD_12_1.png"]],"dist300_I":[["I_Dist_300_LN_1_LD_2_RN_2_RD_10_0.png","I_Dist_300_LN_1_LD_2_RN_3_RD_15_0.png","I_Dist_300_LN_2_LD_4_RN_6_RD_30_0.png","I_Dist_300_LN_3_LD_6_RN_4_RD_20_0.png","I_Dist_300_LN_4_LD_5_RN_6_RD_12_0.png","I_Dist_300_LN_4_LD_5_RN_8_RD_16_0.png","I_Dist_300_LN_7_LD_10_RN_8_RD_20_0.png","I_Dist_300_LN_8_LD_10_RN_14_RD_28_0.png","I_Dist_300_LN_8_LD_10_RN_9_RD_18_0.png"],["I_Dist_300_LN_13_LD_26_RN_12_RD_15_1.png","I_Dist_300_LN_4_LD_20_RN_2_RD_4_1.png"]],"dist300_S":[["E_Dist_300_LN_9_LD_12_RN_9_RD_20_0.png"],["E_Dist_300_LN_18_LD_30_RN_18_RD_20_1.png","E_Dist_300_LN_3_LD_10_RN_3_RD_5_1.png","E_Dist_300_LN_9_LD_20_RN_9_RD_12_1.png"]],"dist500_C":[["C_Dist_500_LN_10_LD_13_RN_7_RD_26_0.png","C_Dist_500_LN_10_LD_15_RN_4_RD_24_0.png","C_Dist_500_LN_12_LD_16_RN_3_RD_12_0.png","C_Dist_500_LN_12_LD_18_RN_4_RD_24_0.png","C_Dist_500_LN_15_LD_18_RN_5_RD_15_0.png","C_Dist_500_LN_15_LD_20_RN_1_RD_4_0.png","C_Dist_500_LN_18_LD_27_RN_1_RD_6_0.png","C_Dist_500_LN_20_LD_24_RN_1_RD_3_0.png","C_Dist_500_LN_20_LD_24_RN_3_RD_9_0.png","C_Dist_500_LN_20_LD_24_RN_7_RD_21_0.png","C_Dist_500_LN_20_LD_28_RN_3_RD_14_0.png","C_Dist_500_LN_21_LD_28_RN_6_RD_24_0.png","C_Dist_500_LN_22_LD_28_RN_2_RD_7_0.png","C_Dist_500_LN_25_LD_30_RN_9_RD_27_0.png","C_Dist_500_LN_4_LD_6_RN_1_RD_6_0.png","C_Dist_500_LN_5_LD_6_RN_2_RD_6_0.png","C_Dist_500_LN_6_LD_9_RN_1_RD_6_0.png","C_Dist_500_LN_7_LD_10_RN_1_RD_5_0.png","C_Dist_500_LN_8_LD_12_RN_1_RD_6_0.png","C_Dist_500_LN_8_LD_12_RN_4_RD_24_0.png"],["C_Dist_500_LN_1_LD_4_RN_12_RD_16_1.png","C_Dist_500_LN_1_LD_4_RN_9_RD_12_1.png","C_Dist_500_LN_1_LD_9_RN_11_RD_18_1.png","C_Dist_500_LN_10_LD_24_RN_22_RD_24_1.png","C_Dist_500_LN_2_LD_12_RN_10_RD_15_1.png","C_Dist_500_LN_2_LD_12_RN_12_RD_18_1.png","C_Dist_500_LN_2_LD_12_RN_4_RD_6_1.png","C_Dist_500_LN_2_LD_24_RN_7_RD_12_1.png","C_Dist_500_LN_2_LD_5_RN_18_RD_20_1.png","C_Dist_500_LN_2_LD_5_RN_9_RD_10_1.png","C_Dist_500_LN_2_LD_8_RN_12_RD_16_1.png","C_Dist_500_LN_2_LD_8_RN_21_RD_28_1.png","C_Dist_500_LN_3_LD_10_RN_4_RD_5_1.png","C_Dist_500_LN_3_LD_12_RN_15_RD_20_1.png","C_Dist_500_LN_3_LD_30_RN_6_RD_10_1.png","C_Dist_500_LN_3_LD_8_RN_14_RD_16_1.png","C_Dist_500_LN_4_LD_16_RN_15_RD_20_1.png","C_Dist_500_LN_4_LD_24_RN_12_RD_18_1.png","C_Dist_500_LN_5_LD_14_RN_6_RD_7_1.png","C_Dist_500_LN_7_LD_21_RN_20_RD_24_1.png","C_Dist_500_LN_7_LD_28_RN_12_RD_16_1.png","C_Dist_500_LN_7_LD_28_RN_9_RD_12_1.png","C_Dist_500_LN_9_LD_27_RN_20_RD_24_1.png"]],"dist500_I":[["I_Dist_500_LN_2_LD_3_RN_4_RD_24_0.png","I_Dist_500_LN_5_LD_6_RN_6_RD_18_0.png","I_Dist_500_LN_7_LD_8_RN_9_RD_24_0.png"],["I_Dist_500_LN_7_LD_21_RN_5_RD_6_1.png"]],"dist500_S":[["E_Dist_500_LN_6_LD_8_RN_6_RD_24_0.png"],["E_Dist_500_LN_2_LD_12_RN_2_RD_3_1.png","E_Dist_500_LN_6_LD_24_RN_6_RD_8_1.png"]]}},{"start_time":1551789961771,"click_time":1551789963600,"finger_time":1551789963498,"fix_duration":250,"trial":1,"RT":1727,"MT":102,"sideResp":2,"stimulus":[],"xmouse":[781,781,781,781,781,781,781,781,781,781,781,781,781,781,781,781,781,781,781,781,781,781,781,781,781,781,781,780,780,780,780,780,780,780,780,780,780,780,780,780,780,780,780,780,780,780,780,780,780,780,780,780,780,780,780,780,780,780,780,780,780,780,780,780,780,780,780,780,780,780,780,780,780,780,780,780,780,780,780,780,780,780,781,794,814,838,860,893,905,947,987,1074],"ymouse":[534,534,534,534,534,534,534,534,534,534,534,534,534,534,534,534,534,534,534,534,534,534,531,528,528,528,528,527,527,527,527,527,527,527,527,527,527,527,527,527,527,527,527,527,527,527,527,527,527,527,527,527,527,527,527,527,527,527,527,527,527,527,527,527,527,527,527,527,527,527,527,527,527,527,527,527,527,527,527,527,527,527,527,524,515,504,492,463,434,336,247,63],"timestamp_mouse":[8,28,59,68,87,108,128,147,167,187,208,228,247,267,287,307,328,347,367,387,407,428,447,467,489,507,528,548,568,588,609,627,648,667,687,708,727,748,767,787,807,827,848,868,887,909,928,947,967,988,1007,1028,1049,1067,1088,1107,1128,1148,1168,1188,1207,1227,1248,1267,1288,1309,1328,1348,1368,1388,1408,1427,1447,1468,1489,1508,1527,1547,1568,1587,1607,1627,1648,1668,1687,1708,1727,1747,1767,1789,1808,1828],"xSR":741.5,"ySR":449.15000000000003,"xT1":424.9,"yT1":0,"xT2":1058.1,"yT2":0,"toosoon":0,"cond_shown":"Incongruent","ratio_trial":300,"L_num":2,"L_den":4,"R_num":6,"R_den":30,"correct_side":1,"subjID":"VioletaPreciadoLozano           nr.28","gender":"1","school":"6","age":"11"},{"start_time":1551789966365,"click_time":1551789968399,"finger_time":1551789967579,"fix_duration":1464.6733884025537,"trial":2,"RT":1214,"MT":820,"sideResp":1,"stimulus":[],"xmouse":[786,786,786,786,786,786,786,786,786,786,786,786,786,786,786,786,786,786,786,786,786,786,786,786,786,786,786,786,786,786,786,786,786,786,786,786,786,786,786,786,786,786,786,786,786,786,786,786,786,786,786,786,785,783,779,775,770,769,767,758,735,711,660,640,622,601,538,493,428,402,384,375,375,382,388,395,402,408,415,422,433,457,466,470,472,472,472,472,472,472,472,472,472,472,472,472,472,472,473,473,473,473],"ymouse":[521,521,521,521,521,521,521,521,521,521,521,521,521,521,521,521,521,521,521,521,521,521,521,521,521,521,521,521,521,521,521,521,521,521,521,521,521,521,521,521,521,521,521,521,521,521,521,521,521,521,521,521,522,526,531,536,541,542,543,546,547,551,557,557,554,545,503,468,406,369,340,312,268,253,238,226,216,210,206,202,197,180,170,161,152,142,131,117,111,109,107,105,104,104,104,104,104,104,101,101,100,96],"timestamp_mouse":[13,33,69,74,93,113,133,153,173,193,214,233,253,274,293,313,333,353,373,393,413,433,453,474,494,513,533,554,574,594,614,633,654,673,694,715,734,754,773,793,815,834,853,874,893,914,933,953,973,994,1013,1034,1054,1074,1093,1113,1134,1154,1173,1194,1214,1234,1253,1273,1294,1313,1335,1353,1374,1393,1414,1433,1453,1474,1494,1514,1533,1553,1574,1594,1613,1634,1653,1673,1694,1713,1735,1754,1774,1794,1813,1834,1855,1873,1893,1913,1934,1953,1974,1993,2013,2034],"xSR":741.5,"ySR":449.15000000000003,"xT1":424.9,"yT1":0,"xT2":1058.1,"yT2":0,"toosoon":0,"cond_shown":"Congruent","ratio_trial":200,"L_num":12,"L_den":20,"R_num":6,"R_den":15,"correct_side":1,"subjID":"VioletaPreciadoLozano           nr.28","gender":"1","school":"6","age":"11"},{"start_time":1551789970368,"click_time":1551789972259,"finger_time":1551789971778,"fix_duration":987.3752030167574,"trial":3,"RT":1410,"MT":481,"sideResp":1,"stimulus":[],"xmouse":[770,770,770,770,770,770,770,770,770,770,770,770,770,770,770,770,770,770,770,770,770,770,770,770,770,770,770,770,770,770,770,770,770,770,770,770,770,770,770,770,770,770,770,770,770,770,770,770,770,770,770,770,770,770,770,770,770,770,770,770,770,770,770,770,770,770,770,770,771,764,739,704,622,604,595,591,591,598,599,598,591,583,569,562,554,542,529,513,511,511,511,507,497,483,473],"ymouse":[502,502,502,502,502,502,502,502,502,502,502,502,502,502,502,502,502,502,502,502,502,502,502,502,502,502,502,502,502,502,502,502,502,502,502,502,502,502,502,502,502,502,502,502,502,502,502,502,502,502,502,502,502,502,502,502,502,502,502,502,502,502,502,502,502,502,502,502,502,497,485,469,433,420,410,400,388,360,335,313,290,270,225,201,173,148,128,109,109,109,109,108,104,100,97],"timestamp_mouse":[10,44,51,71,91,110,130,152,172,191,211,230,250,271,290,312,330,351,370,390,410,430,451,470,490,510,530,550,570,591,610,630,651,670,690,710,731,751,770,792,811,830,851,870,890,910,930,951,970,991,1010,1031,1051,1072,1092,1110,1130,1150,1170,1191,1210,1230,1250,1272,1290,1310,1330,1350,1370,1390,1410,1430,1450,1471,1490,1511,1532,1552,1570,1591,1611,1630,1650,1671,1690,1711,1730,1750,1771,1790,1810,1832,1850,1870,1891],"xSR":741.5,"ySR":449.15000000000003,"xT1":424.9,"yT1":0,"xT2":1058.1,"yT2":0,"toosoon":0,"cond_shown":"Congruent","ratio_trial":200,"L_num":16,"L_den":30,"R_num":9,"R_den":27,"correct_side":1,"subjID":"VioletaPreciadoLozano           nr.28","gender":"1","school":"6","age":"11"},{"start_time":1551789975687,"click_time":1551789977658,"finger_time":1551789977198,"fix_duration":728.1156891132354,"trial":4,"RT":1511,"MT":460,"sideResp":1,"stimulus":[],"xmouse":[788,788,788,788,788,788,788,788,788,788,788,788,788,788,788,788,788,788,788,788,788,788,788,788,788,788,788,788,788,788,788,788,788,788,788,788,788,788,788,788,788,788,788,788,788,788,788,788,788,788,788,788,788,788,788,788,788,788,788,788,788,788,788,788,788,788,788,788,787,786,784,775,768,761,759,753,743,734,717,695,671,619,592,578,570,564,558,553,549,548,547,547,547,546,543,536,530,524,520],"ymouse":[513,513,513,513,513,513,513,513,513,513,513,513,513,513,513,513,513,513,513,513,513,513,513,513,513,513,513,513,513,513,513,513,513,513,513,513,513,513,513,513,513,513,513,513,513,513,513,513,513,513,513,513,513,513,513,513,513,513,513,513,513,513,513,513,513,513,513,513,513,513,511,497,479,466,453,437,409,393,375,357,337,306,286,272,261,253,238,232,225,218,200,191,179,172,164,142,127,110,96],"timestamp_mouse":[11,41,52,71,92,113,131,152,172,191,211,231,251,272,291,311,331,351,372,391,413,431,452,473,492,511,531,551,571,592,611,632,651,672,691,712,733,751,772,791,813,835,851,872,891,911,931,951,971,992,1012,1031,1051,1073,1091,1112,1131,1152,1173,1191,1211,1232,1252,1272,1292,1313,1331,1351,1372,1391,1412,1431,1452,1471,1491,1511,1531,1552,1571,1591,1611,1631,1651,1671,1691,1711,1731,1751,1771,1791,1812,1831,1852,1873,1891,1913,1931,1952,1971],"xSR":741.5,"ySR":449.15000000000003,"xT1":424.9,"yT1":0,"xT2":1058.1,"yT2":0,"toosoon":0,"cond_shown":"Incongruent","ratio_trial":100,"L_num":17,"L_den":30,"R_num":10,"R_den":15,"correct_side":2,"subjID":"VioletaPreciadoLozano           nr.28","gender":"1","school":"6","age":"11"},{"start_time":1551789979250,"click_time":1551789981318,"finger_time":1551789980679,"fix_duration":250,"trial":5,"RT":1429,"MT":639,"sideResp":1,"stimulus":[],"xmouse":[797,797,797,797,797,797,797,797,797,797,797,797,797,797,797,797,797,797,797,797,797,797,797,797,797,797,797,797,797,797,797,797,797,797,797,797,797,797,797,797,797,797,797,797,797,797,797,797,797,797,797,797,797,797,797,797,797,797,797,797,797,797,797,797,797,797,797,797,797,796,794,794,794,794,791,789,787,784,772,764,754,741,694,636,613,544,511,495,483,481,477,473,473,473,476,478,479,481,481,481,481,481,481,476],"ymouse":[494,494,494,494,494,494,494,494,494,494,494,494,494,494,494,494,494,494,494,494,494,494,494,494,494,494,494,494,494,494,494,494,494,494,494,494,494,494,494,494,494,494,494,494,494,494,494,494,494,494,494,494,494,494,494,494,494,494,494,494,494,494,494,494,494,494,494,494,489,479,460,439,410,405,401,401,401,400,393,387,376,362,332,302,289,260,244,233,217,212,205,200,194,184,177,172,166,147,138,130,123,116,106,98],"timestamp_mouse":[9,35,49,69,89,109,129,150,169,188,209,229,248,268,289,310,329,348,368,390,409,429,448,468,488,509,529,548,569,588,608,628,648,668,688,708,728,748,768,789,808,830,848,869,888,909,929,948,969,988,1008,1028,1048,1068,1088,1108,1128,1148,1170,1189,1208,1229,1249,1270,1288,1308,1329,1348,1368,1389,1408,1429,1449,1468,1489,1508,1528,1548,1568,1588,1609,1629,1649,1668,1688,1708,1730,1748,1769,1788,1809,1828,1848,1869,1888,1908,1928,1950,1969,1989,2008,2028,2049,2068],"xSR":741.5,"ySR":449.15000000000003,"xT1":424.9,"yT1":0,"xT2":1058.1,"yT2":0,"toosoon":0,"cond_shown":"Incongruent","ratio_trial":200,"L_num":7,"L_den":15,"R_num":4,"R_den":6,"correct_side":2,"subjID":"VioletaPreciadoLozano           nr.28","gender":"1","school":"6","age":"11"},{"start_time":1551789983759,"click_time":1551789985898,"finger_time":1551789985499,"fix_duration":1378.547169997141,"trial":6,"RT":1740,"MT":399,"sideResp":1,"stimulus":[],"xmouse":[745,745,745,745,746,753,759,763,773,776,777,777,777,777,777,777,777,777,777,777,777,777,777,777,777,777,777,777,777,777,777,777,777,777,777,777,777,777,777,777,777,777,777,777,777,777,777,777,777,777,777,777,777,777,777,777,777,777,777,777,777,777,777,777,777,777,777,777,777,777,777,777,777,777,777,777,777,777,777,777,777,779,779,781,781,779,767,694,631,541,500,477,466,465,464,463,460,459,459,461,464,466,469,476,478,477,475,475],"ymouse":[492,489,488,488,487,488,491,492,498,502,506,507,508,508,508,508,508,508,508,508,508,508,508,508,508,508,508,508,508,508,508,508,508,508,508,508,508,508,508,508,508,508,508,508,508,508,508,508,508,508,508,508,508,508,508,508,508,508,508,508,508,508,508,508,508,508,508,508,508,508,508,508,508,508,508,508,508,508,508,508,505,501,497,489,484,476,459,390,347,282,253,232,206,196,189,183,175,169,164,158,152,146,140,127,117,109,102,99],"timestamp_mouse":[1,19,39,59,80,100,120,139,160,179,200,219,240,260,280,299,319,340,360,380,400,420,440,461,480,499,519,540,560,580,599,619,639,661,680,699,720,739,759,779,799,819,839,859,879,900,921,939,959,979,1000,1019,1040,1059,1079,1099,1120,1140,1161,1179,1200,1219,1240,1259,1279,1299,1320,1340,1360,1380,1400,1421,1440,1459,1479,1500,1520,1539,1560,1579,1600,1620,1640,1660,1679,1699,1720,1740,1759,1781,1799,1819,1840,1860,1880,1899,1919,1941,1960,1979,1999,2020,2041,2059,2080,2099,2119,2139],"xSR":741.5,"ySR":449.15000000000003,"xT1":424.9,"yT1":0,"xT2":1058.1,"yT2":0,"toosoon":0,"cond_shown":"Congruent","ratio_trial":100,"L_num":11,"L_den":22,"R_num":6,"R_den":15,"correct_side":1,"subjID":"VioletaPreciadoLozano           nr.28","gender":"1","school":"6","age":"11"},{"start_time":1551789988101,"click_time":1551789989899,"finger_time":1551789989418,"fix_duration":1081.6013771446258,"trial":7,"RT":1317,"MT":481,"sideResp":1,"stimulus":[],"xmouse":[773,773,773,773,773,773,773,773,773,773,773,773,773,773,773,773,773,773,773,773,773,773,773,773,773,773,773,773,773,773,773,773,773,773,773,773,773,773,773,773,773,773,773,773,773,773,773,773,773,773,773,773,773,773,773,773,773,773,773,773,773,773,773,773,764,741,698,651,608,544,529,512,506,500,496,495,495,495,495,495,493,493,492,490,481,470,462,458,453,451],"ymouse":[486,486,486,486,486,486,486,486,486,486,486,486,486,486,486,486,486,486,486,486,486,486,486,486,486,486,486,486,486,486,486,486,486,486,486,486,486,486,486,486,486,486,486,486,486,486,486,486,486,486,486,486,486,486,486,486,486,486,486,486,486,486,486,486,475,459,433,406,380,339,322,288,265,246,232,222,221,220,218,216,206,200,195,189,170,153,137,123,107,81],"timestamp_mouse":[18,40,58,78,97,117,139,158,178,198,219,237,258,277,297,317,337,357,377,399,419,438,458,477,497,517,538,557,578,597,617,639,658,677,697,717,737,758,777,798,818,838,859,878,897,917,938,958,977,997,1017,1038,1057,1078,1097,1118,1137,1157,1177,1198,1217,1237,1257,1277,1298,1317,1338,1357,1378,1399,1417,1438,1457,1477,1498,1517,1538,1557,1578,1597,1617,1637,1657,1677,1698,1717,1738,1757,1778,1798],"xSR":741.5,"ySR":449.15000000000003,"xT1":424.9,"yT1":0,"xT2":1058.1,"yT2":0,"toosoon":0,"cond_shown":"Congruent","ratio_trial":100,"L_num":3,"L_den":6,"R_num":2,"R_den":5,"correct_side":1,"subjID":"VioletaPreciadoLozano           nr.28","gender":"1","school":"6","age":"11"},{"start_time":1551789992532,"click_time":1551789994218,"finger_time":1551789993819,"fix_duration":290.44881678712363,"trial":8,"RT":1287,"MT":399,"sideResp":2,"stimulus":[],"xmouse":[796,796,796,796,796,796,796,796,796,796,796,796,796,796,796,796,796,796,796,796,796,796,796,796,796,796,796,796,796,796,796,796,796,796,796,796,796,796,796,796,796,796,796,796,796,796,796,796,796,796,796,796,796,797,803,806,807,809,809,809,809,809,810,816,823,832,844,857,886,899,919,930,941,951,970,978,983,997,1015,1059,1088,1101,1110,1123,1130],"ymouse":[515,515,515,515,515,515,515,515,515,515,515,515,515,515,515,515,515,515,515,515,515,515,515,515,515,515,515,515,515,515,515,515,515,515,515,515,515,515,515,515,515,515,515,515,515,515,515,515,515,514,513,509,506,502,484,478,473,469,467,466,466,466,464,453,440,424,406,387,353,342,326,316,308,300,290,287,283,276,265,232,206,182,160,113,88],"timestamp_mouse":[8,44,47,67,86,106,127,146,166,186,207,227,246,267,286,307,327,347,366,387,406,427,447,468,487,507,526,547,566,588,606,626,646,667,686,706,727,747,767,787,807,827,846,866,886,906,927,947,966,986,1007,1026,1046,1066,1086,1106,1126,1147,1167,1186,1206,1228,1247,1267,1287,1306,1326,1346,1368,1386,1407,1427,1446,1466,1486,1506,1526,1546,1566,1586,1606,1626,1647,1667,1686],"xSR":741.5,"ySR":449.15000000000003,"xT1":424.9,"yT1":0,"xT2":1058.1,"yT2":0,"toosoon":0,"cond_shown":"Congruent","ratio_trial":100,"L_num":4,"L_den":10,"R_num":15,"R_den":30,"correct_side":2,"subjID":"VioletaPreciadoLozano           nr.28","gender":"1","school":"6","age":"11"},{"start_time":1551789995309,"click_time":1551789997218,"finger_time":1551789996618,"fix_duration":250,"trial":9,"RT":1309,"MT":600,"sideResp":1,"stimulus":[],"xmouse":[769,769,769,769,769,769,769,769,769,769,769,769,769,769,769,769,769,769,769,769,769,769,769,769,769,769,769,769,769,769,769,769,769,769,769,769,769,769,769,769,769,769,769,769,769,769,769,769,769,769,769,769,769,769,769,769,769,769,769,769,768,767,765,759,744,698,669,650,635,625,610,606,598,592,586,572,566,562,558,547,538,525,520,518,516,514,513,513,513,513,513,513,512,509,507,504],"ymouse":[507,507,507,507,507,507,507,507,507,507,507,507,507,507,507,507,507,507,507,507,507,507,507,507,507,507,507,507,507,507,507,507,507,507,507,507,507,507,507,507,507,507,507,507,507,507,507,507,507,507,507,507,507,507,507,507,507,507,507,506,506,505,504,500,488,449,425,398,370,347,306,293,272,259,248,225,211,200,189,172,163,151,145,138,123,117,112,110,109,109,109,109,108,103,100,95],"timestamp_mouse":[9,40,49,70,90,110,130,149,169,190,209,229,249,269,289,309,329,349,370,390,409,429,449,469,490,509,530,549,570,589,609,629,649,670,690,709,729,749,769,789,809,829,849,869,889,909,929,950,970,989,1010,1030,1051,1069,1090,1109,1130,1149,1170,1189,1209,1230,1249,1269,1289,1309,1329,1349,1370,1389,1409,1429,1449,1470,1490,1509,1532,1551,1571,1591,1609,1629,1649,1669,1690,1709,1729,1750,1770,1789,1809,1829,1849,1869,1891,1909],"xSR":741.5,"ySR":449.15000000000003,"xT1":424.9,"yT1":0,"xT2":1058.1,"yT2":0,"toosoon":0,"cond_shown":"Congruent","ratio_trial":100,"L_num":10,"L_den":25,"R_num":3,"R_den":10,"correct_side":1,"subjID":"VioletaPreciadoLozano           nr.28","gender":"1","school":"6","age":"11"},{"start_time":1551789998581,"click_time":1551790001118,"finger_time":1551790000598,"fix_duration":459.28491355000244,"trial":10,"RT":2017,"MT":520,"sideResp":1,"stimulus":[],"xmouse":[763,765,765,767,768,768,768,768,769,770,772,772,772,772,772,772,772,772,772,772,772,772,772,772,772,772,772,772,772,772,772,772,772,772,772,772,772,772,772,772,772,772,772,772,772,772,772,772,772,772,772,772,772,772,772,772,772,772,772,772,772,772,772,772,772,772,772,772,772,772,772,772,772,772,772,772,772,772,772,772,772,772,772,772,772,772,772,772,772,772,772,772,772,772,772,772,772,772,770,750,726,688,674,663,655,639,633,626,620,614,592,577,561,550,541,526,524,524,524,524,524,522,518,511,505,499,485],"ymouse":[475,476,476,477,477,477,477,477,478,479,482,482,482,482,482,482,482,482,482,482,482,482,482,482,482,482,482,482,482,482,482,482,482,482,482,482,482,482,482,482,482,482,482,482,482,482,482,482,482,482,482,482,482,482,482,482,482,482,482,482,482,482,482,482,482,482,482,482,482,482,482,482,482,482,482,482,482,482,482,482,482,482,482,482,482,482,482,482,482,482,482,482,482,482,482,482,482,482,481,472,459,429,410,387,359,304,285,266,257,247,216,198,180,165,154,139,137,137,137,137,137,136,132,125,119,111,93],"timestamp_mouse":[17,53,58,78,98,118,137,157,178,197,218,238,258,277,297,317,338,358,377,398,417,437,457,478,497,518,537,557,578,597,618,637,658,678,697,717,737,758,777,797,818,838,859,878,897,917,937,957,978,997,1018,1038,1058,1077,1097,1117,1137,1157,1178,1199,1218,1237,1259,1277,1297,1317,1337,1357,1377,1397,1417,1437,1457,1477,1499,1517,1537,1557,1578,1597,1617,1637,1657,1679,1698,1718,1737,1758,1777,1797,1819,1838,1858,1878,1897,1918,1937,1959,1977,1997,2017,2037,2058,2078,2097,2119,2137,2158,2177,2197,2218,2237,2257,2277,2298,2318,2337,2357,2377,2398,2417,2437,2458,2478,2497,2517,2537],"xSR":741.5,"ySR":449.15000000000003,"xT1":424.9,"yT1":0,"xT2":1058.1,"yT2":0,"toosoon":0,"cond_shown":"Incongruent","ratio_trial":300,"L_num":8,"L_den":10,"R_num":14,"R_den":28,"correct_side":1,"subjID":"VioletaPreciadoLozano           nr.28","gender":"1","school":"6","age":"11"},{"start_time":1551790002868,"click_time":1551790004339,"finger_time":1551790004178,"fix_duration":767.9185566660974,"trial":11,"RT":1310,"MT":161,"sideResp":1,"stimulus":[],"xmouse":[775,775,775,775,775,775,775,775,775,775,775,775,775,775,775,775,775,775,775,775,775,775,775,775,775,775,775,775,775,775,775,775,775,775,775,775,775,775,775,775,775,775,775,775,775,775,775,775,775,775,775,775,775,775,775,775,775,775,775,775,775,775,774,762,743,719,639,607,578,556,535,502,482,460],"ymouse":[508,508,508,508,508,508,508,508,508,508,508,508,508,508,508,508,508,508,508,508,508,508,508,508,508,508,508,508,508,508,508,508,508,508,508,508,508,508,508,508,508,508,508,508,508,508,508,508,508,508,508,508,508,508,508,508,508,508,508,508,508,508,508,491,470,442,360,324,283,246,204,137,108,79],"timestamp_mouse":[10,39,51,70,91,111,131,152,170,191,212,230,250,271,291,310,331,351,371,391,410,430,451,470,490,511,531,550,571,591,610,631,652,670,690,711,731,750,770,791,811,831,850,870,891,911,932,951,970,990,1011,1030,1050,1071,1090,1111,1130,1150,1170,1190,1211,1232,1251,1270,1291,1310,1331,1351,1370,1390,1410,1432,1450,1471],"xSR":741.5,"ySR":449.15000000000003,"xT1":424.9,"yT1":0,"xT2":1058.1,"yT2":0,"toosoon":0,"cond_shown":"Congruent","ratio_trial":200,"L_num":15,"L_den":25,"R_num":4,"R_den":10,"correct_side":1,"subjID":"VioletaPreciadoLozano           nr.28","gender":"1","school":"6","age":"11"},{"start_time":1551790005631,"click_time":1551790007338,"finger_time":1551790006959,"fix_duration":250,"trial":12,"RT":1328,"MT":379,"sideResp":1,"stimulus":[],"xmouse":[779,779,779,779,779,779,779,779,779,779,779,779,779,779,779,779,779,779,779,779,779,779,779,779,779,779,779,779,779,779,779,779,779,779,779,779,779,779,779,779,779,779,779,779,779,779,779,779,779,779,779,779,778,777,777,777,777,777,777,777,777,777,777,777,773,759,716,665,599,576,558,540,530,522,504,502,500,500,499,499,499,499,499,497,492,485],"ymouse":[500,500,500,500,500,500,500,500,500,500,500,500,500,500,500,500,500,500,500,500,500,500,500,500,500,500,500,500,500,500,500,500,500,500,500,500,500,500,500,500,500,500,500,500,500,500,500,500,500,500,500,500,499,498,497,497,497,497,497,497,497,497,497,497,492,480,446,413,360,333,301,268,243,225,193,188,177,172,168,163,162,158,151,141,115,92],"timestamp_mouse":[12,40,48,68,88,108,129,147,168,187,209,227,248,269,288,307,328,347,367,387,408,427,448,467,487,507,528,548,568,587,607,628,647,669,687,707,727,748,767,787,807,828,847,868,888,907,928,948,967,989,1007,1027,1047,1068,1087,1107,1129,1149,1168,1188,1207,1227,1247,1267,1287,1308,1328,1347,1368,1387,1408,1427,1447,1467,1487,1507,1528,1548,1567,1587,1607,1627,1647,1667,1687,1707],"xSR":741.5,"ySR":449.15000000000003,"xT1":424.9,"yT1":0,"xT2":1058.1,"yT2":0,"toosoon":0,"cond_shown":"Incongruent","ratio_trial":200,"L_num":14,"L_den":30,"R_num":12,"R_den":18,"correct_side":2,"subjID":"VioletaPreciadoLozano           nr.28","gender":"1","school":"6","age":"11"},{"start_time":1551790009250,"click_time":1551790011118,"finger_time":1551790010699,"fix_duration":811.7791561089533,"trial":13,"RT":1449,"MT":419,"sideResp":2,"stimulus":[],"xmouse":[795,795,795,795,795,795,795,795,795,795,795,795,795,795,795,795,795,795,795,795,795,795,795,795,795,795,795,795,795,795,795,795,795,795,795,795,795,795,795,794,794,794,794,794,794,796,799,802,804,804,804,804,804,804,804,804,804,804,804,804,804,804,804,804,804,804,804,804,804,804,806,809,829,851,858,881,899,949,988,1026,1058,1076,1089,1089,1089,1089,1089,1089,1089,1089,1086,1081,1075,1071],"ymouse":[513,513,513,513,513,513,513,513,513,513,513,513,513,513,513,513,513,513,513,513,513,513,513,513,513,513,513,513,513,513,513,513,513,513,513,513,512,506,505,504,503,502,502,502,499,493,484,479,473,473,473,473,473,473,473,473,473,473,473,473,473,473,473,473,473,473,473,473,473,473,467,461,436,412,404,376,349,279,234,193,168,157,153,153,153,153,153,151,143,137,128,119,108,95],"timestamp_mouse":[8,39,50,69,89,108,128,149,169,188,209,228,248,269,288,309,329,350,368,389,409,429,448,469,489,509,529,549,568,588,608,629,648,668,688,708,730,749,769,788,809,829,848,870,888,908,928,948,968,988,1009,1028,1048,1068,1090,1108,1130,1150,1169,1189,1208,1229,1249,1269,1289,1309,1329,1349,1369,1389,1408,1429,1449,1468,1488,1509,1528,1549,1568,1589,1610,1628,1649,1668,1688,1710,1730,1749,1768,1788,1808,1828,1850,1868],"xSR":741.5,"ySR":449.15000000000003,"xT1":424.9,"yT1":0,"xT2":1058.1,"yT2":0,"toosoon":0,"cond_shown":"Congruent","ratio_trial":300,"L_num":3,"L_den":6,"R_num":4,"R_den":5,"correct_side":2,"subjID":"VioletaPreciadoLozano           nr.28","gender":"1","school":"6","age":"11"},{"start_time":1551790012312,"click_time":1551790013619,"finger_time":1551790013178,"fix_duration":250,"trial":14,"RT":866,"MT":441,"sideResp":2,"stimulus":[],"xmouse":[805,805,805,805,805,805,805,805,805,805,805,805,805,805,805,805,805,805,805,805,805,805,805,805,805,805,805,805,805,805,805,805,805,805,805,805,805,805,805,805,805,805,822,839,877,891,902,914,927,939,964,981,996,1015,1074,1086,1089,1089,1089,1089,1089,1090,1091,1093,1097,1102],"ymouse":[482,482,482,482,482,482,482,482,482,482,482,482,482,482,482,482,482,482,482,482,482,482,482,482,482,482,482,482,482,482,482,482,482,482,482,482,482,482,482,482,480,478,461,449,425,412,397,381,366,356,335,313,296,277,241,232,228,228,228,228,209,190,169,145,122,83],"timestamp_mouse":[8,40,46,67,86,106,126,147,166,187,207,226,246,267,287,308,326,346,366,388,406,426,446,466,486,506,526,547,567,587,608,627,646,667,686,707,726,746,766,786,806,826,846,866,887,906,926,946,967,986,1006,1026,1047,1066,1087,1106,1128,1148,1166,1186,1206,1227,1246,1266,1286,1307],"xSR":741.5,"ySR":449.15000000000003,"xT1":424.9,"yT1":0,"xT2":1058.1,"yT2":0,"toosoon":0,"cond_shown":"Incongruent","ratio_trial":100,"L_num":2,"L_den":4,"R_num":6,"R_den":15,"correct_side":1,"subjID":"VioletaPreciadoLozano           nr.28","gender":"1","school":"6","age":"11"},{"start_time":1551790014951,"click_time":1551790016718,"finger_time":1551790016518,"fix_duration":250,"trial":15,"RT":1567,"MT":200,"sideResp":1,"stimulus":[],"xmouse":[770,770,770,770,770,770,770,770,770,770,770,770,770,770,770,770,770,770,770,770,770,770,770,770,770,770,770,770,770,770,770,770,770,770,770,770,770,770,770,770,770,770,770,770,770,770,770,770,770,770,770,770,770,770,770,770,770,770,770,770,770,770,770,770,770,770,770,770,770,770,770,770,770,770,770,770,770,765,707,663,600,568,551,526,516,504,494,477,472],"ymouse":[475,475,475,475,475,475,475,475,475,475,475,475,475,475,475,475,475,475,475,475,475,475,475,475,475,475,475,475,475,475,475,475,475,475,475,475,475,475,475,475,475,475,475,475,475,475,475,475,474,474,473,473,473,473,473,473,473,473,473,473,473,473,473,473,473,473,473,473,473,473,473,473,473,473,473,473,471,468,432,398,335,296,264,219,195,175,154,109,84],"timestamp_mouse":[10,26,47,68,87,108,128,146,168,188,207,227,246,267,287,306,327,346,367,388,407,428,447,467,486,507,527,546,567,587,606,628,646,667,686,707,728,746,768,786,807,828,848,866,888,907,928,947,967,987,1008,1027,1048,1067,1086,1108,1128,1146,1167,1186,1206,1228,1246,1266,1287,1308,1327,1347,1367,1388,1406,1428,1447,1466,1487,1507,1526,1547,1567,1588,1607,1627,1647,1667,1687,1707,1727,1749,1766],"xSR":741.5,"ySR":449.15000000000003,"xT1":424.9,"yT1":0,"xT2":1058.1,"yT2":0,"toosoon":0,"cond_shown":"Incongruent","ratio_trial":300,"L_num":7,"L_den":10,"R_num":8,"R_den":20,"correct_side":1,"subjID":"VioletaPreciadoLozano           nr.28","gender":"1","school":"6","age":"11"},{"start_time":1551790018595,"click_time":1551790020378,"finger_time":1551790020038,"fix_duration":795.1617160029955,"trial":16,"RT":1443,"MT":340,"sideResp":2,"stimulus":[],"xmouse":[797,796,796,793,793,793,793,793,793,793,793,793,793,793,793,793,793,793,793,793,793,793,793,793,793,793,793,793,793,793,793,793,793,793,793,793,793,793,793,793,793,793,793,793,793,793,793,793,793,793,793,793,793,793,793,793,793,793,793,793,793,793,793,793,793,793,793,793,793,799,814,825,836,855,886,933,1056,1125,1151,1161,1165,1165,1164,1164,1164,1164,1164,1163,1159,1158],"ymouse":[518,518,518,518,518,518,518,518,518,518,518,518,518,518,518,518,518,518,518,518,518,518,518,518,518,518,518,518,518,518,518,518,518,518,518,518,518,518,518,518,518,518,518,518,518,518,518,518,518,518,518,518,518,518,518,518,518,518,518,518,518,518,518,518,518,518,518,518,513,504,479,460,442,413,368,317,216,155,123,101,62,54,52,52,52,52,52,52,52,52],"timestamp_mouse":[11,39,44,63,83,104,123,143,164,183,203,223,243,263,282,302,324,343,363,384,404,424,443,463,483,503,523,544,563,582,603,622,643,663,683,704,724,743,763,783,803,824,843,863,883,903,924,943,963,982,1003,1023,1043,1063,1083,1103,1123,1143,1164,1183,1202,1222,1243,1263,1282,1302,1323,1343,1363,1383,1404,1423,1443,1464,1483,1504,1524,1542,1563,1583,1604,1623,1643,1663,1684,1702,1722,1743,1764,1783],"xSR":741.5,"ySR":449.15000000000003,"xT1":424.9,"yT1":0,"xT2":1058.1,"yT2":0,"toosoon":0,"cond_shown":"Incongruent","ratio_trial":300,"L_num":13,"L_den":26,"R_num":12,"R_den":15,"correct_side":2,"subjID":"VioletaPreciadoLozano           nr.28","gender":"1","school":"6","age":"11"},{"start_time":1551790022491,"click_time":1551790024158,"finger_time":1551790023500,"fix_duration":1191.5959145616982,"trial":17,"RT":1009,"MT":658,"sideResp":2,"stimulus":[],"xmouse":[805,805,805,805,805,805,805,805,805,805,805,805,805,805,805,805,805,805,805,805,805,805,805,805,805,805,805,805,805,805,805,805,805,805,805,805,805,805,805,805,805,805,805,805,805,805,805,810,815,824,850,869,881,890,896,898,899,899,899,900,905,912,932,949,969,1001,1008,1012,1016,1018,1024,1027,1028,1028,1029,1029,1029,1029,1030,1030,1030,1051,1066,1080],"ymouse":[511,511,511,511,511,511,511,511,511,511,511,511,511,511,511,511,511,511,511,511,511,511,511,511,511,511,511,511,511,511,511,511,511,511,511,511,511,511,511,511,511,511,511,511,511,511,511,496,489,476,439,405,366,348,335,329,325,323,322,320,308,296,269,244,220,181,166,155,145,140,128,120,117,116,115,115,111,110,109,108,108,106,104,99],"timestamp_mouse":[8,39,48,67,87,106,127,146,168,188,206,227,248,266,287,307,327,348,368,386,407,427,448,467,487,507,527,548,567,588,607,628,648,668,686,707,728,746,768,786,808,828,846,867,887,906,928,947,968,987,1009,1027,1046,1067,1087,1108,1127,1148,1168,1186,1207,1227,1248,1267,1287,1308,1327,1346,1367,1387,1408,1427,1448,1467,1487,1508,1528,1548,1566,1587,1607,1628,1648,1667],"xSR":741.5,"ySR":449.15000000000003,"xT1":424.9,"yT1":0,"xT2":1058.1,"yT2":0,"toosoon":0,"cond_shown":"Congruent","ratio_trial":100,"L_num":1,"L_den":2,"R_num":18,"R_den":30,"correct_side":2,"subjID":"VioletaPreciadoLozano           nr.28","gender":"1","school":"6","age":"11"},{"start_time":1551790027130,"click_time":1551790028899,"finger_time":1551790028258,"fix_duration":250,"trial":18,"RT":1128,"MT":641,"sideResp":1,"stimulus":[],"xmouse":[776,776,776,776,776,776,776,776,776,776,776,776,776,776,776,776,776,776,776,776,776,776,776,776,776,776,776,776,776,776,776,776,776,776,776,776,776,776,776,776,776,776,776,776,776,776,776,776,776,776,776,776,776,774,764,751,733,715,702,665,647,620,603,569,535,501,476,461,458,457,457,457,457,457,458,465,473,479,489,494,495,495,495,495,495,495,495,495,495],"ymouse":[516,516,516,516,516,516,516,516,516,516,516,516,516,516,516,516,516,516,516,516,516,516,516,516,516,516,516,516,516,516,516,516,516,516,516,516,516,516,516,516,516,516,515,513,511,510,510,510,510,510,510,510,509,505,491,478,463,448,434,398,381,355,332,279,238,204,183,170,167,166,166,166,166,166,161,153,146,137,122,112,109,107,107,107,106,106,104,102,98],"timestamp_mouse":[9,37,48,68,88,108,128,148,168,189,209,228,247,268,288,309,327,349,368,388,408,429,448,468,488,509,529,548,567,589,608,627,649,669,688,708,727,749,769,788,808,829,848,867,887,909,928,948,968,989,1008,1029,1049,1068,1087,1109,1128,1148,1168,1188,1209,1229,1248,1270,1288,1308,1328,1348,1368,1389,1408,1427,1448,1469,1488,1508,1529,1549,1569,1588,1609,1627,1648,1669,1688,1708,1729,1749,1769],"xSR":741.5,"ySR":449.15000000000003,"xT1":424.9,"yT1":0,"xT2":1058.1,"yT2":0,"toosoon":0,"cond_shown":"Congruent","ratio_trial":300,"L_num":9,"L_den":10,"R_num":3,"R_den":5,"correct_side":1,"subjID":"VioletaPreciadoLozano           nr.28","gender":"1","school":"6","age":"11"},{"start_time":1551790030129,"click_time":1551790032038,"finger_time":1551790031338,"fix_duration":250,"trial":19,"RT":1209,"MT":700,"sideResp":2,"stimulus":[],"xmouse":[803,803,803,803,803,803,803,803,803,803,803,803,803,803,803,803,803,803,803,803,803,803,803,803,803,803,803,803,803,803,803,803,803,803,803,803,803,803,803,803,803,803,803,803,803,803,803,803,803,803,803,803,803,803,803,803,803,804,813,837,849,865,875,897,909,920,928,934,937,940,942,945,949,958,962,970,981,1000,1087,1171,1204,1222,1224,1224,1224,1224,1224,1224,1224,1224,1222,1214,1202,1177,1167,1158],"ymouse":[520,520,520,520,520,520,520,520,520,520,520,520,520,520,520,520,520,520,520,520,520,520,520,520,520,520,520,520,520,520,520,520,520,520,520,520,520,520,520,520,520,520,520,520,520,516,513,512,512,512,512,512,512,512,512,512,506,501,485,451,434,408,389,357,343,329,321,312,309,304,301,296,289,271,261,246,228,203,126,58,34,25,23,23,23,23,23,23,23,23,26,32,37,46,50,53],"timestamp_mouse":[9,37,49,68,88,110,130,150,169,188,209,229,249,269,289,310,329,350,369,388,410,429,450,470,489,509,530,549,569,590,608,628,650,669,690,709,728,749,770,789,809,828,849,869,889,910,930,949,968,989,1010,1029,1048,1070,1089,1109,1130,1149,1169,1188,1209,1230,1248,1270,1288,1309,1329,1349,1370,1389,1408,1429,1448,1470,1489,1510,1529,1548,1570,1589,1609,1630,1649,1670,1688,1710,1729,1749,1770,1788,1809,1829,1848,1870,1889,1908],"xSR":741.5,"ySR":449.15000000000003,"xT1":424.9,"yT1":0,"xT2":1058.1,"yT2":0,"toosoon":0,"cond_shown":"Congruent","ratio_trial":100,"L_num":4,"L_den":8,"R_num":6,"R_den":10,"correct_side":2,"subjID":"VioletaPreciadoLozano           nr.28","gender":"1","school":"6","age":"11"},{"start_time":1551790034268,"click_time":1551790036199,"finger_time":1551790035559,"fix_duration":1249.1653322537236,"trial":20,"RT":1291,"MT":640,"sideResp":2,"stimulus":[],"xmouse":[786,786,786,786,786,786,786,786,786,786,786,786,786,786,786,786,786,786,786,786,786,786,786,786,786,786,786,786,786,786,786,786,786,786,786,786,786,786,786,786,786,786,786,786,786,786,786,786,786,786,786,786,786,786,786,786,786,786,790,792,792,792,800,806,830,851,937,987,1048,1102,1150,1182,1203,1205,1205,1206,1209,1210,1210,1209,1204,1199,1182,1171,1165,1164,1164,1164,1164,1164,1164,1164,1164,1164,1164,1162,1154],"ymouse":[492,492,492,492,492,492,492,492,492,492,492,492,492,492,492,492,492,492,492,492,492,492,492,492,492,492,492,492,492,492,492,492,492,492,492,492,492,492,492,492,492,492,492,492,492,492,492,492,492,492,492,492,492,492,492,492,492,487,483,480,480,480,471,466,448,428,357,316,272,223,185,157,132,126,122,119,108,103,100,97,96,94,93,92,90,90,90,90,90,90,90,90,90,90,90,90,89],"timestamp_mouse":[9,29,51,69,90,110,130,149,171,190,210,230,251,269,290,310,331,349,371,389,409,431,450,469,491,510,530,551,571,590,610,631,650,670,690,711,730,749,771,790,811,831,851,871,889,910,931,951,970,990,1010,1029,1049,1070,1090,1110,1130,1149,1170,1191,1210,1229,1250,1270,1291,1309,1331,1350,1371,1391,1409,1429,1449,1471,1491,1510,1530,1549,1570,1590,1610,1629,1650,1670,1689,1710,1730,1751,1771,1791,1811,1830,1849,1869,1890,1910,1931],"xSR":741.5,"ySR":449.15000000000003,"xT1":424.9,"yT1":0,"xT2":1058.1,"yT2":0,"toosoon":0,"cond_shown":"Incongruent","ratio_trial":200,"L_num":1,"L_den":3,"R_num":2,"R_den":15,"correct_side":1,"subjID":"VioletaPreciadoLozano           nr.28","gender":"1","school":"6","age":"11"},{"start_time":1551790037711,"click_time":1551790039398,"finger_time":1551790039299,"fix_duration":250,"trial":21,"RT":1588,"MT":99,"sideResp":2,"stimulus":[],"xmouse":[819,819,819,819,819,819,819,819,819,819,819,819,819,819,819,819,819,819,819,819,819,819,819,819,819,819,819,819,819,819,819,819,819,819,819,819,819,819,819,819,819,819,819,819,819,819,819,819,819,819,819,819,819,819,819,819,819,819,819,819,819,819,819,819,819,819,819,819,819,819,819,819,819,819,819,819,819,826,840,920,977,1053,1098,1132,1152],"ymouse":[489,489,489,489,489,489,489,489,489,489,489,489,489,489,489,489,489,489,489,489,489,489,489,489,489,489,489,489,489,489,489,489,489,489,489,489,489,489,489,489,489,489,489,489,489,489,489,489,489,489,489,489,489,489,489,489,489,489,489,489,489,489,489,489,489,489,489,489,489,489,489,489,489,489,489,489,484,474,459,398,347,261,198,140,84],"timestamp_mouse":[8,38,47,67,87,107,127,147,168,186,206,227,247,268,288,307,326,346,368,387,407,427,448,468,488,507,527,547,567,586,607,628,646,668,688,706,727,748,768,788,806,827,848,868,887,908,927,946,968,988,1007,1027,1048,1067,1086,1108,1128,1147,1168,1187,1208,1228,1247,1267,1288,1306,1327,1347,1366,1388,1406,1427,1448,1467,1488,1507,1526,1547,1568,1588,1607,1626,1648,1667,1687],"xSR":741.5,"ySR":449.15000000000003,"xT1":424.9,"yT1":0,"xT2":1058.1,"yT2":0,"toosoon":0,"cond_shown":"Incongruent","ratio_trial":300,"L_num":4,"L_den":5,"R_num":6,"R_den":12,"correct_side":1,"subjID":"VioletaPreciadoLozano           nr.28","gender":"1","school":"6","age":"11"},{"start_time":1551790043900,"click_time":1551790045719,"finger_time":1551790045279,"fix_duration":1218.2912567157098,"trial":22,"RT":1379,"MT":440,"sideResp":1,"stimulus":[],"xmouse":[778,778,778,778,778,778,778,778,778,778,778,778,778,778,778,778,778,778,778,778,778,778,778,778,778,778,778,778,778,778,778,778,778,778,778,778,778,778,778,778,778,778,778,778,778,778,778,778,778,778,778,778,778,778,778,778,778,778,778,778,778,778,778,778,778,778,778,770,747,713,683,673,659,647,630,600,592,586,584,582,579,575,567,561,556,552,545,540,536,530,525,519],"ymouse":[501,501,501,501,501,501,501,501,501,501,501,501,501,501,501,501,501,501,501,501,501,501,501,501,501,501,501,501,501,501,501,501,501,501,501,501,501,501,501,501,501,501,501,501,501,501,501,501,501,501,501,501,501,501,501,501,501,501,501,501,501,501,501,501,501,501,501,495,473,450,417,396,356,328,288,236,221,206,194,180,150,137,122,113,100,91,81,79,79,79,79,79],"timestamp_mouse":[2,35,38,59,79,99,118,138,159,178,198,218,238,257,278,297,319,337,357,379,399,418,439,459,477,498,518,539,559,579,598,618,637,659,677,697,719,739,757,778,797,819,839,857,878,898,918,938,957,978,999,1018,1038,1058,1078,1097,1119,1137,1159,1178,1199,1219,1239,1258,1279,1299,1319,1338,1358,1379,1399,1417,1438,1457,1479,1499,1518,1538,1558,1578,1599,1617,1637,1657,1678,1698,1718,1738,1758,1778,1798,1819],"xSR":741.5,"ySR":449.15000000000003,"xT1":424.9,"yT1":0,"xT2":1058.1,"yT2":0,"toosoon":0,"cond_shown":"Congruent","ratio_trial":100,"L_num":11,"L_den":22,"R_num":6,"R_den":15,"correct_side":1,"subjID":"VioletaPreciadoLozano           nr.28","gender":"1","school":"6","age":"11"},{"start_time":1551790046991,"click_time":1551790048378,"finger_time":1551790048079,"fix_duration":250,"trial":23,"RT":1088,"MT":299,"sideResp":1,"stimulus":[],"xmouse":[792,792,792,792,792,792,792,792,792,792,792,792,792,792,792,792,792,792,792,792,792,791,788,788,787,787,787,787,787,787,787,787,787,787,787,787,786,784,784,782,782,777,776,775,775,774,773,773,772,772,771,769,761,748,737,714,701,694,684,674,648,635,622,611,599,569,551,532,522,516],"ymouse":[509,509,509,509,509,509,509,509,509,509,509,509,509,509,509,509,509,509,509,509,509,508,504,502,502,502,502,502,502,502,502,502,502,502,502,502,501,499,498,497,496,492,491,490,489,486,485,485,484,484,483,478,468,453,440,421,411,404,394,383,351,332,313,290,266,203,170,129,108,93],"timestamp_mouse":[10,39,48,66,86,107,127,148,167,186,206,228,248,267,287,307,326,348,366,387,407,428,447,467,488,508,526,547,567,587,608,626,646,667,687,707,727,747,767,786,807,827,846,868,887,908,927,947,967,987,1009,1027,1048,1066,1088,1108,1127,1147,1166,1187,1208,1226,1247,1266,1287,1308,1327,1347,1366,1387],"xSR":741.5,"ySR":449.15000000000003,"xT1":424.9,"yT1":0,"xT2":1058.1,"yT2":0,"toosoon":0,"cond_shown":"Congruent","ratio_trial":200,"L_num":12,"L_den":20,"R_num":6,"R_den":15,"correct_side":1,"subjID":"VioletaPreciadoLozano           nr.28","gender":"1","school":"6","age":"11"},{"start_time":1551790049570,"click_time":1551790051599,"finger_time":1551790051338,"fix_duration":250,"trial":24,"RT":1768,"MT":261,"sideResp":2,"stimulus":[],"xmouse":[805,805,805,805,805,805,805,805,805,805,805,805,805,805,805,805,805,805,805,805,805,805,805,805,805,805,805,805,805,805,805,805,805,805,805,805,805,805,805,805,805,805,805,805,805,805,805,805,805,805,805,805,805,805,805,805,805,805,805,805,805,805,805,805,805,805,805,805,805,805,805,805,805,805,805,805,805,805,805,805,805,805,805,805,805,805,811,836,852,920,966,1049,1074,1096,1104,1106,1113,1120,1123,1128,1129,1117],"ymouse":[515,515,515,515,515,515,515,515,515,515,515,515,515,515,515,515,515,515,515,515,515,515,515,515,515,515,515,515,515,515,515,515,515,515,515,515,515,515,515,515,515,515,515,515,515,515,515,515,515,515,515,515,515,515,515,515,515,515,515,515,515,515,515,515,515,515,515,515,515,515,515,515,515,515,515,515,515,515,515,515,515,515,515,515,515,513,499,468,450,395,356,288,258,223,211,201,177,158,151,132,119,93],"timestamp_mouse":[10,31,47,68,87,108,129,149,169,188,209,229,247,268,288,307,329,349,367,389,408,428,448,468,489,509,527,549,567,588,607,629,647,668,689,709,728,747,769,789,808,829,848,868,887,909,929,949,968,988,1008,1029,1049,1068,1088,1108,1127,1148,1168,1188,1208,1228,1248,1268,1289,1307,1327,1348,1367,1388,1408,1428,1449,1467,1489,1507,1528,1548,1569,1587,1608,1627,1647,1668,1689,1708,1729,1748,1768,1787,1808,1829,1848,1867,1888,1907,1929,1948,1968,1989,2007,2029],"xSR":741.5,"ySR":449.15000000000003,"xT1":424.9,"yT1":0,"xT2":1058.1,"yT2":0,"toosoon":0,"cond_shown":"Incongruent","ratio_trial":300,"L_num":4,"L_den":5,"R_num":6,"R_den":12,"correct_side":1,"subjID":"VioletaPreciadoLozano           nr.28","gender":"1","school":"6","age":"11"},{"start_time":1551790056293,"click_time":1551790058239,"finger_time":1551790057758,"fix_duration":493.93214322256387,"trial":25,"RT":1465,"MT":481,"sideResp":1,"stimulus":[],"xmouse":[797,794,791,785,782,782,782,782,782,782,782,782,782,782,782,782,782,782,782,782,782,782,782,782,782,782,782,782,782,782,782,782,782,782,782,782,782,782,782,782,782,782,782,782,782,782,782,782,782,782,782,782,782,782,782,782,782,782,782,782,781,781,780,780,780,780,780,780,779,778,775,768,764,753,744,733,730,726,721,713,705,688,673,663,654,647,633,626,620,614,606,583,573,560,543,529,525,524],"ymouse":[513,513,513,513,513,513,513,513,513,513,513,513,513,513,513,513,513,513,513,513,513,513,513,513,513,513,513,513,513,513,513,513,513,513,513,513,513,513,513,513,513,513,513,513,513,513,513,513,513,513,513,513,513,513,513,513,513,513,513,512,511,508,507,505,505,505,505,503,501,498,489,472,464,449,438,419,408,399,387,375,363,335,311,297,282,268,235,215,197,179,162,123,111,103,98,94,93,93],"timestamp_mouse":[8,38,45,66,85,104,125,146,165,186,204,224,246,265,286,306,325,345,364,386,404,425,444,465,486,504,526,545,566,585,605,625,644,666,686,705,726,745,765,785,805,825,845,865,886,905,925,945,966,985,1006,1024,1046,1065,1085,1106,1125,1145,1164,1185,1205,1225,1245,1265,1285,1305,1326,1344,1365,1385,1406,1426,1445,1465,1486,1506,1525,1546,1566,1586,1605,1624,1644,1664,1685,1705,1724,1745,1765,1785,1806,1825,1844,1865,1885,1905,1925,1945],"xSR":741.5,"ySR":449.15000000000003,"xT1":424.9,"yT1":0,"xT2":1058.1,"yT2":0,"toosoon":0,"cond_shown":"Congruent","ratio_trial":200,"L_num":4,"L_den":10,"R_num":3,"R_den":15,"correct_side":1,"subjID":"VioletaPreciadoLozano           nr.28","gender":"1","school":"6","age":"11"},{"start_time":1551790059745,"click_time":1551790061658,"finger_time":1551790061198,"fix_duration":486.5109990878199,"trial":26,"RT":1453,"MT":460,"sideResp":1,"stimulus":[],"xmouse":[799,799,799,799,799,799,799,799,799,799,799,799,799,799,799,799,799,799,799,799,799,799,799,799,799,799,799,799,799,799,799,799,799,799,799,799,799,799,799,799,799,799,799,799,799,799,799,799,799,799,799,799,799,799,799,799,799,799,799,799,799,799,799,799,799,799,799,799,799,799,798,789,777,738,717,701,686,656,628,585,562,547,536,536,536,536,536,535,533,533,533,533,532,530,525,524],"ymouse":[494,494,494,494,494,494,494,494,494,494,494,494,494,494,494,494,494,494,494,494,494,494,494,494,494,494,494,494,494,494,494,494,494,494,494,494,494,494,494,494,494,494,494,494,494,494,494,494,494,494,494,494,494,494,494,494,494,494,494,494,494,494,494,494,494,494,494,494,494,494,487,468,440,348,288,230,193,152,130,106,95,88,80,80,79,79,79,79,79,79,79,79,78,78,77,77],"timestamp_mouse":[14,44,53,73,93,113,133,154,173,192,214,234,254,273,293,313,334,353,374,394,413,432,454,473,494,513,534,552,573,593,614,634,652,672,694,713,734,754,774,793,812,834,853,873,893,914,934,952,972,994,1014,1033,1052,1072,1094,1112,1132,1154,1174,1193,1214,1233,1253,1273,1293,1313,1334,1353,1374,1392,1413,1434,1453,1472,1494,1513,1532,1554,1573,1594,1612,1633,1655,1673,1693,1713,1732,1754,1773,1794,1813,1833,1854,1873,1893,1913],"xSR":741.5,"ySR":449.15000000000003,"xT1":424.9,"yT1":0,"xT2":1058.1,"yT2":0,"toosoon":0,"cond_shown":"Incongruent","ratio_trial":100,"L_num":10,"L_den":25,"R_num":9,"R_den":18,"correct_side":2,"subjID":"VioletaPreciadoLozano           nr.28","gender":"1","school":"6","age":"11"},{"start_time":1551790064154,"click_time":1551790067118,"finger_time":1551790065158,"fix_duration":1174.1407172482363,"trial":27,"RT":1004,"MT":1960,"sideResp":1,"stimulus":[],"xmouse":[785,785,785,785,785,785,785,785,785,785,785,785,785,785,785,785,785,785,785,785,785,785,785,785,785,785,785,785,785,785,785,785,785,785,785,785,785,785,785,785,785,785,785,785,785,785,785,785,785,785,868,868,868,868,868,868,868,868,868,868,868,868,868,867,864,861,856,847,808,793,790,787,786,786,786,786,786,785,785,785,785,785,785,785,785,785,785,784,784,782,782,782,782,782,782,782,782,782,782,783,783,784,784,784,786,787,790,793,799,800,800,800,800,800,800,800,800,800,800,800,799,798,796,778,765,756,750,748,744,741,734,725,699,672,647,623,606,595,587,581,573,563,559,555,554,553,547,528,467],"ymouse":[490,490,490,490,490,490,490,490,490,490,490,490,490,490,490,490,490,490,490,490,490,490,490,490,490,490,490,490,490,490,490,490,490,490,490,490,490,490,490,490,490,490,490,490,490,490,490,490,490,490,448,448,448,448,448,448,448,448,448,448,448,448,448,448,448,448,449,451,456,461,462,464,464,464,464,464,464,464,464,464,465,465,466,468,469,469,469,470,470,470,470,470,470,470,470,470,471,471,472,472,472,473,473,473,473,473,473,473,473,471,470,470,470,470,469,469,469,469,467,467,464,463,460,444,434,426,420,415,403,391,368,344,294,259,226,192,169,150,122,110,103,99,98,96,96,96,96,96,96],"timestamp_mouse":[11,25,44,63,84,105,124,144,165,184,204,223,244,264,283,305,324,344,364,385,405,425,444,464,484,505,525,544,565,584,605,623,644,664,684,704,724,745,763,784,803,824,845,863,884,903,924,945,963,984,1004,1024,1045,1063,1083,1105,1125,1145,1163,1184,1204,1223,1243,1264,1284,1304,1324,1345,1364,1383,1404,1423,1445,1464,1484,1504,1525,1544,1565,1584,1604,1625,1643,1663,1684,1704,1723,1744,1764,1784,1804,1824,1844,1864,1883,1904,1924,1945,1965,1984,2004,2025,2044,2063,2083,2104,2124,2144,2165,2184,2204,2225,2243,2264,2284,2304,2324,2344,2364,2384,2404,2425,2443,2463,2485,2504,2523,2544,2564,2585,2604,2624,2645,2664,2685,2704,2724,2743,2764,2784,2804,2825,2844,2863,2884,2903,2925,2944,2964],"xSR":741.5,"ySR":449.15000000000003,"xT1":424.9,"yT1":0,"xT2":1058.1,"yT2":0,"toosoon":0,"cond_shown":"Incongruent","ratio_trial":100,"L_num":11,"L_den":22,"R_num":9,"R_den":15,"correct_side":2,"subjID":"VioletaPreciadoLozano           nr.28","gender":"1","school":"6","age":"11"},{"start_time":1551790068575,"click_time":1551790077578,"finger_time":1551790077117,"fix_duration":655.9306303441438,"trial":28,"RT":8542,"MT":461,"sideResp":2,"stimulus":[],"xmouse":[775,775,775,775,775,775,775,775,775,775,775,775,775,775,775,775,775,775,775,775,775,775,775,775,775,775,775,775,775,775,775,775,775,775,775,775,775,775,775,775,775,775,775,775,775,775,775,775,775,775,775,775,775,775,775,775,775,775,775,775,775,775,775,775,775,775,775,775,775,775,775,775,775,775,775,775,775,775,775,775,775,775,775,775,775,775,775,775,775,775,775,775,775,775,775,775,775,775,775,775,775,775,775,775,775,775,775,775,775,775,775,775,775,775,775,775,775,775,775,775,775,775,775,775,775,775,775,775,775,775,775,775,775,775,775,775,775,775,775,775,775,775,775,775,775,775,775,775,775,775,775,775,775,775,775,775,775,775,775,775,775,775,775,775,775,775,775,775,775,775,775,775,775,775,775,775,775,775,775,775,775,775,775,775,775,775,775,775,775,775,775,775,775,775,775,775,775,775,775,775,775,775,775,775,775,775,775,775,775,775,775,775,775,775,775,775,775,775,775,775,775,775,775,775,775,775,775,775,775,775,775,775,775,775,775,775,775,775,775,775,775,775,775,775,775,775,775,775,775,775,775,775,775,775,775,775,775,775,775,775,775,775,775,775,775,775,775,775,775,775,775,775,775,775,775,775,775,775,775,775,775,775,775,775,775,775,775,775,775,775,775,775,775,775,775,775,775,775,775,775,775,775,775,775,775,775,775,775,775,775,775,775,775,775,775,775,775,775,775,775,775,775,775,775,775,775,775,775,775,775,775,775,775,775,775,775,775,775,775,775,775,775,775,775,775,775,775,775,775,775,775,775,775,775,775,775,775,775,775,775,775,775,775,775,775,775,775,775,775,775,775,775,775,775,775,775,775,775,775,775,775,780,784,787,789,789,789,789,789,789,789,789,789,789,789,789,790,790,789,789,789,789,789,789,789,789,789,789,789,789,789,789,789,789,789,789,789,789,786,784,782,779,774,770,766,763,761,754,753,754,762,800,851,929,1005,1081,1193,1231,1249,1261,1263,1263,1263,1259,1249,1237,1212,1200,1186,1164,1150],"ymouse":[507,507,507,507,507,507,507,507,507,507,507,507,507,507,507,507,507,507,507,507,507,507,507,507,507,507,507,507,507,507,507,507,507,507,507,507,507,507,507,507,507,507,507,507,507,507,507,507,507,507,507,507,507,507,507,507,507,507,507,507,507,507,507,507,507,507,507,507,507,507,507,507,507,507,507,507,507,507,507,507,507,507,507,507,507,507,507,507,507,507,507,507,507,507,507,507,507,507,507,507,507,507,507,507,507,507,507,507,507,507,507,507,507,507,507,507,507,507,507,507,507,507,507,507,507,507,507,507,507,507,507,507,507,507,507,507,507,507,507,507,507,507,507,507,507,507,507,507,507,507,507,507,507,507,507,507,507,507,507,507,507,507,507,507,507,507,507,507,507,507,507,507,507,507,507,507,507,507,507,507,507,507,507,507,507,507,507,507,507,507,507,507,507,507,507,507,507,507,507,507,507,507,507,507,507,507,507,507,507,507,507,507,507,507,507,507,507,507,507,507,507,507,507,507,507,507,507,507,507,507,507,507,507,507,507,507,507,507,507,507,507,507,507,507,507,507,507,507,507,507,507,507,507,507,507,507,507,507,507,507,507,507,507,507,507,507,507,507,507,507,507,507,507,507,507,507,507,507,507,507,507,507,507,507,507,507,507,507,507,507,507,507,507,507,507,507,507,507,507,507,507,507,507,507,507,507,507,507,507,507,507,507,507,507,507,507,507,507,507,507,507,507,507,507,507,507,507,507,507,507,507,507,507,507,507,507,507,507,507,507,507,507,507,507,507,507,507,507,507,507,507,507,507,507,507,507,507,507,507,507,507,507,507,507,507,507,507,507,507,507,507,507,507,507,507,507,507,507,507,507,507,501,495,492,492,492,492,492,492,492,492,492,492,492,492,492,492,494,496,497,497,497,497,497,497,497,497,497,497,497,497,497,497,497,497,497,497,497,495,493,490,485,478,474,468,464,458,440,425,414,402,372,348,314,283,242,155,118,88,57,45,38,37,36,35,35,35,37,40,44,46],"timestamp_mouse":[10,23,42,64,84,102,123,144,163,183,204,222,243,263,283,303,323,343,363,383,403,423,443,463,483,503,523,543,562,582,602,622,642,663,682,704,722,743,763,784,803,824,842,863,883,903,923,943,963,983,1002,1023,1043,1063,1083,1103,1122,1143,1162,1184,1203,1223,1243,1262,1283,1302,1322,1343,1364,1383,1403,1424,1442,1464,1483,1504,1523,1544,1562,1583,1603,1624,1644,1662,1683,1704,1722,1744,1763,1783,1802,1823,1842,1864,1883,1903,1923,1943,1964,1984,2003,2023,2043,2064,2084,2104,2122,2144,2162,2183,2202,2223,2244,2262,2283,2303,2322,2343,2363,2383,2404,2423,2442,2463,2483,2503,2523,2543,2562,2584,2603,2622,2644,2664,2682,2704,2722,2743,2764,2783,2802,2823,2842,2864,2882,2904,2923,2942,2964,2983,3002,3023,3042,3063,3083,3102,3123,3142,3164,3182,3202,3224,3243,3264,3284,3303,3323,3344,3363,3382,3404,3422,3443,3462,3484,3502,3524,3544,3564,3583,3603,3624,3643,3664,3682,3703,3723,3743,3763,3784,3803,3823,3843,3864,3883,3903,3923,3944,3963,3982,4002,4024,4042,4063,4082,4102,4122,4143,4164,4183,4203,4223,4243,4263,4283,4303,4324,4344,4363,4383,4404,4423,4444,4464,4482,4503,4523,4544,4564,4584,4602,4623,4643,4664,4684,4703,4724,4744,4763,4782,4803,4824,4844,4864,4884,4902,4924,4944,4962,4984,5004,5024,5042,5064,5084,5103,5124,5143,5163,5184,5203,5222,5244,5263,5282,5304,5322,5344,5362,5383,5404,5423,5444,5464,5483,5504,5522,5543,5563,5582,5604,5624,5642,5664,5684,5702,5724,5744,5762,5784,5804,5822,5844,5863,5883,5904,5922,5944,5962,5983,6004,6022,6042,6063,6082,6104,6123,6142,6164,6183,6203,6224,6244,6263,6284,6303,6322,6344,6364,6382,6403,6424,6442,6463,6484,6502,6523,6542,6562,6583,6602,6623,6643,6662,6682,6702,6723,6742,6762,6783,6802,6823,6843,6864,6883,6904,6922,6942,6964,6982,7002,7022,7042,7062,7083,7103,7122,7143,7162,7182,7202,7223,7242,7263,7282,7302,7323,7342,7363,7382,7402,7423,7442,7463,7483,7503,7523,7543,7562,7582,7602,7623,7642,7663,7683,7703,7723,7742,7763,7783,7803,7823,7842,7862,7882,7903,7923,7942,7962,7982,8004,8023,8042,8062,8083,8103,8123,8142,8163,8182,8202,8222,8243,8264,8283,8302,8322,8343,8362,8382,8403,8422,8444,8463,8482,8502,8522,8542,8563,8582,8602,8623,8643,8663,8683,8703,8723,8742,8763,8782,8803,8824,8842,8862,8882,8902,8924,8942,8962,8982,9003],"xSR":741.5,"ySR":449.15000000000003,"xT1":424.9,"yT1":0,"xT2":1058.1,"yT2":0,"toosoon":0,"cond_shown":"Incongruent","ratio_trial":300,"L_num":13,"L_den":26,"R_num":12,"R_den":15,"correct_side":2,"subjID":"VioletaPreciadoLozano           nr.28","gender":"1","school":"6","age":"11"},{"start_time":1551790079255,"click_time":1551790081238,"finger_time":1551790080637,"fix_duration":737.5589942844136,"trial":29,"RT":1382,"MT":601,"sideResp":1,"stimulus":[],"xmouse":[809,809,809,809,809,809,809,809,809,809,809,809,809,809,809,809,809,809,809,809,809,809,809,809,809,809,809,809,809,809,809,809,809,809,809,809,809,809,809,809,809,809,809,809,809,809,809,809,809,809,809,809,809,809,809,809,809,809,809,809,809,809,809,809,809,809,809,808,801,792,784,774,765,724,683,658,640,599,591,590,588,587,586,581,578,575,573,571,564,559,556,552,549,544,541,539,534,530,525,519],"ymouse":[471,471,471,471,471,471,471,471,471,471,471,471,471,471,471,471,471,471,471,471,471,471,471,471,471,471,471,471,471,471,471,471,471,471,471,471,471,471,471,471,471,471,471,471,471,471,471,471,471,471,471,471,471,471,471,471,471,471,471,471,471,471,471,471,471,471,471,470,457,445,433,421,411,354,314,294,284,267,263,262,261,260,256,245,238,231,222,207,161,142,130,121,114,105,100,98,94,91,88,88],"timestamp_mouse":[10,22,42,62,83,103,124,142,163,182,204,222,243,262,282,303,323,343,364,382,402,422,443,462,482,502,523,543,562,583,602,623,642,664,683,702,723,742,763,783,802,822,843,862,882,902,922,943,962,983,1002,1022,1042,1062,1082,1102,1123,1142,1163,1184,1203,1223,1242,1263,1283,1302,1322,1343,1362,1382,1404,1424,1444,1462,1483,1502,1522,1543,1562,1583,1602,1623,1642,1662,1683,1702,1723,1742,1762,1782,1803,1822,1843,1862,1882,1903,1924,1943,1963,1983],"xSR":741.5,"ySR":449.15000000000003,"xT1":424.9,"yT1":0,"xT2":1058.1,"yT2":0,"toosoon":0,"cond_shown":"Incongruent","ratio_trial":300,"L_num":7,"L_den":10,"R_num":8,"R_den":20,"correct_side":1,"subjID":"VioletaPreciadoLozano           nr.28","gender":"1","school":"6","age":"11"},{"start_time":1551790082883,"click_time":1551790084678,"finger_time":1551790084498,"fix_duration":902.6581999782303,"trial":30,"RT":1615,"MT":180,"sideResp":1,"stimulus":[],"xmouse":[789,789,789,789,789,789,789,789,789,789,789,789,789,789,789,789,789,789,789,789,789,789,789,789,789,789,789,789,789,789,789,789,789,789,789,789,789,789,789,789,789,789,789,789,789,789,789,789,789,789,789,789,789,789,789,789,789,789,789,789,789,789,789,789,789,789,789,789,789,789,789,789,789,789,789,789,789,788,783,771,728,700,652,623,593,572,521,499,487,483],"ymouse":[518,518,518,518,518,518,518,518,518,518,518,518,518,518,518,518,518,518,518,518,518,518,518,518,518,518,518,518,518,518,518,518,518,518,518,518,518,518,518,518,518,518,518,518,518,518,518,518,518,518,518,518,518,518,518,518,518,518,518,518,518,518,518,518,518,518,518,518,518,518,518,518,518,518,518,518,518,518,514,500,451,412,344,302,259,222,150,121,103,92],"timestamp_mouse":[15,34,54,74,94,115,135,154,174,195,215,234,254,274,295,314,335,354,375,394,415,434,455,475,495,514,534,554,575,594,615,634,655,675,695,714,735,754,774,794,815,836,854,874,894,914,934,955,974,995,1016,1034,1054,1074,1094,1114,1135,1156,1175,1195,1214,1234,1254,1274,1294,1314,1334,1354,1375,1394,1414,1434,1456,1474,1495,1515,1535,1555,1575,1594,1615,1634,1654,1674,1694,1716,1734,1755,1774,1795],"xSR":741.5,"ySR":449.15000000000003,"xT1":424.9,"yT1":0,"xT2":1058.1,"yT2":0,"toosoon":0,"cond_shown":"Incongruent","ratio_trial":300,"L_num":2,"L_den":4,"R_num":6,"R_den":30,"correct_side":1,"subjID":"VioletaPreciadoLozano           nr.28","gender":"1","school":"6","age":"11"},{"start_time":1551790085793,"click_time":1551790087738,"finger_time":1551790087298,"fix_duration":335.13019155277254,"trial":31,"RT":1505,"MT":440,"sideResp":2,"stimulus":[],"xmouse":[779,779,779,779,779,779,779,779,779,779,779,779,779,779,779,779,779,779,779,779,779,779,779,779,779,779,779,779,779,779,779,779,779,779,779,779,779,779,779,779,779,779,779,779,779,779,779,779,779,779,779,779,779,779,779,779,779,779,779,779,779,779,779,779,779,779,779,779,779,779,779,779,781,787,804,883,980,1036,1076,1104,1119,1126,1126,1126,1126,1126,1125,1123,1120,1119,1119,1118,1118,1119,1120,1122,1123,1123],"ymouse":[502,502,502,502,502,502,502,502,502,502,502,502,502,502,502,502,502,502,502,502,502,502,502,502,502,502,502,502,502,502,502,502,502,502,502,502,502,502,502,502,502,502,502,502,502,502,502,502,502,502,502,502,502,502,502,502,502,502,502,502,502,502,502,502,502,502,502,502,502,502,502,502,503,502,491,438,373,329,294,264,238,204,195,190,187,187,184,178,172,163,154,136,128,122,116,108,104,98],"timestamp_mouse":[14,37,45,64,85,105,125,144,164,185,205,224,244,266,285,304,325,345,364,384,404,425,445,465,484,505,525,545,566,584,605,625,644,665,684,704,725,744,764,786,805,824,846,865,885,906,924,945,965,984,1004,1024,1044,1065,1084,1104,1125,1144,1164,1184,1204,1225,1245,1264,1284,1304,1324,1345,1364,1384,1404,1424,1444,1464,1484,1505,1525,1545,1564,1585,1604,1624,1644,1665,1684,1705,1724,1745,1764,1785,1804,1824,1844,1864,1884,1906,1924,1945],"xSR":741.5,"ySR":449.15000000000003,"xT1":424.9,"yT1":0,"xT2":1058.1,"yT2":0,"toosoon":0,"cond_shown":"Incongruent","ratio_trial":200,"L_num":1,"L_den":3,"R_num":2,"R_den":15,"correct_side":1,"subjID":"VioletaPreciadoLozano           nr.28","gender":"1","school":"6","age":"11"},{"start_time":1551790089028,"click_time":1551790091199,"finger_time":1551790090618,"fix_duration":250,"trial":32,"RT":1590,"MT":581,"sideResp":2,"stimulus":[],"xmouse":[784,784,784,784,784,784,784,784,784,784,784,784,784,784,784,784,784,784,784,784,784,784,785,785,785,785,785,785,785,785,785,785,785,785,785,785,785,785,785,785,785,785,785,785,785,785,785,785,785,785,785,785,785,785,785,785,785,785,785,785,785,785,785,785,785,785,785,785,785,785,785,785,785,785,785,785,785,785,776,765,749,731,722,714,713,713,713,713,714,726,747,787,855,926,1025,1060,1067,1071,1072,1069,1067,1067,1069,1070,1070,1070,1074,1080,1097],"ymouse":[474,474,474,475,475,475,475,475,475,475,475,475,475,475,475,475,475,475,475,475,475,475,475,475,475,475,475,475,475,475,475,475,475,475,475,475,475,475,475,475,475,475,475,475,475,475,475,475,475,475,475,475,475,475,475,475,475,475,475,475,475,475,475,475,477,477,478,478,478,478,478,478,478,478,478,478,478,478,458,437,409,384,370,355,354,352,347,342,337,317,296,287,278,268,253,243,238,229,218,190,177,167,162,158,154,145,133,119,90],"timestamp_mouse":[10,38,49,70,90,109,129,149,169,191,210,229,249,269,290,309,329,350,369,391,409,430,450,469,489,509,529,549,569,590,610,629,649,670,689,710,729,749,769,790,810,830,850,870,889,910,930,950,969,990,1009,1029,1050,1069,1089,1109,1130,1149,1169,1189,1210,1229,1249,1269,1289,1309,1331,1349,1370,1389,1409,1429,1449,1469,1490,1510,1530,1549,1570,1590,1610,1630,1649,1670,1689,1709,1730,1750,1770,1789,1809,1829,1850,1871,1890,1909,1929,1949,1970,1989,2009,2029,2049,2070,2091,2110,2129,2149,2170],"xSR":741.5,"ySR":449.15000000000003,"xT1":424.9,"yT1":0,"xT2":1058.1,"yT2":0,"toosoon":0,"cond_shown":"Incongruent","ratio_trial":100,"L_num":11,"L_den":22,"R_num":9,"R_den":15,"correct_side":2,"subjID":"VioletaPreciadoLozano           nr.28","gender":"1","school":"6","age":"11"},{"start_time":1551790092557,"click_time":1551790094417,"finger_time":1551790093897,"fix_duration":737.3723924978773,"trial":33,"RT":1340,"MT":520,"sideResp":1,"stimulus":[],"xmouse":[765,765,769,771,773,775,775,776,776,776,776,776,776,776,776,776,776,776,776,776,776,776,776,776,776,776,776,776,776,776,776,776,776,776,776,776,776,776,776,776,776,776,776,776,776,776,776,776,776,776,776,776,776,776,776,776,776,776,776,776,776,776,776,776,776,772,756,736,678,654,645,639,637,619,591,534,478,416,362,362,362,362,362,362,362,362,362,362,362,362,362,408,420,431],"ymouse":[533,533,531,530,528,526,524,524,524,524,524,524,524,524,524,524,524,524,524,524,524,524,524,524,524,524,524,524,524,524,524,524,524,524,524,524,524,524,524,524,524,524,524,524,524,524,524,524,524,524,524,524,524,524,524,524,524,524,524,524,524,524,524,524,520,513,496,468,389,355,339,327,317,292,267,215,157,77,11,11,11,11,11,11,11,11,11,11,11,11,11,16,23,32],"timestamp_mouse":[8,21,40,60,81,100,120,140,160,180,200,221,241,260,280,301,320,340,361,380,401,421,440,461,480,500,520,541,561,581,600,621,642,660,680,701,721,742,760,781,802,821,841,860,880,900,921,941,961,982,1000,1021,1040,1060,1080,1100,1121,1141,1161,1180,1200,1221,1241,1260,1280,1300,1321,1340,1361,1381,1400,1422,1441,1460,1480,1501,1520,1541,1561,1581,1600,1620,1640,1661,1681,1700,1720,1740,1760,1781,1801,1820,1840,1860],"xSR":741.5,"ySR":449.15000000000003,"xT1":424.9,"yT1":0,"xT2":1058.1,"yT2":0,"toosoon":0,"cond_shown":"Congruent","ratio_trial":100,"L_num":2,"L_den":5,"R_num":6,"R_den":12,"correct_side":2,"subjID":"VioletaPreciadoLozano           nr.28","gender":"1","school":"6","age":"11"},{"start_time":1551790096238,"click_time":1551790098017,"finger_time":1551790097637,"fix_duration":879.0746730802927,"trial":34,"RT":1399,"MT":380,"sideResp":1,"stimulus":[],"xmouse":[805,805,805,805,805,805,805,805,805,805,805,805,805,805,805,805,805,805,805,805,805,805,805,805,805,805,805,805,805,805,805,805,805,805,805,805,805,805,805,805,805,805,805,805,805,805,805,805,805,805,805,805,805,805,805,805,805,805,805,803,801,800,799,798,798,798,796,795,774,752,722,693,668,633,607,596,588,575,568,563,560,557,552,549,544,541,535,528,518],"ymouse":[515,515,515,515,515,515,515,515,515,515,515,515,515,515,515,515,515,515,515,515,515,515,515,515,515,515,515,515,515,515,515,515,515,515,515,515,515,515,515,515,515,515,515,515,515,515,515,515,515,515,515,515,515,515,515,515,515,515,515,510,506,503,501,499,498,498,495,492,466,436,403,374,356,308,262,243,228,204,189,180,174,165,150,141,126,119,113,105,97],"timestamp_mouse":[19,46,59,79,99,120,139,160,180,199,220,239,260,280,299,320,339,359,380,399,420,439,459,480,499,520,541,559,580,600,619,640,660,680,699,720,741,760,779,801,820,841,859,880,899,919,940,959,980,999,1019,1040,1059,1080,1100,1120,1139,1160,1181,1199,1219,1239,1260,1279,1300,1319,1340,1359,1379,1399,1420,1441,1460,1479,1500,1520,1539,1560,1579,1599,1619,1640,1660,1679,1700,1719,1739,1760,1779],"xSR":741.5,"ySR":449.15000000000003,"xT1":424.9,"yT1":0,"xT2":1058.1,"yT2":0,"toosoon":0,"cond_shown":"Congruent","ratio_trial":200,"L_num":16,"L_den":30,"R_num":9,"R_den":27,"correct_side":1,"subjID":"VioletaPreciadoLozano           nr.28","gender":"1","school":"6","age":"11"},{"start_time":1551790099852,"click_time":1551790102077,"finger_time":1551790101138,"fix_duration":934.681616042473,"trial":35,"RT":1286,"MT":939,"sideResp":2,"stimulus":[],"xmouse":[809,809,809,809,809,809,809,809,809,809,809,809,809,809,809,809,809,809,809,809,809,809,809,809,809,809,809,809,809,809,809,809,809,809,809,809,809,809,809,809,809,809,809,809,809,809,809,809,809,809,809,809,809,809,809,809,809,809,809,809,808,807,802,783,747,701,650,586,573,570,568,568,568,568,567,566,564,562,560,560,559,558,558,558,558,558,558,558,558,560,573,594,627,733,830,886,927,958,996,1004,1008,1008,1010,1017,1023,1033,1040,1051,1057,1064,1070,1074],"ymouse":[498,498,498,498,498,498,498,498,498,498,498,498,498,498,498,498,498,498,498,498,498,498,498,498,498,498,498,498,498,498,498,498,498,498,498,498,498,498,498,498,498,498,498,498,498,498,498,498,498,498,498,498,498,498,498,498,498,498,498,498,497,494,487,456,404,353,298,243,229,225,219,219,219,219,217,200,191,182,179,175,173,170,169,167,167,167,167,166,166,166,166,170,175,189,202,205,205,205,198,194,191,189,184,173,167,157,148,131,120,111,101,96],"timestamp_mouse":[9,26,46,66,85,107,125,146,167,186,207,226,246,265,285,307,326,345,365,385,407,426,445,466,486,506,526,545,566,586,606,626,646,667,686,706,725,747,765,786,806,826,845,866,885,907,926,945,965,986,1006,1026,1046,1065,1086,1106,1127,1146,1165,1185,1205,1227,1246,1265,1286,1306,1326,1347,1365,1386,1406,1426,1446,1467,1486,1506,1526,1546,1565,1585,1606,1625,1645,1665,1686,1705,1725,1745,1765,1786,1805,1826,1845,1865,1886,1907,1925,1945,1965,1986,2005,2026,2045,2066,2085,2107,2125,2146,2165,2185,2206,2225],"xSR":741.5,"ySR":449.15000000000003,"xT1":424.9,"yT1":0,"xT2":1058.1,"yT2":0,"toosoon":0,"cond_shown":"Incongruent","ratio_trial":100,"L_num":8,"L_den":16,"R_num":6,"R_den":10,"correct_side":2,"subjID":"VioletaPreciadoLozano           nr.28","gender":"1","school":"6","age":"11"},{"start_time":1551790103285,"click_time":1551790105198,"finger_time":1551790104539,"fix_duration":407.04726589591166,"trial":36,"RT":1254,"MT":659,"sideResp":2,"stimulus":[],"xmouse":[790,790,790,790,790,790,790,790,790,790,790,790,790,790,790,790,790,790,790,790,790,790,790,790,790,790,790,790,790,790,790,790,790,790,790,790,790,790,790,790,790,790,790,790,790,790,790,790,790,790,790,790,790,790,790,790,790,790,790,790,793,835,845,871,883,887,888,892,902,920,997,1034,1062,1066,1066,1060,1059,1059,1064,1071,1077,1079,1079,1079,1079,1079,1079,1079,1079,1079,1079,1082,1084,1086,1087,1088],"ymouse":[519,519,519,519,519,519,519,519,519,519,519,519,519,519,519,519,519,519,519,519,519,519,519,519,519,519,519,519,519,519,519,519,519,519,519,519,519,519,519,519,519,519,519,519,519,519,519,519,519,519,519,519,519,519,519,519,519,519,519,519,519,499,495,485,482,480,478,472,453,423,312,269,227,213,207,201,200,196,186,166,145,138,130,130,130,130,130,130,130,129,127,119,114,105,100,97],"timestamp_mouse":[13,32,63,72,92,112,132,152,172,193,212,232,252,272,294,314,332,352,372,392,413,432,452,472,492,513,532,552,574,593,612,632,653,672,692,712,732,752,772,792,812,832,852,872,894,912,934,952,974,993,1013,1032,1053,1073,1093,1113,1134,1153,1173,1193,1213,1232,1254,1272,1293,1313,1332,1353,1372,1393,1414,1432,1453,1472,1492,1513,1533,1553,1573,1593,1614,1632,1653,1673,1693,1713,1732,1752,1772,1793,1813,1832,1852,1872,1892,1913],"xSR":741.5,"ySR":449.15000000000003,"xT1":424.9,"yT1":0,"xT2":1058.1,"yT2":0,"toosoon":0,"cond_shown":"Congruent","ratio_trial":100,"L_num":1,"L_den":2,"R_num":3,"R_den":5,"correct_side":2,"subjID":"VioletaPreciadoLozano           nr.28","gender":"1","school":"6","age":"11"},{"start_time":1551790107098,"click_time":1551790108678,"finger_time":1551790108398,"fix_duration":938.3705520447013,"trial":37,"RT":1300,"MT":280,"sideResp":2,"stimulus":[],"xmouse":[794,794,794,794,794,794,794,794,794,794,794,794,794,794,794,794,794,794,794,794,794,794,794,794,794,794,794,794,794,794,794,794,794,794,794,794,794,794,794,794,794,794,794,794,794,794,794,794,794,794,794,794,794,794,794,794,794,794,794,795,795,796,798,801,808,831,857,888,920,951,993,1004,1013,1019,1025,1047,1062,1076,1089,1093],"ymouse":[504,504,504,504,504,504,504,504,504,504,504,504,504,504,504,504,504,504,504,504,504,504,504,504,504,504,504,504,504,504,504,504,504,504,504,504,504,504,504,504,504,504,504,504,504,504,504,504,504,504,504,504,504,504,504,504,504,504,504,504,504,502,500,493,482,441,403,361,323,286,233,214,196,188,181,155,137,120,105,99],"timestamp_mouse":[1,19,42,60,79,99,119,139,160,179,199,219,240,261,280,299,320,340,359,381,399,420,440,461,479,499,520,539,559,580,600,619,640,659,679,699,720,739,759,780,799,819,840,860,880,900,919,940,959,979,999,1019,1039,1060,1079,1099,1120,1139,1159,1180,1200,1219,1240,1259,1280,1300,1319,1340,1359,1379,1400,1419,1439,1459,1479,1501,1519,1541,1561,1580],"xSR":741.5,"ySR":449.15000000000003,"xT1":424.9,"yT1":0,"xT2":1058.1,"yT2":0,"toosoon":0,"cond_shown":"Congruent","ratio_trial":300,"L_num":20,"L_den":25,"R_num":13,"R_den":26,"correct_side":1,"subjID":"VioletaPreciadoLozano           nr.28","gender":"1","school":"6","age":"11"},{"start_time":1551790111390,"click_time":1551790113138,"finger_time":1551790112817,"fix_duration":250,"trial":38,"RT":1427,"MT":321,"sideResp":1,"stimulus":[],"xmouse":[777,777,777,777,777,777,777,777,777,777,777,777,777,777,777,777,777,777,777,777,777,777,777,777,777,777,777,777,777,777,777,777,777,777,777,777,777,777,777,777,777,777,777,777,777,777,777,777,777,777,777,777,777,777,777,777,777,777,777,777,777,777,777,777,777,777,777,777,777,777,769,760,748,740,732,726,706,671,643,620,601,587,586,585,584,578,547,519],"ymouse":[499,499,499,499,499,499,499,499,499,499,499,499,499,499,499,499,499,499,499,499,499,499,499,499,499,499,499,499,499,499,499,499,499,499,499,499,499,499,499,499,499,499,499,499,499,499,499,499,499,499,499,499,499,499,499,499,499,499,499,499,499,499,499,499,499,499,499,499,499,497,475,449,405,342,282,236,167,125,105,90,79,68,66,64,63,60,55,55],"timestamp_mouse":[8,43,47,67,88,108,127,147,167,188,208,229,247,267,288,308,327,348,367,387,407,428,448,467,487,507,527,547,567,587,607,627,647,668,687,707,727,748,767,788,808,827,848,867,889,907,928,947,967,988,1008,1028,1048,1067,1088,1107,1127,1147,1167,1187,1208,1229,1247,1268,1288,1309,1328,1347,1369,1388,1408,1427,1447,1467,1487,1509,1528,1547,1567,1588,1608,1627,1647,1668,1688,1708,1728,1748],"xSR":741.5,"ySR":449.15000000000003,"xT1":424.9,"yT1":0,"xT2":1058.1,"yT2":0,"toosoon":0,"cond_shown":"Incongruent","ratio_trial":100,"L_num":3,"L_den":9,"R_num":7,"R_den":30,"correct_side":1,"subjID":"VioletaPreciadoLozano           nr.28","gender":"1","school":"6","age":"11"},{"start_time":1551790114974,"click_time":1551790116899,"finger_time":1551790116417,"fix_duration":875.0126972628307,"trial":39,"RT":1443,"MT":482,"sideResp":1,"stimulus":[],"xmouse":[806,806,806,806,806,806,806,806,806,806,806,806,806,806,806,806,806,806,806,806,806,806,806,806,806,806,806,806,806,806,806,806,806,806,806,806,806,806,806,806,806,806,806,806,806,806,806,806,806,806,806,806,806,806,806,806,806,806,806,806,806,806,806,806,806,806,806,806,806,806,806,806,805,801,791,772,717,687,657,633,624,616,608,606,605,604,604,602,598,595,591,570,557,542,535,530,521],"ymouse":[497,497,497,497,497,497,497,497,497,497,497,497,497,497,497,497,497,497,497,497,497,497,497,497,497,497,497,497,497,497,497,497,497,497,497,497,497,497,497,497,497,497,497,497,497,497,497,497,497,497,497,497,497,497,497,497,497,497,497,497,497,497,497,497,497,497,497,497,497,497,490,465,408,383,361,333,284,266,249,232,224,214,200,195,192,188,186,178,169,160,148,121,112,103,99,94,88],"timestamp_mouse":[12,23,44,63,83,103,124,145,163,185,203,224,243,263,284,305,324,344,363,383,403,423,443,464,483,503,524,543,563,584,603,623,643,663,684,703,725,744,763,785,804,823,845,864,885,903,923,943,963,984,1003,1024,1043,1063,1083,1104,1123,1144,1163,1184,1204,1223,1243,1263,1285,1303,1324,1343,1364,1383,1403,1423,1443,1463,1484,1503,1524,1543,1564,1583,1604,1624,1643,1663,1683,1705,1723,1743,1763,1783,1803,1824,1844,1864,1884,1904,1925],"xSR":741.5,"ySR":449.15000000000003,"xT1":424.9,"yT1":0,"xT2":1058.1,"yT2":0,"toosoon":0,"cond_shown":"Incongruent","ratio_trial":300,"L_num":13,"L_den":26,"R_num":12,"R_den":15,"correct_side":2,"subjID":"VioletaPreciadoLozano           nr.28","gender":"1","school":"6","age":"11"},{"start_time":1551790120850,"click_time":1551790123819,"finger_time":1551790122517,"fix_duration":250,"trial":40,"RT":1667,"MT":1302,"sideResp":2,"stimulus":[],"xmouse":[773,773,773,773,773,773,773,773,773,773,773,773,773,773,773,773,773,773,773,773,773,773,773,773,773,773,773,773,773,773,773,773,773,773,773,773,773,773,773,773,773,773,773,773,773,773,773,773,773,773,773,773,773,773,773,773,773,773,773,773,773,773,773,773,773,773,773,773,773,773,773,773,773,773,773,773,773,773,773,773,772,770,748,723,702,681,664,642,637,629,625,622,620,619,615,615,615,612,571,533,503,481,466,465,465,465,465,465,465,465,465,465,465,465,465,465,465,465,465,465,466,466,469,489,505,531,565,632,660,690,724,767,814,917,971,993,1009,1022,1024,1025,1025,1026,1028,1045,1063,1074,1082,1091,1094],"ymouse":[513,513,513,513,513,513,513,513,513,513,513,513,513,513,513,513,513,513,513,513,513,513,513,513,513,513,513,513,513,513,513,513,513,513,513,513,513,513,513,513,513,513,513,513,513,513,513,513,513,513,513,513,513,513,513,513,513,513,513,513,513,513,513,513,513,513,513,513,513,513,513,513,513,513,513,513,513,513,513,513,512,511,494,465,430,389,346,277,248,216,192,168,132,122,112,112,112,111,111,111,111,111,109,108,108,108,108,108,108,107,107,106,105,105,105,105,105,105,104,105,112,118,130,172,192,216,237,263,270,275,277,277,277,256,237,225,213,191,180,169,158,151,145,138,129,120,113,105,97],"timestamp_mouse":[10,31,48,67,88,107,127,148,167,187,207,227,247,267,288,307,327,349,367,387,407,428,449,467,488,507,528,547,567,588,609,628,648,667,687,708,727,749,767,787,808,827,849,868,887,907,927,947,968,988,1007,1027,1047,1068,1087,1107,1127,1147,1167,1187,1207,1227,1248,1267,1288,1308,1327,1347,1367,1388,1407,1427,1448,1468,1488,1508,1529,1547,1567,1588,1609,1628,1648,1667,1687,1707,1727,1748,1767,1788,1808,1829,1849,1867,1888,1907,1927,1947,1967,1987,2008,2027,2049,2067,2087,2107,2129,2148,2167,2187,2207,2228,2249,2267,2287,2309,2327,2348,2367,2388,2407,2427,2449,2468,2487,2507,2527,2549,2567,2588,2608,2627,2647,2667,2687,2707,2727,2749,2767,2787,2808,2828,2847,2867,2887,2908,2927,2947,2969],"xSR":741.5,"ySR":449.15000000000003,"xT1":424.9,"yT1":0,"xT2":1058.1,"yT2":0,"toosoon":0,"cond_shown":"Incongruent","ratio_trial":100,"L_num":8,"L_den":16,"R_num":6,"R_den":10,"correct_side":2,"subjID":"VioletaPreciadoLozano           nr.28","gender":"1","school":"6","age":"11"},{"start_time":1551790127289,"click_time":1551790128698,"finger_time":1551790128578,"fix_duration":250,"trial":41,"RT":1289,"MT":120,"sideResp":2,"stimulus":[],"xmouse":[777,777,777,777,777,777,777,777,777,777,777,777,777,777,777,777,777,777,777,777,777,777,777,777,777,777,777,777,777,777,777,777,777,777,777,777,777,777,777,777,776,774,774,773,773,773,773,773,773,773,773,773,773,773,773,773,773,773,773,773,773,776,781,793,816,849,934,975,1016,1044,1062],"ymouse":[523,523,523,523,523,523,523,523,523,523,523,523,523,523,523,523,523,523,523,523,523,523,523,523,523,523,523,523,523,523,523,523,523,523,523,523,523,523,523,523,523,520,518,517,517,517,517,517,517,517,517,517,517,517,517,517,517,517,517,517,516,499,480,455,410,359,246,195,147,111,84],"timestamp_mouse":[8,41,49,69,90,109,128,148,168,189,208,228,248,269,289,309,330,348,369,388,409,428,449,469,489,508,528,548,568,589,608,628,648,668,688,709,728,748,768,788,810,828,848,868,889,908,928,948,968,988,1009,1028,1049,1068,1088,1108,1129,1148,1168,1188,1208,1228,1249,1269,1289,1308,1329,1349,1368,1390,1409],"xSR":741.5,"ySR":449.15000000000003,"xT1":424.9,"yT1":0,"xT2":1058.1,"yT2":0,"toosoon":0,"cond_shown":"Congruent","ratio_trial":300,"L_num":4,"L_den":20,"R_num":13,"R_den":26,"correct_side":2,"subjID":"VioletaPreciadoLozano           nr.28","gender":"1","school":"6","age":"11"},{"start_time":1551790130090,"click_time":1551790132077,"finger_time":1551790131658,"fix_duration":609.2213455145061,"trial":42,"RT":1568,"MT":419,"sideResp":1,"stimulus":[],"xmouse":[799,799,799,799,799,799,799,799,799,799,799,799,799,799,799,799,799,799,799,799,799,799,799,799,799,799,799,799,799,799,799,799,799,799,799,799,799,799,799,799,799,799,799,799,799,799,799,799,799,799,799,799,799,799,799,799,799,799,799,799,799,799,799,799,799,799,799,799,799,799,799,799,799,799,799,799,800,800,801,804,814,816,808,772,737,694,626,597,574,546,509,503,503,503,503,503,502,500,500,500],"ymouse":[502,502,502,502,502,502,502,502,502,502,502,502,502,502,502,502,502,502,502,502,502,502,502,502,502,502,502,502,502,502,502,502,502,502,502,502,502,502,502,502,502,502,502,502,502,502,502,502,502,502,502,502,502,502,502,502,502,502,502,502,502,502,502,502,502,502,502,502,502,502,502,501,501,500,500,497,487,468,447,424,365,329,313,272,249,225,180,164,150,135,114,110,108,107,107,106,105,102,100,99],"timestamp_mouse":[8,29,47,68,87,108,127,147,169,188,207,228,247,268,287,308,328,348,368,388,409,427,447,467,487,509,527,548,568,587,608,627,648,668,688,708,727,748,768,788,809,827,848,867,887,908,928,947,968,988,1008,1028,1048,1069,1088,1108,1128,1148,1167,1188,1209,1228,1248,1268,1288,1309,1328,1348,1368,1387,1407,1429,1447,1468,1487,1508,1528,1548,1568,1588,1608,1627,1648,1667,1688,1707,1727,1747,1767,1787,1808,1827,1848,1869,1887,1908,1927,1948,1967,1987],"xSR":741.5,"ySR":449.15000000000003,"xT1":424.9,"yT1":0,"xT2":1058.1,"yT2":0,"toosoon":0,"cond_shown":"Incongruent","ratio_trial":300,"L_num":13,"L_den":26,"R_num":12,"R_den":15,"correct_side":2,"subjID":"VioletaPreciadoLozano           nr.28","gender":"1","school":"6","age":"11"},{"start_time":1551790133967,"click_time":1551790136297,"finger_time":1551790135556,"fix_duration":849.4514636793467,"trial":43,"RT":1589,"MT":741,"sideResp":1,"stimulus":[],"xmouse":[774,774,774,774,774,774,774,774,774,774,774,774,774,774,774,774,774,774,774,774,774,774,774,774,774,774,774,774,774,774,774,774,774,774,774,774,774,774,774,774,774,774,774,774,774,774,774,774,774,774,774,774,774,774,774,774,774,774,774,774,774,774,774,774,774,774,774,774,774,774,774,774,774,774,774,774,783,812,832,909,974,1021,1075,1080,1082,1082,1081,1073,1066,1060,1053,1031,1014,986,945,902,850,750,700,678,653,623,562,545,540,540,544,550,552,552,552,552,550,545,538,530,520],"ymouse":[514,514,514,514,514,514,514,514,514,514,514,514,514,514,514,514,514,514,514,514,514,514,514,514,514,514,514,514,514,514,514,514,514,514,514,514,514,514,514,514,514,514,514,514,514,514,514,514,514,514,514,514,514,514,514,514,514,514,514,514,514,514,514,514,514,514,514,514,514,514,514,514,514,514,514,514,507,482,465,395,339,303,250,240,230,224,218,215,214,214,214,225,234,254,283,320,355,421,432,424,390,322,187,137,101,75,37,21,17,14,13,12,12,11,11,11,11],"timestamp_mouse":[10,39,50,70,90,110,130,151,170,190,212,230,251,271,290,310,330,350,370,391,410,430,451,470,491,510,530,551,570,591,611,630,651,670,690,711,730,750,770,790,811,832,850,870,891,910,930,951,970,990,1011,1031,1050,1070,1090,1110,1130,1149,1170,1190,1210,1230,1250,1271,1291,1311,1330,1351,1369,1391,1410,1431,1450,1471,1491,1510,1531,1550,1571,1589,1611,1631,1650,1670,1690,1710,1731,1750,1770,1791,1810,1832,1850,1870,1890,1909,1930,1950,1970,1991,2009,2030,2051,2070,2090,2111,2131,2150,2171,2190,2211,2230,2251,2271,2291,2311,2330],"xSR":741.5,"ySR":449.15000000000003,"xT1":424.9,"yT1":0,"xT2":1058.1,"yT2":0,"toosoon":0,"cond_shown":"Incongruent","ratio_trial":100,"L_num":3,"L_den":5,"R_num":11,"R_den":22,"correct_side":1,"subjID":"VioletaPreciadoLozano           nr.28","gender":"1","school":"6","age":"11"},{"start_time":1551790138949,"click_time":1551790140798,"finger_time":1551790140558,"fix_duration":270.5122375934521,"trial":44,"RT":1609,"MT":240,"sideResp":1,"stimulus":[],"xmouse":[775,775,775,775,775,775,775,775,775,775,775,775,775,775,775,775,775,775,775,775,775,775,775,775,775,775,775,775,775,775,775,775,775,775,775,775,775,775,775,775,775,775,775,775,775,775,775,775,775,775,775,775,775,775,775,775,775,775,775,775,775,775,775,775,775,775,775,774,775,776,776,776,776,776,776,776,776,775,775,769,749,730,712,675,661,640,616,558,543,532,530,527,523],"ymouse":[496,496,496,496,496,496,496,496,496,496,496,496,496,496,496,496,496,496,496,496,496,496,496,496,496,496,496,496,496,496,496,496,496,496,496,496,496,496,496,496,496,496,496,496,496,496,496,496,496,496,496,496,496,496,496,496,496,496,496,496,496,496,496,496,496,496,496,492,486,479,478,478,478,478,478,478,477,477,477,471,449,425,405,356,330,296,260,186,165,141,129,112,82],"timestamp_m