[{"start_time":1551790589320,"click_time":1551790594719,"finger_time":1551790594338,"fix_duration":1277.3785579676185,"trial":0,"RT":5018,"MT":381,"sideResp":2,"stimulus":"img/900/randomdotsizeEA/R/15_Ratio_900_L_9_R_10.png","xmouse":[802,802,802,802,802,802,802,802,802,802,802,802,802,802,802,802,802,802,802,802,802,802,802,802,802,802,802,802,802,802,801,801,801,801,801,801,801,801,801,801,801,801,801,801,801,801,801,801,801,801,801,801,801,801,801,801,801,801,801,801,801,801,801,801,802,804,809,809,809,809,809,809,809,809,809,809,809,808,808,808,808,808,808,808,808,808,808,808,808,808,808,808,808,808,808,808,808,808,808,808,808,808,808,808,808,808,808,806,803,798,797,797,797,797,796,794,793,793,793,792,792,792,792,792,792,792,792,792,792,792,792,792,792,792,792,792,792,792,792,793,793,793,793,793,793,793,793,793,793,793,793,793,793,793,793,793,793,793,793,793,793,793,793,793,793,793,793,793,793,793,793,793,793,793,793,793,793,793,793,793,793,793,793,793,793,793,793,793,793,793,793,793,793,793,793,793,793,793,793,793,793,793,793,793,793,793,793,793,793,793,793,793,793,793,793,793,793,793,793,793,793,793,793,793,793,793,793,793,793,793,793,793,793,793,793,793,793,793,793,793,793,793,793,793,793,793,793,793,793,795,796,800,801,802,807,818,827,841,861,900,918,947,969,991,1024,1031,1033,1034,1036,1058,1096],"ymouse":[519,519,520,520,520,520,520,520,522,524,524,524,524,524,524,524,524,524,524,524,524,524,524,524,524,524,524,524,527,538,541,541,541,541,541,541,541,541,541,541,541,541,541,541,541,541,541,541,541,541,541,541,541,541,541,541,541,541,541,541,541,541,540,536,521,510,492,491,490,487,482,481,481,481,481,481,486,488,489,489,489,489,489,489,489,489,489,489,489,489,489,489,489,489,489,489,489,489,489,489,489,489,489,489,489,489,489,491,491,491,491,491,491,491,491,490,487,487,487,486,486,486,486,486,486,486,486,486,486,486,486,486,486,486,486,486,486,486,486,485,485,485,485,485,485,485,485,485,485,485,485,485,485,485,485,485,485,485,485,485,485,485,485,485,485,485,485,485,485,485,485,485,485,485,485,485,485,485,485,485,485,485,485,485,485,485,485,485,485,485,485,485,485,485,485,485,485,485,485,485,485,485,485,485,485,485,485,485,485,485,485,485,485,485,485,485,485,485,485,485,485,485,485,485,485,485,485,485,485,485,485,485,485,485,485,485,485,485,485,485,485,485,485,485,485,485,485,485,485,483,467,448,433,412,361,330,301,266,229,161,125,70,41,24,13,11,11,10,10,12,26],"timestamp_mouse":[9,17,54,58,78,98,118,138,158,178,198,219,238,258,279,299,319,338,359,379,398,417,438,459,477,499,519,539,558,578,598,619,639,657,679,697,718,739,758,778,798,818,837,858,878,898,918,939,958,978,999,1019,1037,1058,1078,1098,1117,1138,1158,1177,1199,1219,1238,1259,1278,1298,1317,1338,1358,1377,1398,1418,1438,1457,1479,1498,1518,1537,1558,1579,1597,1619,1639,1658,1678,1698,1719,1738,1757,1778,1798,1819,1838,1859,1878,1899,1918,1937,1959,1978,1998,2018,2039,2059,2078,2098,2119,2138,2158,2177,2199,2218,2239,2258,2279,2298,2318,2337,2357,2379,2399,2418,2437,2459,2478,2498,2518,2537,2559,2577,2598,2619,2637,2658,2677,2699,2717,2738,2759,2778,2798,2819,2839,2858,2878,2899,2917,2939,2958,2977,2998,3018,3039,3058,3077,3098,3118,3139,3158,3178,3198,3218,3238,3257,3279,3297,3318,3338,3358,3379,3398,3419,3439,3458,3479,3499,3518,3538,3557,3579,3599,3617,3638,3659,3677,3699,3718,3739,3759,3777,3798,3818,3838,3859,3878,3899,3919,3939,3958,3979,3997,4018,4038,4057,4079,4098,4118,4139,4157,4178,4199,4219,4238,4259,4279,4299,4319,4339,4358,4379,4398,4418,4438,4457,4477,4499,4519,4538,4559,4578,4598,4618,4637,4659,4678,4697,4718,4739,4758,4778,4799,4819,4839,4858,4879,4898,4919,4938,4958,4978,4998,5018,5038,5058,5078,5097,5118,5138,5158,5178,5199,5218,5238,5258,5277,5297,5318,5338,5358,5377,5398],"xSR":741.5,"ySR":449.15000000000003,"xT1":424.9,"yT1":0,"xT2":1058.1,"yT2":0,"toosoon":0,"cond_shown":"randomdotsizeEA","ratio_trial":900,"smaller_num":"9","larger_num":"10","correct_side":2,"subjID":"VioletaPreciadoLozano","gender":"1","age":"11","school":"6","test":{"fix_dur":[250,1500],"timestim":300,"targets_dim":[100,100],"targets_relative_coord":[0.3,0.7],"size_stim":[880,420],"start_dim":[100,100],"size_start":[300,300],"size_fix":60,"samplingrate":20,"img_types":["equaldotsize","equaldotanddens","randomdotsizeEA"],"ratios":[250,500,750,900],"rep_conds":9,"nTrials":120,"trials_to_rest":500,"Trials_order":[23,34,110,11,46,45,44,33,82,104,62,14,22,31,105,118,88,64,3,84,71,2,72,101,87,30,35,40,89,107,16,102,61,56,54,26,83,65,68,41,114,86,78,51,13,42,93,32,7,15,55,12,58,108,85,10,79,100,57,37,106,96,17,74,24,98,47,25,36,111,113,21,20,39,80,4,66,109,92,99,119,49,91,28,27,70,60,69,103,117,29,116,38,81,1,97,9,75,77,43,18,5,67,63,48,8,115,95,50,6,112,59,76,53,94,90,73,19,52,0],"cond_shown":["randomdotsizeEA","equaldotanddens","randomdotsizeEA","randomdotsizeEA","equaldotanddens","equaldotsize","randomdotsizeEA","equaldotsize","equaldotanddens","randomdotsizeEA","randomdotsizeEA","randomdotsizeEA","equaldotanddens","equaldotanddens","equaldotsize","equaldotanddens","equaldotanddens","equaldotanddens","equaldotsize","equaldotsize","randomdotsizeEA","randomdotsizeEA","equaldotsize","randomdotsizeEA","equaldotsize","equaldotsize","randomdotsizeEA","equaldotanddens","randomdotsizeEA","randomdotsizeEA","equaldotanddens","equaldotsize","equaldotanddens","randomdotsizeEA","equaldotsize","randomdotsizeEA","randomdotsizeEA","randomdotsizeEA","randomdotsizeEA","randomdotsizeEA","equaldotsize","randomdotsizeEA","equaldotsize","equaldotsize","equaldotanddens","equaldotsize","equaldotsize","randomdotsizeEA","equaldotanddens","equaldotsize","equaldotanddens","equaldotsize","equaldotanddens","equaldotsize","equaldotanddens","equaldotanddens","equaldotanddens","equaldotanddens","equaldotsize","equaldotanddens","equaldotanddens","equaldotsize","randomdotsizeEA","randomdotsizeEA","equaldotsize","randomdotsizeEA","randomdotsizeEA","equaldotanddens","equaldotsize","equaldotsize","randomdotsizeEA","equaldotsize","randomdotsizeEA","equaldotsize","randomdotsizeEA","equaldotanddens","equaldotsize","equaldotanddens","randomdotsizeEA","equaldotsize","randomdotsizeEA","equaldotanddens","equaldotanddens","equaldotanddens","equaldotsize","equaldotanddens","equaldotsize","equaldotsize","equaldotanddens","equaldotsize","randomdotsizeEA","randomdotsizeEA","randomdotsizeEA","equaldotsize","equaldotanddens","equaldotanddens","equaldotsize","equaldotsize","randomdotsizeEA","equaldotanddens","equaldotsize","randomdotsizeEA","equaldotanddens","equaldotsize","equaldotsize","randomdotsizeEA","equaldotanddens","randomdotsizeEA","randomdotsizeEA","equaldotsize","equaldotanddens","randomdotsizeEA","equaldotanddens","randomdotsizeEA","equaldotanddens","equaldotsize","equaldotanddens","equaldotanddens","equaldotanddens","equaldotsize"],"ratio_trial":[900,900,250,900,900,900,750,900,900,750,250,250,900,750,900,900,500,500,500,250,900,250,250,500,500,750,900,500,500,900,500,750,250,750,750,250,900,500,750,500,750,250,750,500,250,750,900,750,750,500,750,250,900,250,250,900,750,500,900,250,900,250,500,250,250,250,900,250,250,500,500,900,750,500,750,500,750,250,750,500,900,250,750,500,500,900,250,900,750,900,500,750,250,900,250,250,900,500,500,750,750,500,750,500,250,750,750,900,250,750,500,900,500,500,900,750,250,750,500,250],"smaller_num":["9","18","3","9","18","18","3","9","18","18","2","3","9","3","9","9","9","9","5","3","18","1","6","9","9","15","9","6","5","9","5","3","2","3","15","4","9","9","3","5","6","4","15","1","2","12","18","3","15","1","3","6","18","3","3","18","6","9","18","2","18","2","5","4","3","5","9","3","3","4","9","9","3","6","3","6","15","3","15","2","18","2","12","6","3","9","5","9","15","18","9","15","2","9","2","2","18","2","6","3","15","4","15","2","2","6","12","9","3","18","2","9","2","1","18","3","2","9","9","4"],"larger_num":["10","20","12","10","20","20","4","10","20","24","8","12","10","4","10","10","18","18","10","12","20","4","24","18","18","20","10","12","10","10","10","4","8","4","20","16","10","18","4","10","8","16","20","2","8","16","20","4","20","2","4","24","20","12","12","20","8","18","20","8","20","8","10","16","12","20","10","12","12","8","18","10","4","12","4","12","20","12","20","4","20","8","16","12","6","10","20","10","20","20","18","20","8","10","8","8","20","4","12","4","20","8","20","4","8","8","16","10","12","24","4","10","4","2","20","4","8","12","18","16"],"correct_side":[2,2,1,1,2,1,1,2,2,1,1,1,2,1,1,2,2,2,2,1,2,2,1,2,1,1,1,1,1,2,2,2,1,2,2,1,2,1,1,1,1,2,2,2,1,2,2,1,2,2,1,2,1,2,2,1,1,2,1,1,1,1,2,1,1,2,2,2,1,1,1,1,2,1,2,1,1,2,1,1,1,1,2,1,2,2,2,2,2,1,2,2,1,1,2,1,1,1,1,2,2,1,2,1,1,1,2,2,2,1,1,1,1,2,1,1,1,2,2,1],"img_shown":["img/900/randomdotsizeEA/R/15_Ratio_900_L_9_R_10.png","img/900/equaldotanddens/R/14_Ratio_900_L_18_R_20.png","img/250/randomdotsizeEA/L/14_Ratio_250_L_12_R_3.png","img/900/randomdotsizeEA/L/1_Ratio_900_L_10_R_9.png","img/900/equaldotanddens/R/13_Ratio_900_L_18_R_20.png","img/900/equaldotsize/L/10_Ratio_900_L_20_R_18.png","img/750/randomdotsizeEA/L/10_Ratio_750_L_4_R_3.png","img/900/equaldotsize/R/6_Ratio_900_L_9_R_10.png","img/900/equaldotanddens/R/13_Ratio_900_L_18_R_20.png","img/750/randomdotsizeEA/L/6_Ratio_750_L_24_R_18.png","img/250/randomdotsizeEA/L/3_Ratio_250_L_8_R_2.png","img/250/randomdotsizeEA/L/15_Ratio_250_L_12_R_3.png","img/900/equaldotanddens/R/15_Ratio_900_L_9_R_10.png","img/750/equaldotanddens/L/9_Ratio_750_L_4_R_3.png","img/900/equaldotsize/L/1_Ratio_900_L_10_R_9.png","img/900/equaldotanddens/R/6_Ratio_900_L_9_R_10.png","img/500/equaldotanddens/R/6_Ratio_500_L_9_R_18.png","img/500/equaldotanddens/R/1_Ratio_500_L_9_R_18.png","img/500/equaldotsize/R/14_Ratio_500_L_5_R_10.png","img/250/equaldotsize/L/15_Ratio_250_L_12_R_3.png","img/900/randomdotsizeEA/R/11_Ratio_900_L_18_R_20.png","img/250/randomdotsizeEA/R/8_Ratio_250_L_1_R_4.png","img/250/equaldotsize/L/5_Ratio_250_L_24_R_6.png","img/500/randomdotsizeEA/R/6_Ratio_500_L_9_R_18.png","img/500/equaldotsize/L/4_Ratio_500_L_18_R_9.png","img/750/equaldotsize/L/1_Ratio_750_L_20_R_15.png","img/900/randomdotsizeEA/L/1_Ratio_900_L_10_R_9.png","img/500/equaldotanddens/L/13_Ratio_500_L_12_R_6.png","img/500/randomdotsizeEA/L/7_Ratio_500_L_10_R_5.png","img/900/randomdotsizeEA/R/5_Ratio_900_L_9_R_10.png","img/500/equaldotanddens/R/14_Ratio_500_L_5_R_10.png","img/750/equaldotsize/R/12_Ratio_750_L_3_R_4.png","img/250/equaldotanddens/L/1_Ratio_250_L_8_R_2.png","img/750/randomdotsizeEA/R/12_Ratio_750_L_3_R_4.png","img/750/equaldotsize/R/5_Ratio_750_L_15_R_20.png","img/250/randomdotsizeEA/L/2_Ratio_250_L_16_R_4.png","img/900/randomdotsizeEA/R/7_Ratio_900_L_9_R_10.png","img/500/randomdotsizeEA/L/4_Ratio_500_L_18_R_9.png","img/750/randomdotsizeEA/L/10_Ratio_750_L_4_R_3.png","img/500/randomdotsizeEA/L/7_Ratio_500_L_10_R_5.png","img/750/equaldotsize/L/14_Ratio_750_L_8_R_6.png","img/250/randomdotsizeEA/R/10_Ratio_250_L_4_R_16.png","img/750/equaldotsize/R/5_Ratio_750_L_15_R_20.png","img/500/equaldotsize/R/15_Ratio_500_L_1_R_2.png","img/250/equaldotanddens/L/3_Ratio_250_L_8_R_2.png","img/750/equaldotsize/R/11_Ratio_750_L_12_R_16.png","img/900/equaldotsize/R/11_Ratio_900_L_18_R_20.png","img/750/randomdotsizeEA/L/10_Ratio_750_L_4_R_3.png","img/750/equaldotanddens/R/5_Ratio_750_L_15_R_20.png","img/500/equaldotsize/R/15_Ratio_500_L_1_R_2.png","img/750/equaldotanddens/L/8_Ratio_750_L_4_R_3.png","img/250/equaldotsize/R/6_Ratio_250_L_6_R_24.png","img/900/equaldotanddens/L/2_Ratio_900_L_20_R_18.png","img/250/equaldotsize/R/11_Ratio_250_L_3_R_12.png","img/250/equaldotanddens/R/9_Ratio_250_L_3_R_12.png","img/900/equaldotanddens/L/2_Ratio_900_L_20_R_18.png","img/750/equaldotanddens/L/14_Ratio_750_L_8_R_6.png","img/500/equaldotanddens/R/6_Ratio_500_L_9_R_18.png","img/900/equaldotsize/L/4_Ratio_900_L_20_R_18.png","img/250/equaldotanddens/L/1_Ratio_250_L_8_R_2.png","img/900/equaldotanddens/L/8_Ratio_900_L_20_R_18.png","img/250/equaldotsize/L/7_Ratio_250_L_8_R_2.png","img/500/randomdotsizeEA/R/14_Ratio_500_L_5_R_10.png","img/250/randomdotsizeEA/L/2_Ratio_250_L_16_R_4.png","img/250/equaldotsize/L/14_Ratio_250_L_12_R_3.png","img/250/randomdotsizeEA/R/12_Ratio_250_L_5_R_20.png","img/900/randomdotsizeEA/R/3_Ratio_900_L_9_R_10.png","img/250/equaldotanddens/R/4_Ratio_250_L_3_R_12.png","img/250/equaldotsize/L/15_Ratio_250_L_12_R_3.png","img/500/equaldotsize/L/8_Ratio_500_L_8_R_4.png","img/500/randomdotsizeEA/L/4_Ratio_500_L_18_R_9.png","img/900/equaldotsize/L/1_Ratio_900_L_10_R_9.png","img/750/randomdotsizeEA/R/12_Ratio_750_L_3_R_4.png","img/500/equaldotsize/L/11_Ratio_500_L_12_R_6.png","img/750/randomdotsizeEA/R/12_Ratio_750_L_3_R_4.png","img/500/equaldotanddens/L/11_Ratio_500_L_12_R_6.png","img/750/equaldotsize/L/1_Ratio_750_L_20_R_15.png","img/250/equaldotanddens/R/4_Ratio_250_L_3_R_12.png","img/750/randomdotsizeEA/L/1_Ratio_750_L_20_R_15.png","img/500/equaldotsize/L/5_Ratio_500_L_4_R_2.png","img/900/randomdotsizeEA/L/2_Ratio_900_L_20_R_18.png","img/250/equaldotanddens/L/7_Ratio_250_L_8_R_2.png","img/750/equaldotanddens/R/11_Ratio_750_L_12_R_16.png","img/500/equaldotanddens/L/13_Ratio_500_L_12_R_6.png","img/500/equaldotsize/R/2_Ratio_500_L_3_R_6.png","img/900/equaldotanddens/R/6_Ratio_900_L_9_R_10.png","img/250/equaldotsize/R/12_Ratio_250_L_5_R_20.png","img/900/equaldotsize/R/7_Ratio_900_L_9_R_10.png","img/750/equaldotanddens/R/3_Ratio_750_L_15_R_20.png","img/900/equaldotsize/L/2_Ratio_900_L_20_R_18.png","img/500/randomdotsizeEA/R/1_Ratio_500_L_9_R_18.png","img/750/randomdotsizeEA/R/4_Ratio_750_L_15_R_20.png","img/250/randomdotsizeEA/L/3_Ratio_250_L_8_R_2.png","img/900/equaldotsize/L/1_Ratio_900_L_10_R_9.png","img/250/equaldotanddens/R/13_Ratio_250_L_2_R_8.png","img/250/equaldotanddens/L/7_Ratio_250_L_8_R_2.png","img/900/equaldotsize/L/10_Ratio_900_L_20_R_18.png","img/500/equaldotsize/L/10_Ratio_500_L_4_R_2.png","img/500/randomdotsizeEA/L/13_Ratio_500_L_12_R_6.png","img/750/equaldotanddens/R/12_Ratio_750_L_3_R_4.png","img/750/equaldotsize/R/4_Ratio_750_L_15_R_20.png","img/500/randomdotsizeEA/L/8_Ratio_500_L_8_R_4.png","img/750/equaldotanddens/R/4_Ratio_750_L_15_R_20.png","img/500/equaldotsize/L/10_Ratio_500_L_4_R_2.png","img/250/equaldotsize/L/3_Ratio_250_L_8_R_2.png","img/750/randomdotsizeEA/L/13_Ratio_750_L_8_R_6.png","img/750/equaldotanddens/R/11_Ratio_750_L_12_R_16.png","img/900/randomdotsizeEA/R/15_Ratio_900_L_9_R_10.png","img/250/randomdotsizeEA/R/11_Ratio_250_L_3_R_12.png","img/750/equaldotsize/L/6_Ratio_750_L_24_R_18.png","img/500/equaldotanddens/L/10_Ratio_500_L_4_R_2.png","img/900/randomdotsizeEA/L/1_Ratio_900_L_10_R_9.png","img/500/equaldotanddens/L/10_Ratio_500_L_4_R_2.png","img/500/randomdotsizeEA/R/15_Ratio_500_L_1_R_2.png","img/900/equaldotanddens/L/2_Ratio_900_L_20_R_18.png","img/750/equaldotsize/L/9_Ratio_750_L_4_R_3.png","img/250/equaldotanddens/L/3_Ratio_250_L_8_R_2.png","img/750/equaldotanddens/R/15_Ratio_750_L_9_R_12.png","img/500/equaldotanddens/R/6_Ratio_500_L_9_R_18.png","img/250/equaldotsize/L/2_Ratio_250_L_16_R_4.png"],"Rat0":[["12_Ratio_0_L_9_R_0.png","13_Ratio_0_L_6_R_0.png","5_Ratio_0_L_2_R_0.png","6_Ratio_0_L_4_R_0.png","8_Ratio_0_L_6_R_0.png"],["1_Ratio_0_L_0_R_17.png","10_Ratio_0_L_0_R_22.png","11_Ratio_0_L_0_R_1.png","14_Ratio_0_L_0_R_24.png","15_Ratio_0_L_0_R_4.png","2_Ratio_0_L_0_R_5.png","3_Ratio_0_L_0_R_17.png","4_Ratio_0_L_0_R_7.png","7_Ratio_0_L_0_R_19.png","9_Ratio_0_L_0_R_15.png"]],"Rat250":[["1_Ratio_250_L_8_R_2.png","14_Ratio_250_L_12_R_3.png","15_Ratio_250_L_12_R_3.png","2_Ratio_250_L_16_R_4.png","3_Ratio_250_L_8_R_2.png","5_Ratio_250_L_24_R_6.png","7_Ratio_250_L_8_R_2.png"],["10_Ratio_250_L_4_R_16.png","11_Ratio_250_L_3_R_12.png","12_Ratio_250_L_5_R_20.png","13_Ratio_250_L_2_R_8.png","4_Ratio_250_L_3_R_12.png","6_Ratio_250_L_6_R_24.png","8_Ratio_250_L_1_R_4.png","9_Ratio_250_L_3_R_12.png"]],"Rat500":[["10_Ratio_500_L_4_R_2.png","11_Ratio_500_L_12_R_6.png","13_Ratio_500_L_12_R_6.png","4_Ratio_500_L_18_R_9.png","5_Ratio_500_L_4_R_2.png","7_Ratio_500_L_10_R_5.png","8_Ratio_500_L_8_R_4.png"],["1_Ratio_500_L_9_R_18.png","12_Ratio_500_L_1_R_2.png","14_Ratio_500_L_5_R_10.png","15_Ratio_500_L_1_R_2.png","2_Ratio_500_L_3_R_6.png","3_Ratio_500_L_10_R_20.png","6_Ratio_500_L_9_R_18.png","9_Ratio_500_L_2_R_4.png"]],"Rat750":[["1_Ratio_750_L_20_R_15.png","10_Ratio_750_L_4_R_3.png","13_Ratio_750_L_8_R_6.png","14_Ratio_750_L_8_R_6.png","6_Ratio_750_L_24_R_18.png","8_Ratio_750_L_4_R_3.png","9_Ratio_750_L_4_R_3.png"],["11_Ratio_750_L_12_R_16.png","12_Ratio_750_L_3_R_4.png","15_Ratio_750_L_9_R_12.png","2_Ratio_750_L_6_R_8.png","3_Ratio_750_L_15_R_20.png","4_Ratio_750_L_15_R_20.png","5_Ratio_750_L_15_R_20.png","7_Ratio_750_L_3_R_4.png"]],"Rat900":[["1_Ratio_900_L_10_R_9.png","10_Ratio_900_L_20_R_18.png","2_Ratio_900_L_20_R_18.png","4_Ratio_900_L_20_R_18.png","8_Ratio_900_L_20_R_18.png"],["11_Ratio_900_L_18_R_20.png","12_Ratio_900_L_18_R_20.png","13_Ratio_900_L_18_R_20.png","14_Ratio_900_L_18_R_20.png","15_Ratio_900_L_9_R_10.png","3_Ratio_900_L_9_R_10.png","5_Ratio_900_L_9_R_10.png","6_Ratio_900_L_9_R_10.png","7_Ratio_900_L_9_R_10.png","9_Ratio_900_L_18_R_20.png"]],"Rat1000":[["10_Ratio_1000_L_16_R_16.png","11_Ratio_1000_L_6_R_6.png","12_Ratio_1000_L_14_R_14.png","13_Ratio_1000_L_20_R_20.png","15_Ratio_1000_L_15_R_15.png","2_Ratio_1000_L_17_R_17.png","4_Ratio_1000_L_9_R_9.png","5_Ratio_1000_L_6_R_6.png","6_Ratio_1000_L_19_R_19.png","8_Ratio_1000_L_14_R_14.png","9_Ratio_1000_L_25_R_25.png"],["1_Ratio_1000_L_1_R_1.png","14_Ratio_1000_L_17_R_17.png","3_Ratio_1000_L_17_R_17.png","7_Ratio_1000_L_6_R_6.png"]]}},{"start_time":1551790596052,"click_time":1551790598018,"finger_time":1551790597597,"fix_duration":652.1597662975704,"trial":1,"RT":1545,"MT":421,"sideResp":2,"stimulus":"img/900/equaldotanddens/R/14_Ratio_900_L_18_R_20.png","xmouse":[771,771,771,771,771,771,771,771,771,771,771,771,771,771,771,771,771,771,771,771,771,771,771,771,771,771,771,771,771,771,771,771,771,771,771,771,771,771,771,771,771,771,771,771,771,771,771,771,771,771,771,771,771,771,771,771,771,771,771,771,771,771,771,771,771,771,771,771,771,771,771,771,771,770,769,767,768,782,797,820,856,912,1026,1095,1127,1145,1160,1182,1193,1207,1217,1223,1225,1225,1225,1225,1215,1177,1154],"ymouse":[493,493,493,493,493,493,493,493,493,493,493,493,493,493,493,493,493,493,493,493,493,493,493,493,493,493,493,493,493,493,493,493,493,493,493,493,493,493,493,493,493,493,493,493,493,493,493,493,493,493,493,493,493,493,493,493,493,493,493,493,493,493,493,493,493,493,493,493,493,493,493,493,493,491,485,474,459,420,394,366,331,289,210,160,133,118,105,86,76,61,47,36,29,29,29,28,30,47,57],"timestamp_mouse":[9,27,51,66,85,106,126,147,166,185,207,226,246,267,286,306,326,346,367,386,406,425,446,466,487,507,526,546,566,587,607,627,646,666,687,705,727,746,766,786,807,826,846,866,885,907,927,946,966,986,1006,1025,1046,1066,1087,1106,1127,1147,1165,1186,1205,1226,1246,1265,1287,1306,1325,1346,1367,1385,1406,1425,1447,1467,1485,1506,1526,1545,1566,1586,1607,1626,1645,1665,1686,1706,1726,1745,1765,1786,1806,1825,1846,1866,1886,1906,1926,1946,1965],"xSR":741.5,"ySR":449.15000000000003,"xT1":424.9,"yT1":0,"xT2":1058.1,"yT2":0,"toosoon":0,"cond_shown":"equaldotanddens","ratio_trial":900,"smaller_num":"18","larger_num":"20","correct_side":2,"subjID":"VioletaPreciadoLozano","gender":"1","age":"11","school":"6"},{"start_time":1551790598910,"click_time":1551790600998,"finger_time":1551790600579,"fix_duration":250,"trial":2,"RT":1669,"MT":419,"sideResp":1,"stimulus":"img/250/randomdotsizeEA/L/14_Ratio_250_L_12_R_3.png","xmouse":[763,763,763,763,763,763,763,763,763,763,763,763,763,763,763,763,763,763,763,763,763,763,763,763,763,763,763,763,763,763,763,763,763,763,763,763,763,763,763,763,763,763,763,763,763,763,763,763,763,763,763,763,763,763,763,763,763,763,763,763,763,763,763,763,763,763,763,763,763,763,763,763,763,763,763,763,763,763,763,763,759,748,742,733,718,710,699,684,665,587,550,512,499,489,482,482,481,481,481,481,485,492,493,493,480],"ymouse":[508,507,507,507,507,507,507,507,507,507,507,507,507,507,507,507,507,507,507,507,507,507,507,507,507,507,507,507,507,507,507,507,507,507,507,507,507,507,507,507,507,507,507,507,507,507,507,507,507,507,507,507,507,507,507,507,507,507,507,507,507,507,507,507,507,507,507,507,507,507,507,507,507,507,507,507,507,507,507,507,507,505,500,489,451,427,402,376,348,286,257,216,194,178,169,169,168,168,168,165,154,135,121,109,92],"timestamp_mouse":[9,28,53,68,88,108,128,148,168,188,208,229,249,269,289,309,328,349,369,389,408,428,448,468,488,508,528,548,568,589,608,628,648,668,688,709,729,748,768,788,810,828,848,869,889,908,928,949,969,989,1008,1028,1048,1069,1089,1110,1129,1148,1168,1188,1208,1228,1249,1268,1289,1309,1329,1348,1370,1388,1408,1430,1448,1469,1488,1508,1528,1548,1568,1588,1608,1628,1648,1669,1689,1708,1729,1749,1768,1788,1808,1828,1848,1868,1888,1908,1929,1949,1968,1988,2008,2028,2048,2068,2088],"xSR":741.5,"ySR":449.15000000000003,"xT1":424.9,"yT1":0,"xT2":1058.1,"yT2":0,"toosoon":0,"cond_shown":"randomdotsizeEA","ratio_trial":250,"smaller_num":"3","larger_num":"12","correct_side":1,"subjID":"VioletaPreciadoLozano","gender":"1","age":"11","school":"6"},{"start_time":1551790602893,"click_time":1551790604458,"finger_time":1551790603838,"fix_duration":953.3293011995277,"trial":3,"RT":945,"MT":620,"sideResp":1,"stimulus":"img/900/randomdotsizeEA/L/1_Ratio_900_L_10_R_9.png","xmouse":[781,781,781,781,781,781,781,781,781,781,781,781,781,781,781,781,781,781,781,781,781,781,781,781,781,781,781,781,781,781,781,781,781,781,781,781,781,781,781,781,781,781,781,781,781,768,748,732,722,720,719,719,719,717,706,663,647,639,632,625,608,589,568,551,540,529,527,523,518,513,511,510,509,507,506,500,495,492,491],"ymouse":[499,499,499,499,499,499,499,499,499,499,499,499,499,499,499,499,499,499,499,499,499,499,499,499,499,499,499,499,499,499,499,499,499,499,499,499,499,499,499,499,499,499,499,499,499,482,451,427,414,412,412,412,412,409,399,352,331,319,309,295,269,258,246,233,221,184,167,154,146,141,138,133,129,126,124,115,108,102,98],"timestamp_mouse":[8,25,45,65,85,105,125,146,165,185,205,225,246,265,285,305,325,346,365,385,405,425,445,465,485,505,526,546,565,585,606,626,646,666,685,706,725,746,765,785,805,825,845,866,885,905,925,945,966,986,1006,1025,1045,1066,1085,1105,1125,1145,1166,1185,1205,1225,1245,1265,1285,1305,1325,1345,1366,1385,1405,1425,1445,1466,1486,1505,1525,1545,1565],"xSR":741.5,"ySR":449.15000000000003,"xT1":424.9,"yT1":0,"xT2":1058.1,"yT2":0,"toosoon":0,"cond_shown":"randomdotsizeEA","ratio_trial":900,"smaller_num":"9","larger_num":"10","correct_side":1,"subjID":"VioletaPreciadoLozano","gender":"1","age":"11","school":"6"},{"start_time":1551790605508,"click_time":1551790606659,"finger_time":1551790606298,"fix_duration":308.8915089546874,"trial":4,"RT":790,"MT":361,"sideResp":2,"stimulus":"img/900/equaldotanddens/R/13_Ratio_900_L_18_R_20.png","xmouse":[793,793,793,793,793,793,793,793,793,793,793,793,793,793,793,793,793,793,793,793,793,793,793,793,793,793,793,793,793,793,793,793,793,793,793,793,793,794,800,852,945,1023,1088,1147,1236,1261,1270,1273,1275,1276,1276,1276,1276,1273,1242,1214,1187,1158],"ymouse":[521,521,521,521,521,521,521,521,521,521,521,521,521,521,521,521,521,521,521,521,521,521,521,521,521,521,521,521,521,521,521,521,521,521,521,521,521,517,507,445,363,297,237,185,107,89,79,74,70,60,55,53,53,53,67,76,81,83],"timestamp_mouse":[10,40,50,70,90,110,131,150,170,190,211,230,251,270,290,310,331,350,370,390,410,431,450,470,491,510,530,550,570,591,610,631,650,671,691,711,731,750,771,790,811,830,850,870,890,910,930,950,970,990,1010,1031,1050,1071,1090,1110,1130,1151],"xSR":741.5,"ySR":449.15000000000003,"xT1":424.9,"yT1":0,"xT2":1058.1,"yT2":0,"toosoon":0,"cond_shown":"equaldotanddens","ratio_trial":900,"smaller_num":"18","larger_num":"20","correct_side":2,"subjID":"VioletaPreciadoLozano","gender":"1","age":"11","school":"6"},{"start_time":1551790608786,"click_time":1551790610239,"finger_time":1551790609798,"fix_duration":1006.0767962286948,"trial":5,"RT":1012,"MT":441,"sideResp":2,"stimulus":"img/900/equaldotsize/L/10_Ratio_900_L_20_R_18.png","xmouse":[819,819,819,819,819,819,819,819,819,819,819,819,819,819,819,819,819,819,819,819,819,819,819,819,819,819,819,819,819,819,819,819,819,819,819,819,819,819,819,819,819,819,819,819,819,819,819,819,828,839,858,871,882,894,915,948,968,1000,1020,1039,1057,1059,1062,1063,1065,1067,1068,1070,1071,1075,1085,1090,1093],"ymouse":[490,490,490,490,490,490,490,490,490,490,490,490,490,490,490,490,490,490,490,490,490,490,490,490,490,490,490,490,490,490,490,490,490,490,490,490,490,490,490,490,490,490,490,490,490,490,490,489,475,455,412,395,380,364,330,288,271,244,228,210,184,175,168,165,162,161,159,156,152,141,116,104,97],"timestamp_mouse":[12,32,60,73,92,112,132,152,174,192,212,232,252,272,293,312,333,352,373,393,413,433,452,473,492,513,533,552,574,593,613,633,653,672,692,713,732,752,772,792,812,832,852,872,893,912,932,952,973,992,1012,1032,1052,1072,1092,1112,1132,1152,1172,1193,1212,1232,1253,1272,1293,1312,1332,1352,1372,1392,1412,1432,1453],"xSR":741.5,"ySR":449.15000000000003,"xT1":424.9,"yT1":0,"xT2":1058.1,"yT2":0,"toosoon":0,"cond_shown":"equaldotsize","ratio_trial":900,"smaller_num":"18","larger_num":"20","correct_side":1,"subjID":"VioletaPreciadoLozano","gender":"1","age":"11","school":"6"},{"start_time":1551790612096,"click_time":1551790613498,"finger_time":1551790613119,"fix_duration":735.0813540178198,"trial":6,"RT":1023,"MT":379,"sideResp":2,"stimulus":"img/750/randomdotsizeEA/L/10_Ratio_750_L_4_R_3.png","xmouse":[767,767,767,767,767,767,767,767,767,767,767,767,767,767,767,767,767,767,767,767,767,767,767,767,767,767,767,767,767,767,767,767,767,767,767,767,767,767,767,767,767,767,767,767,767,767,767,767,769,775,815,876,917,960,999,1040,1048,1051,1052,1053,1062,1074,1079,1083,1083,1083,1084,1087,1091,1095,1098],"ymouse":[487,487,487,487,487,487,487,487,487,487,487,487,487,487,487,487,487,487,487,487,487,487,487,487,487,487,487,487,487,487,487,487,487,487,487,487,487,487,487,487,487,487,487,487,487,487,487,487,487,481,450,408,381,353,324,286,273,268,263,258,225,201,188,176,169,153,147,136,122,107,80],"timestamp_mouse":[9,23,49,63,83,102,122,142,163,182,202,222,242,262,282,302,322,343,363,382,402,422,442,463,482,503,523,542,562,582,603,622,644,662,682,702,722,744,763,784,802,822,842,864,882,902,922,942,962,982,1002,1023,1042,1063,1082,1102,1122,1143,1162,1182,1202,1222,1242,1262,1283,1302,1322,1343,1362,1383,1402],"xSR":741.5,"ySR":449.15000000000003,"xT1":424.9,"yT1":0,"xT2":1058.1,"yT2":0,"toosoon":0,"cond_shown":"randomdotsizeEA","ratio_trial":750,"smaller_num":"3","larger_num":"4","correct_side":1,"subjID":"VioletaPreciadoLozano","gender":"1","age":"11","school":"6"},{"start_time":1551790615535,"click_time":1551790617058,"finger_time":1551790616779,"fix_duration":1274.9093878096521,"trial":7,"RT":1244,"MT":279,"sideResp":1,"stimulus":"img/900/equaldotsize/R/6_Ratio_900_L_9_R_10.png","xmouse":[800,800,800,800,800,800,800,800,800,800,800,800,800,800,800,800,800,800,800,800,800,800,800,800,800,800,800,800,800,800,800,800,800,800,800,800,800,800,800,800,800,800,800,800,800,800,800,800,800,800,800,800,800,800,800,800,800,800,800,800,796,782,755,666,595,525,474,444,420,419,419,420,423,431,436,439,442],"ymouse":[498,498,498,498,498,498,498,498,498,498,498,498,498,498,498,498,498,498,498,498,498,498,498,498,498,498,498,498,498,498,498,498,498,498,498,498,498,498,498,498,497,497,497,497,497,497,497,497,497,497,497,497,497,497,497,497,497,497,497,496,490,475,449,381,333,272,230,201,161,147,143,139,132,117,107,102,96],"timestamp_mouse":[9,23,43,64,83,104,124,143,163,185,203,223,244,263,284,304,324,344,364,383,404,423,443,463,483,503,523,543,563,583,605,623,645,663,683,703,723,743,763,783,804,824,845,863,884,904,924,945,963,984,1003,1024,1043,1064,1084,1105,1123,1144,1164,1184,1203,1223,1244,1263,1283,1303,1323,1344,1363,1383,1403,1423,1444,1464,1483,1504,1523],"xSR":741.5,"ySR":449.15000000000003,"xT1":424.9,"yT1":0,"xT2":1058.1,"yT2":0,"toosoon":0,"cond_shown":"equaldotsize","ratio_trial":900,"smaller_num":"9","larger_num":"10","correct_side":2,"subjID":"VioletaPreciadoLozano","gender":"1","age":"11","school":"6"},{"start_time":1551790618392,"click_time":1551790619818,"finger_time":1551790619359,"fix_duration":492.1469030377754,"trial":8,"RT":967,"MT":459,"sideResp":2,"stimulus":"img/900/equaldotanddens/R/13_Ratio_900_L_18_R_20.png","xmouse":[764,764,764,764,764,764,764,765,765,765,765,765,765,765,765,765,765,765,765,765,765,765,765,765,765,765,765,765,765,765,765,765,765,765,765,765,765,765,765,765,765,765,765,765,765,769,783,799,818,848,906,927,938,944,948,965,982,991,997,1004,1021,1029,1033,1034,1034,1034,1034,1034,1035,1037,1049,1060],"ymouse":[523,521,519,519,519,516,515,514,514,514,514,514,514,514,514,514,514,514,514,514,514,514,514,514,514,514,514,514,514,514,514,513,513,513,513,513,513,513,513,513,512,512,512,512,511,501,480,459,436,399,327,299,276,244,222,179,150,134,122,109,83,70,62,61,61,61,61,60,60,60,60,61],"timestamp_mouse":[9,33,46,66,86,106,127,146,166,186,206,227,247,266,287,306,327,346,366,386,406,426,447,466,486,506,526,546,566,587,606,627,646,667,686,706,726,746,766,786,807,826,846,866,886,906,927,946,967,986,1006,1026,1046,1066,1087,1106,1126,1146,1166,1186,1206,1226,1246,1266,1287,1307,1328,1346,1366,1386,1406,1426],"xSR":741.5,"ySR":449.15000000000003,"xT1":424.9,"yT1":0,"xT2":1058.1,"yT2":0,"toosoon":0,"cond_shown":"equaldotanddens","ratio_trial":900,"smaller_num":"18","larger_num":"20","correct_side":2,"subjID":"VioletaPreciadoLozano","gender":"1","age":"11","school":"6"},{"start_time":1551790621009,"click_time":1551790622798,"finger_time":1551790622039,"fix_duration":250,"trial":9,"RT":1030,"MT":759,"sideResp":1,"stimulus":"img/750/randomdotsizeEA/L/6_Ratio_750_L_24_R_18.png","xmouse":[788,788,788,788,788,788,788,788,788,788,788,788,788,788,788,788,788,788,788,788,788,788,788,788,788,788,788,788,788,788,788,788,788,788,788,788,788,788,788,788,788,788,788,788,788,788,788,788,788,782,778,772,765,758,752,748,736,720,696,564,491,430,388,354,339,348,348,348,348,348,348,348,348,348,348,348,348,392,396,401,402,404,407,410,417,418,418,420,424,430],"ymouse":[497,497,497,497,497,497,497,497,497,497,497,497,497,497,497,497,497,497,497,497,497,497,497,497,497,497,497,497,497,497,497,497,497,497,497,497,497,497,497,497,497,497,497,497,497,497,497,497,492,471,451,428,404,379,353,344,331,314,300,246,213,178,147,109,51,7,7,7,7,7,7,7,7,7,7,7,7,10,23,37,38,40,40,40,40,40,40,40,41,41],"timestamp_mouse":[10,30,50,69,89,110,130,150,169,189,209,229,249,270,289,309,330,349,370,389,410,430,449,470,489,509,530,550,570,589,609,629,650,669,689,710,730,749,769,789,809,829,849,870,889,909,930,950,969,989,1009,1030,1049,1069,1090,1110,1129,1149,1170,1189,1209,1229,1249,1270,1289,1309,1329,1349,1369,1390,1409,1430,1449,1469,1490,1509,1529,1549,1569,1589,1609,1629,1650,1669,1689,1710,1729,1751,1769,1789],"xSR":741.5,"ySR":449.15000000000003,"xT1":424.9,"yT1":0,"xT2":1058.1,"yT2":0,"toosoon":0,"cond_shown":"randomdotsizeEA","ratio_trial":750,"smaller_num":"18","larger_num":"24","correct_side":1,"subjID":"VioletaPreciadoLozano","gender":"1","age":"11","school":"6"},{"start_time":1551790624146,"click_time":1551790625298,"finger_time":1551790624938,"fix_duration":507.71876405808104,"trial":10,"RT":792,"MT":360,"sideResp":1,"stimulus":"img/250/randomdotsizeEA/L/3_Ratio_250_L_8_R_2.png","xmouse":[771,771,771,771,771,771,771,771,771,771,771,771,771,771,771,771,771,771,771,771,771,771,771,771,771,771,771,771,771,771,771,771,771,771,771,771,771,771,749,730,711,680,615,592,580,572,568,561,555,551,548,547,545,543,536,521,500,453],"ymouse":[498,498,498,498,498,498,498,498,498,498,498,498,498,498,498,498,498,498,498,498,498,498,498,498,498,498,498,498,498,498,498,498,498,498,498,498,498,496,469,439,407,359,249,205,179,162,153,140,129,122,118,114,114,114,114,111,107,92],"timestamp_mouse":[12,37,53,73,92,114,133,152,173,193,212,232,253,273,292,313,333,352,372,393,413,432,452,474,492,513,532,552,572,592,612,632,652,672,693,713,733,752,772,792,812,833,852,872,892,913,933,952,972,992,1012,1035,1053,1072,1092,1112,1132,1152],"xSR":741.5,"ySR":449.15000000000003,"xT1":424.9,"yT1":0,"xT2":1058.1,"yT2":0,"toosoon":0,"cond_shown":"randomdotsizeEA","ratio_trial":250,"smaller_num":"2","larger_num":"8","correct_side":1,"subjID":"VioletaPreciadoLozano","gender":"1","age":"11","school":"6"},{"start_time":1551790626371,"click_time":1551790627779,"finger_time":1551790627138,"fix_duration":250,"trial":11,"RT":767,"MT":641,"sideResp":1,"stimulus":"img/250/randomdotsizeEA/L/15_Ratio_250_L_12_R_3.png","xmouse":[815,812,811,811,811,811,811,811,811,811,811,811,811,811,811,811,811,811,811,811,811,811,811,811,811,811,811,811,811,811,811,811,811,811,811,811,809,805,788,770,750,736,695,674,659,634,513,459,422,411,407,407,408,409,411,411,414,414,415,415,417,419,419,419,419,419,419,419,420,423,427],"ymouse":[503,503,503,503,503,503,503,503,503,503,503,503,503,503,503,503,503,503,503,503,503,503,503,503,503,503,503,503,503,503,503,503,503,503,503,503,501,487,447,402,353,307,217,197,185,171,135,119,106,99,93,82,78,74,71,69,65,65,64,64,64,64,64,64,64,64,64,64,64,64,65],"timestamp_mouse":[7,27,57,67,88,107,128,147,167,188,208,227,247,267,287,307,327,347,367,388,409,427,448,467,487,508,527,549,567,587,607,627,648,669,688,707,727,748,767,787,807,827,847,867,888,908,927,948,967,987,1007,1028,1047,1067,1087,1109,1128,1147,1167,1187,1208,1227,1247,1269,1287,1308,1327,1347,1367,1387,1408],"xSR":741.5,"ySR":449.15000000000003,"xT1":424.9,"yT1":0,"xT2":1058.1,"yT2":0,"toosoon":0,"cond_shown":"randomdotsizeEA","ratio_trial":250,"smaller_num":"3","larger_num":"12","correct_side":1,"subjID":"VioletaPreciadoLozano","gender":"1","age":"11","school":"6"},{"start_time":1551790629596,"click_time":1551790630858,"finger_time":1551790630418,"fix_duration":896.270490940444,"trial":12,"RT":822,"MT":440,"sideResp":2,"stimulus":"img/900/equaldotanddens/R/15_Ratio_900_L_9_R_10.png","xmouse":[784,785,787,787,787,787,787,787,787,787,787,787,787,787,787,787,786,785,785,783,783,783,783,783,783,783,783,783,783,783,783,783,783,783,783,783,783,783,783,785,796,806,821,835,850,869,875,885,892,898,909,917,923,932,940,957,973,977,978,978,978,1018,1072,1129],"ymouse":[494,493,493,493,493,493,493,493,493,493,493,493,493,493,493,494,495,496,496,496,496,497,497,497,497,497,497,497,497,497,497,497,497,497,497,497,497,497,494,490,466,449,425,399,372,339,329,312,300,287,257,238,220,195,176,149,139,136,136,136,136,122,108,91],"timestamp_mouse":[9,22,51,62,83,102,122,143,163,182,203,224,242,262,282,302,323,343,363,382,403,423,442,462,482,502,523,542,562,582,603,622,642,663,682,703,723,742,763,783,802,822,843,862,882,902,923,942,962,983,1003,1022,1042,1063,1083,1102,1122,1142,1162,1182,1202,1222,1243,1262],"xSR":741.5,"ySR":449.15000000000003,"xT1":424.9,"yT1":0,"xT2":1058.1,"yT2":0,"toosoon":0,"cond_shown":"equaldotanddens","ratio_trial":900,"smaller_num":"9","larger_num":"10","correct_side":2,"subjID":"VioletaPreciadoLozano","gender":"1","age":"11","school":"6"},{"start_time":1551790633911,"click_time":1551790635218,"finger_time":1551790634838,"fix_duration":250,"trial":13,"RT":927,"MT":380,"sideResp":1,"stimulus":"img/750/equaldotanddens/L/9_Ratio_750_L_4_R_3.png","xmouse":[769,768,768,768,768,768,768,768,768,768,768,768,768,768,768,768,768,768,768,768,768,768,768,768,768,768,768,768,768,768,768,768,768,768,768,768,768,768,768,768,768,768,766,764,755,749,739,727,713,659,626,579,557,535,484,469,464,463,462,461,461,461,461,462,466,467],"ymouse":[518,516,513,508,504,504,504,504,504,504,504,504,504,504,504,504,504,504,504,504,504,504,504,504,504,504,504,504,504,504,504,504,504,504,504,504,504,504,504,504,504,504,501,498,486,480,473,461,443,368,317,241,202,173,130,122,119,118,117,116,116,116,116,114,106,98],"timestamp_mouse":[12,27,51,68,88,108,129,147,167,187,207,227,247,267,287,307,328,347,367,388,408,427,448,468,489,508,528,547,567,588,608,628,647,667,687,707,728,748,767,787,807,827,847,868,888,907,927,948,967,988,1007,1027,1048,1068,1087,1107,1127,1148,1167,1188,1207,1227,1247,1268,1287,1307],"xSR":741.5,"ySR":449.15000000000003,"xT1":424.9,"yT1":0,"xT2":1058.1,"yT2":0,"toosoon":0,"cond_shown":"equaldotanddens","ratio_trial":750,"smaller_num":"3","larger_num":"4","correct_side":1,"subjID":"VioletaPreciadoLozano","gender":"1","age":"11","school":"6"},{"start_time":1551790636351,"click_time":1551790637498,"finger_time":1551790637158,"fix_duration":250,"trial":14,"RT":807,"MT":340,"sideResp":1,"stimulus":"img/900/equaldotsize/L/1_Ratio_900_L_10_R_9.png","xmouse":[810,810,810,810,810,810,810,810,810,810,810,810,810,810,810,810,810,810,810,810,810,810,810,810,810,809,809,809,809,809,809,809,809,809,809,809,809,808,784,745,691,637,588,586,586,586,582,561,545,539,537,537,537,535,533,531,527,519],"ymouse":[508,508,508,508,508,508,508,508,508,508,508,508,508,508,508,508,508,508,508,508,508,508,508,508,508,508,507,507,507,507,507,507,507,507,507,507,507,505,480,454,418,383,302,260,229,206,184,146,124,118,114,114,112,108,105,103,99,91],"timestamp_mouse":[9,40,47,68,87,107,127,147,167,188,208,227,247,267,287,307,329,347,367,388,408,427,448,468,489,508,528,547,567,587,608,627,647,668,687,708,728,747,768,787,807,828,847,867,887,907,927,947,967,987,1008,1027,1047,1067,1087,1108,1127,1147],"xSR":741.5,"ySR":449.15000000000003,"xT1":424.9,"yT1":0,"xT2":1058.1,"yT2":0,"toosoon":0,"cond_shown":"equaldotsize","ratio_trial":900,"smaller_num":"9","larger_num":"10","correct_side":1,"subjID":"VioletaPreciadoLozano","gender":"1","age":"11","school":"6"},{"start_time":1551790639308,"click_time":1551790640218,"finger_time":1551790639998,"fix_duration":829.1007720041468,"trial":15,"RT":690,"MT":220,"sideResp":2,"stimulus":"img/900/equaldotanddens/R/6_Ratio_900_L_9_R_10.png","xmouse":[764,764,764,764,763,762,761,761,761,761,764,766,766,766,766,766,766,766,766,766,767,768,768,769,771,771,771,771,771,771,771,773,778,789,815,820,833,857,892,995,1019,1036,1044,1050,1055,1060],"ymouse":[532,532,532,532,531,524,520,516,512,504,497,495,495,495,495,495,495,495,495,495,495,495,495,496,499,499,499,499,499,499,499,499,492,480,440,421,390,338,286,172,153,138,125,108,71,58],"timestamp_mouse":[15,37,50,71,90,110,131,150,171,190,211,230,251,271,292,310,331,350,371,390,411,430,450,470,490,511,530,550,571,591,611,630,650,671,690,710,730,750,770,791,810,831,851,871,890,910],"xSR":741.5,"ySR":449.15000000000003,"xT1":424.9,"yT1":0,"xT2":1058.1,"yT2":0,"toosoon":0,"cond_shown":"equaldotanddens","ratio_trial":900,"smaller_num":"9","larger_num":"10","correct_side":2,"subjID":"VioletaPreciadoLozano","gender":"1","age":"11","school":"6"},{"start_time":1551790641815,"click_time":1551790642958,"finger_time":1551790642518,"fix_duration":575.234403048799,"trial":16,"RT":703,"MT":440,"sideResp":2,"stimulus":"img/500/equaldotanddens/R/6_Ratio_500_L_9_R_18.png","xmouse":[783,783,783,783,783,783,783,783,783,783,783,783,783,783,783,785,791,798,799,799,799,799,799,799,797,793,791,791,791,791,790,790,790,790,795,824,852,881,906,937,948,960,969,979,991,995,995,995,996,1000,1001,1002,1004,1008,1029,1054,1082,1103],"ymouse":[484,484,484,484,484,484,484,484,484,484,484,484,484,484,484,476,464,457,456,456,456,456,456,456,458,461,464,464,464,464,465,465,465,465,451,400,365,336,318,299,293,284,275,266,252,243,236,227,218,207,202,198,194,188,170,146,113,90],"timestamp_mouse":[11,23,48,63,83,104,123,145,164,183,204,223,243,263,283,303,323,344,364,385,403,424,444,465,483,503,524,544,563,583,603,623,645,663,683,703,723,743,764,784,803,823,843,864,883,903,923,944,964,983,1003,1023,1043,1064,1083,1105,1123,1143],"xSR":741.5,"ySR":449.15000000000003,"xT1":424.9,"yT1":0,"xT2":1058.1,"yT2":0,"toosoon":0,"cond_shown":"equaldotanddens","ratio_trial":500,"smaller_num":"9","larger_num":"18","correct_side":2,"subjID":"VioletaPreciadoLozano","gender":"1","age":"11","school":"6"},{"start_time":1551790645057,"click_time":1551790645938,"finger_time":1551790645598,"fix_duration":1257.1682142079833,"trial":17,"RT":541,"MT":340,"sideResp":2,"stimulus":"img/500/equaldotanddens/R/1_Ratio_500_L_9_R_18.png","xmouse":[791,791,791,791,791,791,791,791,791,791,791,791,791,791,791,791,791,791,791,791,791,791,791,791,791,794,801,849,879,911,940,968,993,998,1004,1007,1010,1010,1010,1014,1019,1027,1044,1055,1062],"ymouse":[476,476,476,476,476,476,476,476,476,476,476,476,476,476,476,476,476,476,476,476,476,476,476,476,476,468,455,366,320,280,250,221,195,189,182,175,168,148,134,117,102,91,85,85,87],"timestamp_mouse":[8,21,42,62,81,102,121,141,162,181,201,222,241,261,282,301,321,343,361,382,401,421,442,461,481,502,521,541,561,581,602,623,641,662,681,701,721,741,761,781,801,823,841,861,881],"xSR":741.5,"ySR":449.15000000000003,"xT1":424.9,"yT1":0,"xT2":1058.1,"yT2":0,"toosoon":0,"cond_shown":"equaldotanddens","ratio_trial":500,"smaller_num":"9","larger_num":"18","correct_side":2,"subjID":"VioletaPreciadoLozano","gender":"1","age":"11","school":"6"},{"start_time":1551790649138,"click_time":1551790650118,"finger_time":1551790649798,"fix_duration":958.3189567040931,"trial":18,"RT":660,"MT":320,"sideResp":2,"stimulus":"img/500/equaldotsize/R/14_Ratio_500_L_5_R_10.png","xmouse":[793,793,793,793,793,793,793,793,793,793,793,793,793,793,793,793,793,793,793,793,793,793,793,793,793,793,793,793,793,793,793,799,807,849,878,898,916,934,969,1080,1125,1137,1139,1138,1138,1138,1144,1151,1161,1157],"ymouse":[506,506,506,506,506,506,506,506,506,506,506,506,506,506,506,506,506,506,506,506,506,506,506,506,506,506,506,506,506,506,500,485,465,389,352,330,308,289,266,216,195,187,184,175,168,155,141,122,80,52],"timestamp_mouse":[8,20,43,61,80,100,120,140,160,181,200,221,240,260,281,300,321,341,360,380,401,420,441,460,480,500,521,541,562,581,600,621,641,660,680,700,720,740,760,781,800,820,841,861,880,901,921,940,960,980],"xSR":741.5,"ySR":449.15000000000003,"xT1":424.9,"yT1":0,"xT2":1058.1,"yT2":0,"toosoon":0,"cond_shown":"equaldotsize","ratio_trial":500,"smaller_num":"5","larger_num":"10","correct_side":2,"subjID":"VioletaPreciadoLozano","gender":"1","age":"11","school":"6"},{"start_time":1551790652076,"click_time":1551790653499,"finger_time":1551790652659,"fix_duration":1297.2813252493154,"trial":19,"RT":583,"MT":840,"sideResp":1,"stimulus":"img/250/equaldotsize/L/15_Ratio_250_L_12_R_3.png","xmouse":[775,775,775,775,775,775,775,775,775,775,775,775,775,775,775,775,775,775,775,775,775,775,775,775,775,775,775,775,765,739,705,652,630,617,607,599,586,581,574,572,571,571,570,569,560,544,504,496,494,494,493,493,493,493,493,493,493,493,493,493,493,493,493,495,498,498,498,498,498,497,495,490],"ymouse":[486,486,486,486,486,486,486,486,486,486,486,486,486,486,486,486,486,486,486,486,486,486,486,486,486,486,486,486,471,428,379,298,250,222,201,186,163,156,149,146,145,144,144,144,140,133,113,108,106,105,104,104,104,104,104,104,104,104,104,104,104,104,103,106,109,109,109,109,109,106,102,89],"timestamp_mouse":[9,22,49,62,83,103,123,142,162,182,202,222,242,262,282,302,323,342,363,383,404,422,443,464,482,502,523,542,563,583,603,623,642,662,682,703,723,742,762,782,802,822,842,862,883,903,922,942,962,983,1002,1022,1042,1063,1083,1103,1123,1142,1162,1182,1202,1223,1243,1262,1282,1302,1322,1342,1362,1382,1402,1422],"xSR":741.5,"ySR":449.15000000000003,"xT1":424.9,"yT1":0,"xT2":1058.1,"yT2":0,"toosoon":0,"cond_shown":"equaldotsize","ratio_trial":250,"smaller_num":"3","larger_num":"12","correct_side":1,"subjID":"VioletaPreciadoLozano","gender":"1","age":"11","school":"6"},{"start_time":1551790654734,"click_time":1551790655799,"finger_time":1551790655519,"fix_duration":635.4029904640523,"trial":20,"RT":785,"MT":280,"sideResp":1,"stimulus":"img/900/randomdotsizeEA/R/11_Ratio_900_L_18_R_20.png","xmouse":[792,792,792,792,792,792,792,792,792,792,792,792,792,792,792,792,792,792,792,792,792,792,792,792,792,792,792,792,792,792,792,792,792,792,792,792,792,789,785,725,658,623,601,573,565,556,549,541,535,530,523,518,511,498],"ymouse":[492,492,492,492,492,492,492,492,492,492,492,492,492,492,492,492,492,492,492,492,492,492,492,492,492,492,492,492,492,492,492,489,489,489,489,489,489,486,483,452,420,400,380,328,303,282,265,244,204,184,159,144,128,90],"timestamp_mouse":[9,41,45,64,85,105,125,144,164,185,205,225,244,264,284,304,324,344,364,385,404,424,444,465,485,504,525,544,564,584,604,624,646,665,684,704,724,745,764,785,804,825,844,864,884,904,925,946,964,984,1004,1024,1045,1065],"xSR":741.5,"ySR":449.15000000000003,"xT1":424.9,"yT1":0,"xT2":1058.1,"yT2":0,"toosoon":0,"cond_shown":"randomdotsizeEA","ratio_trial":900,"smaller_num":"18","larger_num":"20","correct_side":2,"subjID":"VioletaPreciadoLozano","gender":"1","age":"11","school":"6"},{"start_time":1551790658781,"click_time":1551790659838,"finger_time":1551790659479,"fix_duration":721.9617177840005,"trial":21,"RT":698,"MT":359,"sideResp":2,"stimulus":"img/250/randomdotsizeEA/R/8_Ratio_250_L_1_R_4.png","xmouse":[783,783,783,783,783,783,783,783,783,783,783,783,783,783,783,783,783,783,783,783,783,783,783,783,783,783,783,783,783,783,783,783,791,797,817,874,901,936,963,1004,1078,1083,1083,1080,1080,1080,1080,1080,1079,1076,1072,1072,1074],"ymouse":[486,486,486,486,486,486,486,486,486,486,486,486,486,486,486,486,486,486,486,486,486,486,486,486,486,486,486,486,486,486,486,486,475,468,445,395,379,357,331,287,202,183,172,167,167,167,167,167,160,149,122,103,88],"timestamp_mouse":[20,37,56,76,98,116,136,156,177,198,218,237,257,276,297,317,337,358,376,398,417,438,457,478,497,518,537,558,578,597,618,636,656,677,698,716,736,756,778,797,817,836,856,876,897,917,936,956,976,996,1016,1036,1057],"xSR":741.5,"ySR":449.15000000000003,"xT1":424.9,"yT1":0,"xT2":1058.1,"yT2":0,"toosoon":0,"cond_shown":"randomdotsizeEA","ratio_trial":250,"smaller_num":"1","larger_num":"4","correct_side":2,"subjID":"VioletaPreciadoLozano","gender":"1","age":"11","school":"6"},{"start_time":1551790661889,"click_time":1551790662877,"finger_time":1551790662437,"fix_duration":1209.246159566338,"trial":22,"RT":548,"MT":440,"sideResp":1,"stimulus":"img/250/equaldotsize/L/5_Ratio_250_L_24_R_6.png","xmouse":[751,750,750,750,750,750,750,750,750,750,750,750,750,750,750,750,750,750,750,750,750,750,750,750,750,750,745,709,636,533,419,208,189,179,178,179,182,184,190,202,226,254,278,300,315,350,370,394,420,439],"ymouse":[493,492,492,492,492,492,492,492,492,492,492,492,492,492,492,492,492,492,492,492,492,492,492,492,492,492,487,438,342,246,163,42,27,17,15,12,11,9,9,9,9,16,23,29,33,43,46,49,54,56],"timestamp_mouse":[15,29,58,68,89,108,128,148,169,188,210,230,248,269,288,308,329,348,368,389,408,428,449,469,488,508,528,548,569,588,609,630,648,669,688,708,728,749,768,788,808,828,848,868,889,908,928,948,968,988],"xSR":741.5,"ySR":449.15000000000003,"xT1":424.9,"yT1":0,"xT2":1058.1,"yT2":0,"toosoon":0,"cond_shown":"equaldotsize","ratio_trial":250,"smaller_num":"6","larger_num":"24","correct_side":1,"subjID":"VioletaPreciadoLozano","gender":"1","age":"11","school":"6"},{"start_time":1551790664732,"click_time":1551790665897,"finger_time":1551790665397,"fix_duration":1253.0338842611864,"trial":23,"RT":665,"MT":500,"sideResp":2,"stimulus":"img/500/randomdotsizeEA/R/6_Ratio_500_L_9_R_18.png","xmouse":[774,774,774,774,774,774,774,774,774,774,774,774,774,774,774,775,775,775,775,775,775,774,774,774,774,774,774,774,774,774,774,774,777,799,818,833,846,859,903,942,967,992,1009,1027,1031,1031,1028,1024,1023,1023,1023,1023,1023,1019,1024,1040,1062,1094,1152],"ymouse":[501,501,501,501,501,501,501,501,501,501,501,501,501,501,501,498,498,498,498,492,487,485,485,485,485,485,485,485,485,485,485,485,473,439,404,377,355,340,320,304,296,281,262,210,188,171,158,150,137,133,133,133,133,133,133,129,122,109,77],"timestamp_mouse":[8,25,46,66,85,106,126,145,165,187,205,226,245,266,285,305,327,345,365,386,405,426,447,465,486,506,526,547,565,586,605,625,645,665,685,705,727,746,766,785,805,826,845,865,885,906,925,946,965,985,1005,1027,1046,1065,1085,1105,1125,1147,1165],"xSR":741.5,"ySR":449.15000000000003,"xT1":424.9,"yT1":0,"xT2":1058.1,"yT2":0,"toosoon":0,"cond_shown":"randomdotsizeEA","ratio_trial":500,"smaller_num":"9","larger_num":"18","correct_side":2,"subjID":"VioletaPreciadoLozano","gender":"1","age":"11","school":"6"},{"start_time":1551790667605,"click_time":1551790668698,"finger_time":1551790668198,"fix_duration":884.1913733915952,"trial":24,"RT":593,"MT":500,"sideResp":1,"stimulus":"img/500/equaldotsize/L/4_Ratio_500_L_18_R_9.png","xmouse":[774,774,774,774,774,774,774,774,774,774,774,774,774,774,774,774,774,774,774,774,774,774,774,774,774,774,774,771,757,673,614,570,548,532,513,506,506,506,506,506,511,516,518,519,520,517,511,509,509,509,509,509,509,509,505],"ymouse":[485,485,485,485,485,485,485,485,485,485,485,485,485,485,485,485,485,485,485,485,485,485,485,485,485,485,485,481,466,406,372,340,318,297,255,233,227,224,224,221,218,211,199,183,148,120,106,103,102,102,102,102,102,102,98],"timestamp_mouse":[12,44,52,74,92,112,133,153,173,193,212,232,253,274,293,313,332,354,372,393,413,434,453,472,494,513,532,552,572,593,612,632,653,672,693,714,732,753,772,793,812,832,853,872,892,913,932,953,972,993,1013,1032,1053,1073,1093],"xSR":741.5,"ySR":449.15000000000003,"xT1":424.9,"yT1":0,"xT2":1058.1,"yT2":0,"toosoon":0,"cond_shown":"equaldotsize","ratio_trial":500,"smaller_num":"9","larger_num":"18","correct_side":1,"subjID":"VioletaPreciadoLozano","gender":"1","age":"11","school":"6"},{"start_time":1551790670198,"click_time":1551790671097,"finger_time":1551790670817,"fix_duration":619.3582116694165,"trial":25,"RT":619,"MT":280,"sideResp":1,"stimulus":"img/750/equaldotsize/L/1_Ratio_750_L_20_R_15.png","xmouse":[770,770,770,770,770,770,770,770,770,770,770,770,770,770,770,770,770,770,770,770,770,770,770,770,770,770,770,770,770,767,749,734,708,678,648,608,575,558,549,542,537,531,525,517,508,490],"ymouse":[481,481,481,481,481,481,481,481,481,481,481,481,481,481,481,481,481,481,481,481,481,481,481,481,481,481,481,481,481,476,454,436,407,382,356,301,229,188,168,156,146,141,132,120,106,72],"timestamp_mouse":[1,20,41,64,79,100,121,140,159,179,199,220,240,259,280,299,319,339,360,379,399,419,440,459,479,499,519,539,559,579,600,619,639,660,680,699,719,739,759,780,800,819,839,859,880,899],"xSR":741.5,"ySR":449.15000000000003,"xT1":424.9,"yT1":0,"xT2":1058.1,"yT2":0,"toosoon":0,"cond_shown":"equaldotsize","ratio_trial":750,"smaller_num":"15","larger_num":"20","correct_side":1,"subjID":"VioletaPreciadoLozano","gender":"1","age":"11","school":"6"},{"start_time":1551790672783,"click_time":1551790674137,"finger_time":1551790673617,"fix_duration":703.5088291809182,"trial":26,"RT":834,"MT":520,"sideResp":1,"stimulus":"img/900/randomdotsizeEA/L/1_Ratio_900_L_10_R_9.png","xmouse":[767,767,767,767,767,767,767,767,767,767,767,767,767,767,767,767,767,767,767,767,767,767,767,767,767,767,767,767,767,767,767,767,767,767,767,767,767,767,762,758,746,733,712,683,645,587,563,553,546,538,525,516,510,505,502,499,490,489,487,487,487,487,487,487,487,487,487,487],"ymouse":[512,512,512,512,512,512,512,512,512,512,512,512,512,512,512,512,512,512,512,512,512,512,512,512,512,512,512,512,512,512,512,512,512,512,512,512,512,512,512,509,499,488,473,453,426,362,311,280,256,235,208,194,186,177,169,158,118,106,103,103,103,103,103,102,102,102,100,97],"timestamp_mouse":[16,34,55,74,94,116,134,154,174,196,215,235,255,275,294,315,335,354,374,394,414,434,455,474,494,515,534,555,574,596,615,635,655,674,694,716,735,754,774,795,815,834,854,874,896,914,935,954,975,994,1015,1034,1054,1075,1095,1114,1134,1154,1175,1194,1215,1234,1256,1276,1294,1315,1334,1354],"xSR":741.5,"ySR":449.15000000000003,"xT1":424.9,"yT1":0,"xT2":1058.1,"yT2":0,"toosoon":0,"cond_shown":"randomdotsizeEA","ratio_trial":900,"smaller_num":"9","larger_num":"10","correct_side":1,"subjID":"VioletaPreciadoLozano","gender":"1","age":"11","school":"6"},{"start_time":1551790675672,"click_time":1551790676517,"finger_time":1551790676217,"fix_duration":874.4463654705249,"trial":27,"RT":545,"MT":300,"sideResp":1,"stimulus":"img/500/equaldotanddens/L/13_Ratio_500_L_12_R_6.png","xmouse":[804,804,804,804,804,804,804,804,804,804,804,804,804,804,804,804,804,804,804,804,804,804,804,804,801,796,761,718,665,602,536,453,428,419,408,400,392,392,392,392,392,413,427],"ymouse":[485,485,485,485,485,485,485,485,485,485,485,485,485,485,485,485,485,485,485,485,485,485,485,485,481,477,456,438,415,388,350,266,186,124,66,37,16,16,16,16,16,23,25],"timestamp_mouse":[9,26,45,72,86,107,125,146,165,185,205,225,245,265,285,306,326,345,366,387,405,425,447,465,485,506,526,545,566,586,606,625,645,665,685,705,726,747,765,785,805,826,845],"xSR":741.5,"ySR":449.15000000000003,"xT1":424.9,"yT1":0,"xT2":1058.1,"yT2":0,"toosoon":0,"cond_shown":"equaldotanddens","ratio_trial":500,"smaller_num":"6","larger_num":"12","correct_side":1,"subjID":"VioletaPreciadoLozano","gender":"1","age":"11","school":"6"},{"start_time":1551790678742,"click_time":1551790679518,"finger_time":1551790679297,"fix_duration":1263.7914827858774,"trial":28,"RT":555,"MT":221,"sideResp":1,"stimulus":"img/500/randomdotsizeEA/L/7_Ratio_500_L_10_R_5.png","xmouse":[766,766,766,766,766,766,766,766,766,766,766,766,766,766,766,766,766,766,766,766,766,766,766,766,766,765,758,668,629,621,611,596,566,550,536,532,527,519,509],"ymouse":[477,477,477,477,477,477,477,477,477,477,477,477,477,477,477,477,477,477,477,477,477,477,477,477,477,477,473,401,370,358,347,335,301,273,245,218,193,136,99],"timestamp_mouse":[17,48,57,76,96,116,135,155,177,197,216,235,256,276,295,315,336,356,375,395,416,437,456,475,496,515,537,555,575,595,616,636,656,675,695,716,736,756,776],"xSR":741.5,"ySR":449.15000000000003,"xT1":424.9,"yT1":0,"xT2":1058.1,"yT2":0,"toosoon":0,"cond_shown":"randomdotsizeEA","ratio_trial":500,"smaller_num":"5","larger_num":"10","correct_side":1,"subjID":"VioletaPreciadoLozano","gender":"1","age":"11","school":"6"},{"start_time":1551790680592,"click_time":1551790681738,"finger_time":1551790681358,"fix_duration":374.80357107472497,"trial":29,"RT":766,"MT":380,"sideResp":2,"stimulus":"img/900/randomdotsizeEA/R/5_Ratio_900_L_9_R_10.png","xmouse":[804,804,804,804,804,804,804,804,804,804,804,804,804,804,804,804,804,804,804,804,804,804,804,804,804,804,804,804,804,804,804,804,804,804,804,804,809,822,846,883,942,955,963,967,976,1003,1023,1030,1031,1031,1032,1039,1050,1062,1072,1083,1087,1098],"ymouse":[508,508,508,508,508,508,508,508,508,508,508,508,508,508,508,508,508,508,508,508,508,508,508,508,508,508,508,508,508,508,508,508,508,508,508,508,493,459,407,355,289,272,255,241,221,184,168,164,164,164,164,162,156,148,141,120,110,88],"timestamp_mouse":[5,35,46,67,86,105,126,145,167,185,205,225,246,266,287,306,325,346,367,385,406,425,447,466,485,505,527,546,565,585,605,625,646,665,687,705,725,745,766,786,806,825,845,865,887,905,925,945,966,985,1005,1025,1046,1066,1085,1105,1125,1145],"xSR":741.5,"ySR":449.15000000000003,"xT1":424.9,"yT1":0,"xT2":1058.1,"yT2":0,"toosoon":0,"cond_shown":"randomdotsizeEA","ratio_trial":900,"smaller_num":"9","larger_num":"10","correct_side":2,"subjID":"VioletaPreciadoLozano","gender":"1","age":"11","school":"6"},{"start_time":1551790683381,"click_time":1551790684337,"finger_time":1551790683918,"fix_duration":782.6904825399031,"trial":30,"RT":537,"MT":419,"sideResp":2,"stimulus":"img/500/equaldotanddens/R/14_Ratio_500_L_5_R_10.png","xmouse":[759,759,759,759,759,759,758,758,758,758,758,758,758,758,758,758,758,758,758,758,758,758,758,758,758,763,798,844,900,969,1095,1140,1170,1183,1187,1194,1197,1199,1202,1205,1208,1208,1208,1208,1208,1173,1162,1158],"ymouse":[497,497,497,497,497,497,497,497,497,497,497,497,497,497,497,497,497,497,497,497,497,497,497,497,497,484,435,383,336,282,180,143,115,98,83,58,47,42,32,19,3,3,3,3,3,3,15,24],"timestamp_mouse":[26,51,56,77,98,117,136,157,178,196,217,237,257,277,297,317,337,356,377,397,416,436,458,477,497,516,537,556,577,597,616,636,656,676,697,716,737,756,777,797,817,836,856,876,896,916,937,956],"xSR":741.5,"ySR":449.15000000000003,"xT1":424.9,"yT1":0,"xT2":1058.1,"yT2":0,"toosoon":0,"cond_shown":"equaldotanddens","ratio_trial":500,"smaller_num":"5","larger_num":"10","correct_side":2,"subjID":"VioletaPreciadoLozano","gender":"1","age":"11","school":"6"},{"start_time":1551790685729,"click_time":1551790687397,"finger_time":1551790686337,"fix_duration":250,"trial":31,"RT":608,"MT":1060,"sideResp":2,"stimulus":"img/750/equaldotsize/R/12_Ratio_750_L_3_R_4.png","xmouse":[806,806,806,806,806,806,806,805,805,805,805,805,805,805,805,805,805,805,805,805,805,805,805,805,805,805,805,805,804,804,804,804,804,804,804,804,804,804,804,767,757,750,744,742,742,741,741,741,735,724,722,722,722,722,722,722,725,730,756,769,789,806,822,860,876,889,900,904,912,919,928,940,957,996,1014,1028,1037,1042,1045,1047,1049,1052,1058,1061],"ymouse":[466,466,466,466,466,466,466,466,466,466,466,466,466,466,466,466,466,466,466,466,466,466,466,466,466,466,466,466,463,459,447,443,438,436,436,436,436,436,433,398,388,380,372,365,364,360,353,343,318,301,298,297,297,297,297,297,301,306,321,323,323,322,318,302,294,286,278,274,265,258,249,240,225,189,169,150,136,129,125,120,117,112,106,98],"timestamp_mouse":[9,42,50,70,89,109,128,149,169,188,208,228,249,268,288,309,329,349,370,389,409,429,449,468,490,508,529,568,569,589,608,628,649,669,689,709,729,748,768,788,808,829,849,868,888,910,929,948,969,989,1008,1028,1048,1068,1089,1109,1128,1148,1169,1190,1208,1228,1248,1268,1288,1308,1328,1349,1368,1389,1408,1429,1448,1468,1488,1508,1528,1548,1568,1588,1608,1629,1649,1668],"xSR":741.5,"ySR":449.15000000000003,"xT1":424.9,"yT1":0,"xT2":1058.1,"yT2":0,"toosoon":0,"cond_shown":"equaldotsize","ratio_trial":750,"smaller_num":"3","larger_num":"4","correct_side":2,"subjID":"VioletaPreciadoLozano","gender":"1","age":"11","school":"6"},{"start_time":1551790689509,"click_time":1551790690678,"finger_time":1551790690039,"fix_duration":1491.5765023398137,"trial":32,"RT":530,"MT":639,"sideResp":1,"stimulus":"img/250/equaldotanddens/L/1_Ratio_250_L_8_R_2.png","xmouse":[800,800,800,800,800,800,800,800,800,800,800,800,800,800,800,800,800,800,800,800,800,800,800,800,797,773,709,610,502,328,270,244,230,229,229,229,229,229,236,248,266,283,307,340,399,407,409,409,409,409,409,409,410,415,421,421,421,423,428],"ymouse":[487,487,487,487,487,487,487,487,487,487,487,487,487,487,487,487,487,487,487,487,487,487,487,487,484,470,435,376,301,155,100,80,71,68,62,54,46,40,31,25,25,26,33,38,44,44,44,44,44,44,44,44,45,46,48,48,48,48,48],"timestamp_mouse":[9,29,48,69,88,110,129,148,168,190,209,229,248,268,288,308,328,349,369,388,409,428,448,469,489,508,529,549,568,589,608,628,649,668,688,708,728,748,769,788,808,828,848,868,888,908,929,949,969,989,1008,1028,1048,1070,1088,1109,1128,1148,1168],"xSR":741.5,"ySR":449.15000000000003,"xT1":424.9,"yT1":0,"xT2":1058.1,"yT2":0,"toosoon":0,"cond_shown":"equaldotanddens","ratio_trial":250,"smaller_num":"2","larger_num":"8","correct_side":1,"subjID":"VioletaPreciadoLozano","gender":"1","age":"11","school":"6"},{"start_time":1551790691588,"click_time":1551790692578,"finger_time":1551790692217,"fix_duration":250,"trial":33,"RT":629,"MT":361,"sideResp":2,"stimulus":"img/750/randomdotsizeEA/R/12_Ratio_750_L_3_R_4.png","xmouse":[787,787,787,787,787,787,787,787,787,787,787,787,787,787,787,787,787,787,787,787,787,787,787,787,787,787,787,787,787,791,812,829,852,881,911,954,974,986,995,1003,1016,1025,1034,1041,1046,1047,1051,1059,1070,1079],"ymouse":[510,510,510,510,510,510,510,510,510,510,510,510,510,510,510,510,510,510,510,510,510,510,510,510,510,510,510,510,506,499,462,434,394,355,315,257,230,213,199,187,168,159,148,139,133,131,125,117,107,98],"timestamp_mouse":[10,29,56,70,91,109,129,149,169,190,211,229,249,269,291,309,331,349,370,391,411,429,449,471,489,509,530,550,569,590,609,629,650,671,691,709,729,749,770,791,809,829,849,869,891,909,929,949,971,990],"xSR":741.5,"ySR":449.15000000000003,"xT1":424.9,"yT1":0,"xT2":1058.1,"yT2":0,"toosoon":0,"cond_shown":"randomdotsizeEA","ratio_trial":750,"smaller_num":"3","larger_num":"4","correct_side":2,"subjID":"VioletaPreciadoLozano","gender":"1","age":"11","school":"6"},{"start_time":1551790695861,"click_time":1551790696938,"finger_time":1551790696497,"fix_duration":1082.5737638969429,"trial":34,"RT":636,"MT":441,"sideResp":2,"stimulus":"img/750/equaldotsize/R/5_Ratio_750_L_15_R_20.png","xmouse":[794,794,794,794,794,794,794,794,794,794,794,794,794,794,794,794,794,794,794,794,794,794,794,794,794,794,794,793,793,796,803,816,819,821,823,824,838,850,870,896,918,934,953,955,956,958,965,971,982,993,1000,1010,1053,1088],"ymouse":[500,500,500,500,500,500,500,500,500,500,500,500,500,500,500,500,500,500,500,500,500,500,500,500,500,500,500,493,482,468,450,419,404,397,393,386,359,338,310,274,247,230,209,207,205,201,190,183,173,161,154,148,122,93],"timestamp_mouse":[16,42,56,76,97,116,137,158,176,196,218,237,257,277,298,316,336,357,377,396,417,437,457,477,497,517,536,556,576,596,616,636,656,676,696,716,737,756,776,797,816,837,858,876,896,916,938,956,977,997,1016,1036,1057,1076],"xSR":741.5,"ySR":449.15000000000003,"xT1":424.9,"yT1":0,"xT2":1058.1,"yT2":0,"toosoon":0,"cond_shown":"equaldotsize","ratio_trial":750,"smaller_num":"15","larger_num":"20","correct_side":2,"subjID":"VioletaPreciadoLozano","gender":"1","age":"11","school":"6"},{"start_time":1551790698779,"click_time":1551790699838,"finger_time":1551790699297,"fix_duration":1140.5462020007399,"trial":35,"RT":518,"MT":541,"sideResp":1,"stimulus":"img/250/randomdotsizeEA/L/2_Ratio_250_L_16_R_4.png","xmouse":[769,769,769,769,769,769,769,769,769,769,769,769,769,769,769,769,769,769,769,769,769,769,769,769,761,732,674,642,619,607,588,574,561,550,540,517,508,502,499,497,494,494,496,497,497,499,500,501,501,501,501,501,499],"ymouse":[479,479,479,479,479,479,479,479,479,479,479,479,479,479,479,479,479,479,479,479,479,479,479,479,467,430,366,330,303,282,258,246,235,226,217,202,195,187,181,176,159,150,139,128,120,110,108,106,106,105,104,102,98],"timestamp_mouse":[19,38,59,78,98,120,140,158,178,198,219,238,258,279,299,319,338,359,379,398,418,438,459,478,499,518,538,558,578,599,618,638,658,678,699,719,740,758,779,798,818,838,859,880,898,919,939,958,979,1000,1019,1038,1059],"xSR":741.5,"ySR":449.15000000000003,"xT1":424.9,"yT1":0,"xT2":1058.1,"yT2":0,"toosoon":0,"cond_shown":"randomdotsizeEA","ratio_trial":250,"smaller_num":"4","larger_num":"16","correct_side":1,"subjID":"VioletaPreciadoLozano","gender":"1","age":"11","school":"6"},{"start_time":1551790701022,"click_time":1551790701797,"finger_time":1551790701638,"fix_duration":324.9938430301179,"trial":36,"RT":616,"MT":159,"sideResp":2,"stimulus":"img/900/randomdotsizeEA/R/7_Ratio_900_L_9_R_10.png","xmouse":[767,767,767,767,767,767,767,767,766,762,759,757,756,755,755,755,755,755,755,755,755,755,755,755,755,755,755,755,758,770,792,825,877,1007,1026,1037,1046,1060,1090],"ymouse":[480,480,480,480,480,480,480,480,480,482,483,485,485,486,486,486,486,486,486,486,486,486,486,486,486,486,486,486,484,471,443,398,341,228,204,184,161,131,87],"timestamp_mouse":[15,41,56,76,95,116,135,155,175,195,215,235,255,277,295,315,336,355,376,396,417,435,455,475,496,517,536,555,576,595,616,636,655,676,695,715,735,756,775],"xSR":741.5,"ySR":449.15000000000003,"xT1":424.9,"yT1":0,"xT2":1058.1,"yT2":0,"toosoon":0,"cond_shown":"randomdotsizeEA","ratio_trial":900,"smaller_num":"9","larger_num":"10","correct_side":2,"subjID":"VioletaPreciadoLozano","gender":"1","age":"11","school":"6"},{"start_time":1551790703960,"click_time":1551790704837,"finger_time":1551790704337,"fix_duration":1200.6744546075652,"trial":37,"RT":377,"MT":500,"sideResp":1,"stimulus":"img/500/randomdotsizeEA/L/4_Ratio_500_L_18_R_9.png","xmouse":[792,792,792,792,790,790,790,789,789,789,789,789,789,789,789,789,787,772,752,731,713,675,653,627,598,573,537,534,534,534,534,534,534,534,534,534,534,534,534,534,534,532,527,522],"ymouse":[490,490,490,490,489,488,486,486,486,486,486,486,486,486,486,486,482,462,439,416,400,365,336,300,259,214,143,129,120,112,107,98,93,90,90,90,90,90,90,90,90,88,86,80],"timestamp_mouse":[18,38,58,77,97,118,137,158,178,197,218,238,259,277,298,317,338,357,377,397,418,438,457,477,497,519,538,557,577,598,617,637,657,677,699,719,738,758,778,798,817,839,857,877],"xSR":741.5,"ySR":449.15000000000003,"xT1":424.9,"yT1":0,"xT2":1058.1,"yT2":0,"toosoon":0,"cond_shown":"randomdotsizeEA","ratio_trial":500,"smaller_num":"9","larger_num":"18","correct_side":1,"subjID":"VioletaPreciadoLozano","gender":"1","age":"11","school":"6"},{"start_time":1551790705748,"click_time":1551790707037,"finger_time":1551790706558,"fix_duration":250,"trial":38,"RT":810,"MT":479,"sideResp":1,"stimulus":"img/750/randomdotsizeEA/L/10_Ratio_750_L_4_R_3.png","xmouse":[780,780,780,780,780,780,780,780,780,780,780,780,780,780,780,780,780,780,780,780,780,780,780,780,780,780,780,780,780,780,780,780,780,780,780,780,780,780,780,780,783,790,805,812,817,825,831,842,846,850,852,854,854,854,854,854,851,844,821,795,767,734,612,541,492],"ymouse":[502,502,502,502,502,502,502,502,502,502,502,502,502,502,502,502,502,502,502,502,502,502,502,502,502,502,501,497,470,466,462,460,460,460,460,460,460,460,459,450,431,407,362,341,322,305,287,262,253,247,243,240,239,239,239,239,244,257,275,282,283,276,192,138,94],"timestamp_mouse":[9,31,51,69,89,110,129,150,171,189,209,231,249,270,290,310,329,350,370,390,409,429,450,471,490,510,530,549,570,589,610,629,649,670,689,710,729,750,770,789,810,830,850,869,889,909,929,949,970,989,1010,1029,1049,1070,1089,1110,1130,1149,1169,1189,1210,1231,1250,1269,1289],"xSR":741.5,"ySR":449.15000000000003,"xT1":424.9,"yT1":0,"xT2":1058.1,"yT2":0,"toosoon":0,"cond_shown":"randomdotsizeEA","ratio_trial":750,"smaller_num":"3","larger_num":"4","correct_side":1,"subjID":"VioletaPreciadoLozano","gender":"1","age":"11","school":"6"},{"start_time":1551790708644,"click_time":1551790709517,"finger_time":1551790709258,"fix_duration":826.1492180970322,"trial":39,"RT":614,"MT":259,"sideResp":1,"stimulus":"img/500/randomdotsizeEA/L/7_Ratio_500_L_10_R_5.png","xmouse":[812,812,812,812,812,812,812,812,812,812,812,812,812,812,812,812,812,812,812,812,812,812,812,812,812,812,812,812,809,784,732,666,583,557,546,535,525,510,505,502,498,496,494,489],"ymouse":[484,484,484,484,484,484,484,484,484,484,484,484,484,484,484,484,484,484,484,484,484,484,484,484,484,484,484,484,484,463,426,379,299,259,234,209,182,149,139,131,125,117,100,83],"timestamp_mouse":[13,34,54,74,94,114,134,153,174,195,214,235,253,274,294,314,333,353,375,393,413,434,453,474,493,513,533,553,573,593,614,633,653,674,693,713,733,754,773,793,814,833,854,873],"xSR":741.5,"ySR":449.15000000000003,"xT1":424.9,"yT1":0,"xT2":1058.1,"yT2":0,"toosoon":0,"cond_shown":"randomdotsizeEA","ratio_trial":500,"smaller_num":"5","larger_num":"10","correct_side":1,"subjID":"VioletaPreciadoLozano","gender":"1","age":"11","school":"6"},{"start_time":1551790710808,"click_time":1551790711837,"finger_time":1551790711697,"fix_duration":250,"trial":40,"RT":889,"MT":140,"sideResp":1,"stimulus":"img/750/equaldotsize/L/14_Ratio_750_L_8_R_6.png","xmouse":[768,768,768,768,768,768,768,769,769,769,769,769,769,769,769,769,769,769,769,769,769,769,769,769,769,769,769,769,769,769,769,769,769,769,769,769,769,769,769,769,769,769,769,764,724,680,636,619,599,579,523,501],"ymouse":[507,507,507,507,507,507,507,507,507,507,507,507,507,506,506,506,506,506,506,506,506,506,506,506,506,506,506,506,506,506,506,506,506,506,506,506,506,506,506,506,506,506,506,499,466,435,392,354,293,235,115,83],"timestamp_mouse":[9,38,51,69,89,111,129,150,170,189,210,230,249,269,289,309,330,350,369,390,409,429,449,471,489,511,529,549,570,589,610,629,650,670,690,710,730,749,770,790,810,830,849,869,889,910,930,950,969,989,1009,1029],"xSR":741.5,"ySR":449.15000000000003,"xT1":424.9,"yT1":0,"xT2":1058.1,"yT2":0,"toosoon":0,"cond_shown":"equaldotsize","ratio_trial":750,"smaller_num":"6","larger_num":"8","correct_side":1,"subjID":"VioletaPreciadoLozano","gender":"1","age":"11","school":"6"},{"start_time":1551790713511,"click_time":1551790714497,"finger_time":1551790714157,"fix_duration":753.4296542962395,"trial":41,"RT":646,"MT":340,"sideResp":2,"stimulus":"img/250/randomdotsizeEA/R/10_Ratio_250_L_4_R_16.png","xmouse":[803,803,803,803,803,803,803,803,803,803,803,803,803,803,803,803,803,803,803,803,803,803,803,803,800,800,799,799,799,799,799,800,812,827,884,911,929,945,962,987,994,1000,1003,1006,1014,1017,1018,1020,1027,1061],"ymouse":[480,480,480,480,480,480,480,480,480,480,480,480,480,480,480,480,480,480,480,480,480,480,480,480,476,476,474,474,474,474,470,460,442,416,331,295,269,248,228,188,168,143,125,111,86,78,72,70,69,64],"timestamp_mouse":[6,33,46,66,87,106,127,146,166,186,207,226,247,267,287,306,326,347,366,386,406,427,447,467,487,506,526,547,566,586,606,626,646,667,687,706,727,747,766,786,807,826,846,867,887,906,926,946,967,986],"xSR":741.5,"ySR":449.15000000000003,"xT1":424.9,"yT1":0,"xT2":1058.1,"yT2":0,"toosoon":0,"cond_shown":"randomdotsizeEA","ratio_trial":250,"smaller_num":"4","larger_num":"16","correct_side":2,"subjID":"VioletaPreciadoLozano","gender":"1","age":"11","school":"6"},{"start_time":1551790715530,"click_time":1551790716358,"finger_time":1551790716238,"fix_duration":250,"trial":42,"RT":708,"MT":120,"sideResp":2,"stimulus":"img/750/equaldotsize/R/5_Ratio_750_L_15_R_20.png","xmouse":[763,764,764,764,764,764,764,764,764,764,764,764,764,764,764,764,764,764,764,764,764,764,764,764,764,764,764,764,764,764,765,765,765,769,779,795,826,864,973,1051,1091,1114],"ymouse":[496,496,496,496,496,496,496,496,496,496,496,496,496,496,496,496,496,496,496,496,496,496,496,496,496,496,496,496,496,496,496,493,487,470,454,433,395,352,232,154,114,86],"timestamp_mouse":[7,34,47,67,87,108,129,147,168,189,208,227,248,268,287,308,329,349,367,388,407,429,449,467,488,507,528,547,568,587,607,627,647,667,687,708,727,747,767,787,807,828],"xSR":741.5,"ySR":449.15000000000003,"xT1":424.9,"yT1":0,"xT2":1058.1,"yT2":0,"toosoon":0,"cond_shown":"equaldotsize","ratio_trial":750,"smaller_num":"15","larger_num":"20","correct_side":2,"subjID":"VioletaPreciadoLozano","gender":"1","age":"11","school":"6"},{"start_time":1551790717349,"click_time":1551790718398,"finger_time":1551790718217,"fix_duration":250,"trial":43,"RT":868,"MT":181,"sideResp":2,"stimulus":"img/500/equaldotsize/R/15_Ratio_500_L_1_R_2.png","xmouse":[780,780,780,780,780,780,780,780,780,780,780,780,780,780,780,780,780,780,780,780,780,780,780,780,780,780,780,780,780,780,780,780,780,780,780,780,779,770,768,766,766,766,777,795,826,862,901,928,963,977,995,1026,1082],"ymouse":[506,506,506,506,506,506,506,506,506,506,506,506,506,506,506,506,506,506,506,506,506,506,506,506,506,506,506,506,506,506,506,506,506,506,505,504,504,492,487,485,483,479,451,424,387,337,287,253,187,155,119,77,30],"timestamp_mouse":[9,28,48,69,89,110,128,150,169,188,209,228,248,268,288,309,328,348,368,389,409,428,450,468,488,508,529,550,569,589,609,630,649,668,688,708,730,748,768,788,809,828,848,868,888,908,929,949,968,988,1009,1029,1049],"xSR":741.5,"ySR":449.15000000000003,"xT1":424.9,"yT1":0,"xT2":1058.1,"yT2":0,"toosoon":0,"cond_shown":"equaldotsize","ratio_trial":500,"smaller_num":"1","larger_num":"2","correct_side":2,"subjID":"VioletaPreciadoLozano","gender":"1","age":"11","school":"6"},{"start_time":1551790720262,"click_time":1551790720858,"finger_time":1551790720758,"fix_duration":1103.2806599030948,"trial":44,"RT":496,"MT":100,"sideResp":1,"stimulus":"img/250/equaldotanddens/L/3_Ratio_250_L_8_R_2.png","xmouse":[790,790,790,790,790,790,790,790,790,790,790,790,790,790,790,790,790,790,790,790,790,790,789,779,750,698,594,554,527,517],"ymouse":[478,478,478,478,478,478,478,478,478,478,478,478,478,478,478,478,478,478,478,478,478,478,477,455,397,316,164,100,56,38],"timestamp_mouse":[17,38,57,75,96,117,136,157,177,196,216,235,257,276,297,317,336,357,377,396,417,436,456,476,496,516,536,556,576,596],"xSR":741.5,"ySR":449.15000000000003,"xT1":424.9,"yT1":0,"xT2":1058.1,"yT2":0,"toosoon":0,"cond_shown":"equaldotanddens","ratio_trial":250,"smaller_num":"2","larger_num":"8","correct_side":1,"subjID":"VioletaPreciadoLozano","gender":"1","age":"11","school":"6"},{"start_time":1551790722152,"click_time":1551790723079,"finger_time":1551790722719,"fix_duration":452.44232691333406,"trial":45,"RT":567,"MT":360,"sideResp":2,"stimulus":"img/750/equaldotsize/R/11_Ratio_750_L_12_R_16.png","xmouse":[760,760,760,760,760,761,761,761,761,761,761,761,761,761,761,761,761,761,761,761,761,761,761,761,761,761,761,769,799,828,899,980,1109,1135,1146,1146,1146,1146,1146,1146,1146,1146,1146,1141,1131,1128,1126],"ymouse":[486,484,483,482,481,480,480,480,480,480,480,480,480,480,480,480,480,480,480,480,480,480,480,480,480,480,479,472,446,413,346,275,166,142,135,134,134,134,134,134,134,134,129,120,108,101,95],"timestamp_mouse":[7,32,46,66,87,106,126,147,166,187,206,227,246,266,286,306,326,347,366,386,406,426,446,467,486,507,527,546,567,587,607,627,646,666,686,707,726,747,767,787,806,826,846,866,886,907,927],"xSR":741.5,"ySR":449.15000000000003,"xT1":424.9,"yT1":0,"xT2":1058.1,"yT2":0,"toosoon":0,"cond_shown":"equaldotsize","ratio_trial":750,"smaller_num":"12","larger_num":"16","correct_side":2,"subjID":"VioletaPreciadoLozano","gender":"1","age":"11","school":"6"},{"start_time":1551790724848,"click_time":1551790726138,"finger_time":1551790725418,"fix_duration":668.0267775619888,"trial":46,"RT":570,"MT":720,"sideResp":1,"stimulus":"img/900/equaldotsize/R/11_Ratio_900_L_18_R_20.png","xmouse":[787,787,787,787,787,787,787,787,787,787,787,787,787,787,787,787,787,787,787,788,788,788,788,788,788,788,788,774,764,754,744,729,720,719,719,719,719,719,719,719,719,719,717,717,717,717,717,717,705,661,583,494,434,440,452,463,470,474,474,474,474,474,474,474,474],"ymouse":[501,501,501,501,501,501,501,501,501,501,501,501,501,501,501,501,501,501,501,500,499,499,499,499,499,498,494,466,445,422,397,361,337,337,337,337,337,337,337,337,337,336,334,334,334,334,334,334,320,281,229,189,147,133,119,109,103,100,100,100,100,100,100,100,99],"timestamp_mouse":[10,40,50,70,91,110,130,150,170,190,210,230,250,270,291,310,330,350,370,390,410,431,451,470,491,510,530,550,570,590,611,630,650,670,691,710,731,750,771,790,810,831,850,870,890,911,930,950,970,990,1010,1030,1051,1070,1090,1110,1131,1150,1171,1190,1211,1230,1251,1270,1290],"xSR":741.5,"ySR":449.15000000000003,"xT1":424.9,"yT1":0,"xT2":1058.1,"yT2":0,"toosoon":0,"cond_shown":"equaldotsize","ratio_trial":900,"smaller_num":"18","larger_num":"20","correct_side":2,"subjID":"VioletaPreciadoLozano","gender":"1","age":"11","school":"6"},{"start_time":1551790727170,"click_time":1551790728279,"finger_time":1551790728058,"fix_duration":250,"trial":47,"RT":888,"MT":221,"sideResp":1,"stimulus":"img/750/randomdotsizeEA/L/10_Ratio_750_L_4_R_3.png","xmouse":[799,797,797,797,797,797,797,797,797,797,797,797,797,797,797,797,797,797,797,797,797,797,797,797,797,797,797,797,797,797,797,797,797,797,797,797,797,797,797,793,788,777,765,750,735,713,663,631,572,539,515,484,477,473,469,466],"ymouse":[507,507,507,507,507,507,507,507,507,507,507,507,507,507,507,507,507,507,507,507,507,507,507,507,507,507,507,507,507,507,507,507,507,507,507,507,507,507,507,505,501,492,483,470,457,432,364,317,246,211,190,159,143,129,114,99],"timestamp_mouse":[8,31,48,68,87,108,128,148,169,188,209,228,248,269,288,308,329,348,368,388,408,428,448,469,487,509,528,548,568,589,608,629,649,669,689,708,729,748,768,789,808,828,848,868,888,908,928,948,968,988,1008,1029,1048,1069,1088,1109],"xSR":741.5,"ySR":449.15000000000003,"xT1":424.9,"yT1":0,"xT2":1058.1,"yT2":0,"toosoon":0,"cond_shown":"randomdotsizeEA","ratio_trial":750,"smaller_num":"3","larger_num":"4","correct_side":1,"subjID":"VioletaPreciadoLozano","gender":"1","age":"11","school":"6"},{"start_time":1551790730746,"click_time":1551790731859,"finger_time":1551790731398,"fix_duration":346.1129295875215,"trial":48,"RT":652,"MT":461,"sideResp":2,"stimulus":"img/750/equaldotanddens/R/5_Ratio_750_L_15_R_20.png","xmouse":[776,776,776,776,776,776,776,776,776,776,776,776,776,776,776,776,776,776,776,776,776,776,776,776,776,776,776,776,776,775,779,788,816,832,851,872,893,941,1004,1055,1093,1120,1136,1138,1138,1138,1138,1138,1136,1136,1136,1136,1135,1135,1135,1135],"ymouse":[503,503,503,503,503,503,503,503,503,503,503,503,503,503,503,503,503,503,503,503,503,503,503,503,503,503,503,503,503,500,489,470,429,412,397,385,373,343,306,277,254,229,184,164,145,130,118,110,101,101,100,100,100,100,100,99],"timestamp_mouse":[13,32,67,72,92,112,132,152,173,191,213,232,252,273,292,312,332,352,372,391,412,433,452,472,491,513,532,553,572,592,612,632,652,672,692,713,731,752,772,792,813,832,852,872,893,913,933,952,973,992,1012,1032,1053,1073,1092,1113],"xSR":741.5,"ySR":449.15000000000003,"xT1":424.9,"yT1":0,"xT2":1058.1,"yT2":0,"toosoon":0,"cond_shown":"equaldotanddens","ratio_trial":750,"smaller_num":"15","larger_num":"20","correct_side":2,"subjID":"VioletaPreciadoLozano","gender":"1","age":"11","school":"6"},{"start_time":1551790733691,"click_time":1551790735038,"finger_time":1551790734418,"fix_duration":1072.8491806220486,"trial":49,"RT":727,"MT":620,"sideResp":2,"stimulus":"img/500/equaldotsize/R/15_Ratio_500_L_1_R_2.png","xmouse":[790,790,786,784,783,783,783,783,783,783,783,783,783,783,783,783,783,783,783,783,783,783,783,783,783,783,783,783,783,783,783,783,783,782,782,782,785,807,860,932,1116,1199,1218,1227,1231,1231,1231,1231,1231,1230,1224,1210,1199,1189,1179,1167,1163,1161,1161,1161,1161,1161,1161,1161,1161,1161,1159,1158],"ymouse":[494,494,494,493,492,492,492,492,492,492,492,492,492,492,492,492,492,492,492,492,492,492,492,492,492,492,492,492,492,492,492,492,492,491,490,484,446,408,343,282,182,142,127,112,101,88,88,87,87,87,85,81,78,77,75,74,73,72,72,72,72,72,72,72,72,72,72,72],"timestamp_mouse":[19,27,47,68,88,108,128,148,168,186,208,228,247,268,288,307,327,348,368,387,408,428,447,468,488,507,528,548,567,588,608,627,647,668,688,707,727,747,767,788,807,828,847,868,887,907,927,947,968,988,1007,1027,1047,1068,1087,1107,1127,1147,1167,1187,1207,1228,1247,1267,1288,1307,1327,1347],"xSR":741.5,"ySR":449.15000000000003,"xT1":424.9,"yT1":0,"xT2":1058.1,"yT2":0,"toosoon":0,"cond_shown":"equaldotsize","ratio_trial":500,"smaller_num":"1","larger_num":"2","correct_side":2,"subjID":"VioletaPreciadoLozano","gender":"1","age":"11","school":"6"},{"start_time":1551790736904,"click_time":1551790737958,"finger_time":1551790737559,"fix_duration":1006.6935101852188,"trial":50,"RT":655,"MT":399,"sideResp":1,"stimulus":"img/750/equaldotanddens/L/8_Ratio_750_L_4_R_3.png","xmouse":[785,785,785,785,785,785,785,785,785,785,785,785,785,785,785,785,785,785,785,785,785,785,785,785,785,785,785,785,785,782,778,763,749,737,712,699,684,672,664,650,644,633,620,600,570,556,547,539,534,530,529,526,523],"ymouse":[497,497,497,497,497,497,497,497,497,497,497,497,497,497,497,497,497,497,497,497,497,497,497,497,497,497,497,497,497,492,484,459,433,403,337,303,266,239,219,198,191,181,172,161,143,134,124,117,111,105,103,97,86],"timestamp_mouse":[15,43,54,74,94,115,135,154,174,194,215,234,255,274,295,315,334,354,374,394,414,434,454,475,494,514,534,554,574,594,614,634,655,674,694,714,734,755,774,794,814,834,854,875,894,914,933,954,975,994,1013,1034,1054],"xSR":741.5,"ySR":449.15000000000003,"xT1":424.9,"yT1":0,"xT2":1058.1,"yT2":0,"toosoon":0,"cond_shown":"equaldotanddens","ratio_trial":750,"smaller_num":"3","larger_num":"4","correct_side":1,"subjID":"VioletaPreciadoLozano","gender":"1","age":"11","school":"6"},{"start_time":1551790741115,"click_time":1551790742299,"finger_time":1551790741798,"fix_duration":734.5956784467987,"trial":51,"RT":683,"MT":501,"sideResp":2,"stimulus":"img/250/equaldotsize/R/6_Ratio_250_L_6_R_24.png","xmouse":[784,784,784,784,784,784,784,784,784,784,784,784,784,784,784,784,784,784,784,784,784,784,784,784,784,784,784,784,784,784,784,784,791,801,825,839,858,875,891,919,936,942,948,956,984,1002,1014,1025,1030,1033,1034,1036,1037,1038,1043,1048,1054,1061,1071,1089],"ymouse":[495,495,495,495,495,495,495,495,495,495,495,495,495,495,495,495,495,495,495,495,495,495,495,495,495,495,495,495,495,495,495,492,475,454,406,380,352,328,305,269,252,245,239,230,211,198,189,179,174,169,167,165,164,163,158,152,140,128,111,72],"timestamp_mouse":[8,23,47,64,83,104,124,143,163,183,203,224,243,263,283,303,324,343,363,383,403,423,444,463,483,504,523,543,564,584,602,623,643,663,683,703,722,743,763,783,803,823,843,864,883,903,923,944,964,983,1003,1023,1043,1063,1083,1103,1123,1144,1163,1184],"xSR":741.5,"ySR":449.15000000000003,"xT1":424.9,"yT1":0,"xT2":1058.1,"yT2":0,"toosoon":0,"cond_shown":"equaldotsize","ratio_trial":250,"smaller_num":"6","larger_num":"24","correct_side":2,"subjID":"VioletaPreciadoLozano","gender":"1","age":"11","school":"6"},{"start_time":1551790743357,"click_time":1551790744738,"finger_time":1551790744138,"fix_duration":438.01459707146995,"trial":52,"RT":781,"MT":600,"sideResp":1,"stimulus":"img/900/equaldotanddens/L/2_Ratio_900_L_20_R_18.png","xmouse":[790,790,790,790,790,790,790,790,790,790,790,790,790,790,790,790,790,790,790,790,790,790,790,790,790,790,790,790,790,790,790,790,790,790,785,782,775,757,746,737,726,718,704,695,687,679,672,662,653,647,642,638,630,625,610,588,565,521,513,509,509,510,513,513,514,514,514,509,497,489],"ymouse":[511,511,511,511,511,511,511,511,511,511,511,511,511,511,511,511,511,511,511,511,511,511,511,511,511,511,511,511,511,511,511,511,511,511,506,504,501,488,479,472,463,456,435,421,403,384,367,337,310,296,283,276,266,262,254,247,233,187,168,151,139,133,119,115,112,109,106,104,100,96],"timestamp_mouse":[8,21,41,74,81,102,121,142,161,181,202,221,242,262,281,301,322,341,361,381,401,421,442,461,481,501,522,541,562,581,602,621,642,661,682,702,722,740,761,781,801,822,841,861,881,902,922,941,962,981,1001,1021,1041,1061,1081,1102,1121,1141,1162,1181,1201,1221,1241,1261,1282,1302,1321,1341,1361,1381],"xSR":741.5,"ySR":449.15000000000003,"xT1":424.9,"yT1":0,"xT2":1058.1,"yT2":0,"toosoon":0,"cond_shown":"equaldotanddens","ratio_trial":900,"smaller_num":"18","larger_num":"20","correct_side":1,"subjID":"VioletaPreciadoLozano","gender":"1","age":"11","school":"6"},{"start_time":1551790745850,"click_time":1551790746738,"finger_time":1551790746438,"fix_duration":250,"trial":53,"RT":588,"MT":300,"sideResp":2,"stimulus":"img/250/equaldotsize/R/11_Ratio_250_L_3_R_12.png","xmouse":[808,808,808,808,808,808,808,808,808,808,808,808,808,808,808,808,808,808,808,808,808,808,808,808,808,808,808,808,810,821,831,838,854,870,879,889,900,924,935,950,967,988,1050,1069,1083],"ymouse":[498,498,498,498,498,498,498,498,498,498,498,498,498,498,498,498,498,498,498,498,498,498,498,498,498,498,498,493,465,434,412,394,354,323,305,287,269,234,218,200,185,168,122,100,73],"timestamp_mouse":[8,36,48,69,88,108,129,147,168,188,208,228,248,269,288,308,328,348,369,388,408,428,449,468,489,509,528,548,568,588,608,628,649,668,688,709,729,748,768,788,809,828,849,868,888],"xSR":741.5,"ySR":449.15000000000003,"xT1":424.9,"yT1":0,"xT2":1058.1,"yT2":0,"toosoon":0,"cond_shown":"equaldotsize","ratio_trial":250,"smaller_num":"3","larger_num":"12","correct_side":2,"subjID":"VioletaPreciadoLozano","gender":"1","age":"11","school":"6"},{"start_time":1551790747775,"click_time":1551790748659,"finger_time":1551790748239,"fix_duration":276.3085591829739,"trial":54,"RT":464,"MT":420,"sideResp":2,"stimulus":"img/250/equaldotanddens/R/9_Ratio_250_L_3_R_12.png","xmouse":[775,775,775,775,775,775,775,775,775,775,775,775,775,775,775,775,775,775,775,775,779,807,833,862,898,928,967,975,980,986,995,1019,1033,1043,1051,1054,1055,1055,1055,1055,1056,1061,1065,1069,1073],"ymouse":[501,501,501,501,501,501,501,501,501,501,501,501,501,501,501,501,501,501,501,501,495,477,457,434,399,353,293,271,249,235,220,189,173,161,149,145,141,139,137,135,131,118,109,100,92],"timestamp_mouse":[5,24,45,63,83,103,123,144,163,184,202,223,243,264,283,303,323,343,363,384,403,423,443,464,482,503,523,544,563,584,603,624,643,664,684,704,723,744,763,783,803,823,843,863,884],"xSR":741.5,"ySR":449.15000000000003,"xT1":424.9,"yT1":0,"xT2":1058.1,"yT2":0,"toosoon":0,"cond_shown":"equaldotanddens","ratio_trial":250,"smaller_num":"3","larger_num":"12","correct_side":2,"subjID":"VioletaPreciadoLozano","gender":"1","age":"11","school":"6"},{"start_time":1551790749590,"click_time":1551790750338,"finger_time":1551790750218,"fix_duration":250,"trial":55,"RT":628,"MT":120,"sideResp":1,"stimulus":"img/900/equaldotanddens/L/2_Ratio_900_L_20_R_18.png","xmouse":[804,804,804,804,804,804,804,804,804,804,804,804,804,804,804,804,804,804,804,804,804,804,804,804,804,804,804,804,801,798,792,754,716,664,614,564,491,473],"ymouse":[499,499,499,499,499,499,499,499,499,499,499,499,499,499,499,499,499,499,499,499,499,499,499,499,499,499,499,499,498,493,482,428,371,314,252,196,114,85],"timestamp_mouse":[8,28,49,69,89,109,129,148,168,188,209,229,248,269,288,308,328,348,369,388,408,429,449,467,489,509,529,547,569,589,608,628,648,669,688,708,729,748],"xSR":741.5,"ySR":449.15000000000003,"xT1":424.9,"yT1":0,"xT2":1058.1,"yT2":0,"toosoon":0,"cond_shown":"equaldotanddens","ratio_trial":900,"smaller_num":"18","larger_num":"20","correct_side":1,"subjID":"VioletaPreciadoLozano","gender":"1","age":"11","school":"6"},{"start_time":1551790752485,"click_time":1551790753198,"finger_time":1551790753098,"fix_duration":1486.8702223156818,"trial":56,"RT":613,"MT":100,"sideResp":1,"stimulus":"img/750/equaldotanddens/L/14_Ratio_750_L_8_R_6.png","xmouse":[804,804,804,804,804,804,804,804,804,804,804,804,804,804,804,804,804,804,804,804,804,804,804,804,804,804,804,801,798,784,744,688,635,577,523,470],"ymouse":[520,520,520,520,520,520,520,520,520,520,520,520,520,520,520,520,520,520,520,520,520,520,520,520,520,520,520,517,513,499,445,346,260,176,112,50],"timestamp_mouse":[14,38,53,73,93,113,134,153,173,193,213,233,253,274,293,313,334,353,373,393,413,434,453,474,494,514,534,554,573,594,613,634,653,673,693,713],"xSR":741.5,"ySR":449.15000000000003,"xT1":424.9,"yT1":0,"xT2":1058.1,"yT2":0,"toosoon":0,"cond_shown":"equaldotanddens","ratio_trial":750,"smaller_num":"6","larger_num":"8","correct_side":1,"subjID":"VioletaPreciadoLozano","gender":"1","age":"11","school":"6"},{"start_time":1551790754434,"click_time":1551790754999,"finger_time":1551790754918,"fix_duration":414.81929270060203,"trial":57,"RT":484,"MT":81,"sideResp":2,"stimulus":"img/500/equaldotanddens/R/6_Ratio_500_L_9_R_18.png","xmouse":[785,785,785,785,785,785,785,785,785,785,785,785,785,785,785,785,785,785,785,785,785,785,785,794,827,863,912,960,1066],"ymouse":[515,515,515,515,515,515,515,515,515,515,515,515,515,515,515,515,515,515,515,515,515,515,504,452,359,290,224,156,60],"timestamp_mouse":[6,28,45,64,84,104,125,144,164,184,204,224,244,265,284,305,324,344,365,385,404,423,445,464,484,504,525,544,565],"xSR":741.5,"ySR":449.15000000000003,"xT1":424.9,"yT1":0,"xT2":1058.1,"yT2":0,"toosoon":0,"cond_shown":"equaldotanddens","ratio_trial":500,"smaller_num":"9","larger_num":"18","correct_side":2,"subjID":"VioletaPreciadoLozano","gender":"1","age":"11","school":"6"},{"start_time":1551790756132,"click_time":1551790756899,"finger_time":1551790756658,"fix_duration":312.7456706106778,"trial":58,"RT":526,"MT":241,"sideResp":1,"stimulus":"img/900/equaldotsize/L/4_Ratio_900_L_20_R_18.png","xmouse":[795,795,795,795,795,795,795,795,795,795,795,795,795,795,795,795,795,795,795,795,795,795,795,795,794,787,771,743,655,594,564,540,532,530,530,530,529,527,524],"ymouse":[468,468,468,468,468,468,468,468,468,468,468,468,468,468,468,468,468,468,468,468,468,468,468,468,468,455,434,403,303,236,194,162,144,121,113,107,101,95,77],"timestamp_mouse":[6,26,46,66,87,106,126,146,166,186,206,226,246,266,286,306,326,347,367,387,406,426,446,466,486,507,526,546,567,586,606,626,646,666,686,706,727,746,767],"xSR":741.5,"ySR":449.15000000000003,"xT1":424.9,"yT1":0,"xT2":1058.1,"yT2":0,"toosoon":0,"cond_shown":"equaldotsize","ratio_trial":900,"smaller_num":"18","larger_num":"20","correct_side":1,"subjID":"VioletaPreciadoLozano","gender":"1","age":"11","school":"6"},{"start_time":1551790759207,"click_time":1551790759798,"finger_time":1551790759698,"fix_duration":1345.1300716684232,"trial":59,"RT":491,"MT":100,"sideResp":1,"stimulus":"img/250/equaldotanddens/L/1_Ratio_250_L_8_R_2.png","xmouse":[770,770,770,770,770,770,770,770,770,770,770,770,770,770,770,770,770,770,770,770,770,769,765,749,684,630,548,506,478,459],"ymouse":[494,494,494,494,494,494,494,494,494,494,494,494,494,494,494,494,494,494,494,494,494,492,486,468,405,343,233,166,109,30],"timestamp_mouse":[12,38,51,72,91,111,132,151,172,191,212,232,252,272,291,311,331,350,371,392,411,432,452,471,491,511,531,551,572,591],"xSR":741.5,"ySR":449.15000000000003,"xT1":424.9,"yT1":0,"xT2":1058.1,"yT2":0,"toosoon":0,"cond_shown":"equaldotanddens","ratio_trial":250,"smaller_num":"2","larger_num":"8","correct_side":1,"subjID":"VioletaPreciadoLozano","gender":"1","age":"11","school":"6"},{"start_time":1551790761500,"click_time":1551790762238,"finger_time":1551790762098,"fix_duration":900.0760829727548,"trial":60,"RT":598,"MT":140,"sideResp":1,"stimulus":"img/900/equaldotanddens/L/8_Ratio_900_L_20_R_18.png","xmouse":[775,775,775,775,775,775,775,775,775,775,775,775,775,775,775,775,775,775,775,775,775,777,777,777,777,777,777,776,773,745,688,641,594,560,524,512,503],"ymouse":[510,510,510,510,510,510,510,510,510,510,510,510,510,510,510,510,510,510,510,510,505,494,483,474,469,469,468,467,462,425,361,305,244,199,132,104,82],"timestamp_mouse":[18,38,65,79,98,118,138,158,179,199,218,239,258,278,299,318,338,359,378,398,418,438,458,479,498,518,538,558,578,598,618,638,658,678,698,718,738],"xSR":741.5,"ySR":449.15000000000003,"xT1":424.9,"yT1":0,"xT2":1058.1,"yT2":0,"toosoon":0,"cond_shown":"equaldotanddens","ratio_trial":900,"smaller_num":"18","larger_num":"20","correct_side":1,"subjID":"VioletaPreciadoLozano","gender":"1","age":"11","school":"6"},{"start_time":1551790763979,"click_time":1551790764859,"finger_time":1551790764459,"fix_duration":1019.9217475796611,"trial":61,"RT":480,"MT":400,"sideResp":1,"stimulus":"img/250/equaldotsize/L/7_Ratio_250_L_8_R_2.png","xmouse":[784,784,784,784,784,784,784,784,784,784,784,784,784,784,784,784,784,784,784,784,784,782,760,710,634,456,377,355,346,341,340,340,340,340,340,340,340,340,343,352,376,394,413,426],"ymouse":[488,488,488,488,488,488,488,488,488,488,488,488,488,488,488,488,488,488,488,488,488,485,466,427,374,242,147,108,81,63,49,48,48,48,48,48,48,48,47,47,53,57,59,60],"timestamp_mouse":[33,39,59,79,100,119,139,159,179,199,220,240,259,280,299,319,339,359,380,399,419,439,460,480,499,520,540,559,580,599,619,639,660,679,700,719,739,759,778,799,819,839,859,880],"xSR":741.5,"ySR":449.15000000000003,"xT1":424.9,"yT1":0,"xT2":1058.1,"yT2":0,"toosoon":0,"cond_shown":"equaldotsize","ratio_trial":250,"smaller_num":"2","larger_num":"8","correct_side":1,"subjID":"VioletaPreciadoLozano","gender":"1","age":"11","school":"6"},{"start_time":1551790766601,"click_time":1551790767639,"finger_time":1551790767259,"fix_duration":1122.3084088622932,"trial":62,"RT":658,"MT":380,"sideResp":2,"stimulus":"img/500/randomdotsizeEA/R/14_Ratio_500_L_5_R_10.png","xmouse":[787,787,787,787,787,787,787,787,787,787,787,787,787,787,787,787,787,787,787,787,787,787,787,787,787,787,787,787,787,788,791,796,806,818,858,884,926,956,979,1011,1020,1023,1026,1027,1035,1045,1052,1057,1057,1057,1057,1063],"ymouse":[500,500,500,500,500,500,500,500,500,500,500,500,500,500,500,500,500,500,500,500,500,500,500,500,500,500,500,500,500,492,481,463,440,416,360,326,268,233,206,173,158,148,139,131,104,81,71,64,63,63,62,63],"timestamp_mouse":[33,37,57,77,97,117,137,157,177,198,218,237,257,277,297,316,337,358,378,398,418,438,457,477,497,518,536,558,577,597,617,638,658,677,697,717,737,757,778,797,817,837,858,878,897,918,937,958,978,998,1017,1038],"xSR":741.5,"ySR":449.15000000000003,"xT1":424.9,"yT1":0,"xT2":1058.1,"yT2":0,"toosoon":0,"cond_shown":"randomdotsizeEA","ratio_trial":500,"smaller_num":"5","larger_num":"10","correct_side":2,"subjID":"VioletaPreciadoLozano","gender":"1","age":"11","school":"6"},{"start_time":1551790769149,"click_time":1551790769798,"finger_time":1551790769659,"fix_duration":749.4816955501718,"trial":63,"RT":510,"MT":139,"sideResp":1,"stimulus":"img/250/randomdotsizeEA/L/2_Ratio_250_L_16_R_4.png","xmouse":[778,778,778,778,778,778,778,778,778,778,778,778,778,778,778,778,778,778,778,778,778,778,778,778,760,729,692,606,589,557,537,519,512],"ymouse":[514,514,514,514,514,514,514,514,514,514,514,514,514,514,514,514,514,514,514,514,514,514,514,514,490,449,397,231,201,150,126,104,98],"timestamp_mouse":[10,33,50,69,89,109,129,150,169,189,209,230,249,270,289,310,329,350,369,389,410,429,449,469,489,510,529,550,569,589,609,629,649],"xSR":741.5,"ySR":449.15000000000003,"xT1":424.9,"yT1":0,"xT2":1058.1,"yT2":0,"toosoon":0,"cond_shown":"randomdotsizeEA","ratio_trial":250,"smaller_num":"4","larger_num":"16","correct_side":1,"subjID":"VioletaPreciadoLozano","gender":"1","age":"11","school":"6"},{"start_time":1551790771230,"click_time":1551790772198,"finger_time":1551790771818,"fix_duration":630.0011285815261,"trial":64,"RT":588,"MT":380,"sideResp":1,"stimulus":"img/250/equaldotsize/L/14_Ratio_250_L_12_R_3.png","xmouse":[794,794,794,794,794,794,794,794,794,794,794,794,794,794,794,794,794,794,794,794,794,794,794,794,794,794,793,788,759,738,709,674,647,633,617,612,610,610,600,593,586,582,578,556,523,502,487,473,446],"ymouse":[488,488,488,488,488,488,488,488,488,488,488,488,488,488,488,488,488,488,488,488,488,488,488,488,488,488,487,482,451,433,409,364,283,195,29,15,14,14,48,64,75,78,81,99,112,115,115,108,90],"timestamp_mouse":[9,42,49,68,88,108,129,148,168,189,208,228,248,268,289,308,328,349,369,388,408,429,448,469,489,508,529,549,568,588,608,629,648,668,688,708,729,748,768,788,808,829,848,868,888,908,929,948,968],"xSR":741.5,"ySR":449.15000000000003,"xT1":424.9,"yT1":0,"xT2":1058.1,"yT2":0,"toosoon":0,"cond_shown":"equaldotsize","ratio_trial":250,"smaller_num":"3","larger_num":"12","correct_side":1,"subjID":"VioletaPreciadoLozano","gender":"1","age":"11","school":"6"},{"start_time":1551790776225,"click_time":1551790777218,"finger_time":1551790776998,"fix_duration":806.8242866839544,"trial":65,"RT":773,"MT":220,"sideResp":2,"stimulus":"img/250/randomdotsizeEA/R/12_Ratio_250_L_5_R_20.png","xmouse":[772,772,772,772,772,772,772,772,772,772,772,772,772,772,772,772,772,772,772,772,772,772,772,772,772,772,773,777,783,785,785,786,786,786,786,788,792,803,841,863,884,911,938,978,1008,1024,1042,1057,1079,1085],"ymouse":[512,512,512,512,512,512,512,512,512,512,512,512,512,512,512,512,512,512,512,512,512,512,512,512,512,512,512,510,503,500,499,498,498,498,498,496,490,478,443,422,404,377,338,269,219,190,160,138,109,99],"timestamp_mouse":[14,38,54,73,93,114,133,154,173,193,213,233,253,273,293,313,334,353,373,393,413,434,454,473,493,513,533,553,573,593,614,633,653,674,694,713,733,753,773,793,813,833,853,872,892,913,934,953,973,993],"xSR":741.5,"ySR":449.15000000000003,"xT1":424.9,"yT1":0,"xT2":1058.1,"yT2":0,"toosoon":0,"cond_shown":"randomdotsizeEA","ratio_trial":250,"smaller_num":"5","larger_num":"20","correct_side":2,"subjID":"VioletaPreciadoLozano","gender":"1","age":"11","school":"6"},{"start_time":1551790780057,"click_time":1551790781338,"finger_time":1551790780957,"fix_duration":718.3530387593489,"trial":66,"RT":900,"MT":381,"sideResp":1,"stimulus":"img/900/randomdotsizeEA/R/3_Ratio_900_L_9_R_10.png","xmouse":[795,795,795,795,795,795,795,795,795,795,795,795,795,795,795,795,795,795,795,795,795,795,795,795,795,795,795,795,795,795,795,795,795,795,795,795,795,795,795,795,795,795,795,784,765,737,703,653,629,612,597,574,563,537,531,521,513,504,503,502,502,501,498,496,495],"ymouse":[491,491,491,491,491,491,491,491,491,491,491,491,491,491,491,491,491,491,491,491,491,491,491,491,491,491,491,491,491,491,491,491,491,491,491,491,491,491,491,491,491,491,491,484,467,445,412,351,322,300,279,244,231,201,192,181,169,154,150,147,142,136,118,100,91],"timestamp_mouse":[9,22,41,61,81,101,121,141,161,182,202,222,240,262,281,301,321,341,361,381,402,421,441,462,481,502,521,541,561,581,601,622,642,661,681,701,721,741,761,781,801,821,841,861,881,900,921,941,960,981,1001,1021,1041,1061,1081,1101,1121,1141,1160,1181,1201,1221,1242,1261,1281],"xSR":741.5,"ySR":449.15000000000003,"xT1":424.9,"yT1":0,"xT2":1058.1,"yT2":0,"toosoon":0,"cond_shown":"randomdotsizeEA","ratio_trial":900,"smaller_num":"9","larger_num":"10","correct_side":2,"subjID":"VioletaPreciadoLozano","gender":"1","age":"11","school":"6"},{"start_time":1551790784265,"click_time":1551790785418,"finger_time":1551790784998,"fix_duration":485.31297028900735,"trial":67,"RT":733,"MT":420,"sideResp":2,"stimulus":"img/250/equaldotanddens/R/4_Ratio_250_L_3_R_12.png","xmouse":[778,778,778,778,778,778,778,778,778,778,778,778,778,778,778,778,778,778,778,778,778,778,778,778,778,778,778,778,778,778,778,778,778,778,778,779,803,825,858,893,919,957,981,994,1004,1012,1019,1020,1022,1025,1030,1041,1043,1043,1045,1057,1092,1108],"ymouse":[477,477,477,477,477,477,477,477,477,477,477,477,477,477,477,477,477,477,477,477,477,477,477,477,477,477,477,477,477,477,477,477,477,477,476,468,434,411,383,354,331,298,266,238,221,205,184,173,160,143,127,109,108,108,108,108,104,98],"timestamp_mouse":[13,33,54,72,94,113,134,154,174,194,213,234,253,273,293,313,332,354,374,393,414,434,454,472,493,513,534,554,573,594,613,634,653,673,693,713,733,753,774,794,814,833,853,873,894,913,933,952,973,994,1014,1033,1053,1073,1093,1113,1133,1153],"xSR":741.5,"ySR":449.15000000000003,"xT1":424.9,"yT1":0,"xT2":1058.1,"yT2":0,"toosoon":0,"cond_shown":"equaldotanddens","ratio_trial":250,"smaller_num":"3","larger_num":"12","correct_side":2,"subjID":"VioletaPreciadoLozano","gender":"1","age":"11","school":"6"},{"start_time":1551790786649,"click_time":1551790787499,"finger_time":1551790787138,"fix_duration":250,"trial":68,"RT":489,"MT":361,"sideResp":1,"stimulus":"img/250/equaldotsize/L/15_Ratio_250_L_12_R_3.png","xmouse":[794,794,794,794,794,794,794,794,794,794,794,794,794,794,794,794,794,794,794,794,794,792,790,772,738,714,683,625,601,573,549,538,531,531,531,531,531,531,529,525,520,511,496],"ymouse":[502,502,502,502,502,502,502,502,502,502,502,502,502,502,502,502,502,502,502,502,502,502,498,473,440,420,397,339,299,229,189,171,157,156,156,156,156,150,145,134,122,107,83],"timestamp_mouse":[10,34,50,70,88,110,129,150,170,189,210,228,249,269,289,309,329,349,368,390,410,429,449,469,489,509,530,550,569,589,609,630,648,668,689,709,729,748,769,789,809,829,849],"xSR":741.5,"ySR":449.15000000000003,"xT1":424.9,"yT1":0,"xT2":1058.1,"yT2":0,"toosoon":0,"cond_shown":"equaldotsize","ratio_trial":250,"smaller_num":"3","larger_num":"12","correct_side":1,"subjID":"VioletaPreciadoLozano","gender":"1","age":"11","school":"6"},{"start_time":1551790789493,"click_time":1551790790279,"finger_time":1551790789998,"fix_duration":1393.7006059234561,"trial":69,"RT":505,"MT":281,"sideResp":1,"stimulus":"img/500/equaldotsize/L/8_Ratio_500_L_8_R_4.png","xmouse":[785,785,785,785,785,785,785,785,785,785,785,785,785,785,785,785,785,785,785,785,785,785,784,772,751,722,643,611,580,538,514,485,483,483,483,481,480,478,477,475],"ymouse":[506,506,506,506,506,506,506,506,506,506,506,506,506,506,506,506,506,506,506,506,506,506,503,491,473,447,337,293,245,187,160,130,128,128,128,126,120,111,101,91],"timestamp_mouse":[8,26,45,65,86,106,125,145,164,186,205,225,245,265,286,306,326,345,365,385,405,426,445,465,485,505,525,545,566,585,605,626,645,665,686,704,725,745,765,786],"xSR":741.5,"ySR":449.15000000000003,"xT1":424.9,"yT1":0,"xT2":1058.1,"yT2":0,"toosoon":0,"cond_shown":"equaldotsize","ratio_trial":500,"smaller_num":"4","larger_num":"8","correct_side":1,"subjID":"VioletaPreciadoLozano","gender":"1","age":"11","school":"6"},{"start_time":1551790793606,"click_time":1551790794758,"finger_time":1551790794318,"fix_duration":1125.3767061472365,"trial":70,"RT":712,"MT":440,"sideResp":1,"stimulus":"img/500/randomdotsizeEA/L/4_Ratio_500_L_18_R_9.png","xmouse":[790,790,790,790,790,790,790,790,790,790,790,790,790,790,790,790,790,790,790,790,790,790,790,790,790,790,790,790,790,790,790,784,777,762,749,719,706,693,674,637,630,619,608,598,573,555,541,530,524,522,522,522,522,520,520,517,514,508],"ymouse":[504,504,504