[{"start_time":1551800613253,"click_time":1551800635061,"finger_time":1551800619139,"fix_duration":569.3741204965261,"trial":0,"RT":5886,"MT":15922,"sideResp":1,"stimulus":[],"xmouse":[777,777,777,777,777,777,777,777,777,777,777,777,777,777,777,777,777,777,777,777,777,777,777,777,777,777,777,777,777,777,777,777,777,777,777,777,777,777,777,777,777,777,777,777,777,777,777,777,777,777,777,777,777,777,777,777,777,777,777,777,777,777,777,777,777,777,777,777,777,777,777,777,777,777,777,777,777,777,777,777,777,777,777,777,777,777,777,777,777,777,777,777,777,777,777,777,777,777,777,777,777,777,777,777,777,777,777,777,777,777,777,777,777,777,777,777,777,777,777,777,777,777,777,777,777,777,777,777,777,777,777,777,777,777,777,777,777,777,777,777,777,777,777,777,777,777,777,777,777,777,777,777,777,777,777,777,777,777,777,777,777,777,777,777,777,777,777,777,777,777,777,777,777,777,777,777,777,777,777,777,777,777,777,777,777,777,777,777,777,777,777,777,777,777,777,777,777,777,777,777,777,777,777,777,777,777,777,777,777,777,777,777,777,777,777,777,777,777,777,777,777,777,777,777,777,777,777,777,777,777,777,777,777,777,777,777,777,777,777,777,777,777,777,777,777,777,777,777,777,785,793,795,797,797,797,797,798,799,799,800,801,801,801,801,801,801,801,801,801,801,801,801,801,801,801,801,801,801,801,801,801,801,801,801,801,801,801,801,801,801,801,799,793,788,775,770,764,759,753,747,744,739,733,731,724,720,717,717,721,734,742,752,765,789,803,813,819,821,821,821,821,821,821,821,821,821,821,821,821,821,821,821,821,821,821,821,820,819,819,817,815,813,812,809,809,808,807,806,803,801,799,795,794,792,787,783,779,774,764,761,757,750,746,746,746,746,746,746,746,746,746,1148,1166,1178,1179,1167,1146,1117,1050,993,916,787,708,643,587,579,579,579,578,580,587,607,623,656,672,686,699,712,721,730,733,733,733,733,733,733,733,733,733,734,740,745,762,772,785,785,785,785,785,785,785,785,785,785,785,785,785,785,785,785,785,785,785,785,785,785,785,785,786,786,786,790,794,796,804,808,816,853,951,1185,1185,1185,1185,1185,1185,1185,1185,1185,1185,1555,1494,1364,1288,1172,1144,1126,1119,1116,1116,1116,1116,1116,1116,1108,1099,1081,1057,1028,994,985,982,981,981,981,971,952,932,907,879,836,820,816,814,814,814,812,807,796,787,775,773,772,770,770,770,770,770,770,770,770,770,770,770,770,770,770,770,770,770,770,770,770,770,770,770,770,770,770,770,770,770,770,770,770,782,786,789,790,791,791,791,791,791,791,791,791,791,791,791,791,791,791,791,791,791,791,791,791,791,791,791,791,791,791,791,791,791,791,791,791,791,791,791,791,791,791,791,791,791,791,791,791,791,791,791,791,791,791,791,791,791,791,791,791,791,791,791,791,791,791,791,791,791,791,791,791,791,791,791,791,791,791,791,791,791,791,791,791,791,791,791,791,791,791,791,791,791,791,791,791,791,791,791,791,791,791,791,791,791,791,791,791,791,791,791,791,791,791,791,791,791,791,791,791,791,791,791,791,791,791,791,791,791,791,794,803,817,835,851,869,871,876,879,892,897,906,915,924,931,945,953,958,962,971,971,970,970,970,970,970,970,970,970,970,827,809,793,775,758,734,730,728,725,711,702,689,680,671,668,670,681,729,793,936,977,1000,1012,1014,1014,1014,1014,1014,1014,958,915,873,832,809,796,792,792,792,792,792,790,788,787,789,795,802,803,803,803,803,803,803,803,803,803,803,803,803,803,803,803,803,803,803,803,803,803,803,803,803,803,803,803,803,803,803,803,803,803,803,803,803,803,803,803,803,803,803,803,803,803,803,803,803,803,803,803,803,803,803,803,803,803,803,803,803,803,803,803,803,803,803,803,803,803,808,814,817,821,823,825,825,825,825,801,781,781,781,781,781,781,781,781,779,780,781,781,782,782,785,787,787,787,787,787,788,793,800,805,815,822,832,844,852,859,868,869,870,870,870,870,870,870,870,870,870,870,870,866,863,853,850,846,842,842,842,841,841,841,841,841,840,840,835,835,835,835,836,839,839,839,839,839,839,839,839,839,839,839,839,839,839,839,839,839,839,839,839,839,839,839,839,839,839,839,839,839,839,839,839,839,839,839,839,839,800,785,729,702,690,689,689,689,689,689,686,673,668,666,653,627,587,554,543,536,536,536,536,536,536,536,536,536,535,534,534,534,534,534,534,540,546,559,577,609,616,621,623,624,626,626,626,627,630,647,659,674,709,736,758,787,798,808,822,834,852,855,855,855,844,837,830,822,816,811,807,807,806,806,806,806,806,806,806,806,806,806,806,806,806,806,806,806,806,806,806,806,806,806,806,806,806,806,806,806,806,806,806,806,806,806,806,806,806,806,806,806,806,809,814,815,815,815,815,815,815,815,815,815,815,815,815,815,815,815,815,815,815,815,815,809,783,803,832,864,898,900,896,879,836,824,816,810,806,805,805,803,800,788,775,775,775,775,778,798,827,890,927,939,939,939,939,939,939,939,939,518],"ymouse":[505,505,505,505,505,505,505,505,505,505,505,505,505,505,505,505,505,505,505,505,505,505,505,505,505,505,505,505,505,505,505,505,505,505,505,505,505,505,505,505,505,505,505,505,505,505,505,505,505,505,505,505,505,505,505,505,505,505,505,505,505,505,505,505,505,505,505,505,505,505,505,505,505,505,505,505,505,505,505,505,505,505,505,505,505,505,505,505,505,505,505,505,505,505,505,505,505,505,505,505,505,505,505,505,505,505,505,505,505,505,505,505,505,505,505,505,505,505,505,505,505,505,505,505,505,505,505,505,505,505,505,505,505,505,505,505,505,505,505,505,505,505,505,505,505,505,505,505,505,505,505,505,505,505,505,505,505,505,505,505,505,505,505,505,505,505,505,505,505,505,505,505,505,505,505,505,505,505,505,505,505,505,505,505,505,505,505,505,505,505,505,505,505,505,505,505,505,505,505,505,505,505,505,505,505,505,505,505,505,505,505,505,505,505,505,505,505,505,505,505,505,505,505,505,505,505,505,505,505,505,505,505,505,505,505,505,505,505,505,505,505,505,505,505,505,505,505,505,505,513,520,521,523,523,523,523,524,525,526,528,528,528,528,528,528,528,528,528,528,528,528,528,528,528,528,528,528,528,528,528,528,528,528,528,528,528,528,528,528,528,529,535,543,552,575,585,597,608,617,627,631,639,646,651,662,666,669,671,674,676,673,668,652,610,587,569,558,555,554,554,554,554,554,554,554,554,554,554,554,554,554,554,554,554,554,554,553,553,553,551,548,546,544,539,537,535,533,532,528,524,521,518,517,517,515,514,514,514,518,520,530,605,706,706,706,706,706,706,706,706,706,699,656,619,576,559,542,531,529,541,559,589,600,601,597,594,593,593,592,586,579,566,558,547,546,546,546,546,546,546,546,546,546,546,546,546,546,546,546,546,544,541,533,529,523,523,523,523,523,523,523,523,523,523,523,523,523,523,523,523,523,523,523,523,523,523,523,523,522,522,522,515,509,507,507,507,512,537,591,710,710,710,710,710,710,710,710,710,710,628,579,508,476,435,422,410,402,398,394,394,394,394,394,401,412,426,441,454,464,464,464,464,464,464,466,470,472,476,476,476,476,476,476,476,476,476,480,489,498,508,510,511,512,512,512,512,512,512,512,512,512,512,512,512,512,512,512,512,512,512,512,512,512,512,512,512,512,512,512,512,512,512,512,513,514,515,516,517,517,517,517,517,517,517,517,517,517,517,517,517,517,517,517,517,517,517,517,517,517,517,517,517,517,517,517,517,517,517,517,517,517,517,517,517,517,517,517,517,517,517,517,517,517,517,517,517,517,517,517,517,517,517,517,517,517,517,517,517,517,517,517,517,517,517,517,517,517,517,517,517,517,517,517,517,517,517,517,517,517,517,517,517,517,517,517,517,517,517,517,517,517,517,517,517,517,517,517,517,517,517,517,517,517,517,517,517,517,517,517,517,517,517,517,517,517,517,517,517,517,517,517,517,517,517,514,476,425,360,306,218,208,192,186,176,174,172,171,171,171,171,171,171,166,128,76,43,43,43,43,43,43,43,43,43,4,23,41,62,83,120,127,128,135,170,204,250,300,348,429,468,502,571,622,695,707,710,711,711,711,711,711,711,709,671,654,645,640,639,639,639,639,639,639,639,638,614,587,564,545,520,516,516,516,516,516,516,516,516,516,516,516,516,516,516,516,516,516,516,516,516,516,516,516,516,516,516,516,516,516,516,516,516,516,516,516,516,516,516,516,516,516,516,516,516,516,516,516,516,516,516,516,516,516,516,516,516,516,516,516,516,516,516,516,516,516,516,516,516,516,500,475,468,455,448,442,442,442,442,526,629,629,629,629,629,629,629,629,713,657,652,650,648,645,641,635,632,632,632,632,632,640,643,644,645,638,623,604,590,573,547,536,524,521,521,521,521,521,521,521,521,521,519,518,517,516,516,515,515,515,515,515,515,515,515,515,517,527,570,608,651,665,679,697,697,697,697,697,697,697,697,697,697,697,697,697,697,697,697,697,697,697,697,697,697,697,697,697,697,697,697,697,697,697,697,697,697,697,697,697,583,539,418,377,365,365,365,365,365,364,343,298,291,282,247,211,151,109,98,95,95,95,95,95,95,95,95,95,95,107,143,158,166,181,193,229,250,280,312,358,371,378,384,387,409,420,430,437,448,495,522,559,622,657,671,674,668,661,652,641,609,601,596,584,548,534,518,501,490,483,475,474,473,473,473,473,473,473,473,473,473,473,473,473,473,473,473,473,473,473,473,473,473,473,473,473,473,473,473,473,473,473,473,473,473,473,473,473,473,473,473,470,464,442,419,417,416,416,416,416,416,416,416,416,416,416,416,416,416,416,416,416,416,416,416,442,552,628,659,665,665,651,625,560,428,385,357,343,337,336,336,337,340,363,424,445,450,450,450,411,344,197,83,17,17,17,17,17,17,17,17,17],"timestamp_mouse":[9,36,46,67,87,107,126,146,167,187,205,226,246,266,285,307,327,346,367,387,406,426,447,467,486,506,526,546,567,587,606,626,647,667,685,706,726,746,767,785,806,826,846,865,887,906,926,947,966,986,1007,1026,1046,1066,1087,1106,1127,1146,1165,1186,1206,1226,1246,1266,1286,1306,1327,1345,1365,1386,1407,1426,1447,1466,1486,1507,1526,1546,1567,1586,1606,1626,1647,1665,1686,1706,1727,1747,1767,1786,1807,1826,1847,1867,1885,1906,1927,1947,1966,1987,2007,2026,2047,2067,2086,2107,2127,2147,2166,2187,2207,2227,2247,2266,2287,2306,2327,2346,2366,2387,2406,2426,2447,2467,2487,2505,2526,2547,2567,2587,2606,2627,2646,2667,2686,2705,2726,2747,2766,2787,2807,2826,2846,2867,2887,2907,2926,2945,2967,2987,3007,3026,3045,3067,3087,3106,3126,3147,3167,3185,3207,3226,3247,3265,3287,3306,3326,3347,3367,3386,3407,3427,3447,3467,3486,3507,3527,3547,3567,3586,3607,3626,3646,3667,3687,3705,3727,3746,3767,3787,3806,3827,3847,3865,3886,3906,3925,3947,3967,3986,4006,4027,4047,4066,4087,4107,4127,4146,4167,4187,4207,4226,4247,4267,4286,4307,4327,4347,4367,4387,4406,4427,4447,4466,4487,4507,4526,4547,4566,4585,4607,4627,4646,4667,4687,4707,4727,4747,4767,4787,4806,4826,4847,4866,4887,4907,4927,4947,4966,4986,5006,5027,5047,5067,5086,5106,5126,5146,5166,5187,5206,5227,5247,5267,5285,5306,5326,5347,5367,5386,5406,5426,5445,5467,5486,5506,5526,5547,5566,5587,5606,5627,5647,5665,5687,5705,5726,5747,5767,5787,5807,5826,5846,5866,5886,5905,5927,5947,5966,5987,6006,6026,6046,6067,6086,6107,6126,6146,6166,6187,6206,6225,6246,6267,6286,6306,6326,6346,6366,6386,6406,6426,6447,6466,6486,6507,6526,6546,6565,6587,6605,6627,6646,6666,6686,6707,6725,6746,6767,6786,6807,6827,6846,6867,6887,6906,6926,6947,6966,6987,7006,7025,7047,7066,7087,7107,7126,7146,7166,7187,7207,7225,7246,7267,7286,7306,7326,7345,7366,7385,7406,7426,7447,7467,7485,7507,7526,7546,7568,7585,7607,7626,7646,7667,7685,7706,7726,7746,7766,7785,7807,7827,7846,7866,7886,7906,7927,7946,7967,7986,8006,8026,8047,8067,8086,8106,8126,8146,8166,8186,8206,8226,8246,8266,8287,8307,8327,8346,8365,8386,8405,8427,8446,8466,8486,8506,8526,8546,8566,8587,8606,8627,8646,8666,8687,8707,8726,8745,8767,8785,8806,8827,8846,8866,8887,8905,8926,8946,8966,8986,9007,9027,9046,9066,9086,9106,9126,9147,9167,9186,9206,9226,9246,9267,9286,9306,9327,9347,9366,9386,9407,9426,9446,9467,9485,9507,9526,9546,9566,9586,9606,9626,9647,9666,9687,9707,9726,9747,9766,9786,9806,9826,9847,9867,9886,9906,9926,9946,9966,9986,10006,10026,10046,10066,10087,10106,10127,10146,10167,10186,10206,10225,10247,10266,10286,10305,10326,10346,10365,10386,10407,10426,10446,10466,10486,10506,10527,10547,10567,10587,10606,10627,10646,10667,10686,10706,10726,10746,10765,10787,10806,10825,10846,10866,10886,10906,10926,10947,10966,10986,11006,11026,11046,11067,11085,11107,11126,11146,11166,11187,11207,11226,11246,11265,11286,11306,11326,11346,11366,11386,11407,11426,11446,11465,11486,11505,11526,11546,11567,11587,11607,11626,11646,11667,11687,11705,11726,11746,11766,11786,11806,11826,11846,11867,11887,11906,11927,11946,11967,11986,12007,12026,12046,12066,12086,12106,12126,12146,12166,12186,12206,12226,12245,12266,12286,12306,12326,12347,12365,12386,12405,12427,12446,12466,12487,12507,12525,12546,12566,12586,12605,12626,12646,12666,12685,12706,12726,12746,12766,12786,12806,12826,12846,12866,12887,12906,12926,12946,12966,12986,13007,13025,13046,13066,13087,13106,13127,13146,13167,13186,13206,13227,13247,13265,13287,13307,13327,13345,13367,13386,13407,13426,13446,13466,13485,13506,13527,13547,13567,13586,13606,13626,13646,13667,13686,13706,13726,13746,13766,13787,13807,13826,13846,13867,13887,13906,13927,13947,13965,13985,14005,14025,14046,14067,14086,14106,14127,14146,14167,14185,14207,14226,14247,14266,14286,14306,14327,14346,14365,14387,14406,14426,14446,14467,14486,14505,14527,14547,14566,14586,14606,14626,14646,14667,14686,14707,14726,14747,14767,14786,14807,14826,14846,14865,14886,14906,14927,14947,14966,14987,15005,15026,15046,15066,15086,15106,15127,15146,15167,15187,15207,15225,15247,15266,15287,15305,15327,15346,15366,15387,15407,15427,15447,15466,15487,15506,15525,15547,15567,15587,15606,15626,15646,15667,15687,15707,15727,15746,15767,15787,15807,15827,15846,15866,15886,15906,15927,15947,15967,15987,16006,16025,16047,16066,16087,16107,16127,16147,16166,16187,16207,16227,16246,16267,16286,16306,16327,16346,16367,16387,16406,16427,16446,16467,16486,16507,16526,16547,16567,16586,16606,16627,16646,16666,16687,16706,16727,16747,16766,16785,16807,16826,16846,16867,16886,16906,16926,16946,16966,16986,17007,17026,17046,17067,17086,17107,17125,17145,17167,17185,17207,17226,17246,17266,17286,17306,17326,17346,17367,17386,17407,17426,17447,17467,17486,17507,17526,17546,17566,17587,17607,17627,17646,17666,17687,17706,17726,17747,17767,17786,17806,17826,17846,17866,17887,17907,17927,17947,17966,17987,18006,18027,18047,18067,18086,18107,18126,18147,18166,18187,18207,18227,18247,18266,18287,18306,18326,18346,18367,18385,18406,18427,18446,18466,18486,18506,18525,18546,18567,18586,18606,18626,18646,18667,18686,18706,18727,18746,18767,18786,18806,18827,18846,18866,18886,18907,18925,18946,18966,18986,19006,19027,19046,19066,19086,19106,19126,19146,19167,19186,19205,19226,19246,19267,19286,19307,19327,19347,19367,19386,19407,19426,19446,19466,19487,19506,19526,19547,19566,19587,19606,19626,19646,19667,19685,19706,19725,19747,19766,19786,19807,19826,19846,19866,19887,19905,19927,19947,19966,19987,20007,20025,20047,20067,20086,20107,20127,20146,20167,20186,20206,20226,20245,20267,20285,20307,20327,20346,20366,20385,20406,20426,20446,20467,20485,20507,20526,20547,20566,20587,20606,20627,20646,20667,20686,20706,20726,20746,20766,20786,20807,20826,20846,20867,20887,20906,20927,20946,20967,20986,21007,21027,21046,21067,21086,21106,21126,21146,21166,21187,21206,21227,21247,21268,21285,21307,21326,21347,21367,21386,21405,21426,21447,21467,21486,21507,21526,21546,21568,21586,21606,21627,21646,21667,21687,21706,21726,21746,21767,21786,21808],"xSR":741.5,"ySR":469.95,"xT1":424.9,"yT1":0,"xT2":1058.1,"yT2":0,"toosoon":0,"cond_shown":"Incongruent","ratio_trial":100,"L_num":9,"L_den":15,"R_num":14,"R_den":28,"correct_side":1,"subjID":"arielsantiagodiazmorales30","gender":"0","age":"12","school":"6","test":{"fix_dur":[250,1500],"timestim":1000,"targets_dim":[100,100],"targets_relative_coord":[0.3,0.7],"size_stim":[880,420],"start_dim":[100,100],"size_start":[300,300],"size_fix":60,"samplingrate":20,"img_types":["Congruent","Incongruent"],"ratios":[100,200,300],"rep_conds":19,"nTrials":120,"trials_to_rest":500,"Trials_order":[67,75,45,63,5,108,87,44,57,34,99,71,12,9,113,53,104,78,52,33,8,49,24,4,28,25,107,2,39,7,43,15,102,6,83,88,38,86,50,3,66,110,60,29,27,82,0,55,59,54,10,47,116,51,93,30,84,85,115,103,101,18,68,97,46,109,41,23,114,40,61,72,14,79,81,77,11,80,98,19,100,95,96,105,70,118,1,112,21,74,76,65,31,92,62,13,90,35,56,42,26,37,106,58,117,111,89,73,91,20,64,16,69,22,119,48,36,32,17,94],"cond_shown":["Incongruent","Incongruent","Incongruent","Incongruent","Incongruent","Congruent","Incongruent","Congruent","Incongruent","Congruent","Incongruent","Incongruent","Congruent","Incongruent","Incongruent","Incongruent","Congruent","Congruent","Congruent","Incongruent","Congruent","Incongruent","Congruent","Congruent","Congruent","Incongruent","Incongruent","Congruent","Incongruent","Incongruent","Incongruent","Incongruent","Congruent","Congruent","Incongruent","Congruent","Congruent","Congruent","Congruent","Incongruent","Congruent","Congruent","Congruent","Incongruent","Incongruent","Congruent","Congruent","Incongruent","Incongruent","Congruent","Congruent","Incongruent","Congruent","Incongruent","Incongruent","Congruent","Congruent","Incongruent","Incongruent","Incongruent","Incongruent","Congruent","Congruent","Incongruent","Congruent","Incongruent","Incongruent","Incongruent","Congruent","Congruent","Incongruent","Congruent","Congruent","Incongruent","Incongruent","Incongruent","Incongruent","Congruent","Congruent","Incongruent","Congruent","Incongruent","Congruent","Incongruent","Congruent","Congruent","Incongruent","Congruent","Incongruent","Congruent","Congruent","Incongruent","Incongruent","Congruent","Congruent","Incongruent","Congruent","Incongruent","Congruent","Congruent","Congruent","Incongruent","Congruent","Congruent","Incongruent","Incongruent","Incongruent","Incongruent","Incongruent","Congruent","Congruent","Congruent","Incongruent","Congruent","Incongruent","Congruent","Congruent","Congruent","Incongruent","Congruent"],"ratio_trial":[100,200,200,200,300,100,200,200,200,300,200,300,100,200,300,300,200,100,300,200,200,100,100,300,300,100,300,200,200,100,100,200,100,100,300,300,200,200,200,200,100,200,100,300,200,300,100,100,300,100,300,300,200,200,200,100,100,100,100,100,300,100,200,100,300,100,300,300,100,300,100,100,200,100,200,300,300,200,200,100,300,300,100,200,300,300,100,300,200,200,300,300,100,200,200,100,100,300,200,100,200,100,300,300,200,200,300,100,100,200,300,300,200,300,300,100,100,200,300,300],"left_num":[9,7,7,11,4,12,7,11,7,1,1,4,11,7,13,4,7,11,1,4,12,6,7,1,4,8,13,8,7,9,6,4,6,11,7,20,20,3,14,6,8,3,15,1,7,1,9,12,4,6,4,3,6,7,1,12,11,10,4,3,4,1,4,10,1,3,4,4,1,20,10,2,1,9,4,8,13,15,9,6,1,3,9,4,20,2,2,24,6,8,1,4,13,15,3,3,4,4,6,4,3,12,1,18,7,3,2,4,9,16,24,18,6,1,4,7,8,1,13,3],"right_num":[14,8,12,3,2,13,8,3,8,19,3,2,4,14,12,2,2,4,19,6,6,13,9,11,13,1,12,3,12,14,7,1,5,6,8,8,9,7,6,3,2,11,13,3,14,7,8,9,2,5,2,4,3,4,3,13,6,8,8,7,8,18,3,9,11,4,2,2,3,5,8,6,21,6,14,9,12,4,4,3,7,4,8,6,5,12,6,8,3,3,3,8,6,4,7,4,15,2,3,15,14,9,7,9,6,11,6,8,6,12,2,9,3,3,2,15,2,21,12,11],"left_den":[15,10,10,20,20,30,10,22,10,3,2,20,22,10,26,20,21,22,3,5,15,10,14,5,20,20,26,15,10,15,10,30,20,22,10,25,25,10,28,20,16,10,25,2,10,20,15,24,20,20,5,6,15,15,2,30,22,25,8,9,5,2,10,25,5,6,20,20,2,25,25,5,2,18,6,10,26,25,20,12,20,6,15,5,25,10,4,30,20,15,5,5,26,25,10,6,10,20,15,10,10,24,20,20,15,4,4,8,18,20,30,20,20,5,20,14,16,2,26,12],"right_den":[28,16,24,4,4,26,16,10,16,30,10,4,10,28,15,4,15,10,30,10,10,26,15,22,26,2,15,9,24,28,14,3,25,15,20,16,15,14,20,6,5,22,26,15,28,20,16,15,4,25,4,20,15,6,10,26,15,16,20,30,16,30,15,18,22,10,4,4,5,10,16,12,30,10,30,18,15,10,16,5,20,20,16,10,10,24,15,16,6,9,6,16,10,10,14,10,30,4,15,30,28,15,20,15,9,20,30,20,10,20,4,15,6,6,4,25,5,30,15,20],"correct_side":[1,1,1,2,2,2,1,1,1,2,1,2,1,1,2,2,1,1,2,1,1,1,2,2,2,2,2,1,1,1,1,2,1,1,1,1,1,2,1,2,1,2,1,1,1,2,1,2,2,1,1,1,1,2,1,2,1,2,1,1,1,2,1,2,2,1,2,2,2,1,2,2,2,2,1,1,2,1,1,2,2,1,1,1,1,2,1,1,2,1,2,1,2,1,2,1,2,2,1,2,2,2,2,1,2,1,1,1,2,1,1,1,2,2,2,2,1,2,2,2],"img_shown":["img2/100/Incongruent/L/I_Dist_100_LN_9_LD_15_RN_14_RD_28_0.png","img2/200/Incongruent/L/I_Dist_200_LN_7_LD_10_RN_8_RD_16_0.png","img2/200/Incongruent/L/I_Dist_200_LN_7_LD_10_RN_12_RD_24_0.png","img2/200/Incongruent/R/I_Dist_200_LN_11_LD_20_RN_3_RD_4_1.png","img2/300/Incongruent/R/I_Dist_300_LN_4_LD_20_RN_2_RD_4_1.png","img2/100/Congruent/R/C_Dist_100_LN_12_LD_30_RN_13_RD_26_1.png","img2/200/Incongruent/L/I_Dist_200_LN_7_LD_10_RN_8_RD_16_0.png","img2/200/Congruent/L/C_Dist_200_LN_11_LD_22_RN_3_RD_10_0.png","img2/200/Incongruent/L/I_Dist_200_LN_7_LD_10_RN_8_RD_16_0.png","img2/300/Congruent/R/C_Dist_300_LN_1_LD_3_RN_19_RD_30_1.png","img2/200/Incongruent/L/I_Dist_200_LN_1_LD_2_RN_3_RD_10_0.png","img2/300/Incongruent/R/I_Dist_300_LN_4_LD_20_RN_2_RD_4_1.png","img2/100/Congruent/L/C_Dist_100_LN_11_LD_22_RN_4_RD_10_0.png","img2/200/Incongruent/L/I_Dist_200_LN_7_LD_10_RN_14_RD_28_0.png","img2/300/Incongruent/R/I_Dist_300_LN_13_LD_26_RN_12_RD_15_1.png","img2/300/Incongruent/R/I_Dist_300_LN_4_LD_20_RN_2_RD_4_1.png","img2/200/Congruent/L/C_Dist_200_LN_7_LD_21_RN_2_RD_15_0.png","img2/100/Congruent/L/C_Dist_100_LN_11_LD_22_RN_4_RD_10_0.png","img2/300/Congruent/R/C_Dist_300_LN_1_LD_3_RN_19_RD_30_1.png","img2/200/Incongruent/L/I_Dist_200_LN_4_LD_5_RN_6_RD_10_0.png","img2/200/Congruent/L/C_Dist_200_LN_12_LD_15_RN_6_RD_10_0.png","img2/100/Incongruent/L/I_Dist_100_LN_6_LD_10_RN_13_RD_26_0.png","img2/100/Congruent/R/C_Dist_100_LN_7_LD_14_RN_9_RD_15_1.png","img2/300/Congruent/R/C_Dist_300_LN_1_LD_5_RN_11_RD_22_1.png","img2/300/Congruent/R/C_Dist_300_LN_4_LD_20_RN_13_RD_26_1.png","img2/100/Incongruent/R/I_Dist_100_LN_8_LD_20_RN_1_RD_2_1.png","img2/300/Incongruent/R/I_Dist_300_LN_13_LD_26_RN_12_RD_15_1.png","img2/200/Congruent/L/C_Dist_200_LN_8_LD_15_RN_3_RD_9_0.png","img2/200/Incongruent/L/I_Dist_200_LN_7_LD_10_RN_12_RD_24_0.png","img2/100/Incongruent/L/I_Dist_100_LN_9_LD_15_RN_14_RD_28_0.png","img2/100/Incongruent/L/I_Dist_100_LN_6_LD_10_RN_7_RD_14_0.png","img2/200/Incongruent/R/I_Dist_200_LN_4_LD_30_RN_1_RD_3_1.png","img2/100/Congruent/L/C_Dist_100_LN_6_LD_20_RN_5_RD_25_0.png","img2/100/Congruent/L/C_Dist_100_LN_11_LD_22_RN_6_RD_15_0.png","img2/300/Incongruent/L/I_Dist_300_LN_7_LD_10_RN_8_RD_20_0.png","img2/300/Congruent/L/C_Dist_300_LN_20_LD_25_RN_8_RD_16_0.png","img2/200/Congruent/L/C_Dist_200_LN_20_LD_25_RN_9_RD_15_0.png","img2/200/Congruent/R/C_Dist_200_LN_3_LD_10_RN_7_RD_14_1.png","img2/200/Congruent/L/C_Dist_200_LN_14_LD_28_RN_6_RD_20_0.png","img2/200/Incongruent/R/I_Dist_200_LN_6_LD_20_RN_3_RD_6_1.png","img2/100/Congruent/L/C_Dist_100_LN_8_LD_16_RN_2_RD_5_0.png","img2/200/Congruent/R/C_Dist_200_LN_3_LD_10_RN_11_RD_22_1.png","img2/100/Congruent/L/C_Dist_100_LN_15_LD_25_RN_13_RD_26_0.png","img2/300/Incongruent/L/I_Dist_300_LN_1_LD_2_RN_3_RD_15_0.png","img2/200/Incongruent/L/I_Dist_200_LN_7_LD_10_RN_14_RD_28_0.png","img2/300/Congruent/R/C_Dist_300_LN_1_LD_20_RN_7_RD_20_1.png","img2/100/Congruent/L/C_Dist_100_LN_9_LD_15_RN_8_RD_16_0.png","img2/100/Incongruent/R/I_Dist_100_LN_12_LD_24_RN_9_RD_15_1.png","img2/300/Incongruent/R/I_Dist_300_LN_4_LD_20_RN_2_RD_4_1.png","img2/100/Congruent/L/C_Dist_100_LN_6_LD_20_RN_5_RD_25_0.png","img2/300/Congruent/L/C_Dist_300_LN_4_LD_5_RN_2_RD_4_0.png","img2/300/Incongruent/L/I_Dist_300_LN_3_LD_6_RN_4_RD_20_0.png","img2/200/Congruent/L/C_Dist_200_LN_6_LD_15_RN_3_RD_15_0.png","img2/200/Incongruent/R/I_Dist_200_LN_7_LD_15_RN_4_RD_6_1.png","img2/200/Incongruent/L/I_Dist_200_LN_1_LD_2_RN_3_RD_10_0.png","img2/100/Congruent/R/C_Dist_100_LN_12_LD_30_RN_13_RD_26_1.png","img2/100/Congruent/L/C_Dist_100_LN_11_LD_22_RN_6_RD_15_0.png","img2/100/Incongruent/R/I_Dist_100_LN_10_LD_25_RN_8_RD_16_1.png","img2/100/Incongruent/L/I_Dist_100_LN_4_LD_8_RN_8_RD_20_0.png","img2/100/Incongruent/L/I_Dist_100_LN_3_LD_9_RN_7_RD_30_0.png","img2/300/Incongruent/L/I_Dist_300_LN_4_LD_5_RN_8_RD_16_0.png","img2/100/Congruent/R/C_Dist_100_LN_1_LD_2_RN_18_RD_30_1.png","img2/200/Congruent/L/C_Dist_200_LN_4_LD_10_RN_3_RD_15_0.png","img2/100/Incongruent/R/I_Dist_100_LN_10_LD_25_RN_9_RD_18_1.png","img2/300/Congruent/R/C_Dist_300_LN_1_LD_5_RN_11_RD_22_1.png","img2/100/Incongruent/L/I_Dist_100_LN_3_LD_6_RN_4_RD_10_0.png","img2/300/Incongruent/R/I_Dist_300_LN_4_LD_20_RN_2_RD_4_1.png","img2/300/Incongruent/R/I_Dist_300_LN_4_LD_20_RN_2_RD_4_1.png","img2/100/Congruent/R/C_Dist_100_LN_1_LD_2_RN_3_RD_5_1.png","img2/300/Congruent/L/C_Dist_300_LN_20_LD_25_RN_5_RD_10_0.png","img2/100/Incongruent/R/I_Dist_100_LN_10_LD_25_RN_8_RD_16_1.png","img2/100/Congruent/R/C_Dist_100_LN_2_LD_5_RN_6_RD_12_1.png","img2/200/Congruent/R/C_Dist_200_LN_1_LD_2_RN_21_RD_30_1.png","img2/100/Incongruent/R/I_Dist_100_LN_9_LD_18_RN_6_RD_10_1.png","img2/200/Incongruent/L/I_Dist_200_LN_4_LD_6_RN_14_RD_30_0.png","img2/300/Incongruent/L/I_Dist_300_LN_8_LD_10_RN_9_RD_18_0.png","img2/300/Incongruent/R/I_Dist_300_LN_13_LD_26_RN_12_RD_15_1.png","img2/200/Congruent/L/C_Dist_200_LN_15_LD_25_RN_4_RD_10_0.png","img2/200/Congruent/L/C_Dist_200_LN_9_LD_20_RN_4_RD_16_0.png","img2/100/Incongruent/R/I_Dist_100_LN_6_LD_12_RN_3_RD_5_1.png","img2/300/Congruent/R/C_Dist_300_LN_1_LD_20_RN_7_RD_20_1.png","img2/300/Incongruent/L/I_Dist_300_LN_3_LD_6_RN_4_RD_20_0.png","img2/100/Congruent/L/C_Dist_100_LN_9_LD_15_RN_8_RD_16_0.png","img2/200/Incongruent/L/I_Dist_200_LN_4_LD_5_RN_6_RD_10_0.png","img2/300/Congruent/L/C_Dist_300_LN_20_LD_25_RN_5_RD_10_0.png","img2/300/Congruent/R/C_Dist_300_LN_2_LD_10_RN_12_RD_24_1.png","img2/100/Incongruent/L/I_Dist_100_LN_2_LD_4_RN_6_RD_15_0.png","img2/300/Congruent/L/C_Dist_300_LN_24_LD_30_RN_8_RD_16_0.png","img2/200/Incongruent/R/I_Dist_200_LN_6_LD_20_RN_3_RD_6_1.png","img2/200/Congruent/L/C_Dist_200_LN_8_LD_15_RN_3_RD_9_0.png","img2/300/Congruent/R/C_Dist_300_LN_1_LD_5_RN_3_RD_6_1.png","img2/300/Incongruent/L/I_Dist_300_LN_4_LD_5_RN_8_RD_16_0.png","img2/100/Incongruent/R/I_Dist_100_LN_13_LD_26_RN_6_RD_10_1.png","img2/200/Congruent/L/C_Dist_200_LN_15_LD_25_RN_4_RD_10_0.png","img2/200/Congruent/R/C_Dist_200_LN_3_LD_10_RN_7_RD_14_1.png","img2/100/Incongruent/L/I_Dist_100_LN_3_LD_6_RN_4_RD_10_0.png","img2/100/Congruent/R/C_Dist_100_LN_4_LD_10_RN_15_RD_30_1.png","img2/300/Incongruent/R/I_Dist_300_LN_4_LD_20_RN_2_RD_4_1.png","img2/200/Congruent/L/C_Dist_200_LN_6_LD_15_RN_3_RD_15_0.png","img2/100/Congruent/R/C_Dist_100_LN_4_LD_10_RN_15_RD_30_1.png","img2/200/Congruent/R/C_Dist_200_LN_3_LD_10_RN_14_RD_28_1.png","img2/100/Incongruent/R/I_Dist_100_LN_12_LD_24_RN_9_RD_15_1.png","img2/300/Congruent/R/C_Dist_300_LN_1_LD_20_RN_7_RD_20_1.png","img2/300/Congruent/L/C_Dist_300_LN_18_LD_20_RN_9_RD_15_0.png","img2/200/Incongruent/R/I_Dist_200_LN_7_LD_15_RN_6_RD_9_1.png","img2/200/Incongruent/L/I_Dist_200_LN_3_LD_4_RN_11_RD_20_0.png","img2/300/Incongruent/L/I_Dist_300_LN_2_LD_4_RN_6_RD_30_0.png","img2/100/Incongruent/L/I_Dist_100_LN_4_LD_8_RN_8_RD_20_0.png","img2/100/Incongruent/R/I_Dist_100_LN_9_LD_18_RN_6_RD_10_1.png","img2/200/Congruent/L/C_Dist_200_LN_16_LD_20_RN_12_RD_20_0.png","img2/300/Congruent/L/C_Dist_300_LN_24_LD_30_RN_2_RD_4_0.png","img2/300/Congruent/L/C_Dist_300_LN_18_LD_20_RN_9_RD_15_0.png","img2/200/Incongruent/R/I_Dist_200_LN_6_LD_20_RN_3_RD_6_1.png","img2/300/Congruent/R/C_Dist_300_LN_1_LD_5_RN_3_RD_6_1.png","img2/300/Incongruent/R/I_Dist_300_LN_4_LD_20_RN_2_RD_4_1.png","img2/100/Congruent/R/C_Dist_100_LN_7_LD_14_RN_15_RD_25_1.png","img2/100/Congruent/L/C_Dist_100_LN_8_LD_16_RN_2_RD_5_0.png","img2/200/Congruent/R/C_Dist_200_LN_1_LD_2_RN_21_RD_30_1.png","img2/300/Incongruent/R/I_Dist_300_LN_13_LD_26_RN_12_RD_15_1.png","img2/300/Congruent/R/C_Dist_300_LN_3_LD_12_RN_11_RD_20_1.png"],"dist100_C":[["C_Dist_100_LN_10_LD_25_RN_3_RD_10_0.png","C_Dist_100_LN_11_LD_22_RN_4_RD_10_0.png","C_Dist_100_LN_11_LD_22_RN_6_RD_15_0.png","C_Dist_100_LN_15_LD_25_RN_13_RD_26_0.png","C_Dist_100_LN_3_LD_6_RN_2_RD_5_0.png","C_Dist_100_LN_6_LD_20_RN_5_RD_25_0.png","C_Dist_100_LN_8_LD_16_RN_2_RD_5_0.png","C_Dist_100_LN_9_LD_15_RN_8_RD_16_0.png"],["C_Dist_100_LN_1_LD_2_RN_18_RD_30_1.png","C_Dist_100_LN_1_LD_2_RN_3_RD_5_1.png","C_Dist_100_LN_12_LD_30_RN_13_RD_26_1.png","C_Dist_100_LN_2_LD_5_RN_11_RD_22_1.png","C_Dist_100_LN_2_LD_5_RN_6_RD_12_1.png","C_Dist_100_LN_3_LD_20_RN_4_RD_16_1.png","C_Dist_100_LN_4_LD_10_RN_15_RD_30_1.png","C_Dist_100_LN_4_LD_8_RN_6_RD_10_1.png","C_Dist_100_LN_6_LD_12_RN_15_RD_25_1.png","C_Dist_100_LN_7_LD_14_RN_15_RD_25_1.png","C_Dist_100_LN_7_LD_14_RN_9_RD_15_1.png"]],"dist100_I":[["I_Dist_100_LN_1_LD_2_RN_8_RD_20_0.png","I_Dist_100_LN_2_LD_4_RN_6_RD_15_0.png","I_Dist_100_LN_2_LD_4_RN_8_RD_20_0.png","I_Dist_100_LN_3_LD_5_RN_11_RD_22_0.png","I_Dist_100_LN_3_LD_5_RN_8_RD_16_0.png","I_Dist_100_LN_3_LD_6_RN_4_RD_10_0.png","I_Dist_100_LN_3_LD_9_RN_7_RD_30_0.png","I_Dist_100_LN_4_LD_8_RN_8_RD_20_0.png","I_Dist_100_LN_6_LD_10_RN_11_RD_22_0.png","I_Dist_100_LN_6_LD_10_RN_13_RD_26_0.png","I_Dist_100_LN_6_LD_10_RN_7_RD_14_0.png","I_Dist_100_LN_9_LD_10_RN_20_RD_25_0.png","I_Dist_100_LN_9_LD_15_RN_13_RD_26_0.png","I_Dist_100_LN_9_LD_15_RN_14_RD_28_0.png"],["I_Dist_100_LN_10_LD_25_RN_8_RD_16_1.png","I_Dist_100_LN_10_LD_25_RN_9_RD_18_1.png","I_Dist_100_LN_11_LD_22_RN_9_RD_15_1.png","I_Dist_100_LN_12_LD_24_RN_9_RD_15_1.png","I_Dist_100_LN_12_LD_30_RN_2_RD_4_1.png","I_Dist_100_LN_13_LD_26_RN_12_RD_20_1.png","I_Dist_100_LN_13_LD_26_RN_6_RD_10_1.png","I_Dist_100_LN_17_LD_30_RN_10_RD_15_1.png","I_Dist_100_LN_6_LD_12_RN_3_RD_5_1.png","I_Dist_100_LN_8_LD_16_RN_6_RD_10_1.png","I_Dist_100_LN_8_LD_20_RN_1_RD_2_1.png","I_Dist_100_LN_9_LD_18_RN_6_RD_10_1.png"]],"dist100_S":[["E_Dist_100_LN_2_LD_12_RN_2_RD_30_0.png","E_Dist_100_LN_6_LD_10_RN_6_RD_12_0.png"],["E_Dist_100_LN_6_LD_12_RN_6_RD_10_1.png"]],"dist200_C":[["C_Dist_200_LN_11_LD_22_RN_3_RD_10_0.png","C_Dist_200_LN_12_LD_15_RN_6_RD_10_0.png","C_Dist_200_LN_12_LD_20_RN_6_RD_15_0.png","C_Dist_200_LN_14_LD_28_RN_6_RD_20_0.png","C_Dist_200_LN_15_LD_25_RN_4_RD_10_0.png","C_Dist_200_LN_16_LD_20_RN_12_RD_20_0.png","C_Dist_200_LN_16_LD_30_RN_9_RD_27_0.png","C_Dist_200_LN_20_LD_25_RN_9_RD_15_0.png","C_Dist_200_LN_21_LD_30_RN_2_RD_4_0.png","C_Dist_200_LN_4_LD_10_RN_3_RD_15_0.png","C_Dist_200_LN_4_LD_8_RN_3_RD_10_0.png","C_Dist_200_LN_6_LD_15_RN_3_RD_15_0.png","C_Dist_200_LN_7_LD_21_RN_2_RD_15_0.png","C_Dist_200_LN_8_LD_15_RN_2_RD_6_0.png","C_Dist_200_LN_8_LD_15_RN_3_RD_9_0.png","C_Dist_200_LN_8_LD_15_RN_7_RD_21_0.png","C_Dist_200_LN_9_LD_20_RN_4_RD_16_0.png"],["C_Dist_200_LN_1_LD_2_RN_21_RD_30_1.png","C_Dist_200_LN_13_LD_26_RN_14_RD_20_1.png","C_Dist_200_LN_3_LD_10_RN_11_RD_22_1.png","C_Dist_200_LN_3_LD_10_RN_14_RD_28_1.png","C_Dist_200_LN_3_LD_10_RN_7_RD_14_1.png","C_Dist_200_LN_3_LD_12_RN_9_RD_20_1.png","C_Dist_200_LN_3_LD_6_RN_14_RD_20_1.png","C_Dist_200_LN_5_LD_10_RN_14_RD_20_1.png","C_Dist_200_LN_6_LD_12_RN_7_RD_10_1.png","C_Dist_200_LN_6_LD_20_RN_11_RD_22_1.png","C_Dist_200_LN_7_LD_15_RN_18_RD_27_1.png","C_Dist_200_LN_9_LD_30_RN_13_RD_26_1.png"]],"dist200_I":[["I_Dist_200_LN_1_LD_2_RN_3_RD_10_0.png","I_Dist_200_LN_1_LD_3_RN_2_RD_15_0.png","I_Dist_200_LN_3_LD_4_RN_11_RD_20_0.png","I_Dist_200_LN_4_LD_5_RN_6_RD_10_0.png","I_Dist_200_LN_4_LD_6_RN_14_RD_30_0.png","I_Dist_200_LN_7_LD_10_RN_12_RD_24_0.png","I_Dist_200_LN_7_LD_10_RN_14_RD_28_0.png","I_Dist_200_LN_7_LD_10_RN_8_RD_16_0.png"],["I_Dist_200_LN_11_LD_20_RN_3_RD_4_1.png","I_Dist_200_LN_14_LD_30_RN_12_RD_18_1.png","I_Dist_200_LN_14_LD_30_RN_6_RD_9_1.png","I_Dist_200_LN_3_LD_10_RN_1_RD_2_1.png","I_Dist_200_LN_4_LD_30_RN_1_RD_3_1.png","I_Dist_200_LN_6_LD_20_RN_3_RD_6_1.png","I_Dist_200_LN_7_LD_15_RN_4_RD_6_1.png","I_Dist_200_LN_7_LD_15_RN_6_RD_9_1.png","I_Dist_200_LN_9_LD_15_RN_8_RD_10_1.png"]],"dist200_S":[["E_Dist_200_LN_3_LD_6_RN_3_RD_10_0.png"],["E_Dist_200_LN_3_LD_10_RN_3_RD_6_1.png"]],"dist300_C":[["C_Dist_300_LN_11_LD_22_RN_1_RD_5_0.png","C_Dist_300_LN_11_LD_22_RN_2_RD_10_0.png","C_Dist_300_LN_11_LD_22_RN_4_RD_20_0.png","C_Dist_300_LN_12_LD_24_RN_2_RD_10_0.png","C_Dist_300_LN_18_LD_20_RN_9_RD_15_0.png","C_Dist_300_LN_20_LD_25_RN_13_RD_26_0.png","C_Dist_300_LN_20_LD_25_RN_14_RD_28_0.png","C_Dist_300_LN_20_LD_25_RN_5_RD_10_0.png","C_Dist_300_LN_20_LD_25_RN_8_RD_16_0.png","C_Dist_300_LN_20_LD_25_RN_9_RD_18_0.png","C_Dist_300_LN_24_LD_30_RN_2_RD_4_0.png","C_Dist_300_LN_24_LD_30_RN_8_RD_16_0.png","C_Dist_300_LN_3_LD_6_RN_2_RD_10_0.png","C_Dist_300_LN_4_LD_10_RN_1_RD_10_0.png","C_Dist_300_LN_4_LD_5_RN_2_RD_4_0.png","C_Dist_300_LN_8_LD_16_RN_1_RD_5_0.png","C_Dist_300_LN_9_LD_10_RN_3_RD_5_0.png"],["C_Dist_300_LN_1_LD_20_RN_7_RD_20_1.png","C_Dist_300_LN_1_LD_3_RN_19_RD_30_1.png","C_Dist_300_LN_1_LD_30_RN_8_RD_24_1.png","C_Dist_300_LN_1_LD_5_RN_11_RD_22_1.png","C_Dist_300_LN_1_LD_5_RN_3_RD_6_1.png","C_Dist_300_LN_1_LD_5_RN_6_RD_12_1.png","C_Dist_300_LN_2_LD_10_RN_12_RD_24_1.png","C_Dist_300_LN_2_LD_20_RN_10_RD_25_1.png","C_Dist_300_LN_3_LD_12_RN_11_RD_20_1.png","C_Dist_300_LN_3_LD_6_RN_4_RD_5_1.png","C_Dist_300_LN_4_LD_20_RN_13_RD_26_1.png","C_Dist_300_LN_5_LD_25_RN_6_RD_12_1.png","C_Dist_300_LN_5_LD_25_RN_7_RD_14_1.png","C_Dist_300_LN_7_LD_14_RN_20_RD_25_1.png","C_Dist_300_LN_8_LD_15_RN_10_RD_12_1.png"]],"dist300_I":[["I_Dist_300_LN_1_LD_2_RN_2_RD_10_0.png","I_Dist_300_LN_1_LD_2_RN_3_RD_15_0.png","I_Dist_300_LN_2_LD_4_RN_6_RD_30_0.png","I_Dist_300_LN_3_LD_6_RN_4_RD_20_0.png","I_Dist_300_LN_4_LD_5_RN_6_RD_12_0.png","I_Dist_300_LN_4_LD_5_RN_8_RD_16_0.png","I_Dist_300_LN_7_LD_10_RN_8_RD_20_0.png","I_Dist_300_LN_8_LD_10_RN_14_RD_28_0.png","I_Dist_300_LN_8_LD_10_RN_9_RD_18_0.png"],["I_Dist_300_LN_13_LD_26_RN_12_RD_15_1.png","I_Dist_300_LN_4_LD_20_RN_2_RD_4_1.png"]],"dist300_S":[["E_Dist_300_LN_9_LD_12_RN_9_RD_20_0.png"],["E_Dist_300_LN_18_LD_30_RN_18_RD_20_1.png","E_Dist_300_LN_3_LD_10_RN_3_RD_5_1.png","E_Dist_300_LN_9_LD_20_RN_9_RD_12_1.png"]],"dist500_C":[["C_Dist_500_LN_10_LD_13_RN_7_RD_26_0.png","C_Dist_500_LN_10_LD_15_RN_4_RD_24_0.png","C_Dist_500_LN_12_LD_16_RN_3_RD_12_0.png","C_Dist_500_LN_12_LD_18_RN_4_RD_24_0.png","C_Dist_500_LN_15_LD_18_RN_5_RD_15_0.png","C_Dist_500_LN_15_LD_20_RN_1_RD_4_0.png","C_Dist_500_LN_18_LD_27_RN_1_RD_6_0.png","C_Dist_500_LN_20_LD_24_RN_1_RD_3_0.png","C_Dist_500_LN_20_LD_24_RN_3_RD_9_0.png","C_Dist_500_LN_20_LD_24_RN_7_RD_21_0.png","C_Dist_500_LN_20_LD_28_RN_3_RD_14_0.png","C_Dist_500_LN_21_LD_28_RN_6_RD_24_0.png","C_Dist_500_LN_22_LD_28_RN_2_RD_7_0.png","C_Dist_500_LN_25_LD_30_RN_9_RD_27_0.png","C_Dist_500_LN_4_LD_6_RN_1_RD_6_0.png","C_Dist_500_LN_5_LD_6_RN_2_RD_6_0.png","C_Dist_500_LN_6_LD_9_RN_1_RD_6_0.png","C_Dist_500_LN_7_LD_10_RN_1_RD_5_0.png","C_Dist_500_LN_8_LD_12_RN_1_RD_6_0.png","C_Dist_500_LN_8_LD_12_RN_4_RD_24_0.png"],["C_Dist_500_LN_1_LD_4_RN_12_RD_16_1.png","C_Dist_500_LN_1_LD_4_RN_9_RD_12_1.png","C_Dist_500_LN_1_LD_9_RN_11_RD_18_1.png","C_Dist_500_LN_10_LD_24_RN_22_RD_24_1.png","C_Dist_500_LN_2_LD_12_RN_10_RD_15_1.png","C_Dist_500_LN_2_LD_12_RN_12_RD_18_1.png","C_Dist_500_LN_2_LD_12_RN_4_RD_6_1.png","C_Dist_500_LN_2_LD_24_RN_7_RD_12_1.png","C_Dist_500_LN_2_LD_5_RN_18_RD_20_1.png","C_Dist_500_LN_2_LD_5_RN_9_RD_10_1.png","C_Dist_500_LN_2_LD_8_RN_12_RD_16_1.png","C_Dist_500_LN_2_LD_8_RN_21_RD_28_1.png","C_Dist_500_LN_3_LD_10_RN_4_RD_5_1.png","C_Dist_500_LN_3_LD_12_RN_15_RD_20_1.png","C_Dist_500_LN_3_LD_30_RN_6_RD_10_1.png","C_Dist_500_LN_3_LD_8_RN_14_RD_16_1.png","C_Dist_500_LN_4_LD_16_RN_15_RD_20_1.png","C_Dist_500_LN_4_LD_24_RN_12_RD_18_1.png","C_Dist_500_LN_5_LD_14_RN_6_RD_7_1.png","C_Dist_500_LN_7_LD_21_RN_20_RD_24_1.png","C_Dist_500_LN_7_LD_28_RN_12_RD_16_1.png","C_Dist_500_LN_7_LD_28_RN_9_RD_12_1.png","C_Dist_500_LN_9_LD_27_RN_20_RD_24_1.png"]],"dist500_I":[["I_Dist_500_LN_2_LD_3_RN_4_RD_24_0.png","I_Dist_500_LN_5_LD_6_RN_6_RD_18_0.png","I_Dist_500_LN_7_LD_8_RN_9_RD_24_0.png"],["I_Dist_500_LN_7_LD_21_RN_5_RD_6_1.png"]],"dist500_S":[["E_Dist_500_LN_6_LD_8_RN_6_RD_24_0.png"],["E_Dist_500_LN_2_LD_12_RN_2_RD_3_1.png","E_Dist_500_LN_6_LD_24_RN_6_RD_8_1.png"]]}},{"start_time":1551800639422,"click_time":1551800641419,"finger_time":1551800641140,"fix_duration":1299.4226089020724,"trial":1,"RT":1718,"MT":279,"sideResp":1,"stimulus":[],"xmouse":[819,819,819,819,819,819,819,819,819,819,819,819,819,819,819,819,819,819,819,819,819,819,819,819,819,819,819,819,819,819,819,819,819,819,819,819,819,819,819,819,819,819,819,819,819,819,819,819,819,819,819,819,819,819,819,819,819,819,819,819,819,819,819,819,819,819,819,819,819,819,819,819,819,819,819,819,819,819,819,819,819,819,819,819,819,738,662,584,584,584,584,584,584,584,584,584,584,584,584,473],"ymouse":[523,523,523,523,523,523,523,523,523,523,523,523,523,523,523,523,523,523,523,523,523,523,523,523,523,523,523,523,523,523,523,523,523,523,523,523,523,523,523,523,523,523,523,523,523,523,523,523,523,523,523,523,523,523,523,523,523,523,523,523,523,523,523,523,523,523,523,523,523,523,523,523,523,523,523,523,523,523,523,523,523,523,523,523,506,329,190,54,54,54,54,54,54,54,54,54,54,54,54,6],"timestamp_mouse":[31,37,56,77,97,117,136,157,178,197,217,237,257,277,298,317,337,357,377,397,417,437,458,476,497,517,537,557,578,598,617,637,657,678,696,717,737,757,778,797,816,837,856,878,897,917,936,957,976,997,1017,1037,1057,1078,1098,1118,1136,1158,1177,1197,1217,1236,1258,1277,1297,1317,1337,1356,1378,1397,1418,1436,1457,1477,1497,1518,1537,1557,1577,1597,1617,1638,1657,1678,1697,1718,1737,1757,1777,1798,1817,1837,1857,1878,1897,1917,1938,1956,1978,1997],"xSR":741.5,"ySR":469.95,"xT1":424.9,"yT1":0,"xT2":1058.1,"yT2":0,"toosoon":0,"cond_shown":"Incongruent","ratio_trial":200,"L_num":7,"L_den":10,"R_num":8,"R_den":16,"correct_side":1,"subjID":"arielsantiagodiazmorales30","gender":"0","school":"6","age":"12"},{"start_time":1551800643235,"click_time":1551800645079,"finger_time":1551800644639,"fix_duration":994.0493962455533,"trial":2,"RT":1404,"MT":440,"sideResp":1,"stimulus":[],"xmouse":[801,801,801,801,801,801,801,801,801,801,801,801,801,801,801,801,801,801,801,801,801,801,801,801,801,801,801,801,801,801,801,801,801,801,801,801,801,801,801,801,801,801,801,801,801,801,801,801,801,801,801,801,801,801,801,801,801,801,801,801,801,801,801,801,801,801,801,801,801,802,780,734,689,666,651,646,642,637,633,628,625,625,623,621,618,614,609,600,589,577,549,536,516],"ymouse":[514,514,514,514,514,514,514,514,514,514,514,514,514,514,514,514,514,514,514,514,514,514,514,514,514,514,514,514,514,514,514,514,514,514,514,514,514,514,514,514,514,514,514,514,514,514,514,514,514,514,514,514,514,514,514,514,514,514,514,514,514,514,514,514,514,514,514,514,514,514,442,340,233,191,164,156,145,134,122,104,97,95,91,89,85,83,81,76,71,67,57,54,48],"timestamp_mouse":[12,36,44,64,84,105,123,144,164,185,204,224,243,264,284,305,324,344,363,384,404,425,445,465,485,505,524,544,564,584,604,624,645,665,684,704,724,745,764,784,805,824,845,865,884,903,925,945,965,985,1005,1025,1044,1064,1084,1104,1124,1143,1164,1184,1204,1223,1244,1265,1284,1305,1325,1345,1365,1384,1404,1424,1444,1464,1485,1504,1524,1545,1564,1584,1604,1624,1644,1664,1685,1704,1724,1745,1764,1785,1803,1824,1844],"xSR":741.5,"ySR":469.95,"xT1":424.9,"yT1":0,"xT2":1058.1,"yT2":0,"toosoon":0,"cond_shown":"Incongruent","ratio_trial":200,"L_num":7,"L_den":10,"R_num":12,"R_den":24,"correct_side":1,"subjID":"arielsantiagodiazmorales30","gender":"0","school":"6","age":"12"},{"start_time":1551800647582,"click_time":1551800648699,"finger_time":1551800648379,"fix_duration":1182.1150913819765,"trial":3,"RT":797,"MT":320,"sideResp":2,"stimulus":[],"xmouse":[808,808,808,808,808,808,808,808,808,808,808,808,808,808,808,808,808,808,808,808,808,808,808,808,808,808,808,808,808,808,808,808,808,808,808,808,808,813,837,876,927,1018,1050,1058,1069,1075,1083,1095,1099,1102,1104,1105,1105,1103,1102,1102],"ymouse":[539,539,539,539,539,539,539,539,539,539,539,539,539,539,539,539,539,539,539,539,539,539,539,539,539,539,539,539,539,539,539,539,539,539,539,539,539,527,495,456,416,352,322,312,285,264,241,198,184,171,156,136,116,101,100,99],"timestamp_mouse":[17,36,57,78,98,117,137,157,177,197,218,238,257,277,297,318,337,358,376,398,418,437,457,477,498,516,538,558,577,598,618,638,657,677,697,717,738,758,778,797,817,838,857,878,897,918,938,958,977,998,1017,1037,1058,1078,1098,1117],"xSR":741.5,"ySR":469.95,"xT1":424.9,"yT1":0,"xT2":1058.1,"yT2":0,"toosoon":0,"cond_shown":"Incongruent","ratio_trial":200,"L_num":11,"L_den":20,"R_num":3,"R_den":4,"correct_side":2,"subjID":"arielsantiagodiazmorales30","gender":"0","school":"6","age":"12"},{"start_time":1551800652206,"click_time":1551800653199,"finger_time":1551800652980,"fix_duration":1045.355482379987,"trial":4,"RT":774,"MT":219,"sideResp":2,"stimulus":[],"xmouse":[770,770,770,770,770,770,770,770,770,770,770,770,770,770,770,770,770,770,770,770,770,770,770,770,770,770,770,770,770,770,770,770,770,770,770,770,772,793,826,872,933,1043,1052,1069,1071,1073,1073,1074,1075,1076],"ymouse":[523,523,523,523,523,523,523,523,523,523,523,523,523,523,523,523,523,523,523,523,523,523,523,523,523,523,523,523,523,523,523,523,523,523,523,523,518,474,423,355,282,150,140,117,111,108,105,103,101,99],"timestamp_mouse":[14,34,54,73,94,113,134,154,172,193,214,234,253,273,294,312,333,353,373,393,413,433,454,474,494,513,534,554,574,593,613,634,654,673,692,714,734,753,774,793,813,833,853,873,893,914,933,953,973,993],"xSR":741.5,"ySR":469.95,"xT1":424.9,"yT1":0,"xT2":1058.1,"yT2":0,"toosoon":0,"cond_shown":"Incongruent","ratio_trial":300,"L_num":4,"L_den":20,"R_num":2,"R_den":4,"correct_side":2,"subjID":"arielsantiagodiazmorales30","gender":"0","school":"6","age":"12"},{"start_time":1551800655950,"click_time":1551800657979,"finger_time":1551800657440,"fix_duration":289.4156137251702,"trial":5,"RT":1490,"MT":539,"sideResp":2,"stimulus":[],"xmouse":[819,819,819,819,819,819,819,819,819,819,819,819,819,819,819,819,819,819,819,819,819,819,819,819,819,819,819,819,819,819,819,819,819,819,819,819,819,819,819,819,819,819,819,819,819,819,819,819,819,819,819,819,819,819,819,819,819,819,819,819,819,819,819,819,819,819,819,819,819,819,819,819,819,827,854,895,954,988,1017,1023,1026,1028,1029,1031,1033,1034,1034,1035,1036,1037,1039,1040,1041,1043,1045,1045,1046,1047,1048,1054,1056,1059],"ymouse":[507,507,507,507,507,507,507,507,507,507,507,507,507,507,507,507,507,507,507,507,507,507,507,507,507,507,507,507,507,507,507,507,507,507,507,507,507,507,507,507,507,507,507,507,507,507,507,507,507,507,507,507,507,507,507,507,507,507,507,507,507,507,507,507,507,507,507,507,507,507,507,507,507,478,409,330,223,170,113,100,90,87,80,64,57,51,47,46,43,41,39,38,37,34,33,32,32,31,31,30,30,30],"timestamp_mouse":[9,33,49,69,89,109,129,149,169,189,210,228,249,270,290,309,329,349,369,389,409,429,449,469,489,509,530,549,569,589,609,630,650,670,689,709,729,749,769,789,809,829,849,868,890,908,929,949,969,989,1010,1028,1050,1070,1089,1109,1129,1149,1170,1189,1209,1229,1249,1269,1288,1309,1329,1349,1369,1389,1409,1429,1449,1469,1490,1509,1529,1549,1571,1589,1612,1630,1650,1671,1688,1709,1730,1749,1770,1789,1810,1829,1849,1870,1889,1909,1929,1949,1968,1989,2010,2029],"xSR":741.5,"ySR":469.95,"xT1":424.9,"yT1":0,"xT2":1058.1,"yT2":0,"toosoon":0,"cond_shown":"Congruent","ratio_trial":100,"L_num":12,"L_den":30,"R_num":13,"R_den":26,"correct_side":2,"subjID":"arielsantiagodiazmorales30","gender":"0","school":"6","age":"12"},{"start_time":1551800660712,"click_time":1551800662279,"finger_time":1551800661759,"fix_duration":392.39550642620037,"trial":6,"RT":1047,"MT":520,"sideResp":1,"stimulus":[],"xmouse":[804,804,804,804,804,804,804,804,804,804,804,804,804,804,804,804,804,804,804,804,804,804,804,804,804,804,804,804,804,804,804,804,804,804,804,804,804,804,804,804,804,804,804,804,804,804,804,804,804,804,804,804,779,732,670,561,545,541,541,541,541,541,541,540,539,538,538,538,538,538,538,538,538,538,538,538,533,525,516],"ymouse":[517,517,517,517,517,517,517,517,517,517,517,517,517,517,517,517,517,517,517,517,517,517,517,517,517,517,517,517,517,517,517,517,517,517,517,517,517,517,517,517,517,517,517,517,517,517,517,517,517,517,517,515,458,363,253,74,43,35,34,34,34,34,32,29,27,25,25,25,25,25,25,25,25,25,25,25,25,25,25],"timestamp_mouse":[10,40,48,68,87,107,128,148,166,188,208,228,247,267,286,308,328,347,367,387,408,427,448,466,488,508,526,547,568,588,607,628,647,668,688,708,728,747,767,788,808,826,848,868,887,907,927,947,968,988,1007,1027,1047,1066,1088,1109,1126,1148,1167,1188,1208,1228,1247,1267,1288,1308,1327,1347,1368,1387,1408,1426,1447,1468,1487,1507,1528,1547,1567],"xSR":741.5,"ySR":469.95,"xT1":424.9,"yT1":0,"xT2":1058.1,"yT2":0,"toosoon":0,"cond_shown":"Incongruent","ratio_trial":200,"L_num":7,"L_den":10,"R_num":8,"R_den":16,"correct_side":1,"subjID":"arielsantiagodiazmorales30","gender":"0","school":"6","age":"12"},{"start_time":1551800664262,"click_time":1551800666320,"finger_time":1551800665720,"fix_duration":401.8497706012061,"trial":7,"RT":1458,"MT":600,"sideResp":1,"stimulus":[],"xmouse":[778,778,778,778,778,778,778,778,778,778,778,778,778,778,778,778,778,778,778,778,778,778,778,778,778,778,778,778,778,778,778,778,778,778,778,778,778,778,778,778,778,778,778,778,778,778,778,778,778,778,778,778,778,778,778,778,778,778,778,778,778,778,778,778,778,778,778,778,778,779,779,779,753,742,729,717,705,687,656,640,624,613,606,595,591,584,574,563,549,547,547,547,547,546,543,539,537,533,532,531,529,527,521],"ymouse":[534,534,534,534,534,534,534,534,534,534,534,534,534,534,534,534,534,534,534,534,534,534,534,534,534,534,534,534,534,534,534,534,534,534,534,534,534,534,534,534,534,534,534,534,534,534,534,534,534,534,534,534,534,534,534,534,534,534,534,534,534,534,534,534,534,534,534,534,534,535,535,534,464,433,405,378,347,306,226,193,157,134,115,89,82,72,58,43,27,26,26,26,26,25,25,25,27,29,29,30,32,33,39],"timestamp_mouse":[17,36,58,77,97,117,138,156,178,198,218,237,258,278,297,317,338,358,377,397,417,438,457,477,497,516,538,557,577,597,617,638,657,677,698,718,738,757,776,797,817,838,857,878,897,918,936,958,978,997,1017,1038,1057,1078,1097,1117,1137,1158,1177,1197,1216,1237,1256,1278,1298,1318,1337,1357,1378,1397,1417,1438,1458,1477,1497,1518,1537,1557,1577,1597,1617,1637,1658,1677,1697,1717,1738,1756,1777,1797,1817,1836,1856,1877,1897,1918,1937,1959,1977,1997,2017,2037,2058],"xSR":741.5,"ySR":469.95,"xT1":424.9,"yT1":0,"xT2":1058.1,"yT2":0,"toosoon":0,"cond_shown":"Congruent","ratio_trial":200,"L_num":11,"L_den":22,"R_num":3,"R_den":10,"correct_side":1,"subjID":"arielsantiagodiazmorales30","gender":"0","school":"6","age":"12"},{"start_time":1551800667971,"click_time":1551800669880,"finger_time":1551800669720,"fix_duration":569.0671928132253,"trial":8,"RT":1749,"MT":160,"sideResp":1,"stimulus":[],"xmouse":[799,799,799,799,799,799,799,799,799,799,799,799,799,799,799,799,799,799,799,799,799,799,799,799,799,799,799,799,799,799,799,799,799,799,799,799,799,799,799,799,799,799,799,799,799,799,799,799,799,799,799,799,799,799,799,799,799,799,799,799,799,799,799,799,799,799,799,799,799,799,799,799,799,799,799,799,799,799,799,799,799,799,799,799,799,799,791,676,625,594,580,569,555,511,483,466],"ymouse":[524,524,524,524,524,524,524,524,524,524,524,524,524,524,524,524,524,524,524,524,524,524,524,524,524,524,524,524,524,524,524,524,524,524,524,524,524,524,524,524,524,524,524,524,524,524,524,524,524,524,524,524,524,524,524,524,524,524,524,524,524,524,524,524,524,524,524,524,524,524,524,524,524,524,524,524,524,524,524,524,524,524,524,524,524,524,517,404,326,270,240,220,198,134,101,83],"timestamp_mouse":[10,33,48,69,87,109,128,149,169,188,209,227,249,269,288,308,329,349,369,388,409,428,449,469,489,508,529,548,568,588,609,629,649,667,688,709,729,748,769,788,808,829,849,868,888,909,927,949,969,988,1008,1029,1048,1069,1088,1107,1128,1149,1169,1189,1209,1228,1248,1269,1288,1308,1329,1349,1368,1388,1407,1429,1449,1468,1488,1509,1529,1549,1569,1588,1609,1628,1649,1669,1688,1709,1728,1749,1768,1788,1809,1828,1848,1868,1889,1908],"xSR":741.5,"ySR":469.95,"xT1":424.9,"yT1":0,"xT2":1058.1,"yT2":0,"toosoon":0,"cond_shown":"Incongruent","ratio_trial":200,"L_num":7,"L_den":10,"R_num":8,"R_den":16,"correct_side":1,"subjID":"arielsantiagodiazmorales30","gender":"0","school":"6","age":"12"},{"start_time":1551800673069,"click_time":1551800674979,"finger_time":1551800674519,"fix_duration":409.0454483691324,"trial":9,"RT":1450,"MT":460,"sideResp":2,"stimulus":[],"xmouse":[776,776,776,776,776,776,776,776,776,776,776,776,776,776,776,776,776,776,776,776,776,776,776,776,776,776,776,776,776,776,776,776,776,776,776,776,776,776,776,776,776,776,776,776,776,776,776,776,776,776,776,776,776,776,776,776,776,776,776,776,776,776,776,776,776,776,776,776,776,776,781,787,804,913,982,1050,1113,1151,1185,1190,1192,1192,1193,1194,1195,1195,1195,1195,1190,1189,1187,1182,1177,1168,1162,1154],"ymouse":[511,511,511,511,511,511,511,511,511,511,511,511,511,511,511,511,511,511,511,511,511,511,511,511,511,511,511,511,511,511,511,511,511,511,511,511,511,511,511,511,511,511,511,511,511,511,511,511,511,511,511,511,511,511,511,511,511,511,511,511,511,511,511,511,511,511,511,511,511,511,508,494,454,336,286,236,191,158,120,112,108,106,101,94,87,82,77,74,66,63,61,59,57,54,51,47],"timestamp_mouse":[11,32,51,71,91,111,131,150,170,191,211,231,251,271,290,310,330,350,370,391,410,431,450,470,490,510,531,551,571,590,611,631,651,671,690,710,731,751,769,790,810,830,851,870,890,910,930,950,970,991,1011,1030,1051,1071,1090,1111,1130,1150,1171,1191,1210,1231,1251,1271,1291,1311,1331,1351,1373,1391,1409,1431,1450,1470,1491,1511,1530,1551,1571,1590,1610,1631,1651,1670,1691,1710,1730,1750,1770,1790,1811,1830,1851,1870,1890,1910],"xSR":741.5,"ySR":469.95,"xT1":424.9,"yT1":0,"xT2":1058.1,"yT2":0,"toosoon":0,"cond_shown":"Congruent","ratio_trial":300,"L_num":1,"L_den":3,"R_num":19,"R_den":30,"correct_side":2,"subjID":"arielsantiagodiazmorales30","gender":"0","school":"6","age":"12"},{"start_time":1551800676393,"click_time":1551800678039,"finger_time":1551800677820,"fix_duration":250,"trial":10,"RT":1427,"MT":219,"sideResp":2,"stimulus":[],"xmouse":[812,812,812,812,812,812,812,812,812,812,812,812,812,812,812,812,812,812,812,812,812,812,812,812,812,812,812,812,812,812,812,812,812,812,812,812,812,812,812,812,812,812,812,812,812,812,812,812,812,812,812,812,812,812,812,812,812,812,812,812,812,812,812,812,812,812,812,812,812,813,817,863,901,986,1030,1068,1104,1114,1119,1122,1123,1126,1126],"ymouse":[516,516,516,516,516,516,516,516,516,516,516,516,516,516,516,516,516,516,516,516,516,516,516,516,516,516,516,516,516,516,516,516,516,516,516,516,516,516,516,516,516,516,516,516,516,516,516,516,516,516,516,516,516,516,516,516,516,516,516,516,516,516,516,516,516,516,516,516,516,515,509,446,396,300,248,201,155,141,128,118,110,101,92],"timestamp_mouse":[8,43,47,66,87,107,126,147,167,186,207,227,247,267,287,306,327,345,366,386,406,426,447,466,487,506,527,547,566,587,606,626,646,666,687,706,726,747,767,786,806,827,846,866,887,906,927,947,967,986,1006,1027,1046,1067,1085,1107,1127,1147,1167,1186,1206,1227,1247,1267,1286,1307,1327,1346,1366,1386,1407,1427,1446,1466,1485,1506,1527,1546,1567,1586,1607,1628,1646],"xSR":741.5,"ySR":469.95,"xT1":424.9,"yT1":0,"xT2":1058.1,"yT2":0,"toosoon":0,"cond_shown":"Incongruent","ratio_trial":200,"L_num":1,"L_den":2,"R_num":3,"R_den":10,"correct_side":1,"subjID":"arielsantiagodiazmorales30","gender":"0","school":"6","age":"12"},{"start_time":1551800679771,"click_time":1551800681040,"finger_time":1551800680639,"fix_duration":250,"trial":11,"RT":868,"MT":401,"sideResp":2,"stimulus":[],"xmouse":[811,811,811,811,811,811,811,811,811,811,811,811,811,811,811,811,811,811,811,811,811,811,811,811,811,811,811,811,811,811,811,811,811,811,811,811,811,811,811,811,811,811,811,840,882,969,1022,1054,1075,1079,1080,1081,1086,1089,1093,1096,1098,1098,1099,1100,1100,1102,1104,1113],"ymouse":[501,501,501,501,501,501,501,501,501,501,501,501,501,501,501,501,501,501,501,501,501,501,501,501,501,501,501,501,501,501,501,501,501,501,501,501,501,501,501,501,501,501,501,459,401,302,241,203,176,171,168,167,158,152,143,138,133,132,129,127,125,120,110,78],"timestamp_mouse":[10,30,49,68,89,108,129,149,168,188,209,228,248,268,288,308,329,348,368,388,409,428,448,469,488,508,529,548,569,588,608,627,649,669,688,709,729,749,769,789,808,829,849,868,889,909,928,949,968,988,1008,1028,1049,1068,1088,1108,1129,1148,1169,1188,1208,1229,1249,1269],"xSR":741.5,"ySR":469.95,"xT1":424.9,"yT1":0,"xT2":1058.1,"yT2":0,"toosoon":0,"cond_shown":"Incongruent","ratio_trial":300,"L_num":4,"L_den":20,"R_num":2,"R_den":4,"correct_side":2,"subjID":"arielsantiagodiazmorales30","gender":"0","school":"6","age":"12"},{"start_time":1551800682735,"click_time":1551800684999,"finger_time":1551800684120,"fix_duration":335.6929652939503,"trial":12,"RT":1385,"MT":879,"sideResp":1,"stimulus":[],"xmouse":[788,788,788,788,788,788,788,788,788,788,788,788,788,788,788,788,788,788,788,788,788,788,788,788,788,788,788,788,788,788,788,788,788,788,788,788,788,788,789,792,794,795,796,796,796,796,796,796,796,796,796,796,796,796,796,796,796,796,796,796,796,796,796,796,796,796,797,802,811,820,823,824,825,825,825,825,825,825,825,825,825,824,819,815,813,810,809,809,809,809,809,809,809,809,809,809,809,809,807,768,731,682,617,544,470,457,454,454,453,449,447,445,444,441],"ymouse":[558,558,558,558,558,558,558,558,558,558,558,558,558,558,558,558,558,558,558,558,558,558,558,558,558,558,558,558,558,558,558,558,558,558,558,558,558,558,557,552,549,546,545,545,545,545,545,545,545,545,545,545,545,545,545,545,545,545,545,545,545,545,545,545,545,545,537,518,489,455,445,443,441,441,441,441,441,441,441,441,441,442,449,455,459,465,466,466,466,466,466,466,466,466,466,466,466,466,467,437,407,360,289,224,149,135,131,131,130,117,111,105,100,91],"timestamp_mouse":[20,37,44,64,84,104,124,145,163,184,205,224,244,265,284,304,324,344,365,384,404,424,444,464,485,504,524,545,564,584,605,624,645,664,685,704,725,745,765,785,804,824,843,864,885,904,924,945,965,984,1004,1025,1043,1064,1085,1104,1124,1145,1164,1185,1205,1225,1244,1264,1284,1304,1325,1345,1364,1385,1404,1425,1445,1465,1484,1504,1524,1545,1564,1586,1604,1625,1644,1664,1684,1704,1724,1744,1765,1784,1805,1825,1844,1864,1885,1904,1924,1944,1964,1985,2004,2024,2044,2065,2085,2104,2124,2143,2165,2185,2204,2224,2245,2264],"xSR":741.5,"ySR":469.95,"xT1":424.9,"yT1":0,"xT2":1058.1,"yT2":0,"toosoon":0,"cond_shown":"Congruent","ratio_trial":100,"L_num":11,"L_den":22,"R_num":4,"R_den":10,"correct_side":1,"subjID":"arielsantiagodiazmorales30","gender":"0","school":"6","age":"12"},{"start_time":1551800688640,"click_time":1551800690400,"finger_time":1551800689940,"fix_duration":1279.6436462671295,"trial":13,"RT":1300,"MT":460,"sideResp":1,"stimulus":[],"xmouse":[786,786,786,786,786,786,786,786,786,786,786,786,786,786,786,786,786,786,786,786,786,786,786,786,786,786,786,786,786,786,786,786,786,786,786,786,786,786,786,786,786,786,786,786,786,786,786,786,786,786,786,786,786,786,786,786,786,786,786,786,786,786,783,778,734,706,670,642,626,612,612,612,612,612,612,612,612,610,601,597,592,589,585,574,569,559,543,523],"ymouse":[528,528,528,528,528,528,528,528,528,528,528,528,528,528,528,528,528,528,528,528,528,528,528,528,528,528,528,528,528,528,528,528,528,528,528,528,528,528,528,528,528,528,528,528,528,528,528,528,528,528,528,528,528,528,528,528,528,528,528,528,528,528,521,503,389,325,265,229,213,201,201,201,201,201,196,191,183,171,148,138,132,127,122,114,110,102,88,77],"timestamp_mouse":[32,40,60,79,100,119,140,160,179,199,219,239,259,279,300,319,339,359,380,399,419,440,459,479,499,520,539,559,580,600,619,639,659,680,700,719,739,760,779,799,820,840,859,879,900,918,939,959,980,999,1019,1039,1060,1080,1099,1120,1139,1160,1179,1200,1219,1238,1259,1279,1300,1319,1340,1359,1379,1400,1419,1440,1459,1480,1499,1520,1539,1559,1581,1598,1619,1639,1659,1680,1699,1719,1740,1759],"xSR":741.5,"ySR":469.95,"xT1":424.9,"yT1":0,"xT2":1058.1,"yT2":0,"toosoon":0,"cond_shown":"Incongruent","ratio_trial":200,"L_num":7,"L_den":10,"R_num":14,"R_den":28,"correct_side":1,"subjID":"arielsantiagodiazmorales30","gender":"0","school":"6","age":"12"},{"start_time":1551800694650,"click_time":1551800697739,"finger_time":1551800696159,"fix_duration":250,"trial":14,"RT":1509,"MT":1580,"sideResp":2,"stimulus":[],"xmouse":[768,768,768,768,768,768,768,768,768,768,768,768,768,768,768,768,768,768,768,768,768,768,768,768,768,768,768,768,768,768,768,768,768,768,768,768,768,768,768,768,768,768,768,768,768,768,768,768,768,768,768,768,768,768,768,768,768,768,768,768,768,768,768,768,768,768,768,768,768,768,768,768,768,775,800,830,857,877,893,930,949,972,1005,1051,1133,1161,1185,1194,1198,1200,1200,1195,1184,1168,1160,1152,1136,1124,1115,1114,1113,1112,1112,1112,1112,1112,1114,1115,1116,1116,1116,1116,1116,1116,1116,1116,1116,1116,1116,1116,1115,1114,1113,1111,1111,1111,1111,1111,1111,1111,1111,1111,1111,1111,1111,1111,1111,1111,1111,1111,1111,1111,1111,1111,1111,1111,1111,1111,1111,1111,1111,1111,1111,1109,1105],"ymouse":[496,496,496,496,496,496,496,496,496,496,496,496,496,496,496,496,496,496,496,496,496,496,496,496,496,496,496,496,496,496,496,496,496,496,496,496,496,496,496,496,496,496,496,496,496,496,496,496,496,496,496,496,496,496,496,496,496,496,496,496,496,496,496,496,496,496,496,496,496,496,496,496,496,492,470,450,434,420,408,388,381,378,370,359,325,312,302,295,292,282,266,250,222,195,186,177,167,158,152,150,147,145,144,141,141,139,137,135,133,128,126,123,121,120,120,120,120,119,118,118,116,115,113,109,109,109,109,109,109,109,109,109,109,109,109,109,109,109,109,109,109,109,109,109,109,109,109,109,109,109,109,109,109,106,94],"timestamp_mouse":[9,38,49,70,89,109,129,149,170,190,209,229,249,270,290,309,330,350,369,389,410,428,450,470,490,509,530,549,570,590,609,630,650,669,689,709,730,749,770,790,809,829,849,870,889,909,929,949,970,989,1009,1030,1050,1069,1089,1109,1129,1149,1170,1189,1210,1230,1249,1270,1289,1309,1329,1349,1369,1389,1409,1429,1450,1469,1490,1509,1529,1549,1569,1589,1609,1630,1650,1671,1690,1709,1729,1749,1769,1790,1808,1829,1849,1870,1889,1909,1930,1950,1970,1988,2009,2029,2049,2070,2089,2109,2129,2150,2169,2189,2209,2230,2249,2269,2289,2309,2329,2349,2371,2389,2409,2430,2448,2470,2489,2509,2529,2550,2569,2589,2610,2629,2650,2669,2689,2708,2730,2748,2769,2788,2809,2829,2849,2870,2890,2908,2930,2949,2969,2990,3010,3029,3050,3069,3089],"xSR":741.5,"ySR":469.95,"xT1":424.9,"yT1":0,"xT2":1058.1,"yT2":0,"toosoon":0,"cond_shown":"Incongruent","ratio_trial":300,"L_num":13,"L_den":26,"R_num":12,"R_den":15,"correct_side":2,"subjID":"arielsantiagodiazmorales30","gender":"0","school":"6","age":"12"},{"start_time":1551800699949,"click_time":1551800704860,"finger_time":1551800703340,"fix_duration":727.3500330633905,"trial":15,"RT":3391,"MT":1520,"sideResp":1,"stimulus":[],"xmouse":[813,813,813,813,813,813,813,813,813,813,813,813,813,813,813,813,813,813,813,813,813,813,813,813,813,813,813,813,813,813,813,813,813,813,813,813,813,813,813,813,813,813,813,813,813,813,813,813,813,813,813,813,813,813,813,813,813,813,813,813,813,813,813,813,813,813,813,813,813,813,813,813,813,813,813,813,813,813,813,813,813,813,813,813,813,813,813,813,813,813,813,813,813,813,813,813,813,813,813,813,813,813,813,813,813,813,813,813,813,813,813,813,813,813,813,813,813,813,813,813,813,813,813,813,813,813,813,813,813,813,813,813,813,813,813,813,813,813,813,813,813,813,813,813,813,813,813,813,813,813,813,813,813,813,813,813,813,813,813,813,813,813,813,813,813,813,813,813,810,810,810,810,810,810,810,810,810,810,820,821,819,811,803,798,790,784,776,769,762,760,758,756,755,754,754,754,754,754,754,754,754,754,754,754,754,754,754,754,754,754,754,754,754,754,754,754,754,756,788,807,826,849,879,898,921,928,929,919,894,857,839,839,839,839,839,839,839,839,839,839,839,839,839,839,839,469],"ymouse":[540,540,540,540,540,540,540,540,540,540,540,540,540,540,540,540,540,540,540,540,540,540,540,540,540,540,540,540,540,540,540,540,540,540,540,540,540,540,540,540,540,540,540,540,540,540,540,540,540,540,540,540,540,540,540,540,540,540,540,540,540,540,540,540,540,540,540,540,540,540,540,540,540,540,540,540,540,540,540,540,540,540,540,540,540,540,540,540,540,540,540,540,540,540,540,540,540,540,540,540,540,540,540,540,540,540,540,540,540,540,540,540,540,540,540,540,540,540,540,540,540,540,540,540,540,540,540,540,540,540,540,540,540,540,540,540,540,540,540,540,540,540,540,540,540,540,540,540,540,540,540,540,540,540,540,540,540,540,540,540,540,540,540,540,540,540,540,540,568,603,647,696,696,696,696,696,696,696,718,665,637,611,593,580,569,563,558,555,546,540,535,531,527,524,524,524,524,524,524,524,524,524,524,524,524,524,524,524,524,524,524,524,524,524,524,524,524,522,503,490,474,452,421,398,345,309,248,195,138,42,6,6,6,6,6,6,6,6,6,6,6,6,6,6,6,11],"timestamp_mouse":[10,35,50,70,89,111,131,150,171,190,210,230,251,271,290,310,331,350,370,390,411,430,450,471,490,510,529,550,570,590,610,630,651,670,689,711,730,750,770,790,810,830,850,870,890,911,930,951,970,990,1010,1030,1051,1070,1091,1110,1130,1150,1169,1191,1210,1230,1251,1271,1290,1310,1330,1351,1370,1391,1411,1430,1451,1470,1489,1510,1530,1551,1570,1590,1610,1630,1650,1670,1690,1710,1731,1751,1771,1789,1811,1830,1851,1870,1890,1910,1931,1950,1971,1991,2011,2031,2050,2070,2091,2109,2131,2150,2171,2191,2210,2229,2251,2270,2291,2309,2330,2351,2370,2391,2410,2430,2451,2471,2490,2511,2529,2551,2570,2591,2610,2630,2651,2671,2691,2710,2731,2751,2771,2791,2810,2831,2851,2871,2891,2910,2931,2950,2971,2991,3011,3030,3051,3070,3091,3111,3131,3151,3171,3191,3211,3231,3250,3271,3291,3311,3331,3350,3371,3391,3409,3431,3451,3470,3491,3510,3530,3550,3570,3591,3610,3631,3651,3670,3690,3710,3730,3750,3771,3791,3810,3830,3850,3870,3891,3910,3930,3951,3971,3991,4010,4031,4050,4070,4091,4110,4131,4150,4171,4190,4210,4230,4250,4271,4290,4310,4330,4351,4371,4391,4410,4431,4451,4470,4490,4510,4530,4550,4571,4590,4610,4631,4651,4671,4690,4711,4730,4750,4770,4791,4811,4831,4850,4871,4890,4911],"xSR":741.5,"ySR":469.95,"xT1":424.9,"yT1":0,"xT2":1058.1,"yT2":0,"toosoon":0,"cond_shown":"Incongruent","ratio_trial":300,"L_num":4,"L_den":20,"R_num":2,"R_den":4,"correct_side":2,"subjID":"arielsantiagodiazmorales30","gender":"0","school":"6","age":"12"},{"start_time":1551800708243,"click_time":1551800710159,"finger_time":1551800709259,"fix_duration":980.6801698092834,"trial":16,"RT":1016,"MT":900,"sideResp":1,"stimulus":[],"xmouse":[765,765,765,765,765,765,765,765,765,765,765,765,765,765,765,765,765,765,765,765,765,765,765,765,765,765,765,765,765,765,765,765,765,765,765,765,765,765,765,765,765,765,765,765,765,765,765,765,765,765,764,755,750,746,746,746,746,746,746,742,736,723,700,656,525,485,485,485,485,485,485,485,485,485,485,485,485,485,485,485,485,368,374,381,391,393,395,399,406,411,413,417,417,419,424,429],"ymouse":[507,507,507,507,507,507,507,507,507,507,507,507,507,507,507,507,507,507,507,507,507,507,507,507,507,507,507,507,507,507,507,507,507,507,507,507,507,507,507,507,507,507,507,507,507,507,507,507,507,486,463,423,390,362,359,359,359,359,356,347,338,310,270,205,42,0,0,0,0,0,0,0,0,0,0,0,0,0,0,0,0,5,16,24,37,39,42,46,54,59,61,62,63,64,66,70],"timestamp_mouse":[16,44,56,77,97,116,137,156,176,197,216,236,256,277,297,316,336,357,377,397,416,435,456,477,497,516,537,557,577,597,617,637,656,675,697,716,737,757,776,796,816,837,857,875,897,916,937,957,977,996,1016,1036,1056,1078,1096,1115,1136,1156,1178,1196,1217,1236,1257,1277,1296,1317,1336,1356,1377,1397,1417,1436,1455,1476,1495,1517,1537,1557,1576,1597,1617,1637,1656,1677,1696,1716,1736,1756,1777,1796,1817,1837,1856,1875,1897,1916],"xSR":741.5,"ySR":469.95,"xT1":424.9,"yT1":0,"xT2":1058.1,"yT2":0,"toosoon":0,"cond_shown":"Congruent","ratio_trial":200,"L_num":7,"L_den":21,"R_num":2,"R_den":15,"correct_side":1,"subjID":"arielsantiagodiazmorales30","gender":"0","school":"6","age":"12"},{"start_time":1551800712703,"click_time":1551800714439,"finger_time":1551800714059,"fix_duration":623.2314855624196,"trial":17,"RT":1356,"MT":380,"sideResp":1,"stimulus":[],"xmouse":[791,791,791,791,791,791,791,791,791,791,791,791,791,791,791,791,791,791,791,791,791,791,791,791,791,791,791,791,791,791,791,791,791,791,791,791,791,791,791,791,791,791,791,791,791,791,791,791,791,791,791,791,791,791,791,791,791,791,791,791,791,791,791,791,791,791,791,789,781,751,679,646,620,606,596,595,595,595,595,595,595,595,590,578,561,533,521],"ymouse":[489,489,489,489,489,489,489,489,489,489,489,489,489,489,489,489,489,489,489,489,489,489,489,489,489,489,489,489,489,489,489,489,489,489,489,489,489,489,489,489,489,489,489,489,489,489,489,489,489,489,489,489,489,489,489,489,489,489,489,489,489,489,489,489,489,489,489,465,441,340,173,107,67,49,38,37,37,37,37,37,37,37,37,40,45,58,64],"timestamp_mouse":[31,36,56,76,96,116,137,157,176,196,216,235,257,275,297,316,336,356,377,396,416,436,456,476,496,516,536,556,576,595,616,636,656,676,696,716,737,756,777,795,816,836,856,876,897,917,937,959,976,996,1017,1036,1057,1075,1097,1117,1136,1156,1176,1196,1216,1235,1257,1276,1297,1317,1337,1356,1376,1397,1417,1436,1456,1477,1497,1517,1537,1557,1576,1596,1616,1636,1656,1676,1696,1717,1736],"xSR":741.5,"ySR":469.95,"xT1":424.9,"yT1":0,"xT2":1058.1,"yT2":0,"toosoon":0,"cond_shown":"Congruent","ratio_trial":100,"L_num":11,"L_den":22,"R_num":4,"R_den":10,"correct_side":1,"subjID":"arielsantiagodiazmorales30","gender":"0","school":"6","age":"12"},{"start_time":1551800717010,"click_time":1551800718739,"finger_time":1551800718360,"fix_duration":250,"trial":18,"RT":1350,"MT":379,"sideResp":2,"stimulus":[],"xmouse":[752,752,752,753,764,779,819,827,828,828,828,828,828,828,828,828,828,828,828,828,828,828,828,828,828,828,828,829,826,822,814,813,813,813,813,813,813,813,813,813,813,813,813,813,813,813,813,813,813,813,813,813,813,813,813,813,813,813,813,813,813,813,813,813,813,820,841,872,893,908,924,953,963,964,969,971,971,971,970,970,992,1022,1053,1089,1103,1117,1118],"ymouse":[534,534,534,530,522,516,514,514,514,514,514,514,514,514,514,514,514,514,514,514,514,514,514,514,514,514,514,518,524,534,554,556,556,556,556,556,556,556,556,556,556,556,556,556,556,556,556,556,556,556,556,556,556,556,556,556,556,556,556,556,556,556,556,556,556,535,488,433,389,365,347,320,303,301,285,270,259,248,234,217,178,165,152,132,120,102,99],"timestamp_mouse":[10,43,49,70,89,109,129,149,170,190,209,229,249,269,289,310,330,349,370,390,409,429,450,469,489,509,530,548,570,590,609,630,650,670,689,709,729,749,769,789,809,828,849,869,890,909,929,949,969,990,1011,1030,1049,1070,1089,1109,1130,1150,1169,1189,1210,1230,1249,1269,1290,1309,1329,1350,1369,1389,1409,1429,1449,1469,1490,1510,1529,1550,1569,1589,1611,1629,1650,1669,1689,1711,1729],"xSR":741.5,"ySR":469.95,"xT1":424.9,"yT1":0,"xT2":1058.1,"yT2":0,"toosoon":0,"cond_shown":"Congruent","ratio_trial":300,"L_num":1,"L_den":3,"R_num":19,"R_den":30,"correct_side":2,"subjID":"arielsantiagodiazmorales30","gender":"0","school":"6","age":"12"},{"start_time":1551800721240,"click_time":1551800722739,"finger_time":1551800722139,"fix_duration":859.2110544437297,"trial":19,"RT":899,"MT":600,"sideResp":1,"stimulus":[],"xmouse":[763,763,763,763,763,763,763,763,763,763,763,763,763,763,763,763,763,763,763,763,763,763,763,763,763,763,763,763,763,763,763,763,763,763,763,763,763,763,763,763,763,763,763,763,763,757,751,742,734,727,716,703,698,681,661,650,639,632,627,622,603,597,589,586,581,578,576,575,575,575,574,567,554,540,527,512],"ymouse":[520,520,520,520,520,520,520,520,520,520,520,520,520,520,520,520,520,520,520,520,520,520,520,520,520,520,520,520,520,520,520,520,520,520,520,520,520,520,520,520,520,520,520,520,519,469,446,421,403,390,373,363,358,340,308,291,268,249,232,214,173,158,141,131,124,116,114,112,112,112,110,104,97,88,81,73],"timestamp_mouse":[2,35,39,59,79,99,119,139,159,180,199,219,240,259,279,300,320,339,359,379,400,419,440,459,480,500,520,538,560,579,600,619,639,659,680,700,720,738,759,780,799,819,840,860,880,899,919,940,959,979,999,1020,1039,1060,1080,1099,1119,1139,1159,1179,1200,1219,1239,1260,1279,1299,1320,1340,1360,1379,1399,1419,1439,1459,1479,1499],"xSR":741.5,"ySR":469.95,"xT1":424.9,"yT1":0,"xT2":1058.1,"yT2":0,"toosoon":0,"cond_shown":"Incongruent","ratio_trial":200,"L_num":4,"L_den":5,"R_num":6,"R_den":10,"correct_side":1,"subjID":"arielsantiagodiazmorales30","gender":"0","school":"6","age":"12"},{"start_time":1551800724388,"click_time":1551800725940,"finger_time":1551800725379,"fix_duration":687.6207586320705,"trial":20,"RT":991,"MT":561,"sideResp":2,"stimulus":[],"xmouse":[764,764,764,764,764,764,764,764,764,764,764,764,764,764,764,764,764,764,764,764,764,764,764,764,764,764,764,764,764,764,764,764,764,764,764,764,764,764,764,764,764,765,774,787,804,808,810,811,826,848,879,919,976,1005,1011,1013,1014,1021,1030,1039,1045,1052,1052,1053,1055,1058,1061,1061,1063,1066,1066,1066,1066,1066,1066,1066,1070,1089],"ymouse":[493,493,493,493,493,493,493,493,493,493,493,493,493,493,493,493,493,493,493,493,493,493,493,493,493,493,493,493,493,493,493,493,493,493,493,493,493,493,493,493,493,493,490,486,483,482,482,481,472,456,433,398,349,304,281,269,260,244,235,225,217,205,201,198,192,187,175,169,159,144,134,134,134,134,134,133,121,76],"timestamp_mouse":[11,37,51,71,92,111,131,151,172,192,212,232,251,271,291,311,332,351,371,391,412,431,452,471,492,511,532,552,571,591,611,631,651,671,692,711,731,752,771,791,811,831,851,871,892,911,931,952,971,991,1011,1031,1050,1071,1091,1111,1132,1151,1171,1192,1212,1233,1251,1271,1291,1312,1332,1350,1372,1391,1411,1432,1452,1472,1491,1511,1531,1552],"xSR":741.5,"ySR":469.95,"xT1":424.9,"yT1":0,"xT2":1058.1,"yT2":0,"toosoon":0,"cond_shown":"Congruent","ratio_trial":200,"L_num":12,"L_den":15,"R_num":6,"R_den":10,"correct_side":1,"subjID":"arielsantiagodiazmorales30","gender":"0","school":"6","age":"12"},{"start_time":1551800729812,"click_time":1551800731640,"finger_time":1551800731220,"fix_duration":1330.9667708380452,"trial":21,"RT":1408,"MT":420,"sideResp":2,"stimulus":[],"xmouse":[774,774,774,774,774,774,774,774,774,774,774,774,774,774,774,774,774,774,774,774,774,774,774,774,774,774,774,774,774,774,774,774,774,774,774,774,774,774,774,774,774,774,774,774,774,775,775,775,775,775,775,775,775,775,775,775,775,775,775,775,775,775,775,775,775,775,775,775,775,782,839,904,993,1123,1193,1284,1284,1284,1284,1284,1284,1284,1284,1284,1284,1284,1284,1284,1284,1284,1284,1124],"ymouse":[505,505,505,505,505,505,505,505,505,505,505,505,505,505,505,505,505,505,505,505,505,505,505,505,505,505,505,505,505,505,505,505,505,505,505,505,505,505,505,505,505,505,505,505,505,507,507,507,507,507,507,507,507,507,507,507,507,507,507,507,507,507,507,507,507,507,507,507,507,504,446,375,292,186,123,2,2,2,2,2,2,2,2,2,2,2,2,2,2,2,2,27],"timestamp_mouse":[9,39,47,67,87,107,128,148,173,188,208,227,247,267,288,308,328,348,368,388,408,427,447,468,486,507,528,547,568,588,608,627,647,667,687,708,727,747,767,788,807,827,848,868,887,907,927,947,968,988,1008,1027,1047,1067,1088,1108,1127,1147,1168,1187,1207,1226,1248,1267,1287,1307,1327,1347,1368,1388,1408,1427,1447,1467,1487,1509,1527,1546,1567,1587,1607,1628,1647,1668,1688,1707,1728,1747,1767,1788,1808,1828],"xSR":741.5,"ySR":469.95,"xT1":424.9,"yT1":0,"xT2":1058.1,"yT2":0,"toosoon":0,"cond_shown":"Incongruent","ratio_trial":100,"L_num":6,"L_den":10,"R_num":13,"R_den":26,"correct_side":1,"subjID":"arielsantiagodiazmorales30","gender":"0","school":"6","age":"12"},{"start_time":1551800735212,"click_time":1551800736521,"finger_time":1551800736340,"fix_duration":250,"trial":22,"RT":1128,"MT":181,"sideResp":2,"stimulus":[],"xmouse":[834,834,834,834,834,834,834,834,834,834,834,834,834,834,834,834,834,834,834,834,834,834,834,834,834,834,834,834,834,834,834,834,834,834,834,834,834,834,834,834,834,834,834,834,834,834,834,834,834,834,834,834,834,834,834,837,907,952,999,1038,1063,1101,1104,1107,1107,1104],"ymouse":[506,506,506,506,506,506,506,506,506,506,506,506,506,506,506,506,506,506,506,506,506,506,506,506,506,506,506,506,506,506,506,506,506,506,506,506,506,506,506,506,506,506,506,506,506,506,506,506,506,506,506,506,506,506,506,504,442,389,333,289,258,196,187,160,140,97],"timestamp_mouse":[9,41,47,67,88,107,127,147,167,187,208,228,247,268,287,308,328,347,368,387,408,428,447,467,488,507,528,547,567,588,608,628,648,668,688,708,727,747,768,786,808,827,848,867,888,907,928,948,968,987,1008,1028,1047,1067,1087,1107,1128,1147,1168,1187,1207,1227,1247,1267,1287,1308],"xSR":741.5,"ySR":469.95,"xT1":424.9,"yT1":0,"xT2":1058.1,"yT2":0,"toosoon":0,"cond_shown":"Congruent","ratio_trial":100,"L_num":7,"L_den":14,"R_num":9,"R_den":15,"correct_side":2,"subjID":"arielsantiagodiazmorales30","gender":"0","school":"6","age":"12"},{"start_time":1551800738238,"click_time":1551800739880,"finger_time":1551800739759,"fix_duration":716.4585385574644,"trial":23,"RT":1521,"MT":121,"sideResp":2,"stimulus":[],"xmouse":[817,817,817,817,817,817,817,817,817,817,817,817,817,817,817,817,817,817,817,818,820,820,820,820,820,820,820,820,820,820,820,820,820,820,820,820,820,820,820,820,820,820,820,820,820,820,820,820,820,820,820,820,820,820,820,820,820,820,820,820,820,820,820,820,820,820,820,820,820,820,820,820,820,820,820,825,843,863,897,986,1020,1050,1066],"ymouse":[510,510,510,510,510,510,510,510,510,510,510,510,510,510,510,510,510,510,503,497,485,484,484,484,484,484,484,484,484,484,484,484,484,484,484,484,484,484,484,484,484,484,484,484,484,484,484,484,484,484,484,484,484,484,484,484,484,484,484,484,484,484,484,484,484,484,484,484,484,484,484,484,484,484,484,474,445,404,338,178,122,83,66],"timestamp_mouse":[10,32,42,61,82,102,121,141,162,182,202,221,242,262,282,301,321,341,361,381,402,421,440,460,481,501,521,541,562,581,601,621,641,662,682,702,721,742,761,782,801,820,841,861,881,901,921,941,962,981,1001,1021,1041,1060,1082,1101,1121,1141,1161,1182,1202,1221,1241,1261,1280,1302,1322,1341,1361,1382,1402,1422,1441,1461,1482,1501,1521,1541,1562,1582,1601,1621,1641],"xSR":741.5,"ySR":469.95,"xT1":424.9,"yT1":0,"xT2":1058.1,"yT2":0,"toosoon":0,"cond_shown":"Congruent","ratio_trial":300,"L_num":1,"L_den":5,"R_num":11,"R_den":22,"correct_side":2,"subjID":"arielsantiagodiazmorales30","gender":"0","school":"6","age":"12"},{"start_time":1551800742491,"click_time":1551800743999,"finger_time":1551800743379,"fix_duration":250,"trial":24,"RT":888,"MT":620,"sideResp":2,"stimulus":[],"xmouse":[802,802,802,802,802,802,802,802,802,802,802,802,802,802,802,802,802,802,802,802,802,802,802,802,802,802,802,802,802,802,802,802,802,802,802,802,802,802,802,802,802,802,806,829,859,902,953,968,974,974,974,974,974,974,974,974,974,974,974,974,974,1041,1060,1076,1089,1098,1103,1103,1103,1103,1103,1103,1105,1112,1119,1123],"ymouse":[509,509,509,509,509,509,509,509,509,509,509,509,509,509,509,509,509,509,509,509,509,509,509,509,509,509,509,509,509,509,509,509,509,509,509,509,509,509,509,509,509,509,505,470,417,328,95,25,6,6,6,6,6,6,6,6,6,6,6,6,6,77,111,136,153,167,173,174,174,174,174,174,174,152,121,92],"timestamp_mouse":[9,35,49,69,89,108,128,149,169,189,208,229,249,268,288,309,329,348,369,388,409,428,449,469,489,509,528,549,568,589,609,629,649,669,689,708,728,748,768,789,809,829,849,868,888,909,930,948,969,988,1008,1029,1049,1068,1088,1108,1128,1148,1168,1188,1209,1229,1247,1269,1289,1308,1328,1349,1369,1388,1408,1428,1449,1468,1489,1508],"xSR":741.5,"ySR":469.95,"xT1":424.9,"yT1":0,"xT2":1058.1,"yT2":0,"toosoon":0,"cond_shown":"Congruent","ratio_trial":300,"L_num":4,"L_den":20,"R_num":13,"R_den":26,"correct_side":2,"subjID":"arielsantiagodiazmorales30","gender":"0","school":"6","age":"12"},{"start_time":1551800745541,"click_time":1551800746939,"finger_time":1551800746478,"fix_duration":621.5729707841992,"trial":25,"RT":937,"MT":461,"sideResp":2,"stimulus":[],"xmouse":[796,796,796,796,796,796,796,796,796,796,796,796,796,796,796,796,796,796,796,796,796,796,796,796,796,796,796,796,796,796,796,796,796,796,796,796,796,796,796,796,796,796,796,796,796,796,810,835,877,914,926,935,938,938,938,939,943,947,949,953,961,972,987,1006,1044,1060,1074,1081,1089,1097],"ymouse":[480,480,480,480,480,480,480,480,480,480,480,480,480,480,480,480,480,480,480,480,480,480,480,480,480,480,480,480,480,480,480,480,480,480,480,480,480,480,480,480,480,480,480,480,480,480,446,381,256,140,118,107,104,104,104,104,102,100,99,99,99,99,99,103,108,109,109,107,102,95],"timestamp_mouse":[32,38,58,79,99,119,139,158,179,199,218,238,259,278,297,318,339,358,378,399,418,439,459,478,499,518,539,559,578,599,618,639,659,679,698,717,739,759,779,798,818,838,859,879,899,918,937,959,978,998,1018,1039,1058,1079,1098,1118,1138,1159,1178,1198,1218,1238,1258,1278,1299,1318,1338,1358,1379,1398],"xSR":741.5,"ySR":469.95,"xT1":424.9,"yT1":0,"xT2":1058.1,"yT2":0,"toosoon":0,"cond_shown":"Incongruent","ratio_trial":100,"L_num":8,"L_den":20,"R_num":1,"R_den":2,"correct_side":2,"subjID":"arielsantiagodiazmorales30","gender":"0","school":"6","age":"12"},{"start_time":1551800748204,"click_time":1551800749739,"finger_time":1551800749280,"fix_duration":282.11766915812586,"trial":26,"RT":1076,"MT":459,"sideResp":2,"stimulus":[],"xmouse":[822,822,822,822,822,822,822,822,822,822,822,822,822,822,822,822,822,822,822,822,822,822,822,822,822,822,822,822,822,822,822,822,822,822,822,822,822,822,822,822,822,822,822,822,822,822,822,822,823,823,823,823,827,847,924,1063,1130,1187,1241,1277,1304,1308,1310,1310,1310,1309,1302,1300,1296,1289,1269,1257,1245,1221,1202,1167,1156],"ymouse":[521,521,521,521,521,521,521,521,521,521,521,521,521,521,521,521,521,521,521,521,521,521,521,521,521,521,521,521,521,521,521,521,521,521,521,521,521,521,521,521,521,521,521,521,522,508,504,503,501,501,501,501,496,477,423,323,267,215,158,118,77,66,62,56,53,48,32,28,23,19,14,13,13,13,13,13,15],"timestamp_mouse":[15,35,56,76,95,115,135,156,175,195,216,236,256,275,295,315,335,355,376,395,416,436,455,476,496,516,535,556,576,595,615,636,655,676,695,716,736,755,775,795,816,836,855,876,896,916,935,956,976,996,1015,1036,1056,1076,1095,1117,1135,1156,1175,1196,1216,1234,1255,1275,1295,1315,1335,1355,1375,1396,1417,1435,1456,1476,1495,1516,1535],"xSR":741.5,"ySR":469.95,"xT1":424.9,"yT1":0,"xT2":1058.1,"yT2":0,"toosoon":0,"cond_shown":"Incongruent","ratio_trial":300,"L_num":13,"L_den":26,"R_num":12,"R_den":15,"correct_side":2,"subjID":"arielsantiagodiazmorales30","gender":"0","school":"6","age":"12"},{"start_time":1551800752547,"click_time":1551800754039,"finger_time":1551800753680,"fix_duration":446.59087466505673,"trial":27,"RT":1133,"MT":359,"sideResp":1,"stimulus":[],"xmouse":[778,778,778,778,778,778,778,778,778,778,778,778,778,778,778,778,778,778,778,778,778,778,778,778,778,778,778,778,778,778,778,778,778,778,778,778,778,778,778,778,778,778,778,778,778,778,778,778,778,778,778,778,778,778,778,778,772,761,724,708,701,701,701,701,701,701,701,701,701,701,701,637,618,575,523],"ymouse":[527,527,527,527,527,527,527,527,527,527,527,527,527,527,527,527,527,527,527,527,527,527,527,527,527,527,527,527,527,527,527,527,527,527,527,527,527,527,527,527,527,527,527,527,527,527,527,527,527,527,527,527,527,527,527,517,466,382,122,40,5,5,5,5,5,5,5,5,5,5,5,11,26,52,80],"timestamp_mouse":[13,36,52,73,92,113,133,152,172,192,212,233,252,273,293,312,332,353,372,393,413,432,452,472,493,512,532,552,572,592,612,633,652,672,693,712,732,752,773,793,813,832,852,873,893,912,933,953,972,993,1012,1032,1053,1072,1093,1112,1133,1153,1173,1192,1213,1233,1252,1272,1293,1311,1332,1353,1373,1392,1412,1432,1453,1472,1492],"xSR":741.5,"ySR":469.95,"xT1":424.9,"yT1":0,"xT2":1058.1,"yT2":0,"toosoon":0,"cond_shown":"Congruent","ratio_trial":200,"L_num":8,"L_den":15,"R_num":3,"R_den":9,"correct_side":1,"subjID":"arielsantiagodiazmorales30","gender":"0","school":"6","age":"12"},{"start_time":1551800755762,"click_time":1551800757040,"finger_time":1551800756659,"fix_duration":280.8314299265947,"trial":28,"RT":897,"MT":381,"sideResp":1,"stimulus":[],"xmouse":[787,787,787,787,787,787,787,787,787,787,787,787,787,787,787,787,787,787,787,787,787,787,787,787,787,787,787,787,787,787,787,787,787,787,787,787,787,787,787,787,787,787,787,782,760,734,704,601,563,549,541,536,521,515,509,508,507,506,502,501,499,498,496,493],"ymouse":[509,509,509,509,509,509,509,509,509,509,509,509,509,509,509,509,509,509,509,509,509,509,509,509,509,509,509,509,509,509,509,509,509,509,509,509,509,509,509,509,509,509,509,471,400,325,286,220,205,198,191,182,157,149,142,140,138,137,130,126,121,114,104,84],"timestamp_mouse":[17,41,58,77,97,117,137,158,178,197,217,237,258,277,297,318,337,358,377,398,418,438,458,477,498,518,538,558,577,597,617,638,657,678,697,718,737,757,777,798,818,838,858,878,897,917,937,959,977,997,1017,1038,1059,1076,1096,1117,1137,1158,1178,1197,1218,1237,1258,1278],"xSR":741.5,"ySR":469.95,"xT1":424.9,"yT1":0,"xT2":1058.1,"yT2":0,"toosoon":0,"cond_shown":"Incongruent","ratio_trial":200,"L_num":7,"L_den":10,"R_num":12,"R_den":24,"correct_side":1,"subjID":"arielsantiagodiazmorales30","gender":"0","school":"6","age":"12"},{"start_time":1551800761346,"click_time":1551800762699,"finger_time":1551800762320,"fix_duration":1125.9756740300354,"trial":29,"RT":974,"MT":379,"sideResp":2,"stimulus":[],"xmouse":[833,833,833,833,833,833,833,833,833,833,833,833,833,833,833,833,833,833,833,833,833,833,833,833,833,833,833,833,833,833,833,833,833,833,833,833,833,833,833,833,833,833,833,833,833,833,833,833,870,906,951,985,1009,1038,1044,1051,1055,1060,1064,1073,1077,1078,1078,1078,1078,1078,1080,1081],"ymouse":[541,541,541,541,541,541,541,541,541,541,541,541,541,541,541,541,541,541,541,541,541,541,541,541,541,541,541,541,541,541,541,541,541,541,541,541,541,541,541,541,541,541,541,541,541,541,541,541,491,441,390,354,333,309,304,291,281,268,256,223,210,204,200,183,157,149,122,91],"timestamp_mouse":[13,39,53,73,94,113,134,153,173,194,214,234,254,274,294,313,334,353,374,393,413,434,454,473,494,513,534,554,574,594,613,633,653,673,694,713,733,753,774,794,813,834,854,874,894,914,934,953,974,993,1013,1034,1053,1074,1093,1113,1134,1153,1174,1194,1213,1234,1254,1274,1293,1314,1332,1353],"xSR":741.5,"ySR":469.95,"xT1":424.9,"yT1":0,"xT2":1058.1,"yT2":0,"toosoon":0,"cond_shown":"Incongruent","ratio_trial":100,"L_num":9,"L_den":15,"R_num":14,"R_den":28,"correct_side":1,"subjID":"arielsantiagodiazmorales30","gender":"0","school":"6","age":"12"},{"start_time":1551800766141,"click_time":1551800767259,"finger_time":1551800767020,"fix_duration":718.6353975580522,"trial":30,"RT":879,"MT":239,"sideResp":2,"stimulus":[],"xmouse":[769,769,769,769,769,769,769,769,769,769,769,769,767,766,763,762,761,761,761,761,761,761,761,761,761,761,761,761,761,761,761,761,761,761,761,761,761,761,761,761,767,770,781,797,845,900,936,967,1022,1037,1050,1054,1058,1061,1075,1079],"ymouse":[535,535,535,535,535,535,535,535,535,535,535,535,535,535,535,534,534,534,534,534,534,534,534,534,534,534,534,534,534,534,534,534,534,534,534,534,534,534,534,534,522,515,486,444,331,225,182,159,136,131,129,128,127,123,105,96],"timestamp_mouse":[34,39,58,78,99,118,139,159,178,199,218,238,259,278,299,318,339,358,379,398,418,438,458,478,498,518,539,558,578,598,618,638,659,678,699,719,738,758,779,798,817,838,859,879,898,918,938,958,979,998,1018,1038,1058,1078,1098,1118],"xSR":741.5,"ySR":469.95,"xT1":424.9,"yT1":0,"xT2":1058.1,"yT2":0,"toosoon":0,"cond_shown":"Incongruent","ratio_trial":100,"L_num":6,"L_den":10,"R_num":7,"R_den":14,"correct_side":1,"subjID":"arielsantiagodiazmorales30","gender":"0","school":"6","age":"12"},{"start_time":1551800770052,"click_time":1551800771820,"finger_time":1551800771380,"fix_duration":250,"trial":31,"RT":1328,"MT":440,"sideResp":1,"stimulus":[],"xmouse":[786,786,786,786,786,786,786,786,786,786,786,786,786,786,786,786,786,786,786,786,786,786,786,786,786,786,786,786,786,786,786,786,786,786,786,786,786,786,786,786,786,786,786,786,786,786,786,786,786,786,786,786,786,786,786,786,786,786,786,786,786,786,786,786,782,766,735,709,676,622,613,608,608,608,608,608,608,606,596,587,586,586,585,564,550,536,529,525,523],"ymouse":[522,522,522,522,522,522,522,522,522,522,522,522,522,522,522,522,522,522,522,522,522,522,522,522,522,522,522,522,522,522,522,522,522,522,522,522,522,522,522,522,522,522,522,522,522,522,522,522,522,522,522,522,522,522,522,522,522,522,522,522,522,522,522,522,512,483,425,363,285,170,145,134,134,134,134,134,134,136,141,144,144,144,144,127,112,102,97,95,94],"timestamp_mouse":[8,32,48,68,87,107,128,147,167,187,207,227,247,268,287,307,326,348,367,387,407,427,448,468,487,507,528,547,568,588,607,627,647,668,688,708,727,748,768,788,807,828,848,866,887,906,928,947,968,988,1006,1027,1048,1067,1087,1107,1127,1148,1167,1188,1207,1227,1248,1267,1287,1308,1328,1348,1368,1387,1407,1427,1447,1468,1487,1507,1527,1547,1567,1587,1606,1628,1647,1669,1687,1707,1727,1747,1768],"xSR":741.5,"ySR":469.95,"xT1":424.9,"yT1":0,"xT2":1058.1,"yT2":0,"toosoon":0,"cond_shown":"Incongruent","ratio_trial":200,"L_num":4,"L_den":30,"R_num":1,"R_den":3,"correct_side":2,"subjID":"arielsantiagodiazmorales30","gender":"0","school":"6","age":"12"},{"start_time":1551800773973,"click_time":1551800775521,"finger_time":1551800775039,"fix_duration":250,"trial":32,"RT":1066,"MT":482,"sideResp":2,"stimulus":[],"xmouse":[776,776,776,776,776,776,776,776,776,776,776,776,776,776,776,776,776,776,776,776,776,776,776,776,776,776,776,776,776,776,776,776,776,776,776,776,776,776,776,776,776,776,776,776,776,776,776,777,784,792,803,817,829,855,869,896,916,953,972,988,1002,1015,1024,1039,1044,1051,1055,1060,1068,1072,1074,1075,1075,1075,1075,1075,1076,1083],"ymouse":[525,525,525,525,525,525,525,525,525,525,525,525,525,525,525,525,525,525,525,525,525,525,525,525,525,525,525,525,525,525,525,525,525,525,525,525,525,525,525,525,525,525,525,525,525,525,525,525,522,516,508,501,494,483,477,469,463,442,423,399,374,349,326,283,264,233,215,189,131,114,106,104,104,104,104,104,102,95],"timestamp_mouse":[10,27,63,66,87,107,126,147,166,186,206,227,246,266,286,307,326,346,366,386,407,427,447,466,487,507,526,546,567,586,606,627,647,666,687,707,726,746,766,786,807,825,847,866,886,907,926,946,966,986,1007,1027,1046,1066,1087,1106,1126,1147,1166,1186,1206,1226,1246,1266,1286,1306,1327,1348,1366,1386,1407,1427,1448,1466,1486,1507,1526,1547],"xSR":741.5,"ySR":469.95,"xT1":424.9,"yT1":0,"xT2":1058.1,"yT2":0,"toosoon":0,"cond_shown":"Congruent","ratio_trial":100,"L_num":6,"L_den":20,"R_num":5,"R_den":25,"correct_side":1,"subjID":"arielsantiagodiazmorales30","gender":"0","school":"6","age":"12"},{"start_time":1551800778747,"click_time":1551800780499,"finger_time":1551800779920,"fix_duration":907.8101986205746,"trial":33,"RT":1173,"MT":579,"sideResp":1,"stimulus":[],"xmouse":[758,758,758,758,758,758,758,758,758,758,758,758,758,758,758,758,758,758,758,758,758,758,758,758,758,758,758,758,758,758,758,758,758,758,758,758,758,758,758,758,758,758,758,758,758,758,758,758,758,758,758,758,758,758,758,758,758,758,759,759,749,737,722,710,700,696,694,694,693,682,672,659,643,621,587,571,562,553,539,532,527,520,518,516,514,513,511,509],"ymouse":[507,507,507,507,507,507,507,507,507,507,507,507,507,507,507,507,507,507,507,507,507,507,507,507,507,507,507,507,507,507,507,507,507,507,507,507,507,507,507,507,507,507,507,507,507,507,507,507,507,507,507,507,507,507,507,507,507,507,462,413,372,336,298,275,265,262,262,262,261,246,233,218,201,184,169,164,161,156,146,142,136,131,129,126,123,118,108,96],"timestamp_mouse":[12,38,52,73,92,112,131,152,172,192,213,231,252,272,292,313,332,353,373,392,412,432,452,473,492,511,533,553,572,593,613,633,652,673,693,712,733,753,772,793,812,832,852,873,893,912,933,953,972,992,1013,1033,1052,1072,1093,1113,1133,1153,1173,1192,1212,1233,1252,1272,1292,1312,1332,1352,1373,1392,1412,1433,1452,1472,1492,1513,1532,1552,1574,1592,1613,1633,1651,1673,1692,1712,1733,1752],"xSR":741.5,"ySR":469.95,"xT1":424.9,"yT1":0,"xT2":1058.1,"yT2":0,"toosoon":0,"cond_shown":"Congruent","ratio_trial":100,"L_num":11,"L_den":22,"R_num":6,"R_den":15,"correct_side":1,"subjID":"arielsantiagodiazmorales30","gender":"0","school":"6","age":"12"},{"start_time":1551800782174,"click_time":1551800783839,"finger_time":1551800782920,"fix_duration":512.0848181841927,"trial":34,"RT":746,"MT":919,"sideResp":1,"stimulus":[],"xmouse":[825,825,825,825,824,823,819,815,814,814,814,814,814,814,814,814,814,814,814,814,814,814,814,814,814,814,814,814,814,814,814,814,814,810,808,802,795,780,777,777,779,779,779,779,779,779,779,779,779,779,779,779,779,779,779,781,782,782,782,784,785,770,700,668,653,647,646,646,646,646,646,646,646,645,643,642,636,631,607,589,570,549,525,492],"ymouse":[557,557,557,557,555,550,547,545,545,545,545,545,545,545,545,545,545,545,545,545,545,545,545,545,545,545,545,545,545,545,545,545,545,536,528,505,487,454,449,447,446,446,446,446,446,446,446,446,446,446,446,446,446,446,446,446,447,448,448,446,412,345,194,147,132,130,130,130,130,130,130,130,130,129,129,128,127,125,118,113,109,102,96,86],"timestamp_mouse":[5,25,45,65,86,105,125,145,165,184,205,226,246,265,286,306,326,344,366,385,405,424,445,465,486,506,525,545,565,586,605,626,646,665,686,706,725,746,764,785,806,825,846,865,885,905,925,945,965,985,1006,1025,1046,1065,1085,1105,1125,1145,1166,1185,1205,1225,1247,1265,1286,1305,1325,1346,1365,1386,1405,1426,1446,1465,1486,1505,1525,1546,1565,1585,1605,1626,1645,1665],"xSR":741.5,"ySR":469.95,"xT1":424.9,"yT1":0,"xT2":1058.1,"yT2":0,"toosoon":0,"cond_shown":"Incongruent","ratio_trial":300,"L_num":7,"L_den":10,"R_num":8,"R_den":20,"correct_side":1,"subjID":"arielsantiagodiazmorales30","gender":"0","school":"6","age":"12"},{"start_time":1551800786671,"click_time":1551800788079,"finger_time":1551800787859,"fix_duration":509.27895755141526,"trial":35,"RT":1188,"MT":220,"sideResp":1,"stimulus":[],"xmouse":[785,785,785,785,785,785,785,785,785,785,785,785,785,785,785,785,785,785,785,785,785,785,785,785,785,785,785,785,785,785,785,785,785,785,785,785,785,785,785,785,785,785,785,785,785,785,785,785,785,785,785,785,785,784,784,784,781,779,769,759,730,704,637,605,579,558,542,528,509,504,500],"ymouse":[526,526,526,526,526,526,526,526,526,526,526,526,526,526,526,526,526,526,526,526,526,526,526,526,526,526,526,526,526,526,526,526,526,526,526,526,526,526,526,526,526,526,526,526,526,526,526,526,526,526,526,526,526,525,525,525,514,507,474,451,400,355,259,219,187,163,145,130,110,103,98],"timestamp_mouse":[9,33,49,69,89,109,128,148,169,188,208,229,248,268,288,308,328,348,369,388,408,428,448,468,489,509,528,548,568,588,609,628,649,669,688,709,728,748,768,788,808,828,848,868,889,908,929,949,968,988,1008,1027,1049,1069,1089,1108,1129,1149,1169,1188,1209,1228,1249,1268,1289,1308,1329,1348,1368,1389,1408],"xSR":741.5,"ySR":469.95,"xT1":424.9,"yT1":0,"xT2":1058.1,"yT2":0,"toosoon":0,"cond_shown":"Congruent","ratio_trial":300,"L_num":20,"L_den":25,"R_num":8,"R_den":16,"correct_side":1,"subjID":"arielsantiagodiazmorales30","gender":"0","school":"6","age":"12"},{"start_time":1551800793411,"click_time":1551800794780,"finger_time":1551800794220,"fix_duration":1231.8021167642937,"trial":36,"RT":809,"MT":560,"sideResp":1,"stimulus":[],"xmouse":[808,808,808,808,808,808,808,808,808,808,808,808,808,808,808,808,808,808,808,808,808,808,808,808,808,808,808,808,808,808,808,808,808,808,808,808,808,807,800,789,776,768,758,744,736,732,727,724,719,714,711,700,693,680,668,642,629,619,610,600,594,588,587,584,582,577,559,537,511],"ymouse":[493,493,493,493,493,493,493,493,493,493,493,493,493,493,493,493,493,493,493,493,493,493,493,493,493,493,493,493,493,493,493,493,493,493,493,493,493,494,490,481,462,447,435,414,405,399,391,388,381,376,372,357,342,311,282,223,194,172,155,141,133,126,125,122,121,119,113,107,99],"timestamp_mouse":[9,42,49,67,88,108,128,149,168,189,208,228,249,269,289,309,329,348,368,389,408,428,447,468,488,508,529,548,569,589,607,628,649,667,687,709,729,747,768,788,809,828,848,869,888,908,928,948,968,987,1008,1028,1049,1068,1088,1109,1127,1149,1169,1189,1208,1229,1248,1268,1288,1308,1329,1348,1369],"xSR":741.5,"ySR":469.95,"xT1":424.9,"yT1":0,"xT2":1058.1,"yT2":0,"toosoon":0,"cond_shown":"Congruent","ratio_trial":200,"L_num":20,"L_den":25,"R_num":9,"R_den":15,"correct_side":1,"subjID":"arielsantiagodiazmorales30","gender":"0","school":"6","age":"12"},{"start_time":1551800796675,"click_time":1551800798699,"finger_time":1551800798058,"fix_duration":934.4384987151655,"trial":37,"RT":1383,"MT":641,"sideResp":2,"stimulus":[],"xmouse":[804,804,804,804,804,804,804,804,804,804,804,804,804,804,804,804,805,805,805,805,805,805,805,805,805,805,805,805,805,805,805,805,805,805,805,805,805,805,805,805,805,805,805,806,806,806,806,806,806,806,806,806,806,806,806,806,806,806,806,806,806,806,806,806,806,806,806,806,822,854,896,916,948,963,978,992,1005,1041,1082,1124,1159,1167,1174,1175,1179,1186,1202,1223,1223,1223,1223,1223,1223,1223,1223,1223,1223,1223,1223,1223,1223,1122],"ymouse":[517,517,517,517,517,517,517,517,517,517,517,517,517,517,517,517,517,516,516,516,516,516,516,516,516,516,516,516,516,516,516,516,516,516,516,516,516,516,516,516,516,516,516,516,514,514,514,514,514,514,514,514,514,514,514,514,514,514,514,514,514,514,514,514,514,514,514,513,480,424,359,327,280,261,246,236,227,196,167,138,114,107,102,100,94,79,50,3,3,3,3,3,3,3,3,3,3,3,3,3,3,9],"timestamp_mouse":[9,24,43,63,84,105,128,145,164,183,204,225,245,263,285,304,325,345,365,383,404,425,443,464,484,504,523,544,564,584,605,624,644,665,684,705,724,744,765,784,803,824,844,864,883,904,924,944,965,983,1004,1024,1043,1063,1084,1103,1124,1143,1163,1184,1203,1225,1243,1265,1284,1305,1325,1344,1365,1383,1404,1425,1445,1464,1485,1504,1525,1546,1564,1584,1604,1623,1645,1664,1684,1703,1725,1745,1764,1784,1803,1824,1844,1864,1885,1904,1924,1944,1964,1983,2003,2023],"xSR":741.5,"ySR":469.95,"xT1":424.9,"yT1":0,"xT2":1058.1,"yT2":0,"toosoon":0,"cond_shown":"Congruent","ratio_trial":200,"L_num":3,"L_den":10,"R_num":7,"R_den":14,"correct_side":2,"subjID":"arielsantiagodiazmorales30","gender":"0","school":"6","age":"12"},{"start_time":1551800800192,"click_time":1551800801919,"finger_time":1551800801239,"fix_duration":331.56653528756397,"trial":38,"RT":1047,"MT":680,"sideResp":1,"stimulus":[],"xmouse":[786,786,786,786,786,786,786,786,786,786,786,786,786,786,786,786,786,786,786,786,786,786,786,786,786,786,786,786,786,786,786,786,786,786,786,786,786,786,786,786,786,786,786,786,786,786,786,786,786,785,782,774,769,763,757,748,742,727,720,715,710,701,696,690,681,669,657,637,625,615,607,599,581,573,565,564,562,557,556,555,555,554,547,538,533,524,518],"ymouse":[549,549,549,549,549,549,549,549,549,549,549,549,549,549,549,549,549,549,549,549,549,549,549,549,549,549,549,549,549,549,549,549,549,549,549,549,549,549,549,549,549,549,549,549,549,549,549,549,549,535,520,477,462,444,429,411,395,366,355,348,342,326,317,308,293,277,264,237,222,208,199,188,166,160,154,153,152,146,146,145,145,143,133,120,114,104,94],"timestamp_mouse":[8,26,61,66,87,108,128,148,166,187,206,228,247,266,288,307,326,348,366,386,408,426,448,468,486,507,527,547,567,588,608,627,648,667,686,708,728,747,767,787,807,826,848,866,886,907,926,948,967,986,1007,1028,1047,1068,1088,1107,1127,1147,1167,1186,1208,1228,1246,1267,1287,1307,1327,1347,1367,1386,1408,1427,1447,1467,1486,1506,1527,1547,1567,1587,1607,1627,1647,1668,1687,1708,1727],"xSR":741.5,"ySR":469.95,"xT1":424.9,"yT1":0,"xT2":1058.1,"yT2":0,"toosoon":0,"cond_shown":"Congruent","ratio_trial":200,"L_num":14,"L_den":28,"R_num":6,"R_den":20,"correct_side":1,"subjID":"arielsantiagodiazmorales30","gender":"0","school":"6","age":"12"},{"start_time":1551800803349,"click_time":1551800805139,"finger_time":1551800804819,"fix_duration":788.4380454579039,"trial":39,"RT":1470,"MT":320,"sideResp":2,"stimulus":[],"xmouse":[796,796,796,796,796,796,796,796,796,796,796,796,796,796,796,796,796,796,796,796,796,796,796,796,796,796,796,796,796,796,796,796,796,796,796,796,796,796,796,796,796,796,796,796,796,796,796,796,796,796,796,796,796,796,796,796,796,796,796,796,796,796,796,796,796,796,796,796,796,796,796,797,799,802,814,833,846,859,874,935,970,987,999,1014,1056,1076,1096,1119,1129,1138],"ymouse":[502,502,502,502,502,502,502,502,502,502,502,502,502,502,502,502,502,502,502,502,502,502,502,502,502,502,502,502,502,502,502,502,502,502,502,502,502,502,502,502,502,502,502,502,502,502,502,502,502,502,502,502,502,502,502,502,502,502,502,502,502,502,502,502,502,502,502,502,502,502,502,497,487,467,425,391,369,345,324,288,276,263,247,230,188,166,146,122,110,90],"timestamp_mouse":[11,35,50,70,91,110,129,149,170,189,209,230,250,270,291,311,331,350,371,391,410,430,451,471,491,511,531,550,571,591,610,630,650,670,691,709,729,751,769,791,809,830,850,871,891,910,930,950,970,991,1010,1031,1049,1070,1089,1109,1130,1150,1170,1191,1211,1230,1251,1270,1290,1310,1330,1350,1371,1389,1410,1431,1451,1470,1490,1510,1530,1550,1569,1589,1611,1630,1651,1671,1690,1710,1729,1749,1769,1790],"xSR":741.5,"ySR":469.95,"xT1":424.9,"yT1":0,"xT2":1058.1,"yT2":0,"toosoon":0,"cond_shown":"Incongruent","ratio_trial":200,"L_num":6,"L_den":20,"R_num":3,"R_den":6,"correct_side":2,"subjID":"arielsantiagodiazmorales30","gender":"0","school":"6","age":"12"},{"start_time":1551800807669,"click_time":1551800809439,"finger_time":1551800809059,"fix_duration":1427.0548766369916,"trial":40,"RT":1390,"MT":380,"sideResp":1,"stimulus":[],"xmouse":[811,811,811,811,811,811,811,811,811,811,811,811,811,811,811,811,811,811,811,811,811,811,811,811,811,811,811,811,811,811,811,811,811,811,811,811,811,811,811,811,811,811,811,811,811,811,811,811,811,811,811,811,811,811,811,811,811,811,811,811,811,811,811,811,811,811,811,811,806,803,786,766,741,695,673,654,640,631,624,622,619,613,595,584,570,559,551,537,519],"ymouse":[490,490,490,490,490,490,490,490,490,490,490,490,490,490,490,490,490,490,490,490,490,490,490,490,490,490,490,490,490,490,490,490,490,490,490,490,490,490,490,490,490,490,490,490,490,490,490,490,490,490,490,490,490,490,490,490,490,490,490,490,490,490,490,490,490,490,490,490,474,462,409,351,295,194,154,127,111,102,95,94,89,82,59,47,34,25,21,16,14],"timestamp_mouse":[10,34,51,69,90,109,131,151,169,190,209,231,250,271,290,310,331,350,369,389,410,431,450,469,490,509,529,551,569,590,609,631,650,671,690,709,730,751,769,791,809,830,850,870,891,909,930,951,970,989,1010,1030,1050,1070,1090,1110,1130,1150,1171,1191,1209,1230,1251,1270,1290,1310,1329,1350,1370,1390,1410,1430,1451,1470,1490,1510,1531,1551,1570,1589,1609,1631,1651,1670,1690,1711,1729,1749,1769],"xSR":741.5,"ySR":469.95,"xT1":424.9,"yT1":0,"xT2":1058.1,"yT2":0,"toosoon":0,"cond_shown":"Congruent","ratio_trial":100,"L_num":8,"L_den":16,"R_num":2,"R_den":5,"correct_side":1,"subjID":"arielsantiagodiazmorales30","gender":"0","school":"6","age":"12"},{"start_time":1551800811430,"click_time":1551800812739,"finger_time":1551800812299,"fix_duration":809.4906800958227,"trial":41,"RT":869,"MT":440,"sideResp":2,"stimulus":[],"xmouse":[807,807,807,807,807,807,807,807,807,807,807,807,807,807,807,807,807,807,807,807,807,807,807,807,807,807,807,807,807,807,807,807,807,807,807,807,807,807,807,807,808,815,837,858,875,897,907,918,927,934,936,937,942,946,958,964,970,974,980,984,993,999,1005,1013,1043,1067],"ymouse":[546,546,546,546,546,546,546,546,546,546,546,546,546,546,546,546,546,546,546,546,546,546,546,546,546,546,546,546,546,546,546,546,546,546,546,546,546,546,546,546,546,542,523,492,467,425,403,382,363,336,330,326,322,320,315,312,308,299,281,260,216,182,159,130,48,8],"timestamp_mouse":[9,38,48,69,90,108,129,148,169,190,210,228,249,270,289,310,328,348,369,389,410,428,450,469,490,509,529,548,570,589,609,629,648,669,688,708,729,750,769,789,808,829,850,869,888,908,928,949,970,991,1010,1028,1048,1069,1090,1109,1129,1149,1168,1188,1208,1229,1249,1269,1290,1308],"xSR":741.5,"ySR":469.95,"xT1":424.9,"yT1":0,"xT2":1058.1,"yT2":0,"toosoon":0,"cond_shown":"Congruent","ratio_trial":200,"L_num":3,"L_den":10,"R_num":11,"R_den":22,"correct_side":2,"subjID":"arielsantiagodiazmorales30","gender":"0","school":"6","age":"12"},{"start_time":1551800816419,"click_time":1551800817859,"finger_time":1551800817579,"fix_duration":839.3070628159882,"trial":42,"RT":1160,"MT":280,"sideResp":2,"stimulus":[],"xmouse":[773,773,773,773,773,773,773,773,773,773,773,773,773,773,773,773,773,773,773,773,773,773,773,773,773,773,773,773,773,773,773,773,773,773,773,773,773,773,773,773,773,773,773,773,773,773,773,773,773,773,773,773,773,773,773,773,773,773,783,827,959,1002,1046,1065,1073,1075,1076,1076,1076,1079,1087,1095,1102],"ymouse":[475,475,475,475,475,475,475,475,475,475,475,475,475,475,475,475,475,475,475,475,475,475,475,475,475,475,475,475,475,475,475,475,475,475,475,475,475,475,475,475,475,475,475,475,475,475,475,475,475,475,475,475,475,475,475,475,475,473,458,385,234,194,158,142,134,132,131,131,131,128,117,106,96],"timestamp_mouse":[1,35,40,60,80,100,120,140,160,181,200,220,240,260,281,300,321,340,359,380,401,419,440,460,481,500,520,541,561,580,600,620,641,659,680,701,720,740,760,779,800,819,841,859,880,900,921,940,960,980,1001,1020,1040,1060,1081,1100,1120,1139,1160,1181,1201,1220,1240,1260,1281,1300,1320,1340,1359,1381,1401,1419,1440],"xSR":741.5,"ySR":469.95,"xT1":424.9,"yT1":0,"xT2":1058.1,"yT2":0