[{"start_time":1551801368094,"click_time":1551801370458,"finger_time":1551801370039,"fix_duration":250,"trial":0,"RT":1945,"MT":419,"sideResp":2,"stimulus":"img/500/equaldotanddens/R/14_Ratio_500_L_5_R_10.png","xmouse":[752,752,752,752,752,752,752,752,755,756,757,760,761,761,761,761,761,761,761,761,761,761,761,761,761,761,761,761,761,761,761,761,761,761,761,761,761,761,761,761,761,761,761,761,761,761,761,761,761,761,761,761,761,761,761,761,761,761,761,761,761,761,761,761,761,761,761,761,761,761,761,761,761,761,761,761,761,761,761,761,761,761,761,761,747,744,742,742,742,742,742,742,742,742,742,742,743,825,924,938,945,951,953,953,954,955,962,969,979,990,1002,1021,1087,1107,1118,1123,1126,1131,1133],"ymouse":[516,516,516,516,516,516,516,516,517,517,518,518,519,519,519,519,519,519,519,519,519,519,519,519,519,519,519,519,519,519,519,519,519,519,519,519,519,519,519,519,519,519,519,519,519,519,519,519,519,519,519,519,519,519,519,519,519,519,519,519,519,519,519,519,519,519,519,519,519,519,519,519,519,519,519,519,519,519,519,519,519,519,519,519,509,508,507,507,507,507,507,507,507,507,507,507,503,466,440,432,425,418,411,410,408,403,384,366,345,320,295,260,169,145,132,124,117,103,97],"timestamp_mouse":[9,24,45,65,85,105,123,144,164,184,204,225,243,264,284,304,323,344,363,385,405,423,445,464,483,503,525,545,564,585,603,625,645,664,684,704,724,744,765,785,803,825,844,863,884,904,923,944,965,983,1004,1024,1043,1065,1084,1103,1124,1143,1165,1183,1203,1224,1243,1265,1285,1304,1324,1345,1363,1383,1404,1424,1443,1465,1483,1504,1525,1545,1563,1585,1603,1625,1644,1664,1684,1705,1723,1745,1763,1785,1805,1823,1844,1865,1884,1903,1925,1945,1964,1983,2005,2024,2043,2063,2084,2104,2125,2145,2165,2185,2203,2224,2244,2265,2284,2305,2325,2344,2364],"xSR":741.5,"ySR":469.95,"xT1":424.9,"yT1":0,"xT2":1058.1,"yT2":0,"toosoon":0,"cond_shown":"equaldotanddens","ratio_trial":500,"smaller_num":"5","larger_num":"10","correct_side":2,"subjID":"arielsantiagodiazmorales30","gender":"0","age":"12","school":"6","test":{"fix_dur":[250,1500],"timestim":300,"targets_dim":[100,100],"targets_relative_coord":[0.3,0.7],"size_stim":[880,420],"start_dim":[100,100],"size_start":[300,300],"size_fix":60,"samplingrate":20,"img_types":["equaldotsize","equaldotanddens","randomdotsizeEA"],"ratios":[250,500,750,900],"rep_conds":9,"nTrials":120,"trials_to_rest":500,"Trials_order":[76,99,118,74,9,92,26,70,53,22,13,40,38,32,69,60,78,108,85,72,100,65,56,106,63,14,111,43,35,87,24,48,61,67,49,46,29,55,18,17,77,34,94,1,5,117,45,42,82,89,30,114,66,62,8,79,88,6,33,25,73,81,37,57,64,50,84,98,31,75,16,11,52,102,51,105,4,27,80,44,86,116,19,3,2,68,0,83,58,93,115,119,7,95,47,10,28,54,12,71,103,21,113,107,36,41,110,23,104,112,97,90,15,59,101,39,96,109,91,20],"cond_shown":["equaldotanddens","equaldotsize","equaldotanddens","randomdotsizeEA","equaldotsize","randomdotsizeEA","randomdotsizeEA","equaldotanddens","randomdotsizeEA","equaldotanddens","equaldotanddens","equaldotanddens","randomdotsizeEA","randomdotsizeEA","equaldotsize","equaldotsize","equaldotsize","equaldotsize","equaldotanddens","equaldotsize","equaldotanddens","randomdotsizeEA","randomdotsizeEA","equaldotanddens","equaldotsize","randomdotsizeEA","equaldotsize","equaldotanddens","randomdotsizeEA","equaldotsize","equaldotsize","equaldotsize","equaldotanddens","equaldotanddens","equaldotanddens","equaldotanddens","randomdotsizeEA","equaldotanddens","equaldotsize","randomdotsizeEA","randomdotsizeEA","equaldotanddens","equaldotanddens","equaldotanddens","randomdotsizeEA","equaldotsize","equaldotsize","equaldotsize","equaldotanddens","randomdotsizeEA","equaldotsize","equaldotsize","equaldotsize","randomdotsizeEA","randomdotsizeEA","equaldotanddens","equaldotanddens","equaldotsize","equaldotsize","equaldotanddens","equaldotanddens","equaldotsize","equaldotanddens","equaldotsize","equaldotanddens","randomdotsizeEA","equaldotsize","randomdotsizeEA","equaldotanddens","equaldotsize","equaldotanddens","randomdotsizeEA","equaldotanddens","equaldotsize","equaldotsize","equaldotsize","equaldotanddens","equaldotsize","randomdotsizeEA","randomdotsizeEA","randomdotsizeEA","randomdotsizeEA","equaldotanddens","equaldotsize","randomdotsizeEA","randomdotsizeEA","equaldotsize","randomdotsizeEA","equaldotanddens","equaldotsize","equaldotanddens","randomdotsizeEA","equaldotanddens","randomdotsizeEA","randomdotsizeEA","equaldotanddens","equaldotanddens","equaldotsize","equaldotsize","randomdotsizeEA","equaldotanddens","equaldotsize","randomdotsizeEA","randomdotsizeEA","equaldotsize","randomdotsizeEA","randomdotsizeEA","randomdotsizeEA","randomdotsizeEA","equaldotanddens","equaldotanddens","equaldotsize","equaldotsize","randomdotsizeEA","randomdotsizeEA","equaldotsize","equaldotsize","equaldotanddens","equaldotanddens","randomdotsizeEA"],"ratio_trial":[500,500,900,250,900,750,250,900,500,900,250,500,250,750,900,250,750,250,250,250,500,500,750,900,500,250,500,750,900,500,250,250,250,750,250,900,500,750,750,500,500,900,900,250,500,900,900,750,900,500,750,750,750,250,750,750,500,750,900,250,250,900,250,900,500,250,250,250,750,500,500,900,500,750,500,900,500,500,750,750,250,750,750,500,250,750,250,900,900,900,750,900,750,900,900,900,500,750,250,900,750,900,500,900,250,500,250,900,750,500,250,750,500,900,500,500,250,250,750,750],"smaller_num":["5","6","18","2","9","3","2","18","9","18","2","5","3","6","9","3","15","3","2","2","1","2","12","18","2","2","10","6","18","9","2","6","2","3","3","18","2","15","3","6","5","18","18","6","2","9","9","15","18","9","3","6","3","3","12","6","9","15","9","2","6","18","4","18","2","1","2","3","18","2","2","18","1","6","2","18","6","4","6","6","6","3","15","9","2","3","1","18","18","18","9","18","6","18","9","9","5","9","3","18","3","18","4","18","3","1","3","18","18","2","2","6","6","18","5","3","3","4","18","3"],"larger_num":["10","12","20","8","10","4","8","20","18","20","8","10","12","8","10","12","20","12","8","8","2","4","16","20","4","8","20","8","20","18","8","24","8","4","12","20","4","20","4","12","10","20","20","24","4","10","10","20","20","18","4","8","4","12","16","8","18","20","10","8","24","20","16","20","4","4","8","12","24","4","4","20","2","8","4","20","12","8","8","8","24","4","20","18","8","4","4","20","20","20","12","20","8","20","10","10","10","12","12","20","4","20","8","20","12","2","12","20","24","4","8","8","12","20","10","6","12","16","24","4"],"correct_side":[2,1,2,2,1,2,1,1,1,1,1,2,1,1,2,1,2,2,1,1,2,2,2,1,1,1,2,2,2,2,1,2,1,1,2,1,1,2,1,1,2,2,1,1,1,2,2,1,1,1,1,1,2,1,2,2,1,1,1,1,2,1,1,2,2,2,1,2,1,2,2,1,2,1,2,1,1,1,1,1,2,2,2,2,1,1,2,1,1,1,2,2,1,2,2,2,1,2,2,1,2,2,1,2,1,2,2,1,1,1,1,1,1,1,2,2,2,2,1,1],"img_shown":["img/500/equaldotanddens/R/14_Ratio_500_L_5_R_10.png","img/500/equaldotsize/L/13_Ratio_500_L_12_R_6.png","img/900/equaldotanddens/R/13_Ratio_900_L_18_R_20.png","img/250/randomdotsizeEA/R/13_Ratio_250_L_2_R_8.png","img/900/equaldotsize/L/1_Ratio_900_L_10_R_9.png","img/750/randomdotsizeEA/R/12_Ratio_750_L_3_R_4.png","img/250/randomdotsizeEA/L/3_Ratio_250_L_8_R_2.png","img/900/equaldotanddens/L/4_Ratio_900_L_20_R_18.png","img/500/randomdotsizeEA/L/4_Ratio_500_L_18_R_9.png","img/900/equaldotanddens/L/2_Ratio_900_L_20_R_18.png","img/250/equaldotanddens/L/3_Ratio_250_L_8_R_2.png","img/500/equaldotanddens/R/14_Ratio_500_L_5_R_10.png","img/250/randomdotsizeEA/L/14_Ratio_250_L_12_R_3.png","img/750/randomdotsizeEA/L/14_Ratio_750_L_8_R_6.png","img/900/equaldotsize/R/7_Ratio_900_L_9_R_10.png","img/250/equaldotsize/L/14_Ratio_250_L_12_R_3.png","img/750/equaldotsize/R/3_Ratio_750_L_15_R_20.png","img/250/equaldotsize/R/11_Ratio_250_L_3_R_12.png","img/250/equaldotanddens/L/1_Ratio_250_L_8_R_2.png","img/250/equaldotsize/L/7_Ratio_250_L_8_R_2.png","img/500/equaldotanddens/R/12_Ratio_500_L_1_R_2.png","img/500/randomdotsizeEA/R/9_Ratio_500_L_2_R_4.png","img/750/randomdotsizeEA/R/11_Ratio_750_L_12_R_16.png","img/900/equaldotanddens/L/4_Ratio_900_L_20_R_18.png","img/500/equaldotsize/L/10_Ratio_500_L_4_R_2.png","img/250/randomdotsizeEA/L/1_Ratio_250_L_8_R_2.png","img/500/equaldotsize/R/3_Ratio_500_L_10_R_20.png","img/750/equaldotanddens/R/2_Ratio_750_L_6_R_8.png","img/900/randomdotsizeEA/R/9_Ratio_900_L_18_R_20.png","img/500/equaldotsize/R/1_Ratio_500_L_9_R_18.png","img/250/equaldotsize/L/1_Ratio_250_L_8_R_2.png","img/250/equaldotsize/R/6_Ratio_250_L_6_R_24.png","img/250/equaldotanddens/L/7_Ratio_250_L_8_R_2.png","img/750/equaldotanddens/L/9_Ratio_750_L_4_R_3.png","img/250/equaldotanddens/R/11_Ratio_250_L_3_R_12.png","img/900/equaldotanddens/L/4_Ratio_900_L_20_R_18.png","img/500/randomdotsizeEA/L/10_Ratio_500_L_4_R_2.png","img/750/equaldotanddens/R/5_Ratio_750_L_15_R_20.png","img/750/equaldotsize/L/9_Ratio_750_L_4_R_3.png","img/500/randomdotsizeEA/L/13_Ratio_500_L_12_R_6.png","img/500/randomdotsizeEA/R/14_Ratio_500_L_5_R_10.png","img/900/equaldotanddens/R/11_Ratio_900_L_18_R_20.png","img/900/equaldotanddens/L/4_Ratio_900_L_20_R_18.png","img/250/equaldotanddens/L/5_Ratio_250_L_24_R_6.png","img/500/randomdotsizeEA/L/10_Ratio_500_L_4_R_2.png","img/900/equaldotsize/R/6_Ratio_900_L_9_R_10.png","img/900/equaldotsize/R/15_Ratio_900_L_9_R_10.png","img/750/equaldotsize/L/1_Ratio_750_L_20_R_15.png","img/900/equaldotanddens/L/8_Ratio_900_L_20_R_18.png","img/500/randomdotsizeEA/L/4_Ratio_500_L_18_R_9.png","img/750/equaldotsize/L/10_Ratio_750_L_4_R_3.png","img/750/equaldotsize/L/14_Ratio_750_L_8_R_6.png","img/750/equaldotsize/R/7_Ratio_750_L_3_R_4.png","img/250/randomdotsizeEA/L/15_Ratio_250_L_12_R_3.png","img/750/randomdotsizeEA/R/11_Ratio_750_L_12_R_16.png","img/750/equaldotanddens/R/2_Ratio_750_L_6_R_8.png","img/500/equaldotanddens/L/4_Ratio_500_L_18_R_9.png","img/750/equaldotsize/L/1_Ratio_750_L_20_R_15.png","img/900/equaldotsize/L/1_Ratio_900_L_10_R_9.png","img/250/equaldotanddens/L/1_Ratio_250_L_8_R_2.png","img/250/equaldotanddens/R/6_Ratio_250_L_6_R_24.png","img/900/equaldotsize/L/4_Ratio_900_L_20_R_18.png","img/250/equaldotanddens/L/2_Ratio_250_L_16_R_4.png","img/900/equaldotsize/R/14_Ratio_900_L_18_R_20.png","img/500/equaldotanddens/R/9_Ratio_500_L_2_R_4.png","img/250/randomdotsizeEA/R/8_Ratio_250_L_1_R_4.png","img/250/equaldotsize/L/3_Ratio_250_L_8_R_2.png","img/250/randomdotsizeEA/R/11_Ratio_250_L_3_R_12.png","img/750/equaldotanddens/L/6_Ratio_750_L_24_R_18.png","img/500/equaldotsize/R/9_Ratio_500_L_2_R_4.png","img/500/equaldotanddens/R/9_Ratio_500_L_2_R_4.png","img/900/randomdotsizeEA/L/2_Ratio_900_L_20_R_18.png","img/500/equaldotanddens/R/15_Ratio_500_L_1_R_2.png","img/750/equaldotsize/L/14_Ratio_750_L_8_R_6.png","img/500/equaldotsize/R/9_Ratio_500_L_2_R_4.png","img/900/equaldotsize/L/2_Ratio_900_L_20_R_18.png","img/500/equaldotanddens/L/13_Ratio_500_L_12_R_6.png","img/500/equaldotsize/L/8_Ratio_500_L_8_R_4.png","img/750/randomdotsizeEA/L/13_Ratio_750_L_8_R_6.png","img/750/randomdotsizeEA/L/14_Ratio_750_L_8_R_6.png","img/250/randomdotsizeEA/R/6_Ratio_250_L_6_R_24.png","img/750/randomdotsizeEA/R/12_Ratio_750_L_3_R_4.png","img/750/equaldotanddens/R/5_Ratio_750_L_15_R_20.png","img/500/equaldotsize/R/1_Ratio_500_L_9_R_18.png","img/250/randomdotsizeEA/L/3_Ratio_250_L_8_R_2.png","img/750/randomdotsizeEA/L/8_Ratio_750_L_4_R_3.png","img/250/equaldotsize/R/8_Ratio_250_L_1_R_4.png","img/900/randomdotsizeEA/L/4_Ratio_900_L_20_R_18.png","img/900/equaldotanddens/L/2_Ratio_900_L_20_R_18.png","img/900/equaldotsize/L/8_Ratio_900_L_20_R_18.png","img/750/equaldotanddens/R/15_Ratio_750_L_9_R_12.png","img/900/randomdotsizeEA/R/14_Ratio_900_L_18_R_20.png","img/750/equaldotanddens/L/13_Ratio_750_L_8_R_6.png","img/900/randomdotsizeEA/R/12_Ratio_900_L_18_R_20.png","img/900/randomdotsizeEA/R/3_Ratio_900_L_9_R_10.png","img/900/equaldotanddens/R/6_Ratio_900_L_9_R_10.png","img/500/equaldotanddens/L/7_Ratio_500_L_10_R_5.png","img/750/equaldotsize/R/15_Ratio_750_L_9_R_12.png","img/250/equaldotsize/R/11_Ratio_250_L_3_R_12.png","img/900/randomdotsizeEA/L/8_Ratio_900_L_20_R_18.png","img/750/equaldotanddens/R/7_Ratio_750_L_3_R_4.png","img/900/equaldotsize/R/11_Ratio_900_L_18_R_20.png","img/500/randomdotsizeEA/L/8_Ratio_500_L_8_R_4.png","img/900/randomdotsizeEA/R/11_Ratio_900_L_18_R_20.png","img/250/equaldotsize/L/14_Ratio_250_L_12_R_3.png","img/500/randomdotsizeEA/R/12_Ratio_500_L_1_R_2.png","img/250/randomdotsizeEA/R/9_Ratio_250_L_3_R_12.png","img/900/randomdotsizeEA/L/10_Ratio_900_L_20_R_18.png","img/750/randomdotsizeEA/L/6_Ratio_750_L_24_R_18.png","img/500/equaldotanddens/L/10_Ratio_500_L_4_R_2.png","img/250/equaldotanddens/L/1_Ratio_250_L_8_R_2.png","img/750/equaldotsize/L/13_Ratio_750_L_8_R_6.png","img/500/equaldotsize/L/13_Ratio_500_L_12_R_6.png","img/900/randomdotsizeEA/L/8_Ratio_900_L_20_R_18.png","img/500/randomdotsizeEA/R/14_Ratio_500_L_5_R_10.png","img/500/equaldotsize/R/2_Ratio_500_L_3_R_6.png","img/250/equaldotsize/R/4_Ratio_250_L_3_R_12.png","img/250/equaldotanddens/R/10_Ratio_250_L_4_R_16.png","img/750/equaldotanddens/L/6_Ratio_750_L_24_R_18.png","img/750/randomdotsizeEA/L/8_Ratio_750_L_4_R_3.png"],"Rat0":[["12_Ratio_0_L_9_R_0.png","13_Ratio_0_L_6_R_0.png","5_Ratio_0_L_2_R_0.png","6_Ratio_0_L_4_R_0.png","8_Ratio_0_L_6_R_0.png"],["1_Ratio_0_L_0_R_17.png","10_Ratio_0_L_0_R_22.png","11_Ratio_0_L_0_R_1.png","14_Ratio_0_L_0_R_24.png","15_Ratio_0_L_0_R_4.png","2_Ratio_0_L_0_R_5.png","3_Ratio_0_L_0_R_17.png","4_Ratio_0_L_0_R_7.png","7_Ratio_0_L_0_R_19.png","9_Ratio_0_L_0_R_15.png"]],"Rat250":[["1_Ratio_250_L_8_R_2.png","14_Ratio_250_L_12_R_3.png","15_Ratio_250_L_12_R_3.png","2_Ratio_250_L_16_R_4.png","3_Ratio_250_L_8_R_2.png","5_Ratio_250_L_24_R_6.png","7_Ratio_250_L_8_R_2.png"],["10_Ratio_250_L_4_R_16.png","11_Ratio_250_L_3_R_12.png","12_Ratio_250_L_5_R_20.png","13_Ratio_250_L_2_R_8.png","4_Ratio_250_L_3_R_12.png","6_Ratio_250_L_6_R_24.png","8_Ratio_250_L_1_R_4.png","9_Ratio_250_L_3_R_12.png"]],"Rat500":[["10_Ratio_500_L_4_R_2.png","11_Ratio_500_L_12_R_6.png","13_Ratio_500_L_12_R_6.png","4_Ratio_500_L_18_R_9.png","5_Ratio_500_L_4_R_2.png","7_Ratio_500_L_10_R_5.png","8_Ratio_500_L_8_R_4.png"],["1_Ratio_500_L_9_R_18.png","12_Ratio_500_L_1_R_2.png","14_Ratio_500_L_5_R_10.png","15_Ratio_500_L_1_R_2.png","2_Ratio_500_L_3_R_6.png","3_Ratio_500_L_10_R_20.png","6_Ratio_500_L_9_R_18.png","9_Ratio_500_L_2_R_4.png"]],"Rat750":[["1_Ratio_750_L_20_R_15.png","10_Ratio_750_L_4_R_3.png","13_Ratio_750_L_8_R_6.png","14_Ratio_750_L_8_R_6.png","6_Ratio_750_L_24_R_18.png","8_Ratio_750_L_4_R_3.png","9_Ratio_750_L_4_R_3.png"],["11_Ratio_750_L_12_R_16.png","12_Ratio_750_L_3_R_4.png","15_Ratio_750_L_9_R_12.png","2_Ratio_750_L_6_R_8.png","3_Ratio_750_L_15_R_20.png","4_Ratio_750_L_15_R_20.png","5_Ratio_750_L_15_R_20.png","7_Ratio_750_L_3_R_4.png"]],"Rat900":[["1_Ratio_900_L_10_R_9.png","10_Ratio_900_L_20_R_18.png","2_Ratio_900_L_20_R_18.png","4_Ratio_900_L_20_R_18.png","8_Ratio_900_L_20_R_18.png"],["11_Ratio_900_L_18_R_20.png","12_Ratio_900_L_18_R_20.png","13_Ratio_900_L_18_R_20.png","14_Ratio_900_L_18_R_20.png","15_Ratio_900_L_9_R_10.png","3_Ratio_900_L_9_R_10.png","5_Ratio_900_L_9_R_10.png","6_Ratio_900_L_9_R_10.png","7_Ratio_900_L_9_R_10.png","9_Ratio_900_L_18_R_20.png"]],"Rat1000":[["10_Ratio_1000_L_16_R_16.png","11_Ratio_1000_L_6_R_6.png","12_Ratio_1000_L_14_R_14.png","13_Ratio_1000_L_20_R_20.png","15_Ratio_1000_L_15_R_15.png","2_Ratio_1000_L_17_R_17.png","4_Ratio_1000_L_9_R_9.png","5_Ratio_1000_L_6_R_6.png","6_Ratio_1000_L_19_R_19.png","8_Ratio_1000_L_14_R_14.png","9_Ratio_1000_L_25_R_25.png"],["1_Ratio_1000_L_1_R_1.png","14_Ratio_1000_L_17_R_17.png","3_Ratio_1000_L_17_R_17.png","7_Ratio_1000_L_6_R_6.png"]]}},{"start_time":1551801372273,"click_time":1551801373678,"finger_time":1551801373219,"fix_duration":534.7552147797501,"trial":1,"RT":946,"MT":459,"sideResp":1,"stimulus":"img/500/equaldotsize/L/13_Ratio_500_L_12_R_6.png","xmouse":[826,826,826,826,826,826,826,826,826,826,826,826,826,826,826,826,826,826,826,826,826,826,826,826,826,826,826,826,826,826,826,826,826,826,826,826,826,826,826,826,826,826,826,826,826,826,818,777,722,700,656,638,625,622,621,621,620,618,610,601,595,589,581,564,549,539,531,528,527,526,524],"ymouse":[532,532,532,532,532,532,532,532,532,532,532,532,532,532,532,532,532,532,532,532,532,532,532,532,532,532,532,532,532,532,532,532,532,532,532,532,532,532,532,532,532,532,532,532,532,526,512,438,368,345,302,287,275,271,271,270,265,254,226,207,189,161,135,74,42,23,14,14,14,18,30],"timestamp_mouse":[10,28,45,66,84,104,125,145,165,185,205,224,244,264,285,304,325,345,366,385,405,425,444,466,485,505,525,545,566,586,604,625,646,664,686,704,726,746,764,784,806,824,846,864,884,905,926,946,965,984,1004,1024,1045,1065,1086,1105,1126,1145,1165,1185,1205,1225,1246,1265,1285,1304,1325,1344,1364,1385,1405],"xSR":741.5,"ySR":469.95,"xT1":424.9,"yT1":0,"xT2":1058.1,"yT2":0,"toosoon":0,"cond_shown":"equaldotsize","ratio_trial":500,"smaller_num":"6","larger_num":"12","correct_side":1,"subjID":"arielsantiagodiazmorales30","gender":"0","age":"12","school":"6"},{"start_time":1551801375865,"click_time":1551801377039,"finger_time":1551801376538,"fix_duration":1026.7817876944553,"trial":2,"RT":673,"MT":501,"sideResp":2,"stimulus":"img/900/equaldotanddens/R/13_Ratio_900_L_18_R_20.png","xmouse":[800,800,800,800,800,800,800,800,800,800,800,800,798,796,796,796,796,796,796,796,796,796,796,796,796,796,796,796,796,796,796,796,798,831,858,878,893,907,934,948,953,958,960,972,985,996,1014,1048,1048,1048,1048,1048,1048,1048,1048,1048,1048,1048,1078],"ymouse":[489,489,489,489,489,489,489,489,489,489,489,490,490,491,491,491,491,491,491,491,491,491,491,491,491,491,491,491,491,491,491,489,484,441,409,381,361,341,300,280,271,266,261,240,217,194,151,13,13,13,13,13,13,13,13,13,13,13,17],"timestamp_mouse":[16,33,52,73,93,113,133,154,172,193,213,234,254,273,293,312,333,352,372,394,413,433,453,473,493,514,534,554,574,593,614,633,654,673,693,713,732,754,773,793,812,833,853,873,893,912,934,953,973,992,1013,1033,1052,1072,1093,1113,1133,1153,1174],"xSR":741.5,"ySR":469.95,"xT1":424.9,"yT1":0,"xT2":1058.1,"yT2":0,"toosoon":0,"cond_shown":"equaldotanddens","ratio_trial":900,"smaller_num":"18","larger_num":"20","correct_side":2,"subjID":"arielsantiagodiazmorales30","gender":"0","age":"12","school":"6"},{"start_time":1551801381316,"click_time":1551801382858,"finger_time":1551801382099,"fix_duration":634.9235789408075,"trial":3,"RT":783,"MT":759,"sideResp":2,"stimulus":"img/250/randomdotsizeEA/R/13_Ratio_250_L_2_R_8.png","xmouse":[806,806,806,806,806,806,806,806,806,806,806,806,806,806,806,806,806,806,806,806,806,806,806,806,806,806,806,806,806,806,806,806,806,806,806,806,806,806,804,799,792,776,768,763,759,759,759,759,759,759,759,759,759,759,759,759,759,759,759,766,795,899,954,1003,1032,1049,1061,1062,1062,1060,1057,1057,1058,1060,1060,1063,1074,1084],"ymouse":[487,487,487,487,487,487,487,487,487,487,487,487,487,487,487,487,487,487,487,487,487,487,487,487,487,487,487,487,487,487,487,487,487,487,487,487,487,487,481,451,423,367,348,334,327,324,324,324,324,324,324,324,324,324,324,324,324,324,324,326,342,371,371,347,318,287,238,220,203,185,163,157,153,148,144,137,112,89],"timestamp_mouse":[8,29,42,62,82,102,121,143,161,183,203,221,243,263,281,301,322,342,362,381,402,422,442,463,483,501,523,543,562,583,603,623,641,663,682,703,721,742,763,783,801,822,842,862,881,901,922,942,961,981,1003,1022,1042,1061,1082,1103,1121,1142,1162,1181,1202,1222,1243,1263,1281,1303,1322,1343,1362,1382,1403,1421,1442,1463,1483,1503,1522,1542],"xSR":741.5,"ySR":469.95,"xT1":424.9,"yT1":0,"xT2":1058.1,"yT2":0,"toosoon":0,"cond_shown":"randomdotsizeEA","ratio_trial":250,"smaller_num":"2","larger_num":"8","correct_side":2,"subjID":"arielsantiagodiazmorales30","gender":"0","age":"12","school":"6"},{"start_time":1551801386435,"click_time":1551801387417,"finger_time":1551801387157,"fix_duration":356.70968795478177,"trial":4,"RT":722,"MT":260,"sideResp":1,"stimulus":"img/900/equaldotsize/L/1_Ratio_900_L_10_R_9.png","xmouse":[840,840,840,840,840,840,840,840,840,838,831,823,821,820,820,820,820,820,820,820,820,820,820,820,820,820,820,820,820,820,820,820,820,820,812,787,749,712,667,619,533,510,507,506,505,495,489,480,471,462],"ymouse":[510,510,510,510,510,510,510,510,510,511,514,516,516,516,516,516,516,516,516,516,516,516,516,516,516,516,516,516,516,516,516,516,516,516,510,477,438,400,353,299,227,210,207,207,205,180,157,132,110,93],"timestamp_mouse":[8,28,41,62,83,101,122,142,162,181,201,222,241,263,281,302,322,341,363,381,402,421,443,463,481,502,523,541,563,583,601,623,641,662,683,702,722,743,763,781,801,822,842,862,881,901,922,942,963,982],"xSR":741.5,"ySR":469.95,"xT1":424.9,"yT1":0,"xT2":1058.1,"yT2":0,"toosoon":0,"cond_shown":"equaldotsize","ratio_trial":900,"smaller_num":"9","larger_num":"10","correct_side":1,"subjID":"arielsantiagodiazmorales30","gender":"0","age":"12","school":"6"},{"start_time":1551801395414,"click_time":1551801396419,"finger_time":1551801395537,"fix_duration":1177.0866538090163,"trial":5,"RT":123,"MT":882,"sideResp":2,"stimulus":"img/750/randomdotsizeEA/R/12_Ratio_750_L_3_R_4.png","xmouse":[809,809,811,815,816,816,825,829,830,830,830,830,830,830,830,830,830,830,830,830,830,830,830,830,830,830,830,830,831,838,854,896,932,944,949,950,954,958,962,969,987,1071,1103,1105,1105,1105,1105,1108,1112,1117,1121],"ymouse":[491,491,491,489,488,485,458,442,431,427,424,424,424,424,424,424,424,424,424,424,424,424,424,424,424,424,424,424,422,415,400,348,294,273,261,255,244,239,235,228,215,166,148,147,147,147,147,144,137,118,88],"timestamp_mouse":[9,31,43,64,83,103,123,142,163,183,204,223,242,262,283,303,323,343,363,382,402,422,443,464,482,502,522,543,564,583,604,623,642,662,683,703,723,743,764,782,803,823,843,863,882,903,923,943,964,984,1004],"xSR":741.5,"ySR":469.95,"xT1":424.9,"yT1":0,"xT2":1058.1,"yT2":0,"toosoon":0,"cond_shown":"randomdotsizeEA","ratio_trial":750,"smaller_num":"3","larger_num":"4","correct_side":2,"subjID":"arielsantiagodiazmorales30","gender":"0","age":"12","school":"6"},{"start_time":1551801404777,"click_time":1551801406037,"finger_time":1551801405537,"fix_duration":1078.9861979367759,"trial":6,"RT":760,"MT":500,"sideResp":1,"stimulus":"img/250/randomdotsizeEA/L/3_Ratio_250_L_8_R_2.png","xmouse":[778,778,778,778,778,778,778,778,778,778,778,778,778,778,778,778,778,778,778,778,778,778,778,778,778,778,778,778,778,778,778,778,778,778,778,778,778,778,771,748,729,728,724,699,693,691,685,674,638,627,620,617,614,614,614,614,614,614,605,595,584,569,551,518],"ymouse":[490,490,490,490,490,490,490,490,490,490,490,490,490,490,490,490,490,490,490,490,490,490,490,490,490,490,490,490,490,490,490,490,490,490,490,490,490,487,461,407,361,356,356,353,351,348,336,312,252,232,217,208,196,194,194,194,193,193,174,153,132,111,93,78],"timestamp_mouse":[8,20,40,60,81,99,120,139,160,180,200,219,239,260,280,300,320,341,360,379,400,420,439,460,480,500,519,539,560,580,601,620,641,661,679,699,720,739,760,780,800,820,840,860,880,899,920,940,960,979,999,1020,1041,1059,1080,1099,1121,1139,1159,1180,1200,1221,1241,1260],"xSR":741.5,"ySR":469.95,"xT1":424.9,"yT1":0,"xT2":1058.1,"yT2":0,"toosoon":0,"cond_shown":"randomdotsizeEA","ratio_trial":250,"smaller_num":"2","larger_num":"8","correct_side":1,"subjID":"arielsantiagodiazmorales30","gender":"0","age":"12","school":"6"},{"start_time":1551801407892,"click_time":1551801409558,"finger_time":1551801409076,"fix_duration":493.06210470998866,"trial":7,"RT":1184,"MT":482,"sideResp":1,"stimulus":"img/900/equaldotanddens/L/4_Ratio_900_L_20_R_18.png","xmouse":[763,763,763,763,763,763,763,763,763,763,763,763,763,763,763,763,763,763,763,763,763,763,763,763,763,763,763,763,763,763,763,763,763,763,763,763,763,763,763,763,763,763,763,763,763,763,763,763,763,763,763,763,763,763,763,763,764,769,769,763,749,734,694,675,658,645,630,626,617,609,602,593,579,574,572,571,571,571,571,568,560,549,525,515],"ymouse":[545,545,545,545,545,545,545,545,545,545,545,545,545,545,545,545,545,545,545,545,545,545,545,545,545,545,545,545,545,545,545,545,545,545,545,545,545,545,545,545,545,545,545,545,545,545,545,545,545,545,545,545,545,545,545,545,544,525,490,393,339,306,244,218,200,186,171,167,152,137,118,95,57,48,44,43,43,43,43,43,43,42,42,42],"timestamp_mouse":[9,25,44,65,86,105,125,145,165,186,204,225,246,265,285,304,325,345,366,385,405,426,445,464,484,506,524,544,565,586,604,626,646,664,685,705,724,746,764,785,806,824,844,865,885,904,926,944,965,986,1006,1024,1045,1064,1085,1105,1125,1146,1165,1184,1205,1225,1245,1265,1285,1305,1326,1344,1365,1384,1405,1426,1445,1466,1485,1506,1526,1545,1565,1585,1605,1625,1645,1666],"xSR":741.5,"ySR":469.95,"xT1":424.9,"yT1":0,"xT2":1058.1,"yT2":0,"toosoon":0,"cond_shown":"equaldotanddens","ratio_trial":900,"smaller_num":"18","larger_num":"20","correct_side":1,"subjID":"arielsantiagodiazmorales30","gender":"0","age":"12","school":"6"},{"start_time":1551801410769,"click_time":1551801413036,"finger_time":1551801412357,"fix_duration":250,"trial":8,"RT":1588,"MT":679,"sideResp":1,"stimulus":"img/500/randomdotsizeEA/L/4_Ratio_500_L_18_R_9.png","xmouse":[762,762,762,762,762,762,762,762,762,762,762,762,762,762,762,762,762,762,762,762,762,762,762,762,762,762,762,762,762,762,762,762,762,762,762,762,762,762,762,762,762,762,762,762,762,762,762,762,762,762,762,762,762,762,762,762,762,762,762,762,762,762,762,762,762,762,762,762,762,762,762,762,762,762,762,762,762,762,762,608,608,608,608,608,608,608,616,638,694,716,735,746,749,750,750,750,750,753,753,753,753,753,753,754,754,753,738,717,642,605,566,531,503,471],"ymouse":[489,489,489,489,489,489,489,489,489,489,489,489,489,489,489,489,489,489,489,489,489,489,489,489,489,489,489,489,489,489,489,489,489,489,489,489,489,489,489,489,489,489,489,489,489,489,489,489,489,489,489,489,489,489,489,489,489,489,489,489,489,489,489,489,489,489,489,489,489,489,489,489,489,489,489,489,489,489,489,480,480,480,480,480,480,480,480,479,479,479,479,479,479,479,479,479,479,479,479,479,479,479,479,471,442,395,348,304,211,174,144,123,108,91],"timestamp_mouse":[9,29,48,69,87,108,127,148,167,188,207,228,247,267,288,309,328,348,369,387,409,427,449,468,487,508,527,549,569,587,609,628,649,668,687,709,729,747,769,787,808,828,849,867,888,907,927,949,967,988,1008,1027,1048,1067,1089,1109,1127,1149,1169,1188,1207,1229,1249,1267,1287,1309,1329,1347,1369,1388,1409,1428,1448,1469,1488,1509,1528,1549,1569,1588,1608,1627,1647,1667,1688,1708,1727,1747,1768,1788,1808,1827,1847,1867,1887,1908,1928,1949,1969,1988,2007,2029,2047,2068,2088,2107,2127,2149,2168,2189,2208,2228,2248,2267],"xSR":741.5,"ySR":469.95,"xT1":424.9,"yT1":0,"xT2":1058.1,"yT2":0,"toosoon":0,"cond_shown":"randomdotsizeEA","ratio_trial":500,"smaller_num":"9","larger_num":"18","correct_side":1,"subjID":"arielsantiagodiazmorales30","gender":"0","age":"12","school":"6"},{"start_time":1551801414952,"click_time":1551801416077,"finger_time":1551801415737,"fix_duration":1154.0289601497784,"trial":9,"RT":785,"MT":340,"sideResp":1,"stimulus":"img/900/equaldotanddens/L/2_Ratio_900_L_20_R_18.png","xmouse":[810,810,810,810,810,810,810,810,810,810,810,810,810,810,810,810,810,810,810,810,810,810,810,810,810,810,810,810,810,810,810,810,810,810,810,810,810,808,792,721,679,647,624,605,591,589,589,589,589,585,582,579,575,568,554,532,513],"ymouse":[487,487,487,487,487,487,487,487,487,487,487,487,487,487,487,487,487,487,487,487,487,487,487,487,487,487,487,487,487,487,487,487,487,487,487,487,487,486,473,415,367,311,257,209,155,140,138,138,138,125,118,111,105,97,87,80,75],"timestamp_mouse":[9,29,44,66,86,106,124,145,166,184,206,224,246,266,285,306,324,345,366,384,405,425,444,466,485,505,524,545,564,586,605,624,644,665,685,706,724,745,765,785,805,824,844,865,885,905,924,945,966,985,1005,1024,1045,1065,1085,1105,1125],"xSR":741.5,"ySR":469.95,"xT1":424.9,"yT1":0,"xT2":1058.1,"yT2":0,"toosoon":0,"cond_shown":"equaldotanddens","ratio_trial":900,"smaller_num":"18","larger_num":"20","correct_side":1,"subjID":"arielsantiagodiazmorales30","gender":"0","age":"12","school":"6"},{"start_time":1551801417561,"click_time":1551801418236,"finger_time":1551801418137,"fix_duration":643.2689240492538,"trial":10,"RT":576,"MT":99,"sideResp":1,"stimulus":"img/250/equaldotanddens/L/3_Ratio_250_L_8_R_2.png","xmouse":[780,780,780,780,780,780,780,780,780,780,780,780,780,780,780,780,780,780,780,780,780,780,780,780,780,780,779,772,743,715,674,631,537,498],"ymouse":[550,550,550,550,550,550,550,550,550,550,550,550,550,550,550,550,550,550,550,550,550,550,550,550,550,546,540,527,466,406,330,240,72,26],"timestamp_mouse":[17,36,56,77,96,116,136,157,175,196,217,236,255,276,296,315,337,355,376,396,415,437,457,475,496,515,536,556,576,595,616,637,657,675],"xSR":741.5,"ySR":469.95,"xT1":424.9,"yT1":0,"xT2":1058.1,"yT2":0,"toosoon":0,"cond_shown":"equaldotanddens","ratio_trial":250,"smaller_num":"2","larger_num":"8","correct_side":1,"subjID":"arielsantiagodiazmorales30","gender":"0","age":"12","school":"6"},{"start_time":1551801425944,"click_time":1551801427177,"finger_time":1551801426637,"fix_duration":966.0847662119811,"trial":11,"RT":693,"MT":540,"sideResp":2,"stimulus":"img/500/equaldotanddens/R/14_Ratio_500_L_5_R_10.png","xmouse":[786,786,786,786,786,786,786,786,786,786,786,786,786,787,794,798,800,800,800,800,800,800,800,800,800,800,800,800,800,800,800,800,802,806,822,833,840,850,866,926,963,1039,1159,1159,1159,1159,1159,1159,1159,1159,1159,1159,1159,1159,1159,1159,1159,1159,1159,1176,1163,1156],"ymouse":[490,490,490,490,490,490,490,490,490,490,490,490,490,489,489,489,488,488,488,488,488,488,488,488,488,488,488,488,488,488,488,488,483,475,443,407,377,338,295,212,167,99,12,12,12,12,12,12,12,12,12,12,12,12,12,12,12,12,12,0,5,8],"timestamp_mouse":[13,34,52,73,93,112,132,152,174,194,213,233,254,273,292,312,333,353,372,393,414,434,453,473,494,514,532,554,574,593,613,634,654,674,693,714,733,753,773,793,813,833,853,873,892,912,934,954,973,993,1012,1032,1052,1072,1093,1113,1134,1153,1173,1194,1213,1233],"xSR":741.5,"ySR":469.95,"xT1":424.9,"yT1":0,"xT2":1058.1,"yT2":0,"toosoon":0,"cond_shown":"equaldotanddens","ratio_trial":500,"smaller_num":"5","larger_num":"10","correct_side":2,"subjID":"arielsantiagodiazmorales30","gender":"0","age":"12","school":"6"},{"start_time":1551801429309,"click_time":1551801432397,"finger_time":1551801432078,"fix_duration":250,"trial":12,"RT":2769,"MT":319,"sideResp":1,"stimulus":"img/250/randomdotsizeEA/L/14_Ratio_250_L_12_R_3.png","xmouse":[820,819,819,819,819,819,819,819,819,819,819,819,819,819,819,819,819,819,819,819,819,819,819,819,819,819,819,819,819,819,819,819,819,819,819,819,819,819,819,819,819,819,819,819,819,819,819,819,819,819,819,819,819,819,819,819,819,819,819,819,819,819,819,819,819,819,819,819,819,819,819,819,819,819,819,819,819,819,819,819,819,819,819,819,819,819,819,819,819,819,819,819,819,819,819,819,819,819,819,819,819,819,819,819,819,819,819,819,819,819,819,819,819,819,819,819,819,819,819,819,819,819,819,819,819,819,819,819,819,819,819,819,819,819,819,819,819,819,664,664,664,664,664,664,664,664,662,656,646,632,612,551,524,500,486],"ymouse":[505,505,505,505,505,505,505,505,505,505,505,505,505,505,505,505,505,505,505,505,505,505,505,505,505,505,505,505,505,505,505,505,505,505,505,505,505,505,505,505,505,505,505,505,505,505,505,505,505,505,505,505,505,505,505,505,505,505,505,505,505,505,505,505,505,505,505,505,505,505,505,505,505,505,505,505,505,505,505,505,505,505,505,505,505,505,505,505,505,505,505,505,505,505,505,505,505,505,505,505,505,505,505,505,505,505,505,505,505,505,505,505,505,505,505,505,505,505,505,505,505,505,505,505,505,505,505,505,505,505,505,505,505,505,505,505,505,505,368,368,368,368,368,368,368,368,353,337,319,293,263,175,137,101,76],"timestamp_mouse":[8,36,47,68,89,107,129,148,169,187,207,229,247,267,288,308,327,347,368,388,409,429,447,468,487,508,527,549,567,587,608,628,649,668,689,708,728,748,768,789,807,829,848,869,889,907,928,947,969,987,1007,1028,1049,1067,1089,1109,1127,1147,1169,1188,1207,1229,1248,1268,1289,1307,1328,1348,1368,1387,1408,1428,1448,1468,1489,1508,1528,1548,1569,1588,1608,1628,1647,1668,1687,1707,1728,1748,1768,1788,1809,1829,1849,1867,1889,1908,1928,1947,1969,1988,2009,2027,2048,2067,2089,2107,2128,2148,2168,2189,2207,2228,2248,2269,2288,2307,2328,2349,2368,2389,2408,2428,2449,2468,2488,2507,2528,2548,2567,2589,2607,2627,2648,2669,2688,2707,2727,2748,2769,2788,2807,2827,2848,2868,2888,2907,2927,2949,2967,2987,3009,3028,3049,3068,3088],"xSR":741.5,"ySR":469.95,"xT1":424.9,"yT1":0,"xT2":1058.1,"yT2":0,"toosoon":0,"cond_shown":"randomdotsizeEA","ratio_trial":250,"smaller_num":"3","larger_num":"12","correct_side":1,"subjID":"arielsantiagodiazmorales30","gender":"0","age":"12","school":"6"},{"start_time":1551801434299,"click_time":1551801435597,"finger_time":1551801434737,"fix_duration":1021.235200257064,"trial":13,"RT":438,"MT":860,"sideResp":1,"stimulus":"img/750/randomdotsizeEA/L/14_Ratio_750_L_8_R_6.png","xmouse":[774,774,774,774,775,776,778,779,779,779,779,779,779,779,779,779,779,779,780,780,779,775,775,775,775,775,775,775,775,775,775,775,775,775,775,775,775,787,796,805,811,807,795,781,764,744,705,676,661,651,647,641,636,629,620,611,601,588,580,575,568,545,531,516,501],"ymouse":[484,484,484,484,484,484,484,484,484,484,484,484,484,484,484,484,484,484,484,479,473,461,456,454,453,453,453,453,453,453,453,453,453,453,453,453,447,427,408,382,348,301,282,268,257,248,243,243,243,242,240,233,224,209,194,178,160,139,129,125,121,111,107,103,99],"timestamp_mouse":[17,37,59,78,99,118,137,158,179,199,217,239,257,279,297,317,337,359,379,398,418,438,458,478,498,518,538,557,578,599,618,637,657,679,698,718,737,757,778,798,819,838,858,877,897,919,939,959,977,997,1018,1038,1059,1078,1099,1118,1139,1157,1178,1197,1217,1237,1258,1278,1298],"xSR":741.5,"ySR":469.95,"xT1":424.9,"yT1":0,"xT2":1058.1,"yT2":0,"toosoon":0,"cond_shown":"randomdotsizeEA","ratio_trial":750,"smaller_num":"6","larger_num":"8","correct_side":1,"subjID":"arielsantiagodiazmorales30","gender":"0","age":"12","school":"6"},{"start_time":1551801438447,"click_time":1551801439457,"finger_time":1551801439117,"fix_duration":250,"trial":14,"RT":670,"MT":340,"sideResp":2,"stimulus":"img/900/equaldotsize/R/7_Ratio_900_L_9_R_10.png","xmouse":[816,816,816,816,816,816,816,816,816,816,816,816,816,816,816,817,817,818,818,818,818,818,818,818,818,818,818,818,818,818,818,823,828,843,870,884,899,917,935,973,1004,1018,1026,1031,1035,1037,1040,1045,1051,1058,1060],"ymouse":[527,527,527,527,527,527,527,527,527,527,527,527,527,527,527,523,521,517,515,512,512,512,512,512,512,512,512,512,512,512,512,503,491,461,394,364,334,291,250,150,101,80,66,58,53,51,49,46,42,38,38],"timestamp_mouse":[9,32,50,70,91,110,130,149,170,189,209,231,249,270,289,309,329,350,369,390,410,431,449,470,489,511,529,550,569,590,609,629,650,670,690,711,729,749,771,790,809,831,851,870,891,911,930,951,971,990,1010],"xSR":741.5,"ySR":469.95,"xT1":424.9,"yT1":0,"xT2":1058.1,"yT2":0,"toosoon":0,"cond_shown":"equaldotsize","ratio_trial":900,"smaller_num":"9","larger_num":"10","correct_side":2,"subjID":"arielsantiagodiazmorales30","gender":"0","age":"12","school":"6"},{"start_time":1551801445076,"click_time":1551801446236,"finger_time":1551801445637,"fix_duration":1296.7289826642746,"trial":15,"RT":561,"MT":599,"sideResp":1,"stimulus":"img/250/equaldotsize/L/14_Ratio_250_L_12_R_3.png","xmouse":[764,764,765,775,777,780,781,781,781,781,781,781,781,781,781,781,781,781,785,787,789,789,790,790,790,790,791,791,781,741,689,625,561,470,449,433,421,401,396,389,387,387,387,387,387,387,387,387,387,387,387,387,387,387,387,387,395,410,429],"ymouse":[502,502,503,512,514,515,515,515,515,515,515,515,515,515,515,515,515,515,513,507,505,503,503,503,503,501,500,494,460,409,359,308,255,182,160,140,121,88,81,76,72,72,72,72,72,72,72,72,72,72,72,72,72,72,72,70,64,58,50],"timestamp_mouse":[9,20,40,61,81,102,120,142,160,181,201,221,241,260,282,301,321,342,361,382,401,420,441,462,480,501,520,541,561,581,600,620,642,661,681,701,721,742,760,781,801,820,842,860,881,902,920,940,961,981,1000,1020,1041,1061,1081,1100,1121,1141,1160],"xSR":741.5,"ySR":469.95,"xT1":424.9,"yT1":0,"xT2":1058.1,"yT2":0,"toosoon":0,"cond_shown":"equaldotsize","ratio_trial":250,"smaller_num":"3","larger_num":"12","correct_side":1,"subjID":"arielsantiagodiazmorales30","gender":"0","age":"12","school":"6"},{"start_time":1551801447441,"click_time":1551801449117,"finger_time":1551801448377,"fix_duration":362.61144522075284,"trial":16,"RT":936,"MT":740,"sideResp":2,"stimulus":"img/750/equaldotsize/R/3_Ratio_750_L_15_R_20.png","xmouse":[772,772,772,772,772,772,772,772,772,772,772,772,772,772,772,772,772,772,772,772,772,772,772,772,772,772,772,772,772,772,772,772,772,772,772,772,772,772,772,772,777,781,785,789,796,801,808,817,826,844,852,856,862,866,879,887,896,907,928,955,976,989,999,1008,1022,1028,1031,1034,1037,1038,1039,1039,1039,1039,1039,1039,1041,1042,1044,1047,1050,1053,1057,1059],"ymouse":[503,503,503,503,503,503,503,503,503,503,503,503,503,503,503,503,503,503,503,503,503,503,503,503,503,503,503,503,503,503,503,503,503,503,503,503,503,503,503,503,498,493,488,484,478,473,466,455,444,417,398,385,369,346,305,288,271,250,214,164,130,112,99,89,74,67,62,58,54,53,51,51,51,51,51,51,51,51,51,50,50,50,50,50],"timestamp_mouse":[16,38,55,75,97,116,137,156,176,196,216,237,255,276,297,316,335,355,376,395,415,437,455,477,495,515,537,555,577,597,616,637,655,675,696,715,738,756,777,796,816,835,856,875,895,916,936,956,975,996,1015,1036,1057,1076,1096,1116,1135,1156,1176,1195,1216,1236,1255,1277,1296,1316,1336,1357,1377,1395,1415,1435,1455,1477,1497,1517,1536,1556,1576,1596,1616,1636,1657,1676],"xSR":741.5,"ySR":469.95,"xT1":424.9,"yT1":0,"xT2":1058.1,"yT2":0,"toosoon":0,"cond_shown":"equaldotsize","ratio_trial":750,"smaller_num":"15","larger_num":"20","correct_side":2,"subjID":"arielsantiagodiazmorales30","gender":"0","age":"12","school":"6"},{"start_time":1551801452089,"click_time":1551801453458,"finger_time":1551801452816,"fix_duration":250,"trial":17,"RT":727,"MT":642,"sideResp":2,"stimulus":"img/250/equaldotsize/R/11_Ratio_250_L_3_R_12.png","xmouse":[794,794,794,794,794,794,794,794,794,794,794,794,794,794,794,794,794,794,794,794,794,794,794,794,794,794,794,794,794,794,794,794,794,794,794,802,808,851,861,875,893,913,937,951,961,969,977,987,989,991,993,996,1003,1007,1008,1011,1013,1019,1021,1022,1024,1028,1037,1040,1042,1044,1046,1053,1060],"ymouse":[519,519,519,519,519,519,519,519,519,519,519,519,519,519,519,519,519,519,519,519,519,519,519,519,519,519,519,519,519,519,519,519,519,519,519,493,464,332,306,282,253,221,191,176,164,153,143,135,134,133,132,131,126,124,122,119,117,109,107,105,103,101,98,98,97,97,97,97,95],"timestamp_mouse":[9,28,48,67,87,109,127,148,167,188,208,228,247,268,289,309,329,349,368,388,407,428,447,469,489,508,529,547,568,587,607,627,648,667,689,709,727,747,767,787,807,829,848,869,887,908,929,947,967,987,1009,1028,1048,1068,1089,1107,1128,1147,1168,1188,1208,1227,1247,1269,1288,1308,1328,1348,1369],"xSR":741.5,"ySR":469.95,"xT1":424.9,"yT1":0,"xT2":1058.1,"yT2":0,"toosoon":0,"cond_shown":"equaldotsize","ratio_trial":250,"smaller_num":"3","larger_num":"12","correct_side":2,"subjID":"arielsantiagodiazmorales30","gender":"0","age":"12","school":"6"},{"start_time":1551801455126,"click_time":1551801456178,"finger_time":1551801455837,"fix_duration":487.84544565215003,"trial":18,"RT":711,"MT":341,"sideResp":1,"stimulus":"img/250/equaldotanddens/L/1_Ratio_250_L_8_R_2.png","xmouse":[819,819,819,819,819,819,819,819,819,819,819,819,819,819,819,819,819,819,819,819,819,819,819,819,819,819,819,819,819,819,819,819,819,819,815,745,642,575,556,556,556,556,556,556,556,556,556,556,556,556,556,556,508],"ymouse":[550,550,550,550,550,550,550,550,550,550,550,550,550,550,550,550,550,550,550,550,550,550,550,550,550,550,550,550,550,550,550,550,550,547,528,332,132,37,7,7,7,7,7,7,7,7,7,7,7,7,7,7,13],"timestamp_mouse":[16,35,51,71,91,110,132,152,170,190,210,232,250,270,291,311,331,351,372,390,411,432,451,470,492,510,532,550,570,591,610,632,652,671,690,711,731,750,770,791,810,831,852,871,892,912,931,951,970,991,1010,1030,1052],"xSR":741.5,"ySR":469.95,"xT1":424.9,"yT1":0,"xT2":1058.1,"yT2":0,"toosoon":0,"cond_shown":"equaldotanddens","ratio_trial":250,"smaller_num":"2","larger_num":"8","correct_side":1,"subjID":"arielsantiagodiazmorales30","gender":"0","age":"12","school":"6"},{"start_time":1551801460381,"click_time":1551801465137,"finger_time":1551801461456,"fix_duration":922.4816999400625,"trial":19,"RT":1075,"MT":3681,"sideResp":1,"stimulus":"img/250/equaldotsize/L/7_Ratio_250_L_8_R_2.png","xmouse":[833,833,833,833,833,833,833,833,833,833,833,833,833,833,833,833,833,833,833,833,833,833,833,833,833,833,833,833,833,833,833,833,833,833,833,833,833,833,830,822,804,783,761,758,757,757,757,757,757,757,757,757,757,755,747,737,723,699,684,668,658,655,652,650,650,650,650,650,650,650,649,644,624,605,596,589,583,580,580,580,580,580,580,580,580,580,580,580,580,580,580,580,580,580,580,580,580,580,580,580,580,580,580,580,580,580,580,580,580,581,592,612,664,694,705,711,718,738,752,762,762,762,762,762,762,762,762,762,762,762,762,762,762,762,762,827,832,858,869,873,873,873,874,874,876,877,880,882,883,885,887,888,892,894,897,900,903,910,913,916,918,920,921,922,922,924,926,934,935,936,937,937,944,959,971,985,995,997,997,997,997,997,997,997,997,997,997,997,997,997,997,997,997,997,997,998,1015,1024,1031,1034,1034,1034,1034,1034,1034,1034,1034,1034,1034,1033,1020,928,860,736,652,592,565,534,524,510,494,475,426,389,369,351,322,311,307,305,305,305,305,305,320,342,374,429],"ymouse":[544,544,544,544,544,544,544,544,544,544,544,544,544,544,544,544,544,544,544,544,544,544,544,544,544,544,544,544,544,544,544,544,544,544,544,544,544,544,541,534,515,494,477,475,474,474,474,474,474,474,474,474,474,468,447,422,392,336,305,276,259,253,244,240,239,239,239,239,239,237,229,205,123,67,41,21,7,1,1,1,1,1,1,1,1,1,1,1,1,1,1,1,1,1,1,1,1,1,1,1,1,1,1,1,1,1,1,1,1,1,3,9,24,31,32,32,32,18,8,3,3,3,3,3,3,3,3,3,3,3,3,3,3,3,3,0,7,26,33,35,35,35,35,35,35,35,35,35,35,35,35,36,36,36,36,36,36,34,32,32,31,30,29,29,29,29,28,28,27,27,27,27,27,27,30,33,37,38,38,38,38,38,38,38,38,38,38,38,38,38,38,38,38,38,38,38,38,37,35,35,35,35,35,35,35,35,35,35,35,35,39,52,64,81,94,102,109,120,125,130,134,137,137,133,127,122,110,105,103,103,103,103,103,99,91,82,74,57],"timestamp_mouse":[16,36,56,77,96,117,135,156,177,195,217,235,255,277,295,316,336,357,375,395,417,436,456,475,497,516,535,557,576,595,616,636,655,676,696,715,735,756,776,795,817,835,857,876,896,916,935,956,975,995,1016,1037,1056,1075,1096,1117,1136,1156,1176,1197,1216,1236,1255,1276,1297,1317,1336,1356,1377,1397,1416,1436,1456,1477,1496,1516,1536,1556,1576,1595,1616,1637,1656,1675,1696,1716,1736,1755,1775,1795,1816,1837,1856,1876,1897,1915,1936,1956,1976,1995,2016,2037,2055,2077,2096,2116,2136,2155,2175,2196,2216,2236,2255,2276,2296,2315,2336,2355,2376,2395,2415,2436,2455,2476,2495,2516,2536,2557,2575,2595,2617,2636,2656,2676,2697,2717,2737,2755,2776,2796,2817,2837,2857,2879,2896,2916,2937,2956,2977,2995,3015,3037,3055,3076,3096,3115,3137,3157,3177,3195,3215,3236,3256,3275,3296,3317,3335,3356,3375,3395,3416,3437,3457,3476,3497,3516,3535,3555,3576,3595,3615,3636,3656,3675,3696,3716,3736,3755,3775,3796,3816,3837,3856,3876,3897,3916,3937,3955,3975,3995,4016,4036,4056,4077,4095,4116,4135,4156,4176,4195,4217,4237,4255,4275,4296,4316,4336,4356,4375,4395,4415,4437,4457,4476,4497,4517,4536,4555,4577,4596,4615,4635,4656,4676,4697,4716,4736,4756],"xSR":741.5,"ySR":469.95,"xT1":424.9,"yT1":0,"xT2":1058.1,"yT2":0,"toosoon":0,"cond_shown":"equaldotsize","ratio_trial":250,"smaller_num":"2","larger_num":"8","correct_side":1,"subjID":"arielsantiagodiazmorales30","gender":"0","age":"12","school":"6"},{"start_time":1551801468004,"click_time":1551801470217,"finger_time":1551801469017,"fix_duration":606.1719962397775,"trial":20,"RT":1013,"MT":1200,"sideResp":2,"stimulus":"img/500/equaldotanddens/R/12_Ratio_500_L_1_R_2.png","xmouse":[781,781,781,781,781,781,781,781,781,781,781,781,781,781,781,781,781,781,781,781,781,781,781,781,781,781,781,781,781,781,781,781,781,781,781,781,781,781,781,781,781,781,781,781,781,781,781,786,789,792,792,789,776,726,693,674,656,650,646,643,641,636,634,632,632,632,632,632,632,632,632,632,632,632,630,627,623,622,621,620,620,619,616,616,614,614,610,607,604,599,597,594,594,594,594,594,594,594,595,601,625,731,823,870,907,938,989,1012,1030,1052,1071],"ymouse":[537,537,537,537,537,537,537,537,537,537,537,537,537,537,537,537,537,537,537,537,537,537,537,537,537,537,537,537,537,537,537,537,537,537,537,537,537,537,537,537,537,537,537,537,537,537,534,516,496,471,445,394,333,218,180,160,134,124,118,114,112,105,101,99,99,99,99,99,99,99,99,99,99,99,92,84,75,72,69,68,67,66,65,65,65,65,65,65,65,65,65,66,66,66,66,66,66,66,66,64,61,47,34,27,24,24,24,24,24,24,25],"timestamp_mouse":[13,33,52,72,93,114,132,152,174,193,212,232,254,273,294,313,333,352,374,393,413,433,453,472,493,514,532,554,572,594,612,633,652,674,693,712,732,754,774,792,812,832,852,873,892,914,933,953,972,994,1013,1033,1052,1072,1094,1113,1134,1154,1172,1193,1214,1233,1252,1272,1293,1313,1333,1352,1372,1393,1414,1432,1452,1473,1494,1514,1533,1554,1572,1592,1613,1633,1653,1672,1693,1714,1732,1753,1773,1792,1813,1833,1853,1873,1892,1912,1932,1952,1973,1994,2013,2033,2053,2074,2094,2113,2133,2154,2172,2194,2213],"xSR":741.5,"ySR":469.95,"xT1":424.9,"yT1":0,"xT2":1058.1,"yT2":0,"toosoon":0,"cond_shown":"equaldotanddens","ratio_trial":500,"smaller_num":"1","larger_num":"2","correct_side":2,"subjID":"arielsantiagodiazmorales30","gender":"0","age":"12","school":"6"},{"start_time":1551801474308,"click_time":1551801478817,"finger_time":1551801475336,"fix_duration":1330.4960250626411,"trial":21,"RT":1028,"MT":3481,"sideResp":2,"stimulus":"img/500/randomdotsizeEA/R/9_Ratio_500_L_2_R_4.png","xmouse":[782,782,782,782,782,782,782,782,782,782,782,782,782,782,782,782,782,782,782,782,782,782,782,782,782,782,782,782,782,782,782,782,782,782,782,782,782,782,782,782,782,782,782,782,782,782,782,782,797,809,823,850,874,909,938,960,981,986,988,990,991,991,991,991,991,991,991,991,991,992,994,999,1002,1005,1008,1011,1018,1029,1038,1047,1054,1056,1056,1056,1056,1056,1056,1056,1057,1058,1059,1061,1061,1061,1062,1062,1063,1063,1064,1065,1066,1070,1071,1071,1071,1071,1072,1072,1072,1073,1073,1074,1074,1074,1074,1074,1074,1075,1075,1075,1075,1075,1075,1075,1075,1075,1074,1074,1074,1074,1074,1073,1073,1073,1073,1072,1072,1072,1072,1072,1072,1072,1072,1072,1072,1072,1072,1072,1072,1072,1072,1072,1072,1072,1072,1072,1072,1072,1071,1063,1050,1016,1001,985,970,958,938,929,927,925,922,913,908,898,887,874,848,844,844,844,844,844,844,842,830,813,792,785,780,778,775,765,756,752,747,747,746,746,745,744,740,733,728,726,726,726,732,749,776,820,880,973,1000,1016,1022,1027,1035,1039,1039,1039,1039,1041,1044,1051,1057,1064],"ymouse":[524,524,524,524,524,524,524,524,524,524,524,524,524,524,524,524,524,524,524,524,524,524,524,524,524,524,524,524,524,524,524,524,524,524,524,524,524,524,524,524,524,524,524,524,524,524,524,520,504,491,473,438,410,363,328,299,256,239,230,221,215,210,209,209,209,209,209,209,208,208,208,205,202,198,194,190,178,166,161,157,154,153,153,153,153,153,153,153,152,151,149,144,143,143,142,140,139,139,138,137,136,131,130,129,129,129,128,128,127,126,125,124,123,122,121,121,121,120,120,120,118,117,117,115,114,114,113,113,113,113,113,112,112,112,112,112,112,112,112,112,112,112,112,112,112,112,112,112,112,112,112,112,112,112,112,112,112,112,112,115,123,138,146,154,162,169,181,185,185,187,188,190,191,193,193,193,193,193,193,193,193,193,193,193,184,172,157,153,151,150,149,146,143,142,142,142,142,142,140,140,138,133,129,127,127,126,119,116,115,115,115,110,106,102,99,94,83,78,78,78,78,75,75,74,72,71],"timestamp_mouse":[8,29,50,68,88,108,129,149,169,188,209,228,248,268,289,310,329,349,368,389,410,428,448,468,489,508,528,549,568,589,609,628,648,668,688,709,730,750,768,789,810,828,849,868,890,908,928,948,970,989,1008,1028,1048,1069,1089,1110,1129,1148,1169,1189,1209,1229,1250,1269,1288,1309,1329,1348,1368,1390,1410,1429,1448,1468,1489,1508,1529,1549,1568,1588,1609,1629,1649,1668,1689,1709,1728,1748,1769,1789,1809,1828,1849,1869,1890,1909,1930,1949,1969,1988,2009,2028,2049,2070,2089,2109,2129,2149,2169,2188,2208,2229,2250,2270,2289,2309,2329,2349,2369,2390,2409,2429,2450,2470,2490,2509,2529,2549,2569,2589,2609,2628,2648,2669,2689,2709,2728,2748,2769,2790,2810,2829,2849,2869,2890,2908,2929,2948,2969,2989,3009,3029,3049,3069,3088,3109,3128,3149,3170,3189,3209,3230,3249,3268,3288,3309,3328,3349,3369,3389,3409,3429,3448,3469,3489,3509,3528,3548,3568,3589,3610,3628,3649,3668,3689,3708,3728,3749,3769,3790,3809,3830,3850,3870,3889,3908,3929,3949,3970,3990,4009,4029,4050,4069,4089,4109,4128,4150,4169,4190,4208,4229,4250,4269,4289,4308,4328,4348,4369,4389,4408,4428,4450,4468,4489,4509],"xSR":741.5,"ySR":469.95,"xT1":424.9,"yT1":0,"xT2":1058.1,"yT2":0,"toosoon":0,"cond_shown":"randomdotsizeEA","ratio_trial":500,"smaller_num":"2","larger_num":"4","correct_side":2,"subjID":"arielsantiagodiazmorales30","gender":"0","age":"12","school":"6"},{"start_time":1551801483011,"click_time":1551801483556,"finger_time":1551801483337,"fix_duration":932.8618852273635,"trial":22,"RT":326,"MT":219,"sideResp":2,"stimulus":"img/750/randomdotsizeEA/R/11_Ratio_750_L_12_R_16.png","xmouse":[785,785,785,785,785,785,785,785,785,785,785,785,785,785,785,792,866,919,980,1036,1036,1036,1036,1036,1036,1036,1036,1068],"ymouse":[504,504,504,504,504,504,504,504,504,504,504,504,504,504,501,486,332,221,104,8,8,8,8,8,8,8,8,22],"timestamp_mouse":[9,35,46,67,86,105,127,145,165,187,206,227,246,266,286,307,326,347,365,385,405,426,447,466,485,507,526,545],"xSR":741.5,"ySR":469.95,"xT1":424.9,"yT1":0,"xT2":1058.1,"yT2":0,"toosoon":0,"cond_shown":"randomdotsizeEA","ratio_trial":750,"smaller_num":"12","larger_num":"16","correct_side":2,"subjID":"arielsantiagodiazmorales30","gender":"0","age":"12","school":"6"},{"start_time":1551801487234,"click_time":1551801491157,"finger_time":1551801488116,"fix_duration":1095.3964302293812,"trial":23,"RT":882,"MT":3041,"sideResp":1,"stimulus":"img/900/equaldotanddens/L/4_Ratio_900_L_20_R_18.png","xmouse":[805,805,805,805,805,805,805,805,805,805,805,805,805,805,805,805,805,805,805,805,805,805,805,805,805,805,805,805,805,805,805,805,805,805,805,805,805,805,805,805,805,805,804,797,758,552,405,266,156,105,95,95,95,95,95,95,95,95,95,95,95,95,95,95,95,95,95,95,95,95,95,95,95,95,95,95,95,95,95,95,95,95,95,95,95,95,95,95,95,95,96,237,415,633,822,1046,1062,1063,1063,1063,1062,1062,1062,1062,1062,1062,1062,1062,1062,1062,1062,1062,1062,1062,1062,1062,1062,1062,1062,1062,1062,1062,1062,1062,1062,1062,1062,1062,1062,1062,1062,1062,1062,1004,704,704,704,704,704,704,704,704,704,704,704,704,704,704,704,704,704,704,704,704,704,704,704,704,704,310,654,775,845,860,860,861,861,852,793,793,793,793,793,793,793,793,793,793,793,0,27,103,179,278,389,531,546,546,546,546,546,546,546,546,546,457,462],"ymouse":[544,544,544,544,544,544,544,544,544,544,544,544,544,544,544,544,544,544,544,544,544,544,544,544,544,544,544,544,544,544,544,544,544,544,544,544,544,544,544,544,544,544,537,517,455,287,206,132,90,74,70,70,70,70,70,70,70,70,70,70,70,70,70,70,70,70,70,70,70,70,70,70,70,70,70,70,70,70,70,70,70,70,70,70,70,70,70,70,70,70,70,96,117,136,136,128,122,120,117,115,115,115,115,115,115,115,115,115,115,115,115,115,115,115,115,115,115,115,115,115,115,115,115,115,115,115,115,115,115,115,115,115,115,103,12,12,12,12,12,12,12,12,12,12,12,12,12,12,12,12,12,12,12,12,12,12,12,12,12,7,69,77,77,75,75,73,66,51,16,16,16,16,16,16,16,16,16,16,16,41,110,136,136,127,95,29,16,6,2,2,2,2,2,2,2,0,23],"timestamp_mouse":[22,34,43,62,82,103,123,144,163,182,204,223,243,263,282,302,324,343,363,382,404,423,443,462,482,503,523,542,563,582,602,622,642,664,682,703,723,742,764,783,802,823,842,863,882,902,923,943,964,984,1002,1022,1042,1064,1083,1103,1122,1142,1164,1182,1202,1223,1243,1263,1284,1303,1324,1342,1362,1384,1403,1423,1443,1463,1483,1502,1523,1543,1562,1582,1602,1623,1643,1662,1682,1702,1723,1743,1762,1783,1803,1823,1842,1864,1883,1903,1924,1943,1962,1984,2002,2023,2043,2064,2083,2104,2124,2142,2162,2183,2203,2223,2242,2262,2283,2302,2322,2343,2362,2383,2403,2423,2443,2462,2483,2503,2523,2542,2562,2584,2603,2622,2642,2662,2683,2703,2723,2743,2763,2783,2804,2823,2843,2862,2883,2903,2923,2943,2962,2983,3002,3023,3044,3063,3083,3103,3124,3143,3163,3182,3202,3222,3242,3262,3282,3304,3322,3343,3363,3383,3403,3423,3444,3463,3483,3504,3523,3543,3563,3583,3603,3623,3644,3663,3683,3703,3723,3743,3764,3784,3803,3824,3842,3862,3883,3903,3923],"xSR":741.5,"ySR":469.95,"xT1":424.9,"yT1":0,"xT2":1058.1,"yT2":0,"toosoon":0,"cond_shown":"equaldotanddens","ratio_trial":900,"smaller_num":"18","larger_num":"20","correct_side":1,"subjID":"arielsantiagodiazmorales30","gender":"0","age":"12","school":"6"},{"start_time":1551801498003,"click_time":1551801507639,"finger_time":1551801499498,"fix_duration":744.771128607714,"trial":24,"RT":1495,"MT":8141,"sideResp":1,"stimulus":"img/500/equaldotsize/L/10_Ratio_500_L_4_R_2.png","xmouse":[804,804,804,804,804,804,804,804,804,804,804,804,804,804,804,804,804,804,804,804,804,804,804,804,804,804,804,804,804,804,804,804,804,804,804,804,804,804,804,804,804,804,804,804,804,804,804,804,804,804,804,804,804,804,804,804,804,804,804,804,804,804,804,804,804,804,806,808,811,814,816,818,822,824,826,829,837,842,847,852,856,864,870,876,883,890,909,916,920,923,926,932,938,945,952,957,962,964,966,967,969,977,980,983,984,986,989,992,995,998,1001,1006,1008,1009,1010,1012,1015,1017,1018,1020,1021,1023,1023,1023,1023,1023,1023,1023,1023,1021,1005,931,843,767,690,587,587,587,587,587,587,587,587,587,587,587,587,587,587,587,587,342,327,318,313,309,306,305,304,303,302,302,302,302,302,302,302,302,302,302,302,302,302,302,302,302,302,302,302,302,302,302,302,302,302,302,302,302,302,302,302,302,302,302,302,302,302,302,302,302,302,298,296,293,290,288,284,283,283,283,283,283,282,282,282,285,299,309,320,329,336,340,343,346,348,350,356,361,368,377,387,402,416,427,439,451,468,476,489,498,508,532,540,549,554,558,562,563,564,565,565,565,565,565,565,565,565,565,565,565,565,565,565,565,565,565,565,565,565,565,565,565,565,565,565,565,565,565,565,565,565,565,565,565,565,565,565,565,565,565,565,565,565,565,565,565,565,565,565,565,565,565,565,565,565,565,565,565,565,565,565,565,565,565,564,562,557,556,554,553,551,547,543,540,537,532,524,522,517,515,511,508,503,500,497,494,491,491,491,491,491,491,491,491,491,491,491,491,490,489,487,487,487,487,487,487,487,486,484,483,481,475,467,461,454,450,444,440,435,427,421,420,420,418,414,411,408,407,407,407,407,407,407,407,407,407,407,407,407,407,407,407,407,407,407,407,407,407,407,407,407,407,407,407,407,407,407,407,407,407,407,407,407,407,407,407,407,407,407,407,407,407,407,407,407,407,407,407,407,407,407,407,407,407,407,407,407,407,407,407,407,407,412,416,417,418,418,418,418,419,422,424,424,424,424,424,428,431,434,436,436,436,436,436,436,436,436,436,436,436,436,436,436,436,436,436,437,437,439,440,442,451],"ymouse":[524,524,524,524,524,524,524,524,524,524,524,524,524,524,524,524,524,524,524,524,524,524,524,524,524,524,524,524,524,524,524,524,524,524,524,524,524,524,524,524,524,524,524,524,524,524,524,524,524,524,524,524,524,524,524,524,524,524,524,524,524,524,524,524,524,523,518,512,506,497,491,483,476,471,465,458,435,423,414,405,398,387,380,372,363,350,318,305,298,291,283,272,263,255,250,246,244,243,243,241,240,231,227,224,221,218,214,209,205,200,195,187,182,180,178,176,173,171,171,170,170,169,169,169,169,169,169,169,169,169,169,156,124,89,52,7,7,7,7,7,7,7,7,7,7,7,7,7,7,7,7,4,17,27,33,38,43,46,47,48,49,50,50,50,50,50,50,50,50,50,50,50,50,50,50,50,50,50,50,50,50,50,50,50,50,50,50,50,50,50,50,50,50,50,50,50,50,50,50,51,51,56,57,62,66,70,77,80,81,81,82,85,90,97,107,118,150,168,184,197,206,210,213,216,218,220,222,224,226,228,229,230,230,229,223,217,206,200,191,184,177,158,150,141,136,131,128,127,126,125,125,125,125,125,125,125,125,125,125,125,125,125,125,125,125,125,125,125,125,125,125,125,125,125,125,125,125,125,125,125,125,125,125,125,125,125,125,125,125,125,125,125,125,125,125,125,125,125,125,125,125,125,125,125,125,125,125,125,125,125,125,125,125,124,124,123,121,120,120,120,119,118,116,116,115,114,113,113,112,112,111,111,111,111,110,110,110,110,110,110,110,110,110,110,110,110,110,110,110,110,110,110,110,110,110,110,110,110,110,110,110,111,112,113,114,115,116,117,119,120,121,121,121,121,122,122,122,122,122,122,122,122,122,122,122,122,122,122,122,122,122,122,122,122,122,122,122,122,122,122,122,122,122,122,122,122,122,122,122,122,122,122,122,122,122,122,122,122,122,122,122,122,122,122,122,122,122,122,122,122,122,122,122,122,122,122,122,122,122,122,122,122,120,118,117,117,117,117,117,115,115,113,113,113,113,113,111,110,109,108,108,108,108,108,108,108,108,108,108,108,108,108,108,108,108,108,107,107,106,105,101,90],"timestamp_mouse":[13,34,53,73,95,114,134,153,173,194,213,233,255,273,295,314,334,353,374,393,415,434,454,474,494,515,533,555,575,593,614,634,655,675,693,714,734,753,773,794,814,835,853,875,895,915,933,954,973,995,1015,1035,1054,1074,1094,1115,1134,1154,1173,1194,1214,1233,1253,1274,1295,1313,1333,1353,1375,1394,1414,1433,1454,1474,1495,1515,1534,1554,1573,1595,1615,1634,1653,1674,1693,1715,1734,1754,1773,1793,1815,1834,1854,1874,1894,1915,1934,1953,1974,1993,2014,2033,2055,2074,2093,2114,2135,2154,2174,2195,2215,2235,2255,2273,2293,2314,2333,2354,2374,2395,2415,2434,2454,2473,2494,2514,2534,2555,2573,2593,2614,2635,2654,2674,2694,2713,2733,2753,2774,2793,2813,2834,2855,2874,2894,2913,2935,2955,2973,2995,3015,3034,3054,3074,3093,3113,3133,3154,3174,3194,3215,3234,3254,3274,3294,3313,3333,3355,3374,3394,3414,3435,3454,3474,3494,3514,3535,3554,3575,3593,3614,3634,3654,3675,3695,3713,3733,3754,3775,3794,3814,3833,3854,3874,3894,3913,3933,3955,3975,3995,4014,4033,4054,4073,4093,4114,4134,4154,4174,4193,4213,4233,4254,4273,4295,4314,4334,4353,4373,4395,4414,4434,4455,4474,4493,4513,4533,4554,4573,4594,4615,4634,4654,4674,4693,4714,4734,4754,4775,4793,4813,4834,4854,4874,4894,4915,4934,4953,4973,4995,5015,5034,5054,5074,5094,5113,5134,5153,5174,5195,5215,5235,5255,5273,5295,5314,5334,5355,5374,5394,5413,5434,5455,5474,5495,5514,5533,5553,5574,5594,5614,5634,5653,5674,5693,5714,5734,5754,5774,5795,5815,5834,5853,5873,5894,5915,5935,5955,5974,5994,6013,6034,6055,6075,6094,6114,6135,6154,6174,6193,6214,6234,6254,6273,6295,6315,6335,6355,6374,6394,6414,6433,6454,6474,6494,6515,6534,6555,6574,6595,6614,6635,6654,6674,6695,6713,6734,6754,6774,6795,6814,6834,6855,6874,6893,6914,6934,6954,6975,6994,7015,7033,7053,7074,7093,7115,7134,7153,7174,7194,7215,7234,7253,7273,7293,7314,7334,7354,7373,7393,7414,7434,7454,7473,7493,7515,7534,7554,7573,7593,7614,7633,7654,7675,7694,7714,7733,7754,7774,7793,7814,7834,7854,7873,7893,7915,7934,7954,7975,7995,8014,8034,8054,8073,8093,8113,8133,8155,8174,8193,8213,8234,8253,8274,8294,8314,8334,8355,8374,8394,8413,8434,8453,8474,8495,8514,8535,8554,8574,8594,8614,8634,8654,8675,8693,8714,8734,8754,8774,8793,8814,8833,8854,8874,8894,8914,8934,8954,8974,8994,9013,9033,9055,9075,9095,9114,9133,9154,9174,9193,9214,9233,9254,9274,9294,9313,9333,9353,9373,9394,9414,9434,9455,9475,9494,9514,9534,9554,9575,9595,9614,9635],"xSR":741.5,"ySR":469.95,"xT1":424.9,"yT1":0,"xT2":1058.1,"yT2":0,"toosoon":0,"cond_shown":"equaldotsize","ratio_trial":500,"smaller_num":"2","larger_num":"4","correct_side":1,"subjID":"arielsantiagodiazmorales30","gender":"0","age":"12","school":"6"},{"start_time":1551801510001,"click_time":1551801511038,"finger_time":1551801510578,"fix_duration":1462.123148626748,"trial":25,"RT":577,"MT":460,"sideResp":1,"stimulus":"img/250/randomdotsizeEA/L/1_Ratio_250_L_8_R_2.png","xmouse":[770,770,770,770,770,770,770,770,770,770,770,770,770,770,770,770,770,770,770,770,770,770,770,770,769,767,759,758,757,756,754,752,752,752,750,745,727,701,643,590,555,541,541,537,525,511,497,492,489,487,487,489],"ymouse":[501,501,501,501,501,501,501,501,501,501,501,501,501,501,501,501,501,501,501,501,501,501,501,501,498,492,472,470,463,451,441,431,431,427,421,408,378,362,332,300,278,266,266,243,204,173,140,127,117,107,101,85],"timestamp_mouse":[16,37,58,78,96,116,137,156,177,198,216,236,257,277,296,317,336,357,378,398,416,437,457,476,497,517,536,558,577,596,616,636,656,677,697,716,736,757,776,796,817,837,857,876,898,916,936,956,976,996,1016,1037],"xSR":741.5,"ySR":469.95,"xT1":424.9,"yT1":0,"xT2":1058.1,"yT2":0,"toosoon":0,"cond_shown":"randomdotsizeEA","ratio_trial":250,"smaller_num":"2","larger_num":"8","correct_side":1,"subjID":"arielsantiagodiazmorales30","gender":"0","age":"12","school":"6"},{"start_time":1551801513444,"click_time":1551801514797,"finger_time":1551801514198,"fix_duration":905.9583144671896,"trial":26,"RT":754,"MT":599,"sideResp":2,"stimulus":"img/500/equaldotsize/R/3_Ratio_500_L_10_R_20.png","xmouse":[766,766,766,766,766,766,766,766,766,766,766,766,766,766,766,766,766,766,766,766,766,766,766,766,766,766,766,766,766,766,766,766,766,766,766,782,820,885,912,944,965,981,1006,1042,1113,1127,1134,1142,1146,1160,1186,1201,1213,1228,1253,1256,1257,1257,1257,1254,1251,1249,1242,1233,1209,1188,1160,1116],"ymouse":[483,483,483,483,483,483,483,483,483,483,483,483,483,483,483,483,483,483,483,483,483,483,483,483,483,483,483,483,483,483,483,483,483,483,483,482,482,490,494,508,511,511,504,486,443,433,422,409,397,365,302,265,236,201,142,130,122,116,112,97,80,60,38,22,14,12,10,2],"timestamp_mouse":[21,33,53,75,93,115,133,153,173,193,215,234,254,273,293,313,333,353,373,394,413,435,454,473,493,513,533,553,574,593,614,633,655,673,693,713,734,754,773,793,813,833,854,874,894,913,933,954,973,994,1013,1033,1054,1073,1093,1113,1134,1153,1174,1193,1213,1233,1254,1274,1294,1313,1333,1353],"xSR":741.5,"ySR":469.95,"xT1":424.9,"yT1":0,"xT2":1058.1,"yT2":0,"toosoon":0,"cond_shown":"equaldotsize","ratio_trial":500,"smaller_num":"10","larger_num":"20","correct_side":2,"subjID":"arielsantiagodiazmorales30","gender":"0","age":"12","school":"6"},{"start_time":1551801517606,"click_time":1551801519539,"finger_time":1551801517618,"fix_duration":1447.4853119683733,"trial":27,"RT":12,"MT":1921,"sideResp":1,"stimulus":"img/750/equaldotanddens/R/2_Ratio_750_L_6_R_8.png","xmouse":[812,818,818,818,818,818,818,818,818,818,818,818,818,818,818,818,818,818,818,818,818,818,822,829,833,838,840,840,840,840,842,850,851,851,851,851,851,851,851,851,851,845,841,836,831,827,815,809,805,801,798,795,794,794,794,794,796,804,812,815,805,778,757,740,729,724,723,723,723,723,723,733,738,741,744,746,747,747,747,747,745,736,729,720,711,707,707,707,706,705,702,667,648,623,592,561,519],"ymouse":[466,461,461,461,461,461,461,461,461,461,461,461,461,461,461,461,461,461,461,461,461,461,450,427,409,395,385,383,380,376,371,353,351,351,351,351,351,351,351,351,351,362,373,381,391,403,432,449,467,480,489,505,509,509,509,509,510,498,479,459,422,405,397,391,389,389,389,389,389,388,388,377,369,356,347,338,327,322,316,310,301,276,262,250,236,233,233,233,233,233,232,215,199,174,139,102,52],"timestamp_mouse":[12,31,51,72,91,112,131,151,173,192,212,232,252,271,291,312,331,352,372,391,413,431,451,471,491,511,531,552,572,592,611,632,651,672,691,712,731,752,771,792,811,831,851,871,892,911,933,952,972,991,1011,1032,1051,1071,1092,1111,1132,1151,1171,1191,1213,1231,1252,1271,1291,1313,1332,1351,1372,1391,1412,1431,1451,1471,1492,1512,1531,1551,1572,1592,1611,1631,1651,1672,1692,1712,1732,1752,1771,1791,1811,1831,1852,1871,1892,1911,1933],"xSR":741.5,"ySR":469.95,"xT1":424.9,"yT1":0,"xT2":1058.1,"yT2":0,"toosoon":0,"cond_shown":"equaldotanddens","ratio_trial":750,"smaller_num":"6","larger_num":"8","correct_side":2,"subjID":"arielsantiagodiazmorales30","gender":"0","age":"12","school":"6"},{"start_time":1551801520731,"click_time":1551801522358,"finger_time":1551801521678,"fix_duration":250,"trial":28,"RT":947,"MT":680,"sideResp":2,"stimulus":"img/900/randomdotsizeEA/R/9_Ratio_900_L_18_R_20.png","xmouse":[760,760,760,760,760,760,760,760,760,760,760,760,760,760,760,760,760,760,760,760,760,760,760,760,760,760,760,760,760,760,760,760,760,764,766,766,766,766,766,766,766,766,766,766,766,786,823,853,883,905,937,955,974,993,1011,1072,1122,1150,1167,1178,1191,1196,1201,1206,1210,1217,1218,1218,1218,1218,1218,1218,1218,1214,1210,1207,1203,1199,1193,1189,1159,1133],"ymouse":[545,545,545,545,545,545,545,545,545,545,545,545,545,545,545,545,545,545,545,545,545,545,545,545,545,545,545,545,545,545,545,545,545,536,535,535,535,535,535,535,535,535,535,535,534,524,508,494,479,467,443,429,415,402,390,322,257,227,207,193,176,165,152,141,128,105,95,94,92,92,92,92,91,90,89,89,88,86,84,82,75,71],"timestamp_mouse":[8,33,47,66,87,106,128,146,166,187,207,226,246,266,286,306,326,347,366,386,406,428,447,466,486,506,527,547,567,588,606,626,647,667,686,708,726,747,766,787,806,826,847,866,887,908,926,947,967,988,1006,1027,1047,1066,1088,1107,1126,1146,1167,1187,1206,1226,1246,1267,1287,1307,1326,1346,1366,1386,1407,1427,1453,1466,1486,1506,1527,1546,1566,1587,1606,1626],"xSR":741.5,"ySR":469.95,"xT1":424.9,"yT1":0,"xT2":1058.1,"yT2":0,"toosoon":0,"cond_shown":"randomdotsizeEA","ratio_trial":900,"smaller_num":"18","larger_num":"20","correct_side":2,"subjID":"arielsantiagodiazmorales30","gender":"0","age":"12","school":"6"},{"start_time":1551801523806,"click_time":1551801524797,"finger_time":1551801524437,"fix_duration":347.898922095862,"trial":29,"RT":631,"MT":360,"sideResp":2,"stimulus":"img/500/equaldotsize/R/1_Ratio_500_L_9_R_18.png","xmouse":[806,806,806,806,806,806,806,806,806,806,806,806,806,806,806,806,806,806,806,806,806,806,806,806,806,806,806,806,815,821,836,909,946,984,1019,1045,1061,1062,1063,1063,1063,1063,1063,1063,1063,1063,1067,1070,1075,1080],"ymouse":[484,491,518,526,529,529,529,529,529,529,529,529,529,529,529,529,529,529,529,529,529,529,529,529,529,529,529,529,519,512,493,411,366,318,266,221,184,180,180,180,180,180,180,180,180,177,145,126,107,91],"timestamp_mouse":[12,31,52,72,91,111,131,151,172,192,211,231,253,271,291,311,332,351,373,391,411,431,452,471,491,511,531,551,571,593,611,631,652,671,692,713,731,752,771,792,812,832,852,873,892,912,931,951,972,991],"xSR":741.5,"ySR":469.95,"xT1":424.9,"yT1":0,"xT2":1058.1,"yT2":0,"toosoon":0,"cond_shown":"equaldotsize","ratio_trial":500,"smaller_num":"9","larger_num":"18","correct_side":2,"subjID":"arielsantiagodiazmorales30","gender":"0","age":"12","school":"6"},{"start_time":1551801527382,"click_time":1551801528478,"finger_time":1551801528037,"fix_duration":342.119655254023,"trial":30,"RT":655,"MT":441,"sideResp":1,"stimulus":"img/250/equaldotsize/L/1_Ratio_250_L_8_R_2.png","xmouse":[820,820,820,820,820,820,820,820,820,820,820,820,820,820,820,820,820,820,820,820,820,820,820,820,820,820,820,820,820,820,814,803,746,685,648,623,607,583,575,562,548,533,510,503,499,493,487,477,476,474,473,472,472,472,472],"ymouse":[506,506,506,506,506,506,506,506,506,506,506,506,506,506,506,506,506,506,506,506,506,506,506,506,506,506,506,506,506,506,500,490,446,410,381,355,334,300,286,270,254,239,223,217,211,200,189,168,162,157,153,147,128,103,83],"timestamp_mouse":[18,37,55,75,95,116,135,155,175,196,216,235,255,275,295,316,335,355,376,397,416,435,455,475,496,515,535,555,575,595,617,636,655,676,697,716,736,755,776,795,815,836,856,875,895,915,935,955,975,995,1016,1035,1055,1076,1096],"xSR":741.5,"ySR":469.95,"xT1":424.9,"yT1":0,"xT2":1058.1,"yT2":0,"toosoon":0,"cond_shown":"equaldotsize","ratio_trial":250,"smaller_num":"2","larger_num":"8","correct_side":1,"subjID":"arielsantiagodiazmorales30","gender":"0","age":"12","school":"6"},{"start_time":1551801530608,"click_time":1551801534797,"finger_time":1551801531797,"fix_duration":1009.0792846396084,"trial":31,"RT":1189,"MT":3000,"sideResp":2,"stimulus":"img/250/equaldotsize/R/6_Ratio_250_L_6_R_24.png","xmouse":[811,811,811,811,811,811,811,811,811,811,811,811,811,811,811,811,811,811,811,811,811,811,811,811,811,811,811,811,811,811,811,811,811,811,811,811,811,811,811,811,811,811,811,811,811,811,811,811,811,811,811,811,812,812,812,810,804,797,791,785,775,710,668,631,603,584,572,572,572,572,571,558,549,543,541,541,541,541,541,541,540,531,527,526,526,526,526,526,526,526,526,526,526,526,526,526,526,526,526,526,526,526,525,525,525,525,525,525,525,525,525,525,525,525,525,525,525,526,567,648,754,954,974,978,978,978,980,980,979,979,978,978,978,978,978,978,978,978,978,978,978,978,978,978,978,978,978,978,978,978,978,978,978,978,978,978,956,943,929,921,919,919,919,919,918,917,895,880,865,850,837,820,814,813,813,813,813,812,809,803,790,750,732,715,703,691,687,687,687,687,687,687,687,687,687,687,687,687,687,687,687,687,686,698,743,798,910,967,1026,1081],"ymouse":[533,533,533,533,533,533,533,533,533,533,533,533,533,533,533,533,533,533,533,533,533,533,533,533,533,533,533,533,533,533,533,533,533,533,533,533,533,533,533,533,533,533,533,533,533,533,533,533,533,533,533,533,529,517,506,498,484,477,470,460,442,338,280,237,210,194,186,186,186,186,186,163,151,143,141,141,141,141,141,140,140,136,135,134,134,134,134,134,134,134,134,134,134,134,134,134,134,134,134,134,134,134,134,134,134,134,134,134,134,134,134,134,134,134,134,134,134,134,129,118,103,93,93,92,92,92,85,75,69,68,67,67,67,67,67,67,67,67,67,67,67,67,67,67,67,67,67,67,67,67,67,67,67,67,67,67,70,73,76,78,78,78,78,78,79,79,80,80,80,80,80,78,77,77,77,77,77,77,77,77,77,74,74,74,75,78,79,79,79,79,79,79,79,79,79,79,79,79,79,79,79,79,80,80,80,80,80,80,86,86],"timestamp_mouse":[9,33,50,69,89,109,129,149,170,189,209,230,251,269,290,310,329,349,369,389,409,429,449,470,490,509,529,549,570,589,609,629,649,670,689,709,729,750,769,790,810,829,849,869,890,910,929,949,969,989,1009,1029,1050,1069,1089,1110,1129,1150,1170,1189,1210,1230,1250,1270,1290,1310,1330,1351,1370,1391,1410,1429,1449,1469,1491,1510,1530,1550,1570,1590,1610,1629,1650,1670,1689,1710,1729,1749,1769,1789,1810,1830,1849,1869,1889,1909,1930,1950,1970,1989,2009,2029,2049,2070,2090,2110,2129,2149,2170,2189,2209,2229,2249,2271,2290,2309,2329,2350,2370,2391,2409,2429,2449,2470,2490,2509,2530,2549,2570,2590,2610,2630,2651,2669,2690,2710,2729,2750,2769,2789,2809,2830,2850,2870,2891,2910,2929,2949,2970,2990,3010,3029,3050,3069,3090,3110,3129,3150,3169,3189,3210,3229,3249,3270,3290,3309,3329,3350,3369,3390,3409,3429,3449,3469,3489,3510,3529,3549,3570,3589,3609,3630,3650,3669,3690,3709,3729,3749,3770,3789,3809,3830,3850,3870,3889,3911,3929,3949,3969,3989,4010,4030,4049,4069,4089,4110,4130,4149,4169,4189],"xSR":741.5,"ySR":469.95,"xT1":424.9,"yT1":0,"xT2":1058.1,"yT2":0,"toosoon":0,"cond_shown":"equaldotsize","ratio_trial":250,"smaller_num":"6","larger_num":"24","correct_side":2,"subjID":"arielsantiagodiazmorales30","gender":"0","age":"12","school":"6"},{"start_time":1551801537208,"click_time":1551801538138,"finger_time":1551801537877,"fix_duration":288.8527487603132,"trial":32,"RT":669,"MT":261,"sideResp":1,"stimulus":"img/250/equaldotanddens/L/7_Ratio_250_L_8_R_2.png","xmouse":[789,789,789,789,789,789,789,789,789,789,789,789,789,789,789,789,789,789,789,789,789,789,789,789,789,789,789,789,789,789,789,789,774,745,714,678,616,594,580,571,561,536,529,524,515,507,475],"ymouse":[504,504,504,504,504,504,504,504,504,504,504,504,504,504,504,504,504,504,504,504,504,504,504,504,504,504,504,504,504,504,504,500,473,429,387,347,278,252,235,219,203,164,153,146,136,123,78],"timestamp_mouse":[9,29,49,69,90,109,129,149,169,189,209,229,249,269,289,309,330,349,369,389,410,429,450,469,489,509,529,549,569,589,609,629,649,669,690,710,730,749,769,790,810,829,850,870,889,909,930],"xSR":741.5,"ySR":469.95,"xT1":424.9,"yT1":0,"xT2":1058.1,"yT2":0,"toosoon":0,"cond_shown":"equaldotanddens","ratio_trial":250,"smaller_num":"2","larger_num":"8","correct_side":1,"subjID":"arielsantiagodiazmorales30","gender":"0","age":"12","school":"6"},{"start_time":1551801540228,"click_time":1551801541099,"finger_time":1551801541019,"fix_duration":1008.2272040266722,"trial":33,"RT":791,"MT":80,"sideResp":2,"stimulus":"img/750/equaldotanddens/L/9_Ratio_750_L_4_R_3.png","xmouse":[817,817,817,817,817,817,817,817,817,817,817,817,817,817,817,817,817,817,817,817,817,817,817,817,817,817,817,817,817,817,817,817,817,817,817,817,817,817,824,848,955,1009,1051,1075],"ymouse":[483,483,483,483,483,483,483,483,483,483,483,483,483,483,483,483,483,483,483,483,483,483,483,483,483,483,483,483,483,483,483,483,483,483,483,483,483,483,473,438,261,177,120,86],"timestamp_mouse":[9,34,50,71,90,109,130,149,170,189,209,229,249,270,290,310,330,351,369,389,409,429,449,469,491,511,529,551,571,590,611,631,650,669,689,709,729,750,771,791,810,830,851,871],"xSR":741.5,"ySR":469.95,"xT1":424.9,"yT1":0,"xT2":1058.1,"yT2":0,"toosoon":0,"cond_shown":"equaldotanddens","ratio_trial":750,"smaller_num":"3","larger_num":"4","correct_side":1,"subjID":"arielsantiagodiazmorales30","gender":"0","age":"12","school":"6"},{"start_time":1551801543815,"click_time":1551801544857,"finger_time":1551801544538,"fix_duration":876.6894997716902,"trial":34,"RT":723,"MT":319,"sideResp":2,"stimulus":"img/250/equaldotanddens/R/11_Ratio_250_L_3_R_12.png","xmouse":[811,811,811,811,811,811,811,811,811,811,811,811,811,811,811,811,811,811,811,811,811,811,811,811,811,811,811,811,811,811,811,811,811,811,811,815,826,852,920,1015,1104,1179,1179,1179,1179,1179,1179,1179,1179,1179,1180,1173,1156],"ymouse":[483,483,483,483,483,483,483,483,483,483,483,483,483,483,483,483,483,483,483,483,483,483,483,483,483,483,483,483,483,483,483,483,483,483,483,479,454,406,309,196,104,33,32,32,32,32,32,32,32,32,32,42,61],"timestamp_mouse":[12,32,42,62,84,103,123,142,162,184,202,222,242,264,283,302,323,343,362,384,403,423,443,463,483,502,523,542,563,583,603,622,644,663,683,702,723,742,762,783,804,822,843,863,884,902,922,943,963,983,1002,1023,1042],"xSR":741.5,"ySR":469.95,"xT1":424.9,"yT1":0,"xT2":1058.1,"yT2":0,"toosoon":0,"cond_shown":"equaldotanddens","ratio_trial":250,"smaller_num":"3","larger_num":"12","correct_side":2,"subjID":"arielsantiagodiazmorales30","gender":"0","age":"12","school":"6"},{"start_time":1551801546352,"click_time":1551801547338,"finger_time":1551801546558,"fix_duration":432.7550123011694,"trial":35,"RT":206,"MT":780,"sideResp":1,"stimulus":"img/900/equaldotanddens/L/4_Ratio_900_L_20_R_18.png","xmouse":[837,837,837,837,837,837,837,837,837,835,835,835,835,835,835,835,835,835,835,835,835,835,835,835,835,835,835,835,835,835,835,833,819,789,683,552,482,441,422,402,398,396,396,396,396,396,400,412,434,488],"ymouse":[502,502,502,502,502,497,489,484,480,470,469,469,469,469,469,469,469,469,469,469,469,469,469,469,469,469,469,469,469,469,468,466,453,431,375,313,271,240,221,195,189,188,187,187,187,186,179,158,129,76],"timestamp_mouse":[9,28,45,66,86,105,125,146,165,185,206,225,245,265,286,305,325,346,366,385,406,425,445,466,485,506,525,545,567,585,605,625,646,665,686,705,725,746,766,785,805,825,845,866,885,906,926,945,966,986],"xSR":741.5,"ySR":469.95,"xT1":424.9,"yT1":0,"xT2":1058.1,"yT2":0,"toosoon":0,"cond_shown":"equaldotanddens","ratio_trial":900,"smaller_num":"18","larger_num":"20","correct_side":1,"subjID":"arielsantiagodiazmorales30","gender":"0","age":"12","school":"6"},{"start_time":1551801550371,"click_time":1551801551638,"finger_time":1551801551138,"fix_duration":1291.6354538441874,"trial":36,"RT":767,"MT":500,"sideResp":1,"stimulus":"img/500/randomdotsizeEA/L/10_Ratio_500_L_4_R_2.png","xmouse":[752,752,752,752,752,752,752,752,752,752,752,752,752,752,752,752,752,752,752,752,752,752,752,752,752,752,752,752,752,752,752,752,752,752,752,752,752,751,739,723,698,670,642,596,567,554,544,538,536,535,533,528,519,500,495,492,489,488,484,480,474,467,461,450],"ymouse":[508,508,508,508,508,508,508,508,508,508,508,508,508,508,508,508,508,508,508,508,508,508,508,508,508,508,508,508,508,508,508,508,508,508,508,508,508,503,478,443,398,354,315,251,217,203,194,190,188,188,186,181,173,152,145,142,138,136,130,124,117,110,103,89],"timestamp_mouse":[8,29,47,67,87,108,127,146,166,186,207,228,247,266,288,307,327,347,366,388,407,426,448,468,486,507,526,547,567,588,606,627,647,667,687,706,726,746,767,787,806,827,846,866,886,907,927,946,966,987,1007,1026,1047,1066,1087,1106,1126,1147,1166,1186,1207,1226,1248,1267],"xSR":741.5,"ySR":469.95,"xT1":424.9,"yT1":0,"xT2":1058.1,"yT2":0,"toosoon":0,"cond_shown":"randomdotsizeEA","ratio_trial":500,"smaller_num":"2","larger_num":"4","correct_side":1,"subjID":"arielsantiagodiazmorales30","gender":"0","age":"12","school":"6"},{"start_time":1551801555165,"click_time":1551801556219,"finger_time":1551801555897,"fix_duration":1026.8650042714248,"trial":37,"RT":732,"MT":322,"sideResp":2,"stimulus":"img/750/equaldotanddens/R/5_Ratio_750_L_15_R_20.png","xmouse":[793,793,793,793,793,793,793,793,793,793,793,793,793,793,793,793,793,793,793,793,793,793,793,793,793,793,793,793,793,793,793,793,793,793,793,824,877,970,1178,1256,1305,1325,1334,1334,1334,1334,1334,1333,1319,1296,1255,1203,1157],"ymouse":[509,509,509,509,509,509,509,509,509,509,509,509,509,509,509,509,509,509,509,509,509,509,509,509,509,509,509,509,509,509,509,509,509,509,509,481,426,333,143,93,71,63,58,58,58,58,58,58,60,67,73,81,87],"timestamp_mouse":[13,32,52,72,92,113,133,152,173,192,212,234,252,272,293,312,333,352,372,393,412,433,453,472,493,513,532,552,573,592,612,633,652,674,694,712,732,753,773,792,812,832,853,872,893,912,933,952,972,993,1013,1033,1054],"xSR":741.5,"ySR":469.95,"xT1":424.9,"yT1":0,"xT2":1058.1,"yT2":0,"toosoon":0,"cond_shown":"equaldotanddens","ratio_trial":750,"smaller_num":"15","larger_num":"20","correct_side":2,"subjID":"arielsantiagodiazmorales30","gender":"0","age":"12","school":"6"},{"start_time":1551801558342,"click_time":1551801559159,"finger_time":1551801558938,"fix_duration":1203.708218324343,"trial":38,"RT":596,"MT":221,"sideResp":1,"stimulus":"img/750/equaldotsize/L/9_Ratio_750_L_4_R_3.png","xmouse":[782,789,791,791,791,791,791,791,791,791,791,791,791,791,791,791,791,791,791,791,791,791,791,791,791,791,790,784,776,755,743,728,704,680,628,599,585,575,563,531,518],"ymouse":[532,533,534,534,534,534,534,534,534,534,534,534,534,534,534,534,534,534,534,534,534,534,534,534,534,534,530,517,503,465,441,410,368,326,247,203,182,167,151,108,94],"timestamp_mouse":[15,37,55,76,97,115,136,157,175,195,216,235,255,275,296,317,335,356,376,397,415,436,455,476,496,516,535,556,576,596,615,635,656,676,696,716,735,755,775,795,816],"xSR":741.5,"ySR":469.95,"xT1":424.9,"yT1":0,"xT2":1058.1,"yT2":0,"toosoon":0,"cond_shown":"equaldotsize","ratio_trial":750,"smaller_num":"3","larger_num":"4","correct_side":1,"subjID":"arielsantiagodiazmorales30","gender":"0","age":"12","school":"6"},{"start_time":1551801561163,"click_time":1551801562657,"finger_time":1551801562098,"fix_duration":1044.566955710287,"trial":39,"RT":935,"MT":559,"sideResp":1,"stimulus":"img/500/randomdotsizeEA/L/13_Ratio_500_L_12_R_6.png","xmouse":[749,749,749,749,749,749,749,749,749,749,749,749,749,749,749,749,749,749,749,749,749,749,749,749,749,749,749,749,749,749,748,746,746,744,744,744,744,744,744,744,744,744,744,753,766,775,786,796,804,804,804,799,790,758,731,697,660,637,604,593,582,572,561,536,531,528,528,528,528,528,528,528,528,528,521],"ymouse":[499,499,499,499,499,499,499,499,499,499,499,499,499,499,499,499,499,499,499,499,499,499,499,499,499,499,499,499,499,499,499,496,492,485,483,483,483,483,483,483,483,483,483,482,477,473,465,457,444,438,431,423,413,371,336,293,250,219,164,139,113,91,69,25,16,11,11,11,11,11,11,11,11,11,19],"timestamp_mouse":[15,34,54,75,96,114,135,155,176,195,215,236,254,274,294,314,335,356,374,396,414,435,454,474,494,515,534,554,574,596,615,634,655,674,695,715,734,754,774,794,814,835,856,874,894,915,935,954,975,994,1014,1034,1054,1074,1094,1114,1136,1154,1174,1194,1215,1234,1255,1274,1294,1316,1335,1356,1375,1394,1414,1434,1455,1474,1494],"xSR":741.5,"ySR":469.95,"xT1":424.9,"yT1":0,"xT2":1058.1,"yT2":0,"toosoon":0,"cond_shown":"randomdotsizeEA","ratio_trial":500,"smaller_num":"6","larger_num":"12","correct_side":1,"subjID":"arielsantiagodiazmorales30","gender":"0","age":"12","school":"6"},{"start_time":1551801568164,"click_time":1551801569377,"finger_time":1551801568976,"fix_duration":805.4474386890322,"trial":40,"RT":812,"MT":401,"sideResp":2,"stimulus":"img/500/randomdotsizeEA/R/14_Ratio_500_L_5_R_10.png","xmouse":[806,806,806,806,806,806,806,806,806,806,806,806,806,806,806,806,806,806,806,806,806,806,806,806,806,806,806,806,803,801,798,793,788,783,782,782,782,782,788,796,815,868,953,1145,1190,1222,1241,1251,1258,1259,1259,1258,1253,1226,1213,1201,1192,1184,1170,1161,1151],"ymouse":[513,513,513,513,513,513,513,513,513,513,513,513,513,513,513,513,513,513,513,513,513,513,513,513,513,513,513,512,510,509,507,504,499,488,488,487,486,484,479,473,461,431,382,259,232,212,197,183,157,144,138,131,120,88,81,76,73,72,71,71,71],"timestamp_mouse":[12,32,53,73,92,112,132,152,173,193,212,232,252,273,294,313,332,352,374,393,412,432,452,473,492,512,534,552,572,593,613,632,653,673,694,712,733,752,772,793,812,832,853,872,892,912,932,953,972,993,1013,1032,1052,1072,1093,1112,1133,1153,1173,1193,1213],"xSR":741.5,"ySR":469.95,"xT1":424.9,"yT1":0,"xT2":1058.1,"yT2":0,"toosoon":0,"cond_shown":"randomdotsizeEA","ratio_trial":500,"smaller_num":"5","larger_num":"10","correct_side":2,"subjID":"arielsantiagodiazmorales30","gender":"0","age":"12","school":"6"},{"start_time":1551801572892,"click_time":1551801574817,"finger_time":1551801573996,"fix_duration":1035.825251977234,"trial":41,"RT":1104,"MT":821,"sideResp":1,"stimulus":"img/900/equaldotanddens/R/11_Ratio_900_L_18_R_20.png","xmouse":[821,821,821,821,821,821,821,821,821,821,821,821,821,821,821,821,821,821,821,821,821,821,821,821,821,821,821,821,821,821,821,821,821,821,821,821,821,821,821,821,821,821,821,821,821,821,821,821,821,821,821,821,821,827,836,842,847,850,850,850,850,850,850,850,850,853,857,862,864,865,865,866,866,866,866,869,869,854,823,800,775,742,675,659,649,643,631,604,592,579,565,551,535,532,529,525,519],"ymouse":[497,497,497,497,497,497,497,497,497,497,497,497,497,497,497,497,497,497,497,497,497,497,497,497,497,497,497,497,497,497,497,497,497,497,497,497,497,497,497,497,497,497,497,497,497,497,497,497,497,497,497,497,497,486,470,457,448,438,438,438,438,438,438,438,437,432,416,396,391,387,386,385,385,384,380,361,335,282,232,205,181,157,109,96,86,81,75,65,61,57,52,47,44,43,43,43,43],"timestamp_mouse":[10,25,45,65,84,104,126,145,166,184,204,225,245,266,284,304,324,346,366,384,405,424,445,464,485,505,524,544,564,585,604,624,646,665,685,705,726,745,764,784,805,824,844,865,886,905,924,945,966,984,1004,1025,1045,1064,1085,1104,1124,1144,1164,1185,1205,1224,1244,1265,1285,1305,1326,1344,1364,1384,1405,1424,1444,1464,1485,1504,1524,1545,1564,1584,1605,1626,1645,1664,1684,1706,1726,1745,1764,1784,1805,1825,1844,1864,1885,1904,1925],"xSR":741.5,"ySR":469.95,"xT1":424.9,"yT1":0,"xT2":1058.1,"yT2":0,"toosoon":0,"cond_shown":"equaldotanddens","ratio_trial":900,"smaller_num":"18","larger_num":"20","correct_side":2,"subjID":"arielsantiagodiazmorales30","gender":"0","age":"12","school":"6"},{"start_time":1551801576025,"click_time":1551801577197,"finger_time":1551801576796,"fix_duration":386.9398329163767,"trial":42,"RT":771,"MT":401,"sideResp":1,"stimulus":"img/900/equaldotanddens/L/4_Ratio_900_L_20_R_18.png","xmouse":[814,814,814,814,814,814,814,814,814,814,814,814,814,814,814,814,814,814,814,814,814,814,814,812,811,809,808,807,807,807,807,807,807,806,805,794,785,772,754,732,688,664,653,645,638,629,622,612,599,586,565,549,541,535,528,512,498,481,458],"ymouse":[508,508,508,508,508,508,508,508,508,508,508,508,508,508,508,508,508,508,508,508,508,508,508,507,505,501,501,500,500,500,500,500,500,498,497,488,480,470,457,440,398,367,346,325,310,276,258,240,222,206,177,156,147,143,137,128,122,112,99],"timestamp_mouse":[12,38,52,72,91,111,131,152,173,191,211,231,252,273,291,311,332,352,371,391,411,431,452,472,491,511,531,551,571,591,611,631,651,671,691,711,731,752,771,792,812,831,851,871,893,912,932,951,971,993,1011,1032,1051,1072,1092,1111,1132,1151,1172],"xSR":741.5,"ySR":469.95,"xT1":424.9,"yT1":0,"xT2":1058.1,"yT2":0,"toosoon":0,"cond_shown":"equaldotanddens","ratio_trial":900,"smaller_num":"18","larger_num":"20","correct_side":1,"subjID":"arielsantiagodiazmorales30","gender":"0","age":"12","school":"6"},{"start_time":1551801581990,"click_time":1551801588676,"finger_time":1551801583016,"fix_duration":771.9920161008585,"trial":43,"RT":1026,"MT":5660,"sideResp":1,"stimulus":"img/250/equaldotanddens/L/5_Ratio_250_L_24_R_6.png","xmouse":[786,786,786,786,786,786,786,786,786,786,786,786,786,786,786,786,786,786,786,786,786,786,786,786,786,786,786,786,786,786,786,786,786,786,786,786,786,786,786,786,786,786,786,786,786,786,786,786,786,786,787,792,792,792,792,792,792,792,792,792,792,792,792,791,789,787,783,776,773,770,767,763,747,727,714,706,697,677,670,668,667,667,667,667,667,667,667,667,667,667,667,670,798,847,883,903,908,908,908,908,908,908,908,908,908,908,908,909,909,910,910,910,910,910,910,910,908,899,895,892,888,878,850,833,824,812,798,769,752,737,720,708,680,660,648,636,626,619,617,616,612,608,604,604,603,602,601,601,601,601,601,601,601,601,601,601,601,601,601,601,601,601,601,598,593,588,583,578,578,578,578,578,574,569,566,565,565,565,565,565,565,563,560,558,558,559,562,563,563,563,562,562,561,559,558,556,556,555,554,552,551,550,549,545,542,536,526,514,510,508,507,507,507,507,507,507,507,507,507,507,507,507,507,507,507,507,507,507,507,507,507,507,507,507,507,507,507,507,507,507,507,507,507,507,507,507,507,507,506,502,500,498,498,498,498,498,498,498,498,498,498,498,498,498,490,469,450,413,404,402,402,402,402,402,402,402,402,402,402,402,402,402,402,402,402,402,402,402,402,402,402,402,402,402,402,402,402,402,402,402,402,402,399,393,392,391,391,389,389,389,388,386,384,384,384,384,384,384,384,384,384,384,384,384,384,384,384,384,384,384,384,384,384,421,457],"ymouse":[528,528,528,528,528,528,528,528,528,528,528,528,528,528,528,528,528,528,528,528,528,528,528,528,528,528,528,528,528,528,528,528,528,528,528,528,528,528,528,528,528,528,528,528,528,528,528,528,528,519,499,445,301,246,214,195,190,190,190,190,190,190,189,184,177,170,163,150,146,144,143,141,136,130,128,124,119,111,109,109,109,109,109,109,109,109,109,109,109,109,108,103,50,44,44,51,53,53,54,57,58,58,58,58,58,59,59,60,60,61,61,61,61,61,61,61,61,61,61,61,62,67,74,76,78,79,79,79,79,73,68,66,63,63,63,63,62,62,62,62,62,62,62,62,62,62,62,62,62,62,62,62,62,62,62,62,62,62,62,62,62,62,62,62,62,62,62,62,62,62,62,62,62,62,63,63,63,63,63,63,63,63,71,73,76,79,84,93,95,99,100,101,104,106,108,110,111,112,112,114,115,115,117,118,119,121,123,127,129,130,131,131,131,131,131,131,131,131,131,131,131,131,131,131,131,131,131,131,131,131,131,131,131,131,131,131,131,131,131,131,131,131,131,131,131,131,131,131,131,129,125,122,121,121,121,121,121,121,121,121,121,121,121,121,122,127,129,135,136,136,136,136,136,136,136,136,136,136,136,136,136,136,136,136,136,136,136,136,136,136,136,136,136,136,136,136,136,136,136,136,136,136,136,129,127,126,126,122,121,120,117,112,109,109,109,109,109,109,109,109,109,109,109,109,109,109,109,109,109,109,109,109,102,78,66],"timestamp_mouse":[11,26,47,67,87,106,127,148,168,186,206,226,247,267,286,306,327,347,366,386,406,426,448,466,486,506,528,546,568,586,607,626,647,667,686,708,726,746,768,786,807,826,846,867,887,906,926,946,968,987,1006,1026,1046,1066,1087,1106,1127,1147,1167,1186,1206,1227,1246,1266,1287,1307,1328,1346,1366,1387,1406,1427,1446,1466,1486,1507,1527,1546,1566,1588,1608,1627,1646,1668,1687,1707,1726,1746,1767,1786,1806,1827,1847,1867,1886,1906,1926,1947,1966,1986,2007,2028,2046,2066,2086,2107,2128,2147,2166,2187,2206,2226,2246,2267,2287,2308,2326,2346,2366,2387,2406,2427,2447,2467,2487,2507,2527,2547,2566,2586,2607,2627,2647,2667,2686,2707,2738,2746,2766,2787,2806,2827,2847,2868,2887,2906,2927,2947,2967,2986,3006,3027,3046,3066,3086,3106,3127,3147,3166,3186,3207,3227,3246,3266,3287,3306,3326,3347,3366,3386,3406,3427,3446,3467,3487,3507,3527,3547,3567,3587,3606,3626,3646,3667,3687,3707,3727,3746,3766,3787,3806,3828,3846,3866,3887,3907,3926,3946,3967,3986,4007,4026,4047,4067,4086,4107,4127,4146,4168,4187,4206,4226,4246,4266,4286,4307,4328,4347,4366,4387,4406,4426,4446,4466,4487,4506,4527,4546,4567,4587,4606,4628,4647,4666,4686,4706,4726,4746,4767,4787,4806,4826,4847,4866,4887,4906,4926,4946,4967,4987,5006,5027,5046,5066,5086,5108,5128,5146,5167,5187,5207,5228,5246,5267,5286,5307,5326,5346,5367,5386,5406,5426,5446,5466,5486,5506,5527,5547,5568,5586,5606,5626,5647,5667,5686,5708,5726,5747,5766,5786,5806,5827,5847,5867,5886,5906,5927,5947,5967,5986,6007,6027,6046,6066,6086,6107,6126,6146,6166,6187,6206,6227,6246,6266,6287,6308,6328,6348,6368,6387,6407,6426,6446,6466,6486,6507,6528,6546,6567,6586,6606,6626,6647,6667,6686],"xSR":741.5,"ySR":469.95,"xT1":424.9,"yT1":0,"xT2":1058.1,"yT2":0,"toosoon":0,"cond_shown":"equaldotanddens","ratio_trial":250,"smaller_num":"6","larger_num":"24","correct_side":1,"subjID":"arielsantiagodiazmorales30","gender":"0","age":"12","school":"6"},{"start_time":1551801593209,"click_time":1551801596157,"finger_time":1551801594076,"fix_duration":650.91449925528,"trial":44,"RT":867,"MT":2081,"sideResp":2,"stimulus":"img/500/randomdotsizeEA/L/10_Ratio_500_L_4_R_2.png","xmouse":[768,768,768,768,768,768,768,768,768,768,768,768,768,768,768,768,768,768,768,768,768,768,768,768,768,768,768,768,768,768,768,768,768,768,768,768,768,768,768,768,768,759,748,737,729,722,709,700,690,682,674,663,652,645,640,634,628,626,626,626,626,626,626,626,626,626,626,626,626,626,626,622,613,603,596,590,583,582,582,582,582,582,582,582,582,582,582,582,582,582,582,582,582,582,610,665,796,832,853,868,882,901,922,962,1025,1077,1109,1109,1109,1109,1109,1109,1109,1109,1109,1109,1109,1109,1108,1108,1108,1108,1108,1108,1108,1108,1108,1108,1108,1108,1108,1108,1108,1108,1108,1108,1108,1108,1108,1108,1108,1111,1113,1113,1113,1113,1113,1115],"ymouse":[531,531,531,531,531,531,531,531,531,531,531,531,531,531,531,531,531,531,531,531,531,531,531,531,531,531,531,531,531,531,531,531,531,531,531,531,531,531,531,531,530,496,476,456,438,419,380,356,332,311,294,269,248,239,230,223,216,214,213,213,213,213,213,213,213,213,213,213,213,213,213,206,194,179,168,159,148,147,147,147,147,147,147,147,147,147,147,147,147,147,147,147,147,145,135,124,105,100,97,95,95,95,100,107,119,125,128,128,128,128,128,128,128,128,128,128,128,128,128,128,128,128,128,128,128,128,128,128,128,128,128,128,128,128,128,128,128,128,128,128,127,120,114,113,113,113,102,98],"timestamp_mouse":[11,36,47,69,88,108,128,147,168,187,207,227,247,267,289,307,328,347,368,388,407,427,447,469,487,507,527,548,567,587,608,627,647,667,687,707,727,747,767,787,807,828,848,867,888,908,927,948,967,988,1008,1028,1047,1067,1087,1107,1127,1148,1167,1187,1208,1228,1248,1267,1287,1307,1327,1348,1368,1388,1408,1427,1448,1467,1488,1508,1528,1547,1567,1587,1608,1627,1647,1667,1688,1707,1727,1747,1767,1787,1807,1827,1847,1868,1887,1907,1928,1948,1968,1987,2008,2027,2047,2067,2088,2109,2127,2147,2167,2188,2208,2228,2247,2267,2288,2307,2328,2349,2367,2387,2408,2428,2448,2468,2487,2507,2527,2547,2567,2588,2607,2628,2648,2667,2687,2708,2728,2748,2767,2787,2808,2828,2847,2867,2889,2909,2927,2947],"xSR":741.5,"ySR":469.95,"xT1":424.9,"yT1":0,"xT2":1058.1,"yT2":0,"toosoon":0,"cond_shown":"randomdotsizeEA","ratio_trial":500,"smaller_num":"2","larger_num":"4","correct_side":1,"subjID":"arielsantiagodiazmorales30","gender":"0","age":"12","school":"6"},{"start_time":1551801599831,"click_time":1551801601838,"finger_time":1551801600797,"fix_duration":552.3580260090058,"trial":45,"RT":966,"MT":1041,"sideResp":2,"stimulus":"img/900/equaldotsize/R/6_Ratio_900_L_9_R_10.png","xmouse":[795,795,795,795,795,795,795,795,795,795,795,795,795,795,795,795,795,795,795,795,795,795,795,795,795,795,795,795,795,795,795,795,795,795,795,795,795,795,795,795,795,795,795,795,795,804,816,840,889,941,1048,1071,1084,1090,1093,1095,1095,1095,1095,1095,1095,1095,1095,1095,1095,1095,1095,1092,1071,1043,997,971,968,968,968,968,968,968,968,968,968,968,968,968,968,968,968,968,968,968,968,972,979,990,1002,1025,1035,1045,1052,1058,1071],"ymouse":[521,521,521,521,521,521,521,521,521,521,521,521,521,521,521,521,521,521,521,521,521,521,521,521,521,521,521,521,521,521,521,521,521,521,521,521,521,521,521,521,521,521,521,521,521,513,500,476,426,376,279,255,237,228,223,222,222,222,222,222,222,222,222,222,222,222,222,221,221,221,221,221,221,221,221,221,221,221,221,221,221,221,221,221,221,221,221,221,221,221,221,210,200,187,173,146,133,123,116,111,99],"timestamp_mouse":[16,34,45,67,87,105,127,146,166,186,206,227,247,266,285,306,327,346,366,385,405,426,445,465,485,505,526,545,566,585,605,626,645,665,685,705,725,746,765,785,805,825,846,866,886,905,926,947,966,985,1006,1026,1046,1065,1085,1105,1125,1147,1166,1186,1205,1225,1246,1266,1287,1305,1325,1345,1367,1387,1406,1426,1445,1466,1487,1506,1525,1546,1565,1586,1605,1625,1646,1665,1686,1705,1725,1746,1767,1787,1805,1825,1845,1866,1886,1906,1926,1945,1967,1986,2007],"xSR":741.5,"ySR":469.95,"xT1":424.9,"yT1":0,"xT2":1058.1,"yT2":0,"toosoon":0,"cond_shown":"equaldotsize","ratio_trial":900,"smaller_num":"9","larger_num":"10","correct_side":2,"subjID":"arielsantiagodiazmorales30","gender":"0","age":"12","school":"6"},{"start_time":1551801602909,"click_time":1551801604158,"finger_time":1551801603336,"fix_duration":250,"trial":46,"RT":427,"MT":822,"sideResp":2,"stimulus":"img/900/equaldotsize/R/15_Ratio_900_L_9_R_10.png","xmouse":[769,769,769,769,769,769,769,769,769,769,769,769,769,769,769,769,769,769,769,769,798,851,860,863,864,864,864,863,862,860,860,859,858,858,857,857,857,857,857,857,863,904,937,968,990,1006,1028,1031,1033,1036,1040,1054,1063,1072,1078,1083,1090,1094,1095,1097,1097,1099,1101],"ymouse":[538,538,538,538,538,538,538,538,538,538,538,538,538,538,538,538,538,538,538,532,477,361,340,328,323,320,318,317,317,317,316,313,313,312,311,311,311,311,311,306,300,273,255,239,228,218,203,200,198,195,191,176,167,156,147,136,121,112,106,104,102,100,97],"timestamp_mouse":[9,37,47,69,89,108,127,148,169,188,207,227,247,267,287,307,328,349,367,387,407,427,447,467,487,508,528,548,567,587,608,627,649,668,688,708,727,747,767,788,808,827,848,869,888,908,927,947,968,988,1008,1029,1047,1067,1088,1108,1127,1147,1167,1188,1208,1228,1248],"xSR":741.5,"ySR":469.95,"xT1":424.9,"yT1":0,"xT2":1058.1,"yT2":0,"toosoon":0,"cond_shown":"equaldotsize","ratio_trial":900,"smaller_num":"9","larger_num":"10","correct_side":2,"subjID":"arielsantiagodiazmorales30","gender":"0","age":"12","school":"6"},{"start_time":1551801606432,"click_time":1551801607596,"finger_time":1551801607137,"fix_duration":1313.5537051887052,"trial":47,"RT":705,"MT":459,"sideResp":1,"stimulus":"img/750/equaldotsize/L/1_Ratio_750_L_20_R_15.png","xmouse":[792,792,792,792,792,792,792,792,792,792,792,792,792,792,792,792,792,792,792,792,792,792,792,792,792,792,792,792,792,792,792,792,792,793,793,791,783,773,763,751,717,709,707,705,705,705,705,705,705,705,703,680,650,617,586,546,532,526,523],"ymouse":[503,503,503,503,503,503,503,503,503,503,503,503,503,503,503,503,503,503,503,503,503,503,503,503,503,503,503,503,503,503,503,503,503,496,483,435,406,375,344,317,262,250,247,244,244,244,244,244,244,244,239,208,169,131,96,61,51,48,47],"timestamp_mouse":[8,31,44,64,85,105,125,145,165,185,204,224,245,265,284,305,324,344,364,386,404,424,445,464,484,504,524,545,564,584,605,624,644,665,684,705,726,745,764,785,804,824,844,864,885,905,924,944,964,984,1004,1024,1044,1065,1085,1105,1125,1144,1164],"xSR":741.5,"ySR":469.95,"xT1":424.9,"yT1":0,"xT2":1058.1,"yT2":0,"toosoon":0,"cond_shown":"equaldotsize","ratio_trial":750,"smaller_num":"15","larger_num":"20","correct_side":1,"subjID":"arielsantiagodiazmorales30","gender":"0","age":"12","school":"6"},{"start_time":1551801610996,"click_time":1551801612136,"finger_time":1551801611818,"fix_duration":1238.6319247723416,"trial":48,"RT":822,"MT":318,"sideResp":1,"stimulus":"img/900/equaldotanddens/L/8_Ratio_900_L_20_R_18.png","xmouse":[792,792,792,792,792,792,792,792,792,792,792,792,792,792,792,792,792,792,792,792,792,792,792,792,792,792,792,792,792,792,792,792,792,792,792,792,792,792,792,792,784,755,683,644,619,600,586,566,561,557,554,548,531,525,521,518,515,509],"ymouse":[503,503,503,503,503,503,503,503,503,503,503,503,503,503,503,503,503,503,503,503,503,503,503,503,503,503,503,503,503,503,503,503,503,503,503,503,503,503,503,502,485,447,370,321,289,260,236,198,189,180,172,162,140,130,123,115,108,98],"timestamp_mouse":[9,21,42,61,81,101,122,140,161,182,200,220,241,261,281,301,320,340,360,380,401,422,440,460,482,500,520,540,561,582,600,620,640,661,680,700,720,740,761,781,800,822,840,861,881,901,920,941,960,980,1002,1021,1040,1061,1081,1101,1122,1140],"xSR":741.5,"ySR":469.95,"xT1":424.9,"yT1":0,"xT2":1058.1,"yT2":0,"toosoon":0,"cond_shown":"equaldotanddens","ratio_trial":900,"smaller_num":"18","larger_num":"20","correct_side":1,"subjID":"arielsantiagodiazmorales30","gender":"0","age":"12","school":"6"},{"start_time":1551801613327,"click_time":1551801614636,"finger_time":1551801613353,"fix_duration":250,"trial":49,"RT":26,"MT":1283,"sideResp":1,"stimulus":"img/500/randomdotsizeEA/L/4_Ratio_500_L_18_R_9.png","xmouse":[848,848,833,829,829,829,829,829,829,829,829,829,829,829,829,829,829,829,829,829,829,829,828,827,826,825,825,824,822,820,819,819,819,819,819,817,815,814,814,814,810,801,793,792,792,793,793,793,794,794,793,789,783,779,777,752,742,727,711,695,665,654,643,633,607,511],"ymouse":[470,470,462,461,460,460,460,460,460,460,460,460,460,460,460,460,460,460,460,460,460,460,460,464,473,487,492,500,508,514,518,518,518,518,518,523,528,528,528,528,525,516,499,482,472,471,471,471,470,468,462,456,447,441,438,403,389,372,358,345,320,309,293,269,207,41],"timestamp_mouse":[26,30,49,70,89,109,129,150,170,189,211,230,249,269,289,310,329,349,369,389,411,430,449,470,490,510,530,549,569,590,610,630,650,669,690,709,729,750,769,789,809,829,849,869,889,909,930,950,970,991,1009,1030,1050,1069,1089,1109,1130,1149,1169,1190,1209,1229,1249,1271,1290,1309],"xSR":741.5,"ySR":469.95,"xT1":424.9,"yT1":0,"xT2":1058.1,"yT2":0,"toosoon":0,"cond_shown":"randomdotsizeEA","ratio_trial":500,"smaller_num":"9","larger_num":"18","correct_side":1,"subjID":"arielsantiagodiazmorales30","gender":"0","age":"12","school":"6"},{"start_time":1551801616813,"click_time":1551801618057,"finger_time":1551801617697,"fix_duration":715.3697380016706,"trial":50,"RT":884,"MT":360,"sideResp":1,"stimulus":"img/750/equaldotsize/L/10_Ratio_750_L_4_R_3.png","xmouse":[817,817,817,817,817,817,817,817,817,817,816,815,815,815,815,815,815,815,815,815,815,815,815,815,815,815,815,815,815,815,815,815,815,815,815,815,815,815,814,811,809,799,797,796,794,790,781,771,759,744,728,688,678,670,664,661,652,642,627,605,577,530,521],"ymouse":[513,513,513,513,513,513,513,513,514,514,514,514,514,514,514,514,514,514,514,514,514,514,514,514,514,514,514,514,514,514,514,514,514,514,514,514,514,514,514,509,506,484,478,472,465,460,442,430,411,385,356,285,268,253,244,238,222,208,187,157,125,72,64],"timestamp_mouse":[8,33,43,64,85,103,124,144,164,183,203,223,244,263,284,303,323,344,363,383,403,423,443,463,484,505,523,543,564,584,604,623,643,664,683,703,723,745,764,783,803,823,845,864,884,904,924,944,963,984,1003,1023,1044,1063,1085,1105,1124,1143,1163,1183,1204,1223,1244],"xSR":741.5,"ySR":469.95,"xT1":424.9,"yT1":0,"xT2":1058.1,"yT2":0,"toosoon":0,"cond_shown":"equaldotsize","ratio_trial":750,"smaller_num":"3","larger_num":"4","correct_side":1,"subjID":"arielsantiagodiazmorales30","gender":"0","age":"12","school":"6"},{"start_time":1551801621553,"click_time":1551801622636,"finger_time":1551801621936,"fix_duration":1116.5216546022289,"trial":51,"RT":383,"MT":700,"sideResp":1,"stimulus":"img/750/equaldotsize/L/14_Ratio_750_L_8_R_6.png","xmouse":[812,812,812,812,812,812,812,812,812,812,812,812,812,812,812,812,812,805,785,725,707,704,704,704,704,704,704,704,710,714,714,714,714,714,714,714,714,714,714,708,696,668,625,578,551,551,551,551,551,551,551,551,551,551,516],"ymouse":[543,543,543,543,543,543,543,543,543,543,543,543,543,543,543,543,541,517,471,385,371,370,370,370,370,370,371,376,384,388,388,388,388,388,388,388,389,389,382,336,297,230,140,50,3,3,3,3,3,3,3,3,3,3,2],"timestamp_mouse":[9,28,44,63,84,103,124,144,164,183,204,225,244,263,284,303,323,345,363,383,403,423,444,463,483,503,523,543,565,583,604,623,644,664,683,705,723,744,764,783,804,823,844,864,884,905,923,943,963,984,1004,1024,1043,1064,1083],"xSR