[{"start_time":1551882882313,"click_time":1551882884019,"finger_time":1551882883318,"fix_duration":1350.053360904014,"trial":0,"RT":1005,"MT":701,"sideResp":2,"stimulus":"img/250/equaldotanddens/R/13_Ratio_250_L_2_R_8.png","xmouse":[761,761,761,761,761,761,761,761,761,761,761,761,761,761,761,761,761,761,761,761,761,761,761,761,761,761,761,761,761,761,761,761,761,761,761,761,761,761,761,761,761,761,761,761,761,761,763,770,807,832,857,894,958,1090,1142,1181,1204,1220,1231,1247,1247,1248,1249,1250,1248,1242,1221,1208,1198,1167,1156,1148,1144,1141,1144,1151,1152,1152,1150,1145,1144,1143,1143,1142,1141,1137],"ymouse":[531,531,531,531,531,531,531,531,531,531,531,531,531,531,531,531,531,531,531,531,531,531,531,531,531,531,531,531,531,531,531,531,531,531,531,531,531,531,531,531,531,531,531,531,531,531,529,517,486,483,480,476,454,355,314,303,300,296,295,293,293,291,288,279,270,263,244,235,221,169,153,140,133,124,119,112,110,108,105,104,104,103,103,103,101,99],"timestamp_mouse":[10,39,45,66,84,106,126,145,165,184,206,225,244,264,285,305,325,345,365,384,405,424,445,465,486,505,525,544,566,586,605,625,645,664,685,704,726,745,764,784,804,825,845,865,886,904,926,945,965,985,1005,1026,1046,1065,1084,1104,1124,1146,1165,1186,1205,1226,1245,1265,1285,1305,1325,1345,1366,1385,1405,1424,1444,1466,1486,1505,1525,1546,1565,1584,1605,1625,1644,1666,1685,1705],"xSR":737,"ySR":474.5,"xT1":422.2,"yT1":0,"xT2":1051.8,"yT2":0,"toosoon":0,"cond_shown":"equaldotanddens","ratio_trial":250,"smaller_num":"2","larger_num":"8","correct_side":2,"subjID":"Biancasofiagutierrez12","gender":"1","age":"11","school":"6","test":{"fix_dur":[250,1500],"timestim":300,"targets_dim":[100,100],"targets_relative_coord":[0.3,0.7],"size_stim":[880,420],"start_dim":[100,100],"size_start":[300,300],"size_fix":60,"samplingrate":20,"img_types":["equaldotsize","equaldotanddens","randomdotsizeEA"],"ratios":[250,500,750,900],"rep_conds":9,"nTrials":120,"trials_to_rest":500,"Trials_order":[13,80,12,83,99,40,70,46,2,49,1,106,89,11,19,94,86,14,42,6,23,28,48,56,69,44,107,90,109,92,54,38,62,117,67,51,84,88,85,115,31,73,39,53,93,78,63,110,64,22,15,3,25,30,118,20,7,5,87,58,36,4,41,72,100,45,57,60,75,61,37,21,59,77,65,76,50,29,66,98,119,111,16,103,95,102,27,26,10,43,24,47,33,113,81,96,32,97,82,35,18,112,108,91,0,17,104,114,52,8,55,101,79,74,34,116,105,68,9,71],"cond_shown":["equaldotanddens","randomdotsizeEA","equaldotsize","randomdotsizeEA","equaldotsize","equaldotanddens","equaldotanddens","equaldotanddens","randomdotsizeEA","equaldotanddens","equaldotanddens","equaldotanddens","randomdotsizeEA","randomdotsizeEA","equaldotanddens","equaldotanddens","randomdotsizeEA","randomdotsizeEA","equaldotsize","equaldotsize","randomdotsizeEA","equaldotanddens","equaldotsize","randomdotsizeEA","equaldotsize","randomdotsizeEA","randomdotsizeEA","equaldotsize","equaldotanddens","randomdotsizeEA","equaldotsize","randomdotsizeEA","randomdotsizeEA","equaldotsize","equaldotanddens","equaldotsize","equaldotsize","equaldotanddens","equaldotanddens","equaldotanddens","equaldotanddens","equaldotanddens","equaldotsize","randomdotsizeEA","equaldotsize","equaldotsize","equaldotsize","randomdotsizeEA","equaldotanddens","equaldotanddens","equaldotsize","equaldotsize","equaldotanddens","equaldotsize","equaldotanddens","randomdotsizeEA","equaldotanddens","randomdotsizeEA","equaldotsize","equaldotanddens","equaldotsize","equaldotanddens","randomdotsizeEA","equaldotsize","equaldotanddens","equaldotsize","equaldotsize","equaldotsize","equaldotsize","equaldotanddens","equaldotanddens","equaldotsize","randomdotsizeEA","randomdotsizeEA","randomdotsizeEA","equaldotanddens","randomdotsizeEA","randomdotsizeEA","equaldotsize","randomdotsizeEA","randomdotsizeEA","equaldotsize","equaldotanddens","equaldotanddens","randomdotsizeEA","equaldotsize","equaldotsize","randomdotsizeEA","equaldotanddens","equaldotanddens","equaldotsize","randomdotsizeEA","equaldotsize","randomdotsizeEA","equaldotsize","equaldotsize","randomdotsizeEA","equaldotanddens","equaldotanddens","randomdotsizeEA","equaldotsize","equaldotanddens","equaldotsize","equaldotanddens","equaldotsize","randomdotsizeEA","randomdotsizeEA","equaldotsize","equaldotanddens","randomdotsizeEA","equaldotanddens","randomdotsizeEA","equaldotanddens","randomdotsizeEA","equaldotanddens","randomdotsizeEA","equaldotsize","randomdotsizeEA","equaldotsize","randomdotsizeEA"],"ratio_trial":[250,750,250,900,500,500,900,900,250,250,250,900,500,900,750,900,250,250,750,750,900,500,250,750,900,750,900,750,250,750,750,250,250,900,750,500,250,500,250,750,750,250,500,500,900,750,500,250,500,900,500,500,250,750,900,750,750,500,500,900,250,500,500,250,500,900,900,250,500,250,250,900,900,500,500,500,250,500,750,250,900,500,500,750,900,750,500,250,900,750,250,900,900,500,900,250,750,250,900,900,750,500,250,750,250,500,750,750,500,750,750,500,750,250,900,750,900,750,900,900],"smaller_num":["2","15","4","9","4","6","18","9","1","3","2","18","2","18","3","9","3","3","9","15","18","4","2","6","18","15","18","15","3","3","15","2","6","9","6","2","3","9","2","3","15","3","9","10","18","15","1","1","1","9","9","9","4","6","18","3","15","5","1","18","5","2","2","3","2","18","18","3","2","6","4","18","9","1","5","9","6","1","6","2","9","6","2","15","18","3","9","4","18","3","2","9","18","9","18","6","15","2","9","18","15","1","6","18","4","10","18","15","5","3","3","4","15","3","18","15","18","3","18","18"],"larger_num":["8","20","16","10","8","12","20","10","4","12","8","20","4","20","4","10","12","12","12","20","20","8","8","8","20","20","20","20","12","4","20","8","24","10","8","4","12","18","8","4","20","12","18","20","20","20","2","4","2","10","18","18","16","8","20","4","20","10","2","20","20","4","4","12","4","20","20","12","4","24","16","20","10","2","10","18","24","2","8","8","10","12","4","20","20","4","18","16","20","4","8","10","20","18","20","24","20","8","10","20","20","2","24","24","16","20","24","20","10","4","4","8","20","12","20","20","20","4","20","20"],"correct_side":[2,1,2,1,1,1,2,2,2,1,2,1,1,2,1,2,2,1,2,2,1,1,1,2,1,2,1,2,2,1,2,1,1,2,1,1,2,1,1,2,1,1,2,2,2,2,2,2,2,2,2,1,1,2,1,2,1,1,2,1,2,1,1,2,1,1,2,2,1,2,2,1,1,2,1,2,2,2,1,1,2,1,1,2,1,2,2,2,1,1,1,2,1,1,2,2,1,1,1,1,2,2,2,1,1,2,1,2,2,1,1,1,1,2,2,1,2,1,1,1],"img_shown":["img/250/equaldotanddens/R/13_Ratio_250_L_2_R_8.png","img/750/randomdotsizeEA/L/1_Ratio_750_L_20_R_15.png","img/250/equaldotsize/R/10_Ratio_250_L_4_R_16.png","img/900/randomdotsizeEA/L/1_Ratio_900_L_10_R_9.png","img/500/equaldotsize/L/8_Ratio_500_L_8_R_4.png","img/500/equaldotanddens/L/11_Ratio_500_L_12_R_6.png","img/900/equaldotanddens/R/11_Ratio_900_L_18_R_20.png","img/900/equaldotanddens/R/7_Ratio_900_L_9_R_10.png","img/250/randomdotsizeEA/R/8_Ratio_250_L_1_R_4.png","img/250/equaldotanddens/L/15_Ratio_250_L_12_R_3.png","img/250/equaldotanddens/R/13_Ratio_250_L_2_R_8.png","img/900/equaldotanddens/L/4_Ratio_900_L_20_R_18.png","img/500/randomdotsizeEA/L/10_Ratio_500_L_4_R_2.png","img/900/randomdotsizeEA/R/11_Ratio_900_L_18_R_20.png","img/750/equaldotanddens/L/9_Ratio_750_L_4_R_3.png","img/900/equaldotanddens/R/3_Ratio_900_L_9_R_10.png","img/250/randomdotsizeEA/R/4_Ratio_250_L_3_R_12.png","img/250/randomdotsizeEA/L/15_Ratio_250_L_12_R_3.png","img/750/equaldotsize/R/15_Ratio_750_L_9_R_12.png","img/750/equaldotsize/R/5_Ratio_750_L_15_R_20.png","img/900/randomdotsizeEA/L/4_Ratio_900_L_20_R_18.png","img/500/equaldotanddens/L/8_Ratio_500_L_8_R_4.png","img/250/equaldotsize/L/1_Ratio_250_L_8_R_2.png","img/750/randomdotsizeEA/R/2_Ratio_750_L_6_R_8.png","img/900/equaldotsize/L/4_Ratio_900_L_20_R_18.png","img/750/randomdotsizeEA/R/3_Ratio_750_L_15_R_20.png","img/900/randomdotsizeEA/L/10_Ratio_900_L_20_R_18.png","img/750/equaldotsize/R/4_Ratio_750_L_15_R_20.png","img/250/equaldotanddens/R/9_Ratio_250_L_3_R_12.png","img/750/randomdotsizeEA/L/8_Ratio_750_L_4_R_3.png","img/750/equaldotsize/R/4_Ratio_750_L_15_R_20.png","img/250/randomdotsizeEA/L/7_Ratio_250_L_8_R_2.png","img/250/randomdotsizeEA/L/5_Ratio_250_L_24_R_6.png","img/900/equaldotsize/R/3_Ratio_900_L_9_R_10.png","img/750/equaldotanddens/L/14_Ratio_750_L_8_R_6.png","img/500/equaldotsize/L/10_Ratio_500_L_4_R_2.png","img/250/equaldotsize/R/4_Ratio_250_L_3_R_12.png","img/500/equaldotanddens/L/4_Ratio_500_L_18_R_9.png","img/250/equaldotanddens/L/1_Ratio_250_L_8_R_2.png","img/750/equaldotanddens/R/12_Ratio_750_L_3_R_4.png","img/750/equaldotanddens/L/1_Ratio_750_L_20_R_15.png","img/250/equaldotanddens/L/15_Ratio_250_L_12_R_3.png","img/500/equaldotsize/R/1_Ratio_500_L_9_R_18.png","img/500/randomdotsizeEA/R/3_Ratio_500_L_10_R_20.png","img/900/equaldotsize/R/13_Ratio_900_L_18_R_20.png","img/750/equaldotsize/R/4_Ratio_750_L_15_R_20.png","img/500/equaldotsize/R/15_Ratio_500_L_1_R_2.png","img/250/randomdotsizeEA/R/8_Ratio_250_L_1_R_4.png","img/500/equaldotanddens/R/15_Ratio_500_L_1_R_2.png","img/900/equaldotanddens/R/3_Ratio_900_L_9_R_10.png","img/500/equaldotsize/R/1_Ratio_500_L_9_R_18.png","img/500/equaldotsize/L/4_Ratio_500_L_18_R_9.png","img/250/equaldotanddens/L/2_Ratio_250_L_16_R_4.png","img/750/equaldotsize/R/2_Ratio_750_L_6_R_8.png","img/900/equaldotanddens/L/2_Ratio_900_L_20_R_18.png","img/750/randomdotsizeEA/R/12_Ratio_750_L_3_R_4.png","img/750/equaldotanddens/L/1_Ratio_750_L_20_R_15.png","img/500/randomdotsizeEA/L/7_Ratio_500_L_10_R_5.png","img/500/equaldotsize/R/12_Ratio_500_L_1_R_2.png","img/900/equaldotanddens/L/10_Ratio_900_L_20_R_18.png","img/250/equaldotsize/R/12_Ratio_250_L_5_R_20.png","img/500/equaldotanddens/L/10_Ratio_500_L_4_R_2.png","img/500/randomdotsizeEA/L/10_Ratio_500_L_4_R_2.png","img/250/equaldotsize/R/9_Ratio_250_L_3_R_12.png","img/500/equaldotanddens/L/5_Ratio_500_L_4_R_2.png","img/900/equaldotsize/L/4_Ratio_900_L_20_R_18.png","img/900/equaldotsize/R/9_Ratio_900_L_18_R_20.png","img/250/equaldotsize/R/9_Ratio_250_L_3_R_12.png","img/500/equaldotsize/L/10_Ratio_500_L_4_R_2.png","img/250/equaldotanddens/R/6_Ratio_250_L_6_R_24.png","img/250/equaldotanddens/R/10_Ratio_250_L_4_R_16.png","img/900/equaldotsize/L/8_Ratio_900_L_20_R_18.png","img/900/randomdotsizeEA/L/1_Ratio_900_L_10_R_9.png","img/500/randomdotsizeEA/R/12_Ratio_500_L_1_R_2.png","img/500/randomdotsizeEA/L/7_Ratio_500_L_10_R_5.png","img/500/equaldotanddens/R/6_Ratio_500_L_9_R_18.png","img/250/randomdotsizeEA/R/6_Ratio_250_L_6_R_24.png","img/500/randomdotsizeEA/R/15_Ratio_500_L_1_R_2.png","img/750/equaldotsize/L/14_Ratio_750_L_8_R_6.png","img/250/randomdotsizeEA/L/3_Ratio_250_L_8_R_2.png","img/900/randomdotsizeEA/R/7_Ratio_900_L_9_R_10.png","img/500/equaldotsize/L/13_Ratio_500_L_12_R_6.png","img/500/equaldotanddens/L/10_Ratio_500_L_4_R_2.png","img/750/equaldotanddens/R/3_Ratio_750_L_15_R_20.png","img/900/randomdotsizeEA/L/4_Ratio_900_L_20_R_18.png","img/750/equaldotsize/R/7_Ratio_750_L_3_R_4.png","img/500/equaldotsize/R/1_Ratio_500_L_9_R_18.png","img/250/randomdotsizeEA/R/10_Ratio_250_L_4_R_16.png","img/900/equaldotanddens/L/4_Ratio_900_L_20_R_18.png","img/750/equaldotanddens/L/8_Ratio_750_L_4_R_3.png","img/250/equaldotsize/L/3_Ratio_250_L_8_R_2.png","img/900/randomdotsizeEA/R/5_Ratio_900_L_9_R_10.png","img/900/equaldotsize/L/8_Ratio_900_L_20_R_18.png","img/500/randomdotsizeEA/L/4_Ratio_500_L_18_R_9.png","img/900/equaldotsize/R/9_Ratio_900_L_18_R_20.png","img/250/equaldotsize/R/6_Ratio_250_L_6_R_24.png","img/750/randomdotsizeEA/L/1_Ratio_750_L_20_R_15.png","img/250/equaldotanddens/L/3_Ratio_250_L_8_R_2.png","img/900/equaldotanddens/L/1_Ratio_900_L_10_R_9.png","img/900/randomdotsizeEA/L/4_Ratio_900_L_20_R_18.png","img/750/equaldotsize/R/3_Ratio_750_L_15_R_20.png","img/500/equaldotanddens/R/12_Ratio_500_L_1_R_2.png","img/250/equaldotsize/R/6_Ratio_250_L_6_R_24.png","img/750/equaldotanddens/L/6_Ratio_750_L_24_R_18.png","img/250/equaldotsize/L/2_Ratio_250_L_16_R_4.png","img/500/randomdotsizeEA/R/3_Ratio_500_L_10_R_20.png","img/750/randomdotsizeEA/L/6_Ratio_750_L_24_R_18.png","img/750/equaldotsize/R/4_Ratio_750_L_15_R_20.png","img/500/equaldotanddens/R/14_Ratio_500_L_5_R_10.png","img/750/randomdotsizeEA/L/10_Ratio_750_L_4_R_3.png","img/750/equaldotanddens/L/10_Ratio_750_L_4_R_3.png","img/500/randomdotsizeEA/L/8_Ratio_500_L_8_R_4.png","img/750/equaldotanddens/L/1_Ratio_750_L_20_R_15.png","img/250/randomdotsizeEA/R/4_Ratio_250_L_3_R_12.png","img/900/equaldotanddens/R/11_Ratio_900_L_18_R_20.png","img/750/randomdotsizeEA/L/1_Ratio_750_L_20_R_15.png","img/900/equaldotsize/R/13_Ratio_900_L_18_R_20.png","img/750/randomdotsizeEA/L/9_Ratio_750_L_4_R_3.png","img/900/equaldotsize/L/10_Ratio_900_L_20_R_18.png","img/900/randomdotsizeEA/L/10_Ratio_900_L_20_R_18.png"],"Rat0":[["12_Ratio_0_L_9_R_0.png","13_Ratio_0_L_6_R_0.png","5_Ratio_0_L_2_R_0.png","6_Ratio_0_L_4_R_0.png","8_Ratio_0_L_6_R_0.png"],["1_Ratio_0_L_0_R_17.png","10_Ratio_0_L_0_R_22.png","11_Ratio_0_L_0_R_1.png","14_Ratio_0_L_0_R_24.png","15_Ratio_0_L_0_R_4.png","2_Ratio_0_L_0_R_5.png","3_Ratio_0_L_0_R_17.png","4_Ratio_0_L_0_R_7.png","7_Ratio_0_L_0_R_19.png","9_Ratio_0_L_0_R_15.png"]],"Rat250":[["1_Ratio_250_L_8_R_2.png","14_Ratio_250_L_12_R_3.png","15_Ratio_250_L_12_R_3.png","2_Ratio_250_L_16_R_4.png","3_Ratio_250_L_8_R_2.png","5_Ratio_250_L_24_R_6.png","7_Ratio_250_L_8_R_2.png"],["10_Ratio_250_L_4_R_16.png","11_Ratio_250_L_3_R_12.png","12_Ratio_250_L_5_R_20.png","13_Ratio_250_L_2_R_8.png","4_Ratio_250_L_3_R_12.png","6_Ratio_250_L_6_R_24.png","8_Ratio_250_L_1_R_4.png","9_Ratio_250_L_3_R_12.png"]],"Rat500":[["10_Ratio_500_L_4_R_2.png","11_Ratio_500_L_12_R_6.png","13_Ratio_500_L_12_R_6.png","4_Ratio_500_L_18_R_9.png","5_Ratio_500_L_4_R_2.png","7_Ratio_500_L_10_R_5.png","8_Ratio_500_L_8_R_4.png"],["1_Ratio_500_L_9_R_18.png","12_Ratio_500_L_1_R_2.png","14_Ratio_500_L_5_R_10.png","15_Ratio_500_L_1_R_2.png","2_Ratio_500_L_3_R_6.png","3_Ratio_500_L_10_R_20.png","6_Ratio_500_L_9_R_18.png","9_Ratio_500_L_2_R_4.png"]],"Rat750":[["1_Ratio_750_L_20_R_15.png","10_Ratio_750_L_4_R_3.png","13_Ratio_750_L_8_R_6.png","14_Ratio_750_L_8_R_6.png","6_Ratio_750_L_24_R_18.png","8_Ratio_750_L_4_R_3.png","9_Ratio_750_L_4_R_3.png"],["11_Ratio_750_L_12_R_16.png","12_Ratio_750_L_3_R_4.png","15_Ratio_750_L_9_R_12.png","2_Ratio_750_L_6_R_8.png","3_Ratio_750_L_15_R_20.png","4_Ratio_750_L_15_R_20.png","5_Ratio_750_L_15_R_20.png","7_Ratio_750_L_3_R_4.png"]],"Rat900":[["1_Ratio_900_L_10_R_9.png","10_Ratio_900_L_20_R_18.png","2_Ratio_900_L_20_R_18.png","4_Ratio_900_L_20_R_18.png","8_Ratio_900_L_20_R_18.png"],["11_Ratio_900_L_18_R_20.png","12_Ratio_900_L_18_R_20.png","13_Ratio_900_L_18_R_20.png","14_Ratio_900_L_18_R_20.png","15_Ratio_900_L_9_R_10.png","3_Ratio_900_L_9_R_10.png","5_Ratio_900_L_9_R_10.png","6_Ratio_900_L_9_R_10.png","7_Ratio_900_L_9_R_10.png","9_Ratio_900_L_18_R_20.png"]],"Rat1000":[["10_Ratio_1000_L_16_R_16.png","11_Ratio_1000_L_6_R_6.png","12_Ratio_1000_L_14_R_14.png","13_Ratio_1000_L_20_R_20.png","15_Ratio_1000_L_15_R_15.png","2_Ratio_1000_L_17_R_17.png","4_Ratio_1000_L_9_R_9.png","5_Ratio_1000_L_6_R_6.png","6_Ratio_1000_L_19_R_19.png","8_Ratio_1000_L_14_R_14.png","9_Ratio_1000_L_25_R_25.png"],["1_Ratio_1000_L_1_R_1.png","14_Ratio_1000_L_17_R_17.png","3_Ratio_1000_L_17_R_17.png","7_Ratio_1000_L_6_R_6.png"]]}},{"start_time":1551882885331,"click_time":1551882886679,"finger_time":1551882886178,"fix_duration":250,"trial":1,"RT":847,"MT":501,"sideResp":2,"stimulus":"img/750/randomdotsizeEA/L/1_Ratio_750_L_20_R_15.png","xmouse":[779,779,779,777,777,777,776,776,776,776,776,776,776,776,776,776,776,776,776,776,776,776,776,776,776,776,776,776,776,776,776,776,776,776,776,776,776,776,776,776,777,787,868,929,997,1103,1172,1248,1259,1263,1264,1264,1263,1260,1258,1256,1254,1254,1254,1254,1254,1253,1251,1238,1220,1191,1172,1138],"ymouse":[487,488,488,491,492,493,494,494,494,494,494,494,494,494,494,494,494,494,494,494,494,494,494,494,494,494,494,494,494,494,494,494,494,494,494,494,494,494,494,494,494,488,433,384,320,229,179,103,84,74,66,61,55,47,45,43,43,43,43,43,43,43,44,48,50,53,54,55],"timestamp_mouse":[9,28,46,67,87,107,128,147,167,188,207,227,248,267,288,308,327,347,368,386,408,427,447,466,488,507,527,547,568,587,607,628,648,668,686,707,727,746,766,787,807,828,847,867,886,907,928,947,966,986,1007,1027,1048,1068,1086,1108,1127,1148,1168,1187,1208,1226,1248,1266,1287,1308,1328,1347],"xSR":737,"ySR":442.65000000000003,"xT1":422.2,"yT1":0,"xT2":1051.8,"yT2":0,"toosoon":0,"cond_shown":"randomdotsizeEA","ratio_trial":750,"smaller_num":"15","larger_num":"20","correct_side":1,"subjID":"Biancasofiagutierrez12","gender":"1","age":"11","school":"6"},{"start_time":1551882891413,"click_time":1551882893578,"finger_time":1551882891678,"fix_duration":1173.9097616737035,"trial":2,"RT":265,"MT":1900,"sideResp":1,"stimulus":"img/250/equaldotsize/R/10_Ratio_250_L_4_R_16.png","xmouse":[829,829,829,829,834,837,837,837,837,837,837,837,837,838,838,838,838,838,838,838,838,838,838,838,838,838,838,838,838,838,838,838,838,838,838,836,828,824,824,824,824,822,814,785,773,765,761,759,757,757,757,757,757,757,757,757,757,757,757,759,759,759,759,759,760,763,768,769,770,770,770,770,770,770,770,770,770,771,772,772,772,772,772,772,772,772,772,772,772,772,772,772,772,763,755,751,748,745,723,632,602,541,491,475,475,473,468,463,445],"ymouse":[504,494,487,487,482,482,482,482,482,482,482,482,482,482,482,482,482,482,482,482,482,482,482,482,482,482,482,482,482,482,482,482,482,482,482,486,498,503,503,503,503,506,511,534,540,543,544,544,544,544,544,544,542,541,541,541,541,541,540,538,538,538,538,538,537,533,526,522,517,517,517,517,517,517,517,515,513,511,510,510,510,510,510,510,510,510,510,510,510,510,510,510,506,458,433,417,407,399,364,288,269,221,184,167,164,158,146,129,98],"timestamp_mouse":[4,24,48,65,85,105,126,146,164,184,206,226,245,265,285,304,325,345,365,385,405,425,445,465,485,504,526,544,564,585,605,625,645,666,685,705,725,746,766,785,805,824,846,866,885,905,925,945,965,985,1006,1024,1046,1065,1086,1105,1126,1145,1166,1184,1206,1226,1244,1264,1285,1306,1326,1345,1365,1386,1405,1425,1445,1465,1486,1506,1524,1546,1565,1585,1605,1626,1644,1664,1685,1705,1726,1746,1764,1784,1805,1825,1845,1865,1886,1905,1925,1946,1965,1985,2005,2026,2046,2066,2085,2105,2125,2145,2165],"xSR":737,"ySR":442.65000000000003,"xT1":422.2,"yT1":0,"xT2":1051.8,"yT2":0,"toosoon":0,"cond_shown":"equaldotsize","ratio_trial":250,"smaller_num":"4","larger_num":"16","correct_side":2,"subjID":"Biancasofiagutierrez12","gender":"1","age":"11","school":"6"},{"start_time":1551882896481,"click_time":1551882897659,"finger_time":1551882897278,"fix_duration":801.4457250780133,"trial":3,"RT":797,"MT":381,"sideResp":1,"stimulus":"img/900/randomdotsizeEA/L/1_Ratio_900_L_10_R_9.png","xmouse":[802,802,800,799,797,797,797,797,796,794,784,780,776,774,773,772,772,772,772,772,772,772,772,772,772,772,772,772,772,772,772,772,772,772,772,770,762,752,739,719,635,602,584,577,575,575,573,572,570,568,567,563,557,548,522,512,508,502,493],"ymouse":[487,487,487,487,487,487,487,487,487,488,496,501,506,508,509,511,511,511,511,511,511,511,511,511,511,511,511,511,511,511,511,511,511,512,512,509,489,471,451,426,333,301,274,257,247,233,227,220,216,211,207,203,197,186,163,152,142,119,93],"timestamp_mouse":[17,37,57,77,97,118,137,158,176,197,218,238,256,277,297,318,337,358,377,396,417,437,456,478,497,517,537,556,577,597,617,637,656,677,697,717,736,758,778,797,817,837,858,876,898,916,938,957,977,998,1017,1037,1056,1076,1098,1116,1138,1158,1178],"xSR":737,"ySR":442.65000000000003,"xT1":422.2,"yT1":0,"xT2":1051.8,"yT2":0,"toosoon":0,"cond_shown":"randomdotsizeEA","ratio_trial":900,"smaller_num":"9","larger_num":"10","correct_side":1,"subjID":"Biancasofiagutierrez12","gender":"1","age":"11","school":"6"},{"start_time":1551882899153,"click_time":1551882903918,"finger_time":1551882903537,"fix_duration":714.9224690693296,"trial":4,"RT":4384,"MT":381,"sideResp":1,"stimulus":"img/500/equaldotsize/L/8_Ratio_500_L_8_R_4.png","xmouse":[781,781,782,782,782,782,782,782,782,782,782,782,782,782,782,782,782,782,782,782,782,782,782,782,782,782,782,782,782,783,783,784,784,784,785,785,787,787,787,787,787,787,788,788,788,788,788,788,788,787,786,772,769,768,768,768,768,768,766,766,766,766,766,766,766,766,766,766,766,766,766,766,766,766,766,766,766,766,766,766,766,766,766,766,766,766,766,766,766,766,766,766,766,766,766,766,766,766,766,766,766,766,766,766,766,766,766,766,766,766,766,766,766,766,766,766,766,766,766,766,766,766,766,765,765,765,765,765,765,765,765,765,765,765,765,765,765,765,765,765,765,765,765,765,765,765,765,765,765,765,765,765,765,765,765,765,765,765,765,765,765,765,765,765,765,765,765,765,765,765,765,764,760,754,742,742,742,742,742,742,742,742,742,742,742,742,742,742,742,742,742,743,743,743,745,746,755,759,761,761,761,763,766,768,770,771,772,773,775,778,780,784,785,785,785,785,786,783,773,762,749,715,700,690,682,678,667,660,655,651,649,647,642,624,605,586,535,508,463],"ymouse":[493,493,493,493,493,493,493,493,493,493,493,493,493,493,493,493,493,493,493,493,493,493,493,493,493,493,493,493,493,489,487,485,485,485,484,483,477,476,476,476,476,476,475,475,475,475,475,475,475,475,476,493,494,495,495,495,495,495,496,496,496,496,496,496,496,496,497,497,497,497,497,497,497,497,497,497,497,497,497,497,497,497,497,497,497,497,497,497,497,497,497,497,497,497,497,497,497,497,497,497,497,497,497,497,497,497,497,497,497,497,497,497,497,497,497,497,497,497,497,497,497,497,497,498,498,498,498,498,498,498,498,498,498,498,498,498,498,498,498,498,498,498,498,498,498,498,498,498,498,498,498,498,498,498,498,498,498,498,498,498,498,498,498,498,498,498,498,498,498,498,498,498,498,499,504,504,504,504,504,504,504,504,504,504,504,504,504,504,504,504,504,504,504,504,504,504,502,501,500,500,500,500,500,500,500,500,500,500,500,500,500,500,500,500,500,500,494,480,459,435,414,373,353,333,303,283,251,241,234,230,227,224,218,207,197,185,150,127,94],"timestamp_mouse":[4,25,45,66,84,106,125,145,165,184,205,225,246,265,286,305,324,346,366,386,405,424,445,464,484,506,524,544,566,586,604,624,645,665,685,705,726,746,765,786,805,826,846,866,884,905,924,946,965,985,1006,1025,1046,1066,1085,1105,1126,1145,1164,1185,1206,1225,1246,1266,1286,1306,1324,1345,1365,1386,1406,1424,1446,1466,1485,1506,1526,1546,1565,1584,1606,1624,1644,1665,1685,1705,1726,1746,1765,1785,1804,1825,1845,1864,1885,1906,1925,1945,1965,1986,2006,2025,2045,2065,2085,2105,2124,2145,2166,2186,2206,2225,2244,2266,2284,2305,2326,2344,2364,2384,2405,2424,2446,2465,2484,2506,2524,2546,2566,2585,2605,2625,2645,2664,2686,2705,2725,2745,2765,2784,2806,2824,2845,2865,2884,2906,2925,2944,2965,2984,3006,3025,3045,3064,3086,3104,3126,3144,3164,3184,3206,3225,3245,3264,3286,3304,3324,3346,3365,3386,3404,3426,3444,3465,3484,3505,3526,3545,3565,3585,3606,3625,3644,3665,3686,3705,3726,3744,3764,3786,3805,3825,3846,3865,3884,3905,3925,3944,3965,3985,4005,4026,4045,4064,4085,4105,4126,4145,4165,4186,4206,4225,4245,4265,4284,4305,4325,4345,4366,4384,4406,4425,4444,4465,4485,4504,4526,4544,4565,4586,4604,4626,4645,4666,4686,4704,4725,4745,4765],"xSR":737,"ySR":442.65000000000003,"xT1":422.2,"yT1":0,"xT2":1051.8,"yT2":0,"toosoon":0,"cond_shown":"equaldotsize","ratio_trial":500,"smaller_num":"4","larger_num":"8","correct_side":1,"subjID":"Biancasofiagutierrez12","gender":"1","age":"11","school":"6"},{"start_time":1551882905777,"click_time":1551882907699,"finger_time":1551882906818,"fix_duration":817.322637228869,"trial":5,"RT":1041,"MT":881,"sideResp":1,"stimulus":"img/500/equaldotanddens/L/11_Ratio_500_L_12_R_6.png","xmouse":[809,809,809,809,809,809,809,808,807,807,807,807,807,807,807,807,807,807,807,807,807,807,807,805,798,793,791,791,791,791,791,791,791,791,791,802,804,811,814,814,815,815,815,815,815,815,815,815,815,815,818,824,843,852,858,863,863,863,863,863,863,863,863,860,853,838,833,829,824,823,821,820,818,817,814,774,736,691,637,586,530,530,530,530,530,530,530,530,530,530,530,530,530,530,530,530,459],"ymouse":[513,513,513,513,513,513,513,513,513,513,513,513,513,513,513,513,513,513,513,513,513,513,513,513,513,513,513,513,513,513,513,513,513,513,513,506,505,500,498,497,497,497,497,497,497,497,497,497,497,497,494,486,470,461,456,452,452,452,452,452,452,452,452,452,452,461,473,483,491,494,497,497,497,497,496,428,362,287,186,97,4,4,4,4,4,4,4,4,4,4,4,4,4,4,4,4,14],"timestamp_mouse":[8,20,44,62,82,101,121,141,161,181,202,221,241,261,281,302,321,340,362,380,401,421,440,461,481,501,522,542,561,582,601,620,641,660,681,702,721,741,762,782,800,821,841,860,881,900,922,940,961,981,1001,1021,1041,1062,1081,1101,1120,1140,1161,1182,1201,1221,1241,1261,1282,1301,1320,1341,1361,1380,1401,1422,1440,1461,1481,1502,1521,1542,1561,1581,1601,1622,1640,1661,1680,1701,1722,1742,1762,1782,1802,1821,1841,1861,1882,1901,1922],"xSR":737,"ySR":442.65000000000003,"xT1":422.2,"yT1":0,"xT2":1051.8,"yT2":0,"toosoon":0,"cond_shown":"equaldotanddens","ratio_trial":500,"smaller_num":"6","larger_num":"12","correct_side":1,"subjID":"Biancasofiagutierrez12","gender":"1","age":"11","school":"6"},{"start_time":1551882910134,"click_time":1551882911378,"finger_time":1551882911079,"fix_duration":956.1963060220014,"trial":6,"RT":945,"MT":299,"sideResp":2,"stimulus":"img/900/equaldotanddens/R/11_Ratio_900_L_18_R_20.png","xmouse":[797,797,797,797,797,797,797,797,797,797,797,797,797,797,797,797,797,797,797,797,797,797,797,797,797,797,797,797,797,797,797,797,797,797,797,794,792,790,789,789,789,789,789,789,789,793,809,855,881,904,922,945,986,1008,1031,1042,1050,1062,1067,1070,1075,1081,1087],"ymouse":[511,511,511,511,511,511,511,511,511,511,511,511,511,511,511,511,511,511,511,511,511,511,511,511,511,511,511,511,511,511,511,511,511,511,511,511,511,511,511,511,511,511,511,511,511,505,494,457,435,415,392,366,318,293,263,242,224,186,160,139,118,100,86],"timestamp_mouse":[9,25,45,65,85,104,123,144,165,184,204,224,244,265,284,303,325,344,363,385,405,423,445,463,485,504,524,545,565,583,603,625,644,665,684,705,723,744,764,783,804,825,844,864,883,905,925,944,963,984,1003,1025,1044,1064,1084,1104,1124,1144,1163,1183,1204,1224,1243],"xSR":737,"ySR":442.65000000000003,"xT1":422.2,"yT1":0,"xT2":1051.8,"yT2":0,"toosoon":0,"cond_shown":"equaldotanddens","ratio_trial":900,"smaller_num":"18","larger_num":"20","correct_side":2,"subjID":"Biancasofiagutierrez12","gender":"1","age":"11","school":"6"},{"start_time":1551882913018,"click_time":1551882914398,"finger_time":1551882913859,"fix_duration":618.7810165630997,"trial":7,"RT":841,"MT":539,"sideResp":1,"stimulus":"img/900/equaldotanddens/R/7_Ratio_900_L_9_R_10.png","xmouse":[780,780,780,780,780,780,780,780,780,780,780,780,780,780,780,780,780,780,780,780,780,780,780,780,780,780,780,780,780,780,780,780,780,780,780,780,780,780,780,780,779,775,771,749,713,674,633,599,580,570,567,564,561,547,539,535,534,534,534,534,534,532,531,529,528,527,526,524,523,522],"ymouse":[499,499,499,499,499,499,499,499,499,500,500,500,500,500,500,500,500,500,500,500,500,500,500,500,500,500,500,500,500,500,500,500,500,500,500,500,498,496,485,478,465,452,439,395,347,304,256,222,198,166,148,134,125,104,96,90,88,87,87,86,86,86,85,84,84,84,84,84,84,84],"timestamp_mouse":[1,20,41,61,81,100,121,141,160,180,200,221,240,261,279,300,320,340,361,381,399,421,441,460,481,500,520,539,559,581,601,619,641,660,680,701,721,739,761,781,800,820,841,861,879,900,921,940,959,980,1000,1019,1039,1061,1080,1100,1120,1140,1160,1180,1201,1220,1241,1260,1280,1300,1319,1340,1361,1380],"xSR":737,"ySR":442.65000000000003,"xT1":422.2,"yT1":0,"xT2":1051.8,"yT2":0,"toosoon":0,"cond_shown":"equaldotanddens","ratio_trial":900,"smaller_num":"9","larger_num":"10","correct_side":2,"subjID":"Biancasofiagutierrez12","gender":"1","age":"11","school":"6"},{"start_time":1551882917009,"click_time":1551882919177,"finger_time":1551882917058,"fix_duration":250,"trial":8,"RT":49,"MT":2119,"sideResp":2,"stimulus":"img/250/randomdotsizeEA/R/8_Ratio_250_L_1_R_4.png","xmouse":[750,740,735,732,732,731,731,731,731,731,731,731,731,731,731,731,731,731,740,747,751,754,757,758,758,758,758,758,758,758,758,758,758,758,758,758,758,758,758,758,758,758,758,758,758,758,758,758,758,758,758,758,758,758,758,758,758,758,758,758,761,762,763,772,778,783,786,788,792,793,793,794,794,794,794,794,794,794,794,794,794,794,794,794,794,795,802,815,857,872,908,940,966,1007,1019,1027,1029,1029,1031,1035,1039,1040,1041,1043,1046,1047,1053,1063,1070],"ymouse":[475,479,482,485,485,485,485,485,485,485,485,485,485,485,485,485,485,485,485,485,485,485,484,483,483,483,483,483,483,483,483,483,483,483,483,483,483,483,483,483,483,483,483,483,483,483,483,483,483,483,483,483,483,483,483,483,483,483,483,483,483,483,483,483,483,483,481,480,477,477,476,476,476,476,476,476,476,476,476,475,475,475,474,469,465,452,429,400,335,317,299,284,271,243,232,222,217,217,213,204,196,194,190,164,150,140,127,110,97],"timestamp_mouse":[10,29,49,69,88,108,128,148,168,189,208,229,249,268,289,309,328,348,368,388,409,428,448,469,488,509,529,549,568,588,608,628,648,668,689,708,728,748,769,789,808,828,848,868,888,908,928,948,969,988,1008,1028,1048,1069,1089,1109,1128,1149,1169,1188,1209,1229,1249,1269,1290,1309,1328,1348,1369,1388,1409,1429,1449,1468,1488,1509,1529,1548,1569,1589,1608,1629,1649,1669,1688,1709,1729,1748,1769,1788,1809,1828,1848,1869,1888,1909,1928,1948,1969,1988,2008,2028,2049,2068,2088,2108,2128,2149,2168],"xSR":737,"ySR":442.65000000000003,"xT1":422.2,"yT1":0,"xT2":1051.8,"yT2":0,"toosoon":0,"cond_shown":"randomdotsizeEA","ratio_trial":250,"smaller_num":"1","larger_num":"4","correct_side":2,"subjID":"Biancasofiagutierrez12","gender":"1","age":"11","school":"6"},{"start_time":1551882921385,"click_time":1551882922857,"finger_time":1551882922058,"fix_duration":1205.9624220433373,"trial":9,"RT":673,"MT":799,"sideResp":1,"stimulus":"img/250/equaldotanddens/L/15_Ratio_250_L_12_R_3.png","xmouse":[780,780,780,782,783,783,784,784,784,784,784,784,786,786,786,786,786,786,786,786,786,787,787,787,787,787,787,787,787,787,787,780,762,734,679,649,638,628,618,614,609,606,604,603,602,601,598,591,583,561,546,541,525,513,498,469,462,456,455,455,455,455,455,455,457,460,464,466,466,466,466,467,467,467],"ymouse":[484,484,484,485,486,486,487,487,487,487,487,487,488,488,488,488,488,488,488,488,488,489,489,489,489,489,489,489,489,489,489,482,457,422,343,299,279,256,231,209,179,170,167,166,166,164,162,157,152,137,126,123,115,111,107,102,101,101,101,101,101,101,101,101,101,101,100,100,100,100,100,100,100,99],"timestamp_mouse":[17,44,53,72,92,113,132,153,173,192,212,232,252,272,293,312,332,353,373,393,412,433,452,473,492,512,533,553,572,592,612,633,653,673,694,712,732,752,772,793,812,832,853,872,892,913,932,952,972,993,1012,1033,1053,1073,1093,1112,1132,1153,1173,1193,1213,1233,1253,1273,1292,1312,1332,1352,1373,1393,1412,1433,1452,1472],"xSR":737,"ySR":442.65000000000003,"xT1":422.2,"yT1":0,"xT2":1051.8,"yT2":0,"toosoon":0,"cond_shown":"equaldotanddens","ratio_trial":250,"smaller_num":"3","larger_num":"12","correct_side":1,"subjID":"Biancasofiagutierrez12","gender":"1","age":"11","school":"6"},{"start_time":1551882926113,"click_time":1551882927317,"finger_time":1551882926937,"fix_duration":933.1755090828639,"trial":10,"RT":824,"MT":380,"sideResp":2,"stimulus":"img/250/equaldotanddens/R/13_Ratio_250_L_2_R_8.png","xmouse":[775,775,775,774,774,774,774,774,774,774,774,774,774,774,774,774,774,774,774,774,774,774,774,774,772,772,772,772,772,772,772,772,770,770,769,769,769,769,769,777,796,818,836,863,874,885,887,892,907,917,933,951,969,985,1012,1030,1044,1053,1071,1082,1094],"ymouse":[476,476,476,476,476,476,476,476,476,476,476,476,476,476,476,476,476,476,476,476,476,476,476,476,476,476,476,476,476,476,476,476,476,476,476,476,476,476,476,468,452,426,405,368,353,338,329,317,292,278,256,235,213,196,168,151,143,135,121,110,96],"timestamp_mouse":[14,36,44,65,85,105,125,145,165,185,205,225,245,265,284,304,325,345,365,385,405,425,445,464,484,505,525,545,564,585,604,625,644,664,685,704,725,744,765,784,805,824,844,865,884,905,924,945,965,984,1004,1025,1045,1065,1084,1104,1125,1144,1165,1184,1204],"xSR":737,"ySR":442.65000000000003,"xT1":422.2,"yT1":0,"xT2":1051.8,"yT2":0,"toosoon":0,"cond_shown":"equaldotanddens","ratio_trial":250,"smaller_num":"2","larger_num":"8","correct_side":2,"subjID":"Biancasofiagutierrez12","gender":"1","age":"11","school":"6"},{"start_time":1551882929721,"click_time":1551882931418,"finger_time":1551882930478,"fix_duration":1143.239333813486,"trial":11,"RT":757,"MT":940,"sideResp":1,"stimulus":"img/900/equaldotanddens/L/4_Ratio_900_L_20_R_18.png","xmouse":[790,790,790,790,790,790,790,790,790,790,790,790,790,790,790,790,790,790,790,790,790,790,790,788,788,788,788,788,788,788,788,788,788,788,788,787,796,814,818,819,819,817,787,707,632,535,504,351,277,241,225,223,223,223,225,231,245,269,269,269,269,269,269,269,269,269,358,362,363,366,368,370,371,373,373,373,377,384,386,390,393,397,399,415,488],"ymouse":[490,490,490,490,490,490,490,490,490,490,490,490,490,490,490,490,490,490,490,490,490,490,490,490,490,490,490,490,490,490,490,490,490,490,490,486,467,433,416,403,392,383,351,303,260,221,207,127,90,65,54,47,44,37,34,25,16,1,1,1,1,1,1,1,1,1,1,7,10,14,17,20,21,24,24,24,24,24,25,25,25,25,25,28,42],"timestamp_mouse":[16,36,56,76,97,116,137,156,178,196,216,236,257,276,297,316,336,356,377,396,416,436,456,476,496,517,536,557,577,598,617,637,656,677,696,717,737,757,776,796,816,837,857,876,897,917,937,956,976,996,1017,1037,1056,1076,1096,1117,1137,1156,1176,1197,1217,1236,1256,1276,1296,1316,1337,1357,1376,1397,1416,1436,1456,1477,1497,1516,1536,1557,1576,1596,1616,1637,1656,1677,1696],"xSR":737,"ySR":442.65000000000003,"xT1":422.2,"yT1":0,"xT2":1051.8,"yT2":0,"toosoon":0,"cond_shown":"equaldotanddens","ratio_trial":900,"smaller_num":"18","larger_num":"20","correct_side":1,"subjID":"Biancasofiagutierrez12","gender":"1","age":"11","school":"6"},{"start_time":1551882933351,"click_time":1551882934638,"finger_time":1551882934217,"fix_duration":793.8789467812735,"trial":12,"RT":866,"MT":421,"sideResp":2,"stimulus":"img/500/randomdotsizeEA/L/10_Ratio_500_L_4_R_2.png","xmouse":[795,795,796,797,797,797,797,797,797,798,798,798,798,799,799,799,799,799,799,799,799,799,799,799,799,800,800,800,800,800,800,800,800,800,800,800,800,800,800,800,801,805,816,841,859,874,903,915,930,931,957,1017,1031,1054,1065,1071,1078,1080,1080,1082,1084,1085,1085,1085,1085],"ymouse":[466,466,467,468,468,468,468,468,469,469,469,470,471,471,471,471,471,471,472,472,472,473,473,473,473,473,473,473,474,474,474,475,475,475,475,475,475,475,475,475,476,470,458,428,410,395,361,347,330,329,308,266,250,217,196,179,153,147,147,142,135,119,111,104,97],"timestamp_mouse":[6,26,46,66,87,108,126,147,167,186,206,227,246,266,286,306,327,347,367,387,406,426,446,466,486,507,527,547,566,587,606,626,646,668,686,707,726,747,766,786,807,827,846,866,886,907,927,946,966,987,1006,1027,1046,1066,1087,1107,1127,1146,1167,1186,1207,1227,1246,1266,1286],"xSR":737,"ySR":442.65000000000003,"xT1":422.2,"yT1":0,"xT2":1051.8,"yT2":0,"toosoon":0,"cond_shown":"randomdotsizeEA","ratio_trial":500,"smaller_num":"2","larger_num":"4","correct_side":1,"subjID":"Biancasofiagutierrez12","gender":"1","age":"11","school":"6"},{"start_time":1551882939010,"click_time":1551882939997,"finger_time":1551882939398,"fix_duration":711.9690016072435,"trial":13,"RT":388,"MT":599,"sideResp":1,"stimulus":"img/900/randomdotsizeEA/R/11_Ratio_900_L_18_R_20.png","xmouse":[766,766,766,767,767,767,767,767,767,767,768,773,777,779,779,779,779,779,780,780,780,772,764,745,736,727,718,717,716,716,716,716,717,717,717,715,712,701,680,639,618,615,611,598,587,575,562,548,535,520],"ymouse":[501,501,501,500,500,500,500,500,500,500,495,481,468,459,455,455,455,455,443,432,421,401,387,357,345,336,326,324,322,320,319,315,314,309,302,289,278,260,239,208,195,192,185,164,148,132,114,95,76,43],"timestamp_mouse":[8,28,49,67,88,107,127,149,167,187,208,227,248,267,288,307,327,347,368,388,407,427,448,468,487,508,527,547,567,587,608,627,647,668,687,707,729,747,768,788,809,827,847,868,887,907,928,948,967,987],"xSR":737,"ySR":442.65000000000003,"xT1":422.2,"yT1":0,"xT2":1051.8,"yT2":0,"toosoon":0,"cond_shown":"randomdotsizeEA","ratio_trial":900,"smaller_num":"18","larger_num":"20","correct_side":2,"subjID":"Biancasofiagutierrez12","gender":"1","age":"11","school":"6"},{"start_time":1551882943489,"click_time":1551882948217,"finger_time":1551882947678,"fix_duration":910.2264344533622,"trial":14,"RT":4189,"MT":539,"sideResp":2,"stimulus":"img/750/equaldotanddens/L/9_Ratio_750_L_4_R_3.png","xmouse":[763,763,763,763,763,763,763,763,763,763,763,763,763,763,763,763,763,763,763,763,763,763,763,763,763,763,763,763,763,763,763,763,763,763,764,764,764,764,764,764,764,764,764,764,764,764,764,764,764,764,764,764,764,764,764,764,764,765,765,765,765,765,765,765,765,765,765,765,765,765,765,765,765,765,765,765,765,765,765,765,765,765,765,765,765,765,765,765,765,765,765,765,765,765,765,765,765,765,765,765,765,765,765,765,765,765,765,765,765,765,765,765,765,765,765,765,765,765,765,765,765,765,765,765,765,765,765,765,765,765,765,765,765,765,765,765,765,765,765,765,766,766,767,767,767,768,768,768,768,768,768,768,768,769,770,771,771,772,774,774,774,774,774,774,774,774,774,774,774,774,774,774,774,774,774,774,774,772,772,772,772,772,772,772,772,772,772,772,771,771,771,771,771,771,771,771,771,771,771,771,771,770,770,770,772,773,775,778,783,797,806,813,821,828,849,861,862,877,890,927,943,964,977,986,995,995,995,995,995,995,995,997,1003,1011,1030,1048,1057],"ymouse":[513,513,513,513,513,513,513,513,513,513,513,513,513,513,513,513,513,513,513,513,513,513,513,513,513,513,513,513,513,513,513,513,513,513,513,512,511,511,511,511,511,511,511,511,511,511,511,511,511,511,511,511,511,511,511,511,511,510,510,510,510,510,510,510,510,510,510,510,510,510,510,510,510,510,510,510,510,510,510,510,510,510,510,510,510,510,510,510,510,510,510,510,510,510,510,510,510,510,510,510,510,510,510,510,510,510,510,510,510,510,510,510,510,510,510,510,510,510,510,510,510,510,510,510,510,510,510,510,510,510,510,510,510,510,510,510,510,510,510,510,510,510,511,511,511,511,511,511,511,511,511,511,511,511,511,512,512,512,512,512,512,512,512,512,512,512,512,512,512,512,512,512,512,512,512,512,512,512,512,512,512,512,512,512,512,512,512,512,512,512,512,512,512,512,512,512,512,512,512,512,512,510,507,502,494,490,482,474,463,437,423,408,393,381,352,336,334,316,305,285,271,250,228,207,174,164,156,154,153,149,147,140,131,120,99,85,79],"timestamp_mouse":[8,36,48,68,88,109,128,148,168,189,209,228,248,268,288,309,328,348,368,389,408,429,449,468,488,509,528,548,568,588,609,628,648,668,689,708,728,748,768,788,809,829,848,869,889,910,928,948,968,988,1009,1030,1048,1068,1088,1108,1128,1148,1168,1188,1209,1228,1248,1269,1289,1308,1328,1349,1369,1388,1408,1430,1449,1468,1489,1509,1529,1548,1568,1588,1609,1628,1648,1668,1690,1709,1728,1750,1769,1789,1809,1829,1849,1868,1888,1909,1928,1949,1968,1988,2009,2029,2049,2069,2088,2109,2128,2149,2168,2189,2209,2228,2248,2268,2289,2309,2329,2348,2369,2389,2408,2429,2448,2468,2489,2508,2528,2549,2568,2589,2609,2628,2648,2669,2688,2709,2729,2749,2769,2788,2809,2828,2849,2869,2888,2908,2928,2949,2969,2989,3009,3028,3049,3068,3089,3109,3129,3148,3168,3188,3209,3229,3249,3268,3288,3309,3329,3349,3369,3389,3409,3429,3448,3469,3489,3510,3528,3548,3568,3589,3609,3628,3648,3669,3690,3708,3729,3750,3768,3788,3808,3828,3849,3869,3888,3909,3928,3948,3968,3988,4009,4029,4050,4069,4089,4108,4128,4148,4168,4189,4208,4229,4248,4269,4289,4308,4328,4348,4368,4389,4408,4428,4448,4469,4489,4508,4528,4548,4568,4589,4608,4629,4649,4669,4688,4708,4728],"xSR":737,"ySR":442.65000000000003,"xT1":422.2,"yT1":0,"xT2":1051.8,"yT2":0,"toosoon":0,"cond_shown":"equaldotanddens","ratio_trial":750,"smaller_num":"3","larger_num":"4","correct_side":1,"subjID":"Biancasofiagutierrez12","gender":"1","age":"11","school":"6"},{"start_time":1551882952738,"click_time":1551882953778,"finger_time":1551882953518,"fix_duration":1139.127050744126,"trial":15,"RT":780,"MT":260,"sideResp":2,"stimulus":"img/900/equaldotanddens/R/3_Ratio_900_L_9_R_10.png","xmouse":[769,769,769,769,771,772,773,776,777,777,777,777,777,777,777,777,777,776,775,775,775,774,774,774,774,774,774,774,774,774,774,774,773,772,770,767,765,766,773,790,820,849,906,938,953,958,959,960,963,976,1008,1055],"ymouse":[501,501,501,501,501,501,501,501,501,501,501,501,501,501,501,501,501,501,501,500,500,499,499,499,499,499,499,499,499,499,499,498,496,496,491,485,476,446,423,382,329,287,228,185,157,135,117,114,110,103,94,86],"timestamp_mouse":[19,39,59,80,100,120,139,161,179,200,219,239,259,280,299,320,339,360,379,399,419,440,459,479,499,520,540,559,579,599,619,639,659,679,699,720,740,760,780,800,819,840,860,879,899,920,940,959,979,999,1019,1040],"xSR":737,"ySR":442.65000000000003,"xT1":422.2,"yT1":0,"xT2":1051.8,"yT2":0,"toosoon":0,"cond_shown":"equaldotanddens","ratio_trial":900,"smaller_num":"9","larger_num":"10","correct_side":2,"subjID":"Biancasofiagutierrez12","gender":"1","age":"11","school":"6"},{"start_time":1551882956729,"click_time":1551882958438,"finger_time":1551882957597,"fix_duration":250,"trial":16,"RT":868,"MT":841,"sideResp":1,"stimulus":"img/250/randomdotsizeEA/R/4_Ratio_250_L_3_R_12.png","xmouse":[784,784,784,784,784,784,784,784,784,784,784,784,784,784,784,784,784,784,784,784,784,784,784,784,784,784,784,784,784,784,784,784,784,784,784,784,784,783,781,780,776,768,748,730,685,654,624,603,601,598,597,592,569,551,545,537,536,534,534,534,534,534,534,534,534,534,534,534,534,534,534,534,534,534,534,534,534,534,534,534,534,534,533,532,528,522],"ymouse":[492,493,493,493,493,493,493,493,494,494,494,494,494,495,495,495,495,495,495,496,496,496,496,496,496,496,496,496,496,496,496,496,496,496,496,496,496,497,497,496,493,487,461,417,337,293,256,215,200,183,171,150,92,64,55,43,39,38,37,37,37,37,37,37,37,37,37,37,37,37,37,37,37,37,37,37,37,37,37,37,37,37,37,39,43,45],"timestamp_mouse":[9,29,48,69,89,108,128,148,180,189,209,230,248,268,288,308,328,348,368,389,409,428,448,469,488,509,529,549,568,588,608,628,649,668,689,709,729,749,769,788,808,830,849,868,889,909,928,949,968,988,1008,1029,1049,1068,1088,1109,1129,1149,1169,1188,1208,1228,1249,1268,1288,1309,1329,1349,1369,1389,1408,1430,1449,1469,1488,1508,1528,1548,1569,1588,1609,1628,1648,1668,1689,1709],"xSR":737,"ySR":442.65000000000003,"xT1":422.2,"yT1":0,"xT2":1051.8,"yT2":0,"toosoon":0,"cond_shown":"randomdotsizeEA","ratio_trial":250,"smaller_num":"3","larger_num":"12","correct_side":2,"subjID":"Biancasofiagutierrez12","gender":"1","age":"11","school":"6"},{"start_time":1551882964522,"click_time":1551882965818,"finger_time":1551882965597,"fix_duration":883.3095290885925,"trial":17,"RT":1075,"MT":221,"sideResp":1,"stimulus":"img/250/randomdotsizeEA/L/15_Ratio_250_L_12_R_3.png","xmouse":[784,784,784,784,784,784,784,784,784,784,784,784,784,784,784,784,784,784,784,784,784,784,784,784,784,784,784,784,784,784,784,784,784,784,784,784,784,784,784,784,784,784,784,784,784,784,784,784,783,780,773,762,754,726,668,621,575,508,488,479,471,470,456,446,435],"ymouse":[479,479,479,479,479,479,479,479,479,479,479,479,479,479,479,479,479,479,479,479,479,479,479,479,479,479,479,479,479,479,479,479,479,479,479,479,479,479,479,479,479,479,479,479,479,479,479,479,480,480,474,461,446,393,324,281,240,176,158,144,135,133,112,101,90],"timestamp_mouse":[15,39,55,76,96,116,135,156,175,195,216,236,256,276,295,316,335,355,376,396,416,436,455,476,497,516,535,555,575,595,616,635,655,675,696,716,736,755,775,795,816,835,855,876,895,915,935,956,975,995,1015,1035,1055,1075,1095,1116,1135,1157,1175,1196,1216,1235,1256,1275,1295],"xSR":737,"ySR":442.65000000000003,"xT1":422.2,"yT1":0,"xT2":1051.8,"yT2":0,"toosoon":0,"cond_shown":"randomdotsizeEA","ratio_trial":250,"smaller_num":"3","larger_num":"12","correct_side":1,"subjID":"Biancasofiagutierrez12","gender":"1","age":"11","school":"6"},{"start_time":1551882966889,"click_time":1551882968818,"finger_time":1551882967738,"fix_duration":250,"trial":18,"RT":849,"MT":1080,"sideResp":2,"stimulus":"img/750/equaldotsize/R/15_Ratio_750_L_9_R_12.png","xmouse":[790,790,790,790,790,790,790,790,790,790,790,790,790,790,790,790,790,790,790,790,790,790,790,790,790,790,790,790,790,790,790,790,790,790,790,790,790,790,790,778,770,761,750,740,729,726,725,722,718,705,699,694,693,689,671,654,648,635,627,618,617,615,611,606,598,592,584,577,572,569,569,569,569,568,575,587,616,640,667,729,889,976,1026,1129,1230,1349,1360,1361,1361,1336,1313,1289,1267,1242,1218,1175,1151],"ymouse":[494,494,495,496,497,497,498,500,501,502,502,503,503,503,503,504,504,504,505,505,505,505,505,505,505,505,505,505,505,505,505,505,505,505,505,505,505,505,504,488,473,453,430,411,381,358,351,334,319,289,274,258,253,236,201,181,176,166,163,159,158,157,156,155,154,152,150,149,148,147,147,147,147,147,147,147,147,147,146,146,146,146,151,164,170,164,152,146,141,126,116,105,96,89,82,77,77],"timestamp_mouse":[9,36,48,68,88,108,128,148,169,188,208,228,249,269,288,308,328,350,369,389,409,430,449,468,488,508,529,549,569,589,609,628,649,669,689,708,730,749,768,789,809,829,849,869,889,908,929,949,968,989,1008,1028,1048,1069,1089,1108,1128,1148,1168,1189,1208,1228,1250,1269,1289,1308,1329,1349,1368,1389,1408,1428,1449,1468,1489,1508,1529,1548,1568,1588,1610,1628,1648,1668,1689,1709,1729,1748,1768,1789,1808,1829,1849,1869,1888,1909,1929],"xSR":737,"ySR":442.65000000000003,"xT1":422.2,"yT1":0,"xT2":1051.8,"yT2":0,"toosoon":0,"cond_shown":"equaldotsize","ratio_trial":750,"smaller_num":"9","larger_num":"12","correct_side":2,"subjID":"Biancasofiagutierrez12","gender":"1","age":"11","school":"6"},{"start_time":1551882971364,"click_time":1551882972579,"finger_time":1551882972337,"fix_duration":1385.215522051354,"trial":19,"RT":973,"MT":242,"sideResp":2,"stimulus":"img/750/equaldotsize/R/5_Ratio_750_L_15_R_20.png","xmouse":[780,780,780,780,780,780,780,780,780,780,780,780,780,780,780,780,780,780,780,780,780,780,780,780,780,780,780,780,780,780,780,780,780,780,780,780,780,780,780,780,780,780,782,785,789,799,812,837,879,912,943,987,1004,1011,1018,1032,1043,1058,1071,1089,1123],"ymouse":[495,495,495,495,495,495,495,495,495,495,495,495,495,495,495,495,495,495,495,495,495,495,495,495,495,495,495,495,495,495,495,495,495,495,495,495,495,495,495,495,495,494,490,489,486,478,468,452,428,407,380,337,302,284,266,237,222,206,192,168,80],"timestamp_mouse":[19,46,53,74,93,113,133,153,175,194,213,233,254,273,293,313,334,354,374,394,413,434,453,473,493,513,533,554,574,594,613,634,653,673,693,713,733,753,774,793,813,834,854,874,893,913,934,953,973,993,1013,1033,1054,1074,1093,1114,1133,1153,1174,1193,1215],"xSR":737,"ySR":442.65000000000003,"xT1":422.2,"yT1":0,"xT2":1051.8,"yT2":0,"toosoon":0,"cond_shown":"equaldotsize","ratio_trial":750,"smaller_num":"15","larger_num":"20","correct_side":2,"subjID":"Biancasofiagutierrez12","gender":"1","age":"11","school":"6"},{"start_time":1551882975193,"click_time":1551882976278,"finger_time":1551882975978,"fix_duration":1414.4951514103966,"trial":20,"RT":785,"MT":300,"sideResp":2,"stimulus":"img/900/randomdotsizeEA/L/4_Ratio_900_L_20_R_18.png","xmouse":[762,762,762,762,762,762,762,762,762,762,762,762,762,762,762,762,762,762,762,762,762,762,762,762,762,762,762,762,762,762,762,762,762,762,762,766,774,790,814,892,933,948,961,975,1008,1024,1033,1042,1049,1053,1062,1067,1076,1082,1094],"ymouse":[518,518,518,518,518,518,518,518,518,518,518,518,518,518,518,518,518,518,518,518,518,518,518,518,518,518,518,518,518,518,518,518,518,518,517,509,499,483,461,378,309,285,269,255,229,213,202,191,179,171,153,145,129,118,81],"timestamp_mouse":[9,24,48,64,85,104,124,144,164,184,204,224,245,264,284,305,324,344,364,385,404,425,444,464,485,504,524,544,564,584,604,624,644,664,684,705,726,744,764,785,804,824,846,864,885,904,924,945,964,985,1006,1024,1044,1065,1085],"xSR":737,"ySR":442.65000000000003,"xT1":422.2,"yT1":0,"xT2":1051.8,"yT2":0,"toosoon":0,"cond_shown":"randomdotsizeEA","ratio_trial":900,"smaller_num":"18","larger_num":"20","correct_side":1,"subjID":"Biancasofiagutierrez12","gender":"1","age":"11","school":"6"},{"start_time":1551882978890,"click_time":1551882983396,"finger_time":1551882982757,"fix_duration":1092.3941112841096,"trial":21,"RT":3867,"MT":639,"sideResp":1,"stimulus":"img/500/equaldotanddens/L/8_Ratio_500_L_8_R_4.png","xmouse":[780,780,780,780,780,780,780,780,780,780,780,780,780,780,780,780,780,780,780,780,780,780,780,780,780,780,780,780,780,780,780,780,780,780,780,780,780,780,780,780,780,780,780,780,780,780,780,780,780,780,780,780,780,780,780,780,780,780,780,780,780,780,780,781,781,782,784,784,784,784,784,783,783,783,783,783,783,783,783,783,783,783,783,783,783,783,783,783,783,783,783,783,783,783,783,783,783,783,783,783,783,783,783,783,783,782,782,782,782,782,782,782,782,782,782,782,782,782,782,781,781,781,781,781,780,780,780,780,780,780,780,780,780,780,780,780,780,780,780,779,779,779,779,779,779,779,779,779,779,779,779,779,778,778,778,778,777,777,776,776,776,776,776,776,776,776,776,776,776,776,776,776,776,775,775,775,775,775,775,775,775,775,775,775,775,775,775,775,773,771,767,761,757,745,699,684,671,666,665,665,665,665,665,665,665,665,665,665,665,665,654,636,622,613,609,607,598,583,562,531,524,520,518,515,506,495],"ymouse":[485,485,485,485,485,485,485,485,485,485,485,485,485,485,485,485,485,485,485,485,485,485,485,485,485,485,485,485,485,485,485,485,485,485,485,485,485,485,485,485,485,485,485,485,485,485,485,485,485,485,485,485,485,485,485,485,485,485,485,485,485,485,485,487,487,487,489,489,489,489,490,491,491,491,491,491,491,491,491,491,491,491,491,491,491,491,491,491,491,491,491,491,491,491,491,491,491,491,491,491,491,491,491,491,491,491,491,491,491,491,491,491,491,491,491,491,491,491,491,491,491,491,491,491,491,490,490,490,490,490,490,490,490,490,490,490,490,490,490,490,490,490,490,490,490,490,490,490,489,489,489,489,488,488,488,488,487,487,487,487,487,487,487,487,487,487,487,487,487,487,487,487,487,487,487,487,487,487,487,487,487,487,487,487,487,487,487,486,485,482,475,462,451,423,320,283,246,228,219,216,215,213,212,211,211,211,211,211,211,210,205,199,195,193,191,190,180,168,154,130,123,120,117,113,102,93],"timestamp_mouse":[7,27,46,66,86,106,126,146,166,186,206,226,246,265,286,305,327,346,367,387,407,427,447,467,486,507,526,546,566,586,606,626,646,666,686,706,726,746,766,786,806,826,846,866,886,906,926,946,966,986,1006,1026,1047,1066,1086,1106,1126,1146,1166,1187,1207,1226,1246,1267,1286,1307,1326,1346,1366,1387,1407,1426,1446,1466,1486,1507,1527,1547,1567,1586,1606,1626,1646,1667,1687,1706,1727,1746,1766,1787,1807,1827,1846,1866,1887,1907,1926,1946,1966,1986,2006,2026,2047,2066,2086,2106,2127,2146,2167,2186,2207,2227,2246,2267,2286,2307,2327,2347,2366,2387,2406,2426,2447,2466,2486,2507,2527,2547,2585,2587,2606,2626,2647,2667,2687,2706,2726,2746,2766,2786,2806,2826,2847,2866,2887,2906,2926,2947,2966,2986,3006,3026,3046,3066,3086,3107,3126,3147,3166,3186,3206,3226,3247,3266,3286,3307,3326,3346,3367,3386,3407,3426,3447,3467,3487,3507,3526,3546,3566,3586,3606,3626,3646,3666,3686,3706,3726,3746,3766,3787,3807,3827,3847,3867,3887,3906,3927,3946,3966,3987,4006,4027,4047,4066,4086,4107,4126,4146,4166,4186,4206,4226,4246,4266,4286,4306,4326,4346,4366,4387,4406,4426,4447,4466,4488,4506],"xSR":737,"ySR":442.65000000000003,"xT1":422.2,"yT1":0,"xT2":1051.8,"yT2":0,"toosoon":0,"cond_shown":"equaldotanddens","ratio_trial":500,"smaller_num":"4","larger_num":"8","correct_side":1,"subjID":"Biancasofiagutierrez12","gender":"1","age":"11","school":"6"},{"start_time":1551882984861,"click_time":1551882985997,"finger_time":1551882985516,"fix_duration":483.60140916975024,"trial":22,"RT":655,"MT":481,"sideResp":1,"stimulus":"img/250/equaldotsize/L/1_Ratio_250_L_8_R_2.png","xmouse":[787,787,787,787,787,787,787,787,787,787,787,787,787,787,787,787,787,787,787,787,787,787,787,787,787,787,787,787,787,787,785,777,770,762,754,745,729,720,712,685,655,653,652,652,652,650,647,645,641,630,600,586,570,556,545,533,519],"ymouse":[492,492,492,492,492,492,492,492,492,492,492,492,492,492,492,492,492,492,492,492,492,492,492,492,492,492,492,492,492,492,485,459,432,399,350,292,175,147,125,77,38,36,35,35,35,35,35,35,35,35,41,44,47,50,51,53,56],"timestamp_mouse":[15,35,55,76,95,115,135,155,175,196,215,236,256,275,295,316,336,355,375,396,416,435,456,475,495,515,536,555,576,596,616,636,655,675,695,715,735,755,776,796,816,835,855,876,895,916,935,956,975,995,1016,1035,1055,1076,1095,1115,1136],"xSR":737,"ySR":442.65000000000003,"xT1":422.2,"yT1":0,"xT2":1051.8,"yT2":0,"toosoon":0,"cond_shown":"equaldotsize","ratio_trial":250,"smaller_num":"2","larger_num":"8","correct_side":1,"subjID":"Biancasofiagutierrez12","gender":"1","age":"11","school":"6"},{"start_time":1551882988101,"click_time":1551882989397,"finger_time":1551882988777,"fix_duration":1382.7626130789643,"trial":23,"RT":676,"MT":620,"sideResp":1,"stimulus":"img/750/randomdotsizeEA/R/2_Ratio_750_L_6_R_8.png","xmouse":[776,776,776,776,776,776,776,776,776,776,776,776,776,776,776,776,776,776,776,776,776,776,776,776,776,776,776,776,776,776,776,776,780,805,825,862,896,918,943,946,947,947,947,947,947,941,930,919,911,902,900,899,899,899,899,899,899,899,879,845,772,677,581,486,482],"ymouse":[495,495,495,495,495,495,495,495,495,495,495,495,495,495,495,495,495,495,495,495,495,495,495,495,495,495,495,495,495,495,494,492,479,439,408,358,319,286,238,224,218,214,212,212,211,211,211,211,213,220,222,222,222,222,222,222,222,222,222,220,200,173,138,100,98],"timestamp_mouse":[15,41,55,76,96,115,136,156,175,195,215,235,256,275,296,316,336,355,375,395,416,436,455,476,495,515,535,555,575,595,615,634,656,676,695,715,735,755,776,795,815,835,855,876,895,916,936,955,975,995,1015,1036,1055,1075,1096,1115,1135,1156,1175,1195,1215,1235,1255,1276,1296],"xSR":737,"ySR":442.65000000000003,"xT1":422.2,"yT1":0,"xT2":1051.8,"yT2":0,"toosoon":0,"cond_shown":"randomdotsizeEA","ratio_trial":750,"smaller_num":"6","larger_num":"8","correct_side":2,"subjID":"Biancasofiagutierrez12","gender":"1","age":"11","school":"6"},{"start_time":1551882992553,"click_time":1551882994196,"finger_time":1551882993356,"fix_duration":1034.3105862436696,"trial":24,"RT":803,"MT":840,"sideResp":2,"stimulus":"img/900/equaldotsize/L/4_Ratio_900_L_20_R_18.png","xmouse":[786,790,793,798,798,798,798,798,798,798,798,798,798,798,798,798,798,798,798,798,798,798,798,798,798,798,798,798,798,798,798,798,798,798,798,798,798,799,813,836,862,897,907,911,914,915,917,917,921,925,930,938,968,1004,1036,1068,1090,1118,1123,1125,1126,1130,1139,1146,1153,1160,1167,1172,1173,1173,1173,1173,1173,1173,1173,1173,1173,1172,1169,1166,1163,1155,1146],"ymouse":[518,518,518,518,518,518,518,518,518,518,518,518,518,518,518,518,518,518,518,518,518,518,518,518,518,518,518,518,518,518,518,518,518,518,518,518,518,518,518,514,502,480,471,462,454,448,443,429,418,407,394,376,337,307,287,268,255,232,225,216,205,183,168,159,151,140,125,93,79,70,65,64,63,63,63,63,63,63,63,63,63,63,63],"timestamp_mouse":[3,23,44,63,83,103,123,143,163,183,203,223,243,263,284,303,323,343,363,383,403,423,443,463,483,503,523,543,564,583,604,624,643,664,683,704,723,744,764,784,803,824,842,863,884,903,923,943,964,983,1003,1024,1044,1064,1084,1103,1123,1144,1163,1183,1203,1224,1243,1263,1284,1303,1324,1344,1363,1383,1403,1423,1444,1464,1484,1503,1524,1543,1563,1583,1603,1623,1643],"xSR":737,"ySR":442.65000000000003,"xT1":422.2,"yT1":0,"xT2":1051.8,"yT2":0,"toosoon":0,"cond_shown":"equaldotsize","ratio_trial":900,"smaller_num":"18","larger_num":"20","correct_side":1,"subjID":"Biancasofiagutierrez12","gender":"1","age":"11","school":"6"},{"start_time":1551882996004,"click_time":1551882997237,"finger_time":1551882997116,"fix_duration":746.0443034090194,"trial":25,"RT":1112,"MT":121,"sideResp":1,"stimulus":"img/750/randomdotsizeEA/R/3_Ratio_750_L_15_R_20.png","xmouse":[764,764,763,761,761,761,761,761,761,761,761,761,761,761,761,761,761,761,761,761,761,761,761,761,761,761,761,761,761,761,761,761,761,761,761,761,761,761,761,761,761,761,761,761,761,761,761,761,761,761,761,761,761,761,755,728,680,615,543,513,508,495],"ymouse":[505,506,507,507,508,508,508,508,508,508,508,508,508,508,508,508,508,508,508,508,508,508,508,508,508,508,508,508,508,508,508,508,508,508,508,508,508,508,508,508,508,508,508,508,508,508,508,508,508,508,508,508,505,482,454,397,329,271,177,129,117,87],"timestamp_mouse":[13,33,57,73,93,112,132,152,173,193,212,233,252,272,292,312,333,352,372,392,413,433,452,472,493,512,532,552,573,592,612,632,652,673,692,712,733,752,772,792,813,833,852,872,892,912,933,952,972,992,1012,1032,1053,1073,1092,1112,1132,1153,1173,1192,1212,1233],"xSR":737,"ySR":442.65000000000003,"xT1":422.2,"yT1":0,"xT2":1051.8,"yT2":0,"toosoon":0,"cond_shown":"randomdotsizeEA","ratio_trial":750,"smaller_num":"15","larger_num":"20","correct_side":2,"subjID":"Biancasofiagutierrez12","gender":"1","age":"11","school":"6"},{"start_time":1551883000890,"click_time":1551883002337,"finger_time":1551883002037,"fix_duration":612.0444442168364,"trial":26,"RT":1147,"MT":300,"sideResp":1,"stimulus":"img/900/randomdotsizeEA/L/10_Ratio_900_L_20_R_18.png","xmouse":[812,812,812,812,812,806,800,793,793,793,793,793,793,793,793,793,793,793,793,793,793,793,793,793,793,793,793,793,793,793,793,793,793,793,793,793,793,793,793,793,793,793,793,793,793,793,793,793,793,793,793,793,793,791,789,768,743,725,703,687,663,641,622,607,597,587,584,582,581,564,548,526,507],"ymouse":[497,497,497,497,497,497,497,498,498,498,498,498,498,498,498,498,498,498,498,498,498,498,498,498,498,498,498,498,498,498,498,498,498,498,498,498,498,498,498,498,498,498,498,498,498,498,498,498,498,498,498,498,498,498,497,473,446,422,389,353,302,269,241,218,197,165,160,154,147,116,96,76,62],"timestamp_mouse":[8,36,46,67,87,106,126,147,166,186,207,226,246,267,288,306,326,347,366,389,406,426,446,466,486,506,527,546,566,586,606,625,647,667,687,706,726,746,766,787,806,826,846,866,887,906,927,946,967,986,1006,1026,1046,1066,1086,1106,1126,1147,1167,1186,1206,1226,1246,1266,1286,1306,1326,1347,1366,1387,1406,1426,1447],"xSR":737,"ySR":442.65000000000003,"xT1":422.2,"yT1":0,"xT2":1051.8,"yT2":0,"toosoon":0,"cond_shown":"randomdotsizeEA","ratio_trial":900,"smaller_num":"18","larger_num":"20","correct_side":1,"subjID":"Biancasofiagutierrez12","gender":"1","age":"11","school":"6"},{"start_time":1551883004268,"click_time":1551883005677,"finger_time":1551883005137,"fix_duration":931.6886347220473,"trial":27,"RT":869,"MT":540,"sideResp":2,"stimulus":"img/750/equaldotsize/R/4_Ratio_750_L_15_R_20.png","xmouse":[763,762,761,761,761,760,760,760,760,760,760,760,760,760,760,760,758,758,758,758,758,758,758,758,758,758,758,758,758,758,758,758,758,758,758,758,758,758,758,758,760,784,810,836,858,894,920,964,985,1005,1020,1034,1036,1037,1037,1039,1041,1043,1046,1047,1047,1049,1051,1055,1056,1060,1066,1068,1071,1073,1078],"ymouse":[501,502,503,503,503,504,504,504,505,505,505,505,505,505,505,505,505,505,505,505,505,505,505,505,505,505,505,505,505,505,505,505,505,505,505,505,505,505,505,505,502,476,454,428,403,358,329,293,277,265,254,235,230,225,222,215,212,205,198,188,173,150,142,135,134,128,115,109,103,100,95],"timestamp_mouse":[9,28,48,75,88,108,129,148,169,188,208,229,249,268,288,309,328,348,368,388,408,428,449,468,489,508,528,549,569,588,608,628,648,668,689,709,728,748,769,788,808,829,849,869,888,909,928,948,968,988,1008,1029,1048,1068,1088,1109,1128,1148,1169,1188,1208,1228,1249,1268,1288,1308,1328,1348,1369,1388,1409],"xSR":737,"ySR":442.65000000000003,"xT1":422.2,"yT1":0,"xT2":1051.8,"yT2":0,"toosoon":0,"cond_shown":"equaldotsize","ratio_trial":750,"smaller_num":"15","larger_num":"20","correct_side":2,"subjID":"Biancasofiagutierrez12","gender":"1","age":"11","school":"6"},{"start_time":1551883007266,"click_time":1551883008657,"finger_time":1551883007917,"fix_duration":528.8637894245802,"trial":28,"RT":651,"MT":740,"sideResp":2,"stimulus":"img/250/equaldotanddens/R/9_Ratio_250_L_3_R_12.png","xmouse":[817,817,817,817,817,817,817,817,817,817,817,817,817,817,812,795,784,777,770,768,768,768,768,768,768,768,768,768,769,774,802,830,868,915,953,1052,1153,1218,1255,1275,1288,1291,1291,1291,1291,1291,1291,1291,1291,1291,1291,1291,1291,1291,1229,1211,1210,1203,1197,1188,1180,1169,1167,1166,1162,1159,1154,1154,1154,1150],"ymouse":[517,517,517,517,517,517,517,517,517,517,517,517,517,517,517,517,517,517,517,517,517,517,517,517,517,517,517,517,515,509,474,443,409,375,349,276,190,135,96,68,33,20,13,6,2,2,2,2,2,2,2,2,2,2,1,12,14,20,24,31,36,44,44,46,46,46,47,47,47,47],"timestamp_mouse":[10,36,50,71,91,110,130,150,170,191,210,230,251,270,291,312,330,351,371,390,411,431,451,471,491,510,530,551,570,590,611,631,651,670,690,712,730,750,770,790,811,830,849,871,891,910,931,950,971,990,1010,1030,1050,1071,1090,1111,1130,1151,1171,1191,1210,1230,1250,1270,1290,1310,1330,1350,1370,1390],"xSR":737,"ySR":442.65000000000003,"xT1":422.2,"yT1":0,"xT2":1051.8,"yT2":0,"toosoon":0,"cond_shown":"equaldotanddens","ratio_trial":250,"smaller_num":"3","larger_num":"12","correct_side":2,"subjID":"Biancasofiagutierrez12","gender":"1","age":"11","school":"6"},{"start_time":1551883011812,"click_time":1551883013056,"finger_time":1551883012596,"fix_duration":533.4779058446132,"trial":29,"RT":784,"MT":460,"sideResp":2,"stimulus":"img/750/randomdotsizeEA/L/8_Ratio_750_L_4_R_3.png","xmouse":[775,775,775,775,775,775,775,775,775,775,775,775,775,775,775,775,775,775,775,776,776,776,777,778,778,778,778,778,778,778,778,778,778,778,778,778,778,781,808,884,913,983,1016,1048,1059,1069,1079,1088,1099,1102,1103,1105,1106,1107,1107,1107,1107,1106,1102,1096,1095,1094,1095],"ymouse":[495,495,495,495,495,495,495,495,495,495,495,495,495,495,495,495,495,495,495,495,495,495,495,495,495,495,495,495,495,495,495,495,495,495,495,495,495,495,483,443,426,381,350,311,293,274,256,240,218,208,205,192,185,181,178,174,170,163,151,122,113,104,99],"timestamp_mouse":[9,35,44,64,85,104,124,144,164,184,204,224,245,264,284,304,325,344,364,384,405,425,444,465,484,504,524,544,564,585,604,625,644,665,685,704,724,745,765,784,804,824,845,865,884,905,924,944,965,984,1004,1024,1045,1065,1084,1104,1124,1144,1164,1185,1205,1225,1243],"xSR":737,"ySR":442.65000000000003,"xT1":422.2,"yT1":0,"xT2":1051.8,"yT2":0,"toosoon":0,"cond_shown":"randomdotsizeEA","ratio_trial":750,"smaller_num":"3","larger_num":"4","correct_side":1,"subjID":"Biancasofiagutierrez12","gender":"1","age":"11","school":"6"},{"start_time":1551883014274,"click_time":1551883015377,"finger_time":1551883014936,"fix_duration":495.13160530757915,"trial":30,"RT":662,"MT":441,"sideResp":2,"stimulus":"img/750/equaldotsize/R/4_Ratio_750_L_15_R_20.png","xmouse":[759,759,759,759,759,759,759,759,759,759,759,759,759,759,759,759,759,759,759,759,759,759,759,759,759,759,759,760,763,767,774,800,824,846,866,888,934,948,960,978,1014,1031,1045,1058,1065,1074,1086,1089,1095,1100,1104,1105,1105,1105,1105,1105],"ymouse":[515,515,515,515,515,515,515,515,515,515,515,515,515,515,515,515,515,515,515,515,515,515,515,515,515,515,515,515,514,511,506,490,475,459,443,422,369,351,336,316,272,252,236,221,211,200,182,172,160,148,131,122,116,109,105,95],"timestamp_mouse":[10,34,42,62,82,102,123,142,162,182,203,223,242,262,282,302,322,342,362,382,402,422,442,462,482,502,522,542,562,582,602,622,642,662,682,702,722,743,762,782,803,822,842,863,882,902,922,942,962,982,1003,1022,1042,1062,1082,1102],"xSR":737,"ySR":442.65000000000003,"xT1":422.2,"yT1":0,"xT2":1051.8,"yT2":0,"toosoon":0,"cond_shown":"equaldotsize","ratio_trial":750,"smaller_num":"15","larger_num":"20","correct_side":2,"subjID":"Biancasofiagutierrez12","gender":"1","age":"11","school":"6"},{"start_time":1551883016739,"click_time":1551883018038,"finger_time":1551883017616,"fix_duration":582.0129677963919,"trial":31,"RT":877,"MT":422,"sideResp":1,"stimulus":"img/250/randomdotsizeEA/L/7_Ratio_250_L_8_R_2.png","xmouse":[796,793,788,785,784,783,781,778,776,775,773,772,772,772,771,771,771,771,771,771,771,771,771,771,771,771,774,778,782,783,785,794,796,796,796,796,795,795,795,795,795,793,786,776,771,762,742,733,722,704,679,641,628,615,604,593,549,523,504,491,487,487,486,481,474],"ymouse":[499,497,495,493,492,491,491,490,489,489,488,488,488,488,488,488,488,488,488,488,488,488,488,488,488,488,488,487,486,486,485,482,478,474,469,464,461,461,461,461,461,458,451,440,434,422,392,377,359,337,308,264,244,224,210,196,152,133,120,108,106,105,105,101,93],"timestamp_mouse":[17,37,57,78,97,118,138,157,177,198,218,237,258,277,297,317,338,357,377,397,417,437,457,477,498,518,538,557,577,598,617,638,657,677,697,718,738,757,777,798,817,837,857,877,897,918,942,957,978,997,1017,1039,1057,1078,1097,1118,1138,1156,1177,1197,1217,1238,1257,1277,1298],"xSR":737,"ySR":442.65000000000003,"xT1":422.2,"yT1":0,"xT2":1051.8,"yT2":0,"toosoon":0,"cond_shown":"randomdotsizeEA","ratio_trial":250,"smaller_num":"2","larger_num":"8","correct_side":1,"subjID":"Biancasofiagutierrez12","gender":"1","age":"11","school":"6"},{"start_time":1551883019249,"click_time":1551883020377,"finger_time":1551883019977,"fix_duration":250,"trial":32,"RT":728,"MT":400,"sideResp":1,"stimulus":"img/250/randomdotsizeEA/L/5_Ratio_250_L_24_R_6.png","xmouse":[791,791,791,791,791,791,791,791,791,791,791,791,791,791,791,791,791,791,791,791,791,791,791,791,791,791,791,791,791,791,791,787,784,781,773,762,726,708,672,652,643,633,625,620,616,615,606,595,590,587,584,578,576,564,546,530,496],"ymouse":[505,505,505,505,505,505,505,505,505,505,505,505,505,505,505,505,505,505,505,505,505,505,505,505,505,505,505,505,505,504,503,498,493,488,477,463,426,402,344,298,269,235,219,206,192,180,150,134,127,123,121,119,117,112,108,103,93],"timestamp_mouse":[9,27,48,68,88,107,128,148,167,188,208,228,247,268,288,307,327,347,367,388,407,427,447,468,488,508,527,548,568,587,608,628,647,667,687,708,728,747,768,787,808,829,847,867,887,908,929,947,967,987,1008,1028,1047,1067,1087,1107,1128],"xSR":737,"ySR":442.65000000000003,"xT1":422.2,"yT1":0,"xT2":1051.8,"yT2":0,"toosoon":0,"cond_shown":"randomdotsizeEA","ratio_trial":250,"smaller_num":"6","larger_num":"24","correct_side":1,"subjID":"Biancasofiagutierrez12","gender":"1","age":"11","school":"6"},{"start_time":1551883022166,"click_time":1551883023396,"finger_time":1551883022936,"fix_duration":787.9811090180044,"trial":33,"RT":770,"MT":460,"sideResp":2,"stimulus":"img/900/equaldotsize/R/3_Ratio_900_L_9_R_10.png","xmouse":[772,772,772,772,772,772,772,772,772,772,772,772,772,771,770,770,768,768,766,765,764,764,763,763,763,763,763,763,763,763,763,763,763,761,760,758,757,760,773,782,828,946,1000,1018,1036,1066,1079,1093,1107,1117,1126,1133,1134,1136,1136,1136,1136,1135,1135,1131,1126,1122],"ymouse":[495,495,495,495,495,495,495,495,495,495,495,495,495,497,497,498,498,499,499,500,501,501,501,502,502,502,502,502,502,502,502,502,502,501,497,489,467,451,432,422,389,301,257,241,228,208,201,193,186,178,172,162,159,153,149,144,141,137,132,122,107,97],"timestamp_mouse":[10,44,50,71,90,110,130,150,171,190,210,231,250,271,290,311,330,351,370,390,411,431,450,471,490,511,530,551,570,590,611,631,650,670,691,710,730,750,770,790,810,830,850,870,890,912,929,950,971,990,1011,1030,1049,1071,1091,1111,1130,1150,1170,1191,1211,1229],"xSR":737,"ySR":442.65000000000003,"xT1":422.2,"yT1":0,"xT2":1051.8,"yT2":0,"toosoon":0,"cond_shown":"equaldotsize","ratio_trial":900,"smaller_num":"9","larger_num":"10","correct_side":2,"subjID":"Biancasofiagutierrez12","gender":"1","age":"11","school":"6"},{"start_time":1551883025896,"click_time":1551883027536,"finger_time":1551883026656,"fix_duration":1477.8688020566294,"trial":34,"RT":760,"MT":880,"sideResp":1,"stimulus":"img/750/equaldotanddens/L/14_Ratio_750_L_8_R_6.png","xmouse":[802,802,802,802,802,802,802,802,802,802,802,802,802,802,802,802,802,802,802,802,802,802,802,802,802,802,802,802,802,802,802,802,802,802,802,802,802,802,807,850,898,962,1022,1071,1121,1184,1205,1211,1214,1218,1220,1220,1220,1220,1217,1204,1173,1147,1121,1066,1035,986,934,863,790,581,500,427,356,277,256,244,238,236,234,239,256,283,296,316,374,412,440],"ymouse":[480,480,480,480,480,480,480,480,480,480,480,480,480,480,480,480,480,480,480,480,480,480,480,480,480,480,480,480,480,480,480,480,480,480,480,478,466,450,435,401,374,336,305,274,245,200,181,173,166,155,150,146,142,140,133,128,121,115,112,112,112,112,112,112,112,112,112,112,112,100,93,88,85,83,73,65,59,54,50,48,44,44,44],"timestamp_mouse":[9,21,40,60,81,100,121,140,159,180,200,220,241,261,280,300,320,340,361,380,401,420,440,461,480,500,521,540,560,580,601,621,641,661,681,700,720,740,760,781,800,820,840,861,880,900,920,940,960,981,1000,1021,1041,1060,1081,1100,1120,1141,1160,1181,1199,1220,1240,1261,1280,1300,1320,1341,1360,1381,1400,1421,1440,1462,1481,1500,1520,1541,1561,1580,1601,1620,1640],"xSR":737,"ySR":442.65000000000003,"xT1":422.2,"yT1":0,"xT2":1051.8,"yT2":0,"toosoon":0,"cond_shown":"equaldotanddens","ratio_trial":750,"smaller_num":"6","larger_num":"8","correct_side":1,"subjID":"Biancasofiagutierrez12","gender":"1","age":"11","school":"6"},{"start_time":1551883030007,"click_time":1551883031196,"finger_time":1551883030896,"fix_duration":250,"trial":35,"RT":889,"MT":300,"sideResp":1,"stimulus":"img/500/equaldotsize/L/10_Ratio_500_L_4_R_2.png","xmouse":[810,810,810,808,805,803,799,795,792,791,791,791,791,791,791,789,788,788,788,786,785,784,783,783,782,782,782,781,781,781,781,780,780,780,780,779,779,777,775,770,765,759,752,738,703,685,665,654,641,637,632,627,619,578,556,544,537,535,526,501],"ymouse":[525,525,525,525,525,525,525,525,525,525,525,525,525,525,525,524,523,523,523,522,521,520,520,519,519,518,518,518,518,517,517,516,515,511,510,506,504,502,500,494,489,485,474,455,413,392,366,345,296,274,254,223,195,135,115,105,99,95,84,67],"timestamp_mouse":[9,41,50,70,89,109,130,149,170,189,210,229,250,269,289,310,329,351,369,389,409,429,449,470,489,509,529,549,569,589,609,630,650,670,690,710,729,750,769,789,809,830,849,869,889,909,929,950,971,989,1009,1030,1049,1071,1089,1109,1129,1149,1170,1189],"xSR":737,"ySR":442.65000000000003,"xT1":422.2,"yT1":0,"xT2":1051.8,"yT2":0,"toosoon":0,"cond_shown":"equaldotsize","ratio_trial":500,"smaller_num":"2","larger_num":"4","correct_side":1,"subjID":"Biancasofiagutierrez12","gender":"1","age":"11","school":"6"},{"start_time":1551883032368,"click_time":1551883033477,"finger_time":1551883033057,"fix_duration":250,"trial":36,"RT":689,"MT":420,"sideResp":2,"stimulus":"img/250/equaldotsize/R/4_Ratio_250_L_3_R_12.png","xmouse":[791,791,791,791,791,791,791,791,791,791,791,787,783,781,779,776,766,759,754,753,753,753,753,753,753,752,752,752,752,752,752,754,770,788,819,892,921,941,954,961,967,978,986,991,996,1001,1008,1010,1011,1012,1012,1015,1030,1038,1046,1055],"ymouse":[522,522,522,522,522,522,522,522,522,522,522,522,522,522,522,522,522,522,522,522,522,522,522,522,522,522,522,522,522,522,522,518,497,470,435,344,301,264,243,226,211,184,164,151,138,125,105,98,95,94,94,90,82,77,73,68],"timestamp_mouse":[8,28,48,69,89,109,129,149,168,188,208,228,249,268,289,308,328,349,368,388,408,428,448,468,490,508,528,548,568,588,609,628,648,668,689,709,728,748,768,788,809,829,848,869,889,908,928,948,968,988,1008,1028,1048,1068,1089,1109],"xSR":737,"ySR":442.65000000000003,"xT1":422.2,"yT1":0,"xT2":1051.8,"yT2":0,"toosoon":0,"cond_shown":"equaldotsize","ratio_trial":250,"smaller_num":"3","larger_num":"12","correct_side":2,"subjID":"Biancasofiagutierrez12","gender":"1","age":"11","school":"6"},{"start_time":1551883035236,"click_time":1551883036297,"finger_time":1551883035916,"fix_duration":838.6482147550784,"trial":37,"RT":680,"MT":381,"sideResp":1,"stimulus":"img/500/equaldotanddens/L/4_Ratio_500_L_18_R_9.png","xmouse":[785,785,785,785,785,785,785,785,785,785,785,785,785,785,785,785,785,785,785,785,785,785,785,785,785,785,785,785,785,785,785,785,783,771,750,713,675,626,614,611,611,612,614,613,610,608,602,598,597,594,587,569,545,500],"ymouse":[480,480,480,480,480,480,480,480,480,480,480,480,480,480,480,480,480,480,480,480,480,480,480,480,480,480,480,480,480,480,480,480,475,447,400,327,262,176,148,125,116,110,99,96,89,87,86,86,86,86,86,86,86,84],"timestamp_mouse":[12,20,42,60,80,100,120,141,160,180,199,220,241,260,281,301,321,340,360,380,400,420,441,460,480,500,520,540,560,580,600,621,641,660,680,701,720,741,760,780,800,820,841,860,880,900,920,941,960,981,1001,1021,1040,1061],"xSR":737,"ySR":442.65000000000003,"xT1":422.2,"yT1":0,"xT2":1051.8,"yT2":0,"toosoon":0,"cond_shown":"equaldotanddens","ratio_trial":500,"smaller_num":"9","larger_num":"18","correct_side":1,"subjID":"Biancasofiagutierrez12","gender":"1","age":"11","school":"6"},{"start_time":1551883037853,"click_time":1551883038376,"finger_time":1551883038256,"fix_duration":656.7009512115395,"trial":38,"RT":403,"MT":120,"sideResp":1,"stimulus":"img/250/equaldotanddens/L/1_Ratio_250_L_8_R_2.png","xmouse":[832,833,833,834,834,834,834,834,834,834,834,834,834,834,833,832,831,824,819,814,807,791,708,637,568,537,513],"ymouse":[496,496,496,496,496,496,496,496,496,496,496,496,496,496,494,492,491,476,463,446,423,387,265,186,117,91,71],"timestamp_mouse":[1,22,44,61,82,101,121,141,162,181,203,222,242,263,281,301,321,341,361,382,403,421,441,462,481,502,523],"xSR":737,"ySR":442.65000000000003,"xT1":422.2,"yT1":0,"xT2":1051.8,"yT2":0,"toosoon":0,"cond_shown":"equaldotanddens","ratio_trial":250,"smaller_num":"2","larger_num":"8","correct_side":1,"subjID":"Biancasofiagutierrez12","gender":"1","age":"11","school":"6"},{"start_time":1551883039945,"click_time":1551883040875,"finger_time":1551883040575,"fix_duration":250,"trial":39,"RT":630,"MT":300,"sideResp":2,"stimulus":"img/750/equaldotanddens/R/12_Ratio_750_L_3_R_4.png","xmouse":[781,781,781,781,781,781,781,781,781,781,781,781,781,781,781,781,781,782,783,783,784,784,784,784,784,784,785,788,795,811,830,851,890,917,940,968,1002,1035,1040,1045,1054,1062,1074,1085,1090,1095,1095],"ymouse":[501,501,501,501,501,501,501,501,501,501,501,501,501,501,501,501,501,500,500,500,500,500,500,500,500,500,500,498,493,481,468,452,419,394,374,349,320,275,258,243,227,214,185,160,138,113,90],"timestamp_mouse":[9,38,50,71,89,109,129,151,170,190,209,229,251,269,291,311,329,349,369,389,411,431,451,470,489,510,529,549,570,589,609,630,650,669,691,709,731,750,770,789,810,829,850,869,890,910,930],"xSR":737,"ySR":442.65000000000003,"xT1":422.2,"yT1":0,"xT2":1051.8,"yT2":0,"toosoon":0,"cond_shown":"equaldotanddens","ratio_trial":750,"smaller_num":"3","larger_num":"4","correct_side":2,"subjID":"Biancasofiagutierrez12","gender":"1","age":"11","school":"6"},{"start_time":1551883044051,"click_time":1551883045134,"finger_time":1551883044695,"fix_duration":915.5837064798693,"trial":40,"RT":644,"MT":439,"sideResp":1,"stimulus":"img/750/equaldotanddens/L/1_Ratio_750_L_20_R_15.png","xmouse":[781,781,781,781,781,781,781,781,781,781,781,781,780,778,776,775,775,774,774,774,774,771,764,763,763,763,763,762,761,759,756,747,728,713,698,677,656,619,602,584,566,518,493,469,451,433,408,405,404,406,412,423,451,463,468],"ymouse":[504,504,504,504,504,504,504,504,504,504,504,504,504,504,504,504,504,504,504,504,504,504,504,504,504,504,504,504,503,502,499,491,466,447,425,398,367,302,280,262,249,220,202,184,168,153,132,126,123,118,114,111,102,101,99],"timestamp_mouse":[9,24,44,63,84,103,123,145,163,185,203,223,243,263,283,305,324,344,363,383,405,423,443,464,483,503,524,543,563,585,604,624,644,664,683,704,723,743,764,784,803,824,843,864,884,903,925,943,963,985,1004,1023,1043,1063,1083],"xSR":737,"ySR":442.65000000000003,"xT1":422.2,"yT1":0,"xT2":1051.8,"yT2":0,"toosoon":0,"cond_shown":"equaldotanddens","ratio_trial":750,"smaller_num":"15","larger_num":"20","correct_side":1,"subjID":"Biancasofiagutierrez12","gender":"1","age":"11","school":"6"},{"start_time":1551883047559,"click_time":1551883048335,"finger_time":1551883048214,"fix_duration":1463.0046313380672,"trial":41,"RT":655,"MT":121,"sideResp":1,"stimulus":"img/250/equaldotanddens/L/15_Ratio_250_L_12_R_3.png","xmouse":[764,764,764,764,764,765,765,765,765,765,765,765,765,765,765,765,765,765,765,765,765,765,765,765,765,765,765,765,765,762,753,747,734,720,692,582,506,448,431],"ymouse":[490,490,492,493,493,494,494,495,495,495,495,495,495,495,495,495,495,495,495,495,495,495,495,495,495,495,495,495,495,496,490,483,465,442,399,254,167,103,77],"timestamp_mouse":[15,35,55,76,97,115,135,155,175,195,217,235,256,275,296,316,336,356,376,395,417,435,456,475,496,516,536,556,575,596,616,637,655,676,695,716,736,755,776],"xSR":737,"ySR":442.65000000000003,"xT1":422.2,"yT1":0,"xT2":1051.8,"yT2":0,"toosoon":0,"cond_shown":"equaldotanddens","ratio_trial":250,"smaller_num":"3","larger_num":"12","correct_side":1,"subjID":"Biancasofiagutierrez12","gender":"1","age":"11","school":"6"},{"start_time":1551883050858,"click_time":1551883051914,"finger_time":1551883051515,"fix_duration":1261.1767706556027,"trial":42,"RT":657,"MT":399,"sideResp":2,"stimulus":"img/500/equaldotsize/R/1_Ratio_500_L_9_R_18.png","xmouse":[775,775,775,775,775,775,775,775,775,775,775,775,775,775,775,775,775,775,775,775,775,775,775,775,775,775,775,775,775,777,779,811,855,909,958,1022,1119,1165,1183,1190,1192,1192,1192,1192,1192,1192,1192,1192,1192,1192,1192,1192,1118],"ymouse":[514,514,514,514,514,514,514,514,514,514,514,514,514,514,514,514,514,514,514,514,514,514,514,514,514,514,514,514,514,514,514,508,492,470,435,384,240,124,78,52,17,4,4,4,4,4,4,4,4,4,4,4,5],"timestamp_mouse":[16,36,57,76,97,118,136,156,176,197,218,236,256,276,296,318,337,356,377,396,418,437,458,477,498,517,536,556,576,596,616,637,657,676,697,716,736,756,776,796,817,837,857,877,896,917,937,957,977,997,1017,1036,1056],"xSR":737,"ySR":442.65000000000003,"xT1":422.2,"yT1":0,"xT2":1051.8,"yT2":0,"toosoon":0,"cond_shown":"equaldotsize","ratio_trial":500,"smaller_num":"9","larger_num":"18","correct_side":2,"subjID":"Biancasofiagutierrez12","gender":"1","age":"11","school":"6"},{"start_time":1551883055150,"click_time":1551883056415,"finger_time":1551883055855,"fix_duration":592.4902005169483,"trial":43,"RT":705,"MT":560,"sideResp":2,"stimulus":"img/500/randomdotsizeEA/R/3_Ratio_500_L_10_R_20.png","xmouse":[764,764,764,764,764,764,764,764,764,764,764,764,764,764,764,764,764,764,764,764,764,764,764,764,764,764,764,764,764,764,764,764,774,795,816,836,869,873,873,873,873,873,873,873,873,873,873,873,881,889,903,921,966,1005,1029,1043,1052,1063,1067,1071,1077,1082,1101,1111],"ymouse":[482,482,482,482,482,482,482,482,482,482,482,482,482,482,482,482,482,482,482,482,482,482,482,482,482,482,482,482,482,482,482,482,478,466,449,435,406,401,400,399,399,398,396,395,395,395,393,390,385,380,369,358,326,292,270,254,242,216,202,187,167,147,110,94],"timestamp_mouse":[8,24,48,65,86,104,125,145,165,185,206,224,244,264,285,304,324,344,365,384,404,424,444,465,484,504,526,544,565,585,605,624,644,665,684,705,726,744,765,785,805,824,844,864,885,904,926,944,965,984,1004,1024,1044,1066,1084,1105,1124,1145,1165,1184,1205,1226,1245,1265],"xSR":737,"ySR":442.65000000000003,"xT1":422.2,"yT1":0,"xT2":1051.8,"yT2":0,"toosoon":0,"cond_shown":"randomdotsizeEA","ratio_trial":500,"smaller_num":"10","larger_num":"20","correct_side":2,"subjID":"Biancasofiagutierrez12","gender":"1","age":"11","school":"6"},{"start_time":1551883057749,"click_time":1551883059195,"finger_time":1551883058515,"fix_duration":612.0741769150738,"trial":44,"RT":766,"MT":680,"sideResp":2,"stimulus":"img/900/equaldotsize/R/13_Ratio_900_L_18_R_20.png","xmouse":[773,773,773,773,773,773,773,773,773,773,773,773,773,773,773,773,773,773,773,773,773,773,773,773,773,773,773,773,773,773,773,773,773,773,773,775,797,813,833,855,874,909,924,945,962,975,993,1002,1009,1018,1027,1033,1045,1052,1059,1067,1075,1092,1100,1108,1115,1120,1125,1126,1127,1127,1127,1127,1127,1127,1127,1127,1127],"ymouse":[481,481,481,481,481,481,481,481,481,481,481,481,481,481,481,481,481,481,481,481,481,481,481,481,481,481,481,481,481,481,481,481,481,481,481,481,464,450,433,414,395,363,349,328,310,295,273,262,254,242,231,222,206,199,193,186,179,162,150,139,127,119,110,107,105,104,102,101,101,100,100,100,99],"timestamp_mouse":[9,25,45,65,86,105,127,146,166,185,205,227,245,267,285,305,325,345,366,386,405,426,445,465,487,505,525,546,565,585,605,626,645,666,685,706,726,746,766,785,806,827,845,866,885,906,927,945,965,986,1005,1025,1045,1066,1086,1106,1125,1145,1165,1185,1206,1225,1245,1266,1285,1305,1327,1347,1366,1385,1405,1426,1446],"xSR":737,"ySR":442.65000000000003,"xT1":422.2,"yT1":0,"xT2":1051.8,"yT2":0,"toosoon":0,"cond_shown":"equaldotsize","ratio_trial":900,"smaller_num":"18","larger_num":"20","correct_side":2,"subjID":"Biancasofiagutierrez12","gender":"1","age":"11","school":"6"},{"start_time":1551883061572,"click_time":1551883062576,"finger_time":1551883062196,"fix_duration":1297.5135707090974,"trial":45,"RT":624,"MT":380,"sideResp":2,"stimulus":"img/750/equaldotsize/R/4_Ratio_750_L_15_R_20.png","xmouse":[794,794,794,794,794,794,794,794,794,794,794,794,794,794,794,794,794,794,794,794,794,794,794,794,794,794,794,794,794,799,822,838,866,888,903,924,933,941,947,952,966,996,1007,1022,1030,1041,1082,1096,1105,1113,1120],"ymouse":[498,498,498,498,498,498,498,498,498,498,498,498,498,498,498,498,498,498,498,498,498,498,498,498,498,498,498,498,498,497,477,461,432,406,385,346,325,305,286,269,249,204,182,151,138,126,112,108,105,103,99],"timestamp_mouse":[10,37,43,62,82,103,122,143,163,184,202,222,243,263,282,302,322,344,363,383,403,424,442,464,483,502,523,543,563,583,603,624,643,662,682,703,722,743,762,782,803,822,842,863,882,902,922,942,962,983,1004],"xSR":737,"ySR":442.65000000000003,"xT1":422.2,"yT1":0,"xT2":1051.8,"yT2":0,"toosoon":0,"cond_shown":"equaldotsize","ratio_trial":750,"smaller_num":"15","larger_num":"20","correct_side":2,"subjID":"Biancasofiagutierrez12","gender":"1","age":"11","school":"6"},{"start_time":1551883064674,"click_time":1551883065494,"finger_time":1551883065255,"fix_duration":877.0730723646728,"trial":46,"RT":581,"MT":239,"sideResp":2,"stimulus":"img/500/equaldotsize/R/15_Ratio_500_L_1_R_2.png","xmouse":[767,767,767,767,767,767,767,767,767,767,767,768,769,769,769,769,769,769,769,769,769,769,769,769,769,769,770,783,822,887,933,1022,1053,1072,1079,1087,1095,1095,1095,1095,1095,1095],"ymouse":[520,520,520,520,520,520,520,520,520,520,520,520,520,520,520,520,520,520,520,520,520,520,520,520,520,520,520,517,510,492,472,414,391,373,358,334,253,223,163,132,105,67],"timestamp_mouse":[8,32,40,60,80,100,121,140,161,181,200,220,240,261,282,300,320,341,361,380,400,421,440,462,480,501,521,540,560,581,600,620,641,660,681,700,720,741,762,780,800,820],"xSR":737,"ySR":442.65000000000003,"xT1":422.2,"yT1":0,"xT2":1051.8,"yT2":0,"toosoon":0,"cond_shown":"equaldotsize","ratio_trial":500,"smaller_num":"1","larger_num":"2","correct_side":2,"subjID":"Biancasofiagutierrez12","gender":"1","age":"11","school":"6"},{"start_time":1551883066806,"click_time":1551883067875,"finger_time":1551883067756,"fix_duration":250,"trial":47,"RT":950,"MT":119,"sideResp":2,"stimulus":"img/250/randomdotsizeEA/R/8_Ratio_250_L_1_R_4.png","xmouse":[765,765,765,765,765,765,765,765,765,765,765,765,765,765,765,765,765,765,765,765,765,765,765,765,771,777,783,786,787,787,787,787,787,787,787,787,787,785,785,784,784,784,784,784,785,795,813,831,861,953,1018,1059,1102,1139],"ymouse":[489,489,489,489,489,489,489,489,489,489,489,489,489,489,489,489,489,489,489,489,489,489,489,490,488,484,480,478,477,477,477,477,477,477,477,477,476,476,476,476,476,476,476,475,468,457,443,420,376,276,212,166,123,85],"timestamp_mouse":[11,35,48,69,90,108,130,149,168,190,208,228,248,269,288,309,329,349,368,388,408,429,449,468,488,509,529,550,569,588,609,628,648,669,689,709,728,749,768,788,808,829,849,869,888,908,929,950,969,988,1008,1029,1048,1068],"xSR":737,"ySR":442.65000000000003,"xT1":422.2,"yT1":0,"xT2":1051.8,"yT2":0,"toosoon":0,"cond_shown":"randomdotsizeEA","ratio_trial":250,"smaller_num":"1","larger_num":"4","correct_side":2,"subjID":"Biancasofiagutierrez12","gender":"1","age":"11","school":"6"},{"start_time":1551883069492,"click_time":1551883070555,"finger_time":1551883070036,"fix_duration":555.7241664185847,"trial":48,"RT":544,"MT":519,"sideResp":2,"stimulus":"img/500/equaldotanddens/R/15_Ratio_500_L_1_R_2.png","xmouse":[776,776,776,776,776,776,776,776,776,776,776,776,776,776,776,776,776,776,776,776,776,776,776,780,786,805,828,845,863,883,946,985,1033,1079,1150,1174,1178,1186,1188,1190,1192,1192,1192,1192,1191,1190,1186,1182,1179,1177,1177,1171,1160,1148],"ymouse":[484,484,484,484,484,484,485,485,485,485,485,485,485,485,485,485,485,485,485,485,485,485,485,485,482,469,449,434,418,401,344,303,256,213,148,118,113,99,96,93,87,85,82,81,80,80,80,80,80,79,79,78,76,72],"timestamp_mouse":[9,28,43,63,82,103,124,143,162,182,202,222,242,264,282,303,323,343,362,384,403,422,443,463,482,503,522,544,564,583,602,622,642,662,683,702,723,743,764,782,802,823,844,862,883,902,923,942,962,983,1002,1022,1043,1063],"xSR":737,"ySR":442.65000000000003,"xT1":422.2,"yT1":0,"xT2":1051.8,"yT2":0,"toosoon":0,"cond_shown":"equaldotanddens","ratio_trial":500,"smaller_num":"1","larger_num":"2","correct_side":2,"subjID":"Biancasofiagutierrez12","gender":"1","age":"11","school":"6"},{"start_time":1551883073536,"click_time":1551883074494,"finger_time":1551883074015,"fix_duration":780.0269381708293,"trial":49,"RT":479,"MT":479,"sideResp":2,"stimulus":"img/900/equaldotanddens/R/3_Ratio_900_L_9_R_10.png","xmouse":[781,781,781,781,781,781,781,781,781,781,781,781,781,781,781,781,781,781,783,788,800,813,832,839,842,843,844,844,844,844,844,844,844,844,847,857,894,917,948,975,993,1012,1019,1031,1040,1048,1058,1064],"ymouse":[509,509,509,509,509,509,509,509,509,509,509,509,509,509,509,509,509,509,507,503,495,484,466,457,453,452,451,450,450,450,450,450,448,445,442,429,387,358,323,289,261,219,203,178,161,142,102,82],"timestamp_mouse":[20,39,59,79,99,120,138,158,179,198,218,238,258,278,298,319,338,359,379,398,418,438,458,479,498,519,538,558,578,599,620,639,658,678,698,719,739,758,779,798,818,840,858,878,898,918,939,958],"xSR":737,"ySR":442.65000000000003,"xT1":422.2,"yT1":0,"xT2":1051.8,"yT2":0,"toosoon":0,"cond_shown":"equaldotanddens","ratio_trial":900,"smaller_num":"9","larger_num":"10","correct_side":2,"subjID":"Biancasofiagutierrez12","gender":"1","age":"11","school":"6"},{"start_time":1551883076675,"click_time":1551883077656,"finger_time":1551883077154,"fix_duration":1300.933476507381,"trial":50,"RT":479,"MT":502,"sideResp":2,"stimulus":"img/500/equaldotsize/R/1_Ratio_500_L_9_R_18.png","xmouse":[780,780,780,780,780,780,780,780,780,780,780,780,780,780,780,780,780,780,781,782,795,807,823,841,860,892,907,929,945,962,1011,1036,1057,1070,1079,1087,1088,1088,1088,1088,1088,1088,1088,1088,1088,1087,1087,1084,1083],"ymouse":[492,492,492,492,492,492,492,492,492,492,492,492,492,492,492,492,492,492,492,492,485,474,460,445,428,393,375,350,333,313,255,227,204,185,171,155,153,152,151,145,139,134,130,124,117,111,109,100,97],"timestamp_mouse":[31,39,59,79,99,119,140,159,179,199,220,239,259,280,299,320,340,359,381,400,419,439,459,479,499,519,539,560,580,600,619,640,659,679,699,719,739,759,779,800,820,840,861,880,901,919,939,961,981],"xSR":737,"ySR":442.65000000000003,"xT1":422.2,"yT1":0,"xT2":1051.8,"yT2":0,"toosoon":0,"cond_shown":"equaldotsize","ratio_trial":500,"smaller_num":"9","larger_num":"18","correct_side":2,"subjID":"Biancasofiagutierrez12","gender":"1","age":"11","school":"6"},{"start_time":1551883080611,"click_time":1551883081676,"finger_time":1551883081315,"fix_duration":795.1641093761125,"trial":51,"RT":704,"MT":361,"sideResp":1,"stimulus":"img/500/equaldotsize/L/4_Ratio_500_L_18_R_9.png","xmouse":[805,805,805,805,805,805,805,805,805,805,805,805,805,805,805,805,805,805,805,805,805,805,805,805,805,805,805,805,805,805,805,805,805,796,784,769,740,705,624,573,561,547,547,547,546,543,541,541,541,541,541,541,541,507],"ymouse":[509,509,509,509,509,509,509,509,509,509,509,509,509,509,509,509,509,509,509,509,509,509,509,509,509,509,509,509,509,509,509,509,509,492,466,434,383,331,224,150,126,77,57,41,15,5,2,2,2,2,2,2,2,1],"timestamp_mouse":[8,23,43,63,84,103,124,144,164,184,205,223,243,265,285,303,323,344,363,384,403,423,444,464,483,503,525,544,565,583,603,625,643,664,684,704,724,744,764,784,804,825,843,863,883,903,924,944,963,983,1004,1023,1043,1065],"xSR":737,"ySR":442.65000000000003,"xT1":422.2,"yT1":0,"xT2":1051.8,"yT2":0,"toosoon":0,"cond_shown":"equaldotsize","ratio_trial":500,"smaller_num":"9","larger_num":"18","correct_side":1,"subjID":"Biancasofiagutierrez12","gender":"1","age":"11","school":"6"},{"start_time":1551883083349,"click_time":1551883084135,"finger_time":1551883083976,"fix_duration":693.7549109218613,"trial":52,"RT":627,"MT":159,"sideResp":1,"stimulus":"img/250/equaldotanddens/L/2_Ratio_250_L_16_R_4.png","xmouse":[773,773,773,773,773,773,773,773,773,773,773,773,773,773,773,773,773,773,773,773,773,773,773,773,773,773,773,773,773,772,768,742,728,695,669,635,604,560,539,518],"ymouse":[483,483,483,483,483,483,483,483,483,483,483,483,483,483,483,483,483,483,483,483,483,483,483,483,483,483,483,483,483,482,476,431,398,323,276,217,175,120,102,90],"timestamp_mouse":[8,26,45,65,85,106,125,147,165,185,206,226,246,266,286,305,326,347,366,386,406,425,446,465,486,506,527,545,566,585,605,627,645,665,685,705,725,745,766,786],"xSR":737,"ySR":442.65000000000003,"xT1":422.2,"yT1":0,"xT2":1051.8,"yT2":0,"toosoon":0,"cond_shown":"equaldotanddens","ratio_trial":250,"smaller_num":"4","larger_num":"16","correct_side":1,"subjID":"Biancasofiagutierrez12","gender":"1","age":"11","school":"6"},{"start_time":1551883086601,"click_time":1551883087614,"finger_time":1551883087176,"fix_duration":1445.910220331175,"trial":53,"RT":575,"MT":438,"sideResp":2,"stimulus":"img/750/equaldotsize/R/2_Ratio_750_L_6_R_8.png","xmouse":[758,758,758,758,758,758,758,758,758,758,758,758,758,758,758,758,758,758,758,758,758,758,758,759,766,779,790,803,826,845,878,916,953,1000,1058,1069,1076,1080,1080,1083,1085,1085,1085,1085,1084,1083,1083,1082,1082,1084,1085],"ymouse":[474,474,474,474,474,474,474,474,474,474,474,474,474,474,474,474,474,474,474,474,474,474,474,474,471,465,458,449,430,416,388,357,325,291,238,219,204,196,195,183,175,164,156,138,131,125,120,116,109,102,97],"timestamp_mouse":[14,40,55,74,93,114,134,153,173,194,213,233,255,273,293,313,334,353,373,395,414,435,453,473,494,514,533,554,575,593,613,634,653,673,693,714,733,753,773,794,814,834,854,874,893,914,933,954,974,993,1013],"xSR":737,"ySR":442.65000000000003,"xT1":422.2,"yT1":0,"xT2":1051.8,"yT2":0,"toosoon":0,"cond_shown":"equaldotsize","ratio_trial":750,"smaller_num":"6","larger_num":"8","correct_side":2,"subjID":"Biancasofiagutierrez12","gender":"1","age":"11","school":"6"},{"start_time":1551883088775,"click_time":1551883089835,"finger_time":1551883089434,"fix_duration":357.7356471349761,"trial":54,"RT":659,"MT":401,"sideResp":1,"stimulus":"img/900/equaldotanddens/L/2_Ratio_900_L_20_R_18.png","xmouse":[795,795,795,795,795,795,795,795,795,795,795,795,795,795,795,795,795,795,795,795,795,795,795,795,795,795,795,795,795,795,794,790,783,777,768,757,736,725,713,701,688,654,639,617,604,596,593,592,592,591,587,540,524,514],"ymouse":[479,479,479,479,479,479,479,479,479,479,479,479,479,479,479,479,479,479,479,479,479,479,479,479,479,479,479,479,479,480,480,465,444,428,408,386,341,318,293,270,246,199,179,154,142,134,129,128,127,126,122,98,88,83],"timestamp_mouse":[1,20,39,59,79,99,121,140,160,179,200,220,239,260,280,299,319,339,360,381,400,421,440,461,479,500,521,539,559,580,601,619,640,659,680,700,719,739,759,780,799,820,839,859,879,899,920,940,960,979,1000,1020,1040,1060],"xSR":737,"ySR":442.65000000000003,"xT1":422.2,"yT1":0,"xT2":1051.8,"yT2":0,"toosoon":0,"cond_shown":"equaldotanddens","ratio_trial":900,"smaller_num":"18","larger_num":"20","correct_side":1,"subjID":"Biancasofiagutierrez12","gender":"1","age":"11","school":"6"},{"start_time":1551883091870,"click_time":1551883093094,"finger_time":1551883092634,"fix_duration":1433.7219443223953,"trial":55,"RT":764,"MT":460,"sideResp":2,"stimulus":"img/750/randomdotsizeEA/R/12_Ratio_750_L_3_R_4.png","xmouse":[797,797,797,797,797,797,797,797,797,797,797,797,797,797,797,797,797,797,797,797,797,797,797,797,797,797,795,794,791,791,791,791,791,791,791,791,815,826,867,884,914,931,951,982,1007,1034,1043,1052,1055,1058,1061,1069,1071,1071,1071,1071,1070,1070,1079,1083,1084,1085],"ymouse":[510,510,510,510,510,510,510,510,510,510,510,510,510,510,510,510,510,510,510,510,510,510,510,510,510,510,509,509,509,509,509,509,509,509,509,508,485,474,441,421,385,363,339,310,286,251,238,222,217,213,210,198,188,177,165,154,136,129,115,108,102,95],"timestamp_mouse":[8,40,44,66,86,106,125,145,166,185,204,225,245,266,284,304,325,345,365,385,404,426,444,465,485,506,524,544,565,585,604,624,645,665,685,704,724,745,764,784,805,825,845,864,884,906,924,945,964,985,1004,1024,1044,1064,1084,1104,1124,1144,1166,1186,1204,1224],"xSR":737,"ySR":442.65000000000003,"xT1":422.2,"yT1":0,"xT2":1051.8,"yT2":0,"toosoon":0,"cond_shown":"randomdotsizeEA","ratio_trial":750,"smaller_num":"3","larger_num":"4","correct_side":2,"subjID":"Biancasofiagutierrez12","gender":"1","age":"11","school":"6"},{"start_time":1551883095155,"click_time":1551883096336,"finger_time":1551883095934,"fix_duration":1319.191245781813,"trial":56,"RT":779,"MT":402,"sideResp":1,"stimulus":"img/750/equaldotanddens/L/1_Ratio_750_L_20_R_15.png","xmouse":[789,789,789,789,789,789,789,789,789,789,789,789,789,789,789,789,789,789,789,789,789,789,789,789,789,789,789,789,789,789,789,789,789,789,789,789,790,789,776,761,745,709,674,632,597,577,565,565,565,565,565,559,554,550,542,534,517,510,503],"ymouse":[500,500,500,500,500,500,500,500,500,500,500,500,500,500,500,500,500,500,500,500,500,500,500,500,500,500,500,500,500,500,500,500,500,500,499,490,478,459,438,414,391,339,290,229,180,161,151,151,151,151,148,138,133,130,122,116,105,101,96],"timestamp_mouse":[21,41,59,80,99,121,139,159,181,200,220,241,259,279,301,319,340,360,379,399,419,440,459,479,499,521,539,559,579,599,619,639,659,681,699,720,741,759,779,800,819,839,859,879,899,919,939,959,980,999,1020,1039,1060,1080,1100,1120,1139,1160,1181],"xSR":737,"ySR":442.65000000000003,"xT1":422.2,"yT1":0,"xT2":1051.8,"yT2":0,"toosoon":0,"cond_shown":"equaldotanddens","ratio_trial":750,"smaller_num":"15","larger_num":"20","correct_side":1,"subjID":"Biancasofiagutierrez12","gender":"1","age":"11","school":"6"},{"start_time":1551883098241,"click_time":1551883099773,"finger_time":1551883098893,"fix_duration":1346.0022100289552,"trial":57,"RT":652,"MT":880,"sideResp":1,"stimulus":"img/500/randomdotsizeEA/L/7_Ratio_500_L_10_R_5.png","xmouse":[761,761,761,761,761,761,761,761,761,761,761,761,761,761,761,761,761,761,761,761,761,761,761,761,761,761,761,762,763,764,765,767,786,804,827,850,882,955,1027,1073,1100,1121,1123,1123,1123,1123,1123,1123,1123,1123,1123,1121,1099,1087,1071,1054,1027,1008,994,976,959,913,887,863,837,802,759,682,636,610,592,579,549,534,526,523,520],"ymouse":[484,484,484,484,484,484,484,484,484,484,484,484,484,484,484,484,484,484,484,484,484,484,484,484,484,484,484,482,479,477,474,467,436,407,372,339,302,228,174,144,126,108,106,106,106,106,106,106,106,106,106,106,114,120,129,137,153,161,166,171,176,184,185,185,182,170,150,109,85,74,64,57,47,46,46,46,46],"timestamp_mouse":[13,35,53,73,92,113,133,152,174,193,212,232,252,272,293,312,333,354,373,393,413,432,453,473,493,512,532,552,573,592,612,632,652,673,692,714,732,752,772,792,812,833,852,872,894,913,932,952,972,993,1012,1032,1053,1072,1094,1112,1133,1152,1172,1192,1213,1234,1252,1272,1292,1313,1333,1353,1373,1392,1412,1433,1452,1472,1492,1512,1532],"xSR":737,"ySR":442.65000000000003,"xT1":422.2,"yT1":0,"xT2":1051.8,"yT2":0,"toosoon":0,"cond_shown":"randomdotsizeEA","ratio_trial":500,"smaller_num":"5","larger_num":"10","correct_side":1,"subjID":"Biancasofiagutierrez12","gender":"1","age":"11","school":"6"},{"start_time":1551883101106,"click_time":1551883101974,"finger_time":1551883101793,"fix_duration":250,"trial":58,"RT":687,"MT":181,"sideResp":2,"stimulus":"img/500/equaldotsize/R/12_Ratio_500_L_1_R_2.png","xmouse":[795,795,795,795,795,795,795,795,795,795,795,795,795,795,795,795,795,795,794,788,785,782,778,772,772,772,772,772,772,772,772,772,773,782,882,929,986,1017,1049,1105,1122,1132,1136,1138],"ymouse":[498,498,498,498,498,498,498,498,498,498,498,498,498,498,498,498,498,498,497,497,497,497,497,497,497,497,497,497,497,497,497,497,490,481,402,354,286,244,205,137,122,110,102,88],"timestamp_mouse":[9,36,48,69,87,107,129,148,167,188,208,229,248,267,287,308,328,347,368,387,409,427,448,468,489,507,529,548,568,587,609,627,648,668,687,707,728,748,767,787,807,827,847,868],"xSR":737,"ySR":442.65000000000003,"xT1":422.2,"yT1":0,"xT2":1051.8,"yT2":0,"toosoon":0,"cond_shown":"equaldotsize","ratio_trial":500,"smaller_num":"1","larger_num":"2","correct_side":2,"subjID":"Biancasofiagutierrez12","gender":"1","age":"11","school":"6"},{"start_time":1551883104796,"click_time":1551883106194,"finger_time":1551883105534,"fix_duration":461.3490962888835,"trial":59,"RT":738,"MT":660,"sideResp":1,"stimulus":"img/900/equaldotanddens/L/10_Ratio_900_L_20_R_18.png","xmouse":[774,774,774,774,774,774,774,773,773,773,773,773,773,773,773,773,773,773,773,773,773,773,773,773,773,773,773,773,773,773,773,773,773,774,791,807,826,852,901,932,939,952,956,956,956,956,956,955,950,915,859,799,737,683,601,578,561,546,526,489,471,465,463,463,463,462,460,459,458,457],"ymouse":[494,494,494,497,500,501,503,504,504,504,504,504,504,504,504,504,504,504,504,504,504,504,504,504,504,504,504,504,504,504,504,504,504,504,487,467,442,412,348,295,284,256,247,242,241,241,241,241,241,241,241,241,234,226,208,202,195,190,183,164,152,147,145,142,131,124,118,111,102,93],"timestamp_mouse":[19,46,59,78,97,118,137,157,177,197,217,237,257,277,297,318,338,358,378,398,417,437,458,479,497,517,537,557,577,598,617,637,657,678,697,718,738,757,778,797,818,838,857,877,897,917,937,957,977,997,1018,1038,1058,1078,1097,1117,1137,1157,1178,1197,1218,1239,1258,1278,1297,1317,1338,1359,1378,1398],"xSR":737,"ySR":442.65000000000003,"xT1":422.2,"yT1":0,"xT2":1051.8,"yT2":0,"toosoon":0,"cond_shown":"equaldotanddens","ratio_trial":900,"smaller_num":"18","larger_num":"20","correct_side":1,"subjID":"Biancasofiagutierrez12","gender":"1","age":"11","school":"6"},{"start_time":1551883108139,"click_time":1551883109033,"finger_time":1551883108733,"fix_duration":1005.6561242174649,"trial":60,"RT":594,"MT":300,"sideResp":2,"stimulus":"img/250/equaldotsize/R/12_Ratio_250_L_5_R_20.png","xmouse":[767,767,767,767,767,767,767,767,767,767,767,767,767,767,767,767,767,767,767,767,767,767,767,767,767,767,769,784,796,808,818,853,870,899,921,938,973,986,996,1002,1007,1015,1029,1040,1053],"ymouse":[471,471,471,471,471,471,471,471,471,471,471,471,471,471,471,471,471,471,471,471,471,471,471,471,471,471,471,461,452,441,429,385,362,309,270,236,169,146,129,117,110,101,88,77,65],"timestamp_mouse":[14,38,55,75,95,115,135,156,174,195,214,235,255,275,294,316,335,354,375,394,416,435,455,476,494,515,534,554,575,594,614,636,654,674,695,714,736,754,774,794,814,835,854,874,894],"xSR":737,"ySR":442.65000000000003,"xT1":422.2,"yT1":0,"xT2":1051.8,"yT2":0,"toosoon":0,"cond_shown":"equaldotsize","ratio_trial":250,"smaller_num":"5","larger_num":"20","correct_side":2,"subjID":"Biancasofiagutierrez12","gender":"1","age":"11","school":"6"},{"start_time":1551883111051,"click_time":1551883112154,"finger_time":1551883111673,"fix_duration":1375.7443538657162,"trial":61,"RT":622,"MT":481,"sideResp":1,"stimulus":"img/500/equaldotanddens/L/10_Ratio_500_L_4_R_2.png","xmouse":[776,776,776,776,776,776,776,776,776,776,776,776,776,776,776,778,780,781,782,782,782,782,782,782,782,782,782,782,779,776,770,762,743,730,705,673,633,610,603,579,550,466,414,386,372,370,370,372,374,377,381,391,396,406,417,439],"ymouse":[490,490,490,490,490,490,490,490,490,490,490,490,490,490,490,490,489,488,487,487,487,487,487,487,487,487,486,482,475,467,454,437,391,366,318,262,208,193,191,184,177,152,136,123,115,113,113,110,104,98,93,87,85,83,81,74],"timestamp_mouse":[8,23,42,63,83,104,123,142,162,182,202,223,242,262,284,302,323,344,362,382,403,422,443,462,484,503,522,542,563,583,602,622,643,664,682,703,723,742,763,783,802,823,842,862,884,903,923,942,962,983,1003,1024,1043,1062,1082,1103],"xSR":737,"ySR":442.65000000000003,"xT1":422.2,"yT1":0,"xT2":1051.8,"yT2":0,"toosoon":0,"cond_shown":"equaldotanddens","ratio_trial":500,"smaller_num":"2","larger_num":"4","correct_side":1,"subjID":"Biancasofiagutierrez12","gend