[{"start_time":1551882112640,"click_time":1551882113503,"finger_time":1551882112649,"fix_duration":373.93493845071765,"trial":0,"RT":9,"MT":854,"sideResp":2,"stimulus":[],"xmouse":[758,758,758,758,758,758,758,758,758,758,758,758,758,758,758,758,758,758,758,758,758,758,758,758,758,758,758,758,818,899,990,1058,1102,1186,1245,1288,1305,1305,1296,1292,1285,1267,1227,1152],"ymouse":[490,490,490,490,490,490,490,490,490,490,490,490,490,490,490,490,490,490,490,490,490,490,490,490,490,490,490,490,474,436,399,383,371,323,258,186,152,144,127,123,117,103,87,54],"timestamp_mouse":[9,22,43,64,83,104,123,142,162,184,203,223,243,263,282,302,323,343,363,382,402,422,443,462,483,502,522,542,563,582,604,623,642,663,684,702,723,743,763,782,803,823,843,862],"xSR":737,"ySR":442.65000000000003,"xT1":422.2,"yT1":0,"xT2":1051.8,"yT2":0,"toosoon":0,"cond_shown":"Incongruent","ratio_trial":300,"L_num":1,"L_den":2,"R_num":2,"R_den":10,"correct_side":1,"subjID":"biancasofiagutierrezplazas12","gender":"1","age":"11","school":"6","test":{"fix_dur":[250,1500],"timestim":1000,"targets_dim":[100,100],"targets_relative_coord":[0.3,0.7],"size_stim":[880,420],"start_dim":[100,100],"size_start":[300,300],"size_fix":60,"samplingrate":20,"img_types":["Congruent","Incongruent"],"ratios":[100,200,300],"rep_conds":19,"nTrials":120,"trials_to_rest":500,"Trials_order":[35,84,77,2,7,99,41,101,18,14,117,72,58,43,31,44,29,76,20,107,25,15,6,96,68,34,10,8,66,69,22,97,4,98,74,11,82,32,33,119,13,102,63,54,90,94,53,26,52,24,0,104,114,118,50,95,64,86,27,9,5,88,116,89,67,109,60,47,79,111,59,36,106,78,92,51,62,56,37,65,21,113,16,87,23,105,91,46,81,93,75,17,108,40,38,61,3,70,48,85,28,100,12,45,42,30,57,19,80,110,83,71,1,55,103,49,39,115,112,73],"cond_shown":["Incongruent","Congruent","Incongruent","Congruent","Incongruent","Incongruent","Incongruent","Incongruent","Congruent","Congruent","Incongruent","Congruent","Congruent","Incongruent","Incongruent","Congruent","Incongruent","Congruent","Congruent","Incongruent","Incongruent","Incongruent","Congruent","Congruent","Congruent","Congruent","Congruent","Congruent","Congruent","Incongruent","Congruent","Incongruent","Congruent","Congruent","Congruent","Incongruent","Congruent","Congruent","Incongruent","Incongruent","Incongruent","Congruent","Incongruent","Congruent","Congruent","Congruent","Incongruent","Congruent","Congruent","Congruent","Congruent","Congruent","Congruent","Congruent","Congruent","Incongruent","Congruent","Congruent","Incongruent","Incongruent","Incongruent","Congruent","Congruent","Incongruent","Incongruent","Incongruent","Congruent","Incongruent","Incongruent","Incongruent","Incongruent","Congruent","Congruent","Congruent","Congruent","Incongruent","Congruent","Congruent","Incongruent","Incongruent","Incongruent","Incongruent","Congruent","Incongruent","Incongruent","Incongruent","Incongruent","Congruent","Incongruent","Incongruent","Incongruent","Incongruent","Congruent","Congruent","Congruent","Incongruent","Incongruent","Congruent","Congruent","Incongruent","Congruent","Congruent","Congruent","Incongruent","Congruent","Congruent","Incongruent","Incongruent","Congruent","Congruent","Incongruent","Incongruent","Incongruent","Incongruent","Incongruent","Incongruent","Incongruent","Incongruent","Congruent","Incongruent"],"ratio_trial":[300,100,300,200,100,200,300,300,100,200,200,100,300,100,100,200,300,300,200,300,100,200,100,100,200,300,300,200,100,200,300,100,300,200,200,300,300,200,200,300,100,100,200,100,100,300,300,200,300,100,100,200,100,300,200,300,300,200,200,200,300,300,200,300,100,100,100,300,100,200,300,100,300,100,200,200,200,200,100,300,200,300,300,200,300,200,100,300,200,200,200,300,100,300,200,100,200,300,100,100,300,300,100,200,100,100,200,100,200,200,300,300,100,100,100,100,200,100,300,100],"left_num":[1,2,1,7,9,3,3,4,15,3,4,1,1,8,13,3,13,11,14,4,9,6,11,3,3,1,4,3,4,4,5,3,1,12,8,3,1,1,3,4,12,11,7,9,10,9,4,6,8,8,9,13,7,5,1,1,4,7,7,4,3,20,7,4,3,10,11,4,10,7,8,15,2,11,3,7,3,8,3,3,1,1,8,14,4,7,13,20,7,4,1,2,7,4,8,3,14,1,1,8,2,1,3,1,7,6,14,9,3,3,1,1,1,6,12,3,7,9,1,6],"right_num":[2,11,3,18,6,11,4,2,13,11,6,18,19,6,6,14,12,4,6,2,14,3,6,2,14,11,2,14,6,6,7,8,6,6,3,4,8,21,1,2,9,4,12,8,3,3,8,11,1,2,8,14,15,6,21,2,2,18,6,14,4,8,18,8,7,8,4,8,9,14,14,13,12,6,14,12,9,3,8,4,3,2,10,6,2,12,12,5,14,14,2,6,15,1,3,11,12,11,18,6,12,19,4,2,15,5,12,20,9,7,2,3,8,13,2,4,8,6,7,11],"left_den":[2,5,2,15,18,4,6,20,25,10,5,2,3,16,26,6,26,22,28,20,15,20,22,6,10,5,5,6,8,5,25,5,5,15,15,6,30,2,10,20,24,22,10,15,25,10,5,20,16,16,15,26,14,25,2,2,5,15,15,6,6,25,15,5,9,25,22,5,25,10,10,25,10,22,10,10,12,15,5,6,2,2,15,30,20,10,26,25,10,6,3,4,14,10,15,5,30,5,2,16,10,3,20,3,14,20,30,10,12,10,2,2,2,10,30,6,10,18,20,10],"right_den":[10,22,15,27,10,20,20,4,26,22,10,30,30,10,10,20,15,20,20,4,28,6,15,5,28,22,4,20,10,10,14,16,12,10,9,20,24,30,2,4,15,10,24,16,10,5,16,22,5,5,16,20,25,12,30,10,4,27,9,30,20,16,27,16,30,16,10,16,18,28,28,26,24,15,28,24,20,9,16,20,10,10,12,9,4,24,20,10,28,30,15,30,25,10,9,22,18,22,30,10,24,30,16,15,25,25,18,25,20,14,10,15,20,26,4,10,16,10,20,22],"correct_side":[1,2,1,2,2,1,1,2,1,2,1,2,2,2,2,2,2,1,1,2,1,2,1,1,2,2,1,2,2,1,2,1,2,1,1,1,2,2,2,2,2,1,1,1,1,1,1,2,1,1,1,2,2,2,2,1,1,2,2,1,1,1,2,1,1,2,1,1,2,1,1,1,2,1,2,1,2,1,1,1,1,1,2,2,2,1,2,1,1,1,1,1,2,1,1,1,2,2,2,2,2,2,2,1,2,1,2,1,2,2,1,1,1,1,2,1,1,2,2,1],"img_shown":["img2/300/Incongruent/L/I_Dist_300_LN_1_LD_2_RN_2_RD_10_0.png","img2/100/Congruent/R/C_Dist_100_LN_2_LD_5_RN_11_RD_22_1.png","img2/300/Incongruent/L/I_Dist_300_LN_1_LD_2_RN_3_RD_15_0.png","img2/200/Congruent/R/C_Dist_200_LN_7_LD_15_RN_18_RD_27_1.png","img2/100/Incongruent/R/I_Dist_100_LN_9_LD_18_RN_6_RD_10_1.png","img2/200/Incongruent/L/I_Dist_200_LN_3_LD_4_RN_11_RD_20_0.png","img2/300/Incongruent/L/I_Dist_300_LN_3_LD_6_RN_4_RD_20_0.png","img2/300/Incongruent/R/I_Dist_300_LN_4_LD_20_RN_2_RD_4_1.png","img2/100/Congruent/L/C_Dist_100_LN_15_LD_25_RN_13_RD_26_0.png","img2/200/Congruent/R/C_Dist_200_LN_3_LD_10_RN_11_RD_22_1.png","img2/200/Incongruent/L/I_Dist_200_LN_4_LD_5_RN_6_RD_10_0.png","img2/100/Congruent/R/C_Dist_100_LN_1_LD_2_RN_18_RD_30_1.png","img2/300/Congruent/R/C_Dist_300_LN_1_LD_3_RN_19_RD_30_1.png","img2/100/Incongruent/R/I_Dist_100_LN_8_LD_16_RN_6_RD_10_1.png","img2/100/Incongruent/R/I_Dist_100_LN_13_LD_26_RN_6_RD_10_1.png","img2/200/Congruent/R/C_Dist_200_LN_3_LD_6_RN_14_RD_20_1.png","img2/300/Incongruent/R/I_Dist_300_LN_13_LD_26_RN_12_RD_15_1.png","img2/300/Congruent/L/C_Dist_300_LN_11_LD_22_RN_4_RD_20_0.png","img2/200/Congruent/L/C_Dist_200_LN_14_LD_28_RN_6_RD_20_0.png","img2/300/Incongruent/R/I_Dist_300_LN_4_LD_20_RN_2_RD_4_1.png","img2/100/Incongruent/L/I_Dist_100_LN_9_LD_15_RN_14_RD_28_0.png","img2/200/Incongruent/R/I_Dist_200_LN_6_LD_20_RN_3_RD_6_1.png","img2/100/Congruent/L/C_Dist_100_LN_11_LD_22_RN_6_RD_15_0.png","img2/100/Congruent/L/C_Dist_100_LN_3_LD_6_RN_2_RD_5_0.png","img2/200/Congruent/R/C_Dist_200_LN_3_LD_10_RN_14_RD_28_1.png","img2/300/Congruent/R/C_Dist_300_LN_1_LD_5_RN_11_RD_22_1.png","img2/300/Congruent/L/C_Dist_300_LN_4_LD_5_RN_2_RD_4_0.png","img2/200/Congruent/R/C_Dist_200_LN_3_LD_6_RN_14_RD_20_1.png","img2/100/Congruent/R/C_Dist_100_LN_4_LD_8_RN_6_RD_10_1.png","img2/200/Incongruent/L/I_Dist_200_LN_4_LD_5_RN_6_RD_10_0.png","img2/300/Congruent/R/C_Dist_300_LN_5_LD_25_RN_7_RD_14_1.png","img2/100/Incongruent/L/I_Dist_100_LN_3_LD_5_RN_8_RD_16_0.png","img2/300/Congruent/R/C_Dist_300_LN_1_LD_5_RN_6_RD_12_1.png","img2/200/Congruent/L/C_Dist_200_LN_12_LD_15_RN_6_RD_10_0.png","img2/200/Congruent/L/C_Dist_200_LN_8_LD_15_RN_3_RD_9_0.png","img2/300/Incongruent/L/I_Dist_300_LN_3_LD_6_RN_4_RD_20_0.png","img2/300/Congruent/R/C_Dist_300_LN_1_LD_30_RN_8_RD_24_1.png","img2/200/Congruent/R/C_Dist_200_LN_1_LD_2_RN_21_RD_30_1.png","img2/200/Incongruent/R/I_Dist_200_LN_3_LD_10_RN_1_RD_2_1.png","img2/300/Incongruent/R/I_Dist_300_LN_4_LD_20_RN_2_RD_4_1.png","img2/100/Incongruent/R/I_Dist_100_LN_12_LD_24_RN_9_RD_15_1.png","img2/100/Congruent/L/C_Dist_100_LN_11_LD_22_RN_4_RD_10_0.png","img2/200/Incongruent/L/I_Dist_200_LN_7_LD_10_RN_12_RD_24_0.png","img2/100/Congruent/L/C_Dist_100_LN_9_LD_15_RN_8_RD_16_0.png","img2/100/Congruent/L/C_Dist_100_LN_10_LD_25_RN_3_RD_10_0.png","img2/300/Congruent/L/C_Dist_300_LN_9_LD_10_RN_3_RD_5_0.png","img2/300/Incongruent/L/I_Dist_300_LN_4_LD_5_RN_8_RD_16_0.png","img2/200/Congruent/R/C_Dist_200_LN_6_LD_20_RN_11_RD_22_1.png","img2/300/Congruent/L/C_Dist_300_LN_8_LD_16_RN_1_RD_5_0.png","img2/100/Congruent/L/C_Dist_100_LN_8_LD_16_RN_2_RD_5_0.png","img2/100/Congruent/L/C_Dist_100_LN_9_LD_15_RN_8_RD_16_0.png","img2/200/Congruent/R/C_Dist_200_LN_13_LD_26_RN_14_RD_20_1.png","img2/100/Congruent/R/C_Dist_100_LN_7_LD_14_RN_15_RD_25_1.png","img2/300/Congruent/R/C_Dist_300_LN_5_LD_25_RN_6_RD_12_1.png","img2/200/Congruent/R/C_Dist_200_LN_1_LD_2_RN_21_RD_30_1.png","img2/300/Incongruent/L/I_Dist_300_LN_1_LD_2_RN_2_RD_10_0.png","img2/300/Congruent/L/C_Dist_300_LN_4_LD_5_RN_2_RD_4_0.png","img2/200/Congruent/R/C_Dist_200_LN_7_LD_15_RN_18_RD_27_1.png","img2/200/Incongruent/R/I_Dist_200_LN_7_LD_15_RN_6_RD_9_1.png","img2/200/Incongruent/L/I_Dist_200_LN_4_LD_6_RN_14_RD_30_0.png","img2/300/Incongruent/L/I_Dist_300_LN_3_LD_6_RN_4_RD_20_0.png","img2/300/Congruent/L/C_Dist_300_LN_20_LD_25_RN_8_RD_16_0.png","img2/200/Congruent/R/C_Dist_200_LN_7_LD_15_RN_18_RD_27_1.png","img2/300/Incongruent/L/I_Dist_300_LN_4_LD_5_RN_8_RD_16_0.png","img2/100/Incongruent/L/I_Dist_100_LN_3_LD_9_RN_7_RD_30_0.png","img2/100/Incongruent/R/I_Dist_100_LN_10_LD_25_RN_8_RD_16_1.png","img2/100/Congruent/L/C_Dist_100_LN_11_LD_22_RN_4_RD_10_0.png","img2/300/Incongruent/L/I_Dist_300_LN_4_LD_5_RN_8_RD_16_0.png","img2/100/Incongruent/R/I_Dist_100_LN_10_LD_25_RN_9_RD_18_1.png","img2/200/Incongruent/L/I_Dist_200_LN_7_LD_10_RN_14_RD_28_0.png","img2/300/Incongruent/L/I_Dist_300_LN_8_LD_10_RN_14_RD_28_0.png","img2/100/Congruent/L/C_Dist_100_LN_15_LD_25_RN_13_RD_26_0.png","img2/300/Congruent/R/C_Dist_300_LN_2_LD_10_RN_12_RD_24_1.png","img2/100/Congruent/L/C_Dist_100_LN_11_LD_22_RN_6_RD_15_0.png","img2/200/Congruent/R/C_Dist_200_LN_3_LD_10_RN_14_RD_28_1.png","img2/200/Incongruent/L/I_Dist_200_LN_7_LD_10_RN_12_RD_24_0.png","img2/200/Congruent/R/C_Dist_200_LN_3_LD_12_RN_9_RD_20_1.png","img2/200/Congruent/L/C_Dist_200_LN_8_LD_15_RN_3_RD_9_0.png","img2/100/Incongruent/L/I_Dist_100_LN_3_LD_5_RN_8_RD_16_0.png","img2/300/Incongruent/L/I_Dist_300_LN_3_LD_6_RN_4_RD_20_0.png","img2/200/Incongruent/L/I_Dist_200_LN_1_LD_2_RN_3_RD_10_0.png","img2/300/Incongruent/L/I_Dist_300_LN_1_LD_2_RN_2_RD_10_0.png","img2/300/Congruent/R/C_Dist_300_LN_8_LD_15_RN_10_RD_12_1.png","img2/200/Incongruent/R/I_Dist_200_LN_14_LD_30_RN_6_RD_9_1.png","img2/300/Incongruent/R/I_Dist_300_LN_4_LD_20_RN_2_RD_4_1.png","img2/200/Incongruent/L/I_Dist_200_LN_7_LD_10_RN_12_RD_24_0.png","img2/100/Incongruent/R/I_Dist_100_LN_13_LD_26_RN_12_RD_20_1.png","img2/300/Congruent/L/C_Dist_300_LN_20_LD_25_RN_5_RD_10_0.png","img2/200/Incongruent/L/I_Dist_200_LN_7_LD_10_RN_14_RD_28_0.png","img2/200/Incongruent/L/I_Dist_200_LN_4_LD_6_RN_14_RD_30_0.png","img2/200/Incongruent/L/I_Dist_200_LN_1_LD_3_RN_2_RD_15_0.png","img2/300/Incongruent/L/I_Dist_300_LN_2_LD_4_RN_6_RD_30_0.png","img2/100/Congruent/R/C_Dist_100_LN_7_LD_14_RN_15_RD_25_1.png","img2/300/Congruent/L/C_Dist_300_LN_4_LD_10_RN_1_RD_10_0.png","img2/200/Congruent/L/C_Dist_200_LN_8_LD_15_RN_3_RD_9_0.png","img2/100/Incongruent/L/I_Dist_100_LN_3_LD_5_RN_11_RD_22_0.png","img2/200/Incongruent/R/I_Dist_200_LN_14_LD_30_RN_12_RD_18_1.png","img2/300/Congruent/R/C_Dist_300_LN_1_LD_5_RN_11_RD_22_1.png","img2/100/Congruent/R/C_Dist_100_LN_1_LD_2_RN_18_RD_30_1.png","img2/100/Incongruent/R/I_Dist_100_LN_8_LD_16_RN_6_RD_10_1.png","img2/300/Congruent/R/C_Dist_300_LN_2_LD_10_RN_12_RD_24_1.png","img2/300/Congruent/R/C_Dist_300_LN_1_LD_3_RN_19_RD_30_1.png","img2/100/Congruent/R/C_Dist_100_LN_3_LD_20_RN_4_RD_16_1.png","img2/200/Incongruent/L/I_Dist_200_LN_1_LD_3_RN_2_RD_15_0.png","img2/100/Congruent/R/C_Dist_100_LN_7_LD_14_RN_15_RD_25_1.png","img2/100/Congruent/L/C_Dist_100_LN_6_LD_20_RN_5_RD_25_0.png","img2/200/Incongruent/R/I_Dist_200_LN_14_LD_30_RN_12_RD_18_1.png","img2/100/Incongruent/L/I_Dist_100_LN_9_LD_10_RN_20_RD_25_0.png","img2/200/Congruent/R/C_Dist_200_LN_3_LD_12_RN_9_RD_20_1.png","img2/200/Congruent/R/C_Dist_200_LN_3_LD_10_RN_7_RD_14_1.png","img2/300/Incongruent/L/I_Dist_300_LN_1_LD_2_RN_2_RD_10_0.png","img2/300/Incongruent/L/I_Dist_300_LN_1_LD_2_RN_3_RD_15_0.png","img2/100/Incongruent/L/I_Dist_100_LN_1_LD_2_RN_8_RD_20_0.png","img2/100/Incongruent/L/I_Dist_100_LN_6_LD_10_RN_13_RD_26_0.png","img2/100/Incongruent/R/I_Dist_100_LN_12_LD_30_RN_2_RD_4_1.png","img2/100/Incongruent/L/I_Dist_100_LN_3_LD_6_RN_4_RD_10_0.png","img2/200/Incongruent/L/I_Dist_200_LN_7_LD_10_RN_8_RD_16_0.png","img2/100/Incongruent/R/I_Dist_100_LN_9_LD_18_RN_6_RD_10_1.png","img2/300/Congruent/R/C_Dist_300_LN_1_LD_20_RN_7_RD_20_1.png","img2/100/Incongruent/L/I_Dist_100_LN_6_LD_10_RN_11_RD_22_0.png"],"dist100_C":[["C_Dist_100_LN_10_LD_25_RN_3_RD_10_0.png","C_Dist_100_LN_11_LD_22_RN_4_RD_10_0.png","C_Dist_100_LN_11_LD_22_RN_6_RD_15_0.png","C_Dist_100_LN_15_LD_25_RN_13_RD_26_0.png","C_Dist_100_LN_3_LD_6_RN_2_RD_5_0.png","C_Dist_100_LN_6_LD_20_RN_5_RD_25_0.png","C_Dist_100_LN_8_LD_16_RN_2_RD_5_0.png","C_Dist_100_LN_9_LD_15_RN_8_RD_16_0.png"],["C_Dist_100_LN_1_LD_2_RN_18_RD_30_1.png","C_Dist_100_LN_1_LD_2_RN_3_RD_5_1.png","C_Dist_100_LN_12_LD_30_RN_13_RD_26_1.png","C_Dist_100_LN_2_LD_5_RN_11_RD_22_1.png","C_Dist_100_LN_2_LD_5_RN_6_RD_12_1.png","C_Dist_100_LN_3_LD_20_RN_4_RD_16_1.png","C_Dist_100_LN_4_LD_10_RN_15_RD_30_1.png","C_Dist_100_LN_4_LD_8_RN_6_RD_10_1.png","C_Dist_100_LN_6_LD_12_RN_15_RD_25_1.png","C_Dist_100_LN_7_LD_14_RN_15_RD_25_1.png","C_Dist_100_LN_7_LD_14_RN_9_RD_15_1.png"]],"dist100_I":[["I_Dist_100_LN_1_LD_2_RN_8_RD_20_0.png","I_Dist_100_LN_2_LD_4_RN_6_RD_15_0.png","I_Dist_100_LN_2_LD_4_RN_8_RD_20_0.png","I_Dist_100_LN_3_LD_5_RN_11_RD_22_0.png","I_Dist_100_LN_3_LD_5_RN_8_RD_16_0.png","I_Dist_100_LN_3_LD_6_RN_4_RD_10_0.png","I_Dist_100_LN_3_LD_9_RN_7_RD_30_0.png","I_Dist_100_LN_4_LD_8_RN_8_RD_20_0.png","I_Dist_100_LN_6_LD_10_RN_11_RD_22_0.png","I_Dist_100_LN_6_LD_10_RN_13_RD_26_0.png","I_Dist_100_LN_6_LD_10_RN_7_RD_14_0.png","I_Dist_100_LN_9_LD_10_RN_20_RD_25_0.png","I_Dist_100_LN_9_LD_15_RN_13_RD_26_0.png","I_Dist_100_LN_9_LD_15_RN_14_RD_28_0.png"],["I_Dist_100_LN_10_LD_25_RN_8_RD_16_1.png","I_Dist_100_LN_10_LD_25_RN_9_RD_18_1.png","I_Dist_100_LN_11_LD_22_RN_9_RD_15_1.png","I_Dist_100_LN_12_LD_24_RN_9_RD_15_1.png","I_Dist_100_LN_12_LD_30_RN_2_RD_4_1.png","I_Dist_100_LN_13_LD_26_RN_12_RD_20_1.png","I_Dist_100_LN_13_LD_26_RN_6_RD_10_1.png","I_Dist_100_LN_17_LD_30_RN_10_RD_15_1.png","I_Dist_100_LN_6_LD_12_RN_3_RD_5_1.png","I_Dist_100_LN_8_LD_16_RN_6_RD_10_1.png","I_Dist_100_LN_8_LD_20_RN_1_RD_2_1.png","I_Dist_100_LN_9_LD_18_RN_6_RD_10_1.png"]],"dist100_S":[["E_Dist_100_LN_2_LD_12_RN_2_RD_30_0.png","E_Dist_100_LN_6_LD_10_RN_6_RD_12_0.png"],["E_Dist_100_LN_6_LD_12_RN_6_RD_10_1.png"]],"dist200_C":[["C_Dist_200_LN_11_LD_22_RN_3_RD_10_0.png","C_Dist_200_LN_12_LD_15_RN_6_RD_10_0.png","C_Dist_200_LN_12_LD_20_RN_6_RD_15_0.png","C_Dist_200_LN_14_LD_28_RN_6_RD_20_0.png","C_Dist_200_LN_15_LD_25_RN_4_RD_10_0.png","C_Dist_200_LN_16_LD_20_RN_12_RD_20_0.png","C_Dist_200_LN_16_LD_30_RN_9_RD_27_0.png","C_Dist_200_LN_20_LD_25_RN_9_RD_15_0.png","C_Dist_200_LN_21_LD_30_RN_2_RD_4_0.png","C_Dist_200_LN_4_LD_10_RN_3_RD_15_0.png","C_Dist_200_LN_4_LD_8_RN_3_RD_10_0.png","C_Dist_200_LN_6_LD_15_RN_3_RD_15_0.png","C_Dist_200_LN_7_LD_21_RN_2_RD_15_0.png","C_Dist_200_LN_8_LD_15_RN_2_RD_6_0.png","C_Dist_200_LN_8_LD_15_RN_3_RD_9_0.png","C_Dist_200_LN_8_LD_15_RN_7_RD_21_0.png","C_Dist_200_LN_9_LD_20_RN_4_RD_16_0.png"],["C_Dist_200_LN_1_LD_2_RN_21_RD_30_1.png","C_Dist_200_LN_13_LD_26_RN_14_RD_20_1.png","C_Dist_200_LN_3_LD_10_RN_11_RD_22_1.png","C_Dist_200_LN_3_LD_10_RN_14_RD_28_1.png","C_Dist_200_LN_3_LD_10_RN_7_RD_14_1.png","C_Dist_200_LN_3_LD_12_RN_9_RD_20_1.png","C_Dist_200_LN_3_LD_6_RN_14_RD_20_1.png","C_Dist_200_LN_5_LD_10_RN_14_RD_20_1.png","C_Dist_200_LN_6_LD_12_RN_7_RD_10_1.png","C_Dist_200_LN_6_LD_20_RN_11_RD_22_1.png","C_Dist_200_LN_7_LD_15_RN_18_RD_27_1.png","C_Dist_200_LN_9_LD_30_RN_13_RD_26_1.png"]],"dist200_I":[["I_Dist_200_LN_1_LD_2_RN_3_RD_10_0.png","I_Dist_200_LN_1_LD_3_RN_2_RD_15_0.png","I_Dist_200_LN_3_LD_4_RN_11_RD_20_0.png","I_Dist_200_LN_4_LD_5_RN_6_RD_10_0.png","I_Dist_200_LN_4_LD_6_RN_14_RD_30_0.png","I_Dist_200_LN_7_LD_10_RN_12_RD_24_0.png","I_Dist_200_LN_7_LD_10_RN_14_RD_28_0.png","I_Dist_200_LN_7_LD_10_RN_8_RD_16_0.png"],["I_Dist_200_LN_11_LD_20_RN_3_RD_4_1.png","I_Dist_200_LN_14_LD_30_RN_12_RD_18_1.png","I_Dist_200_LN_14_LD_30_RN_6_RD_9_1.png","I_Dist_200_LN_3_LD_10_RN_1_RD_2_1.png","I_Dist_200_LN_4_LD_30_RN_1_RD_3_1.png","I_Dist_200_LN_6_LD_20_RN_3_RD_6_1.png","I_Dist_200_LN_7_LD_15_RN_4_RD_6_1.png","I_Dist_200_LN_7_LD_15_RN_6_RD_9_1.png","I_Dist_200_LN_9_LD_15_RN_8_RD_10_1.png"]],"dist200_S":[["E_Dist_200_LN_3_LD_6_RN_3_RD_10_0.png"],["E_Dist_200_LN_3_LD_10_RN_3_RD_6_1.png"]],"dist300_C":[["C_Dist_300_LN_11_LD_22_RN_1_RD_5_0.png","C_Dist_300_LN_11_LD_22_RN_2_RD_10_0.png","C_Dist_300_LN_11_LD_22_RN_4_RD_20_0.png","C_Dist_300_LN_12_LD_24_RN_2_RD_10_0.png","C_Dist_300_LN_18_LD_20_RN_9_RD_15_0.png","C_Dist_300_LN_20_LD_25_RN_13_RD_26_0.png","C_Dist_300_LN_20_LD_25_RN_14_RD_28_0.png","C_Dist_300_LN_20_LD_25_RN_5_RD_10_0.png","C_Dist_300_LN_20_LD_25_RN_8_RD_16_0.png","C_Dist_300_LN_20_LD_25_RN_9_RD_18_0.png","C_Dist_300_LN_24_LD_30_RN_2_RD_4_0.png","C_Dist_300_LN_24_LD_30_RN_8_RD_16_0.png","C_Dist_300_LN_3_LD_6_RN_2_RD_10_0.png","C_Dist_300_LN_4_LD_10_RN_1_RD_10_0.png","C_Dist_300_LN_4_LD_5_RN_2_RD_4_0.png","C_Dist_300_LN_8_LD_16_RN_1_RD_5_0.png","C_Dist_300_LN_9_LD_10_RN_3_RD_5_0.png"],["C_Dist_300_LN_1_LD_20_RN_7_RD_20_1.png","C_Dist_300_LN_1_LD_3_RN_19_RD_30_1.png","C_Dist_300_LN_1_LD_30_RN_8_RD_24_1.png","C_Dist_300_LN_1_LD_5_RN_11_RD_22_1.png","C_Dist_300_LN_1_LD_5_RN_3_RD_6_1.png","C_Dist_300_LN_1_LD_5_RN_6_RD_12_1.png","C_Dist_300_LN_2_LD_10_RN_12_RD_24_1.png","C_Dist_300_LN_2_LD_20_RN_10_RD_25_1.png","C_Dist_300_LN_3_LD_12_RN_11_RD_20_1.png","C_Dist_300_LN_3_LD_6_RN_4_RD_5_1.png","C_Dist_300_LN_4_LD_20_RN_13_RD_26_1.png","C_Dist_300_LN_5_LD_25_RN_6_RD_12_1.png","C_Dist_300_LN_5_LD_25_RN_7_RD_14_1.png","C_Dist_300_LN_7_LD_14_RN_20_RD_25_1.png","C_Dist_300_LN_8_LD_15_RN_10_RD_12_1.png"]],"dist300_I":[["I_Dist_300_LN_1_LD_2_RN_2_RD_10_0.png","I_Dist_300_LN_1_LD_2_RN_3_RD_15_0.png","I_Dist_300_LN_2_LD_4_RN_6_RD_30_0.png","I_Dist_300_LN_3_LD_6_RN_4_RD_20_0.png","I_Dist_300_LN_4_LD_5_RN_6_RD_12_0.png","I_Dist_300_LN_4_LD_5_RN_8_RD_16_0.png","I_Dist_300_LN_7_LD_10_RN_8_RD_20_0.png","I_Dist_300_LN_8_LD_10_RN_14_RD_28_0.png","I_Dist_300_LN_8_LD_10_RN_9_RD_18_0.png"],["I_Dist_300_LN_13_LD_26_RN_12_RD_15_1.png","I_Dist_300_LN_4_LD_20_RN_2_RD_4_1.png"]],"dist300_S":[["E_Dist_300_LN_9_LD_12_RN_9_RD_20_0.png"],["E_Dist_300_LN_18_LD_30_RN_18_RD_20_1.png","E_Dist_300_LN_3_LD_10_RN_3_RD_5_1.png","E_Dist_300_LN_9_LD_20_RN_9_RD_12_1.png"]],"dist500_C":[["C_Dist_500_LN_10_LD_13_RN_7_RD_26_0.png","C_Dist_500_LN_10_LD_15_RN_4_RD_24_0.png","C_Dist_500_LN_12_LD_16_RN_3_RD_12_0.png","C_Dist_500_LN_12_LD_18_RN_4_RD_24_0.png","C_Dist_500_LN_15_LD_18_RN_5_RD_15_0.png","C_Dist_500_LN_15_LD_20_RN_1_RD_4_0.png","C_Dist_500_LN_18_LD_27_RN_1_RD_6_0.png","C_Dist_500_LN_20_LD_24_RN_1_RD_3_0.png","C_Dist_500_LN_20_LD_24_RN_3_RD_9_0.png","C_Dist_500_LN_20_LD_24_RN_7_RD_21_0.png","C_Dist_500_LN_20_LD_28_RN_3_RD_14_0.png","C_Dist_500_LN_21_LD_28_RN_6_RD_24_0.png","C_Dist_500_LN_22_LD_28_RN_2_RD_7_0.png","C_Dist_500_LN_25_LD_30_RN_9_RD_27_0.png","C_Dist_500_LN_4_LD_6_RN_1_RD_6_0.png","C_Dist_500_LN_5_LD_6_RN_2_RD_6_0.png","C_Dist_500_LN_6_LD_9_RN_1_RD_6_0.png","C_Dist_500_LN_7_LD_10_RN_1_RD_5_0.png","C_Dist_500_LN_8_LD_12_RN_1_RD_6_0.png","C_Dist_500_LN_8_LD_12_RN_4_RD_24_0.png"],["C_Dist_500_LN_1_LD_4_RN_12_RD_16_1.png","C_Dist_500_LN_1_LD_4_RN_9_RD_12_1.png","C_Dist_500_LN_1_LD_9_RN_11_RD_18_1.png","C_Dist_500_LN_10_LD_24_RN_22_RD_24_1.png","C_Dist_500_LN_2_LD_12_RN_10_RD_15_1.png","C_Dist_500_LN_2_LD_12_RN_12_RD_18_1.png","C_Dist_500_LN_2_LD_12_RN_4_RD_6_1.png","C_Dist_500_LN_2_LD_24_RN_7_RD_12_1.png","C_Dist_500_LN_2_LD_5_RN_18_RD_20_1.png","C_Dist_500_LN_2_LD_5_RN_9_RD_10_1.png","C_Dist_500_LN_2_LD_8_RN_12_RD_16_1.png","C_Dist_500_LN_2_LD_8_RN_21_RD_28_1.png","C_Dist_500_LN_3_LD_10_RN_4_RD_5_1.png","C_Dist_500_LN_3_LD_12_RN_15_RD_20_1.png","C_Dist_500_LN_3_LD_30_RN_6_RD_10_1.png","C_Dist_500_LN_3_LD_8_RN_14_RD_16_1.png","C_Dist_500_LN_4_LD_16_RN_15_RD_20_1.png","C_Dist_500_LN_4_LD_24_RN_12_RD_18_1.png","C_Dist_500_LN_5_LD_14_RN_6_RD_7_1.png","C_Dist_500_LN_7_LD_21_RN_20_RD_24_1.png","C_Dist_500_LN_7_LD_28_RN_12_RD_16_1.png","C_Dist_500_LN_7_LD_28_RN_9_RD_12_1.png","C_Dist_500_LN_9_LD_27_RN_20_RD_24_1.png"]],"dist500_I":[["I_Dist_500_LN_2_LD_3_RN_4_RD_24_0.png","I_Dist_500_LN_5_LD_6_RN_6_RD_18_0.png","I_Dist_500_LN_7_LD_8_RN_9_RD_24_0.png"],["I_Dist_500_LN_7_LD_21_RN_5_RD_6_1.png"]],"dist500_S":[["E_Dist_500_LN_6_LD_8_RN_6_RD_24_0.png"],["E_Dist_500_LN_2_LD_12_RN_2_RD_3_1.png","E_Dist_500_LN_6_LD_24_RN_6_RD_8_1.png"]]}},{"start_time":1551882114898,"click_time":1551882122082,"finger_time":1551882121483,"fix_duration":395.08543478150784,"trial":1,"RT":6585,"MT":599,"sideResp":1,"stimulus":[],"xmouse":[796,796,796,796,796,796,796,796,796,796,796,796,796,796,796,796,796,796,796,796,796,796,796,796,796,796,796,796,796,796,796,796,796,796,796,796,796,796,796,796,796,796,796,796,796,796,796,796,796,796,796,796,796,796,796,796,796,796,796,796,796,796,796,796,796,796,796,796,796,796,796,796,796,796,796,796,796,796,796,796,796,796,796,796,796,796,796,796,796,796,796,796,796,796,796,796,796,796,796,796,796,796,796,796,796,796,796,796,796,796,796,796,796,796,796,796,796,796,796,796,796,796,796,796,796,796,796,796,796,796,796,796,796,796,796,796,796,796,796,796,796,796,796,796,796,796,796,796,796,796,796,796,796,796,796,796,796,796,796,796,796,796,796,796,796,796,796,796,796,796,796,796,796,796,796,796,796,796,796,796,796,796,796,796,796,796,796,796,796,796,796,796,796,796,796,796,796,796,796,796,796,796,796,796,796,796,796,796,796,796,796,796,796,796,796,796,796,796,796,796,796,796,796,796,796,796,796,796,796,796,796,796,796,796,796,796,796,796,796,796,796,796,796,796,796,796,796,796,796,796,796,796,796,796,796,796,796,796,796,796,796,796,796,796,796,796,796,796,796,796,796,796,796,796,796,796,796,796,796,796,796,796,796,796,796,796,796,796,796,796,796,796,796,796,796,796,796,796,796,796,796,796,796,796,796,796,796,796,796,796,796,796,796,796,796,796,796,796,792,786,785,779,777,775,771,769,766,763,750,737,686,668,645,631,613,594,562,560,560,560,560,560,560,564,568,569,569,563,555,552,552,552,548,542,536,527,507,496,490,486],"ymouse":[632,632,632,632,632,632,632,632,632,632,632,632,632,632,632,632,632,632,632,632,632,632,632,632,632,632,632,632,632,632,632,632,632,632,632,632,632,632,632,632,632,632,632,632,632,632,632,632,632,632,632,632,632,632,632,632,632,632,632,632,632,632,632,632,632,632,632,632,632,632,632,632,632,632,632,632,632,632,632,632,632,632,632,632,632,632,632,632,632,632,632,632,632,632,632,632,632,632,632,632,632,632,632,632,632,632,632,632,632,632,632,632,632,632,632,632,632,632,632,632,632,632,632,632,632,632,632,632,632,632,632,632,632,632,632,632,632,632,632,632,632,632,632,632,632,632,632,632,632,632,632,632,632,632,632,632,632,632,632,632,632,632,632,632,632,632,632,632,632,632,632,632,632,632,632,632,632,632,632,632,632,632,632,632,632,632,632,632,632,632,632,632,632,632,632,632,632,632,632,632,632,632,632,632,632,632,632,632,632,632,632,632,632,632,632,632,632,632,632,632,632,632,632,632,632,632,632,632,632,632,632,632,632,632,632,632,632,632,632,632,632,632,632,632,632,632,632,632,632,632,632,632,632,632,632,632,632,632,632,632,632,632,632,632,632,632,632,632,632,632,632,632,632,632,632,632,632,632,632,632,632,632,632,632,632,632,632,632,632,632,632,632,632,632,632,632,632,632,632,632,632,632,632,632,632,632,632,632,632,632,632,632,632,632,632,632,632,632,636,643,644,642,640,636,631,627,616,603,578,559,505,481,448,426,404,386,362,359,358,356,348,342,335,324,315,305,284,263,251,245,233,226,217,207,199,188,157,128,110,99],"timestamp_mouse":[9,25,53,65,86,106,124,144,165,184,206,225,244,265,286,304,325,346,366,384,404,425,445,465,485,505,526,545,564,584,605,626,646,664,686,704,724,745,764,784,804,824,845,864,884,904,926,944,964,985,1005,1025,1045,1064,1085,1104,1124,1145,1164,1185,1205,1224,1245,1264,1284,1304,1324,1346,1365,1385,1405,1425,1445,1466,1486,1504,1524,1545,1564,1585,1604,1625,1645,1665,1684,1706,1724,1746,1765,1784,1805,1824,1846,1865,1886,1904,1925,1945,1964,1985,2004,2024,2045,2066,2084,2105,2125,2145,2165,2186,2204,2225,2244,2265,2285,2305,2325,2346,2365,2386,2404,2426,2444,2465,2484,2504,2526,2545,2565,2586,2604,2625,2644,2664,2684,2705,2725,2745,2765,2784,2804,2825,2846,2864,2886,2905,2925,2945,2964,2984,3004,3024,3045,3065,3084,3104,3124,3146,3165,3184,3205,3225,3245,3265,3286,3304,3325,3346,3364,3385,3406,3424,3445,3464,3486,3505,3524,3546,3565,3584,3605,3624,3645,3665,3685,3706,3725,3745,3766,3786,3804,3825,3844,3865,3884,3905,3926,3946,3964,3985,4004,4024,4045,4065,4085,4105,4124,4144,4165,4184,4204,4224,4244,4266,4284,4305,4324,4345,4364,4386,4406,4424,4446,4464,4485,4504,4525,4544,4566,4584,4606,4625,4644,4665,4684,4704,4724,4744,4766,4785,4804,4824,4845,4864,4885,4905,4925,4944,4964,4985,5004,5026,5045,5066,5085,5106,5126,5144,5164,5184,5204,5225,5246,5264,5286,5305,5326,5345,5364,5385,5405,5424,5444,5464,5484,5504,5524,5546,5565,5584,5606,5624,5645,5666,5684,5705,5726,5744,5765,5785,5805,5824,5845,5866,5884,5904,5925,5945,5964,5985,6004,6026,6044,6065,6084,6105,6124,6145,6165,6184,6204,6225,6244,6266,6286,6304,6324,6345,6365,6385,6406,6426,6445,6466,6485,6504,6525,6545,6565,6585,6605,6625,6645,6666,6684,6704,6724,6745,6765,6785,6806,6824,6845,6864,6886,6905,6926,6945,6965,6986,7006,7024,7044,7066,7086,7105,7124,7145,7165,7184],"xSR":741.5,"ySR":573.95,"xT1":424.9,"yT1":0,"xT2":1058.1,"yT2":0,"toosoon":0,"cond_shown":"Congruent","ratio_trial":100,"L_num":2,"L_den":5,"R_num":11,"R_den":22,"correct_side":2,"subjID":"biancasofiagutierrezplazas12","gender":"1","school":"6","age":"11"},{"start_time":1551882158741,"click_time":1551882164642,"finger_time":1551882163802,"fix_duration":597.0513548273995,"trial":2,"RT":5061,"MT":840,"sideResp":1,"stimulus":[],"xmouse":[789,789,789,789,789,789,789,789,789,789,789,789,789,789,789,789,789,789,789,789,789,789,789,789,789,789,789,789,789,789,789,789,789,789,789,789,789,789,789,789,789,789,789,789,789,789,789,789,789,789,789,789,789,789,789,789,789,789,789,789,789,789,789,789,789,789,789,789,789,789,789,789,789,789,789,789,789,789,789,789,789,789,789,789,789,789,789,789,789,789,789,789,789,789,789,789,789,789,789,789,789,789,789,789,789,789,789,789,789,789,789,789,789,789,789,789,789,789,789,789,789,789,789,789,789,789,789,789,789,789,789,789,789,789,789,789,789,789,789,789,789,789,789,789,789,789,789,789,789,789,789,789,789,789,789,789,789,789,789,789,789,789,789,789,789,789,789,789,789,789,789,789,789,789,789,789,789,789,789,789,789,789,789,789,789,789,789,789,789,789,789,789,789,789,789,789,789,789,789,789,789,789,789,789,789,789,789,789,789,789,789,789,789,789,789,789,789,789,789,789,789,789,789,789,789,789,789,789,789,789,789,789,789,789,789,789,789,789,789,789,789,789,789,789,789,789,789,789,789,789,789,791,793,781,757,705,643,561,355,261,170,83,26,0,0,0,0,0,0,0,5,16,16,37,87,222,259,283,311,311,307,296,285,285,278,278,284,296,308,322,324,328,339,362,418,452],"ymouse":[616,616,616,616,616,616,616,616,616,616,616,616,616,616,616,616,616,616,616,616,616,616,616,616,616,616,616,616,616,616,616,616,616,616,616,616,616,616,616,616,616,616,616,616,616,616,616,616,616,616,616,616,616,616,616,616,616,616,616,616,616,616,616,616,616,616,616,616,616,616,616,616,616,616,616,616,616,616,616,616,616,616,616,616,616,616,616,616,616,616,616,616,616,616,616,616,616,616,616,616,616,616,616,616,616,616,616,616,616,616,616,616,616,616,616,616,616,616,616,616,616,616,616,616,616,616,616,616,616,616,616,616,616,616,616,616,616,616,616,616,616,616,616,616,616,616,616,616,616,616,616,616,616,616,616,616,616,616,616,616,616,616,616,616,616,616,616,616,616,616,616,616,616,616,616,616,616,616,616,616,616,616,616,616,616,616,616,616,616,616,616,616,616,616,616,616,616,616,616,616,616,616,616,616,616,616,616,616,616,616,616,616,616,616,616,616,616,616,616,616,616,616,616,616,616,616,616,616,616,616,616,616,616,616,616,616,616,616,616,616,616,616,616,616,616,616,616,616,616,616,616,608,574,382,300,190,80,0,0,0,0,0,0,0,0,0,0,0,0,0,3,11,11,18,30,68,80,87,93,93,93,91,87,87,79,73,68,65,62,58,57,57,55,53,53,53],"timestamp_mouse":[8,21,41,62,81,102,121,142,162,181,202,221,242,263,281,302,321,341,362,381,401,423,442,461,483,501,522,542,562,582,601,621,641,662,682,701,721,741,762,781,801,821,842,861,882,902,921,943,962,982,1001,1023,1041,1062,1081,1101,1122,1142,1163,1181,1202,1222,1241,1263,1283,1301,1322,1342,1362,1382,1401,1422,1441,1461,1482,1502,1522,1541,1561,1581,1603,1621,1642,1661,1682,1703,1721,1742,1761,1783,1802,1821,1842,1862,1883,1901,1922,1941,1962,1981,2001,2022,2041,2061,2081,2101,2122,2141,2162,2181,2202,2222,2243,2261,2282,2301,2321,2341,2361,2383,2403,2422,2442,2462,2482,2501,2522,2542,2561,2582,2601,2622,2642,2661,2681,2702,2722,2741,2761,2782,2801,2823,2841,2863,2881,2903,2922,2941,2962,2982,3001,3023,3042,3061,3081,3102,3122,3142,3162,3181,3201,3221,3243,3262,3281,3302,3321,3342,3361,3382,3401,3421,3441,3461,3483,3501,3522,3542,3562,3582,3603,3621,3641,3663,3681,3702,3721,3742,3762,3783,3801,3822,3841,3862,3883,3902,3923,3943,3961,3983,4001,4022,4041,4062,4083,4101,4122,4141,4161,4183,4201,4221,4243,4261,4281,4302,4321,4343,4362,4381,4401,4422,4443,4461,4481,4502,4522,4542,4562,4581,4602,4623,4642,4662,4681,4702,4723,4741,4761,4781,4801,4821,4841,4863,4881,4902,4921,4941,4962,4982,5001,5023,5042,5061,5081,5101,5122,5141,5161,5181,5201,5221,5241,5262,5281,5302,5321,5342,5362,5381,5402,5421,5442,5462,5481,5501,5521,5541,5562,5581,5601,5622,5642,5662,5681,5701,5721,5741,5762,5782,5801,5822,5842,5861,5882,5901],"xSR":741.5,"ySR":573.95,"xT1":424.9,"yT1":0,"xT2":1058.1,"yT2":0,"toosoon":0,"cond_shown":"Incongruent","ratio_trial":300,"L_num":1,"L_den":2,"R_num":3,"R_den":15,"correct_side":1,"subjID":"biancasofiagutierrezplazas12","gender":"1","school":"6","age":"11"},{"start_time":1551882167395,"click_time":1551882169583,"finger_time":1551882168863,"fix_duration":250,"trial":3,"RT":1468,"MT":720,"sideResp":2,"stimulus":[],"xmouse":[778,777,777,776,776,776,776,776,776,776,776,776,776,776,776,776,776,776,776,776,776,776,776,776,776,776,776,776,776,776,776,776,776,776,776,776,776,776,776,776,776,776,776,776,776,776,776,776,776,776,776,776,776,776,776,776,776,776,776,776,776,776,776,776,776,776,776,776,776,778,779,795,808,815,818,823,846,861,877,891,893,915,926,937,946,959,974,978,985,994,1003,1007,1009,1011,1014,1020,1041,1049,1051,1051,1051,1051,1051,1052,1053,1054,1056,1057,1057,1059],"ymouse":[641,643,643,647,647,647,647,647,647,647,647,647,647,647,647,647,646,646,646,646,646,646,646,646,646,646,646,646,646,646,645,645,645,645,645,645,645,645,645,645,645,645,645,645,645,645,645,645,645,645,645,645,645,645,645,645,645,645,645,645,645,645,645,645,645,645,645,645,645,643,640,617,590,564,531,497,402,348,306,271,267,217,195,172,149,128,99,91,84,79,76,73,71,69,66,64,55,52,51,51,51,51,51,51,50,49,49,49,48,47],"timestamp_mouse":[7,43,47,68,87,107,127,148,167,188,207,227,248,268,287,308,327,348,367,388,408,428,447,468,487,508,528,547,567,588,608,628,647,667,687,708,727,747,768,787,807,827,847,867,887,907,928,947,967,987,1008,1028,1047,1068,1087,1108,1128,1147,1168,1187,1208,1227,1248,1267,1287,1307,1327,1347,1368,1388,1408,1427,1447,1468,1488,1508,1527,1549,1567,1588,1607,1628,1648,1667,1687,1707,1727,1747,1767,1787,1807,1829,1847,1867,1889,1907,1928,1947,1967,1987,2008,2027,2047,2068,2088,2107,2127,2148,2167,2188],"xSR":741.5,"ySR":573.95,"xT1":424.9,"yT1":0,"xT2":1058.1,"yT2":0,"toosoon":0,"cond_shown":"Congruent","ratio_trial":200,"L_num":7,"L_den":15,"R_num":18,"R_den":27,"correct_side":2,"subjID":"biancasofiagutierrezplazas12","gender":"1","school":"6","age":"11"},{"start_time":1551882171440,"click_time":1551882174303,"finger_time":1551882173043,"fix_duration":836.4391823424897,"trial":4,"RT":1603,"MT":1260,"sideResp":2,"stimulus":[],"xmouse":[784,784,784,784,784,784,784,784,784,784,784,784,784,784,784,784,784,784,784,784,784,784,784,784,784,784,784,784,784,784,784,784,784,784,784,784,784,784,784,784,784,784,784,784,784,784,784,784,784,784,784,784,784,784,784,784,784,784,784,784,784,784,784,784,784,784,784,784,784,784,784,789,792,798,806,809,811,813,816,816,817,817,818,819,820,821,821,821,821,821,821,821,821,821,821,821,821,820,819,816,815,813,812,811,811,811,810,810,809,808,808,806,806,804,803,803,799,798,797,797,797,797,798,799,816,828,844,870,900,937,947,954,964,976,981,985,989,995,1013,1028,1034,1053,1067,1100],"ymouse":[643,643,643,643,643,643,643,642,642,642,642,642,642,642,642,642,642,642,642,642,642,642,642,642,642,642,642,642,642,642,642,642,642,642,642,642,642,642,642,642,642,642,642,642,642,642,642,642,642,642,642,642,642,642,642,642,642,642,642,642,642,642,642,642,642,642,642,642,642,642,642,639,635,625,607,597,589,584,576,574,573,570,567,565,561,559,559,559,559,559,559,559,559,559,559,560,560,564,567,576,582,589,592,594,594,596,598,599,601,604,605,608,609,612,614,615,616,616,616,606,602,594,586,583,549,527,503,471,427,359,331,312,283,258,249,242,234,225,202,181,171,145,128,88],"timestamp_mouse":[8,23,43,62,82,102,122,142,163,182,204,222,243,262,282,302,322,343,362,382,403,422,443,462,482,502,523,542,563,583,602,622,643,664,682,702,723,743,763,782,802,823,843,863,882,902,923,942,962,983,1002,1022,1042,1064,1083,1103,1124,1142,1162,1182,1202,1222,1242,1262,1283,1302,1323,1343,1363,1382,1402,1423,1442,1463,1482,1502,1523,1542,1563,1582,1603,1622,1642,1662,1682,1702,1722,1742,1763,1782,1803,1822,1842,1862,1882,1902,1922,1943,1962,1982,2002,2022,2042,2063,2082,2103,2122,2143,2162,2182,2202,2222,2242,2263,2281,2302,2322,2343,2362,2382,2403,2422,2442,2462,2483,2502,2523,2543,2563,2582,2603,2623,2642,2663,2682,2702,2722,2742,2763,2782,2802,2822,2842,2863],"xSR":741.5,"ySR":573.95,"xT1":424.9,"yT1":0,"xT2":1058.1,"yT2":0,"toosoon":0,"cond_shown":"Incongruent","ratio_trial":100,"L_num":9,"L_den":18,"R_num":6,"R_den":10,"correct_side":2,"subjID":"biancasofiagutierrezplazas12","gender":"1","school":"6","age":"11"},{"start_time":1551882177194,"click_time":1551882179142,"finger_time":1551882178622,"fix_duration":1468.4252916316739,"trial":5,"RT":1428,"MT":520,"sideResp":2,"stimulus":[],"xmouse":[788,788,788,788,788,788,788,788,788,788,788,788,788,788,788,788,788,788,788,788,788,788,788,788,788,788,788,789,789,789,789,789,789,789,789,789,789,789,789,789,789,789,789,789,789,789,789,789,789,789,789,789,789,789,789,789,789,789,789,789,789,789,789,789,789,789,789,789,789,794,798,815,822,825,830,838,867,880,893,902,929,938,944,964,992,1043,1052,1054,1055,1055,1066,1079,1082,1091,1092,1095,1100,1102],"ymouse":[622,622,622,622,622,622,622,622,622,622,622,622,622,622,621,621,621,621,621,621,621,621,621,621,621,621,621,622,622,622,622,622,622,622,622,622,622,622,622,622,622,622,622,622,622,622,622,622,622,622,622,622,622,622,622,622,622,622,622,622,622,622,622,622,622,622,622,622,622,617,611,570,547,533,515,492,425,397,370,351,306,293,289,276,257,223,214,210,209,209,204,194,190,177,174,165,122,93],"timestamp_mouse":[11,42,48,68,88,108,128,148,169,189,209,228,249,268,288,308,328,348,368,388,408,429,448,468,489,508,528,549,568,588,608,628,648,669,689,709,729,749,768,788,808,828,848,869,888,908,929,948,969,989,1009,1028,1049,1068,1089,1109,1129,1148,1169,1188,1208,1229,1248,1269,1288,1308,1329,1349,1368,1388,1408,1428,1448,1468,1489,1509,1528,1548,1568,1588,1609,1628,1648,1668,1688,1710,1728,1749,1768,1788,1808,1829,1848,1869,1888,1909,1928,1948],"xSR":741.5,"ySR":573.95,"xT1":424.9,"yT1":0,"xT2":1058.1,"yT2":0,"toosoon":0,"cond_shown":"Incongruent","ratio_trial":200,"L_num":3,"L_den":4,"R_num":11,"R_den":20,"correct_side":1,"subjID":"biancasofiagutierrezplazas12","gender":"1","school":"6","age":"11"},{"start_time":1551882182275,"click_time":1551882184183,"finger_time":1551882183982,"fix_duration":250,"trial":6,"RT":1707,"MT":201,"sideResp":1,"stimulus":[],"xmouse":[799,799,799,799,799,799,799,799,799,799,799,799,799,799,799,799,799,799,799,799,799,799,799,799,799,799,799,799,799,799,799,799,799,799,799,799,799,799,799,799,799,799,799,799,799,799,799,799,799,799,799,799,799,799,799,799,799,799,799,799,799,799,799,799,799,799,799,799,799,799,799,799,799,799,799,799,799,799,799,799,799,790,777,757,746,725,707,691,682,669,661,646,586,555,536,522],"ymouse":[638,638,638,638,638,638,638,638,638,638,638,638,638,638,638,638,638,638,638,638,638,638,638,638,638,638,638,638,638,638,638,638,638,638,638,638,638,638,638,638,638,638,638,638,638,638,638,638,638,638,638,638,638,638,638,638,638,638,638,638,638,638,638,637,637,637,637,637,637,637,637,637,637,637,637,637,637,637,637,637,638,640,641,641,641,630,610,564,511,423,363,304,178,132,111,89],"timestamp_mouse":[9,38,48,68,88,107,127,147,169,187,207,228,248,269,287,307,327,348,367,388,407,428,448,467,488,507,527,548,568,588,607,628,647,667,687,708,728,748,768,788,808,828,848,868,888,908,927,948,967,988,1008,1027,1047,1067,1088,1107,1128,1147,1168,1187,1207,1227,1247,1268,1288,1307,1328,1347,1368,1387,1408,1427,1448,1467,1488,1507,1528,1548,1567,1587,1607,1628,1647,1667,1687,1707,1727,1747,1767,1787,1808,1827,1847,1867,1887,1907],"xSR":741.5,"ySR":573.95,"xT1":424.9,"yT1":0,"xT2":1058.1,"yT2":0,"toosoon":0,"cond_shown":"Incongruent","ratio_trial":300,"L_num":3,"L_den":6,"R_num":4,"R_den":20,"correct_side":1,"subjID":"biancasofiagutierrezplazas12","gender":"1","school":"6","age":"11"},{"start_time":1551882185865,"click_time":1551882188022,"finger_time":1551882186922,"fix_duration":340.4268307667282,"trial":7,"RT":1057,"MT":1100,"sideResp":2,"stimulus":[],"xmouse":[811,811,811,811,811,811,811,811,811,811,811,811,811,811,811,811,811,811,811,811,811,811,811,811,811,811,811,811,811,811,811,810,810,810,810,810,810,810,810,810,810,810,810,810,810,808,803,784,775,768,768,762,760,760,759,759,759,759,759,759,759,759,759,759,759,759,759,759,759,759,761,767,768,769,769,769,769,769,769,770,770,773,779,788,798,814,833,885,907,942,961,977,977,977,977,977,977,978,983,991,995,999,1003,1009,1019,1034,1047,1068],"ymouse":[630,630,630,630,630,630,630,630,630,630,630,630,630,630,630,630,630,630,630,630,630,630,630,630,630,630,630,630,630,630,630,630,630,629,629,629,629,629,629,629,629,629,629,629,626,625,621,605,594,581,581,574,572,572,571,571,571,571,571,571,571,571,571,571,571,571,571,571,574,578,580,591,594,595,595,595,595,595,595,596,596,592,581,562,535,495,442,316,243,113,25,0,0,0,0,0,0,0,0,0,0,0,0,0,2,6,8,11],"timestamp_mouse":[17,39,57,77,99,117,138,157,178,199,217,238,258,279,297,318,337,358,377,398,417,437,458,478,497,518,538,557,577,598,617,637,658,677,697,717,737,758,778,797,817,837,857,878,897,918,937,958,979,997,1018,1038,1057,1077,1097,1117,1137,1158,1177,1198,1217,1238,1257,1277,1297,1317,1337,1357,1377,1397,1418,1438,1458,1477,1497,1518,1537,1557,1577,1598,1617,1639,1658,1677,1697,1717,1737,1759,1777,1797,1818,1839,1857,1877,1898,1918,1938,1958,1978,1998,2019,2038,2057,2078,2098,2117,2137,2157],"xSR":741.5,"ySR":573.95,"xT1":424.9,"yT1":0,"xT2":1058.1,"yT2":0,"toosoon":0,"cond_shown":"Incongruent","ratio_trial":300,"L_num":4,"L_den":20,"R_num":2,"R_den":4,"correct_side":2,"subjID":"biancasofiagutierrezplazas12","gender":"1","school":"6","age":"11"},{"start_time":1551882189533,"click_time":1551882191662,"finger_time":1551882190943,"fix_duration":250,"trial":8,"RT":1410,"MT":719,"sideResp":2,"stimulus":[],"xmouse":[820,820,820,820,820,820,820,820,820,820,820,820,820,820,820,821,821,821,821,821,821,821,821,822,822,822,823,823,823,823,823,824,824,824,824,824,824,824,824,824,824,825,825,825,825,825,825,825,825,826,826,826,826,826,826,826,826,826,826,826,826,826,826,826,826,826,826,826,827,830,843,856,868,879,896,913,964,976,998,1030,1035,1035,1035,1035,1038,1043,1047,1051,1056,1048,1038,1032,1030,1030,1031,1032,1034,1035,1037,1039,1039,1040,1042,1047,1054,1058,1060],"ymouse":[643,643,643,643,643,643,643,644,644,644,644,644,644,644,644,644,644,644,644,644,644,644,644,644,644,644,644,644,644,644,644,644,644,644,644,644,644,644,644,644,644,644,644,644,644,644,644,644,644,645,645,645,645,645,645,645,645,645,645,645,645,645,645,645,645,645,645,645,645,642,629,616,601,587,562,537,477,464,439,364,338,314,294,280,252,226,210,193,159,141,127,114,105,96,74,69,56,51,48,45,44,44,43,43,42,41,41],"timestamp_mouse":[9,29,49,69,89,109,129,150,170,189,209,230,250,269,289,310,329,349,369,389,410,429,449,469,490,509,529,550,569,590,609,629,649,670,689,710,729,749,770,790,810,830,850,870,890,909,930,949,970,989,1009,1029,1049,1070,1089,1111,1129,1150,1170,1189,1210,1230,1249,1269,1289,1309,1329,1350,1369,1389,1410,1430,1450,1470,1489,1509,1529,1550,1570,1590,1609,1629,1649,1669,1689,1710,1729,1749,1770,1789,1809,1829,1850,1870,1889,1909,1930,1949,1971,1989,2009,2029,2049,2070,2089,2109,2129],"xSR":741.5,"ySR":573.95,"xT1":424.9,"yT1":0,"xT2":1058.1,"yT2":0,"toosoon":0,"cond_shown":"Congruent","ratio_trial":100,"L_num":15,"L_den":25,"R_num":13,"R_den":26,"correct_side":1,"subjID":"biancasofiagutierrezplazas12","gender":"1","school":"6","age":"11"},{"start_time":1551882195275,"click_time":1551882236061,"finger_time":1551882235502,"fix_duration":250,"trial":9,"RT":40227,"MT":559,"sideResp":1,"stimulus":[],"xmouse":[782,782,782,782,782,782,782,782,782,782,782,781,778,774,771,770,769,767,765,764,764,764,764,764,764,764,763,763,763,763,763,763,763,763,763,763,763,763,763,763,763,763,763,764,764,764,764,765,765,765,765,766,766,766,767,768,769,770,770,770,770,770,770,770,770,770,770,770,770,770,770,770,770,770,770,770,770,770,770,770,770,770,770,770,770,770,770,770,770,770,770,770,770,770,770,770,770,770,770,770,770,770,769,768,768,768,766,766,766,766,766,766,766,766,766,766,766,766,766,766,766,766,766,766,766,766,766,766,766,766,766,766,766,766,766,766,766,766,766,766,766,766,766,765,763,762,761,761,761,761,761,761,761,761,761,761,761,761,761,761,761,761,761,761,761,761,761,761,761,761,761,761,761,761,761,761,761,761,761,761,761,761,761,761,761,761,761,761,761,761,761,761,761,761,761,761,761,761,761,761,761,761,761,761,761,761,761,761,761,761,761,761,761,761,761,761,761,761,761,761,761,761,761,761,761,761,761,761,761,761,761,761,761,761,761,761,761,761,761,761,761,761,761,761,761,761,761,761,761,761,761,761,761,761,761,761,761,761,761,761,761,761,761,761,761,761,761,761,761,761,761,761,761,761,761,761,761,761,761,761,761,761,761,761,761,761,761,761,761,761,761,761,761,761,761,761,761,761,761,761,761,761,761,761,761,761,761,761,761,761,761,761,761,761,761,761,761,761,761,761,761,761,761,761,761,761,761,761,761,761,761,761,761,761,761,761,761,761,761,761,761,761,761,761,761,761,761,761,761,761,761,761,761,761,761,761,761,761,761,761,761,761,761,761,761,761,761,761,761,761,761,761,761,761,761,761,761,761,761,761,761,761,761,761,761,761,761,761,761,761,761,761,761,761,761,761,761,761,761,761,761,761,761,761,761,761,761,761,761,761,761,761,761,761,761,761,761,761,761,761,761,761,761,761,761,761,761,761,761,761,761,761,761,761,761,761,761,761,761,761,761,761,761,761,761,761,761,761,761,761,761,761,761,761,761,761,761,761,761,761,761,761,761,761,761,761,761,761,761,761,761,761,761,761,761,761,761,761,761,761,761,761,761,761,761,761,761,761,761,761,761,761,761,761,761,761,761,761,761,761,761,761,761,761,761,761,761,761,761,761,761,761,761,761,761,761,761,761,761,761,761,761,761,761,761,761,761,761,761,761,761,761,761,761,761,761,761,761,761,761,761,761,761,761,761,761,761,761,761,761,761,761,761,761,761,761,761,761,761,761,761,761,761,761,761,761,761,761,761,761,761,761,761,761,761,761,761,761,761,761,761,761,761,761,761,761,761,761,761,761,761,761,761,761,761,761,761,761,761,761,761,761,761,761,761,761,761,761,761,761,761,761,761,761,761,761,761,761,761,761,761,761,761,761,761,761,761,761,761,761,761,761,761,761,761,761,761,761,761,761,761,761,761,761,761,761,761,761,761,761,761,761,761,761,761,761,761,761,761,761,761,761,761,761,761,761,761,761,761,761,761,761,761,761,761,761,761,761,761,761,761,761,761,761,761,761,761,761,761,761,761,761,761,761,761,761,761,761,761,761,761,761,761,761,761,761,761,761,761,761,761,761,761,761,761,761,761,761,761,761,761,761,761,761,761,761,761,761,761,761,761,761,761,761,761,761,761,761,761,761,761,761,761,761,761,761,761,761,761,761,761,761,761,761,761,761,761,761,761,761,761,761,761,761,761,761,761,761,761,761,761,761,761,761,761,761,761,761,761,761,761,761,761,761,761,761,761,761,761,761,761,761,761,761,761,761,761,761,761,761,761,761,761,761,761,761,761,761,761,761,761,761,761,761,761,761,761,761,761,761,761,761,761,761,761,761,761,761,761,761,761,761,761,761,761,761,761,761,761,761,761,761,761,761,761,761,761,761,761,761,761,761,761,761,761,761,761,761,761,761,761,761,761,761,761,761,761,761,761,761,761,761,761,761,761,761,761,761,761,761,761,761,761,761,761,761,761,761,761,761,761,761,761,761,761,761,761,761,761,761,761,761,761,761,761,761,761,761,761,761,761,761,761,761,761,761,761,761,761,761,761,761,761,761,761,761,761,761,761,761,761,761,761,761,761,761,761,761,761,761,761,761,761,761,761,761,761,761,761,761,761,761,761,761,761,761,761,761,761,761,761,761,761,761,761,761,761,761,761,761,761,761,761,761,761,761,761,761,761,761,761,761,761,761,761,761,761,761,761,761,761,761,761,761,761,761,761,761,761,761,761,761,761,761,761,761,761,761,761,761,761,761,761,761,761,761,761,761,761,761,761,761,761,761,761,761,761,761,761,761,761,761,761,761,761,761,761,761,761,761,761,761,761,761,761,761,761,761,761,761,761,761,761,761,761,761,761,761,761,761,761,761,761,761,761,761,761,761,761,761,761,761,761,761,761,761,761,761,761,761,761,761,761,761,761,761,761,761,761,761,761,761,761,761,761,761,761,761,761,761,761,761,761,761,761,761,761,761,761,761,761,761,761,761,761,761,761,761,761,761,761,761,761,761,761,761,761,761,761,761,761,761,761,761,761,761,761,761,761,761,761,761,761,761,761,761,761,761,761,761,761,761,761,761,761,761,761,761,761,761,761,761,761,761,761,761,761,761,761,761,761,761,761,761,761,761,761,761,761,761,761,761,761,761,761,761,761,761,761,761,761,761,761,761,761,761,761,761,761,761,761,761,761,761,761,761,761,761,761,761,761,761,761,761,761,761,761,761,761,761,761,761,761,761,761,761,761,761,761,761,761,761,761,761,761,761,761,761,761,761,761,761,761,761,761,761,761,761,761,761,761,761,761,761,761,761,761,761,761,761,761,761,761,761,761,761,761,761,761,761,761,761,761,761,761,761,761,761,761,761,761,761,761,761,761,761,761,761,761,761,761,761,761,761,761,761,761,761,761,761,761,761,761,761,761,761,761,761,761,761,761,761,761,761,761,761,761,761,761,761,761,761,761,761,761,761,761,761,761,761,761,761,761,761,761,761,761,761,761,761,761,761,761,761,761,761,761,761,761,761,761,761,761,761,761,761,761,761,761,761,761,761,761,761,761,761,761,761,761,761,761,761,761,761,761,761,761,761,761,761,761,761,761,761,761,761,761,761,761,761,761,761,761,761,761,761,761,761,761,761,761,761,761,761,761,761,761,761,761,761,761,761,761,761,761,761,761,761,761,761,761,761,761,761,761,761,761,761,761,761,761,761,761,761,761,761,761,761,761,761,761,761,761,761,761,761,761,761,761,761,761,761,761,761,761,761,761,761,761,761,761,761,761,761,761,761,761,761,761,761,761,761,761,761,761,761,761,761,761,761,761,761,761,761,761,761,761,761,761,761,761,761,761,761,761,761,761,761,761,761,761,761,761,761,761,761,761,761,761,761,761,761,761,761,761,761,761,761,761,761,761,761,761,761,761,761,761,761,761,761,761,761,761,761,761,761,761,761,761,761,761,761,761,761,761,761,761,761,761,761,761,761,761,761,761,761,761,761,761,761,761,761,761,761,761,761,761,761,761,761,761,761,761,761,761,761,761,761,761,761,761,761,761,761,761,761,761,761,761,761,761,761,761,761,761,761,761,761,761,761,761,761,761,761,761,761,761,761,761,761,761,761,761,761,761,761,761,761,761,761,761,761,761,761,761,761,761,761,761,761,761,761,761,761,761,761,761,761,761,761,761,761,761,761,761,761,761,761,761,761,761,761,761,761,761,761,761,761,761,761,761,761,761,761,761,761,761,761,761,761,761,761,761,761,761,761,761,761,761,761,761,761,761,761,761,761,761,761,761,761,761,761,761,761,761,761,761,761,761,761,761,761,761,761,761,761,761,761,761,761,761,761,761,761,761,761,761,761,761,761,761,761,761,761,761,761,761,761,761,761,761,761,761,761,761,761,761,761,761,761,761,761,761,761,761,761,761,761,761,761,761,761,761,761,761,761,761,761,761,761,761,761,761,761,761,761,761,761,761,761,761,761,761,761,761,761,761,761,761,761,761,761,761,761,761,761,761,761,761,761,761,761,761,761,761,761,761,761,761,761,761,761,761,761,761,761,761,761,761,761,761,761,761,761,761,761,761,761,761,761,761,761,761,761,761,761,761,761,761,761,761,761,761,761,761,761,761,761,761,761,761,761,761,761,761,761,761,761,761,761,761,761,761,761,761,761,761,761,761,761,761,761,761,761,761,761,761,761,761,761,761,761,761,761,761,761,761,761,761,761,761,761,761,761,761,761,761,761,761,761,761,761,761,761,761,761,761,761,761,761,761,761,761,761,761,761,761,761,761,761,761,761,761,761,761,761,761,761,761,761,761,761,761,761,761,761,761,761,761,761,761,761,761,761,761,761,761,761,761,761,761,761,761,761,761,761,761,761,761,761,761,761,761,761,761,761,761,761,761,761,761,761,761,761,761,761,761,761,761,761,761,761,761,761,761,761,761,761,761,761,761,761,761,761,761,761,761,761,761,761,762,764,765,766,766,766,766,766,766,766,766,766,766,766,766,766,766,766,766,771,784,821,834,835,836,836,837,839,841,841,840,806,783,766,756,744,714,703,700,700,706,720,720,720,719,718,651,582,523,450],"ymouse":[632,632,632,632,632,632,632,632,632,632,632,630,626,621,620,619,618,617,616,615,615,615,615,615,614,614,614,612,611,610,610,609,609,609,609,609,609,609,609,609,608,608,608,608,608,608,608,608,608,608,608,609,609,610,611,612,613,615,615,615,615,615,615,615,615,615,615,615,615,615,615,615,615,615,615,615,615,615,615,615,615,615,615,615,615,615,615,615,615,615,615,615,615,615,615,615,615,615,615,615,615,615,615,614,614,614,613,613,613,613,613,613,613,613,613,613,613,613,613,613,613,613,613,613,613,613,613,613,613,613,613,613,613,613,613,613,613,613,613,613,613,613,613,614,617,619,620,620,620,620,620,620,620,620,620,620,620,620,620,620,620,620,620,620,620,620,620,620,620,620,620,620,620,620,620,620,620,620,620,620,620,620,620,620,620,620,620,620,620,620,620,620,620,620,620,620,620,620,620,620,620,620,620,620,620,620,620,620,620,620,620,620,620,620,620,620,620,620,620,620,620,620,620,620,620,620,620,620,620,620,620,620,620,620,620,620,620,620,620,620,620,620,620,620,620,620,620,620,620,620,620,620,620,620,620,620,620,620,620,620,620,620,620,620,620,620,620,620,620,620,620,620,620,620,620,620,620,620,620,620,620,620,620,620,620,620,620,620,620,620,620,620,620,620,620,620,620,620,620,620,620,620,620,620,620,620,620,620,620,620,620,620,620,620,620,620,620,620,620,620,620,620,620,620,620,620,620,620,620,620,620,620,620,620,620,620,620,620,620,620,620,620,620,620,620,620,620,620,620,620,620,620,620,620,620,620,620,620,620,620,620,620,620,620,620,620,620,620,620,620,620,620,620,620,620,620,620,620,620,620,620,620,620,620,620,620,620,620,620,620,620,620,620,620,620,620,620,620,620,620,620,620,620,620,620,620,620,620,620,620,620,620,620,620,620,620,620,620,620,620,620,620,620,620,620,620,620,620,620,620,620,620,620,620,620,620,620,620,620,620,620,620,620,620,620,620,620,620,620,620,620,620,620,620,620,620,620,620,620,620,620,620,620,620,620,620,620,620,620,620,620,620,620,620,620,620,620,620,620,620,620,620,620,620,620,620,620,620,620,620,620,620,620,620,620,620,620,620,620,620,620,620,620,620,620,620,620,620,620,620,620,620,620,620,620,620,620,620,620,620,620,620,620,620,620,620,620,620,620,620,620,620,620,620,620,620,620,620,620,620,620,620,620,620,620,620,620,620,620,620,620,620,620,620,620,620,620,620,620,620,620,620,620,620,620,620,620,620,620,620,620,620,620,620,620,620,620,620,620,620,620,620,620,620,620,620,620,620,620,620,620,620,620,620,620,620,620,620,620,620,620,620,620,620,620,620,620,620,620,620,620,620,620,620,620,620,620,620,620,620,620,620,620,620,620,620,620,620,620,620,620,620,620,620,620,620,620,620,620,620,620,620,620,620,620,620,620,620,620,620,620,620,620,620,620,620,620,620,620,620,620,620,620,620,620,620,620,620,620,620,620,620,620,620,620,620,620,620,620,620,620,620,620,620,620,620,620,620,620,620,620,620,620,620,620,620,620,620,620,620,620,620,620,620,620,620,620,620,620,620,620,620,620,620,620,620,620,620,620,620,620,620,620,620,620,620,620,620,620,620,620,620,620,620,620,620,620,620,620,620,620,620,620,620,620,620,620,620,620,620,620,620,620,620,620,620,620,620,620,620,620,620,620,620,620,620,620,620,620,620,620,620,620,620,620,620,620,620,620,620,620,620,620,620,620,620,620,620,620,620,620,620,620,620,620,620,620,620,620,620,620,620,620,620,620,620,620,620,620,620,620,620,620,620,620,620,620,620,620,620,620,620,620,620,620,620,620,620,620,620,620,620,620,620,620,620,620,620,620,620,620,620,620,620,620,620,620,620,620,620,620,620,620,620,620,620,620,620,620,620,620,620,620,620,620,620,620,620,620,620,620,620,620,620,620,620,620,620,620,620,620,620,620,620,620,620,620,620,620,620,620,620,620,620,620,620,620,620,620,620,620,620,620,620,620,620,620,620,620,620,620,620,620,620,620,620,620,620,620,620,620,620,620,620,620,620,620,620,620,620,620,620,620,620,620,620,620,620,620,620,620,620,620,620,620,620,620,620,620,620,620,620,620,620,620,620,620,620,620,620,620,620,620,620,620,620,620,620,620,620,620,620,620,620,620,620,620,620,620,620,620,620,620,620,620,620,620,620,620,620,620,620,620,620,620,620,620,620,620,620,620,620,620,620,620,620,620,620,620,620,620,620,620,620,620,620,620,620,620,620,620,620,620,620,620,620,620,620,620,620,620,620,620,620,620,620,620,620,620,620,620,620,620,620,620,620,620,620,620,620,620,620,620,620,620,620,620,620,620,620,620,620,620,620,620,620,620,620,620,620,620,620,620,620,620,620,620,620,620,620,620,620,620,620,620,620,620,620,620,620,620,620,620,620,620,620,620,620,620,620,620,620,620,620,620,620,620,620,620,620,620,620,620,620,620,620,620,620,620,620,620,620,620,620,620,620,620,620,620,620,620,620,620,620,620,620,620,620,620,620,620,620,620,620,620,620,620,620,620,620,620,620,620,620,620,620,620,620,620,620,620,620,620,620,620,620,620,620,620,620,620,620,620,620,620,620,620,620,620,620,620,620,620,620,620,620,620,620,620,620,620,620,620,620,620,620,620,620,620,620,620,620,620,620,620,620,620,620,620,620,620,620,620,620,620,620,620,620,620,620,620,620,620,620,620,620,620,620,620,620,620,620,620,620,620,620,620,620,620,620,620,620,620,620,620,620,620,620,620,620,620,620,620,620,620,620,620,620,620,620,620,620,620,620,620,620,620,620,620,620,620,620,620,620,620,620,620,620,620,620,620,620,620,620,620,620,620,620,620,620,620,620,620,620,620,620,620,620,620,620,620,620,620,620,620,620,620,620,620,620,620,620,620,620,620,620,620,620,620,620,620,620,620,620,620,620,620,620,620,620,620,620,620,620,620,620,620,620,620,620,620,620,620,620,620,620,620,620,620,620,620,620,620,620,620,620,620,620,620,620,620,620,620,620,620,620,620,620,620,620,620,620,620,620,620,620,620,620,620,620,620,620,620,620,620,620,620,620,620,620,620,620,620,620,620,620,620,620,620,620,620,620,620,620,620,620,620,620,620,620,620,620,620,620,620,620,620,620,620,620,620,620,620,620,620,620,620,620,620,620,620,620,620,620,620,620,620,620,620,620,620,620,620,620,620,620,620,620,620,620,620,620,620,620,620,620,620,620,620,620,620,620,620,620,620,620,620,620,620,620,620,620,620,620,620,620,620,620,620,620,620,620,620,620,620,620,620,620,620,620,620,620,620,620,620,620,620,620,620,620,620,620,620,620,620,620,620,620,620,620,620,620,620,620,620,620,620,620,620,620,620,620,620,620,620,620,620,620,620,620,620,620,620,620,620,620,620,620,620,620,620,620,620,620,620,620,620,620,620,620,620,620,620,620,620,620,620,620,620,620,620,620,620,620,620,620,620,620,620,620,620,620,620,620,620,620,620,620,620,620,620,620,620,620,620,620,620,620,620,620,620,620,620,620,620,620,620,620,620,620,620,620,620,620,620,620,620,620,620,620,620,620,620,620,620,620,620,620,620,620,620,620,620,620,620,620,620,620,620,620,620,620,620,620,620,620,620,620,620,620,620,620,620,620,620,620,620,620,620,620,620,620,620,620,620,620,620,620,620,620,620,620,620,620,620,620,620,620,620,620,620,620,620,620,620,620,620,620,620,620,620,620,620,620,620,620,620,620,620,620,620,620,620,620,620,620,620,620,620,620,620,620,620,620,620,620,620,620,620,620,620,620,620,620,620,620,620,620,620,620,620,620,620,620,620,620,620,620,620,620,620,620,620,620,620,620,620,620,620,620,620,620,620,620,620,620,620,620,620,620,620,620,620,620,620,620,620,620,620,620,620,620,620,620,620,620,620,620,620,620,620,620,620,620,620,620,620,620,620,620,620,620,620,620,620,620,620,620,620,620,620,620,620,620,620,620,620,620,620,620,620,620,620,620,620,620,620,620,620,620,620,620,620,620,620,620,620,620,620,620,620,620,620,620,620,620,620,620,620,620,620,620,620,620,620,620,620,620,620,620,620,620,620,620,620,620,620,620,620,620,620,620,620,620,620,620,620,620,620,620,620,620,620,620,620,620,620,620,620,620,620,620,620,620,620,620,620,620,620,620,620,620,620,620,620,620,620,620,620,620,620,620,620,620,620,620,620,620,620,620,620,620,620,620,620,620,620,620,620,620,620,620,620,620,620,620,620,620,620,620,620,620,620,620,620,620,620,620,620,620,620,620,620,620,620,620,620,620,620,620,620,620,620,620,620,620,620,620,620,620,620,620,620,620,620,620,620,620,620,620,620,620,620,620,620,620,620,620,620,620,620,620,620,620,620,620,620,620,620,620,620,620,620,620,620,620,620,620,620,620,619,615,602,596,596,596,596,596,596,596,596,596,596,596,596,596,596,596,595,590,578,566,566,567,569,569,570,570,572,573,577,584,588,590,590,581,547,516,487,464,438,392,391,391,391,391,337,256,169,36],"timestamp_mouse":[8,39,47,67,87,107,128,147,167,187,207,227,247,268,287,307,327,347,367,388,407,427,447,467,487,508,528,547,567,588,607,627,648,667,687,707,728,748,767,788,808,827,847,867,887,908,927,947,969,988,1007,1027,1047,1067,1088,1107,1127,1148,1168,1188,1207,1228,1248,1268,1288,1307,1328,1348,1369,1387,1407,1427,1448,1468,1488,1508,1527,1548,1567,1587,1608,1628,1648,1668,1688,1708,1728,1747,1767,1788,1807,1828,1847,1868,1887,1907,1927,1948,1967,1987,2009,2027,2047,2068,2087,2107,2127,2147,2167,2188,2207,2228,2249,2268,2288,2307,2328,2347,2367,2388,2408,2428,2448,2467,2487,2507,2527,2547,2568,2588,2607,2628,2647,2667,2689,2708,2728,2749,2767,2787,2807,2827,2847,2867,2888,2907,2927,2948,2967,2987,3008,3027,3048,3068,3087,3107,3128,3147,3168,3187,3207,3227,3247,3268,3289,3308,3328,3348,3367,3387,3407,3427,3447,3467,3487,3507,3527,3547,3568,3587,3607,3627,3647,3668,3688,3708,3727,3747,3767,3788,3807,3827,3848,3868,3888,3907,3928,3948,3967,3987,4007,4028,4048,4067,4087,4107,4128,4148,4167,4188,4207,4227,4247,4268,4287,4307,4328,4347,4368,4387,4408,4429,4448,4468,4487,4507,4528,4548,4568,4588,4607,4627,4647,4667,4687,4708,4728,4747,4768,4787,4807,4827,4848,4867,4887,4907,4927,4948,4967,4987,5007,5028,5047,5067,5088,5107,5127,5147,5167,5187,5207,5228,5248,5267,5287,5308,5327,5347,5368,5387,5408,5428,5447,5467,5487,5507,5527,5548,5567,5587,5607,5628,5648,5667,5687,5708,5728,5747,5767,5788,5807,5827,5847,5868,5887,5907,5927,5947,5967,5988,6008,6027,6047,6067,6087,6108,6128,6147,6168,6188,6207,6227,6248,6267,6287,6307,6327,6347,6367,6387,6408,6428,6447,6468,6487,6507,6528,6547,6567,6587,6607,6627,6648,6667,6687,6707,6727,6748,6769,6788,6809,6828,6847,6867,6887,6907,6927,6947,6967,6988,7008,7028,7047,7067,7088,7107,7128,7147,7168,7187,7207,7227,7247,7267,7287,7308,7327,7347,7367,7387,7408,7427,7447,7467,7487,7507,7527,7547,7567,7587,7607,7628,7647,7667,7687,7707,7727,7747,7767,7787,7807,7827,7847,7867,7887,7907,7928,7947,7967,7987,8007,8027,8047,8067,8087,8107,8128,8148,8167,8188,8207,8228,8248,8267,8287,8307,8328,8347,8367,8388,8407,8427,8447,8468,8487,8507,8528,8547,8567,8589,8608,8628,8648,8667,8687,8709,8727,8748,8768,8788,8807,8827,8848,8867,8888,8907,8927,8947,8968,8987,9007,9027,9047,9068,9087,9107,9128,9148,9168,9187,9207,9228,9247,9267,9287,9307,9327,9348,9368,9388,9407,9428,9449,9467,9488,9507,9528,9547,9567,9587,9607,9627,9647,9667,9688,9707,9727,9748,9767,9788,9807,9828,9848,9868,9889,9908,9928,9947,9967,9988,10008,10028,10047,10067,10087,10107,10128,10148,10167,10187,10207,10228,10247,10267,10287,10307,10327,10347,10367,10388,10409,10427,10447,10468,10489,10507,10528,10547,10567,10588,10608,10627,10648,10668,10687,10708,10727,10747,10767,10787,10808,10827,10848,10868,10887,10907,10928,10947,10967,10987,11008,11027,11048,11067,11088,11108,11128,11147,11167,11188,11208,11228,11247,11268,11287,11308,11328,11347,11367,11388,11408,11428,11448,11468,11488,11508,11528,11548,11568,11588,11607,11627,11648,11668,11688,11707,11729,11747,11768,11787,11807,11828,11848,11868,11887,11908,11927,11948,11968,11988,12007,12027,12047,12067,12088,12107,12127,12147,12167,12188,12207,12227,12248,12267,12288,12308,12327,12347,12367,12388,12407,12427,12448,12468,12487,12508,12529,12548,12567,12588,12608,12627,12647,12667,12688,12708,12727,12748,12767,12787,12808,12827,12847,12867,12888,12907,12927,12949,12967,12987,13007,13027,13047,13067,13088,13107,13128,13148,13167,13189,13207,13229,13247,13267,13287,13307,13327,13348,13367,13388,13408,13428,13447,13467,13487,13508,13528,13547,13567,13587,13607,13628,13648,13668,13687,13708,13728,13748,13767,13787,13808,13827,13849,13868,13887,13907,13927,13947,13967,13989,14008,14028,14048,14067,14089,14107,14127,14148,14167,14187,14208,14228,14248,14269,14287,14308,14327,14348,14367,14388,14408,14427,14448,14467,14488,14507,14528,14547,14568,14588,14608,14628,14648,14668,14687,14708,14728,14747,14767,14787,14807,14827,14848,14867,14887,14908,14927,14947,14968,14989,15007,15028,15047,15068,15088,15107,15128,15147,15167,15187,15207,15228,15247,15267,15287,15307,15327,15347,15368,15387,15407,15428,15447,15467,15488,15507,15527,15547,15567,15587,15607,15628,15647,15667,15688,15708,15727,15748,15767,15787,15808,15827,15848,15867,15887,15908,15928,15947,15967,15987,16009,16028,16047,16067,16088,16108,16128,16147,16168,16188,16208,16227,16247,16267,16288,16307,16328,16347,16368,16388,16407,16427,16447,16467,16487,16507,16528,16547,16567,16587,16607,16627,16648,16667,16688,16707,16727,16747,16768,16788,16807,16827,16847,16867,16888,16907,16928,16947,16967,16988,17008,17028,17048,17068,17088,17107,17128,17147,17168,17188,17207,17227,17248,17267,17287,17307,17328,17347,17367,17387,17408,17428,17447,17467,17487,17507,17527,17547,17567,17587,17607,17628,17647,17667,17687,17707,17727,17748,17767,17787,17807,17827,17847,17867,17887,17907,17927,17949,17968,17987,18008,18027,18048,18068,18087,18108,18128,18148,18167,18188,18207,18228,18247,18267,18287,18307,18328,18348,18367,18388,18408,18427,18448,18467,18488,18508,18528,18548,18568,18588,18607,18627,18648,18667,18688,18707,18728,18748,18767,18787,18807,18828,18847,18867,18888,18907,18927,18947,18967,18988,19007,19027,19048,19067,19087,19108,19127,19147,19167,19187,19208,19227,19247,19268,19287,19309,19327,19347,19368,19388,19407,19428,19447,19467,19487,19507,19527,19547,19567,19589,19607,19628,19648,19667,19688,19707,19727,19748,19767,19787,19808,19828,19848,19867,19887,19907,19928,19948,19967,19987,20007,20028,20047,20067,20088,20107,20127,20147,20167,20187,20208,20227,20248,20267,20287,20307,20328,20348,20368,20387,20408,20428,20448,20468,20488,20508,20527,20548,20568,20588,20608,20627,20649,20668,20687,20707,20727,20748,20768,20787,20807,20827,20847,20867,20887,20908,20928,20947,20968,20988,21008,21027,21048,21068,21088,21107,21128,21147,21168,21187,21207,21228,21248,21268,21287,21307,21327,21347,21368,21388,21408,21428,21447,21467,21487,21507,21528,21547,21567,21588,21607,21628,21647,21667,21688,21707,21727,21748,21767,21787,21807,21827,21848,21867,21888,21907,21927,21947,21967,21988,22007,22028,22047,22067,22088,22107,22128,22147,22168,22187,22207,22227,22249,22267,22288,22308,22327,22347,22368,22388,22408,22428,22447,22468,22487,22507,22528,22547,22567,22588,22608,22627,22648,22668,22689,22708,22727,22747,22767,22787,22807,22829,22847,22867,22887,22907,22927,22947,22967,22987,23007,23028,23049,23067,23088,23108,23127,23147,23167,23188,23207,23228,23249,23268,23288,23309,23328,23348,23368,23388,23407,23427,23447,23467,23488,23508,23528,23547,23567,23588,23608,23627,23647,23667,23688,23707,23727,23748,23768,23788,23809,23827,23859,23867,23887,23907,23928,23947,23968,23987,24007,24028,24047,24068,24087,24107,24127,24147,24167,24187,24208,24227,24247,24268,24287,24308,24328,24347,24368,24388,24407,24427,24447,24467,24487,24507,24528,24547,24567,24588,24607,24628,24648,24667,24688,24708,24727,24747,24767,24788,24808,24827,24847,24868,24887,24908,24927,24947,24968,24987,25007,25028,25048,25067,25088,25107,25127,25147,25167,25188,25208,25228,25247,25267,25287,25307,25328,25347,25368,25387,25407,25427,25448,25468,25488,25507,25527,25547,25567,25587,25607,25627,25647,25668,25687,25707,25727,25748,25767,25787,25807,25828,25847,25868,25888,25907,25927,25947,25968,25987,26008,26027,26047,26068,26087,26107,26127,26147,26168,26188,26208,26227,26248,26267,26287,26308,26328,26348,26367,26387,26408,26427,26447,26467,26488,26508,26527,26547,26567,26587,26608,26628,26648,26668,26689,26707,26727,26747,26767,26788,26807,26827,26847,26868,26887,26908,26928,26947,26967,26987,27008,27028,27047,27067,27088,27107,27128,27148,27168,27188,27208,27227,27248,27267,27287,27308,27327,27348,27368,27388,27408,27427,27447,27468,27488,27507,27527,27548,27567,27588,27608,27627,27648,27667,27687,27707,27728,27749,27767,27787,27807,27828,27847,27867,27888,27907,27927,27948,27967,27987,28008,28028,28048,28067,28088,28108,28127,28147,28168,28188,28207,28227,28248,28266,28287,28307,28327,28347,28367,28386,28406,28426,28446,28467,28486,28507,28527,28546,28566,28587,28606,28628,28646,28668,28686,28708,28727,28746,28767,28788,28806,28826,28848,28866,28886,28906,28927,28948,28966,28986,29007,29026,29047,29067,29086,29106,29128,29146,29166,29187,29206,29228,29246,29266,29288,29306,29327,29348,29366,29386,29407,29427,29447,29467,29487,29508,29526,29546,29566,29587,29607,29627,29647,29667,29686,29706,29728,29748,29767,29787,29806,29827,29848,29867,29887,29907,29927,29947,29966,29988,30007,30027,30047,30067,30087,30107,30128,30146,30167,30186,30208,30226,30247,30267,30287,30306,30327,30348,30367,30386,30408,30428,30447,30467,30488,30507,30526,30546,30566,30587,30606,30627,30647,30667,30686,30706,30726,30746,30766,30786,30808,30826,30847,30868,30887,30907,30928,30946,30967,30987,31006,31027,31048,31066,31087,31108,31127,31148,31166,31187,31207,31228,31247,31266,31287,31307,31326,31347,31367,31386,31407,31428,31447,31467,31488,31507,31526,31548,31567,31587,31607,31627,31646,31666,31686,31707,31726,31746,31766,31787,31806,31827,31847,31866,31886,31907,31927,31947,31966,31986,32007,32026,32046,32066,32088,32107,32126,32148,32166,32186,32207,32227,32246,32267,32286,32307,32326,32347,32368,32387,32407,32427,32447,32466,32486,32507,32526,32546,32567,32586,32607,32628,32646,32667,32686,32707,32726,32747,32767,32786,32808,32827,32847,32867,32887,32907,32928,32947,32966,32988,33007,33027,33046,33067,33087,33107,33127,33148,33166,33186,33207,33226,33246,33266,33287,33307,33327,33347,33367,33387,33406,33427,33446,33466,33486,33508,33527,33546,33567,33586,33606,33626,33646,33667,33687,33707,33728,33746,33767,33787,33807,33826,33846,33867,33886,33907,33926,33947,33967,33986,34007,34026,34047,34066,34086,34107,34127,34146,34167,34188,34206,34227,34247,34266,34288,34306,34326,34347,34366,34387,34406,34427,34448,34466,34487,34508,34528,34546,34567,34588,34606,34626,34647,34667,34686,34706,34726,34746,34767,34786,34807,34827,34848,34867,34887,34906,34926,34947,34968,34987,35007,35027,35047,35066,35087,35107,35126,35146,35168,35186,35207,35227,35246,35266,35287,35307,35326,35347,35367,35388,35406,35426,35447,35467,35487,35506,35527,35547,35568,35586,35607,35627,35646,35668,35687,35707,35726,35747,35767,35786,35806,35828,35847,35866,35887,35907,35928,35946,35967,35988,36007,36027,36048,36066,36086,36106,36127,36147,36166,36186,36206,36226,36247,36267,36286,36306,36326,36346,36367,36387,36406,36428,36446,36466,36487,36507,36526,36546,36567,36587,36606,36627,36647,36667,36686,36708,36726,36746,36766,36786,36806,36827,36846,36868,36887,36907,36927,36946,36966,36986,37006,37027,37048,37066,37086,37106,37126,37148,37167,37188,37206,37227,37248,37267,37287,37306,37326,37347,37368,37388,37407,37427,37446,37466,37486,37506,37528,37547,37566,37588,37606,37626,37648,37666,37686,37708,37726,37746,37768,37786,37807,37827,37846,37868,37888,37907,37927,37946,37966,37987,38007,38026,38046,38066,38087,38107,38127,38147,38166,38187,38206,38226,38246,38266,38288,38306,38326,38346,38368,38386,38406,38426,38447,38466,38488,38507,38527,38547,38567,38586,38606,38626,38646,38667,38688,38707,38726,38748,38766,38786,38807,38827,38847,38868,38886,38908,38926,38947,38966,38986,39006,39028,39046,39066,39087,39106,39126,39146,39167,39187,39206,39227,39246,39267,39287,39306,39328,39346,39367,39387,39406,39428,39446,39466,39488,39506,39528,39548,39567,39588,39607,39627,39648,39667,39686,39707,39727,39746,39767,39786,39806,39826,39847,39866,39887,39908,39926,39947,39966,39988,40006,40026,40047,40066,40087,40107,40127,40147,40166,40187,40207,40227,40246,40266,40287,40306,40327,40347,40367,40386,40406,40426,40447,40466,40487,40508,40528,40546,40566,40587,40607,40628,40646,40666,40688,40708,40726,40746,40767,40786],"xSR":741.5,"ySR":573.95,"xT1":424.9,"yT1":0,"xT2":1058.1,"yT2":0,"toosoon":0,"cond_shown":"Congruent","ratio_trial":200,"L_num":3,"L_den":10,"R_num":11,"R_den":22,"correct_side":2,"subjID":"biancasofiagutierrezplazas12","gender":"1","school":"6","age":"11"},{"start_time":1551882238378,"click_time":1551882240301,"finger_time":1551882239921,"fix_duration":995.5571272011639,"trial":10,"RT":1543,"MT":380,"sideResp":1,"stimulus":[],"xmouse":[774,774,774,774,774,774,774,774,774,773,773,772,770,770,770,770,770,770,770,770,770,770,770,770,770,770,770,770,770,770,770,770,770,770,770,770,770,770,770,770,770,770,770,770,770,770,770,770,770,770,770,770,770,770,770,770,770,770,770,770,770,770,770,770,770,770,770,770,770,770,770,770,770,770,770,766,765,722,716,695,655,624,586,580,575,572,570,574,583,594,599,596,575,554,529,503,484],"ymouse":[632,632,632,632,632,632,632,632,634,637,640,642,643,643,643,643,643,643,643,643,643,643,643,645,645,645,645,645,645,645,645,645,645,645,645,645,645,645,645,645,645,645,645,645,645,645,645,645,645,645,645,645,645,645,645,645,645,645,645,645,645,645,645,645,645,645,645,645,645,645,645,645,645,645,637,628,621,532,525,500,459,421,377,372,366,355,345,319,306,291,273,229,188,160,132,111,94],"timestamp_mouse":[3,24,43,63,83,104,124,145,165,184,203,225,243,264,283,304,324,343,365,384,403,425,444,463,483,503,523,543,565,583,604,623,645,664,683,704,723,745,763,783,804,823,844,863,885,903,924,943,964,984,1003,1024,1043,1063,1084,1103,1125,1144,1163,1184,1205,1224,1243,1264,1283,1303,1324,1343,1364,1383,1403,1424,1445,1463,1483,1505,1523,1543,1563,1585,1603,1623,1643,1663,1683,1703,1723,1745,1763,1783,1804,1825,1844,1864,1884,1905,1923],"xSR":741.5,"ySR":573.95,"xT1":424.9,"yT1":0,"xT2":1058.1,"yT2":0,"toosoon":0,"cond_shown":"Incongruent","ratio_trial":200,"L_num":4,"L_den":5,"R_num":6,"R_den":10,"correct_side":1,"subjID":"biancasofiagutierrezplazas12","gender":"1","school":"6","age":"11"},{"start_time":1551882242357,"click_time":1551882244682,"finger_time":1551882243822,"fix_duration":794.4145442130217,"trial":11,"RT":1465,"MT":860,"sideResp":2,"stimulus":[],"xmouse":[772,772,772,772,772,772,772,772,773,773,774,774,774,774,774,774,774,774,774,775,775,775,775,775,775,775,775,775,775,775,775,775,775,777,777,782,784,784,784,784,784,784,784,784,784,784,784,784,784,784,784,784,784,784,783,783,783,783,783,783,783,782,782,782,782,782,782,782,780,776,772,772,762,753,753,754,759,761,768,773,786,791,802,820,830,837,841,843,849,856,867,881,895,917,937,942,949,958,972,974,978,982,987,990,992,992,992,992,1000,1002,1009,1011,1013,1029,1046,1074,1098],"ymouse":[615,615,615,615,615,615,615,615,615,615,615,615,615,615,615,616,616,616,616,616,616,616,616,616,616,616,616,616,616,616,616,616,616,616,616,603,597,594,594,594,593,593,593,593,593,593,593,593,593,594,594,595,596,598,602,605,608,608,608,609,610,612,613,613,613,613,613,613,613,609,603,602,591,572,569,557,546,539,517,503,479,472,457,433,421,409,397,387,373,362,347,329,309,267,206,184,169,156,136,129,100,62,26,14,11,10,10,10,5,4,1,1,0,0,0,0,1],"timestamp_mouse":[12,24,45,64,84,105,126,145,164,184,206,225,245,266,284,304,324,345,365,384,405,424,445,466,485,504,524,544,566,584,605,624,644,665,685,704,726,745,764,784,804,824,845,864,886,904,924,945,964,984,1005,1026,1044,1064,1084,1106,1125,1144,1164,1184,1204,1226,1244,1265,1285,1304,1324,1346,1364,1385,1405,1424,1445,1465,1484,1504,1524,1544,1564,1584,1605,1625,1646,1664,1686,1705,1724,1744,1764,1784,1804,1824,1845,1866,1884,1904,1924,1945,1965,1985,2004,2024,2044,2064,2085,2106,2124,2145,2165,2184,2204,2224,2245,2264,2286,2304,2325],"xSR":741.5,"ySR":573.95,"xT1":424.9,"yT1":0,"xT2":1058.1,"yT2":0,"toosoon":0,"cond_shown":"Congruent","ratio_trial":100,"L_num":1,"L_den":2,"R_num":18,"R_den":30,"correct_side":2,"subjID":"biancasofiagutierrezplazas12","gender":"1","school":"6","age":"11"},{"start_time":1551882247607,"click_time":1551882249322,"finger_time":1551882248802,"fix_duration":644.1182370088341,"trial":12,"RT":1195,"MT":520,"sideResp":2,"stimulus":[],"xmouse":[785,785,785,784,784,784,784,784,784,784,784,784,784,784,784,784,784,784,784,784,784,784,784,784,784,784,784,784,784,784,784,784,784,784,784,784,784,784,784,784,784,784,784,784,784,784,784,784,784,784,784,784,784,784,784,784,792,810,832,852,876,888,901,913,924,937,943,950,956,966,989,1007,1035,1057,1079,1150,1165,1172,1174,1174,1174,1174,1174,1173,1167,1147],"ymouse":[636,636,636,635,635,635,635,634,634,633,633,631,630,629,628,628,627,627,627,626,625,624,622,621,621,621,621,621,621,621,621,621,621,621,621,621,621,621,621,621,621,621,621,621,621,621,621,621,621,621,621,621,621,621,621,621,619,608,589,574,542,495,456,423,368,286,237,196,155,112,64,38,10,0,0,0,0,0,0,0,0,0,0,0,2,16],"timestamp_mouse":[20,48,54,75,95,115,135,154,174,195,215,235,256,274,294,315,336,355,374,396,415,434,454,474,495,514,535,554,575,595,614,634,655,675,694,716,734,754,774,796,815,834,855,875,895,914,934,955,975,995,1014,1035,1055,1075,1094,1116,1135,1155,1175,1195,1214,1234,1254,1275,1294,1316,1335,1354,1375,1395,1415,1435,1455,1474,1494,1515,1534,1554,1575,1595,1614,1634,1654,1675,1695,1715],"xSR":741.5,"ySR":573.95,"xT1":424.9,"yT1":0,"xT2":1058.1,"yT2":0,"toosoon":0,"cond_shown":"Congruent","ratio_trial":300,"L_num":1,"L_den":3,"R_num":19,"R_den":30,"correct_side":2,"subjID":"biancasofiagutierrezplazas12","gender":"1","school":"6","age":"11"},{"start_time":1551882250854,"click_time":1551882253841,"finger_time":1551882253262,"fix_duration":250,"trial":13,"RT":2408,"MT":579,"sideResp":2,"stimulus":[],"xmouse":[787,787,787,787,787,787,787,787,787,787,787,787,787,787,787,787,787,787,787,787,787,787,787,787,787,787,787,787,787,787,788,788,788,788,789,789,789,789,789,789,789,789,789,789,789,789,789,789,789,789,789,789,789,789,789,789,789,789,789,789,789,789,789,790,790,790,790,790,790,790,790,790,790,790,792,793,793,793,793,793,793,793,793,793,793,793,793,793,793,793,793,793,793,793,793,793,793,793,793,793,793,793,793,793,793,793,793,793,793,793,793,793,793,793,793,793,793,793,795,798,815,847,891,1036,1109,1159,1190,1219,1229,1234,1239,1243,1244,1244,1244,1244,1244,1237,1225,1216,1210,1202,1194,1175,1166,1163,1161,1160,1159,1158],"ymouse":[645,645,645,645,645,645,645,645,645,645,645,645,645,645,645,645,645,645,645,645,645,645,645,645,645,645,645,645,645,645,645,645,645,645,645,646,646,646,646,646,646,646,646,646,646,646,646,646,646,646,646,646,646,646,646,646,647,647,647,647,647,647,647,648,648,648,648,648,648,648,648,648,648,648,644,640,637,636,636,636,636,635,635,635,635,635,635,635,635,635,635,635,635,635,635,635,635,635,635,635,635,635,635,635,635,635,635,635,635,635,635,635,635,635,635,635,635,633,617,597,543,475,396,217,138,70,9,0,0,0,0,0,0,0,0,0,0,3,9,12,16,19,24,36,39,42,45,47,49,51],"timestamp_mouse":[10,43,47,69,88,107,127,148,167,188,207,227,248,267,287,307,327,347,369,388,407,429,447,467,487,509,527,547,567,587,607,628,647,668,687,707,728,748,768,789,807,828,848,867,887,909,927,948,968,988,1008,1027,1047,1067,1087,1107,1128,1148,1168,1187,1208,1227,1247,1267,1288,1307,1328,1348,1367,1388,1409,1428,1447,1468,1487,1507,1528,1549,1569,1587,1607,1628,1648,1667,1688,1708,1727,1749,1768,1788,1808,1827,1848,1868,1887,1908,1927,1947,1967,1988,2009,2028,2048,2067,2087,2108,2127,2147,2168,2189,2208,2228,2249,2267,2289,2309,2327,2348,2367,2387,2408,2428,2447,2467,2487,2508,2528,2549,2569,2587,2608,2627,2648,2667,2688,2708,2728,2749,2768,2787,2808,2829,2848,2869,2888,2909,2928,2949,2968,2987],"xSR":741.5,"ySR":573.95,"xT1":424.9,"yT1":0,"xT2":1058.1,"yT2":0,"toosoon":0,"cond_shown":"Incongruent","ratio_trial":100,"L_num":8,"L_den":16,"R_num":6,"R_den":10,"correct_side":2,"subjID":"biancasofiagutierrezplazas12","gender":"1","school":"6","age":"11"},{"start_time":1551882257079,"click_time":1551882259082,"finger_time":1551882258622,"fix_duration":755.7883586060622,"trial":14,"RT":1543,"MT":460,"sideResp":1,"stimulus":[],"xmouse":[818,818,818,818,817,816,816,815,815,815,815,815,815,814,814,814,813,813,813,813,813,813,813,813,813,813,813,813,813,813,813,813,812,810,807,804,803,797,785,776,769,763,762,762,762,762,762,762,762,762,762,762,762,762,762,762,762,762,762,762,762,762,762,762,762,762,762,762,762,762,762,762,762,761,760,757,751,731,724,708,698,690,656,599,555,502,459,399,383,376,375,374,371,371,371,371,372,393,406,420,430],"ymouse":[637,637,637,637,637,637,637,637,637,637,637,637,637,637,637,637,637,637,637,637,637,637,637,637,637,637,637,637,637,637,637,637,637,638,638,639,639,639,639,639,639,639,639,639,639,639,639,639,639,639,639,639,639,639,639,639,639,639,639,639,639,639,639,639,639,639,639,639,639,639,639,639,637,632,625,611,594,552,539,502,476,456,392,343,311,270,234,181,155,139,127,118,104,101,100,99,97,91,87,81,77],"timestamp_mouse":[8,23,43,63,82,102,123,142,163,182,203,222,242,262,282,303,322,343,363,383,402,424,444,462,483,504,523,543,563,583,602,622,643,662,682,704,722,742,762,783,804,824,844,862,883,902,922,942,962,983,1003,1022,1043,1062,1082,1103,1124,1142,1163,1183,1202,1223,1242,1263,1282,1304,1322,1342,1362,1384,1403,1422,1443,1464,1483,1502,1522,1543,1563,1583,1602,1624,1642,1662,1682,1703,1723,1742,1764,1783,1802,1822,1844,1864,1883,1902,1922,1943,1963,1982,2003],"xSR":741.5,"ySR":573.95,"xT1":424.9,"yT1":0,"xT2":1058.1,"yT2":0,"toosoon":0,"cond_shown":"Incongruent","ratio_trial":100,"L_num":13,"L_den":26,"R_num":6,"R_den":10,"correct_side":2,"subjID":"biancasofiagutierrezplazas12","gender":"1","school":"6","age":"11"},{"start_time":1551882262979,"click_time":1551882264283,"finger_time":1551882264062,"fix_duration":1157.0010994460158,"trial":15,"RT":1083,"MT":221,"sideResp":2,"stimulus":[],"xmouse":[792,792,792,792,792,793,794,794,794,794,794,794,794,794,794,794,794,794,794,794,794,794,794,794,794,794,794,794,794,794,794,794,794,794,794,794,794,794,794,794,794,794,794,794,794,794,794,794,794,794,794,797,797,802,808,851,901,1019,1028,1038,1041,1041,1043,1048,1056,1067],"ymouse":[600,600,600,600,600,601,602,602,602,603,603,603,604,604,604,604,604,604,604,604,604,604,604,604,604,604,604,604,604,604,604,604,604,604,604,604,604,604,604,604,604,604,604,604,604,604,604,604,604,604,604,594,592,576,562,471,403,220,192,132,102,84,69,67,63,55],"timestamp_mouse":[10,23,42,62,82,103,123,142,164,183,203,223,243,262,282,302,322,343,363,383,404,422,442,462,483,503,523,543,562,582,602,622,643,664,682,702,722,744,762,784,803,824,844,862,883,902,922,942,963,982,1002,1024,1043,1062,1083,1103,1123,1143,1163,1182,1204,1223,1242,1263,1284,1304],"xSR":741.5,"ySR":573.95,"xT1":424.9,"yT1":0,"xT2":1058.1,"yT2":0,"toosoon":0,"cond_shown":"Congruent","ratio_trial":200,"L_num":3,"L_den":6,"R_num":14,"R_den":20,"correct_side":2,"subjID":"biancasofiagutierrezplazas12","gender":"1","school":"6","age":"11"},{"start_time":1551882266357,"click_time":1551882267682,"finger_time":1551882267603,"fix_duration":853.6251477059709,"trial":16,"RT":1246,"MT":79,"sideResp":2,"stimulus":[],"xmouse":[781,781,781,781,781,781,781,781,781,781,781,781,781,781,781,781,781,781,781,781,781,781,781,781,781,781,781,781,781,781,781,781,781,781,781,781,781,781,781,781,781,781,781,781,781,781,781,781,781,781,781,781,781,780,780,780,780,780,780,780,784,787,819,866,927,1022,1063],"ymouse":[615,615,615,615,615,615,615,615,615,615,615,615,615,615,615,615,615,615,615,615,615,615,615,615,615,615,615,615,615,615,615,615,615,615,615,615,615,615,615,615,615,615,615,615,615,615,615,615,615,615,615,615,615,615,615,615,615,615,615,615,597,585,491,406,300,141,62],"timestamp_mouse":[10,32,44,65,84,105,126,144,166,184,204,226,244,265,284,306,324,346,364,384,404,424,444,464,484,505,526,546,565,585,604,625,644,665,686,705,726,745,765,785,804,824,846,865,884,904,924,945,964,984,1004,1026,1046,1064,1085,1106,1124,1144,1165,1184,1204,1226,1246,1264,1284,1305,1325],"xSR":741.5,"ySR":573.95,"xT1":424.9,"yT1":0,"xT2":1058.1,"yT2":0,"toosoon":0,"cond_shown":"Incongruent","ratio_trial":300,"L_num":13,"L_den":26,"R_num":12,"R_den":15,"correct_side":2,"subjID":"biancasofiagutierrezplazas12","gender":"1","school":"6","age":"11"},{"start_time":1551882269129,"click_time":1551882270682,"finger_time":1551882270241,"fix_duration":405.5816656074068,"trial":17,"RT":1112,"MT":441,"sideResp":1,"stimulus":[],"xmouse":[814,814,814,814,814,814,814,814,814,814,814,814,814,814,814,814,814,814,814,814,814,814,814,814,814,814,814,814,815,815,815,815,815,815,815,815,815,815,815,815,815,815,815,815,815,815,815,815,815,815,815,815,815,813,798,765,697,609,505,354,319,307,305,305,305,306,310,313,316,331,343,350,356,360,377,390,410,425],"ymouse":[610,611,611,611,611,611,611,611,611,611,611,611,611,611,611,611,611,611,611,611,611,611,611,611,611,611,611,611,612,612,612,612,612,612,612,612,612,612,612,612,612,612,612,612,612,612,612,612,612,612,612,612,611,607,582,533,462,392,337,255,225,205,192,183,160,145,135,128,123,112,106,101,97,93,80,71,60,53],"timestamp_mouse":[13,33,58,72,93,114,133,154,172,192,214,232,252,274,294,313,332,354,373,394,413,433,454,474,494,512,532,552,574,592,612,633,653,673,692,712,732,753,774,792,812,832,852,872,894,913,932,954,972,992,1013,1032,1052,1072,1092,1112,1132,1152,1174,1192,1213,1232,1252,1273,1293,1314,1332,1352,1372,1393,1412,1433,1454,1472,1492,1513,1533,1552],"xSR":741.5,"ySR":573.95,"xT1":424.9,"yT1":0,"xT2":1058.1,"yT2":0,"toosoon":0,"cond_shown":"Congruent","ratio_trial":300,"L_num":11,"L_den":22,"R_num":4,"R_den":20,"correct_side":1,"subjID":"biancasofiagutierrezplazas12","gender":"1","school":"6","age":"11"},{"start_time":1551882271933,"click_time":1551882273321,"finger_time":1551882273021,"fix_duration":250,"trial":18,"RT":1088,"MT":300,"sideResp":1,"stimulus":[],"xmouse":[802,802,802,802,802,802,802,802,802,802,802,802,802,802,802,802,802,802,802,802,802,802,802,802,802,802,802,802,802,802,802,802,802,802,802,802,803,803,803,803,803,803,803,803,803,803,803,803,803,803,803,803,803,802,780,758,708,660,617,554,532,516,502,488,457,433,421,418,418,438],"ymouse":[604,604,604,604,604,604,604,604,604,604,604,604,604,604,604,604,604,604,604,604,604,604,604,604,604,604,604,604,604,604,604,604,604,604,604,604,604,604,604,604,604,604,604,604,604,604,604,604,604,604,604,604,602,595,558,528,473,423,376,301,272,249,229,211,175,153,135,119,103,79],"timestamp_mouse":[9,28,51,68,89,108,128,149,168,188,208,228,248,269,289,308,328,349,370,389,408,430,448,468,489,509,529,550,570,588,608,630,648,668,688,708,729,749,768,788,808,828,848,868,888,909,929,949,970,989,1009,1029,1049,1069,1088,1108,1129,1149,1169,1188,1208,1228,1248,1269,1288,1309,1328,1348,1368,1388],"xSR":741.5,"ySR":573.95,"xT1":424.9,"yT1":0,"xT2":1058.1,"yT2":0,"toosoon":0,"cond_shown":"Congruent","ratio_trial":200,"L_num":14,"L_den":28,"R_num":6,"R_den":20,"correct_side":1,"subjID":"biancasofiagutierrezplazas12","gender":"1","school":"6","age":"11"},{"start_time":1551882274699,"click_time":1551882276923,"finger_time":1551882275523,"fix_duration":495.0964701070725,"trial":19,"RT":824,"MT":1400,"sideResp":1,"stimulus":[],"xmouse":[821,821,821,821,821,821,821,821,821,821,821,821,821,821,821,821,821,821,821,821,821,821,822,822,822,822,822,822,823,824,825,825,825,825,825,825,825,825,825,818,808,794,787,784,784,784,784,784,784,784,784,784,784,784,784,784,784,784,784,784,784,784,784,784,785,787,790,791,792,793,793,793,793,793,792,790,790,790,790,790,790,790,790,790,790,790,790,790,790,790,790,795,798,800,801,802,802,802,802,802,802,802,802,802,802,802,774,740,670,619,570,512],"ymouse":[626,626,626,626,626,626,626,626,626,626,626,626,626,626,626,626,626,626,626,626,626,626,626,626,627,627,628,628,629,630,630,631,631,631,631,631,631,631,629,616,599,570,558,553,551,551,550,550,550,550,550,550,550,550,550,550,550,550,550,550,550,550,551,552,559,563,574,577,586,589,593,600,603,605,607,610,611,611,611,611,611,611,610,610,609,609,608,607,606,605,603,596,591,588,586,585,583,582,582,582,582,582,582,582,579,576,518,452,335,264,186,53],"timestamp_mouse":[6,39,43,63,83,102,122,142,163,183,203,224,243,264,283,303,322,344,363,382,404,422,442,464,482,503,523,542,563,582,603,623,642,662,682,702,722,742,764,783,802,824,842,862,883,903,923,942,963,983,1002,1023,1044,1064,1083,1102,1122,1142,1164,1183,1202,1224,1242,1262,1282,1303,1322,1342,1362,1383,1403,1422,1442,1462,1482,1503,1523,1543,1563,1582,1602,1624,1643,1662,1683,1702,1724,1742,1764,1784,1803,1823,1843,1862,1882,1903,1922,1942,1962,1983,2002,2022,2044,2062,2082,2102,2123,2142,2163,2183,2202,2224],"xSR":741.5,"ySR":573.95,"xT1":424.9,"yT1":0,"xT2":1058.1,"yT2":0,"toosoon":0,"cond_shown":"Incongruent","ratio_trial":300,"L_num":4,"L_den":20,"R_num":2,"R_den":4,"correct_side":2,"subjID":"biancasofiagutierrezplazas12","gender":"1","school":"6","age":"11"},{"start_time":1551882281545,"click_time":1551882284262,"finger_time":1551882283761,"fix_duration":1102.4298386277155,"trial":20,"RT":2216,"MT":501,"sideResp":2,"stimulus":[],"xmouse":[746,746,746,746,746,746,746,746,746,746,746,750,757,767,769,770,771,771,771,771,771,772,772,772,772,772,772,772,773,773,774,774,774,774,774,775,775,775,775,776,776,776,776,776,776,777,777,777,777,777,777,777,777,777,777,777,777,777,777,777,777,777,777,777,777,777,777,778,778,778,778,778,779,779,779,779,779,779,779,779,779,779,779,779,779,779,779,779,779,779,779,779,779,780,780,780,780,780,780,780,780,780,780,780,780,780,780,780,790,809,827,840,874,966,1046,1167,1231,1263,1286,1286,1282,1276,1272,1271,1268,1265,1260,1253,1233,1228,1226,1220,1214,1194,1160,1134],"ymouse":[598,598,598,598,598,598,598,598,598,598,598,597,597,597,597,597,597,597,597,597,597,597,597,597,597,597,597,597,597,597,597,597,597,597,597,597,597,597,597,598,598,598,599,599,599,600,600,600,600,600,600,600,600,600,600,600,600,600,600,600,600,600,600,600,600,600,600,600,600,600,601,601,601,601,601,601,601,601,601,602,602,602,602,602,602,602,602,602,602,602,602,602,602,603,603,603,603,603,603,603,603,603,603,603,603,603,603,603,596,580,558,528,459,326,257,164,98,62,8,0,0,0,0,0,0,0,0,0,0,0,0,2,4,10,19,27],"timestamp_mouse":[16,36,56,77,97,118,136,156,178,196,216,237,257,276,297,318,337,356,377,396,417,436,457,477,496,517,537,557,577,596,617,636,657,676,698,716,736,757,776,796,816,837,856,877,897,917,936,958,976,997,1017,1038,1056,1076,1097,1116,1136,1158,1176,1196,1216,1236,1258,1277,1297,1318,1336,1357,1377,1396,1416,1436,1458,1478,1496,1517,1538,1558,1576,1597,1616,1637,1656,1677,1696,1717,1737,1756,1777,1798,1816,1836,1858,1877,1896,1918,1937,1956,1977,1995,2017,2035,2056,2075,2096,2115,2136,2155,2177,2195,2216,2236,2256,2275,2296,2315,2336,2356,2377,2395,2416,2436,2456,2475,2495,2516,2536,2557,2577,2596,2615,2637,2656,2675,2695,2716],"xSR":741.5,"ySR":573.95,"xT1":424.9,"yT1":0,"xT2":1058.1,"yT2":0,"toosoon":0,"cond_shown":"Incongruent","ratio_trial":100,"L_num":9,"L_den":15,"R_num":14,"R_den":28,"correct_side":1,"subjID":"biancasofiagutierrezplazas12","gender":"1","school":"6","age":"11"},{"start_time":1551882286842,"click_time":1551882288900,"finger_time":1551882288380,"fix_duration":878.6543485422158,"trial":21,"RT":1538,"MT":520,"sideResp":1,"stimulus":[],"xmouse":[816,816,816,816,816,816,816,816,816,816,816,816,816,816,816,816,816,816,809,807,798,795,794,794,794,799,801,805,810,813,814,814,814,814,814,814,814,814,814,814,814,814,812,811,811,811,811,811,811,813,818,822,827,830,831,831,831,831,831,831,831,831,831,831,831,831,831,831,831,831,831,826,820,784,766,754,749,747,730,697,673,640,633,608,600,586,568,548,520,513,513,518,521,521,515,510,503,496,489,487,487,490,493],"ymouse":[671,671,671,671,671,671,671,671,671,671,671,671,671,671,671,671,671,669,658,655,641,635,631,631,631,631,630,629,628,627,627,627,627,627,627,627,627,627,627,627,627,625,622,614,612,611,611,611,610,610,609,608,605,604,603,603,603,603,603,603,603,603,603,603,603,603,603,603,603,603,603,603,601,589,581,574,566,552,506,466,445,413,402,358,326,298,278,259,232,222,219,211,206,195,177,162,149,138,123,118,109,102,93],"timestamp_mouse":[19,44,59,78,100,118,140,160,180,199,219,239,259,279,299,319,339,358,378,399,418,439,459,478,499,520,539,560,580,598,619,638,659,680,698,718,739,759,780,799,819,838,858,879,899,918,938,960,979,998,1018,1039,1059,1078,1099,1119,1138,1160,1180,1198,1219,1239,1259,1279,1298,1318,1339,1360,1379,1399,1418,1439,1459,1478,1499,1520,1538,1560,1579,1598,1619,1639,1659,1678,1700,1718,1738,1760,1779,1799,1819,1838,1858,1879,1899,1918,1938,1959,1978,1999,2019,2039,2058],"xSR":741.5,"ySR":573.95,"xT1":424.9,"yT1":0,"xT2":1058.1,"yT2":0,"toosoon":0,"cond_shown":"Incongruent","ratio_trial":200,"L_num":6,"L_den":20,"R_num":3,"R_den":6,"correct_side":2,"subjID":"biancasofiagutierrezplazas12","gender":"1","school":"6","age":"11"},{"start_time":1551882292994,"click_time":1551882294561,"finger_time":1551882294361,"fix_duration":250,"trial":22,"RT":1367,"MT":200,"sideResp":1,"stimulus":[],"xmouse":[797,797,797,797,797,797,797,797,797,797,797,797,797,797,797,797,797,797,797,797,797,797,797,797,797,797,797,797,797,797,797,797,797,797,797,797,797,797,797,797,797,797,797,797,797,797,797,797,797,797,797,797,797,797,797,797,797,797,797,797,797,797,797,797,797,795,786,774,755,724,670,653,631,611,592,591,555,533,505],"ymouse":[648,648,648,648,648,648,648,648,648,648,648,648,648,648,648,648,648,648,648,648,648,648,648,648,648,648,648,648,648,648,648,648,648,648,648,648,648,648,648,648,648,648,648,648,648,648,648,648,648,648,648,648,648,648,648,648,648,648,648,648,648,648,648,647,646,638,619,594,555,502,385,323,234,183,145,144,109,97,84],"timestamp_mouse":[8,27,47,72,86,107,128,146,166,187,207,227,247,266,286,307,327,346,367,387,407,427,447,466,488,506,528,546,566,587,607,626,647,667,686,706,727,747,768,786,806,826,847,868,888,907,928,947,966,986,1006,1027,1048,1066,1087,1108,1127,1147,1167,1187,1208,1226,1248,1267,1287,1307,1326,1346,1367,1386,1408,1427,1447,1467,1487,1506,1528,1547,1567],"xSR":741.5,"ySR":573.95,"xT1":424.9,"yT1":0,"xT2":1058.1,"yT2":0,"toosoon":0,"cond_shown":"Congruent","ratio_trial":100,"L_num":11,"L_den":22,"R_num":6,"R_den":15,"correct_side":1,"subjID":"biancasofiagutierrezplazas12","gender":"1","school":"6","age":"11"},{"start_time":1551882297035,"click_time":1551882298881,"finger_time":1551882298681,"fix_duration":1092.2029211705897,"trial":23,"RT":1646,"MT":200,"sideResp":2,"stimulus":[],"xmouse":[785,785,785,785,785,785,785,785,785,785,785,785,785,785,785,785,785,785,785,785,785,785,785,785,785,785,785,785,785,785,785,785,785,785,785,785,785,785,785,785,785,785,785,785,785,785,785,785,785,785,785,785,785,785,785,785,785,785,785,785,785,785,785,785,785,785,785,785,785,785,785,785,785,785,785,785,785,785,785,788,788,796,802,827,841,861,886,917,951,1018,1027,1045,1061],"ymouse":[629,629,629,629,629,629,629,629,629,629,629,629,629,629,629,629,629,629,629,629,629,629,629,629,629,629,629,629,629,629,629,629,629,629,629,629,629,629,629,629,629,629,629,629,629,629,629,629,629,629,629,629,629,629,629,629,629,629,629,629,630,630,630,630,630,630,630,630,630,630,630,630,630,630,630,630,631,631,631,624,611,582,553,463,414,363,307,249,193,94,83,63,46],"timestamp_mouse":[10,35,45,66,87,105,125,147,166,186,207,227,245,265,287,305,327,345,366,386,405,426,446,465,486,505,525,546,566,586,606,626,646,666,685,705,726,746,765,786,806,826,846,866,886,905,926,947,965,985,1005,1026,1047,1065,1086,1106,1125,1146,1167,1187,1206,1226,1245,1265,1285,1306,1325,1345,1365,1386,1406,1425,1445,1466,1487,1507,1525,1546,1567,1585,1607,1625,1646,1667,1686,1706,1725,1747,1766,1785,1806,1827,1846],"xSR":741.5,"ySR":573.95,"xT1":424.9,"yT1":0,"xT2":1058.1,"yT2":0,"toosoon":0,"cond_shown":"Congruent","ratio_trial":100,"L_num":3,"L_den":6,"R_num":2,"R_den":5,"correct_side":1,"subjID":"biancasofiagutierrezplazas12","gender":"1","school":"6","age":"11"},{"start_time":1551882304051,"click_time":1551882305221,"finger_time":1551882304921,"fix_duration":768.4730221856049,"trial":24,"RT":870,"MT":300,"sideResp":2,"stimulus":[],"xmouse":[809,809,809,809,809,809,809,809,809,809,809,809,809,809,809,809,809,809,809,809,809,809,809,809,809,809,809,809,809,809,809,809,809,809,809,809,809,809,809,809,811,821,835,874,883,892,896,900,921,947,959,972,991,1001,1013,1026,1040,1055,1081],"ymouse":[647,647,647,647,647,647,647,647,647,647,647,647,647,647,647,647,647,647,647,647,647,647,647,647,647,647,647,647,647,647,647,647,647,647,647,647,647,647,647,647,644,633,613,553,535,509,488,466,393,308,263,216,153,129,108,89,72,57,26],"timestamp_mouse":[10,45,50,70,90,111,131,150,170,189,210,229,250,271,291,310,331,350,371,391,411,430,450,469,490,511,529,550,569,591,609,631,651,669,690,710,729,751,770,789,809,830,851,870,890,909,929,951,970,990,1010,1029,1051,1069,1091,1109,1129,1149,1170],"xSR":741.5,"ySR":573.95,"xT1":424.9,"yT1":0,"xT2":1058.1,"yT2":0,"toosoon":0,"cond_shown":"Congruent","ratio_trial":200,"L_num":3,"L_den":10,"R_num":14,"R_den":28,"correct_side":2,"subjID":"biancasofiagutierrezplazas12","gender":"1","school":"6","age":"11"},{"start_time":1551882307772,"click_time":1551882309501,"finger_time":1551882308722,"fix_duration":1330.9171157581848,"trial":25,"RT":950,"MT":779,"sideResp":2,"stimulus":[],"xmouse":[788,788,788,788,788,788,788,788,788,788,788,788,788,788,788,788,788,788,788,788,788,788,788,788,788,788,788,788,788,788,788,788,788,788,788,788,788,788,788,788,788,788,788,788,790,794,800,818,825,826,826,826,837,857,871,890,911,950,967,984,1002,1017,1048,1067,1077,1083,1087,1092,1093,1093,1094,1094,1094,1095,1095,1096,1098,1099,1099,1100,1100,1100,1101,1104,1106,1110,1114],"ymouse":[631,630,629,628,628,628,627,627,627,627,627,627,627,627,627,627,627,627,627,627,627,627,627,627,627,627,627,627,627,627,627,627,627,627,627,627,627,627,627,627,627,627,627,627,628,624,610,551,519,481,452,450,424,396,381,367,354,331,320,312,300,290,265,248,238,231,224,216,213,209,204,200,190,182,179,175,170,166,165,164,162,160,154,147,134,118,94],"timestamp_mouse":[10,36,49,68,89,110,128,150,169,188,210,230,249,270,290,308,329,350,368,389,409,430,449,468,488,509,529,549,569,589,610,629,649,670,689,709,729,748,769,790,808,830,849,870,888,909,929,950,968,989,1010,1029,1050,1069,1088,1108,1128,1148,1168,1189,1210,1229,1249,1268,1288,1308,1328,1348,1368,1388,1409,1429,1449,1469,1489,1508,1528,1548,1570,1589,1610,1629,1649,1669,1688,1709,1729],"xSR":741.5,"ySR":573.95,"xT1":424.9,"yT1":0,"xT2":1058.1,"yT2":0,"toosoon":0,"cond_shown":"Congruent","ratio_trial":300,"L_num":1,"L_den":5,"R_num":11,"R_den":22,"correct_side":2,"subjID":"biancasofiagutierrezplazas12","gender":"1","school":"6","age":"11"},{"start_time":1551882312111,"click_time":1551882313582,"finger_time":1551882313220,"fix_duration":1408.9237268545921,"trial":26,"RT":1109,"MT":362,"sideResp":1,"stimulus":[],"xmouse":[812,812,812,812,812,812,812,812,812,812,812,812,812,812,812,812,812,812,812,812,812,812,812,812,812,812,812,812,810,809,807,807,807,807,807,807,807,806,805,804,803,803,801,800,796,787,783,781,780,777,766,758,752,748,746,743,743,743,747,749,743,734,723,698,678,648,622,605,593,579,550,547,530,515],"ymouse":[631,631,631,631,631,631,631,631,631,631,631,631,631,631,631,631,631,631,631,631,631,631,631,631,631,631,631,631,631,631,631,631,631,631,631,631,631,631,631,631,630,630,630,630,627,622,619,618,618,616,605,597,588,582,579,566,554,543,525,517,471,453,420,378,339,279,235,206,178,151,110,107,90,80],"timestamp_mouse":[10,38,50,71,89,111,129,150,171,191,210,229,249,269,290,309,329,349,369,390,411,431,449,471,490,511,530,550,571,589,609,629,651,670,689,711,729,750,771,789,809,829,850,869,890,909,930,950,970,989,1010,1031,1051,1069,1091,1109,1130,1150,1170,1191,1211,1229,1249,1269,1291,1310,1330,1351,1369,1390,1409,1431,1450,1471],"xSR":741.5,"ySR":573.95,"xT1":424.9,"yT1":0,"xT2":1058.1,"yT2":0,"toosoon":0,"cond_shown":"Congruent","ratio_trial":300,"L_num":4,"L_den":5,"R_num":2,"R_den":4,"correct_side":1,"subjID":"biancasofiagutierrezplazas12","gender":"1","school":"6","age":"11"},{"start_time":1551882315217,"click_time":1551882317061,"finger_time":1551882316421,"fix_duration":474.93754492687845,"trial":27,"RT":1204,"MT":640,"sideResp":2,"stimulus":[],"xmouse":[791,791,791,791,791,791,791,791,791,791,792,792,792,792,792,792,792,792,792,792,792,792,792,792,792,792,792,792,792,792,792,792,792,792,792,793,793,793,793,793,793,793,794,795,796,798,798,798,799,800,802,803,803,804,804,805,805,805,805,805,807,810,817,821,830,852,889,945,1009,1071,1229,1265,1280,1282,1283,1283,1283,1283,1282,1282,1276,1273,1261,1252,1231,1221,1213,1207,1203,1200,1185,1166,1153],"ymouse":[623,623,623,623,623,623,623,623,623,623,623,623,623,623,623,623,623,623,623,623,623,623,623,623,623,623,623,623,623,623,623,623,623,623,623,623,623,623,623,623,623,623,623,622,619,614,611,609,607,604,597,591,588,585,583,578,576,575,574,574,572,567,556,547,528,476,414,332,255,187,4,0,0,0,0,0,0,0,0,0,0,0,0,3,14,19,25,26,28,28,36,46,54],"timestamp_mouse":[13,37,44,65,84,105,125,144,164,183,205,224,243,265,283,304,324,344,364,385,403,424,445,464,485,503,524,544,563,584,604,624,645,663,684,703,724,745,763,784,805,823,844,865,883,905,924,943,963,985,1003,1025,1045,1064,1084,1104,1124,1144,1164,1185,1204,1223,1243,1263,1283,1304,1324,1343,1363,1383,1403,1424,1444,1464,1485,1504,1524,1545,1563,1584,1603,1623,1644,1664,1686,1705,1725,1745,1763,1784,1805,1824,1844],"xSR":741.5,"ySR":573.95,"xT1":424.9,"yT1":0,"xT2":1058.1,"yT2":0,"toosoon":0,"cond_shown":"Congruent","ratio_trial":200,"L_num":3,"L_den":6,"R_num":14,"R_den":20,"correct_side":2,"subjID":"biancasofiagutierrezplazas12","gender":"1","school":"6","age":"11"},{"start_time":1551882319770,"click_time":1551882321681,"finger_time":1551882321300,"fix_duration":1246.1450923026391,"trial":28,"RT":1530,"MT":381,"sideResp":2,"stimulus":[],"xmouse":[794,794,793,793,793,793,793,793,793,793,793,793,793,793,793,793,793,793,793,793,793,793,793,793,793,793,793,793,793,793,793,793,793,793,793,793,793,793,793,793,793,793,793,793,793,793,793,793,793,793,793,793,793,793,793,793,793,793,793,793,793,793,793,793,793,793,793,793,793,793,793,793,793,793,794,799,808,841,867,883,885,892,911,918,943,959,974,991,999,1003,1011,1016,1029,1038,1050,1061],"ymouse":[625,625,625,625,625,625,625,625,625,625,625,625,625,625,625,625,625,625,625,625,625,625,625,625,625,625,625,625,625,625,625,625,625,625,625,625,625,625,625,625,625,625,625,625,625,625,625,625,625,625,625,625,625,625,625,625,625,625,625,625,625,625,625,625,625,625,625,625,625,625,623,619,608,604,594,579,559,485,423,366,359,340,299,285,245,218,190,161,146,140,129,123,110,102,94,84],"timestamp_mouse":[11,31,51,71,92,