[{"start_time":1551900305417,"click_time":1551900307930,"finger_time":1551900307069,"fix_duration":1282.230329123465,"trial":0,"RT":1652,"MT":861,"sideResp":2,"stimulus":"img/900/randomdotsizeEA/L/2_Ratio_900_L_20_R_18.png","xmouse":[810,810,810,810,810,810,810,810,810,810,810,810,810,810,810,810,810,810,810,810,810,810,810,810,810,810,810,810,810,810,810,810,810,810,810,810,810,810,810,810,810,810,810,810,810,810,810,810,810,810,810,810,810,810,810,810,810,810,810,810,810,810,810,810,810,810,810,810,810,810,810,810,808,808,808,808,808,808,808,808,812,840,912,1038,1222,1392,1523,1525,1526,1524,1517,1506,1502,1499,1497,1495,1495,1492,1481,1464,1441,1394,1380,1370,1367,1362,1346,1337,1329,1321,1320,1312,1303,1289,1272,1252,1221,1211,1210,1205,1201,1189,1182,1173,1165,1157],"ymouse":[525,525,525,525,525,525,525,525,525,525,525,525,525,525,525,525,525,525,525,525,525,525,525,525,525,525,525,525,525,525,525,525,525,525,525,525,525,525,525,525,525,525,525,525,525,525,525,525,525,525,525,525,525,525,525,525,525,525,525,525,525,525,525,525,525,525,525,525,525,525,525,525,523,523,523,523,523,523,523,523,520,511,480,430,378,356,386,387,386,364,341,288,264,246,233,210,201,188,166,147,128,94,84,78,76,75,68,63,61,58,57,60,62,65,67,69,70,70,71,72,73,76,76,76,76,76],"timestamp_mouse":[12,46,52,73,93,112,133,152,172,193,213,232,252,272,293,313,332,352,373,392,413,432,452,472,493,512,533,552,572,593,612,632,653,673,693,712,732,752,773,792,813,832,852,873,893,912,932,952,972,992,1012,1032,1052,1072,1093,1112,1132,1153,1173,1193,1212,1233,1252,1272,1292,1312,1333,1352,1372,1392,1412,1432,1452,1472,1492,1513,1532,1552,1573,1592,1613,1632,1652,1673,1692,1713,1732,1752,1772,1792,1812,1833,1852,1872,1892,1913,1933,1953,1972,1993,2012,2032,2052,2072,2092,2112,2132,2152,2172,2192,2212,2232,2252,2273,2292,2312,2332,2352,2372,2392,2412,2432,2452,2472,2492,2513],"xSR":741.5,"ySR":501.8,"xT1":424.9,"yT1":0,"xT2":1058.1,"yT2":0,"toosoon":0,"cond_shown":"randomdotsizeEA","ratio_trial":900,"smaller_num":"18","larger_num":"20","correct_side":1,"subjID":"CamilaLopez22","gender":"1","age":"11","school":"6","test":{"fix_dur":[250,1500],"timestim":300,"targets_dim":[100,100],"targets_relative_coord":[0.3,0.7],"size_stim":[880,420],"start_dim":[100,100],"size_start":[300,300],"size_fix":60,"samplingrate":20,"img_types":["equaldotsize","equaldotanddens","randomdotsizeEA"],"ratios":[250,500,750,900],"rep_conds":9,"nTrials":120,"trials_to_rest":500,"Trials_order":[107,62,115,58,98,111,51,27,100,19,92,65,5,28,14,17,44,119,0,81,25,37,70,59,95,4,90,73,53,72,68,11,54,103,86,105,109,93,43,49,55,110,30,88,57,38,39,101,82,7,31,89,106,112,15,2,3,41,48,84,69,47,97,1,64,12,80,40,56,23,102,60,117,32,33,10,50,16,67,34,6,13,99,85,61,20,35,91,108,66,87,118,76,21,83,75,46,96,104,52,22,8,79,26,24,9,77,113,71,114,94,18,74,78,63,29,42,116,45,36],"cond_shown":["randomdotsizeEA","randomdotsizeEA","equaldotanddens","equaldotanddens","randomdotsizeEA","equaldotsize","equaldotsize","equaldotsize","equaldotanddens","equaldotanddens","randomdotsizeEA","randomdotsizeEA","randomdotsizeEA","equaldotanddens","randomdotsizeEA","randomdotsizeEA","randomdotsizeEA","randomdotsizeEA","equaldotsize","equaldotsize","equaldotanddens","equaldotanddens","equaldotanddens","randomdotsizeEA","randomdotsizeEA","equaldotanddens","equaldotsize","equaldotanddens","randomdotsizeEA","equaldotsize","randomdotsizeEA","randomdotsizeEA","equaldotsize","equaldotanddens","randomdotsizeEA","equaldotsize","equaldotanddens","equaldotsize","equaldotanddens","equaldotanddens","equaldotanddens","randomdotsizeEA","equaldotsize","equaldotanddens","equaldotsize","randomdotsizeEA","equaldotsize","randomdotsizeEA","equaldotanddens","equaldotanddens","equaldotanddens","randomdotsizeEA","equaldotanddens","equaldotanddens","equaldotsize","randomdotsizeEA","equaldotsize","randomdotsizeEA","equaldotsize","equaldotsize","equaldotsize","randomdotsizeEA","equaldotanddens","equaldotanddens","equaldotanddens","equaldotsize","randomdotsizeEA","equaldotanddens","randomdotsizeEA","randomdotsizeEA","equaldotsize","equaldotsize","equaldotsize","randomdotsizeEA","equaldotsize","equaldotanddens","randomdotsizeEA","equaldotanddens","equaldotanddens","equaldotanddens","equaldotsize","equaldotanddens","equaldotsize","equaldotanddens","equaldotanddens","randomdotsizeEA","randomdotsizeEA","equaldotanddens","equaldotsize","equaldotsize","equaldotsize","equaldotanddens","equaldotanddens","equaldotsize","randomdotsizeEA","equaldotsize","equaldotanddens","equaldotsize","randomdotsizeEA","equaldotanddens","equaldotanddens","randomdotsizeEA","equaldotanddens","randomdotsizeEA","equaldotsize","equaldotsize","randomdotsizeEA","randomdotsizeEA","randomdotsizeEA","equaldotsize","equaldotanddens","equaldotsize","randomdotsizeEA","equaldotsize","equaldotsize","randomdotsizeEA","equaldotsize","randomdotsizeEA","equaldotsize","equaldotsize"],"ratio_trial":[900,250,750,900,250,500,500,500,500,750,750,500,500,500,250,500,750,900,250,900,250,250,900,900,900,500,750,250,500,250,750,900,750,750,250,900,250,900,750,250,750,250,750,500,900,250,500,500,900,750,750,500,900,500,500,250,500,500,250,250,900,900,250,250,500,250,750,500,750,900,750,250,900,750,900,900,250,500,750,900,750,250,500,250,250,750,900,750,250,750,500,900,500,900,900,500,900,250,750,500,900,750,750,250,250,900,500,500,900,750,900,750,250,750,500,500,750,750,900,250],"smaller_num":["18","6","3","18","2","6","5","9","5","3","6","9","4","9","2","6","15","18","2","9","4","6","18","18","9","3","15","6","6","4","15","18","6","3","3","9","3","18","3","1","3","6","6","1","9","2","5","5","18","15","12","5","18","5","1","3","1","9","3","3","18","9","2","3","6","2","3","2","6","18","15","3","9","6","18","9","2","4","6","18","3","3","9","6","5","6","9","15","3","9","3","9","5","9","9","3","9","3","6","9","18","3","18","3","3","18","10","6","18","15","9","3","4","18","1","1","9","3","9","2"],"larger_num":["20","24","4","20","8","12","10","18","10","4","8","18","8","18","8","12","20","20","8","10","16","24","20","20","10","6","20","24","12","16","20","20","8","4","12","10","12","20","4","4","4","24","8","2","10","8","10","10","20","20","16","10","20","10","2","12","2","18","12","12","20","10","8","12","12","8","4","4","8","20","20","12","10","8","20","10","8","8","8","20","4","12","18","24","20","8","10","20","12","12","6","10","10","10","10","6","10","12","8","18","20","4","24","12","12","20","20","12","20","20","10","4","16","24","2","2","12","4","10","8"],"correct_side":[1,2,1,1,1,1,1,1,1,1,1,2,1,1,1,1,2,2,1,2,1,1,2,2,2,2,2,1,1,1,1,1,1,2,2,1,1,1,2,2,1,1,1,2,2,1,1,2,2,1,2,1,2,1,2,1,2,1,2,2,1,2,2,1,1,2,1,1,2,1,2,2,1,1,2,2,2,1,1,1,2,2,2,1,2,2,2,1,2,2,2,1,1,2,2,2,1,1,2,1,2,1,1,1,2,1,2,1,1,1,2,2,1,1,2,2,2,2,2,1],"img_shown":["img/900/randomdotsizeEA/L/2_Ratio_900_L_20_R_18.png","img/250/randomdotsizeEA/R/6_Ratio_250_L_6_R_24.png","img/750/equaldotanddens/L/10_Ratio_750_L_4_R_3.png","img/900/equaldotanddens/L/10_Ratio_900_L_20_R_18.png","img/250/randomdotsizeEA/L/3_Ratio_250_L_8_R_2.png","img/500/equaldotsize/L/13_Ratio_500_L_12_R_6.png","img/500/equaldotsize/L/7_Ratio_500_L_10_R_5.png","img/500/equaldotsize/L/4_Ratio_500_L_18_R_9.png","img/500/equaldotanddens/L/7_Ratio_500_L_10_R_5.png","img/750/equaldotanddens/L/8_Ratio_750_L_4_R_3.png","img/750/randomdotsizeEA/L/14_Ratio_750_L_8_R_6.png","img/500/randomdotsizeEA/R/6_Ratio_500_L_9_R_18.png","img/500/randomdotsizeEA/L/8_Ratio_500_L_8_R_4.png","img/500/equaldotanddens/L/4_Ratio_500_L_18_R_9.png","img/250/randomdotsizeEA/L/7_Ratio_250_L_8_R_2.png","img/500/randomdotsizeEA/L/11_Ratio_500_L_12_R_6.png","img/750/randomdotsizeEA/R/5_Ratio_750_L_15_R_20.png","img/900/randomdotsizeEA/R/13_Ratio_900_L_18_R_20.png","img/250/equaldotsize/L/1_Ratio_250_L_8_R_2.png","img/900/equaldotsize/R/5_Ratio_900_L_9_R_10.png","img/250/equaldotanddens/L/2_Ratio_250_L_16_R_4.png","img/250/equaldotanddens/L/5_Ratio_250_L_24_R_6.png","img/900/equaldotanddens/R/11_Ratio_900_L_18_R_20.png","img/900/randomdotsizeEA/R/13_Ratio_900_L_18_R_20.png","img/900/randomdotsizeEA/R/3_Ratio_900_L_9_R_10.png","img/500/equaldotanddens/R/2_Ratio_500_L_3_R_6.png","img/750/equaldotsize/R/5_Ratio_750_L_15_R_20.png","img/250/equaldotanddens/L/5_Ratio_250_L_24_R_6.png","img/500/randomdotsizeEA/L/11_Ratio_500_L_12_R_6.png","img/250/equaldotsize/L/2_Ratio_250_L_16_R_4.png","img/750/randomdotsizeEA/L/1_Ratio_750_L_20_R_15.png","img/900/randomdotsizeEA/L/4_Ratio_900_L_20_R_18.png","img/750/equaldotsize/L/14_Ratio_750_L_8_R_6.png","img/750/equaldotanddens/R/7_Ratio_750_L_3_R_4.png","img/250/randomdotsizeEA/R/9_Ratio_250_L_3_R_12.png","img/900/equaldotsize/L/1_Ratio_900_L_10_R_9.png","img/250/equaldotanddens/L/15_Ratio_250_L_12_R_3.png","img/900/equaldotsize/L/2_Ratio_900_L_20_R_18.png","img/750/equaldotanddens/R/12_Ratio_750_L_3_R_4.png","img/250/equaldotanddens/R/8_Ratio_250_L_1_R_4.png","img/750/equaldotanddens/L/10_Ratio_750_L_4_R_3.png","img/250/randomdotsizeEA/L/5_Ratio_250_L_24_R_6.png","img/750/equaldotsize/L/14_Ratio_750_L_8_R_6.png","img/500/equaldotanddens/R/12_Ratio_500_L_1_R_2.png","img/900/equaldotsize/R/3_Ratio_900_L_9_R_10.png","img/250/randomdotsizeEA/L/3_Ratio_250_L_8_R_2.png","img/500/equaldotsize/L/7_Ratio_500_L_10_R_5.png","img/500/randomdotsizeEA/R/14_Ratio_500_L_5_R_10.png","img/900/equaldotanddens/R/14_Ratio_900_L_18_R_20.png","img/750/equaldotanddens/L/1_Ratio_750_L_20_R_15.png","img/750/equaldotanddens/R/11_Ratio_750_L_12_R_16.png","img/500/randomdotsizeEA/L/7_Ratio_500_L_10_R_5.png","img/900/equaldotanddens/R/13_Ratio_900_L_18_R_20.png","img/500/equaldotanddens/L/7_Ratio_500_L_10_R_5.png","img/500/equaldotsize/R/15_Ratio_500_L_1_R_2.png","img/250/randomdotsizeEA/L/15_Ratio_250_L_12_R_3.png","img/500/equaldotsize/R/15_Ratio_500_L_1_R_2.png","img/500/randomdotsizeEA/L/4_Ratio_500_L_18_R_9.png","img/250/equaldotsize/R/4_Ratio_250_L_3_R_12.png","img/250/equaldotsize/R/9_Ratio_250_L_3_R_12.png","img/900/equaldotsize/L/2_Ratio_900_L_20_R_18.png","img/900/randomdotsizeEA/R/7_Ratio_900_L_9_R_10.png","img/250/equaldotanddens/R/13_Ratio_250_L_2_R_8.png","img/250/equaldotanddens/L/15_Ratio_250_L_12_R_3.png","img/500/equaldotanddens/L/13_Ratio_500_L_12_R_6.png","img/250/equaldotsize/R/13_Ratio_250_L_2_R_8.png","img/750/randomdotsizeEA/L/10_Ratio_750_L_4_R_3.png","img/500/equaldotanddens/L/5_Ratio_500_L_4_R_2.png","img/750/randomdotsizeEA/R/2_Ratio_750_L_6_R_8.png","img/900/randomdotsizeEA/L/4_Ratio_900_L_20_R_18.png","img/750/equaldotsize/R/4_Ratio_750_L_15_R_20.png","img/250/equaldotsize/R/11_Ratio_250_L_3_R_12.png","img/900/equaldotsize/L/1_Ratio_900_L_10_R_9.png","img/750/randomdotsizeEA/L/13_Ratio_750_L_8_R_6.png","img/900/equaldotsize/R/12_Ratio_900_L_18_R_20.png","img/900/equaldotanddens/R/7_Ratio_900_L_9_R_10.png","img/250/randomdotsizeEA/R/13_Ratio_250_L_2_R_8.png","img/500/equaldotanddens/L/8_Ratio_500_L_8_R_4.png","img/750/equaldotanddens/L/13_Ratio_750_L_8_R_6.png","img/900/equaldotanddens/L/10_Ratio_900_L_20_R_18.png","img/750/equaldotsize/R/7_Ratio_750_L_3_R_4.png","img/250/equaldotanddens/R/9_Ratio_250_L_3_R_12.png","img/500/equaldotsize/R/6_Ratio_500_L_9_R_18.png","img/250/equaldotanddens/L/5_Ratio_250_L_24_R_6.png","img/250/equaldotanddens/R/12_Ratio_250_L_5_R_20.png","img/750/randomdotsizeEA/R/2_Ratio_750_L_6_R_8.png","img/900/randomdotsizeEA/R/5_Ratio_900_L_9_R_10.png","img/750/equaldotanddens/L/1_Ratio_750_L_20_R_15.png","img/250/equaldotsize/R/11_Ratio_250_L_3_R_12.png","img/750/equaldotsize/R/15_Ratio_750_L_9_R_12.png","img/500/equaldotsize/R/2_Ratio_500_L_3_R_6.png","img/900/equaldotanddens/L/1_Ratio_900_L_10_R_9.png","img/500/equaldotanddens/L/7_Ratio_500_L_10_R_5.png","img/900/equaldotsize/R/15_Ratio_900_L_9_R_10.png","img/900/randomdotsizeEA/R/3_Ratio_900_L_9_R_10.png","img/500/equaldotsize/R/2_Ratio_500_L_3_R_6.png","img/900/equaldotanddens/L/1_Ratio_900_L_10_R_9.png","img/250/equaldotsize/L/14_Ratio_250_L_12_R_3.png","img/750/randomdotsizeEA/R/2_Ratio_750_L_6_R_8.png","img/500/equaldotanddens/L/4_Ratio_500_L_18_R_9.png","img/900/equaldotanddens/R/11_Ratio_900_L_18_R_20.png","img/750/randomdotsizeEA/L/8_Ratio_750_L_4_R_3.png","img/750/equaldotanddens/L/6_Ratio_750_L_24_R_18.png","img/250/randomdotsizeEA/L/15_Ratio_250_L_12_R_3.png","img/250/equaldotsize/R/11_Ratio_250_L_3_R_12.png","img/900/equaldotsize/L/2_Ratio_900_L_20_R_18.png","img/500/randomdotsizeEA/R/3_Ratio_500_L_10_R_20.png","img/500/randomdotsizeEA/L/11_Ratio_500_L_12_R_6.png","img/900/randomdotsizeEA/L/2_Ratio_900_L_20_R_18.png","img/750/equaldotsize/L/1_Ratio_750_L_20_R_15.png","img/900/equaldotanddens/R/6_Ratio_900_L_9_R_10.png","img/750/equaldotsize/R/12_Ratio_750_L_3_R_4.png","img/250/randomdotsizeEA/L/2_Ratio_250_L_16_R_4.png","img/750/equaldotsize/L/6_Ratio_750_L_24_R_18.png","img/500/equaldotsize/R/12_Ratio_500_L_1_R_2.png","img/500/randomdotsizeEA/R/12_Ratio_500_L_1_R_2.png","img/750/equaldotsize/R/15_Ratio_750_L_9_R_12.png","img/750/randomdotsizeEA/R/12_Ratio_750_L_3_R_4.png","img/900/equaldotsize/R/5_Ratio_900_L_9_R_10.png","img/250/equaldotsize/L/1_Ratio_250_L_8_R_2.png"],"Rat0":[["12_Ratio_0_L_9_R_0.png","13_Ratio_0_L_6_R_0.png","5_Ratio_0_L_2_R_0.png","6_Ratio_0_L_4_R_0.png","8_Ratio_0_L_6_R_0.png"],["1_Ratio_0_L_0_R_17.png","10_Ratio_0_L_0_R_22.png","11_Ratio_0_L_0_R_1.png","14_Ratio_0_L_0_R_24.png","15_Ratio_0_L_0_R_4.png","2_Ratio_0_L_0_R_5.png","3_Ratio_0_L_0_R_17.png","4_Ratio_0_L_0_R_7.png","7_Ratio_0_L_0_R_19.png","9_Ratio_0_L_0_R_15.png"]],"Rat250":[["1_Ratio_250_L_8_R_2.png","14_Ratio_250_L_12_R_3.png","15_Ratio_250_L_12_R_3.png","2_Ratio_250_L_16_R_4.png","3_Ratio_250_L_8_R_2.png","5_Ratio_250_L_24_R_6.png","7_Ratio_250_L_8_R_2.png"],["10_Ratio_250_L_4_R_16.png","11_Ratio_250_L_3_R_12.png","12_Ratio_250_L_5_R_20.png","13_Ratio_250_L_2_R_8.png","4_Ratio_250_L_3_R_12.png","6_Ratio_250_L_6_R_24.png","8_Ratio_250_L_1_R_4.png","9_Ratio_250_L_3_R_12.png"]],"Rat500":[["10_Ratio_500_L_4_R_2.png","11_Ratio_500_L_12_R_6.png","13_Ratio_500_L_12_R_6.png","4_Ratio_500_L_18_R_9.png","5_Ratio_500_L_4_R_2.png","7_Ratio_500_L_10_R_5.png","8_Ratio_500_L_8_R_4.png"],["1_Ratio_500_L_9_R_18.png","12_Ratio_500_L_1_R_2.png","14_Ratio_500_L_5_R_10.png","15_Ratio_500_L_1_R_2.png","2_Ratio_500_L_3_R_6.png","3_Ratio_500_L_10_R_20.png","6_Ratio_500_L_9_R_18.png","9_Ratio_500_L_2_R_4.png"]],"Rat750":[["1_Ratio_750_L_20_R_15.png","10_Ratio_750_L_4_R_3.png","13_Ratio_750_L_8_R_6.png","14_Ratio_750_L_8_R_6.png","6_Ratio_750_L_24_R_18.png","8_Ratio_750_L_4_R_3.png","9_Ratio_750_L_4_R_3.png"],["11_Ratio_750_L_12_R_16.png","12_Ratio_750_L_3_R_4.png","15_Ratio_750_L_9_R_12.png","2_Ratio_750_L_6_R_8.png","3_Ratio_750_L_15_R_20.png","4_Ratio_750_L_15_R_20.png","5_Ratio_750_L_15_R_20.png","7_Ratio_750_L_3_R_4.png"]],"Rat900":[["1_Ratio_900_L_10_R_9.png","10_Ratio_900_L_20_R_18.png","2_Ratio_900_L_20_R_18.png","4_Ratio_900_L_20_R_18.png","8_Ratio_900_L_20_R_18.png"],["11_Ratio_900_L_18_R_20.png","12_Ratio_900_L_18_R_20.png","13_Ratio_900_L_18_R_20.png","14_Ratio_900_L_18_R_20.png","15_Ratio_900_L_9_R_10.png","3_Ratio_900_L_9_R_10.png","5_Ratio_900_L_9_R_10.png","6_Ratio_900_L_9_R_10.png","7_Ratio_900_L_9_R_10.png","9_Ratio_900_L_18_R_20.png"]],"Rat1000":[["10_Ratio_1000_L_16_R_16.png","11_Ratio_1000_L_6_R_6.png","12_Ratio_1000_L_14_R_14.png","13_Ratio_1000_L_20_R_20.png","15_Ratio_1000_L_15_R_15.png","2_Ratio_1000_L_17_R_17.png","4_Ratio_1000_L_9_R_9.png","5_Ratio_1000_L_6_R_6.png","6_Ratio_1000_L_19_R_19.png","8_Ratio_1000_L_14_R_14.png","9_Ratio_1000_L_25_R_25.png"],["1_Ratio_1000_L_1_R_1.png","14_Ratio_1000_L_17_R_17.png","3_Ratio_1000_L_17_R_17.png","7_Ratio_1000_L_6_R_6.png"]]}},{"start_time":1551900310172,"click_time":1551900311830,"finger_time":1551900311249,"fix_duration":1160.7150860291174,"trial":1,"RT":1077,"MT":581,"sideResp":2,"stimulus":"img/250/randomdotsizeEA/R/6_Ratio_250_L_6_R_24.png","xmouse":[772,772,772,772,772,772,772,772,772,772,772,772,772,772,772,772,772,772,772,772,772,772,772,772,772,772,772,772,772,772,772,772,772,772,772,772,772,772,772,772,772,772,772,772,772,772,772,772,772,772,772,773,781,820,878,928,960,980,1007,1024,1033,1040,1045,1050,1050,1050,1051,1053,1059,1063,1067,1070,1073,1075,1077,1079,1080,1082,1083,1084,1085,1085,1086],"ymouse":[503,503,503,503,503,503,503,503,503,503,503,503,503,503,503,503,503,503,503,503,503,503,503,503,503,503,503,503,503,503,503,503,503,503,503,503,503,503,503,503,503,503,503,503,503,503,503,503,503,503,503,503,492,449,407,371,343,322,264,224,205,192,184,175,174,172,168,160,146,142,138,135,133,130,126,120,117,113,108,105,102,100,99],"timestamp_mouse":[17,39,58,77,97,117,137,157,178,197,218,238,258,277,297,318,337,357,377,398,418,438,459,477,497,518,537,557,577,598,617,638,658,677,698,718,737,758,777,797,817,837,857,877,897,917,938,957,978,997,1019,1037,1057,1077,1097,1119,1137,1157,1177,1198,1218,1237,1257,1277,1298,1319,1337,1357,1377,1397,1418,1437,1457,1477,1498,1517,1537,1557,1577,1597,1617,1637,1657],"xSR":741.5,"ySR":469.95,"xT1":424.9,"yT1":0,"xT2":1058.1,"yT2":0,"toosoon":0,"cond_shown":"randomdotsizeEA","ratio_trial":250,"smaller_num":"6","larger_num":"24","correct_side":2,"subjID":"CamilaLopez22","gender":"1","age":"11","school":"6"},{"start_time":1551900313991,"click_time":1551900315889,"finger_time":1551900315130,"fix_duration":1299.5776094206537,"trial":2,"RT":1139,"MT":759,"sideResp":1,"stimulus":"img/750/equaldotanddens/L/10_Ratio_750_L_4_R_3.png","xmouse":[791,791,791,791,791,791,791,791,791,791,791,791,791,791,791,791,791,791,791,791,791,791,791,791,791,791,791,791,791,791,791,791,791,791,791,791,791,791,791,791,791,791,791,791,791,791,791,791,791,791,791,791,791,783,770,754,741,737,734,719,701,679,638,624,615,610,607,604,602,598,595,590,579,575,570,565,552,546,539,534,529,527,525,524,522,520,517,511,508,508,508,508,507,507,506],"ymouse":[513,513,513,513,513,513,513,513,513,513,513,513,513,513,513,513,513,513,513,513,513,513,513,513,513,513,513,513,513,513,513,513,513,513,513,513,513,513,513,513,513,513,513,513,513,513,513,513,513,513,513,513,513,513,512,508,501,498,493,466,439,410,362,347,336,330,326,323,322,316,307,296,261,246,226,209,179,166,153,143,133,130,126,125,124,123,121,114,110,107,106,105,102,100,98],"timestamp_mouse":[21,39,58,78,99,118,138,159,179,198,219,239,260,279,299,319,339,359,379,398,419,438,458,479,498,518,538,558,578,598,618,638,658,678,698,720,738,759,779,798,819,838,859,878,898,918,938,959,980,998,1018,1039,1058,1078,1098,1118,1139,1159,1178,1198,1219,1238,1259,1278,1298,1318,1338,1358,1378,1399,1418,1439,1458,1478,1498,1518,1539,1558,1578,1598,1619,1638,1659,1678,1698,1719,1738,1758,1778,1798,1818,1839,1859,1878,1898],"xSR":741.5,"ySR":469.95,"xT1":424.9,"yT1":0,"xT2":1058.1,"yT2":0,"toosoon":0,"cond_shown":"equaldotanddens","ratio_trial":750,"smaller_num":"3","larger_num":"4","correct_side":1,"subjID":"CamilaLopez22","gender":"1","age":"11","school":"6"},{"start_time":1551900318461,"click_time":1551900319749,"finger_time":1551900319349,"fix_duration":250,"trial":3,"RT":888,"MT":400,"sideResp":1,"stimulus":"img/900/equaldotanddens/L/10_Ratio_900_L_20_R_18.png","xmouse":[755,755,755,755,755,755,755,755,755,756,756,757,757,758,758,758,758,758,758,758,758,758,758,758,758,758,758,758,758,758,758,758,758,758,758,758,758,758,758,758,758,758,759,759,738,725,711,681,666,638,624,609,595,571,550,545,537,531,528,519,516,511,507,507,509],"ymouse":[562,562,562,562,560,560,560,559,557,554,553,551,550,549,549,549,549,549,549,549,549,549,549,549,549,549,549,549,549,549,549,549,549,549,549,549,549,549,549,549,549,549,547,539,487,462,439,399,382,350,328,305,284,249,222,214,205,198,195,187,181,166,149,126,77],"timestamp_mouse":[10,34,50,69,88,108,129,148,169,188,208,228,248,268,288,308,328,348,368,389,408,428,449,468,488,509,529,549,569,588,609,628,649,669,688,708,728,749,768,789,808,828,848,868,888,909,928,949,968,988,1009,1029,1048,1070,1089,1108,1128,1148,1168,1188,1208,1228,1248,1269,1288],"xSR":741.5,"ySR":469.95,"xT1":424.9,"yT1":0,"xT2":1058.1,"yT2":0,"toosoon":0,"cond_shown":"equaldotanddens","ratio_trial":900,"smaller_num":"18","larger_num":"20","correct_side":1,"subjID":"CamilaLopez22","gender":"1","age":"11","school":"6"},{"start_time":1551900321922,"click_time":1551900323109,"finger_time":1551900322589,"fix_duration":1312.6279372390459,"trial":4,"RT":667,"MT":520,"sideResp":1,"stimulus":"img/250/randomdotsizeEA/L/3_Ratio_250_L_8_R_2.png","xmouse":[767,767,767,767,767,767,767,767,767,767,767,767,767,767,767,767,767,767,767,767,767,767,767,767,767,767,767,767,767,767,765,754,743,721,702,685,642,617,592,573,549,537,533,523,516,509,503,502,502,503,507,507,504,501,501,501,497,494,492,490],"ymouse":[528,528,528,528,528,528,528,528,528,528,528,528,528,528,528,528,528,528,528,528,528,528,528,528,528,528,528,528,528,528,525,512,499,483,469,456,416,391,364,341,306,281,271,246,233,223,208,198,188,177,156,149,142,135,129,123,109,105,101,97],"timestamp_mouse":[15,42,48,67,87,107,127,147,169,188,207,227,248,267,287,307,327,347,368,387,407,428,448,468,488,507,527,548,567,587,607,628,647,667,687,707,728,748,768,787,809,828,847,867,887,907,927,947,968,987,1009,1027,1048,1067,1088,1108,1127,1148,1167,1187],"xSR":741.5,"ySR":469.95,"xT1":424.9,"yT1":0,"xT2":1058.1,"yT2":0,"toosoon":0,"cond_shown":"randomdotsizeEA","ratio_trial":250,"smaller_num":"2","larger_num":"8","correct_side":1,"subjID":"CamilaLopez22","gender":"1","age":"11","school":"6"},{"start_time":1551900324903,"click_time":1551900325829,"finger_time":1551900325389,"fix_duration":952.8750237041638,"trial":5,"RT":486,"MT":440,"sideResp":1,"stimulus":"img/500/equaldotsize/L/13_Ratio_500_L_12_R_6.png","xmouse":[781,781,781,781,781,781,781,781,781,781,781,781,781,781,781,781,781,781,781,781,781,781,778,761,739,693,653,580,558,543,532,516,491,482,469,463,456,444,440,437,435,435,435,435,435,435,435],"ymouse":[515,515,515,515,515,515,515,515,515,515,515,515,515,515,515,515,515,515,515,515,515,515,514,507,498,472,449,401,386,373,357,339,310,299,282,274,267,257,252,243,230,216,178,158,132,112,94],"timestamp_mouse":[9,31,46,66,86,107,126,146,167,186,207,226,246,266,286,307,327,347,366,386,406,427,446,466,486,506,526,546,566,586,607,627,646,666,686,706,726,747,767,786,806,827,846,867,886,906,926],"xSR":741.5,"ySR":469.95,"xT1":424.9,"yT1":0,"xT2":1058.1,"yT2":0,"toosoon":0,"cond_shown":"equaldotsize","ratio_trial":500,"smaller_num":"6","larger_num":"12","correct_side":1,"subjID":"CamilaLopez22","gender":"1","age":"11","school":"6"},{"start_time":1551900327954,"click_time":1551900328569,"finger_time":1551900328349,"fix_duration":1423.2227843008789,"trial":6,"RT":395,"MT":220,"sideResp":1,"stimulus":"img/500/equaldotsize/L/7_Ratio_500_L_10_R_5.png","xmouse":[804,804,804,804,804,804,804,804,804,804,804,804,804,804,804,804,797,788,769,702,666,621,592,565,503,480,469,462,459,455,453],"ymouse":[514,514,514,514,514,514,514,514,514,514,514,514,514,514,514,514,513,509,498,446,415,372,342,312,235,204,180,161,143,109,95],"timestamp_mouse":[16,44,55,76,96,116,135,155,175,195,216,237,255,275,295,316,335,355,375,394,415,435,455,475,495,515,535,555,575,595,615],"xSR":741.5,"ySR":469.95,"xT1":424.9,"yT1":0,"xT2":1058.1,"yT2":0,"toosoon":0,"cond_shown":"equaldotsize","ratio_trial":500,"smaller_num":"5","larger_num":"10","correct_side":1,"subjID":"CamilaLopez22","gender":"1","age":"11","school":"6"},{"start_time":1551900330436,"click_time":1551900331210,"finger_time":1551900330849,"fix_duration":1104.0943125822835,"trial":7,"RT":413,"MT":361,"sideResp":1,"stimulus":"img/500/equaldotsize/L/4_Ratio_500_L_18_R_9.png","xmouse":[769,769,769,769,769,769,769,769,769,769,769,769,769,769,769,769,769,768,764,758,740,726,712,696,678,638,616,595,569,557,552,552,553,553,548,539,534,527,519],"ymouse":[532,532,532,532,532,532,532,532,532,532,532,532,532,532,532,532,532,530,523,516,494,478,465,455,443,420,405,390,358,332,275,242,214,187,161,132,118,109,98],"timestamp_mouse":[13,33,53,74,93,113,134,153,174,194,214,233,254,273,295,314,333,353,373,393,413,434,453,473,493,513,534,554,573,593,614,633,653,673,694,713,734,754,774],"xSR":741.5,"ySR":469.95,"xT1":424.9,"yT1":0,"xT2":1058.1,"yT2":0,"toosoon":0,"cond_shown":"equaldotsize","ratio_trial":500,"smaller_num":"9","larger_num":"18","correct_side":1,"subjID":"CamilaLopez22","gender":"1","age":"11","school":"6"},{"start_time":1551900332584,"click_time":1551900334190,"finger_time":1551900333650,"fix_duration":250,"trial":8,"RT":1066,"MT":540,"sideResp":1,"stimulus":"img/500/equaldotanddens/L/7_Ratio_500_L_10_R_5.png","xmouse":[787,787,787,787,787,787,787,787,787,787,787,787,787,787,787,787,787,787,787,787,787,787,787,787,787,787,787,787,787,787,787,787,787,787,787,787,787,787,787,787,787,787,787,787,787,787,787,787,787,787,787,785,772,712,690,666,639,566,531,501,468,450,435,413,406,400,397,395,394,394,398,402,406,411,411,411,411,412,417,421,429],"ymouse":[506,506,506,506,506,506,506,506,506,506,506,506,506,506,506,506,506,506,506,506,506,506,506,506,506,506,506,506,506,506,506,506,506,506,506,506,506,506,506,506,506,506,506,506,506,506,506,506,506,506,506,506,491,409,364,324,286,223,199,180,160,151,141,125,117,109,104,98,92,89,79,72,66,61,61,60,60,59,59,59,59],"timestamp_mouse":[10,33,45,66,85,107,125,146,165,186,206,225,245,265,286,306,326,347,367,386,406,425,446,465,485,506,526,546,567,585,607,626,645,665,686,707,727,746,765,787,805,825,846,865,885,906,926,945,967,986,1005,1026,1045,1066,1086,1105,1126,1147,1165,1186,1205,1226,1246,1266,1286,1306,1326,1346,1365,1387,1406,1425,1445,1466,1486,1506,1526,1545,1566,1586,1606],"xSR":741.5,"ySR":469.95,"xT1":424.9,"yT1":0,"xT2":1058.1,"yT2":0,"toosoon":0,"cond_shown":"equaldotanddens","ratio_trial":500,"smaller_num":"5","larger_num":"10","correct_side":1,"subjID":"CamilaLopez22","gender":"1","age":"11","school":"6"},{"start_time":1551900335456,"click_time":1551900336310,"finger_time":1551900336169,"fix_duration":605.7666800418533,"trial":9,"RT":713,"MT":141,"sideResp":1,"stimulus":"img/750/equaldotanddens/L/8_Ratio_750_L_4_R_3.png","xmouse":[765,765,765,765,765,765,765,765,765,765,765,765,765,765,765,765,765,765,765,765,765,765,765,765,765,765,765,765,765,765,765,765,765,765,759,744,694,644,603,538,510,484,458],"ymouse":[496,496,496,496,496,496,496,496,496,496,496,496,496,496,496,496,496,496,496,496,496,496,496,496,496,496,496,496,496,496,496,496,496,496,487,463,394,325,272,195,160,122,86],"timestamp_mouse":[20,39,54,74,95,115,133,153,175,193,213,234,255,275,293,313,333,354,373,393,414,433,453,475,495,514,534,553,573,595,614,635,653,675,694,713,734,753,773,793,813,834,854],"xSR":741.5,"ySR":469.95,"xT1":424.9,"yT1":0,"xT2":1058.1,"yT2":0,"toosoon":0,"cond_shown":"equaldotanddens","ratio_trial":750,"smaller_num":"3","larger_num":"4","correct_side":1,"subjID":"CamilaLopez22","gender":"1","age":"11","school":"6"},{"start_time":1551900337842,"click_time":1551900339030,"finger_time":1551900338849,"fix_duration":250,"trial":10,"RT":1007,"MT":181,"sideResp":1,"stimulus":"img/750/randomdotsizeEA/L/14_Ratio_750_L_8_R_6.png","xmouse":[766,766,766,766,766,766,766,766,766,766,766,766,766,766,766,766,766,766,766,766,766,766,766,766,766,766,766,766,766,766,766,766,766,766,766,766,766,766,766,766,766,766,766,766,766,766,765,764,761,753,724,702,681,662,644,609,588,550,528,505],"ymouse":[527,527,527,527,527,527,527,527,527,527,527,527,527,527,527,527,527,527,527,527,527,527,527,527,527,527,527,527,527,527,527,527,527,527,527,527,527,527,527,527,527,527,527,527,527,527,527,527,525,518,477,440,403,365,322,236,195,128,95,64],"timestamp_mouse":[10,39,48,69,88,109,127,147,169,187,209,228,248,267,288,307,327,347,368,387,408,428,449,469,489,507,529,548,567,589,609,627,648,668,687,707,728,747,768,787,809,829,847,868,888,907,929,947,969,988,1007,1027,1048,1068,1089,1107,1127,1147,1168,1188],"xSR":741.5,"ySR":469.95,"xT1":424.9,"yT1":0,"xT2":1058.1,"yT2":0,"toosoon":0,"cond_shown":"randomdotsizeEA","ratio_trial":750,"smaller_num":"6","larger_num":"8","correct_side":1,"subjID":"CamilaLopez22","gender":"1","age":"11","school":"6"},{"start_time":1551900340809,"click_time":1551900343729,"finger_time":1551900342569,"fix_duration":797.434508013187,"trial":11,"RT":1760,"MT":1160,"sideResp":2,"stimulus":"img/500/randomdotsizeEA/R/6_Ratio_500_L_9_R_18.png","xmouse":[765,765,765,765,765,765,765,765,765,765,765,765,765,765,765,765,765,765,765,765,765,765,765,765,765,765,765,765,765,765,765,765,765,765,765,765,765,765,765,765,765,765,765,765,765,765,765,765,765,760,754,752,749,748,748,748,748,748,748,748,747,747,747,747,747,747,747,747,747,747,747,747,747,747,747,747,747,747,747,747,747,747,747,747,746,746,746,745,741,737,737,736,734,734,734,734,734,734,734,734,734,734,734,734,734,734,734,734,734,734,734,734,734,734,734,734,734,734,734,734,734,734,734,734,734,734,737,768,823,843,876,891,901,902,903,906,910,926,933,938,940,942,957,974,1007,1045,1072],"ymouse":[519,519,519,519,519,519,519,519,519,519,519,519,519,519,519,519,519,519,519,519,519,519,519,519,519,519,519,519,519,519,519,519,519,519,519,519,519,519,519,519,519,519,519,519,519,519,519,519,519,520,520,520,520,520,520,520,520,520,520,520,519,519,519,519,519,519,519,519,519,519,519,519,519,519,519,519,519,519,519,519,519,519,519,516,513,511,511,511,508,506,506,506,506,506,507,508,508,508,508,508,508,508,508,508,508,508,508,508,508,508,508,508,508,508,508,508,508,508,508,508,508,508,508,508,508,508,506,480,434,417,389,374,348,337,330,322,315,296,285,271,261,252,218,190,148,112,96],"timestamp_mouse":[9,20,41,61,81,100,120,142,160,180,201,221,240,261,280,301,321,340,360,381,402,422,442,460,480,500,520,540,561,581,600,622,641,661,682,702,720,741,760,781,801,821,841,861,881,902,922,941,962,981,1000,1020,1042,1061,1081,1101,1120,1140,1161,1180,1202,1222,1241,1261,1281,1300,1320,1340,1361,1382,1400,1420,1440,1460,1482,1502,1522,1540,1561,1581,1601,1620,1641,1661,1680,1700,1722,1740,1760,1780,1801,1821,1841,1860,1880,1902,1922,1941,1961,1982,2002,2020,2040,2061,2081,2101,2121,2140,2160,2182,2201,2220,2240,2260,2280,2301,2322,2341,2360,2381,2402,2421,2440,2461,2481,2500,2520,2540,2561,2580,2601,2620,2641,2660,2681,2701,2720,2740,2761,2780,2801,2821,2841,2861,2881,2901,2920],"xSR":741.5,"ySR":469.95,"xT1":424.9,"yT1":0,"xT2":1058.1,"yT2":0,"toosoon":0,"cond_shown":"randomdotsizeEA","ratio_trial":500,"smaller_num":"9","larger_num":"18","correct_side":2,"subjID":"CamilaLopez22","gender":"1","age":"11","school":"6"},{"start_time":1551900344920,"click_time":1551900346070,"finger_time":1551900345749,"fix_duration":309.7573537694266,"trial":12,"RT":829,"MT":321,"sideResp":1,"stimulus":"img/500/randomdotsizeEA/L/8_Ratio_500_L_8_R_4.png","xmouse":[787,787,787,787,787,787,787,787,787,787,787,787,787,787,787,787,787,787,787,787,787,787,787,787,787,787,787,787,787,787,787,787,787,787,787,787,787,787,783,778,762,718,687,677,654,639,591,571,558,551,546,532,522,505,493,488,480,478],"ymouse":[493,493,493,493,493,493,493,493,493,493,493,493,493,493,493,493,493,493,493,493,493,493,493,493,493,493,493,493,493,493,493,493,493,493,493,493,493,493,492,487,471,419,375,359,320,298,252,238,228,221,211,189,174,153,139,130,110,98],"timestamp_mouse":[10,34,50,70,89,111,129,149,169,189,211,231,249,270,289,309,329,351,370,389,409,431,450,470,489,509,530,549,571,589,609,630,650,669,690,711,730,749,771,789,811,829,851,870,889,909,929,950,969,990,1009,1029,1050,1069,1090,1111,1130,1150],"xSR":741.5,"ySR":469.95,"xT1":424.9,"yT1":0,"xT2":1058.1,"yT2":0,"toosoon":0,"cond_shown":"randomdotsizeEA","ratio_trial":500,"smaller_num":"4","larger_num":"8","correct_side":1,"subjID":"CamilaLopez22","gender":"1","age":"11","school":"6"},{"start_time":1551900347579,"click_time":1551900348550,"finger_time":1551900348090,"fix_duration":667.2366502325813,"trial":13,"RT":511,"MT":460,"sideResp":1,"stimulus":"img/500/equaldotanddens/L/4_Ratio_500_L_18_R_9.png","xmouse":[789,789,789,789,789,789,789,789,789,789,789,789,789,789,789,789,789,789,789,788,786,785,779,757,742,724,708,697,679,665,644,626,609,588,582,574,565,557,545,543,540,535,531,523,519,515,512,510,503],"ymouse":[532,532,532,532,532,532,532,532,532,532,532,532,532,532,532,532,532,532,532,532,531,530,524,501,484,463,440,421,379,355,320,286,255,209,194,181,170,163,155,152,146,137,129,116,112,107,103,100,91],"timestamp_mouse":[11,33,50,72,92,111,131,152,171,190,210,230,250,272,292,310,330,351,370,390,410,432,450,471,491,511,530,552,570,591,610,631,651,671,691,711,731,751,771,791,811,831,850,870,890,911,930,951,971],"xSR":741.5,"ySR":469.95,"xT1":424.9,"yT1":0,"xT2":1058.1,"yT2":0,"toosoon":0,"cond_shown":"equaldotanddens","ratio_trial":500,"smaller_num":"9","larger_num":"18","correct_side":1,"subjID":"CamilaLopez22","gender":"1","age":"11","school":"6"},{"start_time":1551900350628,"click_time":1551900354949,"finger_time":1551900354470,"fix_duration":1496.8760718751694,"trial":14,"RT":3842,"MT":479,"sideResp":1,"stimulus":"img/250/randomdotsizeEA/L/7_Ratio_250_L_8_R_2.png","xmouse":[774,774,774,774,774,774,774,774,774,774,774,774,774,774,774,774,774,774,774,774,774,774,774,774,774,774,774,774,774,774,774,774,774,774,774,774,774,774,774,774,774,774,774,774,774,774,774,774,774,774,774,774,774,774,774,774,774,774,774,774,774,774,774,774,774,774,774,774,774,774,774,774,774,774,774,774,774,774,774,774,774,774,774,774,774,774,774,774,774,774,774,774,774,774,774,774,774,774,774,774,774,774,774,774,774,774,774,774,774,774,774,774,774,774,774,774,774,774,774,774,774,774,774,774,774,774,774,774,774,774,774,774,774,774,774,774,774,774,774,774,774,774,774,774,774,774,774,774,774,774,774,774,774,774,774,774,774,774,774,774,774,774,774,774,774,774,773,773,773,773,772,771,770,770,770,770,770,770,770,770,770,770,770,770,770,770,770,770,770,770,769,756,738,715,699,687,686,682,675,664,654,624,613,605,598,594,587,583,576,569,566,566,564,559,547,535,513],"ymouse":[524,524,524,524,524,524,524,524,524,524,524,524,524,524,524,524,524,524,524,524,524,524,524,524,524,524,524,524,524,524,524,524,524,524,524,524,525,525,525,525,525,525,525,525,525,525,525,525,525,525,525,525,525,525,525,525,525,525,525,525,525,525,525,525,525,525,525,525,525,525,525,525,525,525,525,525,525,525,525,525,525,525,525,525,525,525,525,525,525,525,525,525,525,525,525,525,525,525,525,525,525,525,525,525,525,525,525,525,525,525,525,525,525,525,525,525,525,525,525,525,525,525,525,525,525,525,525,525,525,525,525,525,525,525,525,525,525,525,525,525,525,525,525,525,525,525,525,525,525,525,525,525,525,525,525,525,525,525,525,525,525,525,525,525,525,525,525,525,525,525,525,525,525,525,525,525,525,525,525,525,525,525,525,525,525,525,525,525,525,525,525,487,439,370,316,252,232,215,197,172,153,98,79,65,55,46,31,25,16,13,11,11,11,13,26,39,52],"timestamp_mouse":[10,37,43,62,81,102,122,142,161,182,202,221,243,263,283,301,322,342,362,382,401,422,442,462,482,501,522,541,561,583,603,621,643,661,682,703,721,741,762,781,803,822,841,861,882,901,923,943,962,982,1003,1023,1041,1062,1082,1101,1122,1141,1163,1181,1201,1221,1242,1262,1281,1303,1322,1341,1362,1381,1401,1422,1442,1461,1483,1502,1521,1542,1562,1581,1601,1622,1642,1661,1683,1703,1721,1741,1762,1781,1801,1822,1842,1861,1881,1901,1922,1941,1961,1982,2003,2021,2041,2063,2081,2102,2122,2142,2162,2181,2203,2222,2241,2262,2281,2301,2322,2342,2362,2381,2401,2421,2443,2461,2483,2503,2521,2542,2563,2582,2603,2621,2643,2661,2681,2703,2721,2741,2761,2782,2801,2822,2843,2861,2881,2902,2922,2942,2962,2982,3002,3022,3041,3061,3081,3102,3121,3142,3161,3181,3201,3221,3242,3261,3281,3302,3322,3341,3361,3381,3401,3422,3442,3463,3481,3501,3521,3543,3562,3581,3601,3623,3641,3662,3682,3701,3722,3741,3762,3781,3801,3822,3842,3862,3882,3903,3921,3942,3961,3981,4002,4022,4043,4062,4082,4102,4121,4141,4161,4181,4202,4222,4242,4262,4281,4302,4321],"xSR":741.5,"ySR":469.95,"xT1":424.9,"yT1":0,"xT2":1058.1,"yT2":0,"toosoon":0,"cond_shown":"randomdotsizeEA","ratio_trial":250,"smaller_num":"2","larger_num":"8","correct_side":1,"subjID":"CamilaLopez22","gender":"1","age":"11","school":"6"},{"start_time":1551900356201,"click_time":1551900357211,"finger_time":1551900357070,"fix_duration":250,"trial":15,"RT":869,"MT":141,"sideResp":1,"stimulus":"img/500/randomdotsizeEA/L/11_Ratio_500_L_12_R_6.png","xmouse":[763,763,764,764,764,764,764,764,764,764,764,764,764,766,766,766,766,766,766,766,767,767,767,767,767,767,767,767,767,767,768,767,762,761,761,761,761,761,761,758,754,750,742,734,721,690,647,570,536,505,495],"ymouse":[542,542,540,539,538,538,538,538,538,538,538,538,538,535,533,531,530,530,530,530,530,530,530,530,530,530,530,530,530,530,529,528,519,514,511,508,507,505,504,500,494,491,476,463,430,358,286,180,143,103,82],"timestamp_mouse":[10,31,48,69,89,109,129,149,169,188,210,228,249,269,289,308,328,349,369,389,409,429,448,469,488,509,530,549,568,589,609,629,649,668,690,709,728,748,770,789,809,829,849,869,889,909,929,948,969,988,1010],"xSR":741.5,"ySR":469.95,"xT1":424.9,"yT1":0,"xT2":1058.1,"yT2":0,"toosoon":0,"cond_shown":"randomdotsizeEA","ratio_trial":500,"smaller_num":"6","larger_num":"12","correct_side":1,"subjID":"CamilaLopez22","gender":"1","age":"11","school":"6"},{"start_time":1551900358260,"click_time":1551900359451,"finger_time":1551900358850,"fix_duration":268.65734725151026,"trial":16,"RT":590,"MT":601,"sideResp":2,"stimulus":"img/750/randomdotsizeEA/R/5_Ratio_750_L_15_R_20.png","xmouse":[777,777,777,777,777,777,777,777,777,777,777,777,777,777,769,761,761,758,758,758,758,758,758,758,758,758,758,758,757,741,733,723,716,710,708,708,708,708,708,752,796,856,921,982,1051,1075,1083,1091,1096,1098,1098,1098,1098,1098,1097,1096,1093,1090,1087,1085],"ymouse":[536,536,536,536,536,536,536,536,536,536,536,536,536,533,514,498,495,488,487,486,486,486,486,486,486,486,486,486,484,469,458,440,423,405,402,402,402,402,402,406,412,412,412,408,372,333,303,275,255,221,203,184,169,154,135,131,125,118,110,97],"timestamp_mouse":[10,37,50,69,90,110,129,151,169,190,210,229,251,270,289,310,329,351,370,391,411,429,451,470,489,509,529,549,570,590,610,630,650,671,689,709,730,750,770,790,811,830,850,869,889,909,929,950,969,989,1010,1029,1050,1069,1089,1109,1130,1150,1170,1191],"xSR":741.5,"ySR":469.95,"xT1":424.9,"yT1":0,"xT2":1058.1,"yT2":0,"toosoon":0,"cond_shown":"randomdotsizeEA","ratio_trial":750,"smaller_num":"15","larger_num":"20","correct_side":2,"subjID":"CamilaLopez22","gender":"1","age":"11","school":"6"},{"start_time":1551900360402,"click_time":1551900361690,"finger_time":1551900361029,"fix_duration":250,"trial":17,"RT":627,"MT":661,"sideResp":1,"stimulus":"img/900/randomdotsizeEA/R/13_Ratio_900_L_18_R_20.png","xmouse":[789,789,789,789,789,789,789,789,789,789,789,789,789,789,789,789,789,788,785,777,774,773,772,772,771,770,769,767,767,764,762,759,753,751,751,751,751,751,751,752,753,754,754,754,754,754,755,750,742,729,705,689,652,630,611,597,584,573,570,564,556,548,528,519,511],"ymouse":[489,489,489,489,489,489,489,489,489,489,489,489,489,489,489,489,489,489,489,487,486,486,485,485,483,483,481,479,477,473,470,465,453,450,450,450,450,450,450,450,450,450,450,450,450,450,450,440,427,409,375,351,292,255,221,198,181,168,165,157,149,142,120,106,93],"timestamp_mouse":[7,27,48,69,87,108,129,149,168,188,209,227,247,269,287,307,328,348,368,388,407,428,447,468,487,508,528,548,568,588,607,627,648,668,688,707,728,747,768,789,807,828,847,868,888,908,927,947,969,988,1008,1028,1048,1067,1089,1108,1128,1148,1167,1187,1208,1228,1247,1267,1288],"xSR":741.5,"ySR":469.95,"xT1":424.9,"yT1":0,"xT2":1058.1,"yT2":0,"toosoon":0,"cond_shown":"randomdotsizeEA","ratio_trial":900,"smaller_num":"18","larger_num":"20","correct_side":2,"subjID":"CamilaLopez22","gender":"1","age":"11","school":"6"},{"start_time":1551900362747,"click_time":1551900363770,"finger_time":1551900363371,"fix_duration":335.86533935926343,"trial":18,"RT":624,"MT":399,"sideResp":1,"stimulus":"img/250/equaldotsize/L/1_Ratio_250_L_8_R_2.png","xmouse":[819,819,819,819,819,819,819,819,819,819,819,819,819,819,819,819,819,819,819,819,819,819,819,819,819,819,819,819,818,815,790,766,728,663,619,565,546,530,515,504,488,480,479,478,478,478,477,476,475,473,470,469],"ymouse":[505,505,505,505,505,505,505,505,505,505,505,505,505,505,505,505,505,505,505,505,505,505,505,505,505,505,505,505,505,504,482,459,426,361,320,271,254,241,229,218,194,173,159,146,135,124,122,119,116,113,104,99],"timestamp_mouse":[11,38,44,62,82,103,123,142,163,182,204,224,243,263,284,303,322,344,362,383,404,424,444,462,482,504,524,542,563,583,603,624,642,662,683,703,722,743,763,782,802,822,843,864,883,903,922,943,963,983,1002,1023],"xSR":741.5,"ySR":469.95,"xT1":424.9,"yT1":0,"xT2":1058.1,"yT2":0,"toosoon":0,"cond_shown":"equaldotsize","ratio_trial":250,"smaller_num":"2","larger_num":"8","correct_side":1,"subjID":"CamilaLopez22","gender":"1","age":"11","school":"6"},{"start_time":1551900365640,"click_time":1551900369610,"finger_time":1551900369070,"fix_duration":1027.8344078412308,"trial":19,"RT":3430,"MT":540,"sideResp":2,"stimulus":"img/900/equaldotsize/R/5_Ratio_900_L_9_R_10.png","xmouse":[783,783,783,783,783,783,783,783,783,783,783,783,783,783,783,783,783,783,783,783,783,783,783,783,783,783,783,783,783,783,783,783,783,783,783,783,783,783,783,783,783,783,783,783,783,783,783,783,783,783,783,783,783,783,783,783,783,783,783,783,783,783,783,783,783,783,783,783,783,783,783,783,783,783,783,783,783,783,783,783,783,783,783,783,783,783,783,783,783,783,783,783,783,783,783,783,783,783,783,783,783,783,783,783,783,783,783,783,783,783,783,783,783,783,783,783,783,783,783,783,783,783,783,783,783,783,783,783,783,783,783,783,783,783,783,783,783,783,783,783,783,783,783,783,783,783,783,783,783,783,783,783,783,783,783,783,783,783,783,783,783,783,783,783,783,783,783,783,783,783,781,790,814,859,915,993,1013,1036,1044,1048,1054,1056,1059,1062,1066,1073,1079,1080,1084,1086,1090,1090,1090,1090,1090,1091,1093,1097,1100],"ymouse":[519,519,519,519,519,519,519,519,519,519,519,519,519,519,519,519,519,519,519,519,519,519,519,519,519,519,519,519,519,519,519,519,519,519,519,519,519,519,519,519,519,519,519,519,519,519,519,519,519,519,519,519,519,519,519,519,519,519,519,519,519,519,519,519,519,519,519,519,519,519,519,519,519,519,519,519,519,519,519,519,519,519,519,519,519,519,519,519,519,519,519,519,519,519,519,519,519,519,519,519,519,519,519,519,519,519,519,519,519,519,519,519,519,519,519,519,519,519,519,519,519,519,519,519,519,519,519,519,519,519,519,519,519,519,519,519,519,519,519,519,519,519,519,519,519,519,519,519,519,519,519,519,519,519,519,519,519,519,519,519,519,519,519,519,519,519,519,519,519,518,484,459,434,411,398,390,384,366,347,331,299,287,277,270,263,252,241,236,224,216,196,185,174,165,157,142,131,108,90],"timestamp_mouse":[10,37,50,70,90,109,130,150,170,189,210,230,249,270,291,310,329,350,371,391,409,431,450,470,490,509,531,550,570,591,611,630,649,670,691,710,731,750,770,790,809,831,849,869,890,909,929,949,970,989,1010,1031,1051,1069,1090,1109,1130,1151,1170,1191,1210,1230,1249,1270,1290,1309,1331,1349,1370,1390,1409,1431,1449,1470,1491,1509,1530,1550,1569,1589,1610,1629,1651,1670,1689,1711,1729,1750,1769,1790,1811,1829,1849,1869,1891,1910,1929,1950,1971,1989,2011,2031,2050,2071,2091,2110,2129,2150,2170,2190,2209,2230,2249,2270,2290,2309,2330,2351,2370,2390,2410,2429,2451,2470,2491,2509,2530,2551,2569,2590,2609,2631,2649,2669,2691,2709,2730,2750,2769,2789,2811,2829,2850,2870,2889,2909,2929,2949,2970,2991,3010,3031,3050,3071,3089,3110,3130,3151,3170,3190,3209,3231,3249,3270,3290,3310,3329,3349,3371,3390,3410,3430,3450,3469,3490,3509,3530,3549,3570,3590,3610,3630,3649,3669,3689,3709,3730,3749,3770,3789,3810,3831,3850,3870,3890,3909,3929,3949,3969],"xSR":741.5,"ySR":469.95,"xT1":424.9,"yT1":0,"xT2":1058.1,"yT2":0,"toosoon":0,"cond_shown":"equaldotsize","ratio_trial":900,"smaller_num":"9","larger_num":"10","correct_side":2,"subjID":"CamilaLopez22","gender":"1","age":"11","school":"6"},{"start_time":1551900372109,"click_time":1551900373150,"finger_time":1551900372749,"fix_duration":1418.3387859899344,"trial":20,"RT":640,"MT":401,"sideResp":1,"stimulus":"img/250/equaldotanddens/L/2_Ratio_250_L_16_R_4.png","xmouse":[788,788,788,788,788,788,788,788,788,788,788,788,788,788,788,788,788,788,788,788,788,788,788,788,788,788,788,788,788,783,775,763,736,720,701,688,673,624,599,580,565,551,531,518,517,513,510,503,502,501,501,501,501],"ymouse":[518,518,518,518,518,518,518,518,518,518,518,518,518,518,518,518,518,518,518,518,518,518,518,518,518,518,518,518,518,509,494,473,424,396,362,339,313,239,208,186,168,152,131,123,121,119,117,111,107,105,104,102,97],"timestamp_mouse":[1,21,40,60,80,100,121,140,160,182,201,220,241,262,280,300,322,341,360,380,401,422,442,460,480,500,522,540,560,580,601,621,640,661,680,701,721,741,761,781,801,821,840,862,881,901,921,940,961,980,1000,1021,1040],"xSR":741.5,"ySR":469.95,"xT1":424.9,"yT1":0,"xT2":1058.1,"yT2":0,"toosoon":0,"cond_shown":"equaldotanddens","ratio_trial":250,"smaller_num":"4","larger_num":"16","correct_side":1,"subjID":"CamilaLopez22","gender":"1","age":"11","school":"6"},{"start_time":1551900374516,"click_time":1551900375490,"finger_time":1551900374949,"fix_duration":566.8752624930956,"trial":21,"RT":433,"MT":541,"sideResp":1,"stimulus":"img/250/equaldotanddens/L/5_Ratio_250_L_24_R_6.png","xmouse":[809,810,810,811,811,811,811,811,811,811,811,811,811,811,811,811,811,811,807,804,794,764,747,704,667,628,543,506,477,458,441,412,393,385,378,375,375,375,375,375,375,384,397,408,414,419,421,422,426],"ymouse":[508,509,509,510,510,510,510,510,510,510,510,510,510,510,510,510,510,510,504,501,487,445,421,371,328,291,230,211,194,183,173,145,119,104,90,84,82,82,82,80,80,73,69,65,63,63,63,63,61],"timestamp_mouse":[14,36,54,73,95,115,135,153,175,194,215,233,255,273,294,315,334,354,373,394,413,433,454,473,494,514,533,553,574,594,614,633,653,673,693,714,735,754,773,793,814,833,854,874,894,915,934,953,973],"xSR":741.5,"ySR":469.95,"xT1":424.9,"yT1":0,"xT2":1058.1,"yT2":0,"toosoon":0,"cond_shown":"equaldotanddens","ratio_trial":250,"smaller_num":"6","larger_num":"24","correct_side":1,"subjID":"CamilaLopez22","gender":"1","age":"11","school":"6"},{"start_time":1551900377269,"click_time":1551900378030,"finger_time":1551900377650,"fix_duration":1117.3035053385738,"trial":22,"RT":381,"MT":380,"sideResp":2,"stimulus":"img/900/equaldotanddens/R/11_Ratio_900_L_18_R_20.png","xmouse":[799,799,799,799,799,799,799,799,799,799,798,797,797,795,794,792,788,783,773,749,732,711,693,679,664,662,662,662,662,671,685,710,746,792,875,918,987,1031,1073],"ymouse":[548,548,548,548,548,548,548,548,548,548,548,548,547,545,543,540,533,524,508,465,436,399,368,346,313,303,300,299,297,290,279,262,236,205,156,130,80,47,14],"timestamp_mouse":[12,23,46,61,81,100,122,141,160,180,201,221,240,261,280,301,321,340,361,381,402,421,440,461,480,502,521,540,560,580,600,621,641,660,680,701,721,741,761],"xSR":741.5,"ySR":469.95,"xT1":424.9,"yT1":0,"xT2":1058.1,"yT2":0,"toosoon":0,"cond_shown":"equaldotanddens","ratio_trial":900,"smaller_num":"18","larger_num":"20","correct_side":2,"subjID":"CamilaLopez22","gender":"1","age":"11","school":"6"},{"start_time":1551900379878,"click_time":1551900381611,"finger_time":1551900380470,"fix_duration":888.2737997313275,"trial":23,"RT":592,"MT":1141,"sideResp":1,"stimulus":"img/900/randomdotsizeEA/R/13_Ratio_900_L_18_R_20.png","xmouse":[785,785,785,785,785,785,785,785,785,785,785,785,785,785,785,785,785,785,785,785,785,785,785,785,785,785,783,783,783,786,795,817,844,926,962,966,966,966,966,966,966,966,966,966,966,966,966,966,966,966,813,807,795,774,766,762,760,756,734,713,691,674,661,635,612,604,585,577,571,571,570,570,570,566,563,559,551,543,536,536,536,536,536,536,535,530,524],"ymouse":[511,511,511,511,511,511,511,511,511,511,511,511,511,511,511,511,511,511,511,511,511,511,511,511,511,511,510,507,489,469,438,390,323,174,60,2,2,2,2,2,2,2,2,2,2,2,2,2,2,2,3,11,22,35,38,39,39,40,41,41,41,41,41,41,41,41,41,41,41,41,41,41,41,42,47,52,65,76,87,88,88,88,88,88,88,88,82],"timestamp_mouse":[12,35,52,72,92,111,131,153,171,191,213,231,253,271,291,312,332,353,373,393,411,432,452,472,492,512,532,551,572,592,612,631,653,671,693,712,731,751,772,792,811,832,853,872,892,912,932,951,972,992,1012,1032,1052,1071,1091,1111,1131,1152,1172,1193,1212,1232,1252,1271,1291,1311,1332,1351,1372,1392,1411,1432,1451,1471,1492,1512,1533,1551,1571,1591,1612,1633,1652,1671,1692,1713,1733],"xSR":741.5,"ySR":469.95,"xT1":424.9,"yT1":0,"xT2":1058.1,"yT2":0,"toosoon":0,"cond_shown":"randomdotsizeEA","ratio_trial":900,"smaller_num":"18","larger_num":"20","correct_side":2,"subjID":"CamilaLopez22","gender":"1","age":"11","school":"6"},{"start_time":1551900382841,"click_time":1551900384190,"finger_time":1551900383670,"fix_duration":250,"trial":24,"RT":829,"MT":520,"sideResp":2,"stimulus":"img/900/randomdotsizeEA/R/3_Ratio_900_L_9_R_10.png","xmouse":[804,804,804,804,804,804,804,804,804,804,804,804,804,804,803,802,801,800,800,800,800,800,800,800,800,800,800,800,800,800,799,798,796,796,795,795,795,795,795,795,795,795,795,795,795,804,817,857,897,942,1007,1026,1036,1039,1039,1039,1039,1039,1039,1039,1044,1046,1049,1050,1052,1053,1058,1069],"ymouse":[549,549,549,549,549,549,549,549,549,549,549,549,549,549,549,548,545,543,539,535,527,525,524,524,524,524,524,524,524,522,518,516,515,513,513,511,509,506,497,489,471,465,461,460,458,449,434,396,360,315,234,193,150,117,88,46,32,23,22,21,13,11,9,8,7,7,9,25],"timestamp_mouse":[10,40,48,69,89,109,129,149,170,188,208,229,248,269,288,308,329,349,368,388,409,428,450,470,490,509,530,548,568,589,609,628,649,669,688,709,730,748,769,789,809,829,849,868,888,908,929,948,969,989,1009,1028,1048,1069,1090,1108,1128,1149,1170,1189,1209,1229,1249,1268,1289,1310,1329,1349],"xSR":741.5,"ySR":469.95,"xT1":424.9,"yT1":0,"xT2":1058.1,"yT2":0,"toosoon":0,"cond_shown":"randomdotsizeEA","ratio_trial":900,"smaller_num":"9","larger_num":"10","correct_side":2,"subjID":"CamilaLopez22","gender":"1","age":"11","school":"6"},{"start_time":1551900385252,"click_time":1551900386349,"finger_time":1551900386070,"fix_duration":280.6029949118929,"trial":25,"RT":818,"MT":279,"sideResp":1,"stimulus":"img/500/equaldotanddens/R/2_Ratio_500_L_3_R_6.png","xmouse":[799,799,799,799,799,799,799,799,799,799,799,799,799,799,799,799,799,799,799,799,799,799,799,799,799,799,799,799,799,799,799,799,799,799,797,796,794,791,789,779,768,752,734,711,657,633,586,557,531,491,478,466,458,453,447],"ymouse":[508,508,508,508,508,508,508,508,508,508,508,508,508,508,508,508,508,508,508,508,508,508,508,508,508,508,508,508,508,508,508,508,508,508,506,504,500,496,493,476,457,437,413,391,342,321,274,240,210,156,135,119,107,100,88],"timestamp_mouse":[31,38,58,78,98,117,139,158,178,198,217,238,257,279,299,318,337,358,377,397,417,438,458,478,498,518,537,557,577,598,618,639,658,679,697,718,737,758,777,797,818,838,857,878,897,917,938,958,978,998,1017,1038,1059,1079,1097],"xSR":741.5,"ySR":469.95,"xT1":424.9,"yT1":0,"xT2":1058.1,"yT2":0,"toosoon":0,"cond_shown":"equaldotanddens","ratio_trial":500,"smaller_num":"3","larger_num":"6","correct_side":2,"subjID":"CamilaLopez22","gender":"1","age":"11","school":"6"},{"start_time":1551900389208,"click_time":1551900389910,"finger_time":1551900389731,"fix_duration":996.4854551274744,"trial":26,"RT":523,"MT":179,"sideResp":2,"stimulus":"img/750/equaldotsize/R/5_Ratio_750_L_15_R_20.png","xmouse":[788,788,788,788,788,788,788,788,788,788,788,788,788,788,788,788,788,788,788,788,788,788,788,788,793,800,827,894,944,969,985,995,1014,1030,1049,1065],"ymouse":[522,522,523,523,523,523,523,523,523,523,523,523,523,523,523,523,523,523,523,523,523,523,523,523,517,504,459,340,271,239,218,202,171,143,109,80],"timestamp_mouse":[10,22,41,62,83,101,121,142,162,181,203,221,241,262,283,302,322,342,361,381,402,421,442,461,482,502,523,541,562,582,601,621,642,663,682,702],"xSR":741.5,"ySR":469.95,"xT1":424.9,"yT1":0,"xT2":1058.1,"yT2":0,"toosoon":0,"cond_shown":"equaldotsize","ratio_trial":750,"smaller_num":"15","larger_num":"20","correct_side":2,"subjID":"CamilaLopez22","gender":"1","age":"11","school":"6"},{"start_time":1551900391622,"click_time":1551900392830,"finger_time":1551900392149,"fix_duration":1071.4225530368124,"trial":27,"RT":527,"MT":681,"sideResp":1,"stimulus":"img/250/equaldotanddens/L/5_Ratio_250_L_24_R_6.png","xmouse":[783,783,783,783,783,783,783,783,783,783,783,783,783,783,783,783,783,783,783,783,783,783,783,783,776,756,733,707,667,649,634,605,590,575,562,555,551,550,550,548,545,536,527,517,508,500,482,473,464,460,457,455,455,455,455,455,455,455,454,454,454],"ymouse":[534,534,534,534,534,534,534,534,534,534,534,534,534,534,534,534,534,534,534,534,534,534,534,534,530,503,473,434,379,355,335,301,286,267,250,234,214,209,205,200,191,170,157,146,138,134,124,120,116,114,111,109,109,109,109,109,109,108,107,101,99],"timestamp_mouse":[20,46,48,68,88,108,127,149,168,188,207,228,248,268,288,308,327,348,367,388,407,427,447,468,488,509,527,548,568,589,608,628,647,667,687,707,727,748,767,788,807,828,848,867,888,908,927,947,967,988,1009,1028,1047,1067,1087,1108,1128,1149,1167,1187,1208],"xSR":741.5,"ySR":469.95,"xT1":424.9,"yT1":0,"xT2":1058.1,"yT2":0,"toosoon":0,"cond_shown":"equaldotanddens","ratio_trial":250,"smaller_num":"6","larger_num":"24","correct_side":1,"subjID":"CamilaLopez22","gender":"1","age":"11","school":"6"},{"start_time":1551900394141,"click_time":1551900395110,"finger_time":1551900394931,"fix_duration":250,"trial":28,"RT":790,"MT":179,"sideResp":1,"stimulus":"img/500/randomdotsizeEA/L/11_Ratio_500_L_12_R_6.png","xmouse":[799,799,799,799,799,799,799,799,799,799,799,799,799,799,799,799,799,799,799,799,799,799,799,799,799,799,799,799,799,799,799,801,802,806,808,809,809,809,806,795,751,692,670,605,564,504,488,474,462],"ymouse":[539,539,539,539,539,539,539,539,539,539,539,539,539,539,539,539,539,539,539,539,539,539,539,539,539,539,539,539,539,539,539,538,533,521,513,507,501,491,472,445,384,331,316,263,225,156,131,101,69],"timestamp_mouse":[10,40,48,69,90,109,129,148,170,188,209,229,248,269,289,309,329,348,370,388,409,429,449,470,490,508,528,550,569,590,610,630,648,668,689,709,729,749,768,790,809,829,848,869,888,909,929,949,969],"xSR":741.5,"ySR":469.95,"xT1":424.9,"yT1":0,"xT2":1058.1,"yT2":0,"toosoon":0,"cond_shown":"randomdotsizeEA","ratio_trial":500,"smaller_num":"6","larger_num":"12","correct_side":1,"subjID":"CamilaLopez22","gender":"1","age":"11","school":"6"},{"start_time":1551900397263,"click_time":1551900398010,"finger_time":1551900397749,"fix_duration":1411.1744039340667,"trial":29,"RT":486,"MT":261,"sideResp":1,"stimulus":"img/250/equaldotsize/L/2_Ratio_250_L_16_R_4.png","xmouse":[784,784,784,784,784,784,784,784,784,784,784,784,784,784,784,784,784,784,784,784,780,777,766,755,736,726,715,691,662,595,576,564,554,543,525,511,505,500],"ymouse":[504,504,504,504,504,504,504,504,504,504,504,504,504,504,504,504,504,504,504,504,504,502,492,477,442,426,406,371,337,254,229,213,198,183,154,130,113,99],"timestamp_mouse":[10,32,46,67,88,106,126,148,166,187,206,227,247,266,287,307,326,347,366,388,406,427,447,466,486,508,526,547,567,587,606,626,647,667,686,707,727,747],"xSR":741.5,"ySR":469.95,"xT1":424.9,"yT1":0,"xT2":1058.1,"yT2":0,"toosoon":0,"cond_shown":"equaldotsize","ratio_trial":250,"smaller_num":"4","larger_num":"16","correct_side":1,"subjID":"CamilaLopez22","gender":"1","age":"11","school":"6"},{"start_time":1551900400300,"click_time":1551900401010,"finger_time":1551900400829,"fix_duration":1028.9072427263293,"trial":30,"RT":529,"MT":181,"sideResp":1,"stimulus":"img/750/randomdotsizeEA/L/1_Ratio_750_L_20_R_15.png","xmouse":[765,765,765,765,765,765,765,765,765,765,765,765,765,765,765,765,765,765,763,763,762,762,759,755,752,749,741,713,686,653,620,591,556,535,502,484],"ymouse":[510,510,510,510,510,510,510,510,510,510,510,510,510,510,510,510,510,510,510,509,509,508,505,501,497,494,485,453,415,364,305,257,197,165,118,95],"timestamp_mouse":[10,33,50,70,90,111,131,151,170,189,210,229,250,269,290,309,330,349,369,391,411,429,449,470,490,510,529,550,571,589,609,629,649,671,690,710],"xSR":741.5,"ySR":469.95,"xT1":424.9,"yT1":0,"xT2":1058.1,"yT2":0,"toosoon":0,"cond_shown":"randomdotsizeEA","ratio_trial":750,"smaller_num":"15","larger_num":"20","correct_side":1,"subjID":"CamilaLopez22","gender":"1","age":"11","school":"6"},{"start_time":1551900404390,"click_time":1551900405349,"finger_time":1551900404949,"fix_duration":1160.0730256244456,"trial":31,"RT":559,"MT":400,"sideResp":2,"stimulus":"img/900/randomdotsizeEA/L/4_Ratio_900_L_20_R_18.png","xmouse":[790,790,790,790,790,790,790,790,790,790,790,790,790,790,790,790,790,790,790,790,790,790,790,790,790,790,793,827,849,871,911,929,960,974,981,986,989,993,996,1000,1003,1007,1016,1021,1029,1040,1052,1071],"ymouse":[502,502,502,502,502,502,502,502,502,502,502,502,502,502,502,502,502,502,502,502,502,502,502,502,502,501,494,465,445,424,381,352,284,242,216,200,193,179,169,152,143,135,117,110,100,88,78,64],"timestamp_mouse":[21,40,60,80,99,119,139,159,180,199,220,240,259,281,300,320,339,359,380,399,419,440,459,480,500,519,540,559,580,600,620,639,660,680,699,719,740,760,781,801,820,840,861,880,900,920,940,959],"xSR":741.5,"ySR":469.95,"xT1":424.9,"yT1":0,"xT2":1058.1,"yT2":0,"toosoon":0,"cond_shown":"randomdotsizeEA","ratio_trial":900,"smaller_num":"18","larger_num":"20","correct_side":1,"subjID":"CamilaLopez22","gender":"1","age":"11","school":"6"},{"start_time":1551900407310,"click_time":1551900408270,"finger_time":1551900407790,"fix_duration":1239.901888642136,"trial":32,"RT":480,"MT":480,"sideResp":1,"stimulus":"img/750/equaldotsize/L/14_Ratio_750_L_8_R_6.png","xmouse":[781,781,781,781,781,781,781,781,781,781,781,781,781,781,781,781,781,781,781,778,775,769,756,749,741,735,725,700,684,668,652,639,609,593,572,558,547,528,520,515,511,505,501,496,494,490,487,482,480],"ymouse":[515,515,515,515,515,515,515,515,515,515,515,515,515,515,515,515,515,515,516,516,515,510,499,493,484,479,465,432,411,391,373,354,312,291,259,240,225,197,186,177,169,161,151,140,128,118,110,100,98],"timestamp_mouse":[1,19,39,60,80,99,121,139,160,180,200,219,240,260,280,300,319,340,359,381,400,419,439,460,480,500,519,539,559,580,600,619,639,660,679,699,720,740,759,779,799,821,839,860,881,899,920,939,960],"xSR":741.5,"ySR":469.95,"xT1":424.9,"yT1":0,"xT2":1058.1,"yT2":0,"toosoon":0,"cond_shown":"equaldotsize","ratio_trial":750,"smaller_num":"6","larger_num":"8","correct_side":1,"subjID":"CamilaLopez22","gender":"1","age":"11","school":"6"},{"start_time":1551900409500,"click_time":1551900410249,"finger_time":1551900409970,"fix_duration":588.901242389608,"trial":33,"RT":470,"MT":279,"sideResp":2,"stimulus":"img/750/equaldotanddens/R/7_Ratio_750_L_3_R_4.png","xmouse":[823,823,823,823,823,823,823,823,823,823,823,823,823,823,823,823,826,830,833,833,833,833,837,846,862,876,892,930,955,979,1006,1028,1060,1068,1073,1075,1076,1082],"ymouse":[519,519,519,519,519,519,519,519,519,519,519,519,519,519,519,519,510,498,494,493,493,493,487,472,452,432,409,356,318,273,228,188,140,124,114,105,102,89],"timestamp_mouse":[10,32,49,70,91,109,129,149,169,191,211,229,250,269,290,310,329,350,369,389,410,430,449,470,489,510,530,549,571,590,610,630,649,670,690,710,729,749],"xSR":741.5,"ySR":469.95,"xT1":424.9,"yT1":0,"xT2":1058.1,"yT2":0,"toosoon":0,"cond_shown":"equaldotanddens","ratio_trial":750,"smaller_num":"3","larger_num":"4","correct_side":2,"subjID":"CamilaLopez22","gender":"1","age":"11","school":"6"},{"start_time":1551900412158,"click_time":1551900417270,"finger_time":1551900416850,"fix_duration":1185.88712634995,"trial":34,"RT":4692,"MT":420,"sideResp":1,"stimulus":"img/250/randomdotsizeEA/R/9_Ratio_250_L_3_R_12.png","xmouse":[814,814,814,814,814,814,814,814,814,814,814,814,814,814,814,814,814,814,814,814,814,814,814,814,814,814,814,814,814,814,814,814,814,814,814,814,814,814,814,814,814,814,814,814,814,814,814,814,814,814,814,814,814,814,814,814,814,814,814,814,814,814,814,814,814,814,814,814,814,814,814,814,814,814,814,814,814,814,814,814,814,814,814,814,814,814,814,814,814,814,814,814,814,814,814,814,814,814,814,814,814,814,814,814,814,814,814,814,814,814,814,814,814,814,814,814,814,814,814,814,814,814,814,814,814,814,814,814,814,814,814,814,814,814,814,814,814,814,814,814,814,814,814,814,814,814,814,814,814,814,814,814,814,814,814,814,814,814,814,814,814,814,814,814,814,814,814,814,814,814,814,814,814,814,814,814,814,814,814,814,814,814,814,814,814,814,814,814,814,814,814,814,814,814,814,814,814,814,814,814,814,814,814,814,814,814,814,814,814,814,814,814,814,814,814,814,814,814,814,814,814,814,814,814,814,814,814,814,814,813,798,756,742,749,813,829,830,813,790,760,754,752,752,750,739,719,694,665,641,607,593,582,576,573,543,518],"ymouse":[533,533,533,533,533,533,533,533,533,533,533,533,533,533,533,533,533,533,533,533,533,533,533,533,533,533,533,533,533,533,533,533,533,533,533,533,533,533,533,533,533,533,533,533,533,533,533,533,533,533,533,533,533,533,533,533,533,533,533,533,533,533,533,533,533,533,533,533,533,533,533,533,533,533,533,533,533,533,533,533,533,533,533,533,533,533,533,533,533,533,533,533,533,533,533,533,533,533,533,533,533,533,533,533,533,533,533,533,533,533,533,533,533,533,533,533,533,533,533,533,533,533,533,533,533,533,533,533,533,533,533,533,533,533,533,533,533,533,533,533,533,533,533,533,533,533,533,533,533,533,533,533,533,533,533,533,533,533,533,533,533,533,533,533,533,533,533,533,533,533,533,533,533,533,533,533,533,533,533,533,533,533,533,533,533,533,533,533,533,533,533,533,533,533,533,533,533,533,533,533,533,533,533,533,533,533,533,533,533,533,533,533,533,533,533,533,533,533,533,533,533,533,533,533,533,533,533,533,533,532,526,508,497,480,391,344,310,253,196,122,104,90,87,85,79,74,71,69,69,69,73,74,76,76,77,72],"timestamp_mouse":[11,40,52,71,91,112,133,152,172,191,212,231,251,272,292,312,333,352,372,392,411,433,452,471,492,512,532,552,571,591,612,632,652,672,691,712,732,752,771,793,812,831,853,871,892,911,932,953,972,992,1012,1031,1053,1073,1091,1111,1131,1151,1171,1193,1211,1231,1251,1271,1292,1311,1332,1352,1372,1393,1413,1431,1452,1473,1492,1512,1531,1552,1572,1591,1611,1633,1651,1671,1691,1713,1731,1753,1772,1791,1813,1832,1851,1872,1891,1913,1932,1951,1971,1992,2011,2032,2053,2072,2091,2112,2132,2151,2172,2193,2212,2232,2251,2273,2291,2313,2332,2351,2371,2392,2411,2432,2453,2471,2491,2511,2532,2552,2571,2591,2613,2633,2653,2672,2693,2711,2732,2752,2773,2792,2812,2832,2853,2871,2892,2913,2931,2952,2972,2992,3012,3033,3052,3071,3093,3111,3133,3151,3171,3192,3212,3232,3253,3272,3291,3312,3332,3351,3371,3391,3413,3431,3452,3473,3491,3512,3532,3552,3572,3591,3612,3633,3652,3673,3693,3712,3732,3752,3772,3792,3811,3832,3851,3871,3892,3911,3933,3952,3972,3991,4012,4032,4051,4072,4091,4113,4133,4151,4172,4193,4211,4233,4252,4271,4292,4312,4332,4351,4371,4391,4413,4433,4451,4471,4492,4511,4532,4553,4572,4591,4611,4631,4652,4671,4692,4712,4732,4752,4772,4791,4811,4831,4852,4872,4891,4912,4931,4951,4972,4991,5012,5032,5053,5071,5091,5112],"xSR":741.5,"ySR":469.95,"xT1":424.9,"yT1":0,"xT2":1058.1,"yT2":0,"toosoon":0,"cond_shown":"randomdotsizeEA","ratio_trial":250,"smaller_num":"3","larger_num":"12","correct_side":2,"subjID":"CamilaLopez22","gender":"1","age":"11","school":"6"},{"start_time":1551900418756,"click_time":1551900419789,"finger_time":1551900419549,"fix_duration":644.2215017216758,"trial":35,"RT":793,"MT":240,"sideResp":1,"stimulus":"img/900/equaldotsize/L/1_Ratio_900_L_10_R_9.png","xmouse":[781,781,781,781,781,781,781,781,781,781,781,781,781,781,781,781,781,781,781,781,781,781,781,781,781,781,781,781,781,781,781,781,781,781,781,781,778,774,763,734,708,697,665,643,612,598,585,575,566,535,528,512],"ymouse":[512,512,512,512,512,512,512,512,512,512,512,512,512,512,512,512,512,512,512,512,512,512,512,512,512,512,512,512,512,512,512,512,512,512,512,512,507,498,480,419,356,333,266,229,176,150,124,102,84,42,33,14],"timestamp_mouse":[13,34,54,73,94,113,133,154,173,195,213,234,253,275,295,315,333,354,373,393,415,435,454,473,493,513,534,554,574,593,614,634,655,675,695,713,733,753,774,793,814,833,853,874,894,914,934,954,973,993,1013,1033],"xSR":741.5,"ySR":469.95,"xT1":424.9,"yT1":0,"xT2":1058.1,"yT2":0,"toosoon":0,"cond_shown":"equaldotsize","ratio_trial":900,"smaller_num":"9","larger_num":"10","correct_side":1,"subjID":"CamilaLopez22","gender":"1","age":"11","school":"6"},{"start_time":1551900421026,"click_time":1551900421949,"finger_time":1551900421610,"fix_duration":535.0552774807225,"trial":36,"RT":584,"MT":339,"sideResp":1,"stimulus":"img/250/equaldotanddens/L/15_Ratio_250_L_12_R_3.png","xmouse":[814,814,814,814,814,814,814,814,814,814,814,814,814,814,814,814,814,814,814,814,814,814,814,814,814,814,813,804,791,763,747,708,678,646,619,604,589,585,582,579,577,569,564,557,550,541,522],"ymouse":[540,540,540,540,540,540,540,540,540,540,540,540,540,540,540,540,540,540,540,540,540,540,540,540,540,540,540,530,508,459,423,346,299,255,217,190,157,144,131,124,120,105,100,92,87,82,74],"timestamp_mouse":[5,37,44,63,84,104,124,144,163,184,203,224,245,263,283,303,324,345,365,383,405,425,444,464,483,504,523,545,563,584,603,623,643,664,683,704,723,743,763,784,804,824,844,863,884,904,923],"xSR":741.5,"ySR":469.95,"xT1":424.9,"yT1":0,"xT2":1058.1,"yT2":0,"toosoon":0,"cond_shown":"equaldotanddens","ratio_trial":250,"smaller_num":"3","larger_num":"12","correct_side":1,"subjID":"CamilaLopez22","gender":"1","age":"11","school":"6"},{"start_time":1551900424024,"click_time":1551900425230,"finger_time":1551900424610,"fix_duration":1251.8641746253354,"trial":37,"RT":586,"MT":620,"sideResp":2,"stimulus":"img/900/equaldotsize/L/2_Ratio_900_L_20_R_18.png","xmouse":[781,781,781,781,781,781,781,781,781,781,781,781,781,781,781,781,781,781,781,781,781,781,781,781,781,781,781,789,816,868,920,954,964,970,973,977,996,1005,1012,1020,1023,1028,1032,1036,1039,1041,1046,1048,1053,1055,1058,1060,1061,1062,1063,1064,1067,1069,1071,1071,1072],"ymouse":[529,529,529,529,529,529,529,529,529,529,529,529,529,529,529,529,529,529,529,529,529,529,529,529,529,529,529,530,518,490,457,393,364,341,322,300,254,234,217,197,190,171,159,152,147,143,137,133,127,124,121,117,115,113,112,109,105,102,100,100,98],"timestamp_mouse":[11,37,46,67,85,106,126,145,166,186,205,225,246,266,286,306,326,345,366,386,407,425,447,465,486,506,525,547,565,586,605,626,647,666,685,707,725,747,765,785,805,825,846,866,886,906,925,945,965,986,1006,1026,1046,1066,1086,1106,1125,1145,1166,1187,1206],"xSR":741.5,"ySR":469.95,"xT1":424.9,"yT1":0,"xT2":1058.1,"yT2":0,"toosoon":0,"cond_shown":"equaldotsize","ratio_trial":900,"smaller_num":"18","larger_num":"20","correct_side":1,"subjID":"CamilaLopez22","gender":"1","age":"11","school":"6"},{"start_time":1551900426915,"click_time":1551900435350,"finger_time":1551900434629,"fix_duration":965.9115966766598,"trial":38,"RT":7714,"MT":721,"sideResp":2,"stimulus":"img/750/equaldotanddens/R/12_Ratio_750_L_3_R_4.png","xmouse":[831,831,830,827,827,827,824,820,817,815,815,815,815,815,815,815,815,815,815,815,815,815,815,815,815,815,815,815,815,815,815,815,815,815,815,815,815,815,815,815,815,815,815,815,815,815,815,815,815,815,815,815,815,815,815,815,815,815,815,815,815,815,815,815,815,815,815,815,815,815,815,815,815,815,815,815,815,815,815,815,815,815,815,815,815,815,815,815,815,815,815,815,815,815,815,815,815,815,815,815,815,815,815,815,815,815,815,815,815,815,815,815,815,815,815,815,815,815,815,815,815,815,815,815,815,815,815,815,815,815,815,815,815,815,815,815,815,815,815,815,815,815,815,815,815,815,815,815,815,815,815,815,815,815,815,815,815,815,815,815,815,815,815,815,815,815,815,815,815,815,815,815,815,815,815,815,815,815,815,815,815,815,815,815,815,815,815,815,815,815,815,815,815,815,815,815,815,815,815,815,815,815,815,815,815,815,815,815,815,815,815,815,815,815,815,815,815,815,815,815,815,815,815,815,815,815,815,815,815,815,815,815,815,815,815,815,815,815,815,815,815,815,815,815,815,815,815,815,815,815,815,815,815,815,815,815,815,815,815,815,815,815,815,815,815,815,815,815,815,815,815,815,815,815,815,815,815,815,815,815,815,815,815,815,815,815,815,815,815,815,815,815,815,815,815,815,815,815,815,815,815,815,815,815,815,815,815,815,815,815,815,815,815,815,815,815,815,815,815,815,815,815,815,815,815,815,815,815,815,815,815,815,815,815,815,815,815,815,815,815,815,815,815,815,815,815,815,815,815,815,815,815,815,815,815,815,815,815,815,815,815,815,815,815,815,815,815,815,815,815,815,815,815,815,815,815,815,815,815,815,815,815,815,815,830,972,1254,1355,1431,1452,1452,1441,1437,1464,1515,1562,1570,1570,1570,1570,1570,1570,1570,1570,1570,1570,1570,1570,1570,1570,1570,1570,1570,1570,1570,1570,1570,1570,1166,1166,1164,1153],"ymouse":[505,505,507,508,508,508,509,509,509,509,509,509,509,509,509,509,509,509,509,509,509,509,509,509,509,509,509,509,509,509,509,509,509,509,509,509,509,509,509,509,509,509,509,509,509,509,509,509,509,509,509,509,509,509,509,509,509,509,509,509,509,509,509,509,509,509,509,509,509,509,509,509,509,509,509,509,509,509,509,509,509,509,509,509,509,509,509,509,509,509,509,509,509,509,509,509,509,509,509,509,509,509,509,509,509,509,509,509,509,509,509,509,509,509,509,509,509,509,509,509,509,509,509,509,509,509,509,509,509,509,509,509,509,509,509,509,509,509,509,509,509,509,509,509,509,509,509,509,509,509,509,509,509,509,509,509,509,509,509,509,509,509,509,509,509,509,509,509,509,509,509,509,509,509,509,509,509,509,509,509,509,509,509,509,509,509,509,509,509,509,509,509,509,509,509,509,509,509,509,509,509,509,509,509,509,509,509,509,509,509,509,509,509,509,509,509,509,509,509,509,509,509,509,509,509,509,509,509,509,509,509,509,509,509,509,509,509,509,509,509,509,509,509,509,509,509,509,509,509,509,509,509,509,509,509,509,509,509,509,509,509,509,509,509,509,509,509,509,509,509,509,509,509,509,509,509,509,509,509,509,509,509,509,509,509,509,509,509,509,509,509,509,509,509,509,509,509,509,509,509,509,509,509,509,509,509,509,509,509,509,509,509,509,509,509,509,509,509,509,509,509,509,509,509,509,509,509,509,509,509,509,509,509,509,509,509,509,509,509,509,509,509,509,509,509,509,509,509,509,509,509,509,509,509,509,509,509,509,509,509,509,509,509,509,509,509,509,509,509,509,509,509,509,509,509,509,509,509,509,509,509,509,509,509,486,406,333,333,344,348,348,341,322,267,203,140,21,21,21,21,21,21,21,21,21,21,21,21,21,21,21,21,21,21,21,21,21,21,6,11,15,34],"timestamp_mouse":[23,41,56,75,96,114,134,155,176,195,216,235,255,275,294,315,335,355,374,394,416,435,454,474,495,515,535,555,574,596,616,634,655,674,696,714,735,755,774,796,815,835,854,876,896,915,934,954,975,996,1014,1034,1055,1076,1094,1115,1134,1155,1174,1195,1214,1236,1254,1274,1295,1314,1335,1354,1374,1395,1416,1434,1455,1474,1496,1515,1534,1556,1575,1594,1615,1635,1654,1675,1694,1714,1734,1754,1775,1795,1816,1836,1854,1875,1896,1915,1934,1955,1975,1994,2014,2035,2054,2075,2094,2114,2134,2154,2174,2196,2214,2235,2256,2276,2295,2314,2336,2354,2374,2396,2414,2436,2454,2475,2494,2514,2534,2555,2575,2595,2616,2634,2656,2675,2694,2715,2734,2756,2774,2794,2815,2836,2855,2875,2895,2914,2935,2955,2975,2995,3015,3034,3055,3074,3096,3115,3135,3155,3175,3195,3215,3234,3255,3274,3296,3315,3334,3356,3374,3394,3416,3434,3455,3474,3496,3515,3535,3554,3574,3594,3616,3634,3656,3674,3694,3715,3734,3754,3776,3796,3814,3845,3856,3874,3894,3914,3934,3954,3974,3995,4014,4035,4054,4074,4094,4115,4134,4155,4174,4194,4214,4234,4254,4274,4294,4316,4334,4355,4375,4394,4414,4435,4454,4476,4494,4514,4534,4554,4576,4594,4615,4634,4655,4674,4696,4714,4734,4754,4776,4795,4815,4834,4854,4876,4894,4914,4936,4956,4975,4996,5014,5034,5055,5074,5095,5114,5135,5154,5174,5195,5215,5234,5254,5274,5295,5315,5334,5356,5374,5395,5415,5434,5454,5474,5494,5516,5534,5555,5575,5595,5615,5634,5654,5675,5694,5715,5735,5756,5776,5795,5814,5836,5854,5875,5896,5914,5935,5954,5975,5994,6014,6036,6054,6075,6094,6116,6134,6154,6174,6194,6215,6235,6255,6274,6294,6316,6334,6355,6374,6396,6414,6435,6455,6475,6494,6515,6534,6555,6574,6595,6615,6634,6655,6675,6694,6715,6734,6754,6775,6795,6814,6835,6854,6874,6895,6915,6935,6954,6976,6994,7014,7035,7055,7075,7096,7114,7135,7154,7175,7195,7214,7235,7254,7275,7294,7315,7334,7354,7376,7394,7416,7434,7454,7476,7495,7515,7535,7555,7575,7594,7614,7635,7654,7674,7695,7714,7735,7754,7775,7794,7814,7834,7856,7874,7894,7914,7934,7957,7975,7995,8014,8034,8055,8075,8095,8115,8135,8155,8175,8196,8215,8236,8255,8275,8296,8315,8335,8354,8376,8395,8415,8435],"xSR":741.5,"ySR":469.95,"xT1":424.9,"yT1":0,"xT2":1058.1,"yT2":0,"toosoon":0,"cond_shown":"equaldotanddens","ratio_trial":750,"smaller_num":"3","larger_num":"4","correct_side":2,"subjID":"CamilaLopez22","gender":"1","age":"11","school":"6"},{"start_time":1551900437208,"click_time":1551900438369,"finger_time":1551900437469,"fix_duration":1016.4298759986826,"trial":39,"RT":261,"MT":900,"sideResp":2,"stimulus":"img/250/equaldotanddens/R/8_Ratio_250_L_1_R_4.png","xmouse":[792,792,792,802,805,806,807,808,808,808,808,808,803,793,781,766,753,731,723,714,709,708,707,711,713,713,711,705,702,701,701,699,678,670,669,669,689,833,966,1035,1084,1116,1153,1172,1191,1205,1215,1224,1224,1224,1224,1218,1203,1192,1183,1175,1170,1162,1156],"ymouse":[513,513,511,502,500,499,497,495,494,493,492,490,476,462,446,426,405,366,346,320,303,286,246,219,194,177,170,161,157,156,156,155,146,142,141,141,144,154,154,153,146,138,123,116,109,105,102,97,97,97,96,90,80,74,68,64,61,57,54],"timestamp_mouse":[8,21,42,61,83,102,122,142,161,182,203,222,241,261,283,302,322,341,361,381,402,422,441,462,482,502,522,541,562,582,602,622,643,662,683,702,721,741,762,782,802,821,843,861,882,902,922,943,962,982,1001,1021,1041,1062,1083,1103,1123,1141,1161],"xSR":741.5,"ySR":469.95,"xT1":424.9,"yT1":0,"xT2":1058.1,"yT2":0,"toosoon":0,"cond_shown":"equaldotanddens","ratio_trial":250,"smaller_num":"1","larger_num":"4","correct_side":2,"subjID":"CamilaLopez22","gender":"1","age":"11","school":"6"},{"start_time":1551900439944,"click_time":1551900440890,"finger_time":1551900440349,"fix_duration":410.7807239480671,"trial":40,"RT":405,"MT":541,"sideResp":1,"stimulus":"img/750/equaldotanddens/L/10_Ratio_750_L_4_R_3.png","xmouse":[781,781,781,781,781,780,779,777,777,777,777,777,777,777,777,777,777,774,769,764,753,747,742,730,724,715,710,705,703,699,695,691,689,678,668,643,628,601,569,549,531,529,529,529,529,528,526,523],"ymouse":[511,511,511,511,511,511,511,511,511,511,511,511,511,511,511,511,511,505,490,472,434,412,393,367,350,306,274,243,221,207,197,193,191,182,175,162,156,142,124,111,97,96,96,96,96,96,94,92],"timestamp_mouse":[6,37,46,66,86,107,125,146,166,186,205,226,245,265,286,306,325,345,366,386,405,426,445,466,486,506,526,545,566,587,605,625,645,666,685,706,725,746,766,786,806,825,846,865,886,905,926,946],"xSR":741.5,"ySR":469.95,"xT1":424.9,"yT1":0,"xT2":1058.1,"yT2":0,"toosoon":0,"cond_shown":"equaldotanddens","ratio_trial":750,"smaller_num":"3","larger_num":"4","correct_side":1,"subjID":"CamilaLopez22","gender":"1","age":"11","school":"6"},{"start_time":1551900442063,"click_time":1551900442910,"finger_time":1551900442411,"fix_duration":472.03959240046277,"trial":41,"RT":348,"MT":499,"sideResp":1,"stimulus":"img/250/randomdotsizeEA/L/5_Ratio_250_L_24_R_6.png","xmouse":[794,794,794,794,794,794,794,794,794,794,794,794,794,794,795,792,787,775,770,759,748,736,722,711,694,692,687,675,666,645,630,613,599,588,571,565,562,555,549,536,532,526,521],"ymouse":[516,516,516,516,516,516,516,516,516,516,516,516,516,516,512,505,494,468,457,436,418,395,371,351,310,304,288,259,238,203,182,158,138,122,101,95,93,89,87,85,83,80,74],"timestamp_mouse":[11,30,47,67,87,106,126,148,166,187,207,226,247,266,286,307,326,348,367,387,407,426,446,466,487,508,527,546,567,587,608,627,647,667,686,706,726,747,766,786,806,827,847],"xSR":741.5,"ySR":469.95,"xT1":424.9,"yT1":0,"xT2":1058.1,"yT2":0,"toosoon":0,"cond_shown":"randomdotsizeEA","ratio_trial":250,"smaller_num":"6","larger_num":"24","correct_side":1,"subjID":"CamilaLopez22","gender":"1","age":"11","school":"6"},{"start_time":1551900443986,"click_time":1551900498611,"finger_time":1551900444910,"fix_duration":333.0225671552495,"trial":42,"RT":924,"MT":53701,"sideResp":1,"stimulus":"img/750/equaldotsize/L/14_Ratio_750_L_8_R_6.png","xmouse":[814,814,814,814,814,814,814,814,814,814,814,814,814,814,814,814,814,814,814,814,814,814,814,814,814,814,815,815,815,815,815,815,815,815,815,815,815,815,815,815,815,815,815,816,821,838,856,877,897,899,899,899,899,899,899,899,899,899,899,899,899,899,899,899,899,899,899,899,899,899,899,899,899,899,899,899,899,899,899,899,899,899,899,899,899,899,899,899,899,899,899,899,899,899,899,899,899,899,899,899,899,899,899,899,899,899,899,899,899,899,899,899,899,899,899,899,899,899,899,899,899,899,899,899,899,899,899,899,899,899,899,899,899,899,899,899,899,899,899,899,899,899,899,899,899,899,899,899,899,899,899,899,899,899,899,899,899,899,899,899,899,899,899,899,899,899,899,899,899,899,899,899,899,899,899,899,899,899,899,899,899,899,899,899,899,899,899,899,899,899,899,899,899,899,899,899,899,899,899,899,899,899,899,899,899,899,899,899,899,899,899,899,899,899,899,899,899,899,899,899,899,899,899,899,899,899,899,899,899,899,899,899,899,899,899,899,899,899,899,899,899,899,899,899,899,899,899,899,899,899,899,899,899,899,899,899,899,899,899,899,899,899,899,899,899,899,899,899,899,899,899,899,899,899,899,899,899,899,899,899,899,899,899,899,899,899,899,899,899,899,899,899,899,899,899,899,899,899,899,899,899,899,899,899,899,899,899,899,899,899,899,899,899,899,899,899,899,899,899,899,899,899,899,899,899,899,899,899,899,899,899,899,899,899,899,899,899,899,899,899,899,899,899,899,899,899,899,899,899,899,899,899,899,899,899,899,899,899,899,899,899,899,899,899,899,899,899,899,899,899,899,899,899,899,899,899,899,899,899,899,899,899,899,899,899,899,899,899,899,899,899,899,899,899,899,899,899,899,899,899,899,899,899,899,899,899,899,899,899,899,899,899,899,899,899,899,899,899,899,899,899,899,899,899,899,899,899,899,899,899,899,899,899,899,899,899,899,899,899,899,899,899,899,899,899,899,899,899,899,899,899,899,899,899,899,899,899,899,899,899,899,899,899,899,899,899,899,899,899,899,899,899,899,899,899,899,899,899,899,899,899,899,899,899,899,899,899,899,899,899,899,899,899,899,899,899,899,899,899,899,899,899,899,899,899,899,899,899,899,899,899,899,899,899,899,899,899,899,899,899,899,899,899,899,899,899,899,899,899,899,899,899,899,899,899,899,899,899,899,899,899,899,899,899,899,899,899,899,899,899,899,899,899,899,899,899,899,899,899,899,899,899,899,899,899,899,899,899,899,899,899,899,899,899,899,899,899,899,899,899,899,899,899,899,899,899,899,899,899,899,899,899,899,899,899,899,899,899,899,899,899,899,899,899,899,899,899,899,899,899,899,899,899,899,899,899,899,899,899,899,899,899,899,899,899,899,899,899,899,899,899,899,899,899,899,899,899,899,899,899,899,899,899,899,899,899,899,899,899,899,899,899,899,899,899,899,899,899,899,899,899,899,899,899,899,899,899,899,899,899,899,899,899,899,899,899,899,899,899,899,899,899,899,899,899,899,899,899,899,899,899,899,899,899,899,899,899,899,899,899,899,899,899,899,899,899,899,899,899,899,899,899,899,899,899,899,899,899,899,899,899,899,899,899,899,899,899,899,899,899,899,899,899,899,899,899,899,899,899,899,899,899,899,899,899,899,899,899,899,899,899,899,899,899,899,899,899,899,899,899,899,899,899,899,899,899,899,899,899,899,899,899,899,899,899,899,899,899,899,899,899,899,899,899,899,899,899,899,899,899,899,899,899,899,899,899,899,899,899,899,899,899,899,899,899,899,899,899,899,899,899,899,899,899,899,899,899,899,899,899,899,899,899,899,899,899,899,899,899,899,899,899,899,899,899,899,899,899,899,899,899,899,899,899,899,899,899,899,899,899,899,899,899,899,899,899,899,899,899,899,899,899,899,899,899,899,899,899,899,899,899,899,899,899,899,899,899,899,899,899,899,899,899,899,899,899,899,899,899,899,899,899,899,899,899,899,899,899,899,899,899,899,899,899,899,899,899,899,899,899,899,899,899,899,899,899,899,899,899,899,899,899,899,899,899,899,899,899,899,899,899,899,899,899,899,899,899,899,899,899,899,899,899,899,899,899,899,899,899,899,899,899,899,899,899,899,899,899,899,899,899,899,899,899,899,899,899,899,899,899,899,899,899,899,899,899,899,899,899,899,899,899,899,899,899,899,899,899,899,899,899,899,899,899,899,899,899,899,899,899,899,899,899,899,899,899,899,899,899,899,899,899,899,899,899,899,899,899,899,899,899,899,899,899,899,899,899,899,899,899,899,899,899,899,899,899,899,899,899,899,899,899,899,899,899,899,899,899,899,899,899,899,899,899,899,899,899,899,899,899,899,899,899,899,899,899,899,899,899,899,899,899,899,899,899,899,899,899,899,899,899,899,899,899,899,899,899,899,899,899,899,899,899,899,899,899,899,899,899,899,899,899,899,899,899,899,899,899,899,899,899,899,899,899,899,899,899,899,899,899,899,899,899,899,899,899,899,899,899,899,899,899,899,899,899,899,899,899,899,899,899,899,899,899,899,899,899,899,899,899,899,899,899,899,899,899,899,899,899,899,899,899,899,899,899,899,899,899,899,899,899,899,899,899,899,899,899,899,899,899,899,899,899,899,899,899,899,899,899,899,899,899,899,899,899,899,899,899,899,899,899,899,899,899,899,899,899,899,899,899,899,899,899,899,899,899,899,899,899,899,899,899,899,899,899,899,899,899,899,899,899,899,899,899,899,899,899,899,899,899,899,899,899,899,899,899,899,899,899,899,899,899,899,899,899,899,899,899,899,899,899,899,899,899,899,899,899,899,899,899,899,899,899,899,899,899,899,899,899,899,899,899,899,899,899,899,899,899,899,899,899,899,899,899,899,899,899,899,899,899,899,899,899,899,899,899,899,899,899,899,899,899,899,899,899,899,899,899,899,899,899,899,899,899,899,899,899,899,899,899,899,899,899,899,899,899,899,899,899,899,899,899,899,899,899,899,899,899,899,899,899,899,899,899,899,899,899,899,899,899,899,899,899,899,899,899,899,899,899,899,899,899,899,899,899,899,899,899,899,899,899,899,899,899,899,899,899,899,899,899,899,899,899,899,899,899,899,899,899,899,899,899,899,899,899,899,899,899,899,899,899,899,899,899,899,899,899,899,899,899,899,899,899,899,899,899,899,899,899,899,899,899,899,899,899,899,899,899,899,899,899,899,899,899,899,899,899,899,899,899,899,899,899,899,899,899,899,899,899,899,899,899,899,899,899,899,899,899,899,899,899,899,899,899,899,899,899,899,899,899,899,899,899,899,899,899,899,899,899,899,899,899,899,899,899,899,899,899,899,899,899,899,899,899,899,899,899,899,899,899,899,899,899,899,899,899,899,899,899,899,899,899,899,899,899,899,899,899,899,899,899,899,899,899,899,899,899,899,899,899,899,899,899,899,899,899,899,899,899,899,899,899,899,899,899,899,899,899,899,899,899,899,899,899,899,899,899,899,899,899,899,899,899,899,899,899,899,899,899,899,899,899,899,899,899,899,899,899,899,899,899,899,899,899,899,899,899,899,899,899,899,899,899,899,899,899,899,899,899,899,899,899,899,899,899,899,899,899,899,899,899,899,899,899,899,899,899,899,899,899,899,899,899,899,899,899,899,899,899,899,899,899,899,899,899,899,899,899,899,899,899,899,899,899,899,899,899,899,899,899,899,899,899,899,899,899,899,899,899,899,899,899,899,899,899,899,899,899,899,899,899,899,899,899,899,899,899,899,899,899,899,899,899,899,899,899,899,899,899,899,899,899,899,899,899,899,899,899,899,899,899,899,899,899,899,899,899,899,899,899,899,899,899,899,899,899,899,899,899,899,899,899,899,899,899,899,899,899,899,899,899,899,899,899,899,899,899,899,899,899,899,899,899,899,899,899,899,899,899,899,899,899,899,899,899,899,899,899,899,899,899,899,899,899,899,899,899,899,899,899,899,899,899,899,899,899,899,899,899,899,899,899,899,899,899,899,899,899,899,899,899,899,899,899,899,899,899,899,899,899,899,899,899,899,899,899,899,899,899,899,899,899,899,899,899,899,899,899,899,899,899,899,899,899,899,899,899,899,899,899,899,899,899,899,899,899,899,899,899,899,899,899,899,899,899,899,899,899,899,899,899,899,899,899,899,899,899,899,899,899,899,899,899,899,899,899,899,899,899,899,899,899,899,899,899,899,899,899,899,899,899,899,899,899,899,899,899,899,899,899,899,899,899,899,899,899,899,899,899,899,899,899,899,899,899,899,899,899,899,899,899,899,899,899,899,899,899,899,899,899,899,899,899,899,899,899,899,899,899,899,899,899,899,899,899,899,899,899,899,899,899,899,899,899,899,899,899,899,899,899,899,899,899,899,899,899,899,899,899,899,899,899,899,899,899,899,899,899,899,899,899,899,899,899,899,899,899,899,899,899,899,899,899,899,899,899,899,899,899,899,899,899,899,899,899,899,899,899,899,899,899,899,899,899,899,899,899,899,899,899,899,899,899,899,899,899,899,899,899,899,899,899,899,899,899,899,899,899,899,899,899,899,899,899,899,899,899,899,899,899,899,899,899,899,899,899,899,899,899,899,899,899,899,899,899,899,899,899,899,899,899,899,899,899,899,899,899,899,899,899,899,899,899,899,899,899,899,899,899,899,899,899,899,899,899,899,899,899,899,899,899,899,899,899,899,899,899,899,899,899,899,899,899,899,899,899,899,899,899,899,899,899,899,899,899,899,899,899,899,899,899,899,899,899,899,899,899,899,899,899,899,899,899,899,899,899,899,899,899,899,899,899,899,899,899,899,899,899,899,899,899,899,899,899,899,899,899,899,899,899,899,899,899,899,899,899,899,899,899,899,899,899,899,899,899,899,899,899,899,899,899,899,899,899,899,899,899,899,899,899,899,899,899,899,899,899,899,899,899,899,899,899,899,899,899,899,899,899,899,899,899,899,899,899,899,899,899,899,899,899,899,899,899,899,899,899,899,899,899,899,899,899,899,899,899,899,899,899,899,899,899,899,899,899,899,899,899,899,899,899,899,899,899,899,899,899,899,899,899,899,899,899,899,899,899,899,899,899,899,899,899,899,899,899,899,899,899,899,899,899,899,899,899,899,899,899,899,899,899,899,899,899,899,899,899,899,899,899,899,899,899,899,899,899,899,899,899,899,899,899,899,899,899,899,899,899,899,899,899,899,899,899,899,899,899,899,899,899,899,899,899,899,899,899,899,899,899,899,899,899,899,899,899,899,899,899,899,899,899,899,899,899,899,899,899,899,899,899,899,899,899,899,899,899,899,899,899,899,899,899,899,899,899,899,899,899,899,899,899,899,899,899,899,899,899,899,899,899,899,899,899,899,899,899,899,899,899,899,899,899,899,899,899,899,899,899,899,899,899,899,899,899,899,899,899,899,899,899,899,899,899,899,899,899,899,899,899,899,899,899,899,899,899,899,899,899,899,899,899,899,899,899,899,899,899,899,899,899,899,899,899,899,899,899,899,899,899,899,899,899,899,899,899,899,899,899,899,899,899,899,899,899,899,899,899,899,899,899,899,899,899,899,899,899,899,899,899,899,899,899,899,899,899,899,899,899,899,899,899,899,899,899,899,899,899,899,899,899,899,899,899,899,899,899,899,899,899,899,899,899,899,899,899,899,899,899,899,899,899,899,899,899,899,899,899,899,899,899,899,899,899,899,899,899,899,899,899,899,899,899,899,899,899,899,899,899,899,899,899,899,899,899,899,899,899,899,899,899,899,899,899,899,899,899,899,899,899,899,899,899,899,899,899,899,899,899,899,899,899,899,899,899,899,899,899,899,899,899,899,899,899,899,899,899,899,899,899,899,899,899,899,899,899,899,899,899,899,899,899,899,899,899,899,899,899,899,899,899,899,899,899,899,899,899,899,899,899,899,899,899,899,899,899,899,900,869,843,827,814,806,782,758,712,616,603,602,605,615,648,669,688,711,721,738,744,753,768,789,793,793,791,791,791,791,791,791,792,794,794,794,794,794,794,794,795,796,796,796,796,796,796,796,796,796,796,787,782,769,744,727,683,654,634,618,618,618,618,618,611,594,585,577,570,550,544,539,535,533,529,526,525,524],"ymouse":[515,515,515,515,515,515,515,515,515,515,515,515,515,515,515,515,515,515,515,515,515,515,515,515,515,512,510,508,507,507,507,507,507,507,507,507,507,507,507,507,507,507,507,507,507,505,505,505,505,505,505,505,505,505,505,505,505,505,505,505,505,505,505,505,505,505,505,505,505,505,505,505,505,505,505,505,505,505,505,505,505,505,505,505,505,505,505,505,505,505,505,505,505,505,505,505,505,505,505,505,505,505,505,505,505,505,505,505,505,505,505,505,505,505,505,505,505,505,505,505,505,505,505,505,505,505,505,505,505,505,505,505,505,505,505,505,505,505,505,505,505,505,505,505,505,505,505,505,505,505,505,505,505,505,505,505,505,505,505,505,505,505,505,505,505,505,505,505,505,505,505,505,505,505,505,505,505,505,505,505,505,505,505,505,505,505,505,505,505,505,505,505,505,505,505,505,505,505,505,505,505,505,505,505,505,505,505,505,505,505,505,505,505,505,505,505,505,505,505,505,505,505,505,505,505,505,505,505,505,505,505,505,505,505,505,505,505,505,505,505,505,505,505,505,505,505,505,505,505,505,505,505,505,505,505,505,505,505,505,505,505,505,505,505,505,505,505,505,505,505,505,505,505,505,505,505,505,505,505,505,505,505,505,505,505,505,505,505,505,505,505,505,505,505,505,505,505,505,505,505,505,505,505,505,505,505,505,505,505,505,505,505,505,505,505,505,505,505,505,505,505,505,505,505,505,505,505,505,505,505,505,505,505,505,505,505,505,505,505,505,505,505,505,505,505,505,505,505,505,505,505,505,505,505,505,505,505,505,505,505,505,505,505,505,505,505,505,505,505,505,505,505,505,505,505,505,505,505,505,505,505,505,505,505,505,505,505,505,505,505,505,505,505,505,505,505,505,505,505,505,505,505,505,505,505,505,505,505,505,505,505,505,505,505,505,505,505,505,505,505,505,505,505,505,505,505,505,505,505,505,505,505,505,505,505,505,505,505,505,505,505,505,505,505,505,505,505,505,505,505,505,505,505,505,505,505,505,505,505,505,505,505,505,505,505,505,505,505,505,505,505,505,505,505,505,505,505,505,505,505,505,505,505,505,505,505,505,505,505,505,505,505,505,505,505,505,505,505,505,505,505,505,505,505,505,505,505,505,505,505,505,505,505,505,505,505,505,505,505,505,505,505,505,505,505,505,505,505,505,505,505,505,505,505,505,505,505,505,505,505,505,505,505,505,505,505,505,505,505,505,505,505,505,505,505,505,505,505,505,505,505,505,505,505,505,505,505,505,505,505,505,505,505,505,505,505,505,505,505,505,505,505,505,505,505,505,505,505,505,505,505,505,505,505,505,505,505,505,505,505,505,505,505,505,505,505,505,505,505,505,505,505,505,505,505,505,505,505,505,505,505,505,505,505,505,505,505,505,505,505,505,505,505,505,505,505,505,505,505,505,505,505,505,505,505,505,505,505,505,505,505,505,505,505,505,505,505,505,505,505,505,505,505,505,505,505,505,505,505,505,505,505,505,505,505,505,505,505,505,505,505,505,505,505,505,505,505,505,505,505,505,505,505,505,505,505,505,505,505,505,505,505,505,505,505,505,505,505,505,505,505,505,505,505,505,505,505,505,505,505,505,505,505,505,505,505,505,505,505,505,505,505,505,505,505,505,505,505,505,505,505,505,505,505,505,505,505,505,505,505,505,505,505,505,505,505,505,505,505,505,505,505,505,505,505,505,505,505,505,505,505,505,505,505,505,505,505,505,505,505,505,505,505,505,505,505,505,505,505,505,505,505,505,505,505,505,505,505,505,505,505,505,505,505,505,505,505,505,505,505,505,505,505,505,505,505,505,505,505,505,505,505,505,505,505,505,505,505,505,505,505,505,505,505,505,505,505,505,505,505,505,505,505,505,505,505,505,505,505,505,505,505,505,505,505,505,505,505,505,505,505,505,505,505,505,505,505,505,505,505,505,505,505,505,505,505,505,505,505,505,505,505,505,505,505,505,505,505,505,505,505,505,505,505,505,505,505,505,505,505,505,505,505,505,505,505,505,505,505,505,505,505,505,505,505,505,505,505,505,505,505,505,505,505,505,505,505,505,505,505,505,505,505,505,505,505,505,505,505,505,505,505,505,505,505,505,505,505,505,505,505,505,505,505,505,505,505,505,505,505,505,505,505,505,505,505,505,505,505,505,505,505,505,505,505,505,505,505,505,505,505,505,505,505,505,505,505,505,505,505,505,505,505,505,505,505,505,505,505,505,505,505,505,505,505,505,505,505,505,505,505,505,505,505,505,505,505,505,505,505,505,505,505,505,505,505,505,505,505,505,505,505,505,505,505,505,505,505,505,505,505,505,505,505,505,505,505,505,505,505,505,505,505,505,505,505,505,505,505,505,505,505,505,505,505,505,505,505,505,505,505,505,505,505,505,505,505,505,505,505,505,505,505,505,505,505,505,505,505,505,505,505,505,505,505,505,505,505,505,505,505,505,505,505,505,505,505,505,505,505,505,505,505,505,505,505,505,505,505,505,505,505,505,505,505,505,505,505,505,505,505,505,505,505,505,505,505,505,505,505,505,505,505,505,505,505,505,505,505,505,505,505,505,505,505,505,505,505,505,505,505,505,505,505,505,505,505,505,505,505,505,505,505,505,505,505,505,505,505,505,505,505,505,505,505,505,505,505,505,505,505,505,505,505,505,505,505,505,505,505,505,505,505,505,505,505,505,505,505,505,505,505,505,505,505,505,505,505,505,505,505,505,505,505,505,505,505,505,505,505,505,505,505,505,505,505,505,505,505,505,505,505,505,505,505,505,505,505,505,505,505,505,505,505,505,505,505,505,505,505,505,505,505,505,505,505,505,505,505,505,505,505,505,505,505,505,505,505,505,505,505,505,505,505,505,505,505,505,505,505,505,505,505,505,505,505,505,505,505,505,505,505,505,505,505,505,505,505,505,505,505,505,505,505,505,505,505,505,505,505,505,505,505,505,505,505,505,505,505,505,505,505,505,505,505,505,505,505,505,505,505,505,505,505,505,505,505,505,505,505,505,505,505,505,505,505,505,505,505,505,505,505,505,505,505,505,505,505,505,505,505,505,505,505,505,505,505,505,505,505,505,505,505,505,505,505,505,505,505,505,505,505,505,505,505,505,505,505,505,505,505,505,505,505,505,505,505,505,505,505,505,505,505,505,505,505,505,505,505,505,505,505,505,505,505,505,505,505,505,505,505,505,505,505,505,505,505,505,505,505,505,505,505,505,505,505,505,505,505,505,505,505,505,505,505,505,505,505,505,505,505,505,505,505,505,505,505,505,505,505,505,505,505,505,505,505,505,505,505,505,505,505,505,505,505,505,505,505,505,505,505,505,505,505,505,505,505,505,505,505,505,505,505,505,505,505,505,505,505,505,505,505,505,505,505,505,505,505,505,505,505,505,505,505,505,505,505,505,505,505,505,505,505,505,505,505,505,505,505,505,505,505,505,505,505,505,505,505,505,505,505,505,505,505,505,505,505,505,505,505,505,505,505,505,505,505,505,505,505,505,505,505,505,505,505,505,505,505,505,505,505,505,505,505,505,505,505,505,505,505,505,505,505,505,505,505,505,505,505,505,505,505,505,505,505,505,505,505,505,505,505,505,505,505,505,505,505,505,505,505,505,505,505,505,505,505,505,505,505,505,505,505,505,505,505,505,505,505,505,505,505,505,505,505,505,505,505,505,505,505,505,505,505,505,505,505,505,505,505,505,505,505,505,505,505,505,505,505,505,505,505,505,505,505,505,505,505,505,505,505,505,505,505,505,505,505,505,505,505,505,505,505,505,505,505,505,505,505,505,505,505,505,505,505,505,505,505,505,505,505,505,505,505,505,505,505,505,505,505,505,505,505,505,505,505,505,505,505,505,505,505,505,505,505,505,505,505,505,505,505,505,505,505,505,505,505,505,505,505,505,505,505,505,505,505,505,505,505,505,505,505,505,505,505,505,505,505,505,505,505,505,505,505,505,505,505,505,505,505,505,505,505,505,505,505,505,505,505,505,505,505,505,505,505,505,505,505,505,505,505,505,505,505,505,505,505,505,505,505,505,505,505,505,505,505,505,505,505,505,505,505,505,505,505,505,505,505,505,505,505,505,505,505,505,505,505,505,505,505,505,505,505,505,505,505,505,505,505,505,505,505,505,505,505,505,505,505,505,505,505,505,505,505,505,505,505,505,505,505,505,505,505,505,505,505,505,505,505,505,505,505,505,505,505,505,505,505,505,505,505,505,505,505,505,505,505,505,505,505,505,505,505,505,505,505,505,505,505,505,505,505,505,505,505,505,505,505,505,505,505,505,505,505,505,505,505,505,505,505,505,505,505,505,505,505,505,505,505,505,505,505,505,505,505,505,505,505,505,505,505,505,505,505,505,505,505,505,505,505,505,505,505,505,505,505,505,505,505,505,505,505,505,505,505,505,505,505,505,505,505,505,505,505,505,505,505,505,505,505,505,505,505,505,505,505,505,505,505,505,505,505,505,505,505,505,505,505,505,505,505,505,505,505,505,505,505,505,505,505,505,505,505,505,505,505,505,505,505,505,505,505,505,505,505,505,505,505,505,505,505,505,505,505,505,505,505,505,505,505,505,505,505,505,505,505,505,505,505,505,505,505,505,505,505,505,505,505,505,505,505,505,505,505,505,505,505,505,505,505,505,505,505,505,505,505,505,505,505,505,505,505,505,505,505,505,505,505,505,505,505,505,505,505,505,505,505,505,505,505,505,505,505,505,505,505,505,505,505,505,505,505,505,505,505,505,505,505,505,505,505,505,505,505,505,505,505,505,505,505,505,505,505,505,505,505,505,505,505,505,505,505,505,505,505,505,505,505,505,505,505,505,505,505,505,505,505,505,505,505,505,505,505,505,505,505,505,505,505,505,505,505,505,505,505,505,505,505,505,505,505,505,505,505,505,505,505,505,505,505,505,505,505,505,505,505,505,505,505,505,505,505,505,505,505,505,505,505,505,505,505,505,505,505,505,505,505,505,505,505,505,505,505,505,505,505,505,505,505,505,505,505,505,505,505,505,505,505,505,505,505,505,505,505,505,505,505,505,505,505,505,505,505,505,505,505,505,505,505,505,505,505,505,505,505,505,505,505,505,505,505,505,505,505,505,505,505,505,505,505,505,505,505,505,505,505,505,505,505,505,505,505,505,505,505,505,505,505,505,505,505,505,505,505,505,505,505,505,505,505,505,505,505,505,505,505,505,505,505,505,505,505,505,505,505,505,505,505,505,505,505,505,505,505,505,505,505,505,505,505,505,505,505,505,505,505,505,505,505,505,505,505,505,505,505,505,505,505,505,505,505,505,505,505,505,505,505,505,505,505,505,505,505,505,505,505,505,505,505,505,505,505,505,505,505,505,505,505,505,505,505,505,505,505,505,505,505,505,505,505,505,505,505,505,505,505,505,505,505,505,505,505,505,505,505,505,505,505,505,505,505,505,505,505,505,505,505,505,505,505,505,505,505,505,505,505,505,505,505,505,505,505,505,505,505,505,505,505,505,505,505,505,505,505,505,505,505,505,505,505,505,505,505,505,505,505,505,505,505,505,505,505,505,505,505,505,505,505,505,505,505,505,505,505,505,505,505,505,505,505,505,505,505,505,505,505,505,505,505,505,505,505,505,505,505,505,505,505,505,505,505,505,505,505,505,505,505,505,505,505,505,505,505,505,505,505,505,505,505,505,505,505,505,505,505,505,505,505,505,505,505,505,505,505,505,505,505,505,505,505,505,505,505,505,505,505,505,505,505,505,505,505,505,505,505,505,505,505,505,505,505,505,505,505,505,505,505,505,505,505,505,505,505,505,505,505,505,505,505,505,505,505,505,505,505,505,505,505,505,505,505,505,505,505,505,505,505,505,505,505,505,505,505,505,505,505,505,505,505,505,505,505,505,505,505,505,505,505,505,505,505,505,505,505,505,505,505,505,505,505,505,505,505,505,505,503,389,221,115,71,65,62,62,74,127,142,157,175,192,230,256,283,314,328,348,359,373,395,426,471,490,508,509,509,509,509,511,511,511,511,511,511,511,511,511,512,513,513,513,513,515,515,516,516,516,517,509,503,485,436,384,232,129,57,9,4,1,1,1,0,11,17,23,30,45,48,51,52,53,54,56,56,56],"timestamp_mouse":[7,27,43,65,84,105,125,144,163,184,205,225,245,263,284,304,324,343,364,384,403,424,444,463,483,505,524,543,563,585,605,624,644,663,683,703,724,744,763,785,805,824,844,863,883,904,924,943,964,984,1004,1024,1043,1064,1083,1104,1124,1144,1163,1183,1205,1225,1244,1263,1283,1303,1323,1343,1364,1385,1403,1424,1444,1464,1483,1505,1524,1544,1564,1584,1605,1623,1645,1664,1684,1703,1723,1745,1764,1785,1804,1825,1843,1864,1883,1903,1923,1944,1965,1984,2003,2024,2045,2064,2083,2103,2125,2144,2163,2184,2204,2223,2244,2263,2284,2305,2324,2344,2363,2383,2404,2423,2444,2464,2483,2504,2523,2544,2565,2585,2603,2623,2643,2664,2684,2704,2724,2744,2765,2783,2804,2823,2844,2864,2884,2905,2924,2945,2964,2985,3005,3024,3044,3063,3083,3104,3125,3144,3165,3184,3203,3223,3244,3264,3283,3304,3324,3345,3363,3383,3405,3424,3444,3463,3485,3504,3523,3544,3564,3584,3605,3623,3643,3664,3684,3704,3724,3744,3764,3785,3805,3823,3843,3864,3884,3905,3924,3944,3964,3983,4003,4023,4045,4064,4083,4105,4123,4144,4163,4183,4204,4224,4245,4265,4284,4304,4324,4345,4364,4384,4404,4423,4443,4463,4483,4504,4524,4545,4565,4584,4603,4624,4645,4664,4684,4705,4724,4744,4764,4783,4803,4823,4844,4864,4884,4904,4923,4943,4963,4984,5003,5024,5044,5064,5083,5105,5124,5144,5163,5183,5203,5223,5245,5264,5283,5303,5324,5345,5363,5383,5404,5425,5444,5463,5484,5504,5524,5544,5563,5583,5604,5624,5644,5663,5683,5703,5725,5744,5764,5785,5804,5824,5843,5863,5884,5903,5923,5943,5963,5984,6003,6023,6043,6063,6084,6104,6124,6143,6163,6184,6208,6224,6243,6263,6285,6304,6324,6343,6363,6384,6404,6423,6444,6464,6484,6505,6524,6543,6564,6584,6603,6624,6643,6663,6683,6704,6724,6744,6763,6784,6804,6825,6844,6864,6883,6903,6925,6944,6964,6985,7003,7023,7044,7064,7084,7104,7124,7143,7164,7184,7203,7223,7243,7264,7285,7303,7323,7343,7365,7384,7405,7425,7444,7463,7484,7503,7523,7544,7565,7583,7603,7623,7643,7664,7685,7704,7723,7743,7764,7784,7805,7824,7844,7865,7884,7904,7923,7944,7965,7984,8004,8024,8043,8064,8083,8103,8123,8143,8164,8184,8205,8225,8244,8265,8284,8305,8324,8344,8363,8383,8403,8423,8445,8463,8484,8503,8525,8544,8564,8584,8603,8623,8644,8665,8684,8704,8724,8744,8763,8784,8805,8824,8843,8863,8885,8905,8924,8944,8964,8983,9004,9024,9045,9064,9084,9104,9124,9144,9164,9184,9205,9225,9244,9265,9284,9304,9323,9343,9365,9384,9404,9425,9445,9464,9484,9505,9524,9544,9564,9584