[{"start_time":1551881368705,"click_time":1551881370541,"finger_time":1551881369640,"fix_duration":562.2629841093241,"trial":0,"RT":935,"MT":901,"sideResp":2,"stimulus":"img/750/equaldotsize/L/14_Ratio_750_L_8_R_6.png","xmouse":[786,786,786,786,786,786,786,786,786,786,786,786,786,786,786,786,786,786,786,786,786,786,786,786,786,786,786,786,786,786,786,786,786,786,786,786,786,786,786,786,786,786,786,793,804,816,843,865,876,887,897,919,923,928,934,943,965,980,991,997,1004,1013,1025,1026,1028,1033,1048,1053,1058,1060,1061,1066,1069,1073,1076,1077,1078,1079,1079,1080,1082,1084,1086,1088,1089,1091,1092,1092,1092,1094,1094,1096],"ymouse":[549,549,549,549,549,549,549,549,549,549,549,549,549,549,549,549,549,549,549,549,549,549,549,549,549,549,549,549,549,549,549,549,549,549,549,549,549,549,549,549,549,549,549,539,525,508,464,431,414,398,385,363,359,354,347,340,315,298,284,274,262,253,243,240,234,224,199,191,183,179,175,168,163,158,153,151,147,145,143,141,139,134,130,127,123,122,119,118,117,114,112,98],"timestamp_mouse":[16,36,56,77,96,117,137,156,176,196,216,235,257,277,296,316,336,356,376,396,416,435,455,476,496,516,537,555,575,596,616,635,657,676,696,716,736,757,775,796,817,835,855,876,896,916,935,956,976,996,1016,1036,1055,1076,1096,1116,1136,1157,1175,1196,1216,1236,1255,1275,1296,1315,1336,1356,1375,1396,1416,1436,1456,1476,1496,1516,1536,1556,1575,1596,1616,1636,1656,1676,1697,1717,1736,1756,1775,1795,1816,1836],"xSR":741.5,"ySR":501.8,"xT1":424.9,"yT1":0,"xT2":1058.1,"yT2":0,"toosoon":0,"cond_shown":"equaldotsize","ratio_trial":750,"smaller_num":"6","larger_num":"8","correct_side":1,"subjID":"camilocarvajalsierra20","gender":"0","age":"11","school":"6","test":{"fix_dur":[250,1500],"timestim":300,"targets_dim":[100,100],"targets_relative_coord":[0.3,0.7],"size_stim":[880,420],"start_dim":[100,100],"size_start":[300,300],"size_fix":60,"samplingrate":20,"img_types":["equaldotsize","equaldotanddens","randomdotsizeEA"],"ratios":[250,500,750,900],"rep_conds":9,"nTrials":120,"trials_to_rest":500,"Trials_order":[102,69,111,113,112,107,1,96,109,105,46,90,83,45,114,91,62,40,2,61,82,32,34,78,117,6,76,77,80,10,98,35,58,20,101,31,119,72,89,7,36,66,23,47,51,15,71,118,88,53,94,30,19,84,67,41,25,38,39,37,97,17,115,75,55,100,79,3,106,24,103,56,33,65,48,73,44,63,22,85,42,4,95,86,13,14,50,93,99,116,9,0,52,21,70,81,16,108,87,28,29,59,57,68,104,49,110,18,60,8,27,74,26,92,12,43,64,11,5,54],"cond_shown":["equaldotsize","equaldotsize","equaldotsize","randomdotsizeEA","equaldotanddens","randomdotsizeEA","equaldotanddens","equaldotsize","equaldotanddens","equaldotsize","equaldotanddens","equaldotsize","randomdotsizeEA","equaldotsize","equaldotsize","equaldotanddens","randomdotsizeEA","equaldotanddens","randomdotsizeEA","equaldotanddens","equaldotanddens","randomdotsizeEA","equaldotanddens","equaldotsize","equaldotsize","equaldotsize","equaldotanddens","randomdotsizeEA","randomdotsizeEA","equaldotanddens","randomdotsizeEA","randomdotsizeEA","equaldotanddens","randomdotsizeEA","randomdotsizeEA","equaldotanddens","randomdotsizeEA","equaldotsize","randomdotsizeEA","equaldotanddens","equaldotsize","equaldotsize","randomdotsizeEA","randomdotsizeEA","equaldotsize","equaldotsize","randomdotsizeEA","equaldotanddens","equaldotanddens","randomdotsizeEA","equaldotanddens","equaldotsize","equaldotanddens","equaldotsize","equaldotanddens","randomdotsizeEA","equaldotanddens","randomdotsizeEA","equaldotsize","equaldotanddens","equaldotanddens","randomdotsizeEA","equaldotanddens","equaldotsize","equaldotanddens","equaldotanddens","equaldotanddens","equaldotsize","equaldotanddens","equaldotsize","equaldotanddens","randomdotsizeEA","equaldotsize","randomdotsizeEA","equaldotsize","equaldotanddens","randomdotsizeEA","equaldotsize","equaldotanddens","equaldotanddens","equaldotsize","equaldotanddens","randomdotsizeEA","randomdotsizeEA","equaldotanddens","randomdotsizeEA","randomdotsizeEA","equaldotsize","equaldotsize","randomdotsizeEA","equaldotsize","equaldotsize","equaldotanddens","equaldotsize","equaldotanddens","equaldotsize","equaldotanddens","equaldotsize","equaldotsize","equaldotanddens","randomdotsizeEA","randomdotsizeEA","equaldotsize","randomdotsizeEA","randomdotsizeEA","equaldotanddens","randomdotsizeEA","equaldotsize","equaldotsize","randomdotsizeEA","equaldotsize","randomdotsizeEA","randomdotsizeEA","randomdotsizeEA","equaldotsize","equaldotanddens","equaldotanddens","randomdotsizeEA","randomdotsizeEA","equaldotsize"],"ratio_trial":[750,900,500,500,500,900,250,250,250,900,900,750,900,900,750,750,250,500,250,250,900,750,900,750,900,750,500,500,750,900,250,900,900,750,500,750,900,250,500,750,250,750,900,900,500,500,900,900,500,500,900,750,750,250,750,500,250,250,500,250,250,500,750,500,750,500,750,500,900,250,750,750,900,500,250,250,750,500,900,250,750,500,900,250,250,250,250,900,500,750,900,250,500,900,900,900,500,250,500,500,500,900,900,750,750,250,250,750,250,750,500,250,250,750,250,750,500,900,500,750],"smaller_num":["6","18","6","2","2","18","4","3","3","9","9","3","18","18","3","3","5","9","2","3","18","3","18","15","18","12","2","6","15","9","1","9","18","12","6","9","18","3","4","3","2","3","18","18","9","5","18","18","1","3","9","3","3","2","18","6","2","6","6","1","3","1","3","2","3","9","3","1","18","1","12","3","9","10","2","6","6","9","9","4","6","9","18","1","1","5","6","9","6","6","18","3","2","18","9","9","5","6","2","3","5","18","18","9","15","4","4","3","3","6","5","1","3","6","1","18","1","9","5","9"],"larger_num":["8","20","12","4","4","20","16","12","12","10","10","4","20","20","4","4","20","18","8","12","20","4","20","20","20","16","4","12","20","10","4","10","20","16","12","12","20","12","8","4","8","4","20","20","18","10","20","20","2","6","10","4","4","8","24","12","8","24","12","4","12","2","4","4","4","18","4","2","20","4","16","4","10","20","8","24","8","18","10","16","8","18","20","4","4","20","24","10","12","8","20","12","4","20","10","10","10","24","4","6","10","20","20","12","20","16","16","4","12","8","10","4","12","8","4","24","2","10","10","12"],"correct_side":[1,2,1,1,2,2,2,2,2,2,2,2,1,2,1,2,2,1,2,1,2,1,1,1,2,2,1,1,1,2,2,1,1,2,1,2,2,1,1,1,1,2,1,1,2,2,2,2,2,2,2,1,2,1,1,1,1,1,1,2,2,2,1,2,1,1,1,2,2,2,2,1,2,2,1,1,2,2,2,1,1,2,1,2,2,2,1,2,1,1,1,2,1,1,2,2,1,2,1,2,1,1,2,2,2,2,1,2,1,2,2,2,2,2,2,1,2,2,1,2],"img_shown":["img/750/equaldotsize/L/14_Ratio_750_L_8_R_6.png","img/900/equaldotsize/R/13_Ratio_900_L_18_R_20.png","img/500/equaldotsize/L/13_Ratio_500_L_12_R_6.png","img/500/randomdotsizeEA/L/5_Ratio_500_L_4_R_2.png","img/500/equaldotanddens/R/9_Ratio_500_L_2_R_4.png","img/900/randomdotsizeEA/R/14_Ratio_900_L_18_R_20.png","img/250/equaldotanddens/R/10_Ratio_250_L_4_R_16.png","img/250/equaldotsize/R/4_Ratio_250_L_3_R_12.png","img/250/equaldotanddens/R/11_Ratio_250_L_3_R_12.png","img/900/equaldotsize/R/7_Ratio_900_L_9_R_10.png","img/900/equaldotanddens/R/5_Ratio_900_L_9_R_10.png","img/750/equaldotsize/R/12_Ratio_750_L_3_R_4.png","img/900/randomdotsizeEA/L/2_Ratio_900_L_20_R_18.png","img/900/equaldotsize/R/9_Ratio_900_L_18_R_20.png","img/750/equaldotsize/L/9_Ratio_750_L_4_R_3.png","img/750/equaldotanddens/R/7_Ratio_750_L_3_R_4.png","img/250/randomdotsizeEA/R/12_Ratio_250_L_5_R_20.png","img/500/equaldotanddens/L/4_Ratio_500_L_18_R_9.png","img/250/randomdotsizeEA/R/13_Ratio_250_L_2_R_8.png","img/250/equaldotanddens/L/14_Ratio_250_L_12_R_3.png","img/900/equaldotanddens/R/14_Ratio_900_L_18_R_20.png","img/750/randomdotsizeEA/L/8_Ratio_750_L_4_R_3.png","img/900/equaldotanddens/L/8_Ratio_900_L_20_R_18.png","img/750/equaldotsize/L/1_Ratio_750_L_20_R_15.png","img/900/equaldotsize/R/11_Ratio_900_L_18_R_20.png","img/750/equaldotsize/R/11_Ratio_750_L_12_R_16.png","img/500/equaldotanddens/L/10_Ratio_500_L_4_R_2.png","img/500/randomdotsizeEA/L/11_Ratio_500_L_12_R_6.png","img/750/randomdotsizeEA/L/1_Ratio_750_L_20_R_15.png","img/900/equaldotanddens/R/6_Ratio_900_L_9_R_10.png","img/250/randomdotsizeEA/R/8_Ratio_250_L_1_R_4.png","img/900/randomdotsizeEA/L/1_Ratio_900_L_10_R_9.png","img/900/equaldotanddens/L/8_Ratio_900_L_20_R_18.png","img/750/randomdotsizeEA/R/11_Ratio_750_L_12_R_16.png","img/500/randomdotsizeEA/L/11_Ratio_500_L_12_R_6.png","img/750/equaldotanddens/R/15_Ratio_750_L_9_R_12.png","img/900/randomdotsizeEA/R/14_Ratio_900_L_18_R_20.png","img/250/equaldotsize/L/15_Ratio_250_L_12_R_3.png","img/500/randomdotsizeEA/L/8_Ratio_500_L_8_R_4.png","img/750/equaldotanddens/L/10_Ratio_750_L_4_R_3.png","img/250/equaldotsize/L/1_Ratio_250_L_8_R_2.png","img/750/equaldotsize/R/7_Ratio_750_L_3_R_4.png","img/900/randomdotsizeEA/L/10_Ratio_900_L_20_R_18.png","img/900/randomdotsizeEA/L/8_Ratio_900_L_20_R_18.png","img/500/equaldotsize/R/6_Ratio_500_L_9_R_18.png","img/500/equaldotsize/R/14_Ratio_500_L_5_R_10.png","img/900/randomdotsizeEA/R/12_Ratio_900_L_18_R_20.png","img/900/equaldotanddens/R/11_Ratio_900_L_18_R_20.png","img/500/equaldotanddens/R/15_Ratio_500_L_1_R_2.png","img/500/randomdotsizeEA/R/2_Ratio_500_L_3_R_6.png","img/900/equaldotanddens/R/7_Ratio_900_L_9_R_10.png","img/750/equaldotsize/L/8_Ratio_750_L_4_R_3.png","img/750/equaldotanddens/R/12_Ratio_750_L_3_R_4.png","img/250/equaldotsize/L/1_Ratio_250_L_8_R_2.png","img/750/equaldotanddens/L/6_Ratio_750_L_24_R_18.png","img/500/randomdotsizeEA/L/13_Ratio_500_L_12_R_6.png","img/250/equaldotanddens/L/7_Ratio_250_L_8_R_2.png","img/250/randomdotsizeEA/L/5_Ratio_250_L_24_R_6.png","img/500/equaldotsize/L/11_Ratio_500_L_12_R_6.png","img/250/equaldotanddens/R/8_Ratio_250_L_1_R_4.png","img/250/equaldotanddens/R/9_Ratio_250_L_3_R_12.png","img/500/randomdotsizeEA/R/12_Ratio_500_L_1_R_2.png","img/750/equaldotanddens/L/8_Ratio_750_L_4_R_3.png","img/500/equaldotsize/R/9_Ratio_500_L_2_R_4.png","img/750/equaldotanddens/L/10_Ratio_750_L_4_R_3.png","img/500/equaldotanddens/L/4_Ratio_500_L_18_R_9.png","img/750/equaldotanddens/L/9_Ratio_750_L_4_R_3.png","img/500/equaldotsize/R/15_Ratio_500_L_1_R_2.png","img/900/equaldotanddens/R/12_Ratio_900_L_18_R_20.png","img/250/equaldotsize/R/8_Ratio_250_L_1_R_4.png","img/750/equaldotanddens/R/11_Ratio_750_L_12_R_16.png","img/750/randomdotsizeEA/L/8_Ratio_750_L_4_R_3.png","img/900/equaldotsize/R/3_Ratio_900_L_9_R_10.png","img/500/randomdotsizeEA/R/3_Ratio_500_L_10_R_20.png","img/250/equaldotsize/L/1_Ratio_250_L_8_R_2.png","img/250/equaldotanddens/L/5_Ratio_250_L_24_R_6.png","img/750/randomdotsizeEA/R/2_Ratio_750_L_6_R_8.png","img/500/equaldotsize/R/1_Ratio_500_L_9_R_18.png","img/900/equaldotanddens/R/7_Ratio_900_L_9_R_10.png","img/250/equaldotanddens/L/2_Ratio_250_L_16_R_4.png","img/750/equaldotsize/L/14_Ratio_750_L_8_R_6.png","img/500/equaldotanddens/R/6_Ratio_500_L_9_R_18.png","img/900/randomdotsizeEA/L/10_Ratio_900_L_20_R_18.png","img/250/randomdotsizeEA/R/8_Ratio_250_L_1_R_4.png","img/250/equaldotanddens/R/8_Ratio_250_L_1_R_4.png","img/250/randomdotsizeEA/R/12_Ratio_250_L_5_R_20.png","img/250/randomdotsizeEA/L/5_Ratio_250_L_24_R_6.png","img/900/equaldotsize/R/15_Ratio_900_L_9_R_10.png","img/500/equaldotsize/L/11_Ratio_500_L_12_R_6.png","img/750/randomdotsizeEA/L/13_Ratio_750_L_8_R_6.png","img/900/equaldotsize/L/4_Ratio_900_L_20_R_18.png","img/250/equaldotsize/R/11_Ratio_250_L_3_R_12.png","img/500/equaldotanddens/L/10_Ratio_500_L_4_R_2.png","img/900/equaldotsize/L/8_Ratio_900_L_20_R_18.png","img/900/equaldotanddens/R/3_Ratio_900_L_9_R_10.png","img/900/equaldotsize/R/6_Ratio_900_L_9_R_10.png","img/500/equaldotanddens/L/7_Ratio_500_L_10_R_5.png","img/250/equaldotsize/R/6_Ratio_250_L_6_R_24.png","img/500/equaldotsize/L/10_Ratio_500_L_4_R_2.png","img/500/equaldotanddens/R/2_Ratio_500_L_3_R_6.png","img/500/randomdotsizeEA/L/7_Ratio_500_L_10_R_5.png","img/900/randomdotsizeEA/L/8_Ratio_900_L_20_R_18.png","img/900/equaldotsize/R/11_Ratio_900_L_18_R_20.png","img/750/randomdotsizeEA/R/15_Ratio_750_L_9_R_12.png","img/750/randomdotsizeEA/R/5_Ratio_750_L_15_R_20.png","img/250/equaldotanddens/R/10_Ratio_250_L_4_R_16.png","img/250/randomdotsizeEA/L/2_Ratio_250_L_16_R_4.png","img/750/equaldotsize/R/12_Ratio_750_L_3_R_4.png","img/250/equaldotsize/L/15_Ratio_250_L_12_R_3.png","img/750/randomdotsizeEA/R/2_Ratio_750_L_6_R_8.png","img/500/equaldotsize/R/14_Ratio_500_L_5_R_10.png","img/250/randomdotsizeEA/R/8_Ratio_250_L_1_R_4.png","img/250/randomdotsizeEA/R/4_Ratio_250_L_3_R_12.png","img/750/randomdotsizeEA/R/2_Ratio_750_L_6_R_8.png","img/250/equaldotsize/R/8_Ratio_250_L_1_R_4.png","img/750/equaldotanddens/L/6_Ratio_750_L_24_R_18.png","img/500/equaldotanddens/R/12_Ratio_500_L_1_R_2.png","img/900/randomdotsizeEA/R/6_Ratio_900_L_9_R_10.png","img/500/randomdotsizeEA/L/7_Ratio_500_L_10_R_5.png","img/750/equaldotsize/R/15_Ratio_750_L_9_R_12.png"],"Rat0":[["12_Ratio_0_L_9_R_0.png","13_Ratio_0_L_6_R_0.png","5_Ratio_0_L_2_R_0.png","6_Ratio_0_L_4_R_0.png","8_Ratio_0_L_6_R_0.png"],["1_Ratio_0_L_0_R_17.png","10_Ratio_0_L_0_R_22.png","11_Ratio_0_L_0_R_1.png","14_Ratio_0_L_0_R_24.png","15_Ratio_0_L_0_R_4.png","2_Ratio_0_L_0_R_5.png","3_Ratio_0_L_0_R_17.png","4_Ratio_0_L_0_R_7.png","7_Ratio_0_L_0_R_19.png","9_Ratio_0_L_0_R_15.png"]],"Rat250":[["1_Ratio_250_L_8_R_2.png","14_Ratio_250_L_12_R_3.png","15_Ratio_250_L_12_R_3.png","2_Ratio_250_L_16_R_4.png","3_Ratio_250_L_8_R_2.png","5_Ratio_250_L_24_R_6.png","7_Ratio_250_L_8_R_2.png"],["10_Ratio_250_L_4_R_16.png","11_Ratio_250_L_3_R_12.png","12_Ratio_250_L_5_R_20.png","13_Ratio_250_L_2_R_8.png","4_Ratio_250_L_3_R_12.png","6_Ratio_250_L_6_R_24.png","8_Ratio_250_L_1_R_4.png","9_Ratio_250_L_3_R_12.png"]],"Rat500":[["10_Ratio_500_L_4_R_2.png","11_Ratio_500_L_12_R_6.png","13_Ratio_500_L_12_R_6.png","4_Ratio_500_L_18_R_9.png","5_Ratio_500_L_4_R_2.png","7_Ratio_500_L_10_R_5.png","8_Ratio_500_L_8_R_4.png"],["1_Ratio_500_L_9_R_18.png","12_Ratio_500_L_1_R_2.png","14_Ratio_500_L_5_R_10.png","15_Ratio_500_L_1_R_2.png","2_Ratio_500_L_3_R_6.png","3_Ratio_500_L_10_R_20.png","6_Ratio_500_L_9_R_18.png","9_Ratio_500_L_2_R_4.png"]],"Rat750":[["1_Ratio_750_L_20_R_15.png","10_Ratio_750_L_4_R_3.png","13_Ratio_750_L_8_R_6.png","14_Ratio_750_L_8_R_6.png","6_Ratio_750_L_24_R_18.png","8_Ratio_750_L_4_R_3.png","9_Ratio_750_L_4_R_3.png"],["11_Ratio_750_L_12_R_16.png","12_Ratio_750_L_3_R_4.png","15_Ratio_750_L_9_R_12.png","2_Ratio_750_L_6_R_8.png","3_Ratio_750_L_15_R_20.png","4_Ratio_750_L_15_R_20.png","5_Ratio_750_L_15_R_20.png","7_Ratio_750_L_3_R_4.png"]],"Rat900":[["1_Ratio_900_L_10_R_9.png","10_Ratio_900_L_20_R_18.png","2_Ratio_900_L_20_R_18.png","4_Ratio_900_L_20_R_18.png","8_Ratio_900_L_20_R_18.png"],["11_Ratio_900_L_18_R_20.png","12_Ratio_900_L_18_R_20.png","13_Ratio_900_L_18_R_20.png","14_Ratio_900_L_18_R_20.png","15_Ratio_900_L_9_R_10.png","3_Ratio_900_L_9_R_10.png","5_Ratio_900_L_9_R_10.png","6_Ratio_900_L_9_R_10.png","7_Ratio_900_L_9_R_10.png","9_Ratio_900_L_18_R_20.png"]],"Rat1000":[["10_Ratio_1000_L_16_R_16.png","11_Ratio_1000_L_6_R_6.png","12_Ratio_1000_L_14_R_14.png","13_Ratio_1000_L_20_R_20.png","15_Ratio_1000_L_15_R_15.png","2_Ratio_1000_L_17_R_17.png","4_Ratio_1000_L_9_R_9.png","5_Ratio_1000_L_6_R_6.png","6_Ratio_1000_L_19_R_19.png","8_Ratio_1000_L_14_R_14.png","9_Ratio_1000_L_25_R_25.png"],["1_Ratio_1000_L_1_R_1.png","14_Ratio_1000_L_17_R_17.png","3_Ratio_1000_L_17_R_17.png","7_Ratio_1000_L_6_R_6.png"]]}},{"start_time":1551881374552,"click_time":1551881376921,"finger_time":1551881376241,"fix_duration":250,"trial":1,"RT":1689,"MT":680,"sideResp":2,"stimulus":"img/900/equaldotsize/R/13_Ratio_900_L_18_R_20.png","xmouse":[762,762,762,762,762,762,762,762,762,762,762,762,762,762,762,762,762,762,764,765,765,765,765,765,765,765,765,765,765,765,765,765,765,765,765,765,765,765,765,765,765,765,765,765,765,765,765,765,765,765,765,765,765,765,765,765,765,765,765,765,765,765,765,765,765,765,765,765,765,765,765,765,765,765,765,765,765,765,765,765,765,783,797,837,957,992,1011,1026,1035,1051,1061,1070,1080,1087,1097,1104,1109,1115,1117,1118,1118,1118,1118,1118,1118,1118,1118,1118,1118,1118,1118,1118,1118,1118,1118,1118,1118,1118,1113],"ymouse":[602,603,603,603,603,603,603,603,603,603,603,603,603,603,603,603,603,603,603,603,603,603,603,603,603,603,603,603,603,603,603,603,603,603,603,603,603,603,603,603,603,603,603,603,603,603,603,603,603,603,603,603,603,603,603,603,603,603,603,603,603,603,603,603,603,603,603,603,603,603,603,603,603,603,603,603,603,603,603,603,603,599,593,576,505,476,455,435,418,383,366,350,330,318,284,266,242,223,206,177,172,168,166,161,156,155,154,152,150,148,147,146,145,143,140,136,131,122,94],"timestamp_mouse":[11,30,49,69,89,110,128,148,169,189,208,229,248,270,290,310,329,349,369,389,408,429,450,468,489,509,529,549,569,588,609,628,649,669,688,709,729,749,769,789,809,829,849,869,890,909,930,949,969,989,1009,1029,1049,1069,1089,1110,1128,1149,1169,1189,1208,1229,1249,1268,1290,1309,1329,1349,1369,1390,1409,1429,1449,1469,1489,1509,1529,1549,1569,1588,1608,1629,1649,1669,1689,1709,1729,1750,1769,1789,1809,1830,1849,1869,1889,1909,1928,1950,1969,1989,2009,2030,2049,2069,2089,2109,2129,2150,2169,2189,2209,2229,2249,2270,2288,2309,2329,2349,2369],"xSR":741.5,"ySR":573.95,"xT1":424.9,"yT1":0,"xT2":1058.1,"yT2":0,"toosoon":0,"cond_shown":"equaldotsize","ratio_trial":900,"smaller_num":"18","larger_num":"20","correct_side":2,"subjID":"camilocarvajalsierra20","gender":"0","age":"11","school":"6"},{"start_time":1551881379243,"click_time":1551881380622,"finger_time":1551881380140,"fix_duration":1381.529462074558,"trial":2,"RT":897,"MT":482,"sideResp":1,"stimulus":"img/500/equaldotsize/L/13_Ratio_500_L_12_R_6.png","xmouse":[793,793,793,793,793,793,793,793,793,793,793,793,793,793,793,793,793,793,793,793,793,793,793,793,793,793,794,794,794,794,794,794,794,794,794,794,794,794,794,794,794,794,794,784,746,726,714,706,699,689,686,683,679,674,663,656,647,636,626,604,587,578,567,556,540,531,525,520,518],"ymouse":[594,594,594,594,594,594,594,594,594,594,594,594,594,594,594,594,594,594,594,594,594,594,594,594,594,594,599,599,599,599,599,599,599,599,599,599,599,599,599,599,599,599,599,576,491,452,422,393,369,333,321,310,297,282,253,240,227,216,207,190,176,168,158,148,129,118,109,102,98],"timestamp_mouse":[19,38,58,79,98,118,138,158,178,198,218,238,258,279,297,318,338,359,378,398,417,438,458,478,497,518,539,558,579,598,618,638,658,678,699,718,738,758,779,798,819,838,858,877,897,918,939,959,979,997,1018,1038,1059,1078,1099,1118,1138,1158,1178,1198,1218,1238,1259,1278,1298,1318,1338,1358,1379],"xSR":741.5,"ySR":573.95,"xT1":424.9,"yT1":0,"xT2":1058.1,"yT2":0,"toosoon":0,"cond_shown":"equaldotsize","ratio_trial":500,"smaller_num":"6","larger_num":"12","correct_side":1,"subjID":"camilocarvajalsierra20","gender":"0","age":"11","school":"6"},{"start_time":1551881382800,"click_time":1551881385222,"finger_time":1551881384501,"fix_duration":1258.5674122287132,"trial":3,"RT":1701,"MT":721,"sideResp":2,"stimulus":"img/500/randomdotsizeEA/L/5_Ratio_500_L_4_R_2.png","xmouse":[785,785,785,785,785,785,785,785,785,785,785,785,785,785,785,785,785,785,785,785,785,785,785,785,785,785,785,785,785,785,785,785,785,785,785,785,785,785,785,785,785,785,785,785,785,785,785,785,785,785,785,785,785,785,785,785,785,785,785,785,785,785,785,785,785,785,785,785,785,785,785,785,785,785,785,785,785,785,785,785,785,785,785,785,811,884,974,1095,1112,1120,1127,1141,1183,1203,1205,1205,1205,1205,1205,1205,1205,1205,1202,1192,1183,1176,1167,1161,1161,1160,1160,1160,1160,1160,1160,1160,1160,1160,1160,1160,1160,1158],"ymouse":[639,639,639,639,639,639,639,639,639,639,639,639,639,639,639,639,639,639,639,639,639,639,639,639,639,639,639,639,639,639,639,639,639,639,639,639,639,639,639,639,639,639,639,639,639,639,639,639,639,639,639,639,639,639,639,639,639,639,639,639,639,639,639,639,639,639,639,639,639,639,639,639,639,639,639,639,639,639,639,639,639,639,639,638,608,555,491,383,360,342,312,220,81,30,21,20,15,10,5,5,4,3,3,13,23,33,45,54,55,56,57,57,57,57,57,57,57,57,57,57,59,62],"timestamp_mouse":[3,21,42,61,81,102,120,141,161,180,201,222,241,261,281,301,321,340,360,380,401,421,441,462,481,501,521,541,561,580,600,621,642,662,680,700,723,741,761,781,801,821,843,861,881,901,922,943,962,982,1002,1022,1043,1062,1083,1101,1121,1142,1162,1181,1201,1223,1243,1261,1283,1301,1321,1341,1361,1382,1402,1421,1443,1461,1481,1501,1523,1541,1561,1581,1602,1622,1643,1661,1681,1701,1722,1741,1761,1781,1802,1822,1841,1862,1882,1901,1922,1941,1962,1982,2001,2022,2041,2061,2081,2102,2122,2142,2162,2183,2202,2223,2242,2261,2281,2301,2321,2343,2363,2381,2402,2422],"xSR":741.5,"ySR":573.95,"xT1":424.9,"yT1":0,"xT2":1058.1,"yT2":0,"toosoon":0,"cond_shown":"randomdotsizeEA","ratio_trial":500,"smaller_num":"2","larger_num":"4","correct_side":1,"subjID":"camilocarvajalsierra20","gender":"0","age":"11","school":"6"},{"start_time":1551881387532,"click_time":1551881388781,"finger_time":1551881388322,"fix_duration":1349.0180712302715,"trial":4,"RT":790,"MT":459,"sideResp":2,"stimulus":"img/500/equaldotanddens/R/9_Ratio_500_L_2_R_4.png","xmouse":[784,784,784,784,784,784,784,784,784,784,784,784,784,784,784,784,784,784,784,784,784,784,784,784,784,784,784,784,784,784,784,784,784,784,784,784,784,801,839,869,900,906,915,925,934,962,977,984,991,997,1019,1035,1050,1061,1066,1069,1070,1071,1073,1075,1077,1077,1077],"ymouse":[653,653,653,653,653,653,653,653,653,653,653,653,653,653,653,653,653,653,653,653,653,653,653,653,653,653,653,653,653,653,653,653,653,653,653,653,653,635,602,575,513,480,435,402,376,326,294,279,262,250,214,194,176,161,152,143,140,133,123,114,105,102,98],"timestamp_mouse":[14,29,49,70,90,109,130,150,169,189,209,230,249,271,289,309,330,350,370,390,409,430,450,469,489,509,531,550,569,591,609,629,649,670,689,709,730,749,771,790,809,829,849,870,889,910,929,949,970,990,1009,1030,1049,1069,1090,1109,1130,1149,1169,1190,1209,1229,1249],"xSR":741.5,"ySR":573.95,"xT1":424.9,"yT1":0,"xT2":1058.1,"yT2":0,"toosoon":0,"cond_shown":"equaldotanddens","ratio_trial":500,"smaller_num":"2","larger_num":"4","correct_side":2,"subjID":"camilocarvajalsierra20","gender":"0","age":"11","school":"6"},{"start_time":1551881391086,"click_time":1551881392461,"finger_time":1551881392202,"fix_duration":1462.624630962974,"trial":5,"RT":1116,"MT":259,"sideResp":2,"stimulus":"img/900/randomdotsizeEA/R/14_Ratio_900_L_18_R_20.png","xmouse":[803,803,803,803,803,803,803,803,803,803,803,803,803,803,803,803,803,803,803,803,803,803,803,803,803,803,803,803,803,803,803,803,803,803,803,803,803,803,803,803,803,803,803,803,803,803,803,803,803,803,803,803,803,805,831,874,921,988,1021,1037,1053,1062,1072,1075,1077,1079,1080,1083,1086],"ymouse":[624,624,624,624,624,624,624,624,624,624,624,624,624,624,624,624,624,624,624,624,624,624,624,624,624,624,624,624,624,624,624,624,624,624,624,624,624,624,624,624,624,624,624,624,624,624,624,624,624,624,624,624,624,620,577,531,468,376,333,294,239,210,171,154,147,133,123,108,99],"timestamp_mouse":[15,36,57,76,97,116,135,155,177,196,215,235,257,277,296,316,336,357,376,397,416,436,457,475,496,516,535,556,577,595,616,637,656,675,695,717,735,756,777,797,816,837,855,876,897,915,936,956,976,997,1017,1036,1055,1075,1095,1116,1135,1155,1176,1196,1217,1236,1255,1275,1296,1316,1335,1356,1375],"xSR":741.5,"ySR":573.95,"xT1":424.9,"yT1":0,"xT2":1058.1,"yT2":0,"toosoon":0,"cond_shown":"randomdotsizeEA","ratio_trial":900,"smaller_num":"18","larger_num":"20","correct_side":2,"subjID":"camilocarvajalsierra20","gender":"0","age":"11","school":"6"},{"start_time":1551881393758,"click_time":1551881395002,"finger_time":1551881394501,"fix_duration":495.46235089865587,"trial":6,"RT":743,"MT":501,"sideResp":2,"stimulus":"img/250/equaldotanddens/R/10_Ratio_250_L_4_R_16.png","xmouse":[817,817,817,817,817,817,817,817,817,817,817,817,817,817,817,817,817,817,817,817,817,817,817,817,817,817,817,817,817,817,817,817,817,817,817,820,837,854,863,874,877,882,890,901,918,939,953,965,974,982,984,986,987,991,1006,1018,1023,1027,1029,1039,1047,1058,1065],"ymouse":[606,606,606,606,606,606,606,606,606,606,606,606,606,606,606,606,606,606,606,606,606,606,606,606,606,606,606,606,606,606,606,606,606,606,606,602,584,563,546,525,516,502,483,464,417,346,313,285,264,236,224,216,209,194,155,135,128,124,122,113,106,100,95],"timestamp_mouse":[3,23,43,64,83,105,123,143,164,183,203,225,243,263,284,304,323,344,365,383,403,424,443,464,484,503,523,543,563,584,605,624,645,663,683,703,723,743,763,784,803,824,843,864,883,904,923,943,964,983,1004,1024,1044,1065,1083,1103,1123,1143,1164,1183,1203,1225,1244],"xSR":741.5,"ySR":573.95,"xT1":424.9,"yT1":0,"xT2":1058.1,"yT2":0,"toosoon":0,"cond_shown":"equaldotanddens","ratio_trial":250,"smaller_num":"4","larger_num":"16","correct_side":2,"subjID":"camilocarvajalsierra20","gender":"0","age":"11","school":"6"},{"start_time":1551881397453,"click_time":1551881398742,"finger_time":1551881398182,"fix_duration":250,"trial":7,"RT":729,"MT":560,"sideResp":2,"stimulus":"img/250/equaldotsize/R/4_Ratio_250_L_3_R_12.png","xmouse":[800,800,800,800,800,800,800,800,800,800,800,800,800,800,800,800,800,800,800,800,800,800,800,800,800,800,800,800,800,800,800,800,800,800,802,816,842,871,894,923,926,931,933,935,944,945,951,954,958,966,979,989,1001,1010,1029,1031,1031,1031,1031,1032,1032,1033,1042,1053,1067],"ymouse":[649,649,649,649,649,649,649,649,649,649,649,649,649,649,649,649,649,649,649,649,649,649,649,649,649,649,649,649,649,649,649,649,649,649,642,614,580,537,483,375,349,320,303,290,259,251,235,224,218,204,187,177,167,159,146,144,144,144,144,143,135,122,101,83,63],"timestamp_mouse":[9,28,49,68,88,110,128,149,169,188,210,229,248,268,290,309,328,349,369,389,409,429,450,468,489,509,530,549,568,590,610,629,649,670,690,708,729,750,768,788,808,829,849,869,889,908,929,949,969,989,1009,1028,1048,1069,1089,1109,1129,1149,1168,1188,1209,1229,1248,1268,1289],"xSR":741.5,"ySR":573.95,"xT1":424.9,"yT1":0,"xT2":1058.1,"yT2":0,"toosoon":0,"cond_shown":"equaldotsize","ratio_trial":250,"smaller_num":"3","larger_num":"12","correct_side":2,"subjID":"camilocarvajalsierra20","gender":"0","age":"11","school":"6"},{"start_time":1551881400572,"click_time":1551881401841,"finger_time":1551881401322,"fix_duration":1048.0505034671387,"trial":8,"RT":750,"MT":519,"sideResp":2,"stimulus":"img/250/equaldotanddens/R/11_Ratio_250_L_3_R_12.png","xmouse":[798,798,798,798,798,798,798,798,798,798,798,798,798,798,798,798,798,798,798,798,798,798,798,798,798,798,798,798,798,798,798,798,798,798,800,817,825,829,844,856,867,875,880,897,910,922,934,949,963,963,963,963,963,970,980,984,991,999,1015,1024,1036,1044,1066,1128],"ymouse":[634,634,634,634,634,634,634,634,634,634,634,634,634,634,634,634,634,634,634,634,634,634,634,634,634,634,634,634,634,634,634,634,634,634,631,602,587,571,487,410,372,345,327,283,252,231,211,191,166,165,164,164,162,151,140,136,131,127,118,113,110,106,100,80],"timestamp_mouse":[9,29,51,71,89,109,131,149,171,191,210,229,250,271,289,310,330,349,369,391,409,430,450,471,491,509,530,549,570,591,610,630,649,669,690,709,729,750,770,789,810,830,849,869,891,910,929,950,969,990,1010,1029,1050,1070,1090,1109,1130,1149,1169,1190,1211,1229,1250,1269],"xSR":741.5,"ySR":573.95,"xT1":424.9,"yT1":0,"xT2":1058.1,"yT2":0,"toosoon":0,"cond_shown":"equaldotanddens","ratio_trial":250,"smaller_num":"3","larger_num":"12","correct_side":2,"subjID":"camilocarvajalsierra20","gender":"0","age":"11","school":"6"},{"start_time":1551881403171,"click_time":1551881404182,"finger_time":1551881403601,"fix_duration":588.7725520201641,"trial":9,"RT":430,"MT":581,"sideResp":2,"stimulus":"img/900/equaldotsize/R/7_Ratio_900_L_9_R_10.png","xmouse":[782,782,782,782,782,782,782,782,782,782,782,782,782,782,782,782,782,782,786,793,801,810,817,827,832,838,845,856,882,900,919,932,936,955,971,993,1016,1046,1098,1107,1115,1127,1136,1143,1144,1145,1145,1145,1145,1145,1145],"ymouse":[635,635,635,635,635,635,635,635,635,635,635,635,635,635,635,635,635,635,619,603,584,562,536,501,487,471,455,438,404,384,365,346,338,301,277,251,235,211,178,169,157,144,137,123,120,119,115,111,103,100,98],"timestamp_mouse":[10,30,51,71,92,110,130,151,172,190,210,231,251,270,291,312,331,350,370,390,411,430,451,470,491,511,531,550,570,590,610,630,650,670,691,710,730,750,771,790,811,830,852,870,892,910,930,951,971,990,1011],"xSR":741.5,"ySR":573.95,"xT1":424.9,"yT1":0,"xT2":1058.1,"yT2":0,"toosoon":0,"cond_shown":"equaldotsize","ratio_trial":900,"smaller_num":"9","larger_num":"10","correct_side":2,"subjID":"camilocarvajalsierra20","gender":"0","age":"11","school":"6"},{"start_time":1551881405658,"click_time":1551881407023,"finger_time":1551881406262,"fix_duration":595.0934350559277,"trial":10,"RT":604,"MT":761,"sideResp":2,"stimulus":"img/900/equaldotanddens/R/5_Ratio_900_L_9_R_10.png","xmouse":[802,802,802,802,802,802,802,802,802,802,802,802,802,802,802,802,802,802,802,802,802,802,800,799,799,799,799,799,799,798,798,803,811,820,842,854,870,891,914,927,931,932,937,945,976,999,1038,1091,1123,1182,1192,1193,1193,1193,1193,1193,1193,1193,1193,1189,1185,1182,1180,1177,1170,1167,1163,1159,1153],"ymouse":[608,608,608,608,608,608,608,608,608,608,608,608,608,608,608,608,608,608,608,608,608,608,603,597,593,590,587,584,582,575,556,535,511,487,434,409,380,343,305,276,263,257,248,232,200,182,164,143,126,104,98,97,97,97,97,97,97,97,96,94,92,90,89,88,85,84,82,79,76],"timestamp_mouse":[4,24,43,64,85,104,125,143,164,184,205,225,244,264,284,304,325,344,363,384,403,423,445,463,483,503,525,544,563,584,604,624,644,663,683,703,723,744,763,784,803,823,843,863,883,904,923,943,965,983,1004,1023,1043,1063,1084,1104,1124,1144,1164,1183,1203,1223,1244,1264,1284,1304,1324,1343,1364],"xSR":741.5,"ySR":573.95,"xT1":424.9,"yT1":0,"xT2":1058.1,"yT2":0,"toosoon":0,"cond_shown":"equaldotanddens","ratio_trial":900,"smaller_num":"9","larger_num":"10","correct_side":2,"subjID":"camilocarvajalsierra20","gender":"0","age":"11","school":"6"},{"start_time":1551881409236,"click_time":1551881410442,"finger_time":1551881409942,"fix_duration":1392.6538687250466,"trial":11,"RT":706,"MT":500,"sideResp":2,"stimulus":"img/750/equaldotsize/R/12_Ratio_750_L_3_R_4.png","xmouse":[784,784,784,784,784,784,784,784,784,784,784,784,784,784,784,784,784,784,784,784,784,784,784,784,784,784,784,784,784,784,784,787,794,800,806,821,828,837,853,870,900,914,923,929,936,955,964,976,991,1002,1035,1042,1043,1043,1043,1050,1056,1066,1078,1089,1098],"ymouse":[625,625,625,625,625,625,625,625,625,625,625,625,625,625,625,625,625,625,625,625,625,625,625,625,625,625,625,625,625,625,625,621,611,602,593,571,559,542,522,496,402,362,344,329,312,276,261,246,226,210,177,170,165,161,157,141,132,122,110,101,90],"timestamp_mouse":[8,27,45,65,85,105,125,145,165,185,205,225,246,265,286,305,326,345,365,386,405,425,447,465,485,506,527,546,566,586,605,626,646,665,686,706,725,747,765,786,805,827,846,865,885,905,925,945,966,985,1005,1026,1046,1066,1085,1105,1125,1146,1166,1185,1205],"xSR":741.5,"ySR":573.95,"xT1":424.9,"yT1":0,"xT2":1058.1,"yT2":0,"toosoon":0,"cond_shown":"equaldotsize","ratio_trial":750,"smaller_num":"3","larger_num":"4","correct_side":2,"subjID":"camilocarvajalsierra20","gender":"0","age":"11","school":"6"},{"start_time":1551881411470,"click_time":1551881412542,"finger_time":1551881412222,"fix_duration":307.4676517411832,"trial":12,"RT":752,"MT":320,"sideResp":1,"stimulus":"img/900/randomdotsizeEA/L/2_Ratio_900_L_20_R_18.png","xmouse":[773,773,773,773,773,773,773,773,773,772,772,772,772,772,772,772,772,772,772,772,772,772,772,772,772,772,772,772,772,772,772,772,772,772,772,767,761,727,669,653,626,602,584,563,556,555,553,551,545,541,538,535,533,522],"ymouse":[634,634,634,634,634,634,634,634,634,634,634,634,634,634,634,634,634,634,634,634,634,634,634,634,634,634,634,634,634,634,634,634,634,634,634,631,625,592,538,516,446,370,325,273,257,245,232,217,180,161,139,129,119,99],"timestamp_mouse":[12,32,51,73,93,112,132,152,171,192,212,231,252,271,291,312,331,352,373,393,412,432,452,472,491,512,531,553,572,591,612,633,652,672,693,713,732,752,771,792,812,831,851,872,891,911,932,953,971,992,1012,1032,1051,1072],"xSR":741.5,"ySR":573.95,"xT1":424.9,"yT1":0,"xT2":1058.1,"yT2":0,"toosoon":0,"cond_shown":"randomdotsizeEA","ratio_trial":900,"smaller_num":"18","larger_num":"20","correct_side":1,"subjID":"camilocarvajalsierra20","gender":"0","age":"11","school":"6"},{"start_time":1551881414323,"click_time":1551881415401,"finger_time":1551881415042,"fix_duration":720.5188817835726,"trial":13,"RT":719,"MT":359,"sideResp":2,"stimulus":"img/900/equaldotsize/R/9_Ratio_900_L_18_R_20.png","xmouse":[788,788,788,788,788,788,788,788,788,788,788,788,788,788,788,788,788,788,788,788,788,788,788,788,788,788,788,788,788,788,788,797,803,817,832,854,858,858,860,874,975,1046,1107,1138,1158,1174,1174,1174,1174,1174,1170,1166,1163,1156],"ymouse":[628,628,628,628,628,628,628,628,628,628,628,628,628,628,628,628,628,628,628,628,628,628,628,628,628,628,628,628,628,628,628,620,613,600,587,556,547,540,529,510,432,397,366,342,322,249,213,194,178,158,136,120,110,95],"timestamp_mouse":[21,40,58,80,98,119,139,158,178,200,219,240,258,278,299,320,339,360,379,398,418,439,460,478,499,518,539,560,578,598,619,638,658,679,700,719,738,759,778,799,818,838,858,879,900,918,939,958,980,998,1018,1038,1060,1078],"xSR":741.5,"ySR":573.95,"xT1":424.9,"yT1":0,"xT2":1058.1,"yT2":0,"toosoon":0,"cond_shown":"equaldotsize","ratio_trial":900,"smaller_num":"18","larger_num":"20","correct_side":2,"subjID":"camilocarvajalsierra20","gender":"0","age":"11","school":"6"},{"start_time":1551881417344,"click_time":1551881418302,"finger_time":1551881418041,"fix_duration":541.9886244530466,"trial":14,"RT":697,"MT":261,"sideResp":1,"stimulus":"img/750/equaldotsize/L/9_Ratio_750_L_4_R_3.png","xmouse":[782,782,782,782,782,782,782,780,780,780,780,780,780,780,780,780,780,780,780,780,780,780,780,780,780,780,780,780,780,780,780,780,777,770,710,698,645,624,606,559,533,513,497,486,467,461,452,445],"ymouse":[633,633,633,633,633,633,633,634,634,634,634,634,634,634,634,634,634,634,634,634,634,634,634,634,634,634,634,634,634,634,634,634,633,625,575,566,519,492,463,348,302,267,237,208,159,136,100,78],"timestamp_mouse":[17,37,57,78,97,117,139,158,178,198,219,238,257,277,299,318,339,357,378,398,418,437,459,479,498,518,537,558,578,598,617,638,657,678,697,717,737,758,778,798,818,838,857,878,897,917,937,958],"xSR":741.5,"ySR":573.95,"xT1":424.9,"yT1":0,"xT2":1058.1,"yT2":0,"toosoon":0,"cond_shown":"equaldotsize","ratio_trial":750,"smaller_num":"3","larger_num":"4","correct_side":1,"subjID":"camilocarvajalsierra20","gender":"0","age":"11","school":"6"},{"start_time":1551881419989,"click_time":1551881420901,"finger_time":1551881420621,"fix_duration":806.1251671354918,"trial":15,"RT":632,"MT":280,"sideResp":2,"stimulus":"img/750/equaldotanddens/R/7_Ratio_750_L_3_R_4.png","xmouse":[784,784,784,784,784,784,784,784,784,784,784,784,784,784,784,784,784,784,784,784,784,784,784,784,784,784,784,784,788,790,800,816,851,859,863,866,867,874,882,890,899,905,920,930,1012,1074],"ymouse":[617,617,617,617,617,617,617,617,617,617,617,617,617,617,617,617,617,617,617,617,617,617,617,617,617,617,617,617,612,603,581,551,484,460,447,431,420,384,356,333,313,299,264,239,147,93],"timestamp_mouse":[12,34,52,72,93,112,132,153,174,193,212,234,252,272,292,312,332,353,374,394,413,433,454,474,493,513,534,552,572,594,613,632,652,673,692,712,732,753,772,792,813,834,853,873,893,912],"xSR":741.5,"ySR":573.95,"xT1":424.9,"yT1":0,"xT2":1058.1,"yT2":0,"toosoon":0,"cond_shown":"equaldotanddens","ratio_trial":750,"smaller_num":"3","larger_num":"4","correct_side":2,"subjID":"camilocarvajalsierra20","gender":"0","age":"11","school":"6"},{"start_time":1551881423392,"click_time":1551881424462,"finger_time":1551881424063,"fix_duration":1210.6788946242546,"trial":16,"RT":671,"MT":399,"sideResp":2,"stimulus":"img/250/randomdotsizeEA/R/12_Ratio_250_L_5_R_20.png","xmouse":[774,774,774,774,774,774,774,774,774,774,774,774,774,774,774,774,774,774,774,774,774,774,774,774,774,774,774,774,774,774,774,775,799,829,829,829,829,836,844,856,867,877,915,971,988,1012,1027,1039,1042,1046,1049,1051,1057,1059],"ymouse":[618,618,618,618,618,618,618,618,618,618,618,618,618,618,618,618,618,618,618,618,618,618,618,618,618,618,618,618,618,618,618,616,589,565,564,561,559,541,521,499,480,460,365,235,185,145,121,86,73,62,46,34,14,6],"timestamp_mouse":[10,31,49,69,89,111,131,149,170,190,209,231,251,271,290,309,331,351,369,389,409,429,449,470,490,510,530,551,569,589,609,629,649,671,690,709,730,750,769,791,810,829,849,870,889,909,930,949,970,989,1009,1030,1049,1069],"xSR":741.5,"ySR":573.95,"xT1":424.9,"yT1":0,"xT2":1058.1,"yT2":0,"toosoon":0,"cond_shown":"randomdotsizeEA","ratio_trial":250,"smaller_num":"5","larger_num":"20","correct_side":2,"subjID":"camilocarvajalsierra20","gender":"0","age":"11","school":"6"},{"start_time":1551881425904,"click_time":1551881426961,"finger_time":1551881426522,"fix_duration":622.8232699816996,"trial":17,"RT":618,"MT":439,"sideResp":1,"stimulus":"img/500/equaldotanddens/L/4_Ratio_500_L_18_R_9.png","xmouse":[792,792,792,792,792,792,792,792,792,792,792,792,792,792,792,792,792,792,792,792,792,792,792,792,792,792,791,779,772,763,755,742,735,726,716,707,677,646,634,623,611,590,578,568,557,548,531,526,517,510,504,492,489],"ymouse":[607,607,607,607,607,607,607,607,607,607,607,607,607,607,607,607,607,607,607,607,607,607,607,607,607,607,608,595,587,577,568,549,537,522,509,495,442,389,369,348,331,300,280,263,245,228,192,178,160,141,127,100,93],"timestamp_mouse":[19,39,58,78,97,118,138,157,177,198,218,238,257,278,298,317,337,357,377,397,421,439,459,479,499,517,537,558,578,597,618,637,657,677,698,717,737,758,778,797,817,838,858,878,897,918,937,957,977,997,1018,1038,1057],"xSR":741.5,"ySR":573.95,"xT1":424.9,"yT1":0,"xT2":1058.1,"yT2":0,"toosoon":0,"cond_shown":"equaldotanddens","ratio_trial":500,"smaller_num":"9","larger_num":"18","correct_side":1,"subjID":"camilocarvajalsierra20","gender":"0","age":"11","school":"6"},{"start_time":1551881428754,"click_time":1551881430242,"finger_time":1551881429441,"fix_duration":1071.3708526794671,"trial":18,"RT":687,"MT":801,"sideResp":2,"stimulus":"img/250/randomdotsizeEA/R/13_Ratio_250_L_2_R_8.png","xmouse":[808,808,808,808,808,808,808,808,808,808,808,808,808,808,808,808,808,808,808,808,808,808,808,808,808,808,808,808,808,808,811,812,816,820,831,845,854,863,873,879,879,881,881,882,885,888,889,890,891,895,897,901,906,914,940,963,969,973,976,983,988,996,1001,1005,1014,1019,1024,1029,1035,1044,1046,1048,1049,1055,1062],"ymouse":[617,617,617,617,617,617,617,617,617,617,617,617,617,617,617,617,617,617,617,617,617,617,617,617,617,617,617,617,617,617,613,607,599,590,571,554,545,534,523,510,492,475,463,454,436,422,414,408,398,377,362,350,338,322,286,262,252,244,236,222,211,199,190,182,167,159,150,142,133,122,119,114,112,102,88],"timestamp_mouse":[8,27,48,68,89,108,128,148,168,188,207,229,248,267,287,307,327,348,368,387,407,429,448,467,488,507,528,548,568,587,607,627,648,667,687,709,727,747,767,787,807,828,848,867,887,908,928,948,968,987,1007,1027,1047,1069,1087,1107,1127,1147,1168,1187,1208,1228,1248,1269,1287,1308,1328,1347,1368,1388,1408,1427,1448,1467,1488],"xSR":741.5,"ySR":573.95,"xT1":424.9,"yT1":0,"xT2":1058.1,"yT2":0,"toosoon":0,"cond_shown":"randomdotsizeEA","ratio_trial":250,"smaller_num":"2","larger_num":"8","correct_side":2,"subjID":"camilocarvajalsierra20","gender":"0","age":"11","school":"6"},{"start_time":1551881431628,"click_time":1551881432641,"finger_time":1551881432421,"fix_duration":524.1094570710245,"trial":19,"RT":793,"MT":220,"sideResp":1,"stimulus":"img/250/equaldotanddens/L/14_Ratio_250_L_12_R_3.png","xmouse":[790,790,790,790,790,790,790,790,790,790,790,790,790,790,790,790,790,790,790,790,790,790,790,790,790,790,790,790,790,790,790,790,790,790,788,783,774,760,745,720,632,598,588,582,575,562,554,543,528,516,497],"ymouse":[653,653,653,653,653,653,653,653,653,653,653,653,653,653,653,653,653,653,653,653,653,653,653,653,653,653,653,653,653,653,653,653,653,653,650,643,633,616,596,552,403,335,308,284,263,225,206,187,161,131,88],"timestamp_mouse":[14,35,54,73,94,114,133,153,175,193,213,234,254,274,294,313,334,354,373,394,414,434,454,473,494,513,534,553,574,593,613,633,654,674,693,714,734,754,773,793,813,834,853,874,894,914,933,954,973,993,1013],"xSR":741.5,"ySR":573.95,"xT1":424.9,"yT1":0,"xT2":1058.1,"yT2":0,"toosoon":0,"cond_shown":"equaldotanddens","ratio_trial":250,"smaller_num":"3","larger_num":"12","correct_side":1,"subjID":"camilocarvajalsierra20","gender":"0","age":"11","school":"6"},{"start_time":1551881434104,"click_time":1551881435042,"finger_time":1551881434822,"fix_duration":842.011995696092,"trial":20,"RT":718,"MT":220,"sideResp":2,"stimulus":"img/900/equaldotanddens/R/14_Ratio_900_L_18_R_20.png","xmouse":[790,790,790,790,790,790,790,790,790,790,790,790,790,790,790,790,790,790,790,790,790,790,790,790,790,790,790,790,790,790,790,802,812,823,829,839,858,872,882,884,891,925,945,966,995,1037,1102],"ymouse":[645,645,645,645,645,645,645,645,645,645,645,645,645,645,645,645,645,645,645,645,645,645,645,645,645,645,645,645,645,645,646,630,613,594,575,554,513,484,456,444,417,308,259,224,190,141,78],"timestamp_mouse":[17,37,58,77,99,119,138,157,178,199,217,237,258,278,297,319,338,358,377,398,417,437,458,478,497,517,539,558,578,597,618,638,658,677,698,718,737,757,778,797,818,837,857,879,898,918,938],"xSR":741.5,"ySR":573.95,"xT1":424.9,"yT1":0,"xT2":1058.1,"yT2":0,"toosoon":0,"cond_shown":"equaldotanddens","ratio_trial":900,"smaller_num":"18","larger_num":"20","correct_side":2,"subjID":"camilocarvajalsierra20","gender":"0","age":"11","school":"6"},{"start_time":1551881437115,"click_time":1551881438162,"finger_time":1551881437842,"fix_duration":1273.719160686425,"trial":21,"RT":727,"MT":320,"sideResp":1,"stimulus":"img/750/randomdotsizeEA/L/8_Ratio_750_L_4_R_3.png","xmouse":[787,787,787,787,787,787,787,787,787,787,787,787,787,787,787,787,787,787,787,787,787,787,787,787,787,787,787,787,787,787,787,787,787,787,785,779,754,730,700,684,671,638,625,615,607,599,582,567,558,551,545,536,517],"ymouse":[622,622,622,622,622,622,622,622,622,622,622,622,622,622,622,622,622,622,622,622,622,622,622,622,622,622,622,622,622,622,622,622,622,622,622,613,556,509,440,400,365,285,255,233,213,196,164,138,126,116,104,90,65],"timestamp_mouse":[8,26,48,66,88,107,128,146,168,188,206,227,248,266,287,307,326,348,367,386,407,428,446,467,487,506,526,546,566,586,606,627,646,666,686,707,727,746,766,786,807,826,846,868,887,908,926,946,967,988,1006,1026,1047],"xSR":741.5,"ySR":573.95,"xT1":424.9,"yT1":0,"xT2":1058.1,"yT2":0,"toosoon":0,"cond_shown":"randomdotsizeEA","ratio_trial":750,"smaller_num":"3","larger_num":"4","correct_side":1,"subjID":"camilocarvajalsierra20","gender":"0","age":"11","school":"6"},{"start_time":1551881439857,"click_time":1551881440702,"finger_time":1551881440322,"fix_duration":734.4277469440332,"trial":22,"RT":465,"MT":380,"sideResp":1,"stimulus":"img/900/equaldotanddens/L/8_Ratio_900_L_20_R_18.png","xmouse":[755,755,755,755,755,755,755,755,755,755,755,755,755,755,755,755,755,755,755,755,755,756,756,752,740,732,723,715,709,701,682,666,653,638,608,597,588,579,568,548,535,528,524],"ymouse":[603,603,603,603,603,603,603,603,603,603,603,603,603,603,603,603,603,603,603,603,603,601,584,564,528,508,487,468,447,425,377,340,308,273,219,199,181,165,150,127,109,101,94],"timestamp_mouse":[4,25,45,64,84,104,125,144,165,185,205,226,245,264,285,304,325,345,365,385,404,424,446,465,484,504,524,544,564,584,604,625,645,665,684,704,726,745,765,784,804,824,845],"xSR":741.5,"ySR":573.95,"xT1":424.9,"yT1":0,"xT2":1058.1,"yT2":0,"toosoon":0,"cond_shown":"equaldotanddens","ratio_trial":900,"smaller_num":"18","larger_num":"20","correct_side":1,"subjID":"camilocarvajalsierra20","gender":"0","age":"11","school":"6"},{"start_time":1551881442239,"click_time":1551881443381,"finger_time":1551881442882,"fix_duration":597.5228113579058,"trial":23,"RT":643,"MT":499,"sideResp":1,"stimulus":"img/750/equaldotsize/L/1_Ratio_750_L_20_R_15.png","xmouse":[810,810,810,810,810,810,810,810,810,810,810,810,810,810,810,810,810,810,810,810,810,810,810,810,810,810,810,810,810,810,810,791,731,697,678,646,637,629,623,615,596,584,571,565,560,550,549,548,548,548,548,547,546,545,545,543,527,517],"ymouse":[646,646,646,646,646,646,646,646,646,646,646,646,646,646,646,646,646,646,646,646,646,646,646,646,646,646,646,646,646,646,628,584,445,362,299,187,155,132,113,98,66,50,34,28,24,20,20,20,20,20,20,20,20,20,20,20,30,37],"timestamp_mouse":[4,22,43,62,82,104,122,143,163,182,203,222,242,264,282,302,322,344,362,382,403,423,442,463,482,503,523,543,562,583,602,624,643,663,683,703,722,744,762,783,802,823,842,864,883,902,922,942,963,984,1002,1022,1042,1063,1082,1102,1123,1142],"xSR":741.5,"ySR":573.95,"xT1":424.9,"yT1":0,"xT2":1058.1,"yT2":0,"toosoon":0,"cond_shown":"equaldotsize","ratio_trial":750,"smaller_num":"15","larger_num":"20","correct_side":1,"subjID":"camilocarvajalsierra20","gender":"0","age":"11","school":"6"},{"start_time":1551881445530,"click_time":1551881446482,"finger_time":1551881446202,"fix_duration":1248.333120925108,"trial":24,"RT":672,"MT":280,"sideResp":1,"stimulus":"img/900/equaldotsize/R/11_Ratio_900_L_18_R_20.png","xmouse":[762,762,762,762,762,762,762,762,762,762,762,762,762,762,762,762,762,762,762,762,762,762,762,762,762,762,762,762,762,762,763,753,742,736,726,685,671,653,640,628,604,593,582,569,557,540,532,524],"ymouse":[602,602,602,602,602,602,602,602,602,602,602,602,602,602,602,602,602,602,602,602,602,602,602,602,602,602,602,602,602,602,602,590,579,567,536,395,344,281,237,196,148,125,104,87,72,52,44,38],"timestamp_mouse":[15,32,51,72,93,113,133,151,171,192,212,233,251,271,293,312,331,351,371,392,411,432,452,473,492,513,532,551,580,593,612,632,652,672,691,711,732,752,773,791,811,831,851,871,893,911,931,952],"xSR":741.5,"ySR":573.95,"xT1":424.9,"yT1":0,"xT2":1058.1,"yT2":0,"toosoon":0,"cond_shown":"equaldotsize","ratio_trial":900,"smaller_num":"18","larger_num":"20","correct_side":2,"subjID":"camilocarvajalsierra20","gender":"0","age":"11","school":"6"},{"start_time":1551881448519,"click_time":1551881449381,"finger_time":1551881449041,"fix_duration":595.5058038224973,"trial":25,"RT":522,"MT":340,"sideResp":2,"stimulus":"img/750/equaldotsize/R/11_Ratio_750_L_12_R_16.png","xmouse":[802,802,802,802,802,802,802,802,802,802,802,802,802,802,802,802,802,802,802,802,802,802,802,805,809,820,864,920,957,985,993,1001,1004,1010,1017,1021,1030,1033,1039,1049,1061,1097,1119,1138],"ymouse":[603,603,603,603,603,603,603,603,603,603,603,603,603,603,603,603,603,603,603,603,603,603,603,599,595,583,538,465,416,372,352,311,289,266,244,228,201,194,184,168,153,118,103,90],"timestamp_mouse":[7,22,42,63,82,103,123,142,164,184,203,222,242,262,283,303,323,342,362,382,403,422,444,462,482,502,522,543,563,584,602,622,643,662,682,704,722,742,762,783,803,822,842,862],"xSR":741.5,"ySR":573.95,"xT1":424.9,"yT1":0,"xT2":1058.1,"yT2":0,"toosoon":0,"cond_shown":"equaldotsize","ratio_trial":750,"smaller_num":"12","larger_num":"16","correct_side":2,"subjID":"camilocarvajalsierra20","gender":"0","age":"11","school":"6"},{"start_time":1551881451258,"click_time":1551881452361,"finger_time":1551881451921,"fix_duration":1095.987804910604,"trial":26,"RT":663,"MT":440,"sideResp":1,"stimulus":"img/500/equaldotanddens/L/10_Ratio_500_L_4_R_2.png","xmouse":[802,802,802,802,800,800,800,800,800,800,800,800,800,800,800,800,800,800,800,799,799,799,798,797,797,797,797,797,797,795,786,778,751,730,703,683,664,638,622,604,598,595,590,584,576,574,572,569,565,558,550,547,541,536,525,523],"ymouse":[633,633,633,633,631,631,631,631,631,631,631,630,630,630,630,630,630,630,630,630,630,630,630,630,630,630,630,630,630,630,623,618,602,589,562,518,472,422,393,344,324,305,276,258,219,201,187,175,160,139,122,117,110,104,93,91],"timestamp_mouse":[3,24,45,64,83,105,124,143,165,183,203,223,244,264,283,305,324,344,363,383,403,423,443,464,484,503,523,543,564,583,604,623,644,663,684,703,723,743,765,783,803,824,845,863,883,903,924,943,964,983,1004,1024,1044,1063,1084,1103],"xSR":741.5,"ySR":573.95,"xT1":424.9,"yT1":0,"xT2":1058.1,"yT2":0,"toosoon":0,"cond_shown":"equaldotanddens","ratio_trial":500,"smaller_num":"2","larger_num":"4","correct_side":1,"subjID":"camilocarvajalsierra20","gender":"0","age":"11","school":"6"},{"start_time":1551881454666,"click_time":1551881455421,"finger_time":1551881455122,"fix_duration":1423.8896688965986,"trial":27,"RT":456,"MT":299,"sideResp":1,"stimulus":"img/500/randomdotsizeEA/L/11_Ratio_500_L_12_R_6.png","xmouse":[770,770,770,770,770,770,770,770,770,770,770,770,770,770,770,770,770,770,772,775,776,778,779,774,768,760,752,743,714,680,668,637,614,566,545,527,512,501],"ymouse":[603,603,603,603,603,603,603,603,603,603,603,603,603,603,603,603,603,603,601,594,592,581,573,553,542,531,520,507,467,418,403,350,306,212,170,137,110,89],"timestamp_mouse":[16,36,56,76,96,116,135,155,175,195,215,235,255,276,295,315,337,355,375,397,416,435,456,476,495,515,536,557,576,596,615,635,655,675,696,717,736,755],"xSR":741.5,"ySR":573.95,"xT1":424.9,"yT1":0,"xT2":1058.1,"yT2":0,"toosoon":0,"cond_shown":"randomdotsizeEA","ratio_trial":500,"smaller_num":"6","larger_num":"12","correct_side":1,"subjID":"camilocarvajalsierra20","gender":"0","age":"11","school":"6"},{"start_time":1551881457477,"click_time":1551881458322,"finger_time":1551881457921,"fix_duration":1455.1085273350536,"trial":28,"RT":444,"MT":401,"sideResp":1,"stimulus":"img/750/randomdotsizeEA/L/1_Ratio_750_L_20_R_15.png","xmouse":[801,799,799,798,798,798,798,798,797,797,797,797,797,797,797,796,796,796,799,799,801,802,803,803,803,803,803,802,800,797,792,783,770,721,691,656,615,577,517,493,478,459,448],"ymouse":[638,634,633,630,630,630,630,630,630,630,630,630,630,630,630,626,625,620,600,597,587,577,570,557,551,546,540,535,527,522,515,503,488,450,422,381,329,272,189,155,133,107,93],"timestamp_mouse":[5,26,45,64,85,106,124,144,164,185,205,225,245,265,285,304,324,346,364,384,405,424,444,464,484,505,525,545,564,584,604,626,645,665,684,704,725,746,765,784,804,824,845],"xSR":741.5,"ySR":573.95,"xT1":424.9,"yT1":0,"xT2":1058.1,"yT2":0,"toosoon":0,"cond_shown":"randomdotsizeEA","ratio_trial":750,"smaller_num":"15","larger_num":"20","correct_side":1,"subjID":"camilocarvajalsierra20","gender":"0","age":"11","school":"6"},{"start_time":1551881460634,"click_time":1551881461702,"finger_time":1551881461142,"fix_duration":1411.0690324048605,"trial":29,"RT":508,"MT":560,"sideResp":2,"stimulus":"img/900/equaldotanddens/R/6_Ratio_900_L_9_R_10.png","xmouse":[787,787,787,787,787,787,787,787,787,787,787,787,787,787,787,787,787,787,788,789,796,802,813,821,829,855,872,896,904,906,913,919,925,928,934,964,1003,1075,1143,1176,1185,1185,1185,1185,1187,1187,1187,1187,1187,1187,1182,1178,1163,1143],"ymouse":[637,637,637,637,637,637,637,637,637,637,637,637,637,637,637,637,637,637,635,632,620,611,597,587,575,540,516,479,456,437,387,363,344,329,312,265,223,183,150,136,130,130,130,130,129,129,129,129,129,127,120,115,110,99],"timestamp_mouse":[12,27,48,68,88,107,129,148,168,188,207,228,247,267,287,307,328,347,367,388,407,427,448,468,487,508,527,548,567,587,607,627,647,668,687,708,727,748,768,787,808,828,847,868,887,907,927,948,969,988,1008,1028,1048,1068],"xSR":741.5,"ySR":573.95,"xT1":424.9,"yT1":0,"xT2":1058.1,"yT2":0,"toosoon":0,"cond_shown":"equaldotanddens","ratio_trial":900,"smaller_num":"9","larger_num":"10","correct_side":2,"subjID":"camilocarvajalsierra20","gender":"0","age":"11","school":"6"},{"start_time":1551881464445,"click_time":1551881465722,"finger_time":1551881465122,"fix_duration":502.0007102153399,"trial":30,"RT":677,"MT":600,"sideResp":2,"stimulus":"img/250/randomdotsizeEA/R/8_Ratio_250_L_1_R_4.png","xmouse":[811,811,811,811,811,811,811,811,811,811,811,811,811,811,811,811,811,811,811,811,811,811,811,811,811,811,811,811,811,811,811,811,811,811,811,808,804,800,797,796,796,799,808,812,816,824,840,860,885,932,952,959,962,963,963,965,974,987,997,1026,1044,1057,1071,1090],"ymouse":[616,616,616,616,616,616,616,616,616,616,616,616,616,616,616,616,616,616,616,616,616,616,616,616,616,616,616,616,615,608,599,594,583,570,534,515,499,486,476,462,451,440,430,421,408,389,364,331,304,263,242,234,225,218,203,190,178,163,152,135,124,117,109,99],"timestamp_mouse":[17,36,57,77,96,116,136,157,176,197,217,237,257,276,297,316,337,357,376,397,418,437,456,478,497,516,538,558,577,597,618,637,657,677,696,716,737,757,776,796,817,837,856,877,896,916,936,957,978,997,1016,1036,1058,1077,1096,1117,1137,1157,1177,1196,1218,1236,1256,1277],"xSR":741.5,"ySR":573.95,"xT1":424.9,"yT1":0,"xT2":1058.1,"yT2":0,"toosoon":0,"cond_shown":"randomdotsizeEA","ratio_trial":250,"smaller_num":"1","larger_num":"4","correct_side":2,"subjID":"camilocarvajalsierra20","gender":"0","age":"11","school":"6"},{"start_time":1551881466950,"click_time":1551881467743,"finger_time":1551881467461,"fix_duration":366.22608964877435,"trial":31,"RT":511,"MT":282,"sideResp":1,"stimulus":"img/900/randomdotsizeEA/L/1_Ratio_900_L_10_R_9.png","xmouse":[772,772,772,772,772,772,772,772,772,772,772,772,772,772,772,772,772,772,772,772,772,772,772,772,768,751,731,704,674,625,606,592,583,573,550,544,537,532,526,514],"ymouse":[620,620,620,620,620,620,620,620,620,620,620,620,620,620,620,620,620,620,620,620,620,620,620,618,607,569,523,473,422,335,301,275,254,232,162,141,119,98,82,55],"timestamp_mouse":[13,31,52,72,92,111,132,152,173,193,212,232,252,273,291,311,331,352,371,393,412,431,451,473,491,511,532,552,572,591,611,631,651,672,691,711,731,752,771,793],"xSR":741.5,"ySR":573.95,"xT1":424.9,"yT1":0,"xT2":1058.1,"yT2":0,"toosoon":0,"cond_shown":"randomdotsizeEA","ratio_trial":900,"smaller_num":"9","larger_num":"10","correct_side":1,"subjID":"camilocarvajalsierra20","gender":"0","age":"11","school":"6"},{"start_time":1551881468917,"click_time":1551881469681,"finger_time":1551881469362,"fix_duration":494.9747170336899,"trial":32,"RT":445,"MT":319,"sideResp":1,"stimulus":"img/900/equaldotanddens/L/8_Ratio_900_L_20_R_18.png","xmouse":[782,782,782,782,782,782,782,782,782,782,782,782,782,782,782,782,782,782,782,781,778,751,725,702,677,654,610,586,577,569,562,551,546,542,538,534,529,525,522],"ymouse":[635,635,635,635,635,635,635,635,635,635,635,635,635,635,635,635,635,635,635,632,626,591,561,528,492,445,348,278,243,216,192,155,138,121,107,96,77,67,61],"timestamp_mouse":[6,25,45,64,85,105,125,144,165,184,204,225,244,264,285,305,326,345,364,385,405,425,445,464,485,506,525,545,565,586,605,625,644,664,684,705,725,744,764],"xSR":741.5,"ySR":573.95,"xT1":424.9,"yT1":0,"xT2":1058.1,"yT2":0,"toosoon":0,"cond_shown":"equaldotanddens","ratio_trial":900,"smaller_num":"18","larger_num":"20","correct_side":1,"subjID":"camilocarvajalsierra20","gender":"0","age":"11","school":"6"},{"start_time":1551881471059,"click_time":1551881472143,"finger_time":1551881471761,"fix_duration":557.8447956152743,"trial":33,"RT":702,"MT":382,"sideResp":2,"stimulus":"img/750/randomdotsizeEA/R/11_Ratio_750_L_12_R_16.png","xmouse":[769,769,769,769,769,769,769,769,769,769,769,769,769,769,769,769,769,769,769,769,769,769,769,769,769,769,769,769,769,769,769,769,769,770,808,849,865,878,884,893,911,939,971,1009,1046,1057,1070,1089,1109,1127,1131,1132,1132,1133,1135],"ymouse":[664,664,664,664,664,664,664,664,664,664,664,664,664,664,664,664,664,664,664,664,664,664,664,664,664,664,664,664,664,664,664,664,664,664,603,541,501,455,432,395,357,318,280,245,210,194,179,162,144,125,119,114,110,104,89],"timestamp_mouse":[5,23,43,62,82,103,122,143,162,182,203,223,242,263,283,302,323,344,363,383,402,422,443,464,483,503,522,542,563,582,602,622,643,662,683,702,722,743,763,782,802,822,842,862,883,902,922,942,963,983,1002,1022,1042,1062,1083],"xSR":741.5,"ySR":573.95,"xT1":424.9,"yT1":0,"xT2":1058.1,"yT2":0,"toosoon":0,"cond_shown":"randomdotsizeEA","ratio_trial":750,"smaller_num":"12","larger_num":"16","correct_side":2,"subjID":"camilocarvajalsierra20","gender":"0","age":"11","school":"6"},{"start_time":1551881473943,"click_time":1551881474741,"finger_time":1551881474462,"fix_duration":1000.4031001183571,"trial":34,"RT":519,"MT":279,"sideResp":1,"stimulus":"img/500/randomdotsizeEA/L/11_Ratio_500_L_12_R_6.png","xmouse":[776,776,776,776,776,776,776,776,776,776,776,776,776,776,776,776,776,776,776,776,776,776,777,777,774,757,735,703,669,618,599,586,578,571,559,549,543,537,532,523],"ymouse":[628,628,628,628,628,628,628,628,628,628,628,628,628,628,628,628,628,628,628,628,628,628,627,625,608,571,532,476,410,294,239,195,167,143,102,75,61,48,38,25],"timestamp_mouse":[19,38,59,80,98,118,138,159,179,199,218,238,259,279,298,319,338,358,379,398,418,438,458,479,498,519,538,559,578,598,618,640,658,680,698,718,738,759,778,798],"xSR":741.5,"ySR":573.95,"xT1":424.9,"yT1":0,"xT2":1058.1,"yT2":0,"toosoon":0,"cond_shown":"randomdotsizeEA","ratio_trial":500,"smaller_num":"6","larger_num":"12","correct_side":1,"subjID":"camilocarvajalsierra20","gender":"0","age":"11","school":"6"},{"start_time":1551881476765,"click_time":1551881477761,"finger_time":1551881477321,"fix_duration":1142.8705238624523,"trial":35,"RT":556,"MT":440,"sideResp":2,"stimulus":"img/750/equaldotanddens/R/15_Ratio_750_L_9_R_12.png","xmouse":[784,784,784,783,783,783,783,782,782,782,782,782,782,782,782,782,782,782,782,782,782,782,782,782,782,788,803,820,854,856,858,862,868,882,899,926,959,991,1037,1051,1059,1068,1075,1089,1100,1105,1108,1109,1113,1116],"ymouse":[635,635,635,635,635,635,635,634,634,634,634,634,634,634,634,634,634,634,634,634,634,634,634,634,632,615,596,573,514,499,482,457,436,396,362,335,310,291,262,250,237,226,216,182,156,144,132,124,106,97],"timestamp_mouse":[17,36,56,77,97,116,137,156,177,196,217,237,256,277,296,317,337,358,376,396,416,437,456,477,497,517,537,556,577,596,617,637,658,676,697,716,736,756,776,796,817,837,857,877,896,916,936,956,976,996],"xSR":741.5,"ySR":573.95,"xT1":424.9,"yT1":0,"xT2":1058.1,"yT2":0,"toosoon":0,"cond_shown":"equaldotanddens","ratio_trial":750,"smaller_num":"9","larger_num":"12","correct_side":2,"subjID":"camilocarvajalsierra20","gender":"0","age":"11","school":"6"},{"start_time":1551881479256,"click_time":1551881480741,"finger_time":1551881480262,"fix_duration":774.2417922079393,"trial":36,"RT":1006,"MT":479,"sideResp":2,"stimulus":"img/900/randomdotsizeEA/R/14_Ratio_900_L_18_R_20.png","xmouse":[790,790,790,790,790,790,790,790,790,790,790,790,790,790,790,790,790,790,790,790,790,790,790,790,790,790,790,790,790,790,790,790,790,790,789,789,789,789,789,789,789,789,789,789,789,789,790,790,790,790,792,797,808,817,899,966,1023,1089,1139,1175,1185,1189,1195,1198,1201,1202,1202,1202,1202,1202,1202,1200,1190,1176,1158],"ymouse":[624,624,624,624,624,624,624,624,624,624,624,624,624,624,624,624,624,624,624,624,624,624,624,624,624,624,624,624,624,624,624,624,624,625,625,624,624,624,624,624,623,623,623,622,621,619,618,616,615,597,572,534,480,447,333,279,229,180,142,105,82,68,55,43,26,21,19,18,17,17,17,18,27,38,56],"timestamp_mouse":[7,25,47,65,85,105,126,147,165,186,206,226,245,267,286,305,327,345,366,385,405,426,446,466,487,506,526,545,566,586,606,625,646,667,686,705,725,746,767,786,805,825,846,867,886,905,926,945,967,986,1006,1026,1046,1066,1085,1105,1125,1145,1165,1186,1205,1225,1245,1265,1285,1305,1325,1345,1366,1385,1406,1426,1445,1466,1485],"xSR":741.5,"ySR":573.95,"xT1":424.9,"yT1":0,"xT2":1058.1,"yT2":0,"toosoon":0,"cond_shown":"randomdotsizeEA","ratio_trial":900,"smaller_num":"18","larger_num":"20","correct_side":2,"subjID":"camilocarvajalsierra20","gender":"0","age":"11","school":"6"},{"start_time":1551881482668,"click_time":1551881483264,"finger_time":1551881483142,"fix_duration":1084.524034210524,"trial":37,"RT":474,"MT":122,"sideResp":1,"stimulus":"img/250/equaldotsize/L/15_Ratio_250_L_12_R_3.png","xmouse":[783,783,783,783,783,783,783,783,783,783,783,783,783,783,783,783,783,783,783,783,782,774,753,667,608,552,507,484,461,455],"ymouse":[645,645,645,645,645,645,645,645,645,645,645,645,645,645,645,645,645,645,645,645,642,623,578,456,383,314,251,195,120,99],"timestamp_mouse":[14,34,53,73,95,114,134,153,174,193,213,235,253,273,294,314,334,353,373,393,414,434,453,474,493,515,534,554,574,596],"xSR":741.5,"ySR":573.95,"xT1":424.9,"yT1":0,"xT2":1058.1,"yT2":0,"toosoon":0,"cond_shown":"equaldotsize","ratio_trial":250,"smaller_num":"3","larger_num":"12","correct_side":1,"subjID":"camilocarvajalsierra20","gender":"0","age":"11","school":"6"},{"start_time":1551881485460,"click_time":1551881486582,"finger_time":1551881486082,"fix_duration":1236.4250297121084,"trial":38,"RT":622,"MT":500,"sideResp":2,"stimulus":"img/500/randomdotsizeEA/L/8_Ratio_500_L_8_R_4.png","xmouse":[778,778,778,778,778,778,778,778,778,778,778,778,778,778,778,778,778,778,778,778,778,778,778,778,778,778,778,778,778,784,798,825,848,855,869,878,887,901,930,1074,1136,1164,1177,1178,1182,1184,1187,1187,1188,1190,1190,1190,1190,1190,1181,1169,1156],"ymouse":[597,597,597,597,597,597,597,597,597,597,597,597,597,597,597,597,597,597,597,597,597,597,597,597,597,597,597,597,597,597,579,540,496,476,426,393,370,343,304,162,108,69,56,51,39,33,22,12,6,2,2,2,2,2,9,16,25],"timestamp_mouse":[3,21,42,61,81,101,121,142,161,182,202,221,242,261,281,301,321,341,362,383,402,421,442,461,481,503,521,542,562,581,601,622,641,661,681,701,722,741,762,781,803,822,842,861,882,901,922,942,963,982,1001,1022,1042,1062,1081,1101,1121],"xSR":741.5,"ySR":573.95,"xT1":424.9,"yT1":0,"xT2":1058.1,"yT2":0,"toosoon":0,"cond_shown":"randomdotsizeEA","ratio_trial":500,"smaller_num":"4","larger_num":"8","correct_side":1,"subjID":"camilocarvajalsierra20","gender":"0","age":"11","school":"6"},{"start_time":1551881488499,"click_time":1551881489821,"finger_time":1551881489401,"fix_duration":956.9747661623808,"trial":39,"RT":902,"MT":420,"sideResp":1,"stimulus":"img/750/equaldotanddens/L/10_Ratio_750_L_4_R_3.png","xmouse":[817,817,817,817,817,817,817,817,817,817,817,817,817,817,817,817,817,817,817,817,817,817,817,817,817,817,817,817,817,817,817,817,817,817,817,817,817,817,817,817,817,817,818,823,826,832,837,840,844,844,845,845,845,828,813,793,771,716,677,648,626,606,574,560,544,529,518],"ymouse":[597,597,597,597,597,597,597,597,597,597,597,597,597,597,597,597,597,597,597,597,597,597,597,597,597,597,597,597,597,597,597,597,597,597,597,597,597,597,597,597,597,597,591,580,574,564,556,551,539,534,529,524,518,484,458,420,378,271,190,142,114,93,68,56,43,33,26],"timestamp_mouse":[4,23,44,64,82,102,124,144,162,183,203,223,243,264,284,302,323,343,363,382,404,423,443,462,482,504,523,542,563,582,603,623,642,662,683,704,723,742,764,783,804,823,844,862,882,902,923,943,962,983,1003,1022,1042,1062,1083,1102,1122,1142,1162,1182,1202,1222,1243,1262,1282,1303,1322],"xSR":741.5,"ySR":573.95,"xT1":424.9,"yT1":0,"xT2":1058.1,"yT2":0,"toosoon":0,"cond_shown":"equaldotanddens","ratio_trial":750,"smaller_num":"3","larger_num":"4","correct_side":1,"subjID":"camilocarvajalsierra20","gender":"0","age":"11","school":"6"},{"start_time":1551881491753,"click_time":1551881492662,"finger_time":1551881492241,"fix_duration":1151.5906524412833,"trial":40,"RT":488,"MT":421,"sideResp":1,"stimulus":"img/250/equaldotsize/L/1_Ratio_250_L_8_R_2.png","xmouse":[801,801,801,801,801,801,801,801,801,801,801,801,801,801,801,801,801,801,801,801,801,801,801,795,772,722,693,663,633,591,575,570,568,566,564,557,555,553,550,549,546,545,544,543,529,521],"ymouse":[609,609,609,609,609,609,609,609,609,609,609,609,609,609,609,609,609,609,609,609,609,609,609,607,560,473,422,367,316,214,162,136,116,100,86,61,57,55,53,51,51,51,51,50,50,50],"timestamp_mouse":[9,30,49,68,90,109,129,149,169,190,208,228,248,268,290,310,329,350,368,388,409,430,448,468,488,509,529,550,570,589,608,630,649,668,689,709,728,749,769,788,808,828,848,869,888,909],"xSR":741.5,"ySR":573.95,"xT1":424.9,"yT1":0,"xT2":1058.1,"yT2":0,"toosoon":0,"cond_shown":"equaldotsize","ratio_trial":250,"smaller_num":"2","larger_num":"8","correct_side":1,"subjID":"camilocarvajalsierra20","gender":"0","age":"11","school":"6"},{"start_time":1551881495011,"click_time":1551881495902,"finger_time":1551881495541,"fix_duration":1348.8121940145147,"trial":41,"RT":530,"MT":361,"sideResp":2,"stimulus":"img/750/equaldotsize/R/7_Ratio_750_L_3_R_4.png","xmouse":[780,780,780,780,780,780,780,780,780,780,780,780,780,780,780,780,780,780,780,780,780,780,780,780,785,795,887,952,1002,1026,1029,1032,1036,1040,1042,1045,1049,1050,1051,1051,1051,1051,1053,1054,1060],"ymouse":[611,611,611,611,611,611,611,611,611,611,611,611,611,611,611,611,611,611,611,611,611,611,611,611,607,595,513,445,376,327,307,268,239,225,210,195,169,160,153,150,144,123,111,101,90],"timestamp_mouse":[11,30,50,71,90,110,131,152,171,190,212,231,250,270,291,310,331,350,370,390,410,432,450,470,491,511,530,550,571,591,610,630,651,671,691,711,731,750,770,790,810,831,852,870,891],"xSR":741.5,"ySR":573.95,"xT1":424.9,"yT1":0,"xT2":1058.1,"yT2":0,"toosoon":0,"cond_shown":"equaldotsize","ratio_trial":750,"smaller_num":"3","larger_num":"4","correct_side":2,"subjID":"camilocarvajalsierra20","gender":"0","age":"11","school":"6"},{"start_time":1551881499339,"click_time":1551881500361,"finger_time":1551881500041,"fix_duration":1277.7276193980113,"trial":42,"RT":702,"MT":320,"sideResp":2,"stimulus":"img/900/randomdotsizeEA/L/10_Ratio_900_L_20_R_18.png","xmouse":[787,787,787,787,787,787,787,787,787,787,787,787,787,787,787,787,787,787,787,787,787,787,787,787,787,787,787,787,787,787,787,787,787,786,797,866,905,937,941,948,952,963,968,973,978,993,1006,1032,1045,1052,1060,1067],"ymouse":[635,635,635,635,635,635,635,635,635,635,635,635,635,635,635,635,635,635,635,635,635,635,635,635,635,635,635,635,635,635,635,635,635,633,621,549,506,458,437,410,381,322,302,280,260,218,193,157,138,127,108,97],"timestamp_mouse":[4,24,42,63,82,103,124,144,163,183,204,223,243,263,282,302,323,343,362,382,403,422,442,463,482,503,522,542,563,583,602,623,643,663,683,702,722,743,762,782,802,822,842,863,882,902,923,942,964,982,1003,1022],"xSR":741.5,"ySR":573.95,"xT1":424.9,"yT1":0,"xT2":1058.1,"yT2":0,"toosoon":0,"cond_shown":"randomdotsizeEA","ratio_trial":900,"smaller_num":"18","larger_num":"20","correct_side":1,"subjID":"camilocarvajalsierra20","gender":"0","age":"11","school":"6"},{"start_time":1551881502165,"click_time":1551881503241,"finger_time":1551881502861,"fix_duration":881.8813006365228,"trial":43,"RT":696,"MT":380,"sideResp":2,"stimulus":"img/900/randomdotsizeEA/L/8_Ratio_900_L_20_R_18.png","xmouse":[801,800,799,799,799,799,799,799,799,799,799,799,799,799,799,799,799,799,799,799,799,799,799,799,799,799,799,799,799,799,799,799,799,801,827,836,856,869,965,1026,1083,1112,1119,1121,1115,1110,1108,1106,1101,1099,1096,1094,1092,1092],"ymouse":[632,631,630,630,629,629,629,629,629,629,629,629,629,629,629,629,629,629,629,629,629,629,629,629,629,629,629,629,629,629,629,628,626,614,568,543,499,471,372,321,283,255,243,226,209,193,179,169,154,145,137,127,115,93],"timestamp_mouse":[18,36,58,78,96,117,136,156,177,197,216,237,256,278,297,317,336,358,376,397,416,437,457,477,496,516,537,558,577,596,616,637,657,676,696,716,737,756,776,796,816,837,858,876,897,917,937,956,976,996,1016,1037,1057,1076],"xSR":741.5,"ySR":573.95,"xT1":424.9,"yT1":0,"xT2":1058.1,"yT2":0,"toosoon":0,"cond_shown":"randomdotsizeEA","ratio_trial":900,"smaller_num":"18","larger_num":"20","correct_side":1,"subjID":"camilocarvajalsierra20","gender":"0","age":"11","school":"6"},{"start_time":1551881504273,"click_time":1551881505541,"finger_time":1551881504701,"fix_duration":250,"trial":44,"RT":428,"MT":840,"sideResp":2,"stimulus":"img/500/equaldotsize/R/6_Ratio_500_L_9_R_18.png","xmouse":[787,787,787,787,787,787,787,787,787,787,787,787,787,786,786,786,786,786,786,786,781,770,752,699,675,664,654,646,629,623,614,610,604,598,594,593,593,593,593,593,597,608,645,776,846,911,944,952,955,960,964,971,975,982,984,989,1003,1030,1104,1128,1147,1149,1149,1150],"ymouse":[596,596,596,596,596,596,596,596,596,596,596,596,598,602,602,602,602,602,602,602,588,562,520,420,380,355,331,312,276,263,247,239,231,224,222,220,220,220,220,220,222,230,240,248,240,223,208,197,184,169,161,153,147,138,135,130,124,118,107,104,100,100,100,99],"timestamp_mouse":[8,28,49,68,88,109,128,148,168,188,209,228,248,269,289,309,328,350,368,388,409,428,448,468,488,508,528,549,568,588,608,628,648,668,688,708,728,748,769,789,808,829,848,868,888,909,928,948,968,989,1008,1029,1049,1068,1088,1108,1129,1148,1169,1189,1208,1228,1249,1268],"xSR":741.5,"ySR":573.95,"xT1":424.9,"yT1":0,"xT2":1058.1,"yT2":0,"toosoon":0,"cond_shown":"equaldotsize","ratio_trial":500,"smaller_num":"9","larger_num":"18","correct_side":2,"subjID":"camilocarvajalsierra20","gender":"0","age":"11","school":"6"},{"start_time":1551881507231,"click_time":1551881508142,"finger_time":1551881507782,"fix_duration":989.1953252601285,"trial":45,"RT":551,"MT":360,"sideResp":2,"stimulus":"img/500/equaldotsize/R/14_Ratio_500_L_5_R_10.png","xmouse":[793,794,794,794,795,796,798,798,799,800,800,801,802,802,802,802,802,802,802,802,802,802,802,802,803,810,825,831,838,847,866,879,912,938,966,1005,1018,1029,1033,1038,1058,1067,1081,1083,1087,1092],"ymouse":[630,630,629,629,627,625,623,622,621,618,615,613,612,612,612,612,612,612,612,612,612,612,612,612,610,600,579,561,539,500,435,391,328,292,260,219,202,189,176,164,140,130,114,111,108,99],"timestamp_mouse":[16,30,50,70,90,111,130,152,170,190,210,230,251,271,290,310,330,350,370,391,410,430,450,470,490,510,530,551,570,591,610,630,650,670,690,710,730,750,770,791,810,830,850,870,890,911],"xSR":741.5,"ySR":573.95,"xT1":424.9,"yT1":0,"xT2":1058.1,"yT2":0,"toosoon":0,"cond_shown":"equaldotsize","ratio_trial":500,"smaller_num":"5","larger_num":"10","correct_side":2,"subjID":"camilocarvajalsierra20","gender":"0","age":"11","school":"6"},{"start_time":1551881510389,"click_time":1551881511921,"finger_time":1551881510881,"fix_duration":1387.1700700597971,"trial":46,"RT":492,"MT":1040,"sideResp":2,"stimulus":"img/900/randomdotsizeEA/R/12_Ratio_900_L_18_R_20.png","xmouse":[799,799,799,799,799,799,799,799,799,799,799,799,799,799,799,799,799,799,799,799,799,799,808,820,843,850,852,856,862,870,875,883,912,962,991,1007,1017,1022,1022,1022,1022,1022,1022,1022,1022,1022,1022,1022,1022,1022,1022,1022,1022,1022,1022,1022,1022,1022,1022,1022,1022,1022,1022,1022,1022,1022,1022,1022,1023,1024,1024,1025,1025,1027,1043,1054,1068],"ymouse":[619,619,619,619,619,619,619,619,619,619,619,619,619,619,619,619,619,619,619,619,617,614,603,589,558,538,526,492,463,437,415,389,338,290,265,251,241,234,234,234,234,234,234,234,234,234,234,234,234,234,234,234,234,234,234,234,234,234,234,234,234,234,234,234,234,234,234,234,232,230,220,204,155,146,114,100,85],"timestamp_mouse":[13,33,53,73,92,112,133,153,172,193,212,232,252,272,292,313,332,352,372,393,412,433,452,472,492,513,532,552,572,592,612,633,652,672,692,712,733,752,772,793,812,832,852,872,893,912,932,952,972,993,1012,1032,1052,1072,1092,1113,1134,1152,1172,1192,1213,1232,1253,1272,1292,1312,1332,1353,1372,1392,1412,1432,1452,1472,1492,1512,1532],"xSR":741.5,"ySR":573.95,"xT1":424.9,"yT1":0,"xT2":1058.1,"yT2":0,"toosoon":0,"cond_shown":"randomdotsizeEA","ratio_trial":900,"smaller_num":"18","larger_num":"20","correct_side":2,"subjID":"camilocarvajalsierra20","gender":"0","age":"11","school":"6"},{"start_time":1551881513197,"click_time":1551881514541,"finger_time":1551881513861,"fix_duration":434.6621732178115,"trial":47,"RT":664,"MT":680,"sideResp":2,"stimulus":"img/900/equaldotanddens/R/11_Ratio_900_L_18_R_20.png","xmouse":[797,797,797,797,797,797,797,797,797,797,797,797,797,797,797,797,797,797,797,797,797,797,797,797,797,797,797,797,798,798,798,797,781,772,753,739,721,694,688,679,671,666,661,661,661,661,661,661,661,665,682,714,796,836,845,845,845,852,856,862,866,873,889,898,914,946,995,1086],"ymouse":[616,616,616,616,616,616,616,616,616,616,616,616,616,616,616,616,616,616,616,616,616,616,616,616,616,616,616,616,613,611,607,603,581,564,534,512,484,436,419,395,373,359,348,348,347,347,347,347,347,347,347,347,347,347,345,345,343,302,276,256,240,221,188,170,148,128,106,78],"timestamp_mouse":[4,24,45,64,84,104,124,144,164,184,205,225,245,265,285,305,325,344,365,385,405,424,445,464,485,504,524,544,564,584,604,625,644,664,684,705,724,744,764,784,804,824,844,864,884,904,924,944,964,985,1004,1024,1044,1064,1084,1105,1125,1144,1164,1185,1204,1225,1244,1264,1285,1305,1324,1344],"xSR":741.5,"ySR":573.95,"xT1":424.9,"yT1":0,"xT2":1058.1,"yT2":0,"toosoon":0,"cond_shown":"equaldotanddens","ratio_trial":900,"smaller_num":"18","larger_num":"20","correct_side":2,"subjID":"camilocarvajalsierra20","gender":"0","age":"11","school":"6"},{"start_time":1551881517180,"click_time":1551881518121,"finger_time":1551881517701,"fix_duration":278.28087538782074,"trial":48,"RT":521,"MT":420,"sideResp":2,"stimulus":"img/500/equaldotanddens/R/15_Ratio_500_L_1_R_2.png","xmouse":[791,791,791,791,791,791,791,791,791,791,791,791,791,791,791,791,791,791,791,791,791,791,791,791,793,815,845,856,870,875,879,887,897,939,964,994,1019,1025,1032,1037,1037,1037,1037,1037,1040,1051,1058,1064],"ymouse":[636,636,636,636,636,636,636,636,636,636,636,636,636,636,636,636,636,636,636,636,636,636,636,636,634,612,585,569,538,524,507,482,450,372,334,297,266,255,240,224,208,195,176,152,138,119,107,95],"timestamp_mouse":[4,21,41,61,82,101,122,141,161,181,201,221,243,261,282,301,321,341,362,382,401,421,442,461,481,501,521,541,561,581,601,621,641,661,681,701,721,741,761,781,802,821,841,861,882,901,921,941],"xSR":741.5,"ySR":573.95,"xT1":424.9,"yT1":0,"xT2":1058.1,"yT2":0,"toosoon":0,"cond_shown":"equaldotanddens","ratio_trial":500,"smaller_num":"1","larger_num":"2","correct_side":2,"subjID":"camilocarvajalsierra20","gender":"0","age":"11","school":"6"},{"start_time":1551881519221,"click_time":1551881520641,"finger_time":1551881520002,"fix_duration":280.6055702442696,"trial":49,"RT":781,"MT":639,"sideResp":2,"stimulus":"img/500/randomdotsizeEA/R/2_Ratio_500_L_3_R_6.png","xmouse":[804,804,804,804,804,804,804,804,804,804,804,804,804,804,804,804,804,804,804,804,804,804,804,802,799,795,794,794,794,794,794,794,794,794,794,794,799,806,823,842,846,849,852,859,862,868,870,876,886,899,925,940,955,962,968,976,978,985,991,998,1008,1012,1015,1019,1022,1035,1040,1044,1051,1056,1069],"ymouse":[611,611,611,611,611,611,611,611,611,611,611,611,611,611,611,611,611,611,611,611,611,611,611,610,604,593,590,589,588,588,588,588,588,588,587,585,580,574,562,548,525,507,482,438,415,379,363,344,326,309,280,269,251,243,234,216,205,190,180,168,153,147,142,139,137,128,123,118,112,107,97],"timestamp_mouse":[22,40,61,81,101,120,141,161,181,200,221,241,261,280,301,320,341,360,380,401,420,440,460,481,500,521,541,560,580,601,620,640,660,680,700,720,740,760,781,800,820,840,860,880,900,920,940,960,980,1001,1020,1041,1060,1080,1100,1120,1140,1160,1180,1201,1220,1240,1261,1280,1300,1320,1341,1361,1380,1401,1420],"xSR":741.5,"ySR":573.95,"xT1":424.9,"yT1":0,"xT2":1058.1,"yT2":0,"toosoon":0,"cond_shown":"randomdotsizeEA","ratio_trial":500,"smaller_num":"3","larger_num":"6","correct_side":2,"subjID":"camilocarvajalsierra20","gender":"0","age":"11","school":"6"},{"start_time":1551881522058,"click_time":1551881523441,"finger_time":1551881522942,"fix_duration":536.3218824509938,"trial":50,"RT":884,"MT":499,"sideResp":2,"stimulus":"img/900/equaldotanddens/R/7_Ratio_900_L_9_R_10.png","xmouse":[797,797,797,797,797,797,797,797,797,797,797,797,797,797,797,797,797,797,797,797,797,797,797,797,797,796,796,796,796,796,796,796,796,796,796,796,796,796,796,796,796,796,798,803,838,855,877,917,973,1072,1106,1121,1132,1144,1154,1154,1156,1159,1162,1163,1163,1163,1161,1161,1158,1157,1154,1152,1149,1146],"ymouse":[627,627,627,627,627,627,627,627,627,627,627,627,627,627,627,627,627,627,627,627,627,627,627,627,627,627,627,627,627,627,627,627,627,627,627,627,627,627,627,627,627,624,617,602,525,477,429,380,332,259,226,213,199,186,175,173,166,157,151,139,135,130,126,124,115,111,107,103,100,94],"timestamp_mouse":[5,23,43,65,84,104,123,143,163,185,203,224,245,264,283,303,324,345,363,383,403,424,444,463,483,503,525,545,564,584,604,623,643,664,683,703,723,743,763,783,804,823,843,863,884,903,923,943,963,983,1004,1023,1043,1063,1083,1103,1123,1143,1164,1183,1204,1223,1243,1263,1283,1303,1323,1344,1364,1383],"xSR":741.5,"ySR":573.95,"xT1":424.9,"yT1":0,"xT2":1058.1,"yT2":0,"toosoon":0,"cond_shown":"equaldotanddens","ratio_trial":900,"smaller_num":"9","larger_num":"10","correct_side":2,"subjID":"camilocarvajalsierra20","gender":"0","age":"11","school":"6"},{"start_time":1551881525171,"click_time":1551881526862,"finger_time":1551881525942,"fix_duration":867.9565565823154,"trial":51,"RT":771,"MT":920,"sideResp":1,"stimulus":"img/750/equaldotsize/L/8_Ratio_750_L_4_R_3.png","xmouse":[813,813,813,813,813,813,813,813,813,813,813,813,813,813,813,813,813,813,813,813,813,813,813,813,813,813,813,813,813,813,813,813,813,813,813,813,815,820,860,880,893,899,900,900,900,900,900,900,900,900,900,900,897,862,811,762,704,647,567,536,512,493,473,408,387,378,373,372,372,372,372,375,380,385,388,389,390,392,397,402,404,408,413,423,427],"ymouse":[617,617,617,617,617,617,617,617,617,617,617,617,617,617,617,617,617,617,617,617,617,617,617,617,617,617,617,617,617,617,617,617,617,617,617,617,617,613,583,569,560,556,555,553,551,551,551,551,551,551,551,550,550,542,520,489,443,392,311,273,248,230,216,146,111,89,73,62,48,42,36,31,26,23,23,23,23,23,28,35,39,45,52,64,69],"timestamp_mouse":[10,30,51,70,90,111,130,150,170,191,211,231,250,271,292,310,330,351,371,390,410,430,450,470,490,511,531,550,571,591,611,631,652,671,690,710,730,750,771,790,810,830,851,870,890,911,931,951,971,992,1010,1030,1050,1070,1091,1110,1130,1150,1170,1190,1210,1230,1250,1271,1290,1310,1331,1350,1370,1390,1411,1431,1450,1471,1491,1511,1532,1551,1570,1590,1610,1630,1650,1670,1691],"xSR":741.5,"ySR":573.95,"xT1":424.9,"yT1":0,"xT2":1058.1,"yT2":0,"toosoon":0,"cond_shown":"equaldotsize","ratio_trial":750,"smaller_num":"3","larger_num":"4","correct_side":1,"subjID":"camilocarvajalsierra20","gender":"0","age":"11","school":"6"},{"start_time":1551881528150,"click_time":1551881529201,"finger_time":1551881528681,"fix_duration":549.3288466783741,"trial":52,"RT":531,"MT":520,"sideResp":2,"stimulus":"img/750/equaldotanddens/R/12_Ratio_750_L_3_R_4.png","xmouse":[776,776,776,776,776,776,776,776,776,776,776,776,776,776,776,776,776,776,776,776,790,791,792,792,793,806,816,820,825,831,844,869,907,958,1016,1032,1044,1055,1069,1087,1094,1100,1102,1102,1105,1105,1105,1105,1105,1106,1107,1108,1110],"ymouse":[640,640,640,640,640,640,640,640,640,640,640,640,640,640,640,640,640,640,640,640,631,630,629,628,620,574,540,520,503,484,465,436,405,373,336,316,301,290,271,242,230,220,213,204,182,164,149,138,127,113,106,100,93],"timestamp_mouse":[14,31,52,72,91,111,131,152,171,191,212,232,251,271,292,312,332,351,371,391,411,431,452,472,491,511,531,551,571,591,611,631,651,671,691,712,731,751,771,792,811,831,851,871,891,911,931,951,972,991,1011,1031,1051],"xSR":741.5,"ySR":573.95,"xT1":424.9,"yT1":0,"xT2":1058.1,"yT2":0,"toosoon":0,"cond_shown":"equaldotanddens","ratio_trial":750,"smaller_num":"3","larger_num":"4","correct_side":2,"subjID":"camilocarvajalsierra20","gender":"0","age":"11","school":"6"},{"start_time":1551881530663,"click_time":1551881531521,"finger_time":1551881531142,"fix_duration":601.9343170508976,"trial":53,"RT":479,"MT":379,"sideResp":1,"stimulus":"img/250/equaldotsize/L/1_Ratio_250_L_8_R_2.png","xmouse":[789,789,789,789,789,789,789,789,789,789,789,789,789,789,789,789,789,789,789,789,789,788,785,765,754,740,728,719,701,685,674,660,651,629,618,607,596,582,558,542,531,521,513],"ymouse":[622,622,622,622,622,622,622,622,622,622,622,622,622,622,622,622,622,622,622,622,622,622,613,557,516,467,419,383,332,298,273,253,242,217,204,191,179,168,146,128,114,102,93],"timestamp_mouse":[18,38,59,78,98,118,139,158,178,198,219,238,259,279,299,319,339,358,379,398,418,439,458,479,498,519,538,560,578,598,618,638,658,678,698,718,738,760,778,798,818,838,858],"xSR":741.5,"ySR":573.95,"xT1":424.9,"yT1":0,"xT2":1058.1,"yT2":0,"toosoon":0,"cond_shown":"equaldotsize","ratio_trial":250,"smaller_num":"2","larger_num":"8","correct_side":1,"subjID":"camilocarvajalsierra20","gender":"0","age":"11","school":"6"},{"start_time":1551881533655,"click_time":1551881534942,"finger_time":1551881534682,"fix_duration":1313.4954315492253,"trial":54,"RT":1027,"MT":260,"sideResp":1,"stimulus":"img/750/equaldotanddens/L/6_Ratio_750_L_24_R_18.png","xmouse":[786,786,786,786,786,786,786,786,786,786,786,786,786,786,786,786,786,786,786,786,786,786,786,786,786,786,786,786,786,786,786,786,786,786,786,786,786,786,786,786,786,786,786,786,786,786,786,786,786,784,778,758,734,704,645,618,596,573,559,534,524,520,514,512,507],"ymouse":[636,636,636,636,636,636,636,636,636,636,636,636,636,636,636,636,636,636,636,636,636,636,636,636,636,636,636,636,636,636,636,636,636,636,636,636,636,636,636,636,636,636,636,636,636,636,636,636,635,627,608,567,524,471,368,318,278,243,217,170,145,130,115,105,88],"timestamp_mouse":[8,27,46,67,86,106,126,146,166,186,206,227,246,268,287,306,326,346,366,388,407,428,446,466,486,506,528,547,566,586,607,626,647,666,686,706,727,747,766,787,806,826,846,866,886,906,926,946,967,986,1006,1027,1046,1066,1086,1106,1127,1146,1166,1186,1207,1226,1247,1266,1287],"xSR":741.5,"ySR":573.95,"xT1":424.9,"yT1":0,"xT2":1058.1,"yT2":0,"toosoon":0,"cond_shown":"equaldotanddens","ratio_trial":750,"smaller_num":"18","larger_num":"24","correct_side":1,"subjID":"camilocarvajalsierra20","gender":"0","age":"11","school":"6"},{"start_time":1551881538178,"click_time":1551881539142,"finger_time":1551881538981,"fix_duration":1016.1635304969349,"trial":55,"RT":803,"MT":161,"sideResp":1,"stimulus":"img/500/randomdotsizeEA/L/13_Ratio_500_L_12_R_6.png","xmouse":[785,785,785,785,785,785,785,785,785,785,785,785,785,785,785,785,785,785,785,785,785,785,785,785,785,785,785,785,785,785,785,785,785,785,785,785,785,783,774,756,721,675,627,562,545,536,533,530,513],"ymouse":[634,634,634,634,634,634,634,634,634,634,634,634,634,634,634,634,634,634,634,634,634,634,634,634,634,634,634,634,634,634,634,634,634,634,634,634,634,632,614,578,517,449,381,253,203,159,139,117,72],"timestamp_mouse":[3,24,43,63,83,104,123,143,164,185,203,223,244,264,283,303,324,343,363,383,403,423,445,463,483,503,523,544,563,583,604,623,644,663,683,704,723,743,763,783,803,823,843,864,883,903,923,943,963],"xSR":741.5,"ySR":573.95,"xT1":424.9,"yT1":0,"xT2":1058.1,"yT2":0,"toosoon":0,"cond_shown":"randomdotsizeEA","ratio_trial":500,"smaller_num":"6","larger_num":"12","correct_side":1,"subjID":"camilocarvajalsierra20","gender":"0","age":"11","school":"6"},{"start_time":1551881541138,"click_time":1551881541981,"finger_time":1551881541641,"fix_duration":1194.811901453397,"trial":56,"RT":503,"MT":340,"sideResp":1,"stimulus":"img/250/equaldotanddens/L/7_Ratio_250_L_8_R_2.png","xmouse":[804,804,804,804,804,804,804,804,804,804,804,804,804,804,804,804,804,804,804,804,804,804,800,794,782,744,724,682,656,632,596,584,576,568,561,550,544,534,526,520,503,494,488],"ymouse":[635,635,635,635,635,635,635,635,635,635,635,635,635,635,635,635,635,635,635,635,635,635,630,621,604,551,517,463,422,382,315,292,273,255,238,212,202,185,171,157,124,109,98],"timestamp_mouse":[3,25,43,64,83,103,125,143,164,184,203,225,243,263,283,303,323,345,364,383,404,425,443,463,483,503,523,543,565,583,603,623,643,663,683,703,723,743,764,783,803,823,843],"xSR":741.5,"ySR":573.95,"xT1":424.9,"yT1":0,"xT2":1058.1,"yT2":0,"toosoon":0,"cond_shown":"equaldotanddens","ratio_trial":250,"smaller_num":"2","larger_num":"8","correct_side":1,"subjID":"camilocarvajalsierra20","gender":"0","age":"11","school":"6"},{"start_time":1551881544039,"click_time":1551881544721,"finger_time":1551881544441,"fix_duration":1257.144335689314,"trial":57,"RT":402,"MT":280,"sideResp":1,"stimulus":"img/250/randomdotsizeEA/L/5_Ratio_250_L_24_R_6.png","xmouse":[774,774,774,774,774,774,774,774,774,774,774,774,774,774,775,776,778,779,779,779,762,747,735,718,697,662,644,630,611,593,562,543,532,523,516],"ymouse":[627,627,627,627,627,627,627,627,627,627,627,627,627,627,626,622,614,608,604,599,567,535,507,467,425,339,299,266,234,203,157,128,112,100,87],"timestamp_mouse":[3,22,42,62,82,103,123,142,162,183,203,222,242,263,282,303,322,342,363,383,402,423,442,462,482,503,522,542,562,583,602,622,642,662,682],"xSR":741.5,"ySR":573.95,"xT1":424.9,"yT1":0,"xT2":1058.1,"yT2":0,"toosoon":0,"cond_shown":"randomdotsizeEA","ratio_trial":250,"smaller_num":"6","larger_num":"24","correct_side":1,"subjID":"camilocarvajalsierra20","gender":"0","age":"11","school":"6"},{"start_time":1551881546826,"click_time":1551881547701,"finger_time":1551881547321,"fix_duration":1103.9526395449525,"trial":58,"RT":495,"MT":380,"sideResp":1,"stimulus":"img/500/equaldotsize/L/11_Ratio_500_L_12_R_6.png","xmouse":[785,785,785,785,785,785,785,785,785,785,785,785,785,785,785,785,785,785,785,785,783,781,770,762,758,739,731,725,719,713,700,687,683,673,661,642,632,622,609,595,562,538,524,513],"ymouse":[610,610,610,610,610,610,610,610,610,610,610,610,610,610,610,610,610,610,610,610,610,608,594,582,572,530,510,494,477,456,410,365,351,319,294,248,226,209,190,174,138,116,105,95],"timestamp_mouse":[18,35,55,75,96,116,135,156,175,195,215,235,255,276,295,315,335,357,375,395,415,435,455,475,495,515,535,556,575,596,615,635,655,675,695,715,735,756,775,796,816,835,855,875],"xSR":741.5,"ySR":573.95,"xT1":424.9,"yT1":0,"xT2":1058.1,"yT2":0,"toosoon":0,"cond_shown":"equaldotsize","ratio_trial":500,"smaller_num":"6","larger_num":"12","correct_side":1,"subjID":"camilocarvajalsierra20","gender":"0","age":"11","school":"6"},{"start_time":1551881549946,"click_time":1551881550941,"finger_time":1551881550521,"fix_duration":1425.350117720977,"trial":59,"RT":575,"MT":420,"sideResp":2,"stimulus":"img/250/equaldotanddens/R/8_Ratio_250_L_1_R_4.png","xmouse":[778,778,778,778,778,778,778,778,778,778,778,778,778,778,778,778,778,778,778,778,778,778,779,779,779,780,782,786,794,803,808,815,831,881,1014,1052,1075,1084,1093,1113,1118,1125,1127,1129,1129,1130,1130,1129,1128,1125],"ymouse":[605,605,605,605,605,605,605,605,605,605,605,605,605,605,605,605,605,605,605,605,605,605,606,606,601,592,586,574,554,531,518,502,478,440,364,343,324,317,301,258,237,218,201,188,159,145,129,119,110,97],"timestamp_mouse":[15,35,55,76,95,116,135,156,175,196,215,235,255,275,295,316,336,355,376,397,416,436,455,475,495,515,535,555,575,595,615,635,655,675,695,715,735,755,775,795,815,835,855,876,895,915,935,956,975,995],"xSR":741.5,"ySR":573.95,"xT1":424.9,"yT1":0,"xT2":1058.1,"yT2":0,"toosoon":0,"cond_shown":"equaldotanddens","ratio_trial":250,"smaller_num":"1","larger_num":"4","correct_side":2,"subjID":"camilocarvajalsierra20","gender":"0","age":"11","school":"6"},{"start_time":1551881552141,"click_time":1551881553001,"finger_time":1551881552661,"fix_duration":400.4266342295514,"trial":60,"RT":520,"MT":340,"sideResp":2,"stimulus":"img/250/equaldotanddens/R/9_Ratio_250_L_3_R_12.png","xmouse":[792,792,792,792,792,792,792,792,792,792,792,792,792,792,792,792,792,792,792,792,792,792,792,795,800,804,818,832,841,876,924,975,1023,1048,1076,1086,1101,1110,1116,1119,1121,1121,1121],"ymouse":[608,608,608,608,608,608,608,608,608,608,608,608,608,608,608,608,608,608,608,608,608,608,606,599,582,565,528,497,476,428,388,355,326,305,268,247,212,185,161,129,115,103,90],"timestamp_mouse":[21,40,60,80,102,120,140,160,181,202,221,241,260,280,301,321,340,362,381,400,420,440,460,481,500,520,540,560,580,600,620,641,660,681,700,720,742,761,780,800,820,840,860],"xSR":741.5,"ySR":573.95,"xT1":424.9,"yT1":0,"xT2":1058.1,"yT2":0,"toosoon":0,"cond_shown":"equaldotanddens","ratio_trial":250,"smaller_num":"3","larger_num":"12","correct_side":2,"subjID":"camilocarvajalsierra20","gender":"0","age":"11","school":"6"},{"start_time":1551881554364,"click_time":1551881555441,"finger_time":1551881554981,"fix_duration":661.0677445606383,"trial":61,"RT":617,"MT":460,"sideResp":2,"stimulus":"img/500/randomdotsizeEA/R/12_Ratio_500_L_1_R_2.png","xmouse":[780,780,780,780,780,780,780,780,780,780,780,780,780,780,780,780,780,780,780,780,787,793,795,795,795,797,799,802,807,810,812,816,820,830,841,877,918,959,995,1011,1021,1032,1043,1062,1067,1075,1083,1092,1109,1113,1117,1120,1122,1126],"ymouse":[645,645,645,645,645,645,645,645,645,645,645,645,645,645,645,645,645,645,645,645,641,638,636,636,633,625,617,608,588,578,571,558,541,518,504,473,442,415,379,363,348,328,307,271,258,235,214,195,158,147,137,128,118,98],"timestamp_mouse":[17,37,58,78,97,117,137,157,177,197,217,238,257,278,298,318,338,357,377,398,417,438,457,477,499,517,537,557,577,597,617,637,657,677,697,717,738,757,777,797,817,837,858,877,897,917,937,957,977,997,1017,1037,1057,1077],"xSR":741.5,"ySR":573.95,"xT1":424.9,"yT1":0,"xT2":1058.1,"yT2":0,"toosoon":0,"cond_shown":"randomdotsizeEA","ratio_trial":500,"smaller_num":"1","larger_num":"2","correct_side":2,"subjID":"camilocarvajalsierra20","gender":"0","age":"11","school":"6"},{"start_time":1551881557289,"click_time":1551881558141,"finger_time":1551881557721,"fix_duration":847.3746730746526,"trial":62,"RT":432,"MT":420,"sideResp":1,"stimulus":"img/750/equaldotanddens/L/8_Ratio_750_L_4_R_3.png","xmouse":[796,796,796,796,796,796,796,796,796,796,796,796,796,796,796,796,796,797,797,797,795,791,774,763,753,743,735,719,711,706,693,687,667,655,644,631,620,597,582,568,546,529,503],"ymouse":[615,615,615,615,615,615,615,615,615,615,615,615,615,615,615,615,615,615,611,604,587,568,513,488,465,444,426,389,371,356,326,311,270,249,231,214,197,157,138,122,105,93,74],"timestamp_mouse":[12,33,52,73,93,113,133,153,172,193,212,232,252,272,294,312,333,352,374,392,413,432,452,472,492,512,532,552,572,592,612,632,652,672,692,712,733,752,772,792,812,832,852],"xSR":741.5,"ySR":573.95,"xT1":424.9,"yT1":0,"xT2":1058.1,"yT2":0,"toosoon":0,"cond_shown":"equaldotanddens","ratio_trial":750,"smaller_num":"3","larger_num":"4","correct_side":1,"subjID":"camilocarvajalsierra20","gender":"0","age":"11","school":"6"},{"start_time":1551881559276,"click_time":1551881560481,"finger_time":1551881559742,"fix_duration":373.8793503817291,"trial":63,"RT":466,"MT":739,"sideResp":2,"stimulus":"img/500/equaldotsize/R/9_Ratio_500_L_2_R_4.png","xmouse":[816,816,816,816,816,816,816,816,816,816,816,816,816,816,816,816,816,816,816,816,816,816,824,860,868,872,879,883,895,905,916,945,966,1009,1024,1034,1038,1039,1040,1040,1040,1040,1041,1043,1044,1044,1044,1044,1044,1044,1044,1044,1044,1044,1044,1044,1044,1044,1047,1050,1060],"ymouse":[627,627,627,627,627,627,627,627,627,627,627,627,627,627,627,627,627,627,627,627,627,627,617,567,542,522,498,476,417,375,346,300,269,219,200,185,171,152,129,117,105,94,80,58,53,47,44,40,39,39,39,39,39,39,39,39,39,39,39,41,43],"timestamp_mouse":[6,26,45,65,85,105,125,145,165,185,205,225,245,265,285,306,326,345,365,385,405,425,445,466,485,505,525,545,565,585,605,625,645,665,686,705,725,746,765,785,805,825,845,866,885,906,925,945,965,985,1005,1025,1045,1065,1085,1106,1127,1146,1165,1185,1205],"xSR":741.5,"ySR":573.95,"xT1":424.9,"yT1":0,"xT2":1058.1,"yT2":0,"toosoon":0,"cond_shown":"equaldotsize","ratio_trial":500,"smaller_num":"2","larger_num":"4","correct_side":2,"subjID":"camilocarvajalsierra20","gender":"0","age":"11","school":"6"},{"start_time":1551881562169,"click_time":1551881562941,"finger_time":1551881562561,"fix_duration":647.0887818688753,"trial":64,"RT":392,"MT":380,"sideResp":1,"stimulus":"img/750/equaldotanddens/L/10_Ratio_750_L_4_R_3.png","xmouse":[805,805,805,805,805,805,805,805,805,805,805,805,805,805,805,805,800,793,776,761,742,729,715,694,685,677,667,660,638,626,616,604,596,577,567,552,542,535,523],"ymouse":[614,614,614,614,614,614,614,614,614,614,614,614,614,614,614,614,606,598,575,553,526,505,481,433,411,391,361,338,278,253,232,211,195,164,149,128,117,107,91],"timestamp_mouse":[12,33,53,72,92,112,134,152,173,192,213,233,253,272,293,312,333,352,373,392,413,432,452,472,492,512,532,552,572,592,612,632,653,672,693,712,732,752,772],"xSR":741.5,"ySR":573.95,"xT1":424.9,"yT1":0,"xT2":1058.1,"yT2":0,"toosoon":0,"cond_shown":"equaldotanddens","ratio_trial":750,"smaller_num":"3","larger_num":"4","correct_side":1,"subjID":"camilocarvajalsierra20","gender":"0","age":"11","school":"6"},{"start_time":1551881565169,"click_time":1551881565782,"finger_time":1551881565621,"fix_duration":1425.9782975935063,"trial":65,"RT":452,"MT":161,"sideResp":1,"stimulus":"img/500/equaldotanddens/L/4_Ratio_500_L_18_R_9.png","xmouse":[783,783,783,783,783,783,783,783,783,783,783,783,783,783,783,783,783,783,783,783,780,768,755,695,649,607,551,522,486,477,472],"ymouse":[601,601,601,601,601,601,601,601,601,601,601,601,601,601,601,601,601,601,601,600,596,583,564,478,410,340,242,191,122,100,82],"timestamp_mouse":[13,32,52,73,93,113,132,152,174,193,212,232,252,273,292,313,333,352,374,392,412,432,452,472,493,513,532,552,572,592,613],"xSR":741.5,"ySR":573.95,"xT1":424.9,"yT1":0,"xT2":1058.1,"yT2":0,"toosoon":0,"cond_shown":"equaldotanddens","ratio_trial":500,"smaller_num":"9","larger_num":"18","correct_side":1,"subjID":"camilocarvajalsierra20","gender":"0","age":"11","school":"6"},{"start_time":1551881567054,"click_time":1551881568481,"finger_time":1551881567641,"fix_duration":391.3986459332418,"trial":66,"RT":587,"MT":840,"sideResp":1,"stimulus":"img/750/equaldotanddens/L/9_Ratio_750_L_4_R_3.png","xmouse":[769,769,769,769,769,769,769,769,769,769,769,769,769,769,769,769,769,769,769,769,769,769,769,770,784,802,823,833,833,833,834,838,845,850,858,865,873,892,915,934,934,934,934,934,934,934,934,929,918,816,652,573,514,484,430,407,391,375,364,356,355,355,356,358,363,363,366,372,380,407,423,430],"ymouse":[614,614,614,614,614,614,614,614,614,614,614,614,614,614,614,614,614,614,614,614,614,614,614,615,607,597,584,576,575,573,548,530,510,492,463,447,431,409,390,371,371,371,371,371,371,371,371,368,365,321,262,223,188,167,119,97,78,61,45,21,18,16,12,10,8,8,8,13,22,42,49,52],"timestamp_mouse":[8,27,48,67,87,108,128,147,167,187,208,227,248,267,287,308,327,347,367,388,408,427,447,467,488,507,527,547,567,587,607,627,647,667,687,707,727,747,768,787,808,827,847,867,887,907,927,948,968,987,1007,1027,1047,1067,1088,1107,1128,1147,1168,1187,1207,1228,1247,1267,1287,1307,1327,1347,1367,1387,1407,1427],"xSR":741.5,"ySR":573.95,"xT1":424.9,"yT1":0,"xT2":1058.1,"yT2":0,"toosoon":0,"cond_shown":"equaldotanddens","ratio_trial":750,"smaller_num":"3","larger_num":"4","correct_side":1,"subjID":"camilocarvajalsierra20","gender":"0","age":"11","school":"6"},{"start_time":1551881570584,"click_time":1551881571761,"finger_time":1551881571142,"fix_duration":981.267945081392,"trial":67,"RT":558,"MT":619,"sideResp":2,"stimulus":"img/500/equaldotsize/R/15_Ratio_500_L_1_R_2.png","xmouse":[800,800,797,789,779,773,773,773,773,773,773,773,773,773,773,773,773,773,773,773,773,773,773,773,773,786,809,905,927,937,942,947,957,969,976,980,981,988,992,997,1003,1014,1041,1051,1053,1057,1059,1067,1069,1070,1073,1073,1074,1075,1076,1076,1077,1080,1083],"ymouse":[621,621,625,629,633,634,634,634,634,634,634,634,634,634,634,634,634,634,634,634,634,634,634,634,634,618,600,521,490,469,451,433,399,368,351,335,320,288,274,257,238,216,180,161,148,141,134,123,118,115,111,111,109,108,107,106,106,101,99],"timestamp_mouse":[18,38,57,79,97,117,139,157,177,197,217,238,257,278,297,318,337,357,378,397,417,437,457,478,498,517,537,558,577,597,617,637,657,678,697,717,737,758,777,798,817,838,859,878,898,917,937,957,977,997,1017,1038,1057,1078,1097,1118,1137,1157,1177],"xSR":741.5,"ySR":573.95,"xT1":424.9,"yT1":0,"xT2":1058.1,"yT2":0,"toosoon":0,"cond_shown":"equaldotsize","ratio_trial":500,"smaller_num":"1","larger_num":"2","correct_side":2,"subjID":"camilocarvajalsierra20","gender":"0","age":"11","school":"6"},{"start_time":1551881573501,"click_time":1551881574541,"finger_time":1551881574261,"fix_duration":779.2109334490749,"trial":68,"RT":760,"MT":280,"sideResp":2,"stimulus":"img/900/equaldotanddens/R/12_Ratio_900_L_18_R_20.png","xmouse":[821,821,821,821,821,821,821,821,821,821,821,821,821,821,821,821,821,821,821,821,821,821,821,821,821,821,821,821,821,821,821,821,821,820,820,821,825,834,845,862,884,902,941,965,990,1025,1060,1092,1097,1097,1094,1094,1094],"ymouse":[630,630,630,630,630,630,630,630,630,630,630,630,630,630,630,630,630,630,630,630,630,630,630,630,630,630,630,630,630,630,630,630,630,630,627,622,615,603,591,577,560,542,495,459,417,356,280,186,150,134,118,112,88],"timestamp_mouse":[1,20,40,61,80,100,120,140,160,181,201,221,241,260,281,300,320,340,360,381,400,421,440,460,481,501,520,540,560,581,601,620,640,660,680,700,720,740,760,780,800,820,840,860,880,900,920,940,961,980,1000,1020,1040],"xSR":741.5,"ySR":573.95,"xT1":424.9,"yT1":0,"xT2":1058.1,"yT2":0,"toosoon":0,"cond_shown":"equaldotanddens","ratio_trial":900,"smaller_num":"18","larger_num":"20","correct_side":2,"subjID":"camilocarvajalsierra20","gender":"0","age":"11","school":"6"},{"start_time":1551881575892,"click_time":1551881577041,"finger_time":1551881576542,"fix_duration":250,"trial":69,"RT":650,"MT":499,"sideResp":2,"stimulus":"img/250/equaldotsize/R/8_Ratio_250_L_1_R_4.png","xmouse":[777,777,777,777,777,777,777,777,777,777,777,777,777,777,777,777,777,777,777,777,777,777,777,780,782,785,787,787,787,787,790,794,808,817,826,841,854,885,911,918,926,934,951,960,970,977,984,990,1002,1010,1013,1020,1039,1047,1055,1060,1066,1082],"ymouse":[620,620,620,620,620,620,620,620,620,620,620,620,620,620,620,620,620,620,620,620,620,620,620,613,609,604,601,600,600,599,593,584,559,549,537,520,504,460,419,397,375,352,308,290,271,253,233,221,195,181,176,165,144,136,127,122,114,99],"timestamp_mouse":[10,30,49,70,89,109,130,149,169,189,209,229,249,269,289,309,330,349,369,390,410,429,450,470,489,509,530,550,571,589,610,629,650,669,689,709,730,750,770,789,809,829,849,869,890,909,929,949,969,989,1009,1031,1049,1069,1090,1109,1129,1149],"xSR":741.5,"ySR":573.95,"xT1":424.9,"yT1":0,"xT2":1058.1,"yT2":0,"toosoon":0,"cond_shown":"equaldotsize","ratio_trial":250,"smaller_num":"1","larger_num":"4","correct_side":2,"subjID":"camilocarvajalsierra20","gender":"0","age":"11","school":"6"},{"start_time":1551881579215,"click_time":1551881580121,"finger_time":1551881579742,"fix_duration":1332.5213387662072,"trial":70,"RT":527,"MT":379,"sideResp":2,"stimulus":"img/750/equaldotanddens/R/11_Ratio_750_L_12_R_16.png","xmouse":[801,801,801,801,801,801,801,801,801,801,801,801,801,801,801,801,801,801,801,801,801,801,801,801,801,801,816,853,897,935,970,1008,1022,1033,1042,1047,1060,1066,1071,1074,1076,1077,1078,1079,1080,1082],"ymouse":[616,616,616,616,616,616,616,616,616,616,616,616,616,616,616,616,616,616,616,616,616,616,616,616,616,616,571,510,440,376,331,280,258,240,223,211,183,166,155,145,134,118,113,110,105,99],"timestamp_mouse":[6,26,46,66,87,108,126,147,166,187,206,226,246,266,286,306,326,346,367,386,406,427,446,467,486,507,527,546,566,586,606,626,647,666,686,706,726,746,766,786,807,827,846,866,886,906],"xSR":741.5,"ySR":573.95,"xT1":424.9,"yT1":0,"xT2":1058.1,"yT2":0,"toosoon":0,"cond_shown":"equaldotanddens","ratio_trial":750,"smaller_num":"12","larger_num":"16","correct_side":2,"subjID":"camilocarvajalsierra20","gender":"0","age":"11","school":"6"},{"start_time":1551881582202,"click_time":1551881583741,"finger_time":1551881582681,"fix_duration":1300.2357166454892,"trial":71,"RT":479,"MT":1060,"sideResp":1,"stimulus":"img/750/randomdotsizeEA/L/8_Ratio_750_L_4_R_3.png","xmouse":[815,815,815,815,815,815,815,815,815,815,815,815,815,815,815,815,815,815,815,815,814,803,793,777,757,739,710,705,701,697,695,692,691,690,690,690,690,690,690,690,690,690,690,690,690,690,695,698,699,701,705,710,710,710,710,710,685,656,622,590,564,535,525,521,518,515,508,505,505,504,502,496,489,487,484,482,477],"ymouse":[606,606,606,606,606,606,606,606,606,606,606,606,606,606,606,606,606,606,606,606,606,597,584,568,546,527,490,479,467,455,445,434,427,425,425,425,425,425,425,425,425,427,449,468,487,504,534,543,548,551,556,559,559,559,559,559,515,460,401,350,307,258,240,231,221,208,190,187,183,180,175,158,147,140,129,115,83],"timestamp_mouse":[19,40,59,79,99,120,139,159,179,199,219,240,260,280,299,319,339,361,380,399,419,439,459,479,499,519,539,559,580,599,619,639,660,679,699,721,739,759,779,799,819,839,859,879,899,919,939,959,979,999,1019,1039,1059,1079,1099,1119,1139,1159,1179,1199,1219,1239,1260,1279,1299,1319,1339,1359,1380,1399,1419,1439,1460,1479,1500,1519,1539],"xSR":741.5,"ySR":573.95,"xT1":424.9,"yT1":0,"xT2":1058.1,"yT2":0,"toosoon":0,"cond_shown":"randomdotsizeEA","rat