[{"start_time":1551880582727,"click_time":1551880590456,"finger_time":1551880582736,"fix_duration":250,"trial":0,"RT":9,"MT":7720,"sideResp":1,"stimulus":[],"xmouse":[796,795,795,795,795,795,795,795,795,795,795,795,795,795,795,795,795,795,795,795,795,795,795,795,795,794,794,787,784,781,780,779,779,779,779,779,779,779,779,779,779,779,779,779,779,779,779,779,779,779,779,779,779,779,779,779,779,779,779,779,779,779,779,779,779,779,779,779,779,779,779,779,779,779,779,779,779,779,779,779,779,779,779,779,779,779,779,779,779,779,779,779,779,779,779,779,780,780,781,782,783,785,788,790,791,792,794,796,797,797,797,797,797,797,793,791,786,780,776,774,773,770,770,770,770,790,805,859,870,870,870,853,790,769,761,758,758,783,792,814,817,813,789,774,758,745,743,751,758,783,807,821,830,830,824,809,791,790,790,796,806,815,821,821,820,816,803,795,794,793,793,793,793,792,791,790,791,792,793,793,793,788,767,757,750,746,745,745,745,744,744,744,739,739,739,743,746,748,749,752,756,760,769,773,776,780,790,800,805,814,817,820,820,820,817,814,809,805,804,804,804,804,803,803,806,819,842,909,961,984,997,999,995,979,955,926,898,865,866,885,940,1042,1239,1283,1287,1270,1200,966,855,782,781,787,887,956,998,1013,1003,988,965,930,912,897,884,881,877,870,866,855,852,850,849,846,839,834,828,822,817,805,801,799,799,799,799,799,799,799,799,799,799,799,799,799,799,799,799,799,799,799,799,799,799,799,799,799,799,799,799,799,799,799,799,799,799,799,799,799,799,799,799,799,799,799,799,799,799,799,799,799,799,799,799,799,799,799,799,799,799,795,794,793,791,788,786,785,784,783,782,780,778,774,772,760,754,751,748,742,736,733,733,731,723,708,666,639,609,591,585,579,575,573,571,569,565,561,557,554,550,543,540,534,530,519,517,515,513,512,510],"ymouse":[546,546,546,546,546,546,546,546,546,546,546,546,546,546,546,546,546,546,546,546,546,546,546,546,546,546,546,562,575,584,596,604,613,614,614,614,614,614,614,614,614,614,614,614,614,614,614,614,614,614,614,614,616,617,618,618,618,618,618,618,618,618,618,618,618,618,618,618,618,618,618,618,618,618,618,618,618,618,618,619,619,619,619,619,619,619,619,619,619,619,619,619,619,619,619,619,620,620,620,620,620,620,620,620,620,620,620,620,621,621,621,621,621,621,621,621,621,621,621,621,621,620,620,620,620,617,615,612,615,615,616,617,614,607,599,593,591,591,599,645,668,682,687,685,674,660,649,640,640,671,698,714,725,726,726,721,708,703,701,697,695,695,695,695,694,693,689,684,683,681,681,680,664,656,650,647,642,628,615,599,581,556,532,529,527,526,526,526,526,527,534,551,588,601,614,625,632,636,637,637,637,637,637,637,636,631,612,590,581,556,541,524,488,475,460,451,443,437,436,436,436,436,436,437,441,448,454,465,480,490,497,499,499,499,498,488,474,449,426,412,392,369,368,386,400,413,431,439,426,411,410,410,431,471,519,566,610,617,620,620,620,618,617,616,614,612,610,604,601,599,598,598,598,598,600,601,604,609,611,611,611,611,611,611,611,611,611,611,611,611,611,611,611,611,611,611,611,611,611,611,611,611,611,611,611,611,611,611,611,611,611,611,611,611,611,611,611,611,611,611,611,611,611,611,611,611,611,611,611,611,611,611,611,611,611,611,611,605,603,602,598,595,594,594,594,593,593,593,591,589,587,576,570,566,564,558,553,551,551,550,541,525,485,460,434,420,413,399,388,382,376,366,338,323,309,292,276,253,241,222,206,163,139,121,111,106,95],"timestamp_mouse":[9,28,49,68,89,109,129,149,168,188,208,228,248,269,288,308,328,348,369,389,408,428,448,467,488,508,529,549,568,588,609,628,648,668,688,708,728,749,768,789,808,829,848,869,888,908,928,947,969,988,1009,1029,1047,1068,1087,1108,1128,1148,1167,1188,1209,1228,1248,1268,1288,1308,1329,1349,1368,1388,1409,1428,1449,1468,1488,1508,1529,1548,1568,1588,1608,1627,1648,1669,1688,1708,1728,1748,1769,1788,1808,1828,1847,1868,1888,1908,1929,1949,1968,1988,2009,2028,2048,2068,2088,2108,2128,2149,2169,2188,2208,2228,2248,2268,2288,2308,2328,2349,2368,2388,2408,2429,2448,2469,2487,2508,2529,2549,2567,2587,2608,2628,2648,2668,2689,2708,2729,2749,2768,2789,2808,2829,2849,2867,2888,2908,2928,2949,2967,2989,3008,3029,3049,3068,3088,3108,3129,3147,3168,3188,3209,3228,3248,3268,3288,3308,3329,3348,3368,3388,3408,3428,3448,3468,3488,3509,3528,3549,3568,3588,3608,3629,3648,3667,3688,3708,3729,3748,3768,3788,3808,3829,3849,3868,3888,3908,3929,3948,3968,3988,4008,4028,4048,4068,4088,4108,4129,4149,4168,4188,4209,4228,4249,4268,4288,4309,4328,4349,4368,4388,4408,4428,4448,4468,4488,4509,4528,4549,4568,4588,4607,4628,4648,4668,4689,4708,4729,4749,4768,4788,4808,4828,4848,4869,4888,4908,4928,4948,4968,4988,5008,5028,5048,5068,5088,5108,5129,5148,5168,5188,5209,5229,5249,5268,5288,5308,5329,5349,5368,5387,5407,5429,5449,5469,5488,5508,5528,5548,5568,5588,5608,5628,5648,5669,5688,5708,5728,5749,5769,5787,5808,5828,5848,5868,5889,5908,5928,5948,5969,5988,6008,6028,6048,6068,6087,6109,6129,6148,6167,6189,6209,6228,6248,6268,6289,6307,6328,6348,6368,6388,6409,6428,6448,6468,6489,6507,6528,6548,6568,6588,6609,6628,6649,6668,6689,6709,6728,6749,6769,6789,6808,6829,6848,6868,6889,6908,6928,6949,6968,6988,7008,7029,7048,7069,7088,7108,7129,7147,7167,7188,7208,7229,7248,7268,7288,7308,7328,7349,7368,7388,7408,7429,7449,7468,7488,7508,7528,7549,7568,7588,7608,7629,7648,7669,7688,7708,7728],"xSR":741.5,"ySR":501.8,"xT1":424.9,"yT1":0,"xT2":1058.1,"yT2":0,"toosoon":0,"cond_shown":"Incongruent","ratio_trial":100,"L_num":8,"L_den":16,"R_num":6,"R_den":10,"correct_side":2,"subjID":"camilocarvajalsierra20","gender":"0","age":"11","school":"6","test":{"fix_dur":[250,1500],"timestim":1000,"targets_dim":[100,100],"targets_relative_coord":[0.3,0.7],"size_stim":[880,420],"start_dim":[100,100],"size_start":[300,300],"size_fix":60,"samplingrate":20,"img_types":["Congruent","Incongruent"],"ratios":[100,200,300],"rep_conds":19,"nTrials":120,"trials_to_rest":500,"Trials_order":[67,96,115,44,33,41,72,21,117,13,95,49,48,99,45,68,83,53,75,54,19,56,52,97,22,7,88,1,77,73,90,24,55,63,61,8,31,118,66,116,103,105,32,43,104,106,109,29,86,57,100,30,60,69,58,27,62,79,12,46,37,119,82,92,0,25,50,64,40,94,93,11,47,4,78,26,111,16,15,108,87,85,102,17,112,81,89,84,59,2,36,28,65,3,5,71,107,42,23,20,110,18,10,39,38,98,101,51,114,76,74,80,14,6,91,35,113,70,34,9],"cond_shown":["Incongruent","Congruent","Incongruent","Congruent","Incongruent","Incongruent","Congruent","Incongruent","Incongruent","Incongruent","Incongruent","Incongruent","Congruent","Incongruent","Incongruent","Congruent","Incongruent","Incongruent","Incongruent","Congruent","Incongruent","Congruent","Congruent","Incongruent","Congruent","Incongruent","Congruent","Incongruent","Incongruent","Incongruent","Congruent","Congruent","Incongruent","Incongruent","Incongruent","Congruent","Incongruent","Congruent","Congruent","Congruent","Incongruent","Incongruent","Congruent","Incongruent","Congruent","Congruent","Incongruent","Incongruent","Congruent","Incongruent","Congruent","Congruent","Congruent","Incongruent","Congruent","Incongruent","Congruent","Incongruent","Congruent","Congruent","Incongruent","Incongruent","Congruent","Congruent","Congruent","Incongruent","Congruent","Congruent","Congruent","Congruent","Incongruent","Incongruent","Incongruent","Congruent","Congruent","Congruent","Incongruent","Congruent","Incongruent","Congruent","Incongruent","Incongruent","Congruent","Incongruent","Congruent","Incongruent","Incongruent","Congruent","Incongruent","Congruent","Congruent","Congruent","Incongruent","Incongruent","Incongruent","Incongruent","Incongruent","Congruent","Incongruent","Congruent","Congruent","Congruent","Congruent","Incongruent","Congruent","Congruent","Incongruent","Incongruent","Congruent","Congruent","Congruent","Congruent","Congruent","Congruent","Incongruent","Incongruent","Incongruent","Congruent","Congruent","Incongruent"],"ratio_trial":[100,100,100,200,200,300,100,200,200,100,300,100,100,200,200,200,300,300,200,100,100,200,300,100,300,100,300,100,300,100,100,100,100,200,100,200,100,300,100,200,100,200,200,100,200,300,100,300,200,200,300,100,100,200,300,200,200,100,100,300,100,300,300,200,100,100,200,300,300,300,200,300,300,300,100,200,200,300,200,100,200,100,100,300,300,200,300,100,300,200,100,300,300,200,300,300,300,100,300,200,200,100,300,200,200,200,300,200,100,300,200,200,200,100,100,300,300,300,300,200],"left_num":[8,7,17,3,7,2,9,9,7,8,1,9,7,1,7,9,7,1,1,11,8,16,20,2,1,10,20,9,4,3,11,11,13,14,9,4,8,1,4,8,3,7,3,11,9,8,3,8,9,14,8,3,11,7,3,7,6,6,4,20,12,1,1,8,12,9,6,12,11,11,6,1,4,4,7,4,4,1,7,1,9,9,7,4,20,1,3,11,13,8,4,18,13,9,1,4,4,11,8,9,11,2,1,7,8,3,4,7,4,4,9,16,3,2,8,3,13,18,2,14],"right_num":[6,15,10,7,12,6,8,8,6,1,3,6,15,2,8,13,8,2,2,4,1,12,8,8,6,9,9,6,2,7,4,6,6,6,6,3,1,3,6,2,11,12,7,9,13,10,4,14,4,12,1,2,4,4,11,4,7,13,6,8,9,3,19,3,13,13,7,2,2,1,3,3,2,2,15,3,1,3,14,3,8,14,9,2,13,2,4,4,12,7,15,9,12,8,2,2,2,6,9,4,3,11,11,14,2,7,2,8,6,1,13,9,7,6,6,4,12,9,10,12],"left_den":[16,14,30,10,10,4,15,15,15,20,2,18,14,3,10,30,10,2,3,22,20,20,25,4,5,25,25,18,20,9,22,22,26,30,18,10,20,5,8,15,5,10,10,22,30,15,6,10,20,30,16,6,22,15,12,15,12,10,8,25,24,2,3,15,30,15,12,24,22,22,20,2,20,5,14,8,30,5,10,2,15,15,14,20,25,3,6,22,26,15,10,20,26,15,2,20,20,22,10,20,22,5,5,10,15,10,20,10,8,10,30,30,10,5,16,6,26,20,20,30],"right_den":[10,25,15,14,24,30,16,10,9,2,15,10,25,15,16,26,20,10,15,10,2,20,16,20,12,18,18,10,4,30,10,15,10,9,10,15,2,6,10,6,22,24,14,15,26,12,10,28,16,18,5,5,10,6,20,6,10,26,10,16,15,15,30,9,26,26,10,10,10,5,6,15,4,4,25,10,3,6,28,5,10,28,15,4,26,15,20,10,15,21,30,15,15,10,10,4,4,15,18,16,10,22,22,28,6,14,4,16,10,10,26,27,14,12,10,20,15,15,25,18],"correct_side":[2,2,2,2,1,1,1,2,2,2,1,2,2,1,1,2,1,1,1,1,2,1,1,1,2,2,1,2,2,1,1,1,2,2,2,1,2,2,2,1,1,1,2,2,2,2,1,1,1,2,1,1,1,2,2,2,2,1,2,1,2,1,2,1,2,1,2,1,1,1,2,1,2,1,2,1,2,2,1,2,2,1,2,2,1,1,1,1,2,1,2,1,2,2,1,2,2,1,1,1,1,2,2,1,1,2,2,1,2,1,2,1,2,2,2,1,2,1,2,2],"img_shown":["img2/100/Incongruent/R/I_Dist_100_LN_8_LD_16_RN_6_RD_10_1.png","img2/100/Congruent/R/C_Dist_100_LN_7_LD_14_RN_15_RD_25_1.png","img2/100/Incongruent/R/I_Dist_100_LN_17_LD_30_RN_10_RD_15_1.png","img2/200/Congruent/R/C_Dist_200_LN_3_LD_10_RN_7_RD_14_1.png","img2/200/Incongruent/L/I_Dist_200_LN_7_LD_10_RN_12_RD_24_0.png","img2/300/Incongruent/L/I_Dist_300_LN_2_LD_4_RN_6_RD_30_0.png","img2/100/Congruent/L/C_Dist_100_LN_9_LD_15_RN_8_RD_16_0.png","img2/200/Incongruent/R/I_Dist_200_LN_9_LD_15_RN_8_RD_10_1.png","img2/200/Incongruent/R/I_Dist_200_LN_7_LD_15_RN_6_RD_9_1.png","img2/100/Incongruent/R/I_Dist_100_LN_8_LD_20_RN_1_RD_2_1.png","img2/300/Incongruent/L/I_Dist_300_LN_1_LD_2_RN_3_RD_15_0.png","img2/100/Incongruent/R/I_Dist_100_LN_9_LD_18_RN_6_RD_10_1.png","img2/100/Congruent/R/C_Dist_100_LN_7_LD_14_RN_15_RD_25_1.png","img2/200/Incongruent/L/I_Dist_200_LN_1_LD_3_RN_2_RD_15_0.png","img2/200/Incongruent/L/I_Dist_200_LN_7_LD_10_RN_8_RD_16_0.png","img2/200/Congruent/R/C_Dist_200_LN_9_LD_30_RN_13_RD_26_1.png","img2/300/Incongruent/L/I_Dist_300_LN_7_LD_10_RN_8_RD_20_0.png","img2/300/Incongruent/L/I_Dist_300_LN_1_LD_2_RN_2_RD_10_0.png","img2/200/Incongruent/L/I_Dist_200_LN_1_LD_3_RN_2_RD_15_0.png","img2/100/Congruent/L/C_Dist_100_LN_11_LD_22_RN_4_RD_10_0.png","img2/100/Incongruent/R/I_Dist_100_LN_8_LD_20_RN_1_RD_2_1.png","img2/200/Congruent/L/C_Dist_200_LN_16_LD_20_RN_12_RD_20_0.png","img2/300/Congruent/L/C_Dist_300_LN_20_LD_25_RN_8_RD_16_0.png","img2/100/Incongruent/L/I_Dist_100_LN_2_LD_4_RN_8_RD_20_0.png","img2/300/Congruent/R/C_Dist_300_LN_1_LD_5_RN_6_RD_12_1.png","img2/100/Incongruent/R/I_Dist_100_LN_10_LD_25_RN_9_RD_18_1.png","img2/300/Congruent/L/C_Dist_300_LN_20_LD_25_RN_9_RD_18_0.png","img2/100/Incongruent/R/I_Dist_100_LN_9_LD_18_RN_6_RD_10_1.png","img2/300/Incongruent/R/I_Dist_300_LN_4_LD_20_RN_2_RD_4_1.png","img2/100/Incongruent/L/I_Dist_100_LN_3_LD_9_RN_7_RD_30_0.png","img2/100/Congruent/L/C_Dist_100_LN_11_LD_22_RN_4_RD_10_0.png","img2/100/Congruent/L/C_Dist_100_LN_11_LD_22_RN_6_RD_15_0.png","img2/100/Incongruent/R/I_Dist_100_LN_13_LD_26_RN_6_RD_10_1.png","img2/200/Incongruent/R/I_Dist_200_LN_14_LD_30_RN_6_RD_9_1.png","img2/100/Incongruent/R/I_Dist_100_LN_9_LD_18_RN_6_RD_10_1.png","img2/200/Congruent/L/C_Dist_200_LN_4_LD_10_RN_3_RD_15_0.png","img2/100/Incongruent/R/I_Dist_100_LN_8_LD_20_RN_1_RD_2_1.png","img2/300/Congruent/R/C_Dist_300_LN_1_LD_5_RN_3_RD_6_1.png","img2/100/Congruent/R/C_Dist_100_LN_4_LD_8_RN_6_RD_10_1.png","img2/200/Congruent/L/C_Dist_200_LN_8_LD_15_RN_2_RD_6_0.png","img2/100/Incongruent/L/I_Dist_100_LN_3_LD_5_RN_11_RD_22_0.png","img2/200/Incongruent/L/I_Dist_200_LN_7_LD_10_RN_12_RD_24_0.png","img2/200/Congruent/R/C_Dist_200_LN_3_LD_10_RN_7_RD_14_1.png","img2/100/Incongruent/R/I_Dist_100_LN_11_LD_22_RN_9_RD_15_1.png","img2/200/Congruent/R/C_Dist_200_LN_9_LD_30_RN_13_RD_26_1.png","img2/300/Congruent/R/C_Dist_300_LN_8_LD_15_RN_10_RD_12_1.png","img2/100/Incongruent/L/I_Dist_100_LN_3_LD_6_RN_4_RD_10_0.png","img2/300/Incongruent/L/I_Dist_300_LN_8_LD_10_RN_14_RD_28_0.png","img2/200/Congruent/L/C_Dist_200_LN_9_LD_20_RN_4_RD_16_0.png","img2/200/Incongruent/R/I_Dist_200_LN_14_LD_30_RN_12_RD_18_1.png","img2/300/Congruent/L/C_Dist_300_LN_8_LD_16_RN_1_RD_5_0.png","img2/100/Congruent/L/C_Dist_100_LN_3_LD_6_RN_2_RD_5_0.png","img2/100/Congruent/L/C_Dist_100_LN_11_LD_22_RN_4_RD_10_0.png","img2/200/Incongruent/R/I_Dist_200_LN_7_LD_15_RN_4_RD_6_1.png","img2/300/Congruent/R/C_Dist_300_LN_3_LD_12_RN_11_RD_20_1.png","img2/200/Incongruent/R/I_Dist_200_LN_7_LD_15_RN_4_RD_6_1.png","img2/200/Congruent/R/C_Dist_200_LN_6_LD_12_RN_7_RD_10_1.png","img2/100/Incongruent/L/I_Dist_100_LN_6_LD_10_RN_13_RD_26_0.png","img2/100/Congruent/R/C_Dist_100_LN_4_LD_8_RN_6_RD_10_1.png","img2/300/Congruent/L/C_Dist_300_LN_20_LD_25_RN_8_RD_16_0.png","img2/100/Incongruent/R/I_Dist_100_LN_12_LD_24_RN_9_RD_15_1.png","img2/300/Incongruent/L/I_Dist_300_LN_1_LD_2_RN_3_RD_15_0.png","img2/300/Congruent/R/C_Dist_300_LN_1_LD_3_RN_19_RD_30_1.png","img2/200/Congruent/L/C_Dist_200_LN_8_LD_15_RN_3_RD_9_0.png","img2/100/Congruent/R/C_Dist_100_LN_12_LD_30_RN_13_RD_26_1.png","img2/100/Incongruent/L/I_Dist_100_LN_9_LD_15_RN_13_RD_26_0.png","img2/200/Congruent/R/C_Dist_200_LN_6_LD_12_RN_7_RD_10_1.png","img2/300/Congruent/L/C_Dist_300_LN_12_LD_24_RN_2_RD_10_0.png","img2/300/Congruent/L/C_Dist_300_LN_11_LD_22_RN_2_RD_10_0.png","img2/300/Congruent/L/C_Dist_300_LN_11_LD_22_RN_1_RD_5_0.png","img2/200/Incongruent/R/I_Dist_200_LN_6_LD_20_RN_3_RD_6_1.png","img2/300/Incongruent/L/I_Dist_300_LN_1_LD_2_RN_3_RD_15_0.png","img2/300/Incongruent/R/I_Dist_300_LN_4_LD_20_RN_2_RD_4_1.png","img2/300/Congruent/L/C_Dist_300_LN_4_LD_5_RN_2_RD_4_0.png","img2/100/Congruent/R/C_Dist_100_LN_7_LD_14_RN_15_RD_25_1.png","img2/200/Congruent/L/C_Dist_200_LN_4_LD_8_RN_3_RD_10_0.png","img2/200/Incongruent/R/I_Dist_200_LN_4_LD_30_RN_1_RD_3_1.png","img2/300/Congruent/R/C_Dist_300_LN_1_LD_5_RN_3_RD_6_1.png","img2/200/Incongruent/L/I_Dist_200_LN_7_LD_10_RN_14_RD_28_0.png","img2/100/Congruent/R/C_Dist_100_LN_1_LD_2_RN_3_RD_5_1.png","img2/200/Incongruent/R/I_Dist_200_LN_9_LD_15_RN_8_RD_10_1.png","img2/100/Incongruent/L/I_Dist_100_LN_9_LD_15_RN_14_RD_28_0.png","img2/100/Congruent/R/C_Dist_100_LN_7_LD_14_RN_9_RD_15_1.png","img2/300/Incongruent/R/I_Dist_300_LN_4_LD_20_RN_2_RD_4_1.png","img2/300/Congruent/L/C_Dist_300_LN_20_LD_25_RN_13_RD_26_0.png","img2/200/Incongruent/L/I_Dist_200_LN_1_LD_3_RN_2_RD_15_0.png","img2/300/Incongruent/L/I_Dist_300_LN_3_LD_6_RN_4_RD_20_0.png","img2/100/Congruent/L/C_Dist_100_LN_11_LD_22_RN_4_RD_10_0.png","img2/300/Incongruent/R/I_Dist_300_LN_13_LD_26_RN_12_RD_15_1.png","img2/200/Congruent/L/C_Dist_200_LN_8_LD_15_RN_7_RD_21_0.png","img2/100/Congruent/R/C_Dist_100_LN_4_LD_10_RN_15_RD_30_1.png","img2/300/Congruent/L/C_Dist_300_LN_18_LD_20_RN_9_RD_15_0.png","img2/300/Incongruent/R/I_Dist_300_LN_13_LD_26_RN_12_RD_15_1.png","img2/200/Incongruent/R/I_Dist_200_LN_9_LD_15_RN_8_RD_10_1.png","img2/300/Incongruent/L/I_Dist_300_LN_1_LD_2_RN_2_RD_10_0.png","img2/300/Incongruent/R/I_Dist_300_LN_4_LD_20_RN_2_RD_4_1.png","img2/300/Incongruent/R/I_Dist_300_LN_4_LD_20_RN_2_RD_4_1.png","img2/100/Congruent/L/C_Dist_100_LN_11_LD_22_RN_6_RD_15_0.png","img2/300/Incongruent/L/I_Dist_300_LN_8_LD_10_RN_9_RD_18_0.png","img2/200/Congruent/L/C_Dist_200_LN_9_LD_20_RN_4_RD_16_0.png","img2/200/Congruent/L/C_Dist_200_LN_11_LD_22_RN_3_RD_10_0.png","img2/100/Congruent/R/C_Dist_100_LN_2_LD_5_RN_11_RD_22_1.png","img2/300/Congruent/R/C_Dist_300_LN_1_LD_5_RN_11_RD_22_1.png","img2/200/Incongruent/L/I_Dist_200_LN_7_LD_10_RN_14_RD_28_0.png","img2/200/Congruent/L/C_Dist_200_LN_8_LD_15_RN_2_RD_6_0.png","img2/200/Congruent/R/C_Dist_200_LN_3_LD_10_RN_7_RD_14_1.png","img2/300/Incongruent/R/I_Dist_300_LN_4_LD_20_RN_2_RD_4_1.png","img2/200/Incongruent/L/I_Dist_200_LN_7_LD_10_RN_8_RD_16_0.png","img2/100/Congruent/R/C_Dist_100_LN_4_LD_8_RN_6_RD_10_1.png","img2/300/Congruent/L/C_Dist_300_LN_4_LD_10_RN_1_RD_10_0.png","img2/200/Congruent/R/C_Dist_200_LN_9_LD_30_RN_13_RD_26_1.png","img2/200/Congruent/L/C_Dist_200_LN_16_LD_30_RN_9_RD_27_0.png","img2/200/Congruent/R/C_Dist_200_LN_3_LD_10_RN_7_RD_14_1.png","img2/100/Congruent/R/C_Dist_100_LN_2_LD_5_RN_6_RD_12_1.png","img2/100/Incongruent/R/I_Dist_100_LN_8_LD_16_RN_6_RD_10_1.png","img2/300/Incongruent/L/I_Dist_300_LN_3_LD_6_RN_4_RD_20_0.png","img2/300/Incongruent/R/I_Dist_300_LN_13_LD_26_RN_12_RD_15_1.png","img2/300/Congruent/L/C_Dist_300_LN_18_LD_20_RN_9_RD_15_0.png","img2/300/Congruent/R/C_Dist_300_LN_2_LD_20_RN_10_RD_25_1.png","img2/200/Incongruent/R/I_Dist_200_LN_14_LD_30_RN_12_RD_18_1.png"],"dist100_C":[["C_Dist_100_LN_10_LD_25_RN_3_RD_10_0.png","C_Dist_100_LN_11_LD_22_RN_4_RD_10_0.png","C_Dist_100_LN_11_LD_22_RN_6_RD_15_0.png","C_Dist_100_LN_15_LD_25_RN_13_RD_26_0.png","C_Dist_100_LN_3_LD_6_RN_2_RD_5_0.png","C_Dist_100_LN_6_LD_20_RN_5_RD_25_0.png","C_Dist_100_LN_8_LD_16_RN_2_RD_5_0.png","C_Dist_100_LN_9_LD_15_RN_8_RD_16_0.png"],["C_Dist_100_LN_1_LD_2_RN_18_RD_30_1.png","C_Dist_100_LN_1_LD_2_RN_3_RD_5_1.png","C_Dist_100_LN_12_LD_30_RN_13_RD_26_1.png","C_Dist_100_LN_2_LD_5_RN_11_RD_22_1.png","C_Dist_100_LN_2_LD_5_RN_6_RD_12_1.png","C_Dist_100_LN_3_LD_20_RN_4_RD_16_1.png","C_Dist_100_LN_4_LD_10_RN_15_RD_30_1.png","C_Dist_100_LN_4_LD_8_RN_6_RD_10_1.png","C_Dist_100_LN_6_LD_12_RN_15_RD_25_1.png","C_Dist_100_LN_7_LD_14_RN_15_RD_25_1.png","C_Dist_100_LN_7_LD_14_RN_9_RD_15_1.png"]],"dist100_I":[["I_Dist_100_LN_1_LD_2_RN_8_RD_20_0.png","I_Dist_100_LN_2_LD_4_RN_6_RD_15_0.png","I_Dist_100_LN_2_LD_4_RN_8_RD_20_0.png","I_Dist_100_LN_3_LD_5_RN_11_RD_22_0.png","I_Dist_100_LN_3_LD_5_RN_8_RD_16_0.png","I_Dist_100_LN_3_LD_6_RN_4_RD_10_0.png","I_Dist_100_LN_3_LD_9_RN_7_RD_30_0.png","I_Dist_100_LN_4_LD_8_RN_8_RD_20_0.png","I_Dist_100_LN_6_LD_10_RN_11_RD_22_0.png","I_Dist_100_LN_6_LD_10_RN_13_RD_26_0.png","I_Dist_100_LN_6_LD_10_RN_7_RD_14_0.png","I_Dist_100_LN_9_LD_10_RN_20_RD_25_0.png","I_Dist_100_LN_9_LD_15_RN_13_RD_26_0.png","I_Dist_100_LN_9_LD_15_RN_14_RD_28_0.png"],["I_Dist_100_LN_10_LD_25_RN_8_RD_16_1.png","I_Dist_100_LN_10_LD_25_RN_9_RD_18_1.png","I_Dist_100_LN_11_LD_22_RN_9_RD_15_1.png","I_Dist_100_LN_12_LD_24_RN_9_RD_15_1.png","I_Dist_100_LN_12_LD_30_RN_2_RD_4_1.png","I_Dist_100_LN_13_LD_26_RN_12_RD_20_1.png","I_Dist_100_LN_13_LD_26_RN_6_RD_10_1.png","I_Dist_100_LN_17_LD_30_RN_10_RD_15_1.png","I_Dist_100_LN_6_LD_12_RN_3_RD_5_1.png","I_Dist_100_LN_8_LD_16_RN_6_RD_10_1.png","I_Dist_100_LN_8_LD_20_RN_1_RD_2_1.png","I_Dist_100_LN_9_LD_18_RN_6_RD_10_1.png"]],"dist100_S":[["E_Dist_100_LN_2_LD_12_RN_2_RD_30_0.png","E_Dist_100_LN_6_LD_10_RN_6_RD_12_0.png"],["E_Dist_100_LN_6_LD_12_RN_6_RD_10_1.png"]],"dist200_C":[["C_Dist_200_LN_11_LD_22_RN_3_RD_10_0.png","C_Dist_200_LN_12_LD_15_RN_6_RD_10_0.png","C_Dist_200_LN_12_LD_20_RN_6_RD_15_0.png","C_Dist_200_LN_14_LD_28_RN_6_RD_20_0.png","C_Dist_200_LN_15_LD_25_RN_4_RD_10_0.png","C_Dist_200_LN_16_LD_20_RN_12_RD_20_0.png","C_Dist_200_LN_16_LD_30_RN_9_RD_27_0.png","C_Dist_200_LN_20_LD_25_RN_9_RD_15_0.png","C_Dist_200_LN_21_LD_30_RN_2_RD_4_0.png","C_Dist_200_LN_4_LD_10_RN_3_RD_15_0.png","C_Dist_200_LN_4_LD_8_RN_3_RD_10_0.png","C_Dist_200_LN_6_LD_15_RN_3_RD_15_0.png","C_Dist_200_LN_7_LD_21_RN_2_RD_15_0.png","C_Dist_200_LN_8_LD_15_RN_2_RD_6_0.png","C_Dist_200_LN_8_LD_15_RN_3_RD_9_0.png","C_Dist_200_LN_8_LD_15_RN_7_RD_21_0.png","C_Dist_200_LN_9_LD_20_RN_4_RD_16_0.png"],["C_Dist_200_LN_1_LD_2_RN_21_RD_30_1.png","C_Dist_200_LN_13_LD_26_RN_14_RD_20_1.png","C_Dist_200_LN_3_LD_10_RN_11_RD_22_1.png","C_Dist_200_LN_3_LD_10_RN_14_RD_28_1.png","C_Dist_200_LN_3_LD_10_RN_7_RD_14_1.png","C_Dist_200_LN_3_LD_12_RN_9_RD_20_1.png","C_Dist_200_LN_3_LD_6_RN_14_RD_20_1.png","C_Dist_200_LN_5_LD_10_RN_14_RD_20_1.png","C_Dist_200_LN_6_LD_12_RN_7_RD_10_1.png","C_Dist_200_LN_6_LD_20_RN_11_RD_22_1.png","C_Dist_200_LN_7_LD_15_RN_18_RD_27_1.png","C_Dist_200_LN_9_LD_30_RN_13_RD_26_1.png"]],"dist200_I":[["I_Dist_200_LN_1_LD_2_RN_3_RD_10_0.png","I_Dist_200_LN_1_LD_3_RN_2_RD_15_0.png","I_Dist_200_LN_3_LD_4_RN_11_RD_20_0.png","I_Dist_200_LN_4_LD_5_RN_6_RD_10_0.png","I_Dist_200_LN_4_LD_6_RN_14_RD_30_0.png","I_Dist_200_LN_7_LD_10_RN_12_RD_24_0.png","I_Dist_200_LN_7_LD_10_RN_14_RD_28_0.png","I_Dist_200_LN_7_LD_10_RN_8_RD_16_0.png"],["I_Dist_200_LN_11_LD_20_RN_3_RD_4_1.png","I_Dist_200_LN_14_LD_30_RN_12_RD_18_1.png","I_Dist_200_LN_14_LD_30_RN_6_RD_9_1.png","I_Dist_200_LN_3_LD_10_RN_1_RD_2_1.png","I_Dist_200_LN_4_LD_30_RN_1_RD_3_1.png","I_Dist_200_LN_6_LD_20_RN_3_RD_6_1.png","I_Dist_200_LN_7_LD_15_RN_4_RD_6_1.png","I_Dist_200_LN_7_LD_15_RN_6_RD_9_1.png","I_Dist_200_LN_9_LD_15_RN_8_RD_10_1.png"]],"dist200_S":[["E_Dist_200_LN_3_LD_6_RN_3_RD_10_0.png"],["E_Dist_200_LN_3_LD_10_RN_3_RD_6_1.png"]],"dist300_C":[["C_Dist_300_LN_11_LD_22_RN_1_RD_5_0.png","C_Dist_300_LN_11_LD_22_RN_2_RD_10_0.png","C_Dist_300_LN_11_LD_22_RN_4_RD_20_0.png","C_Dist_300_LN_12_LD_24_RN_2_RD_10_0.png","C_Dist_300_LN_18_LD_20_RN_9_RD_15_0.png","C_Dist_300_LN_20_LD_25_RN_13_RD_26_0.png","C_Dist_300_LN_20_LD_25_RN_14_RD_28_0.png","C_Dist_300_LN_20_LD_25_RN_5_RD_10_0.png","C_Dist_300_LN_20_LD_25_RN_8_RD_16_0.png","C_Dist_300_LN_20_LD_25_RN_9_RD_18_0.png","C_Dist_300_LN_24_LD_30_RN_2_RD_4_0.png","C_Dist_300_LN_24_LD_30_RN_8_RD_16_0.png","C_Dist_300_LN_3_LD_6_RN_2_RD_10_0.png","C_Dist_300_LN_4_LD_10_RN_1_RD_10_0.png","C_Dist_300_LN_4_LD_5_RN_2_RD_4_0.png","C_Dist_300_LN_8_LD_16_RN_1_RD_5_0.png","C_Dist_300_LN_9_LD_10_RN_3_RD_5_0.png"],["C_Dist_300_LN_1_LD_20_RN_7_RD_20_1.png","C_Dist_300_LN_1_LD_3_RN_19_RD_30_1.png","C_Dist_300_LN_1_LD_30_RN_8_RD_24_1.png","C_Dist_300_LN_1_LD_5_RN_11_RD_22_1.png","C_Dist_300_LN_1_LD_5_RN_3_RD_6_1.png","C_Dist_300_LN_1_LD_5_RN_6_RD_12_1.png","C_Dist_300_LN_2_LD_10_RN_12_RD_24_1.png","C_Dist_300_LN_2_LD_20_RN_10_RD_25_1.png","C_Dist_300_LN_3_LD_12_RN_11_RD_20_1.png","C_Dist_300_LN_3_LD_6_RN_4_RD_5_1.png","C_Dist_300_LN_4_LD_20_RN_13_RD_26_1.png","C_Dist_300_LN_5_LD_25_RN_6_RD_12_1.png","C_Dist_300_LN_5_LD_25_RN_7_RD_14_1.png","C_Dist_300_LN_7_LD_14_RN_20_RD_25_1.png","C_Dist_300_LN_8_LD_15_RN_10_RD_12_1.png"]],"dist300_I":[["I_Dist_300_LN_1_LD_2_RN_2_RD_10_0.png","I_Dist_300_LN_1_LD_2_RN_3_RD_15_0.png","I_Dist_300_LN_2_LD_4_RN_6_RD_30_0.png","I_Dist_300_LN_3_LD_6_RN_4_RD_20_0.png","I_Dist_300_LN_4_LD_5_RN_6_RD_12_0.png","I_Dist_300_LN_4_LD_5_RN_8_RD_16_0.png","I_Dist_300_LN_7_LD_10_RN_8_RD_20_0.png","I_Dist_300_LN_8_LD_10_RN_14_RD_28_0.png","I_Dist_300_LN_8_LD_10_RN_9_RD_18_0.png"],["I_Dist_300_LN_13_LD_26_RN_12_RD_15_1.png","I_Dist_300_LN_4_LD_20_RN_2_RD_4_1.png"]],"dist300_S":[["E_Dist_300_LN_9_LD_12_RN_9_RD_20_0.png"],["E_Dist_300_LN_18_LD_30_RN_18_RD_20_1.png","E_Dist_300_LN_3_LD_10_RN_3_RD_5_1.png","E_Dist_300_LN_9_LD_20_RN_9_RD_12_1.png"]],"dist500_C":[["C_Dist_500_LN_10_LD_13_RN_7_RD_26_0.png","C_Dist_500_LN_10_LD_15_RN_4_RD_24_0.png","C_Dist_500_LN_12_LD_16_RN_3_RD_12_0.png","C_Dist_500_LN_12_LD_18_RN_4_RD_24_0.png","C_Dist_500_LN_15_LD_18_RN_5_RD_15_0.png","C_Dist_500_LN_15_LD_20_RN_1_RD_4_0.png","C_Dist_500_LN_18_LD_27_RN_1_RD_6_0.png","C_Dist_500_LN_20_LD_24_RN_1_RD_3_0.png","C_Dist_500_LN_20_LD_24_RN_3_RD_9_0.png","C_Dist_500_LN_20_LD_24_RN_7_RD_21_0.png","C_Dist_500_LN_20_LD_28_RN_3_RD_14_0.png","C_Dist_500_LN_21_LD_28_RN_6_RD_24_0.png","C_Dist_500_LN_22_LD_28_RN_2_RD_7_0.png","C_Dist_500_LN_25_LD_30_RN_9_RD_27_0.png","C_Dist_500_LN_4_LD_6_RN_1_RD_6_0.png","C_Dist_500_LN_5_LD_6_RN_2_RD_6_0.png","C_Dist_500_LN_6_LD_9_RN_1_RD_6_0.png","C_Dist_500_LN_7_LD_10_RN_1_RD_5_0.png","C_Dist_500_LN_8_LD_12_RN_1_RD_6_0.png","C_Dist_500_LN_8_LD_12_RN_4_RD_24_0.png"],["C_Dist_500_LN_1_LD_4_RN_12_RD_16_1.png","C_Dist_500_LN_1_LD_4_RN_9_RD_12_1.png","C_Dist_500_LN_1_LD_9_RN_11_RD_18_1.png","C_Dist_500_LN_10_LD_24_RN_22_RD_24_1.png","C_Dist_500_LN_2_LD_12_RN_10_RD_15_1.png","C_Dist_500_LN_2_LD_12_RN_12_RD_18_1.png","C_Dist_500_LN_2_LD_12_RN_4_RD_6_1.png","C_Dist_500_LN_2_LD_24_RN_7_RD_12_1.png","C_Dist_500_LN_2_LD_5_RN_18_RD_20_1.png","C_Dist_500_LN_2_LD_5_RN_9_RD_10_1.png","C_Dist_500_LN_2_LD_8_RN_12_RD_16_1.png","C_Dist_500_LN_2_LD_8_RN_21_RD_28_1.png","C_Dist_500_LN_3_LD_10_RN_4_RD_5_1.png","C_Dist_500_LN_3_LD_12_RN_15_RD_20_1.png","C_Dist_500_LN_3_LD_30_RN_6_RD_10_1.png","C_Dist_500_LN_3_LD_8_RN_14_RD_16_1.png","C_Dist_500_LN_4_LD_16_RN_15_RD_20_1.png","C_Dist_500_LN_4_LD_24_RN_12_RD_18_1.png","C_Dist_500_LN_5_LD_14_RN_6_RD_7_1.png","C_Dist_500_LN_7_LD_21_RN_20_RD_24_1.png","C_Dist_500_LN_7_LD_28_RN_12_RD_16_1.png","C_Dist_500_LN_7_LD_28_RN_9_RD_12_1.png","C_Dist_500_LN_9_LD_27_RN_20_RD_24_1.png"]],"dist500_I":[["I_Dist_500_LN_2_LD_3_RN_4_RD_24_0.png","I_Dist_500_LN_5_LD_6_RN_6_RD_18_0.png","I_Dist_500_LN_7_LD_8_RN_9_RD_24_0.png"],["I_Dist_500_LN_7_LD_21_RN_5_RD_6_1.png"]],"dist500_S":[["E_Dist_500_LN_6_LD_8_RN_6_RD_24_0.png"],["E_Dist_500_LN_2_LD_12_RN_2_RD_3_1.png","E_Dist_500_LN_6_LD_24_RN_6_RD_8_1.png"]]}},{"start_time":1551880592159,"click_time":1551880594475,"finger_time":1551880593735,"fix_duration":381.2042341785478,"trial":1,"RT":1576,"MT":740,"sideResp":2,"stimulus":[],"xmouse":[780,780,780,780,780,780,780,780,780,780,780,780,780,780,780,780,780,780,780,780,780,780,780,780,780,780,780,780,780,780,780,780,780,780,780,780,780,780,780,780,780,780,780,780,780,780,780,780,780,780,780,780,780,780,780,780,780,780,780,780,780,780,780,780,780,780,780,780,780,780,780,780,780,780,780,791,809,835,851,877,882,886,892,898,906,921,942,957,966,972,990,1004,1023,1044,1071,1072,1072,1069,1054,1046,1034,1031,1027,1027,1026,1026,1027,1028,1030,1034,1036,1038,1040,1042,1046,1059],"ymouse":[600,600,600,600,600,600,600,600,600,600,600,600,600,600,600,600,600,600,600,600,600,600,600,600,600,600,600,600,600,600,600,600,600,600,600,600,600,600,600,600,600,600,600,600,600,600,600,600,600,600,600,600,600,600,600,600,600,600,600,600,600,600,600,600,600,600,600,600,600,600,600,600,600,600,600,601,601,589,575,551,539,527,515,499,482,455,432,419,410,401,384,375,362,351,333,328,314,271,206,182,144,132,118,113,107,99,96,93,90,87,87,86,86,86,86,83],"timestamp_mouse":[22,37,57,76,96,116,136,157,177,196,216,236,256,276,297,317,336,356,376,395,417,436,455,476,496,516,536,556,576,596,616,636,657,676,697,716,736,756,776,797,816,836,856,877,895,916,936,955,976,996,1017,1035,1057,1077,1095,1116,1137,1156,1176,1196,1216,1236,1256,1276,1296,1317,1336,1356,1376,1395,1417,1436,1457,1476,1497,1517,1536,1556,1576,1597,1616,1635,1656,1676,1697,1716,1737,1757,1776,1796,1816,1836,1856,1877,1896,1917,1936,1956,1976,1996,2016,2036,2056,2076,2097,2117,2136,2157,2176,2196,2216,2236,2257,2277,2297,2316],"xSR":741.5,"ySR":573.95,"xT1":424.9,"yT1":0,"xT2":1058.1,"yT2":0,"toosoon":0,"cond_shown":"Congruent","ratio_trial":100,"L_num":7,"L_den":14,"R_num":15,"R_den":25,"correct_side":2,"subjID":"camilocarvajalsierra20","gender":"0","school":"6","age":"11"},{"start_time":1551880597269,"click_time":1551880606676,"finger_time":1551880598775,"fix_duration":694.1685913049637,"trial":2,"RT":1506,"MT":7901,"sideResp":2,"stimulus":[],"xmouse":[797,797,797,797,797,797,797,797,797,797,797,797,797,797,797,797,797,797,797,797,797,797,797,797,797,797,797,797,797,797,797,797,797,797,797,797,797,797,797,797,797,797,797,797,797,797,797,797,797,797,797,797,797,797,797,797,797,797,797,797,797,797,797,797,797,797,797,797,797,797,797,797,795,792,789,781,778,776,774,773,772,772,771,771,771,770,770,770,770,770,770,770,770,770,768,766,763,761,761,761,761,761,761,761,761,762,763,764,764,764,765,766,767,767,767,768,768,768,768,768,768,768,768,768,768,768,768,768,768,768,768,768,768,768,768,768,768,768,768,768,768,768,768,768,768,768,768,768,768,768,768,768,768,768,768,768,768,768,768,768,767,763,758,755,755,755,755,755,755,755,755,755,755,755,755,755,755,755,755,755,755,755,755,755,755,755,755,755,755,755,759,766,776,783,786,786,786,786,786,786,786,786,786,786,786,786,786,786,786,786,786,786,786,786,786,786,786,786,786,786,786,786,786,786,786,786,786,786,786,785,783,782,778,777,775,771,769,763,758,756,754,754,754,754,754,754,754,754,754,754,756,762,765,775,779,780,781,784,787,788,789,789,789,789,789,789,789,789,789,789,789,789,789,789,789,789,789,789,789,789,789,789,789,789,789,789,789,789,789,789,789,789,789,789,789,789,789,789,789,789,789,789,789,789,789,789,789,789,789,789,789,789,789,789,789,789,789,789,789,789,789,789,789,789,789,789,789,789,789,789,789,789,789,789,789,789,789,789,789,789,789,789,789,789,789,789,789,789,789,789,789,789,789,789,789,789,789,789,789,789,789,789,789,789,789,789,789,789,789,789,789,789,789,789,789,789,789,789,789,789,789,789,789,789,789,789,789,789,789,789,789,789,789,789,789,789,789,789,789,789,789,789,789,789,789,789,789,789,789,789,789,789,789,790,791,791,791,791,791,791,791,791,794,801,813,825,825,826,826,826,826,826,826,826,826,826,830,841,861,892,977,1044,1095,1132,1163,1200,1211,1218,1223,1227,1231,1231,1231,1231,1231,1231,1231,1228,1218,1202,1181,1176,1175,1175,1175,1175,1174,1174,1172,1169,1155],"ymouse":[620,620,620,620,620,620,620,620,620,620,620,620,620,620,620,620,620,620,620,620,620,620,620,620,620,620,620,620,620,620,620,620,620,620,620,620,620,620,620,620,620,620,620,620,620,620,620,620,620,620,620,620,620,620,620,620,620,620,620,620,620,620,620,620,620,620,620,620,620,620,620,620,622,639,660,705,726,742,753,762,771,774,776,777,779,782,783,783,783,783,783,783,783,779,748,729,712,695,683,674,667,665,661,659,657,652,648,648,647,645,643,641,640,640,640,639,639,639,639,639,639,639,639,639,639,639,639,639,639,639,639,639,639,639,639,639,639,639,639,639,639,639,639,639,639,639,639,639,639,639,639,639,639,639,639,639,639,639,639,640,646,655,659,659,659,659,659,659,659,659,659,659,659,659,659,659,659,659,659,659,659,659,659,659,659,659,659,659,659,659,659,659,658,657,657,657,657,657,657,657,657,657,657,657,657,657,657,657,657,657,657,657,657,657,657,657,657,657,657,657,657,657,657,657,657,657,657,657,657,657,657,657,657,657,657,659,662,666,669,671,672,672,672,672,672,672,672,672,672,672,668,658,650,637,634,631,629,626,623,619,615,612,610,610,610,610,610,610,610,610,610,610,610,610,610,610,610,610,610,610,610,610,610,610,610,610,610,610,610,610,610,610,610,610,610,610,610,610,610,610,610,610,610,610,610,610,610,610,610,610,610,610,610,610,610,610,610,610,610,610,610,610,610,610,610,610,610,610,610,610,610,610,610,610,610,610,610,610,610,610,610,610,610,610,610,610,610,610,610,610,610,610,610,610,610,610,610,610,610,610,610,610,610,610,610,610,610,610,610,610,610,610,610,610,610,610,610,610,610,610,610,610,610,610,610,610,610,610,610,610,610,610,610,610,610,610,610,610,610,610,610,610,610,610,610,610,610,610,610,610,610,610,610,609,608,608,608,608,608,608,608,608,603,596,588,579,577,577,577,577,577,577,577,577,577,576,572,561,546,522,451,380,295,201,80,0,0,0,0,0,0,0,0,0,0,0,0,2,14,34,52,56,57,57,57,57,58,58,58,59,63],"timestamp_mouse":[6,26,47,66,86,106,126,146,166,185,206,226,245,266,286,305,326,346,367,386,406,426,446,466,486,507,526,546,567,586,607,625,646,666,686,706,727,747,766,787,806,827,847,867,887,907,926,947,967,987,1006,1026,1047,1066,1086,1106,1127,1146,1167,1187,1206,1226,1246,1266,1286,1307,1327,1347,1365,1387,1407,1426,1445,1467,1486,1506,1526,1546,1567,1586,1607,1626,1646,1666,1686,1706,1726,1745,1766,1787,1806,1826,1846,1866,1886,1905,1926,1946,1966,1987,2005,2027,2047,2066,2086,2106,2127,2147,2167,2186,2206,2227,2246,2266,2286,2307,2327,2346,2366,2386,2406,2426,2446,2467,2486,2506,2526,2545,2567,2586,2607,2626,2646,2666,2686,2706,2727,2745,2766,2786,2807,2826,2845,2867,2886,2906,2926,2946,2967,2986,3006,3027,3046,3066,3087,3107,3126,3146,3166,3187,3206,3227,3246,3266,3285,3307,3326,3347,3366,3386,3407,3427,3446,3466,3486,3507,3526,3546,3565,3586,3606,3627,3647,3666,3686,3706,3726,3747,3766,3786,3805,3827,3846,3866,3887,3907,3926,3947,3966,3986,4006,4026,4046,4066,4086,4106,4126,4147,4167,4186,4206,4226,4246,4266,4286,4306,4326,4346,4366,4386,4406,4426,4447,4466,4486,4507,4526,4547,4567,4587,4605,4627,4646,4666,4686,4706,4727,4746,4766,4786,4807,4826,4846,4866,4886,4906,4927,4946,4966,4986,5007,5026,5046,5066,5086,5106,5127,5147,5166,5186,5206,5225,5246,5267,5286,5306,5325,5347,5366,5386,5406,5426,5446,5466,5486,5506,5526,5546,5565,5586,5606,5626,5646,5666,5686,5706,5727,5746,5766,5786,5806,5825,5846,5867,5887,5906,5926,5946,5966,5985,6007,6026,6047,6067,6087,6106,6126,6146,6167,6186,6206,6226,6247,6266,6286,6306,6327,6346,6366,6386,6406,6426,6447,6466,6486,6506,6526,6547,6568,6587,6607,6626,6646,6668,6687,6707,6728,6748,6767,6786,6806,6826,6846,6866,6886,6907,6927,6947,6966,6986,7006,7028,7046,7066,7088,7106,7127,7146,7167,7186,7207,7227,7246,7268,7287,7307,7326,7346,7368,7386,7406,7427,7447,7467,7486,7506,7526,7546,7567,7587,7607,7626,7646,7668,7687,7707,7726,7747,7767,7787,7806,7827,7848,7868,7886,7907,7927,7947,7966,7988,8006,8026,8047,8067,8086,8107,8127,8146,8167,8187,8206,8226,8247,8266,8286,8308,8327,8348,8366,8386,8407,8428,8446,8466,8487,8506,8526,8546,8567,8587,8606,8627,8647,8668,8687,8706,8726,8746,8766,8786,8807,8827,8847,8866,8886,8907,8927,8947,8967,8986,9007,9026,9048,9068,9088,9108,9128,9147,9167,9186,9206,9227,9247,9267,9286,9307,9328,9347,9366,9386,9407],"xSR":741.5,"ySR":573.95,"xT1":424.9,"yT1":0,"xT2":1058.1,"yT2":0,"toosoon":0,"cond_shown":"Incongruent","ratio_trial":100,"L_num":17,"L_den":30,"R_num":10,"R_den":15,"correct_side":2,"subjID":"camilocarvajalsierra20","gender":"0","school":"6","age":"11"},{"start_time":1551880609528,"click_time":1551880612395,"finger_time":1551880611715,"fix_duration":1351.6485964769565,"trial":3,"RT":2187,"MT":680,"sideResp":1,"stimulus":[],"xmouse":[777,777,777,777,777,777,777,777,777,777,777,777,777,777,777,777,777,777,777,777,777,777,777,777,777,777,777,777,777,777,777,777,777,777,777,777,777,777,777,777,777,777,777,777,777,777,777,777,777,777,777,777,777,777,777,777,777,777,777,777,777,777,777,777,777,777,777,777,777,777,777,777,777,777,777,777,777,777,777,777,777,777,777,777,777,777,777,777,777,777,777,777,777,777,777,777,777,777,777,777,777,777,777,777,777,776,774,764,759,755,751,749,740,732,721,710,699,672,664,657,651,645,633,625,616,609,603,584,574,566,563,560,555,553,549,546,543,539,538,536,534,531,525,522],"ymouse":[624,624,624,624,624,624,624,624,624,624,624,624,624,624,624,624,624,624,624,624,624,624,624,624,624,624,624,624,624,624,624,624,624,624,624,624,624,624,624,624,624,624,624,624,624,624,624,624,624,624,624,624,624,624,624,624,624,624,624,624,624,624,624,624,624,624,624,624,624,624,624,624,624,624,624,624,624,624,624,624,624,624,624,624,624,624,624,624,624,624,624,624,624,624,624,624,624,624,624,624,624,624,624,624,624,623,619,600,587,572,555,534,475,423,380,347,320,280,266,257,248,240,228,222,215,210,206,181,166,154,145,136,117,112,105,101,98,93,92,91,90,90,88,88],"timestamp_mouse":[9,28,47,67,87,109,127,147,168,188,208,227,248,267,289,307,327,349,368,387,409,428,448,468,488,509,527,548,568,587,608,628,647,667,689,707,728,748,767,788,809,827,847,868,889,907,928,949,968,987,1007,1028,1049,1067,1089,1109,1128,1147,1168,1189,1209,1227,1247,1269,1287,1309,1329,1347,1367,1388,1409,1428,1448,1468,1489,1507,1527,1547,1568,1589,1608,1627,1648,1668,1687,1707,1727,1747,1768,1788,1808,1828,1848,1867,1887,1908,1928,1948,1969,1987,2007,2028,2047,2069,2089,2108,2127,2147,2168,2187,2208,2227,2247,2268,2288,2308,2327,2348,2367,2388,2409,2429,2448,2468,2487,2508,2527,2548,2567,2588,2607,2627,2647,2667,2688,2707,2728,2747,2767,2788,2808,2827,2847,2867],"xSR":741.5,"ySR":573.95,"xT1":424.9,"yT1":0,"xT2":1058.1,"yT2":0,"toosoon":0,"cond_shown":"Congruent","ratio_trial":200,"L_num":3,"L_den":10,"R_num":7,"R_den":14,"correct_side":2,"subjID":"camilocarvajalsierra20","gender":"0","school":"6","age":"11"},{"start_time":1551880615265,"click_time":1551880619655,"finger_time":1551880618635,"fix_duration":889.1263655898284,"trial":4,"RT":3370,"MT":1020,"sideResp":2,"stimulus":[],"xmouse":[787,787,787,787,787,787,787,787,787,787,787,787,787,787,787,787,787,787,787,787,787,787,787,787,787,787,787,787,787,787,787,787,787,787,787,787,787,787,787,787,787,787,787,787,787,787,787,787,787,787,787,787,787,787,787,787,787,787,787,787,787,787,787,787,787,787,787,787,787,787,787,787,787,787,787,787,787,787,787,787,787,787,787,787,787,787,787,787,787,787,787,787,787,787,787,787,787,787,787,787,787,787,787,787,787,787,787,787,787,787,787,787,787,787,787,787,787,787,787,787,787,787,787,787,787,787,787,787,787,787,787,787,787,787,787,787,787,787,787,787,787,787,787,787,787,787,787,787,787,787,787,787,787,787,787,787,787,787,787,787,787,787,795,803,811,824,833,838,844,854,876,897,912,925,938,957,966,973,980,985,996,1000,1005,1011,1015,1028,1035,1040,1044,1048,1055,1060,1065,1069,1072,1080,1083,1084,1085,1087,1088,1089,1090,1090,1091,1091,1092,1092,1092,1092,1092,1092,1092,1093,1093,1094,1094,1095,1095,1096],"ymouse":[647,647,647,647,647,647,647,647,647,647,647,647,647,647,647,647,647,647,647,647,647,647,647,647,647,647,647,647,647,647,647,647,647,647,647,647,647,647,647,647,647,647,647,647,647,647,647,647,647,647,647,647,647,647,647,647,647,647,647,647,647,647,647,647,647,647,647,647,647,647,647,647,647,647,647,647,647,647,647,647,647,647,647,647,647,647,647,647,647,647,647,647,647,647,647,647,647,647,647,647,647,647,647,647,647,647,647,647,647,647,647,647,647,647,647,647,647,647,647,647,647,647,647,647,647,647,647,647,647,647,647,647,647,647,647,647,647,647,647,647,647,647,647,647,647,647,647,647,647,647,647,647,647,647,647,647,647,647,647,647,647,646,641,635,629,618,612,606,599,584,551,521,499,478,450,370,347,329,315,301,271,260,249,238,230,214,204,196,188,182,172,162,155,147,142,130,126,122,120,118,116,115,112,112,112,110,109,109,109,109,109,108,108,104,104,103,101,101,100,98],"timestamp_mouse":[14,31,51,70,91,111,131,151,170,190,212,230,251,271,290,311,331,351,371,392,411,431,452,470,491,510,531,550,571,592,611,631,650,672,690,711,731,752,771,790,812,832,851,870,891,911,930,951,970,992,1011,1032,1051,1070,1092,1110,1131,1150,1171,1192,1210,1230,1250,1271,1290,1311,1331,1352,1370,1391,1411,1430,1451,1470,1491,1511,1531,1552,1571,1590,1612,1631,1652,1670,1690,1711,1730,1750,1770,1792,1810,1832,1851,1870,1891,1911,1930,1952,1970,1990,2010,2031,2050,2071,2091,2111,2131,2150,2172,2191,2210,2230,2251,2272,2290,2312,2330,2350,2370,2391,2410,2431,2452,2470,2490,2510,2530,2552,2571,2591,2612,2630,2651,2672,2691,2712,2731,2751,2772,2792,2811,2831,2851,2872,2892,2911,2931,2950,2971,2991,3011,3032,3051,3071,3091,3111,3132,3150,3170,3192,3210,3231,3251,3271,3290,3310,3330,3350,3370,3390,3410,3430,3450,3470,3490,3510,3531,3550,3570,3590,3611,3631,3651,3671,3690,3711,3732,3752,3771,3792,3811,3831,3851,3870,3892,3910,3931,3951,3970,3990,4011,4031,4051,4071,4092,4110,4130,4150,4172,4191,4211,4232,4250,4271,4290,4312,4330,4350,4370,4390],"xSR":741.5,"ySR":573.95,"xT1":424.9,"yT1":0,"xT2":1058.1,"yT2":0,"toosoon":0,"cond_shown":"Incongruent","ratio_trial":200,"L_num":7,"L_den":10,"R_num":12,"R_den":24,"correct_side":1,"subjID":"camilocarvajalsierra20","gender":"0","school":"6","age":"11"},{"start_time":1551880622373,"click_time":1551880628016,"finger_time":1551880626176,"fix_duration":1357.2355965361442,"trial":5,"RT":3803,"MT":1840,"sideResp":1,"stimulus":[],"xmouse":[801,801,801,801,801,801,801,801,801,801,801,801,801,801,801,801,801,801,801,801,801,801,801,801,801,801,801,801,801,801,801,801,801,801,801,801,801,801,801,801,801,801,801,801,801,801,801,801,801,801,801,801,801,801,801,801,801,801,801,801,801,801,801,801,801,801,801,801,801,801,801,801,801,801,801,801,801,801,801,801,801,801,801,801,801,801,801,801,801,801,801,801,801,801,801,803,803,803,804,804,804,805,805,805,805,805,805,805,805,805,805,805,805,805,805,805,805,805,805,805,805,805,805,805,805,805,805,805,805,805,805,805,805,805,805,805,805,805,805,805,805,805,805,805,805,805,805,805,805,805,805,805,805,805,805,805,805,805,805,805,805,805,805,805,805,805,805,805,805,805,805,805,805,805,805,805,805,805,805,805,805,805,805,805,805,805,805,806,809,818,850,871,885,904,919,936,944,950,959,972,992,1000,1006,1013,1017,1025,1029,1032,1036,1040,1043,1043,1045,1046,1048,1050,1052,1053,1053,1053,1053,1053,1053,1053,1053,1053,1050,1037,1019,1001,977,973,969,967,963,951,932,919,903,892,872,865,856,851,846,839,829,823,820,820,819,811,792,770,744,668,649,636,630,625,614,609,602,598,594,589,587,586,582,579,574,571,567,561,559,555,555,552,546,542,529,526,524],"ymouse":[628,628,628,628,628,628,628,628,628,628,628,628,628,628,628,628,628,628,628,628,628,628,628,628,628,628,628,628,628,628,628,628,628,628,628,628,628,628,628,628,628,628,628,628,628,628,628,628,628,628,628,628,628,628,628,628,628,628,628,628,628,628,628,628,628,628,628,628,628,628,628,628,628,628,628,628,628,628,628,628,628,628,628,628,628,628,628,628,628,628,628,628,628,628,628,628,628,628,627,627,627,626,626,626,626,626,626,626,626,626,626,626,626,626,626,626,626,626,626,626,626,626,626,626,626,626,626,626,626,626,626,626,626,626,626,626,626,626,626,626,626,626,626,626,626,626,626,626,626,626,626,626,626,626,626,626,626,626,626,626,626,626,626,626,626,626,626,626,626,626,626,626,626,626,626,626,626,626,626,626,626,626,626,626,626,626,626,624,619,607,568,550,537,525,514,501,496,491,485,476,456,447,439,428,422,406,400,392,378,366,349,338,327,316,300,276,265,260,256,254,254,254,254,254,254,254,254,263,277,291,311,316,322,324,331,355,390,419,456,483,525,542,556,563,569,577,584,588,589,589,589,566,501,423,341,154,101,71,54,40,20,11,3,0,0,0,0,0,0,1,3,5,7,11,12,14,14,16,20,24,33,35,35],"timestamp_mouse":[4,23,42,63,82,103,122,142,162,182,203,222,243,262,282,304,323,342,363,382,402,422,443,462,483,503,522,543,562,583,603,623,643,663,682,702,722,743,763,782,802,823,842,864,882,902,922,942,962,984,1003,1022,1043,1063,1082,1102,1122,1143,1162,1183,1203,1222,1242,1262,1283,1304,1322,1342,1363,1384,1402,1422,1442,1463,1483,1502,1523,1543,1564,1583,1603,1622,1642,1663,1684,1702,1724,1742,1762,1783,1802,1823,1844,1862,1882,1902,1923,1942,1962,1982,2003,2023,2043,2062,2083,2104,2122,2142,2162,2183,2202,2223,2242,2263,2284,2302,2323,2343,2363,2382,2402,2424,2443,2462,2483,2502,2522,2543,2563,2582,2604,2622,2642,2663,2683,2702,2722,2742,2762,2783,2803,2823,2844,2863,2884,2902,2922,2943,2963,2982,3002,3024,3042,3062,3084,3103,3122,3142,3162,3183,3204,3222,3242,3263,3283,3302,3323,3342,3362,3382,3402,3423,3443,3462,3483,3503,3522,3542,3564,3583,3602,3623,3644,3662,3683,3703,3722,3742,3764,3782,3803,3822,3842,3862,3884,3904,3923,3943,3962,3982,4003,4023,4043,4064,4083,4102,4122,4142,4162,4182,4202,4223,4242,4262,4282,4302,4322,4343,4362,4382,4403,4423,4443,4463,4482,4504,4523,4543,4562,4582,4602,4623,4644,4662,4682,4703,4723,4743,4762,4783,4803,4824,4842,4862,4883,4903,4923,4943,4962,4984,5003,5022,5043,5063,5083,5103,5122,5142,5162,5183,5202,5222,5243,5264,5282,5304,5324,5343,5362,5383,5402,5422,5442,5462,5482,5503,5523,5542,5562,5583,5604,5622,5642],"xSR":741.5,"ySR":573.95,"xT1":424.9,"yT1":0,"xT2":1058.1,"yT2":0,"toosoon":0,"cond_shown":"Incongruent","ratio_trial":300,"L_num":2,"L_den":4,"R_num":6,"R_den":30,"correct_side":1,"subjID":"camilocarvajalsierra20","gender":"0","school":"6","age":"11"},{"start_time":1551880631050,"click_time":1551880633196,"finger_time":1551880632716,"fix_duration":1172.7371906569854,"trial":6,"RT":1666,"MT":480,"sideResp":1,"stimulus":[],"xmouse":[765,765,766,766,766,766,766,766,766,766,766,766,766,766,766,766,766,766,766,766,766,766,766,766,766,766,766,766,766,766,766,766,766,766,766,766,766,766,766,766,766,766,766,766,766,766,766,766,766,766,766,766,766,766,766,766,766,766,766,766,766,766,766,766,766,766,766,766,766,766,766,766,766,766,766,766,765,763,763,763,763,761,753,744,736,724,682,658,637,620,608,589,582,575,567,562,552,546,538,534,532,529,528,527,526,525,522,519],"ymouse":[605,605,607,607,607,607,608,608,608,609,609,609,609,609,609,609,609,609,609,609,609,609,609,609,609,609,609,609,609,609,609,609,609,609,609,609,609,609,609,609,609,609,609,609,609,609,609,609,609,609,609,609,609,609,609,609,609,609,609,609,609,609,609,609,609,609,609,609,609,609,609,609,609,609,610,610,612,613,613,613,613,611,591,565,538,502,371,329,292,263,241,209,199,191,180,173,152,137,123,118,114,108,105,104,103,102,100,97],"timestamp_mouse":[5,25,45,67,86,106,126,146,166,186,206,225,246,265,285,306,327,345,366,385,406,426,446,467,485,506,525,545,567,587,605,625,646,665,687,706,727,745,766,787,806,825,846,867,887,906,926,945,967,985,1006,1025,1046,1067,1085,1105,1125,1147,1165,1186,1207,1225,1245,1265,1286,1306,1325,1347,1366,1386,1406,1427,1445,1466,1486,1507,1525,1545,1566,1586,1607,1626,1645,1666,1686,1705,1726,1746,1766,1785,1805,1827,1847,1866,1886,1906,1925,1945,1965,1985,2005,2026,2046,2065,2085,2105,2125,2146],"xSR":741.5,"ySR":573.95,"xT1":424.9,"yT1":0,"xT2":1058.1,"yT2":0,"toosoon":0,"cond_shown":"Congruent","ratio_trial":100,"L_num":9,"L_den":15,"R_num":8,"R_den":16,"correct_side":1,"subjID":"camilocarvajalsierra20","gender":"0","school":"6","age":"11"},{"start_time":1551880638671,"click_time":1551880640936,"finger_time":1551880640215,"fix_duration":1194.7451190109628,"trial":7,"RT":1544,"MT":721,"sideResp":2,"stimulus":[],"xmouse":[799,799,799,799,799,799,799,799,799,799,799,799,799,799,799,799,799,799,799,799,799,799,799,799,799,799,799,799,799,799,799,799,799,799,799,799,799,799,799,799,799,799,799,799,799,799,799,799,799,799,799,799,799,799,799,799,799,799,799,799,799,799,799,799,799,799,799,799,799,799,799,799,799,799,799,808,833,855,883,910,954,963,969,971,971,971,971,973,978,985,1009,1024,1044,1068,1089,1111,1112,1112,1112,1112,1112,1112,1112,1112,1112,1112,1112,1112,1111,1111,1111,1111,1111,1111],"ymouse":[633,633,633,633,633,633,633,633,633,633,633,633,633,633,633,633,633,633,633,633,633,633,633,633,633,633,633,633,633,633,633,633,633,633,633,633,633,633,633,633,633,633,633,633,633,633,633,633,633,633,633,633,633,633,633,633,633,633,633,633,633,633,633,633,633,633,633,633,633,633,633,633,633,633,633,629,615,598,577,557,484,461,437,409,379,299,276,255,237,219,181,166,152,137,127,116,116,116,116,116,116,116,116,116,116,115,113,109,108,107,105,102,100,98],"timestamp_mouse":[6,24,45,64,84,105,125,146,164,186,205,224,245,264,285,305,324,345,366,386,405,425,445,465,485,504,525,546,565,584,604,625,644,665,685,704,725,745,765,785,804,826,846,864,885,904,926,946,964,984,1005,1025,1045,1064,1084,1104,1124,1146,1164,1186,1204,1224,1246,1265,1285,1306,1326,1344,1364,1384,1406,1424,1446,1465,1484,1504,1525,1544,1564,1585,1606,1625,1644,1664,1684,1705,1725,1744,1765,1784,1805,1825,1845,1864,1885,1905,1924,1944,1964,1985,2005,2024,2044,2065,2086,2104,2125,2144,2165,2184,2204,2224,2244,2265],"xSR":741.5,"ySR":573.95,"xT1":424.9,"yT1":0,"xT2":1058.1,"yT2":0,"toosoon":0,"cond_shown":"Incongruent","ratio_trial":200,"L_num":9,"L_den":15,"R_num":8,"R_den":10,"correct_side":2,"subjID":"camilocarvajalsierra20","gender":"0","school":"6","age":"11"},{"start_time":1551880643469,"click_time":1551880645635,"finger_time":1551880645095,"fix_duration":1412.286535337761,"trial":8,"RT":1626,"MT":540,"sideResp":2,"stimulus":[],"xmouse":[801,801,801,801,801,801,801,801,801,801,801,801,801,801,801,801,801,801,801,801,801,801,801,801,801,801,801,801,801,801,801,801,801,801,801,801,801,801,801,801,801,801,801,801,801,801,801,801,801,801,801,801,801,801,801,801,801,801,801,801,801,801,801,801,801,801,801,801,801,801,801,801,801,801,801,801,801,801,801,801,832,887,913,940,957,979,995,1011,1027,1038,1046,1049,1050,1051,1053,1067,1074,1082,1090,1092,1095,1096,1096,1096,1096,1097,1098,1099,1100],"ymouse":[628,628,628,628,628,628,628,628,628,628,628,628,628,628,628,628,628,628,628,628,628,628,628,628,628,628,628,628,628,628,628,628,628,628,628,628,628,628,628,628,628,628,628,628,628,628,628,628,628,628,628,628,628,628,628,628,628,628,628,628,628,628,628,628,628,628,628,628,628,628,628,628,628,628,628,628,628,628,628,629,611,582,556,526,510,478,448,408,368,287,219,202,194,187,178,154,143,132,121,119,114,112,111,111,110,105,102,100,97],"timestamp_mouse":[11,27,46,67,87,107,127,146,166,186,207,227,247,268,287,306,327,347,366,388,406,427,448,466,486,508,526,546,566,587,607,627,647,667,687,708,727,746,767,786,806,827,847,868,887,907,927,946,967,987,1007,1026,1046,1067,1086,1108,1127,1147,1166,1186,1207,1226,1246,1267,1287,1307,1326,1348,1366,1386,1407,1428,1446,1468,1487,1506,1527,1546,1566,1587,1606,1626,1646,1666,1687,1706,1727,1747,1767,1787,1807,1826,1846,1866,1886,1906,1926,1946,1966,1986,2007,2026,2046,2067,2087,2106,2127,2146,2166],"xSR":741.5,"ySR":573.95,"xT1":424.9,"yT1":0,"xT2":1058.1,"yT2":0,"toosoon":0,"cond_shown":"Incongruent","ratio_trial":200,"L_num":7,"L_den":15,"R_num":6,"R_den":9,"correct_side":2,"subjID":"camilocarvajalsierra20","gender":"0","school":"6","age":"11"},{"start_time":1551880646917,"click_time":1551880649456,"finger_time":1551880648896,"fix_duration":340.12359445301024,"trial":9,"RT":1979,"MT":560,"sideResp":1,"stimulus":[],"xmouse":[795,795,795,795,795,795,795,795,795,795,795,795,795,795,795,795,795,795,795,795,795,795,795,795,795,795,795,795,795,795,795,795,795,795,795,795,795,795,795,795,795,795,795,795,795,795,795,795,795,795,795,795,795,795,795,795,795,795,795,795,795,795,795,795,795,795,795,795,795,795,795,795,795,795,795,795,795,795,795,795,795,795,794,788,783,777,773,770,770,770,770,770,770,770,770,770,769,766,762,757,750,742,724,708,694,682,668,650,638,631,623,613,596,588,583,577,574,569,565,563,557,546,536,532,529,525,524],"ymouse":[603,603,603,603,603,603,603,603,603,603,603,603,603,603,603,603,603,603,603,603,603,603,603,603,603,603,603,603,603,603,603,603,603,603,603,603,603,603,603,603,603,603,603,603,603,603,603,603,603,603,603,603,603,603,603,603,603,603,603,603,603,603,603,603,603,603,603,603,603,603,603,603,603,603,603,603,603,603,603,603,603,603,604,606,608,611,612,613,613,613,613,613,613,613,613,613,611,584,556,537,511,488,429,389,356,334,310,280,263,252,241,230,210,199,188,180,174,167,161,157,141,124,103,97,89,82,78],"timestamp_mouse":[18,38,58,79,98,118,140,159,179,198,219,239,260,279,298,318,339,360,378,398,419,440,458,478,499,518,538,560,578,598,618,640,659,679,699,718,738,759,778,799,819,839,858,878,900,918,938,959,979,998,1018,1039,1059,1079,1098,1119,1139,1159,1178,1200,1219,1239,1258,1280,1299,1318,1338,1358,1379,1400,1419,1439,1458,1478,1498,1518,1540,1558,1579,1599,1618,1639,1659,1680,1699,1718,1738,1759,1778,1799,1818,1840,1860,1879,1898,1918,1938,1960,1979,1999,2018,2040,2058,2078,2098,2118,2140,2160,2178,2199,2218,2239,2259,2279,2299,2320,2338,2359,2378,2398,2418,2440,2459,2478,2499,2520,2539],"xSR":741.5,"ySR":573.95,"xT1":424.9,"yT1":0,"xT2":1058.1,"yT2":0,"toosoon":0,"cond_shown":"Incongruent","ratio_trial":100,"L_num":8,"L_den":20,"R_num":1,"R_den":2,"correct_side":2,"subjID":"camilocarvajalsierra20","gender":"0","school":"6","age":"11"},{"start_time":1551880652289,"click_time":1551880654635,"finger_time":1551880654175,"fix_duration":250,"trial":10,"RT":1886,"MT":460,"sideResp":1,"stimulus":[],"xmouse":[802,802,802,802,802,802,802,802,802,802,802,802,802,802,802,802,802,802,802,802,802,802,802,802,802,802,802,802,802,802,802,802,802,802,802,802,802,802,802,802,802,802,802,802,802,802,802,802,802,802,802,802,802,802,802,802,802,802,802,802,802,802,802,802,802,802,802,801,801,800,800,800,800,800,800,800,800,800,800,800,800,800,800,800,800,800,800,800,800,800,800,800,792,789,765,740,711,674,640,601,588,582,576,569,554,543,534,529,524,517,512,507,502,499,491,487,485,482],"ymouse":[607,607,607,607,607,607,607,607,607,607,607,607,607,607,607,607,607,607,607,607,607,607,607,607,607,607,607,607,607,607,607,607,607,607,607,607,607,607,607,607,607,607,607,607,607,607,607,607,607,607,607,607,607,607,607,607,607,607,607,607,607,607,607,607,607,609,610,610,610,610,610,610,610,610,610,610,610,610,610,610,610,610,610,610,610,610,610,610,610,610,610,610,598,591,559,530,482,420,371,319,294,282,269,259,232,218,203,193,182,168,162,151,144,137,122,111,104,92],"timestamp_mouse":[6,26,46,66,88,108,126,147,167,187,207,226,246,267,288,307,326,348,367,386,408,428,446,466,488,506,527,547,567,587,607,627,648,667,688,707,727,747,767,787,807,826,846,866,888,906,927,946,966,988,1007,1027,1046,1066,1086,1107,1126,1146,1168,1187,1206,1228,1247,1267,1286,1306,1327,1346,1366,1387,1406,1426,1447,1467,1486,1507,1527,1546,1567,1586,1608,1627,1646,1666,1688,1707,1726,1746,1766,1787,1806,1826,1846,1866,1886,1907,1927,1947,1966,1987,2006,2027,2046,2067,2086,2106,2126,2146,2166,2186,2206,2228,2246,2267,2286,2306,2326,2346],"xSR":741.5,"ySR":573.95,"xT1":424.9,"yT1":0,"xT2":1058.1,"yT2":0,"toosoon":0,"cond_shown":"Incongruent","ratio_trial":300,"L_num":1,"L_den":2,"R_num":3,"R_den":15,"correct_side":1,"subjID":"camilocarvajalsierra20","gender":"0","school":"6","age":"11"},{"start_time":1551880656356,"click_time":1551880658575,"finger_time":1551880658036,"fix_duration":700.3046332881346,"trial":11,"RT":1680,"MT":539,"sideResp":2,"stimulus":[],"xmouse":[784,784,784,784,784,784,784,784,784,784,784,784,784,784,784,784,784,784,784,784,784,784,784,784,784,784,784,784,784,784,784,784,784,784,784,784,784,784,784,784,784,784,784,784,784,784,784,784,784,784,784,784,784,784,784,784,784,784,784,784,784,784,784,784,784,784,784,784,784,784,784,784,784,784,784,784,784,784,784,784,784,792,808,863,919,1014,1049,1055,1059,1061,1069,1074,1079,1085,1086,1086,1086,1086,1086,1087,1091,1091,1092,1093,1096,1097,1098,1100,1100,1100,1100],"ymouse":[594,594,594,594,594,594,594,594,594,594,594,594,594,594,594,594,594,594,594,594,594,594,594,594,594,594,594,594,594,594,594,594,594,594,594,594,594,594,594,594,594,594,594,594,594,594,594,594,594,594,594,594,594,594,594,594,594,594,594,594,594,594,594,594,594,594,594,594,594,594,594,594,594,594,594,594,594,594,594,594,594,594,587,562,539,485,459,448,432,416,382,365,347,323,285,221,206,189,178,163,140,135,131,125,115,110,106,102,102,101,99],"timestamp_mouse":[22,39,60,79,99,120,139,159,180,201,220,239,260,281,300,319,340,359,381,399,419,440,460,479,500,519,540,560,579,599,619,639,659,681,699,719,739,760,779,800,819,839,861,881,899,919,940,961,980,1000,1019,1039,1061,1080,1100,1121,1139,1160,1179,1201,1221,1239,1260,1280,1299,1320,1340,1360,1379,1400,1419,1441,1460,1479,1501,1520,1540,1560,1580,1601,1619,1639,1660,1680,1699,1720,1740,1760,1779,1800,1820,1840,1860,1879,1899,1921,1939,1960,1979,2000,2019,2040,2059,2081,2100,2120,2139,2159,2180,2201,2219],"xSR":741.5,"ySR":573.95,"xT1":424.9,"yT1":0,"xT2":1058.1,"yT2":0,"toosoon":0,"cond_shown":"Incongruent","ratio_trial":100,"L_num":9,"L_den":18,"R_num":6,"R_den":10,"correct_side":2,"subjID":"camilocarvajalsierra20","gender":"0","school":"6","age":"11"},{"start_time":1551880661145,"click_time":1551880664177,"finger_time":1551880663177,"fix_duration":989.3002170637286,"trial":12,"RT":2032,"MT":1000,"sideResp":2,"stimulus":[],"xmouse":[800,800,800,800,800,800,800,800,800,800,800,800,800,800,800,800,800,800,800,800,800,800,800,800,800,800,800,800,800,800,800,800,800,800,800,800,800,800,800,800,800,800,800,800,800,800,800,800,800,800,800,800,800,800,800,800,800,800,800,800,800,800,800,800,800,800,800,800,800,800,800,800,800,800,800,800,800,800,800,800,800,800,800,800,800,800,800,800,800,800,800,800,800,800,800,800,800,800,800,800,809,880,943,1003,1056,1131,1146,1157,1169,1176,1190,1195,1198,1199,1199,1199,1198,1196,1193,1191,1190,1187,1186,1185,1184,1183,1182,1180,1179,1179,1178,1178,1178,1178,1178,1178,1178,1178,1178,1178,1178,1178,1177,1176,1172,1165,1154,1150,1149,1149,1148,1147],"ymouse":[621,621,621,621,621,621,621,621,621,621,621,621,621,621,621,621,621,621,621,621,621,621,621,621,621,621,621,621,621,621,621,621,621,621,621,621,621,621,621,621,621,621,621,621,621,621,621,621,621,621,621,621,621,621,621,621,621,621,621,621,621,621,621,621,621,621,621,621,621,621,621,621,621,621,621,621,621,621,621,621,621,621,621,621,621,621,621,621,621,621,621,621,621,621,621,621,621,621,621,621,611,559,516,471,420,334,310,291,263,246,215,200,189,178,170,160,154,147,142,138,136,133,132,132,131,129,128,127,127,127,126,126,126,126,126,126,126,126,126,126,126,126,125,125,121,116,108,105,104,104,102,97],"timestamp_mouse":[11,30,50,72,92,110,131,151,171,191,211,231,251,270,291,311,331,350,372,390,410,430,451,470,490,512,532,550,570,591,611,631,651,672,690,711,732,750,770,791,810,832,851,871,890,911,931,950,970,991,1011,1031,1051,1072,1090,1110,1131,1151,1170,1191,1211,1230,1251,1271,1290,1310,1331,1352,1370,1390,1410,1432,1450,1470,1490,1510,1531,1552,1570,1590,1611,1630,1651,1671,1690,1711,1731,1750,1770,1791,1810,1830,1850,1871,1892,1910,1930,1951,1970,1990,2010,2032,2051,2070,2091,2111,2131,2150,2170,2190,2211,2230,2250,2270,2291,2311,2331,2351,2371,2390,2411,2431,2450,2471,2491,2511,2530,2550,2571,2591,2611,2631,2650,2671,2690,2711,2731,2750,2770,2790,2811,2831,2850,2870,2891,2910,2931,2951,2970,2991,3011,3032],"xSR":741.5,"ySR":573.95,"xT1":424.9,"yT1":0,"xT2":1058.1,"yT2":0,"toosoon":0,"cond_shown":"Congruent","ratio_trial":100,"L_num":7,"L_den":14,"R_num":15,"R_den":25,"correct_side":2,"subjID":"camilocarvajalsierra20","gender":"0","school":"6","age":"11"},{"start_time":1551880666126,"click_time":1551880669575,"finger_time":1551880669116,"fix_duration":250,"trial":13,"RT":2990,"MT":459,"sideResp":1,"stimulus":[],"xmouse":[801,801,801,801,801,801,801,801,801,801,801,801,801,801,801,801,801,801,801,801,801,801,801,801,801,801,801,801,801,801,801,801,801,801,801,801,801,801,801,801,801,801,801,801,801,801,801,801,801,801,801,801,801,801,801,801,801,801,801,801,801,801,801,801,801,801,801,801,801,801,801,801,801,801,801,801,801,801,801,801,801,801,801,801,801,801,801,801,801,801,801,801,801,801,801,801,801,801,801,801,801,801,801,801,801,801,801,801,801,801,801,801,801,801,801,801,801,801,801,801,801,801,801,801,801,801,801,801,801,801,801,801,801,801,801,801,801,801,801,801,801,801,801,801,801,801,801,800,796,784,769,743,737,733,730,727,716,707,698,684,674,659,602,581,565,554,532,521,513,507,499,495,489],"ymouse":[605,605,605,605,605,605,605,605,605,605,605,605,605,605,605,605,605,605,605,605,605,605,605,605,605,605,605,605,605,605,605,605,605,605,605,605,605,605,605,605,605,605,605,605,605,605,605,605,605,605,605,605,605,605,605,605,605,605,605,605,605,605,605,605,605,605,605,605,605,605,605,605,605,605,605,605,605,605,605,605,605,605,605,605,605,605,605,605,605,605,605,605,605,605,605,605,605,605,605,605,605,605,605,605,605,605,605,605,605,605,605,605,605,605,605,605,605,605,605,605,605,605,605,605,605,605,605,605,605,605,605,605,605,605,605,605,605,605,605,605,605,605,605,605,605,605,605,605,600,571,545,498,489,481,475,466,440,425,408,384,365,334,254,228,210,195,166,151,140,131,117,108,95],"timestamp_mouse":[9,31,50,69,90,111,129,150,171,190,209,231,250,269,289,311,330,349,370,391,410,430,450,471,489,509,530,549,571,589,609,631,650,669,691,710,730,750,770,790,810,830,849,870,890,911,929,950,970,989,1009,1031,1049,1071,1089,1109,1129,1151,1170,1190,1211,1231,1249,1269,1289,1311,1330,1354,1371,1391,1409,1429,1450,1469,1490,1511,1530,1549,1570,1589,1609,1631,1650,1669,1689,1710,1730,1750,1771,1790,1810,1829,1851,1871,1890,1909,1930,1950,1970,1989,2010,2030,2049,2069,2091,2109,2130,2151,2170,2189,2211,2229,2249,2270,2290,2310,2329,2350,2370,2389,2411,2429,2450,2469,2489,2511,2529,2549,2569,2591,2609,2629,2649,2669,2690,2709,2730,2751,2771,2790,2809,2830,2849,2869,2890,2910,2930,2949,2969,2990,3009,3030,3049,3070,3089,3109,3130,3150,3169,3190,3209,3230,3249,3269,3289,3309,3330,3350,3369,3389,3409,3429,3449],"xSR":741.5,"ySR":573.95,"xT1":424.9,"yT1":0,"xT2":1058.1,"yT2":0,"toosoon":0,"cond_shown":"Incongruent","ratio_trial":200,"L_num":1,"L_den":3,"R_num":2,"R_den":15,"correct_side":1,"subjID":"camilocarvajalsierra20","gender":"0","school":"6","age":"11"},{"start_time":1551880670927,"click_time":1551880672676,"finger_time":1551880672476,"fix_duration":250,"trial":14,"RT":1549,"MT":200,"sideResp":1,"stimulus":[],"xmouse":[794,794,794,794,794,794,794,794,794,794,794,794,794,794,794,794,794,794,794,794,794,794,794,794,794,794,794,794,794,794,794,794,794,794,794,794,794,794,794,794,794,794,794,794,794,794,794,794,794,794,794,794,794,794,794,794,794,794,794,794,794,794,794,794,794,794,794,794,794,792,788,779,777,772,771,771,771,765,754,726,700,668,599,573,557,544,533,519],"ymouse":[596,596,596,596,596,596,596,596,596,596,596,596,596,596,596,596,596,596,596,596,596,596,596,596,596,596,596,596,596,596,596,596,596,596,596,596,596,596,596,596,596,596,596,596,596,596,596,596,596,596,596,596,596,596,596,596,596,596,596,596,596,596,596,596,596,596,596,596,596,596,592,585,583,580,578,578,578,559,530,432,345,279,167,124,93,75,59,39],"timestamp_mouse":[9,28,49,69,90,109,130,148,169,188,208,230,248,269,288,308,328,350,368,389,408,430,448,469,490,508,529,548,569,588,610,628,648,668,689,709,728,749,769,788,808,830,850,868,889,910,928,949,969,990,1010,1030,1050,1069,1088,1110,1129,1149,1168,1189,1210,1229,1249,1268,1289,1309,1329,1348,1368,1389,1410,1428,1448,1468,1490,1508,1528,1549,1569,1588,1610,1629,1650,1669,1688,1708,1728,1749],"xSR":741.5,"ySR":573.95,"xT1":424.9,"yT1":0,"xT2":1058.1,"yT2":0,"toosoon":0,"cond_shown":"Incongruent","ratio_trial":200,"L_num":7,"L_den":10,"R_num":8,"R_den":16,"correct_side":1,"subjID":"camilocarvajalsierra20","gender":"0","school":"6","age":"11"},{"start_time":1551880674127,"click_time":1551880676255,"finger_time":1551880675556,"fix_duration":250,"trial":15,"RT":1429,"MT":699,"sideResp":2,"stimulus":[],"xmouse":[781,781,781,781,781,781,781,779,778,776,776,776,776,776,776,776,776,776,776,776,776,776,776,776,777,778,778,778,778,778,779,779,779,779,779,779,779,779,779,779,779,779,779,779,779,779,779,779,779,779,779,779,779,779,779,779,779,779,779,779,779,779,779,779,779,779,779,779,779,788,815,894,930,945,947,947,948,952,954,956,961,973,980,988,995,1004,1026,1037,1046,1051,1056,1061,1072,1077,1081,1085,1091,1093,1093,1096,1097,1100,1101,1102,1103,1104,1105],"ymouse":[608,608,608,608,608,608,608,608,608,608,608,608,608,608,608,608,608,608,608,608,608,608,609,609,609,609,609,609,609,609,609,609,609,609,609,609,609,609,609,609,609,609,609,609,609,609,609,609,609,609,609,609,609,609,609,609,609,609,609,609,609,609,609,609,609,609,609,609,609,608,595,561,543,532,525,518,489,473,458,443,411,357,336,319,302,285,251,236,223,215,202,193,174,165,158,153,141,136,132,126,123,116,112,108,104,102,99],"timestamp_mouse":[8,28,49,70,88,109,128,149,168,188,208,230,249,268,288,310,328,349,369,390,408,429,449,468,490,508,528,549,569,588,608,630,650,668,688,710,728,749,770,788,808,829,849,869,889,910,929,948,968,989,1009,1029,1049,1070,1089,1108,1130,1149,1168,1188,1209,1228,1249,1269,1288,1308,1330,1349,1369,1388,1408,1429,1449,1470,1489,1508,1529,1548,1568,1588,1608,1628,1648,1668,1688,1710,1729,1749,1769,1788,1808,1829,1849,1869,1889,1909,1928,1948,1969,1990,2008,2029,2048,2069,2089,2109,2128],"xSR":741.5,"ySR":573.95,"xT1":424.9,"yT1":0,"xT2":1058.1,"yT2":0,"toosoon":0,"cond_shown":"Congruent","ratio_trial":200,"L_num":9,"L_den":30,"R_num":13,"R_den":26,"correct_side":2,"subjID":"camilocarvajalsierra20","gender":"0","school":"6","age":"11"},{"start_time":1551880678199,"click_time":1551880680076,"finger_time":1551880679616,"fix_duration":683.9825106713157,"trial":16,"RT":1417,"MT":460,"sideResp":1,"stimulus":[],"xmouse":[807,807,807,807,807,807,807,807,807,807,807,807,807,807,807,807,807,807,807,807,807,807,807,807,807,807,807,807,807,807,807,807,807,807,807,807,807,807,807,807,807,807,807,807,807,807,807,807,807,807,807,807,807,807,807,807,807,807,807,807,807,807,807,807,807,807,807,804,785,770,732,672,632,597,583,580,573,569,564,562,561,559,559,557,557,554,549,541,537,534,531,529,525,524],"ymouse":[646,646,646,646,646,646,646,646,646,646,646,646,646,646,646,646,646,646,646,646,646,646,646,646,646,646,646,646,646,646,646,646,646,646,646,646,646,646,646,646,646,646,646,646,646,646,646,646,646,646,646,646,646,646,646,646,646,646,646,646,646,646,646,646,646,646,645,641,613,594,548,481,445,406,380,373,353,340,309,298,287,275,246,233,217,197,167,135,125,114,101,92,80,76],"timestamp_mouse":[17,38,58,76,96,116,137,156,176,196,218,237,257,278,297,316,336,358,376,398,416,437,456,476,498,516,538,556,577,597,616,636,657,676,697,718,737,757,777,797,816,838,857,876,896,916,936,958,977,998,1017,1037,1057,1076,1097,1117,1137,1157,1176,1197,1217,1237,1257,1276,1296,1316,1337,1356,1377,1398,1417,1438,1456,1478,1498,1518,1536,1556,1577,1598,1616,1637,1656,1676,1696,1718,1736,1756,1777,1796,1817,1837,1856,1877],"xSR":741.5,"ySR":573.95,"xT1":424.9,"yT1":0,"xT2":1058.1,"yT2":0,"toosoon":0,"cond_shown":"Incongruent","ratio_trial":300,"L_num":7,"L_den":10,"R_num":8,"R_den":20,"correct_side":1,"subjID":"camilocarvajalsierra20","gender":"0","school":"6","age":"11"},{"start_time":1551880686735,"click_time":1551880688775,"finger_time":1551880688397,"fix_duration":597.1676182191114,"trial":17,"RT":1662,"MT":378,"sideResp":1,"stimulus":[],"xmouse":[783,783,783,783,783,783,783,783,783,783,783,783,783,783,783,783,783,783,783,783,783,783,783,783,783,783,783,783,783,783,783,783,783,783,783,783,783,783,783,783,783,783,783,783,783,783,783,783,783,783,783,783,783,783,783,783,783,783,783,783,783,783,783,783,783,783,783,783,783,783,783,783,783,783,783,783,783,783,783,783,783,777,758,731,691,646,609,566,558,555,552,548,540,535,530,525,521,515,512,510,508,507,504],"ymouse":[606,606,606,606,606,606,606,606,606,606,606,606,606,606,606,606,606,606,606,606,606,606,606,606,606,606,606,606,606,606,606,606,606,606,606,606,606,606,606,606,606,606,606,606,606,606,606,606,606,606,606,606,606,606,606,606,606,606,606,606,606,606,606,606,606,606,606,606,606,606,606,606,606,606,606,606,606,606,606,606,606,601,580,546,488,411,352,273,249,234,220,206,178,160,146,136,128,118,112,109,105,102,96],"timestamp_mouse":[3,21,40,61,82,101,121,140,161,182,200,220,241,261,280,300,321,340,361,382,401,420,442,461,480,500,520,541,560,582,602,620,641,661,680,701,720,742,760,780,800,822,840,861,881,901,921,940,961,981,1001,1020,1041,1061,1080,1102,1122,1140,1161,1182,1202,1220,1241,1260,1281,1300,1321,1342,1360,1381,1400,1421,1441,1461,1481,1501,1521,1541,1561,1582,1601,1620,1641,1662,1680,1701,1721,1742,1762,1781,1800,1822,1840,1861,1881,1900,1921,1940,1960,1980,2001,2021,2040],"xSR":741.5,"ySR":573.95,"xT1":424.9,"yT1":0,"xT2":1058.1,"yT2":0,"toosoon":0,"cond_shown":"Incongruent","ratio_trial":300,"L_num":1,"L_den":2,"R_num":2,"R_den":10,"correct_side":1,"subjID":"camilocarvajalsierra20","gender":"0","school":"6","age":"11"},{"start_time":1551880690246,"click_time":1551880694056,"finger_time":1551880691796,"fix_duration":250,"trial":18,"RT":1550,"MT":2260,"sideResp":1,"stimulus":[],"xmouse":[782,782,782,782,782,782,782,782,782,782,782,782,782,782,782,782,782,782,782,782,782,782,782,782,782,782,782,782,782,782,782,782,782,782,782,782,782,782,782,782,782,782,782,782,782,782,782,782,782,782,782,782,782,782,782,782,782,782,782,782,782,782,782,782,782,782,782,782,782,782,782,782,782,782,777,773,754,741,730,718,707,688,678,670,655,629,604,600,597,597,596,596,596,596,596,596,596,596,596,599,603,629,647,670,691,707,729,737,740,742,743,744,744,745,745,745,745,746,747,749,752,757,759,759,759,759,759,759,759,759,759,759,759,759,759,759,759,759,759,759,759,759,759,759,759,759,759,759,759,759,759,759,759,759,759,759,759,759,759,759,759,759,759,759,759,760,762,763,764,765,765,766,767,768,769,769,769,769,769,766,761,732,713,681,648,619,587,574,557,524,489],"ymouse":[614,614,614,614,614,614,614,614,614,614,614,614,614,614,614,614,614,614,614,614,614,614,614,614,614,614,614,614,614,614,614,614,614,614,614,614,614,614,614,614,614,614,614,614,614,614,614,614,614,614,614,614,614,614,614,614,614,614,614,614,614,614,614,614,614,614,614,614,614,614,614,614,614,614,608,603,576,562,550,536,523,503,489,472,441,398,363,355,348,346,345,345,345,345,345,345,345,345,347,359,374,432,462,492,523,549,583,592,597,599,601,602,602,602,602,602,604,605,606,608,611,614,615,615,615,615,615,615,615,615,615,615,615,615,615,615,615,615,615,615,615,615,615,615,615,615,615,615,615,615,615,615,615,615,615,615,615,615,615,615,615,615,615,615,615,618,620,622,623,624,624,626,626,626,627,627,627,627,627,619,611,563,533,489,438,399,323,277,230,136,63],"timestamp_mouse":[9,29,50,71,89,109,129,149,170,191,209,230,251,270,290,310,330,350,369,389,410,430,449,470,489,509,530,550,569,590,609,629,649,669,689,709,729,750,769,791,810,829,850,869,889,911,930,949,969,989,1011,1030,1050,1069,1091,1111,1129,1150,1171,1189,1209,1229,1249,1269,1289,1309,1331,1349,1369,1390,1411,1429,1450,1471,1490,1511,1529,1550,1569,1589,1609,1630,1649,1671,1690,1709,1729,1749,1770,1790,1809,1830,1849,1870,1889,1910,1929,1950,1971,1989,2009,2030,2050,2070,2089,2109,2130,2150,2169,2190,2209,2230,2250,2269,2289,2309,2329,2349,2369,2389,2411,2429,2449,2469,2490,2509,2531,2551,2571,2589,2609,2631,2649,2669,2690,2710,2730,2750,2770,2789,2809,2830,2851,2871,2889,2909,2930,2950,2970,2990,3011,3031,3049,3070,3089,3110,3130,3149,3170,3190,3209,3230,3250,3271,3289,3310,3330,3350,3369,3391,3409,3430,3451,3471,3490,3510,3531,3550,3570,3590,3610,3629,3649,3670,3690,3711,3729,3750,3770,3789,3810],"xSR":741.5,"ySR":573.95,"xT1":424.9,"yT1":0,"xT2":1058.1,"yT2":0,"toosoon":0,"cond_shown":"Incongruent","ratio_trial":200,"L_num":1,"L_den":3,"R_num":2,"R_den":15,"correct_side":1,"subjID":"camilocarvajalsierra20","gender":"0","school":"6","age":"11"},{"start_time":1551880695756,"click_time":1551880697756,"finger_time":1551880697255,"fix_duration":259.9268482202487,"trial":19,"RT":1499,"MT":501,"sideResp":1,"stimulus":[],"xmouse":[777,777,777,777,777,777,777,777,777,777,777,777,777,777,777,777,777,777,777,777,777,777,777,777,777,777,777,777,777,777,777,777,777,777,777,777,777,777,777,777,777,777,777,777,777,777,777,777,777,777,777,777,777,777,777,777,777,777,777,777,777,777,777,777,777,777,777,777,777,777,777,777,777,776,770,756,715,699,687,672,638,561,542,531,527,524,521,521,521,521,520,519,519,518,517,515,511,509,507,505,504],"ymouse":[603,603,603,603,603,603,603,603,603,603,603,603,603,603,603,603,603,603,603,603,603,603,603,603,603,603,603,603,603,603,603,603,603,603,603,603,603,603,603,603,603,603,603,603,603,603,603,603,603,603,603,603,603,603,603,603,603,603,603,603,603,603,603,603,603,603,603,603,603,603,603,603,603,591,581,559,501,479,460,428,345,246,229,219,211,202,190,188,187,185,181,175,172,169,166,155,132,125,113,104,97],"timestamp_mouse":[0,23,40,60,80,100,119,140,160,180,200,219,240,260,279,299,320,339,360,380,400,420,440,461,480,501,519,539,559,581,601,620,640,661,680,699,721,740,759,779,800,820,840,859,880,900,920,939,960,979,999,1019,1039,1060,1080,1100,1121,1140,1160,1180,1201,1220,1240,1259,1279,1299,1319,1340,1359,1380,1399,1419,1439,1459,1481,1499,1521,1539,1560,1579,1599,1620,1640,1659,1680,1700,1720,1739,1761,1779,1800,1819,1839,1859,1879,1901,1921,1941,1960,1979,2000],"xSR":741.5,"ySR":573.95,"xT1":424.9,"yT1":0,"xT2":1058.1,"yT2":0,"toosoon":0,"cond_shown":"Congruent","ratio_trial":100,"L_num":11,"L_den":22,"R_num":4,"R_den":10,"correct_side":1,"subjID":"camilocarvajalsierra20","gender":"0","school":"6","age":"11"},{"start_time":1551880699746,"click_time":1551880701716,"finger_time":1551880701055,"fix_duration":1069.9392642632367,"trial":20,"RT":1309,"MT":661,"sideResp":2,"stimulus":[],"xmouse":[798,798,798,798,798,798,798,798,798,798,798,798,798,798,798,798,798,798,798,798,798,798,798,798,798,798,798,798,798,798,798,798,798,798,798,798,798,798,798,798,798,798,798,798,798,798,798,798,798,798,798,798,798,798,798,798,798,798,798,798,798,798,805,812,830,844,872,877,883,889,896,923,940,956,967,979,1008,1020,1034,1055,1075,1105,1113,1116,1117,1119,1122,1122,1122,1122,1122,1122,1122,1122,1120,1119,1118,1118,1117],"ymouse":[615,615,615,615,615,615,615,615,615,615,615,615,615,615,615,615,615,615,615,615,615,615,615,615,615,615,615,615,615,615,615,615,615,615,615,615,615,615,615,615,615,615,615,615,615,615,615,615,615,615,615,615,615,615,615,615,615,615,615,615,615,615,616,615,610,603,586,582,577,572,563,535,521,509,499,489,454,439,423,397,363,255,226,211,194,179,159,153,147,145,142,137,132,127,121,117,106,101,94],"timestamp_mouse":[10,30,49,70,90,111,129,150,170,191,210,230,250,270,289,310,329,349,369,390,411,430,450,470,491,510,530,551,570,590,611,630,650,670,690,710,730,750,770,790,810,830,850,870,889,909,929,949,969,989,1009,1030,1049,1070,1089,1109,1129,1151,1170,1189,1211,1231,1250,1271,1290,1309,1330,1350,1369,1390,1411,1429,1450,1470,1490,1510,1531,1549,1569,1590,1611,1630,1650,1671,1691,1710,1730,1749,1770,1789,1810,1829,1849,1870,1890,1910,1930,1950,1970],"xSR":741.5,"ySR":573.95,"xT1":424.9,"yT1":0,"xT2":1058.1,"yT2":0,"toosoon":0,"cond_shown":"Incongruent","ratio_trial":100,"L_num":8,"L_den":20,"R_num":1,"R_den":2,"correct_side":2,"subjID":"camilocarvajalsierra20","gender":"0","school":"6","age":"11"},{"start_time":1551880702907,"click_time":1551880705635,"finger_time":1551880704516,"fix_duration":250,"trial":21,"RT":1609,"MT":1119,"sideResp":1,"stimulus":[],"xmouse":[802,802,802,802,802,802,802,802,802,802,802,802,802,802,802,802,802,802,802,802,802,802,802,802,802,802,802,802,802,802,802,802,802,802,802,802,802,802,802,802,802,802,802,802,802,802,802,802,802,802,802,802,802,802,802,802,802,802,802,802,802,802,802,802,802,802,802,802,802,802,802,802,802,802,802,802,803,811,832,839,845,851,857,866,871,877,882,887,900,904,911,918,924,933,938,944,952,962,975,981,985,989,992,994,994,994,994,993,977,935,882,823,763,730,725,718,710,699,663,649,638,629,620,598,590,585,578,571,559,556,553,549,546,536,532,528,522],"ymouse":[628,628,628,628,628,628,628,628,628,628,628,628,628,628,628,628,628,628,628,628,628,628,628,628,628,628,628,628,628,628,628,628,628,628,628,628,628,628,628,628,628,628,628,628,628,628,628,628,628,628,628,628,628,628,628,628,628,628,628,628,628,628,628,628,628,628,628,628,628,628,628,628,628,628,628,628,628,623,609,602,595,586,577,561,555,546,539,531,490,464,449,437,427,411,399,386,372,357,338,326,317,306,296,283,281,279,279,279,279,291,310,325,335,338,337,330,316,297,234,212,189,171,154,123,115,109,104,100,94,91,90,88,86,81,79,77,74],"timestamp_mouse":[9,29,48,68,88,109,128,148,169,189,208,230,248,268,289,308,330,348,368,389,408,430,448,468,489,509,529,548,570,588,608,629,649,668,689,709,728,748,769,789,809,828,848,869,889,908,929,949,968,989,1008,1028,1048,1069,1089,1108,1129,1149,1170,1188,1210,1228,1248,1269,1290,1309,1329,1349,1369,1389,1409,1429,1448,1470,1489,1509,1528,1549,1569,1588,1609,1628,1648,1669,1689,1708,1728,1749,1770,1790,1809,1829,1848,1868,1888,1908,1929,1950,1969,1988,2008,2029,2050,2069,2090,2108,2129,2149,2168,2188,2208,2229,2249,2268,2289,2308,2329,2349,2369,2388,2408,2428,2449,2468,2489,2508,2528,2548,2568,2588,2609,2628,2649,2668,2688,2709,2728],"xSR":741.5,"ySR":573.95,"xT1":424.9,"yT1":0,"xT2":1058.1,"yT2":0,"toosoon":0,"cond_shown":"Congruent","ratio_trial":200,"L_num":16,"L_den":20,"R_num":12,"R_den":20,"correct_side":1,"subjID":"camilocarvajalsierra20","gender":"0","school":"6","age":"11"},{"start_time":1551880707397,"click_time":1551880709397,"finger_time":1551880708976,"fix_duration":720.9500512849179,"trial":22,"RT":1579,"MT":421,"sideResp":1,"stimulus":[],"xmouse":[806,806,806,806,806,806,806,806,806,806,806,806,806,806,806,806,806,806,806,806,806,806,806,806,806,806,806,806,806,806,806,806,806,806,806,806,806,806,806,806,806,806,806,806,806,806,806,806,806,806,806,806,806,806,806,806,806,806,806,806,806,806,806,806,804,798,793,791,791,791,791,791,791,791,791,786,768,742,660,616,582,566,554,545,539,536,534,533,533,533,533,533,533,529,524,520,516,513,506,505],"ymouse":[628,628,628,628,628,628,628,628,628,628,628,628,628,628,628,628,628,628,628,628,628,628,628,628,628,628,628,628,628,628,628,628,628,628,628,628,628,628,628,628,628,628,628,628,628,628,628,628,628,628,628,628,628,628,628,628,628,628,628,628,628,628,628,628,629,630,630,631,631,631,631,631,631,631,631,626,606,578,478,376,290,248,223,185,163,151,144,141,139,139,139,138,138,134,128,124,117,112,100,94],"timestamp_mouse":[18,38,59,78,98,119,139,158,180,199,219,239,258,278,299,318,339,359,379,399,419,438,460,478,498,518,540,559,579,599,619,639,658,678,699,718,739,758,778,798,819,839,859,878,898,919,938,958,978,998,1019,1039,1059,1078,1098,1119,1138,1158,1179,1198,1220,1238,1258,1278,1299,1320,1338,1359,1378,1399,1419,1439,1458,1478,1498,1519,1540,1559,1579,1600,1620,1639,1659,1678,1700,1719,1740,1760,1779,1799,1819,1840,1859,1879,1898,1919,1938,1959,1978,1999],"xSR":741.5,"ySR":573.95,"xT1":424.9,"yT1":0,"xT2":1058.1,"yT2":0,"toosoon":0,"cond_shown":"Congruent","ratio_trial":300,"L_num":20,"L_den":25,"R_num":8,"R_den":16,"correct_side":1,"subjID":"camilocarvajalsierra20","gender":"0","school":"6","age":"11"},{"start_time":1551880710787,"click_time":1551880712735,"finger_time":1551880712195,"fix_duration":510.9703006716584,"trial":23,"RT":1408,"MT":540,"sideResp":2,"stimulus":[],"xmouse":[797,797,797,797,797,797,797,797,797,797,797,797,797,797,797,797,797,797,797,797,797,797,797,797,797,797,797,797,797,797,797,797,797,797,797,797,797,797,797,797,797,797,797,797,797,797,797,797,797,797,797,797,797,797,797,797,797,797,797,797,797,797,797,797,797,797,797,797,799,826,848,866,879,884,899,914,924,932,941,958,966,972,980,988,1003,1007,1011,1014,1018,1026,1033,1042,1052,1062,1085,1109,1118,1122],"ymouse":[596,596,596,596,596,596,596,596,596,596,596,596,596,596,596,596,596,596,596,596,596,596,596,596,596,596,596,596,596,596,596,596,596,596,596,596,596,596,596,596,596,596,596,596,596,596,596,596,596,596,596,596,596,596,596,596,596,596,596,596,596,596,596,596,596,596,596,596,596,582,570,557,547,541,518,495,475,449,426,384,363,342,321,300,258,245,233,226,219,207,198,186,173,163,143,116,101,92],"timestamp_mouse":[9,28,48,69,89,109,129,148,169,188,209,228,248,269,288,308,329,348,369,388,409,429,449,468,489,509,528,550,570,589,608,629,648,670,688,708,730,750,769,790,808,828,849,868,889,910,930,950,969,990,1009,1028,1049,1070,1089,1108,1130,1149,1169,1188,1209,1229,1248,1268,1290,1308,1328,1349,1369,1390,1408,1428,1449,1470,1489,1508,1528,1548,1570,1588,1609,1629,1649,1669,1688,1710,1729,1748,1770,1788,1808,1829,1848,1869,1889,1908,1929,1948],"xSR":741.5,"ySR":573.95,"xT1":424.9,"yT1":0,"xT2":1058.1,"yT2":0,"toosoon":0,"cond_shown":"Incongruent","ratio_trial":100,"L_num":2,"L_den":4,"R_num":8,"R_den":20,"correct_side":1,"subjID":"camilocarvajalsierra20","gender":"0","school":"6","age":"11"},{"start_time":1551880715509,"click_time":1551880717536,"finger_time":1551880717017,"fix_duration":1072.609234969139,"trial":24,"RT":1508,"MT":519,"sideResp":2,"stimulus":[],"xmouse":[802,802,802,802,802,802,802,802,802,802,802,802,802,802,802,802,802,802,802,802,802,802,802,802,802,802,802,802,802,802,802,802,802,802,802,802,802,802,802,802,802,802,802,802,802,802,802,802,802,802,802,802,802,802,802,802,802,802,802,802,802,802,802,802,802,802,802,802,802,802,802,802,802,802,811,847,884,919,934,945,956,967,978,1005,1022,1030,1042,1052,1078,1090,1103,1116,1128,1135,1137,1138,1139,1139,1139,1139,1139,1138],"ymouse":[614,614,614,614,614,614,614,614,614,614,614,614,614,614,614,614,614,614,614,614,614,614,614,614,614,614,614,614,614,614,614,614,614,614,614,614,614,614,614,614,614,614,614,614,614,614,614,614,614,614,614,614,614,614,614,614,614,614,614,614,614,614,614,614,614,614,614,614,614,614,614,614,614,614,605,585,563,534,513,497,480,460,442,393,358,337,315,296,253,240,221,203,184,158,148,139,132,126,113,110,101,96],"timestamp_mouse":[7,26,46,66,87,106,126,146,168,187,207,226,247,267,287,307,327,348,367,386,406,428,446,466,486,508,526,546,567,587,608,626,648,667,687,706,727,746,767,786,807,827,847,868,888,908,927,948,966,986,1008,1026,1046,1067,1086,1107,1126,1146,1167,1187,1206,1227,1246,1266,1286,1307,1327,1347,1367,1388,1408,1427,1447,1467,1487,1508,1527,1547,1567,1587,1607,1627,1646,1666,1687,1707,1726,1747,1766,1786,1807,1826,1847,1867,1887,1906,1927,1947,1967,1986,2007,2027],"xSR":741.5,"ySR":573.95,"xT1":424.9,"yT1":0,"xT2":1058.1,"yT2":0,"toosoon":0,"cond_shown":"Congruent","ratio_trial":300,"L_num":1,"L_den":5,"R_num":6,"R_den":12,"correct_side":2,"subjID":"camilocarvajalsierra20","gender":"0","school":"6","age":"11"},{"start_time":1551880719195,"click_time":1551880724876,"finger_time":1551880721756,"fix_duration":678.0094342907239,"trial":25,"RT":2561,"MT":3120,"sideResp":1,"stimulus":[],"xmouse":[794,794,794,794,794,794,794,793,793,793,793,793,793,793,793,793,793,793,793,793,793,793,793,793,793,793,793,793,793,793,793,793,793,793,793,793,793,793,793,793,793,793,793,793,793,793,793,793,793,793,793,793,793,793,793,793,793,793,793,793,793,793,793,793,793,793,793,793,793,793,793,793,793,793,793,793,793,793,793,793,793,793,793,793,793,793,793,793,793,793,793,793,793,793,793,793,793,793,793,793,793,793,793,793,793,793,793,793,793,793,793,793,793,793,793,793,793,793,793,793,793,793,793,793,793,791,772,734,566,474,420,400,393,393,393,393,393,393,393,393,393,393,393,393,393,393,393,393,393,393,393,401,401,621,861,991,1077,1122,1123,1123,1123,1124,1124,1124,1124,1124,1124,1124,1124,1124,1124,1124,1124,1124,1097,971,766,518,88,0,0,0,0,23,65,146,276,449,820,972,1077,1137,1167,1167,1167,1168,1134,997,526,320,177,119,115,119,150,248,319,439,463,474,483,490,497,525,552,571,589,597,600,600,600,600,600,600,600,600,600,600,600,600,600,600,600,604,610,637,663,689,732,742,751,758,764,775,784,790,794,794,794,794,789,775,748,680,654,627,616,609,596,589,580,572,565,546,538,526,517,504,499,495,494,492,490,488,487,486,486,485,485,485,485,485,484,484],"ymouse":[613,613,613,613,613,613,613,614,614,615,615,615,615,615,615,615,615,615,615,615,615,615,615,615,615,615,615,615,615,615,615,615,615,615,615,615,615,615,615,615,615,615,615,615,615,615,615,615,615,615,615,615,616,617,617,617,618,618,619,619,619,619,619,619,619,619,619,619,619,619,619,619,619,619,619,619,619,619,619,619,619,619,619,619,619,619,619,619,619,619,619,619,619,619,619,619,619,619,619,619,619,619,619,619,619,619,619,619,619,619,619,619,619,619,619,619,619,619,619,619,619,619,619,619,619,619,619,619,619,619,619,619,619,619,619,619,619,619,619,619,619,619,619,619,619,619,619,619,619,619,619,621,621,645,645,645,652,657,657,657,657,657,657,657,657,657,657,657,657,657,657,657,657,657,654,629,600,558,515,499,493,493,493,493,494,505,524,550,590,594,594,594,594,594,594,595,595,583,560,545,524,514,513,513,513,523,525,525,525,526,528,529,530,534,537,541,543,545,547,547,547,547,547,547,547,547,547,547,547,547,547,547,547,553,562,585,594,599,602,602,602,603,603,606,609,610,610,610,610,609,606,595,575,516,480,432,408,391,363,352,339,329,319,287,273,251,237,204,194,186,181,176,167,163,159,153,150,147,140,135,132,126,123,93],"timestamp_mouse":[20,40,61,80,101,122,140,160,180,201,222,242,261,280,302,321,341,362,380,401,420,440,462,480,501,521,542,561,580,600,621,642,660,680,700,720,742,761,780,801,820,841,862,880,900,920,940,961,980,1001,1021,1040,1060,1081,1101,1121,1140,1161,1180,1200,1221,1242,1261,1280,1301,1321,1342,1361,1381,1401,1420,1441,1460,1482,1502,1520,1541,1562,1581,1601,1621,1640,1661,1680,1701,1721,1741,1760,1780,1802,1821,1840,1860,1882,1900,1920,1940,1962,1980,2001,2021,2041,2060,2080,2101,2122,2140,2160,2181,2200,2221,2241,2262,2281,2300,2322,2340,2361,2382,2400,2420,2440,2462,2482,2500,2521,2541,2561,2580,2601,2620,2642,2661,2680,2700,2721,2740,2761,2781,2800,2822,2840,2861,2881,2901,2921,2940,2962,2980,3000,3021,3042,3060,3081,3101,3121,3140,3161,3180,3201,3221,3242,3262,3282,3301,3320,3340,3361,3382,3401,3422,3441,3461,3481,3502,3521,3540,3560,3580,3601,3620,3640,3660,3681,3701,3721,3741,3761,3781,3800,3822,3841,3861,3881,3900,3921,3941,3961,3981,4001,4020,4042,4061,4081,4102,4121,4140,4161,4180,4200,4220,4242,4261,4280,4300,4321,4341,4361,4382,4400,4421,4441,4462,4482,4501,4521,4540,4561,4580,4600,4622,4641,4662,4681,4700,4721,4741,4761,4780,4801,4820,4841,4861,4881,4902,4922,4940,4960,4981,5001,5021,5040,5061,5082,5100,5120,5141,5160,5180,5201,5220,5242,5260,5281,5300,5320,5341,5361,5381,5401,5420,5441,5461,5480,5501,5521,5540,5561,5580,5600,5621,5641,5661,5681],"xSR":741.5,"ySR":573.95,"xT1":424.9,"yT1":0,"xT2":1058.1,"yT2":0,"toosoon":0,"cond_shown":"Incongruent","ratio_trial":100,"L_num":10,"L_den":25,"R_num":9,"R_den":18,"correct_side":2,"subjID":"camilocarvajalsierra20","gender":"0","school":"6","age":"11"},{"start_time":1551880726431,"click_time":1551880728337,"finger_time":1551880727856,"fix_duration":513.7952997149722,"trial":26,"RT":1425,"MT":481,"sideResp":1,"stimulus":[],"xmouse":[797,795,793,791,791,791,791,791,791,791,791,791,791,791,791,791,791,791,791,791,791,791,791,791,791,791,791,791,791,791,791,791,791,791,791,791,791,791,791,791,791,791,791,791,791,791,791,791,791,791,791,791,791,791,791,791,786,782,778,776,775,775,775,775,775,775,775,775,768,757,745,732,727,726,722,708,664,655,646,639,634,618,607,598,590,587,584,576,573,567,560,554,547,540,532,521],"ymouse":[641,640,639,639,639,639,639,639,638,638,638,638,638,638,638,638,638,638,638,638,638,638,638,638,638,638,638,638,638,638,638,638,638,638,638,638,638,638,638,638,638,638,638,638,638,638,638,638,638,638,638,638,638,638,638,638,638,638,638,638,638,638,638,638,638,638,638,638,636,625,613,594,576,568,538,486,359,337,316,298,285,253,228,207,187,181,173,156,147,136,126,118,105,97,85,70],"timestamp_mouse":[5,25,45,65,85,105,126,144,165,184,204,225,245,265,286,306,325,345,364,385,404,425,445,465,485,504,526,545,564,584,604,626,645,665,684,704,724,746,764,786,805,825,846,864,885,906,924,944,964,985,1006,1025,1046,1066,1085,1105,1125,1145,1165,1186,1204,1226,1245,1264,1286,1305,1324,1345,1366,1384,1405,1425,1444,1464,1485,1505,1525,1546,1564,1584,1606,1625,1646,1665,1685,1705,1724,1746,1765,1784,1804,1825,1844,1865,1885,1906],"xSR":741.5,"ySR":573.95,"xT1":424.9,"yT1":0,"xT2":1058.1,"yT2":0,"toosoon":0,"cond_shown":"Congruent","ratio_trial":300,"L_num":20,"L_den":25,"R_num":9,"R_den":18,"correct_side":1,"subjID":"camilocarvajalsierra20","gender":"0","school":"6","age":"11"},{"start_time":1551880733446,"click_time":1551880735755,"finger_time":1551880735176,"fix_duration":250,"trial":27,"RT":1730,"MT":579,"sideResp":1,"stimulus":[],"xmouse":[776,776,776,776,776,776,776,776,776,776,776,776,776,776,776,776,776,776,776,776,776,776,776,776,776,776,776,776,776,776,776,776,776,776,776,776,776,776,776,776,776,776,776,776,776,776,776,776,776,776,776,776,776,776,776,776,776,776,776,776,776,776,776,776,776,776,776,776,776,776,776,776,776,776,776,779,783,784,785,786,787,787,782,778,771,756,678,641,615,600,589,565,556,543,535,524,520,518,515,512,509,505,502,500,499,499,499,499,499,499,499,499,499,499,499,499],"ymouse":[649,649,649,649,649,649,649,649,649,649,649,649,649,649,649,649,649,649,649,649,649,649,649,649,649,649,649,649,649,649,649,649,649,649,649,649,649,649,649,649,649,649,649,649,649,649,649,649,649,649,649,649,649,649,649,649,649,649,649,649,649,649,649,649,649,649,649,649,649,649,649,649,649,649,649,648,646,645,644,641,638,633,621,617,608,589,464,415,379,352,334,293,278,258,244,218,211,206,200,191,179,171,157,149,141,134,120,116,113,111,107,106,105,103,101,99],"timestamp_mouse":[10,29,49,70,90,110,131,150,170,189,210,229,250,269,290,309,330,349,370,390,410,429,449,471,490,510,530,550,569,590,610,629,650,670,690,710,731,750,769,790,810,830,850,870,890,910,930,950,970,989,1011,1031,1049,1071,1090,1110,1131,1149,1169,1189,1210,1230,1250,1269,1289,1310,1330,1351,1370,1391,1410,1430,1451,1469,1491,1510,1531,1551,1571,1589,1610,1630,1650,1671,1689,1709,1730,1750,1769,1790,1809,1830,1849,1871,1890,1910,1931,1950,1970,1990,2010,2029,2050,2070,2089,2109,2130,2150,2170,2189,2210,2229,2250,2270,2289,2309],"xSR":741.5,"ySR":573.95,"xT1":424.9,"yT1":0,"xT2":1058.1,"yT2":0,"toosoon":0,"cond_shown":"Incongruent","ratio_trial":100,"L_num":9,"L_den":18,"R_num":6,"R_den":10,"correct_side":2,"subjID":"camilocarvajalsierra20","gender":"0","school":"6","age":"11"},{"start_time":1551880738115,"click_time":1551880741317,"finger_time":1551880740056,"fix_duration":1258.677413907255,"trial":28,"RT":1941,"MT":1261,"sideResp":2,"stimulus":[],"xmouse":[802,802,802,802,802,802,802,802,802,802,802,802,802,802,802,802,802,802,802,802,802,802,802,802,802,802,802,802,802,802,802,802,802,802,802,802,802,802,802,802,802,802,802,802,802,802,802,802,802,802,802,802,802,802,802,802,802,802,802,802,802,802,802,802,802,802,802,802,802,802,802,802,802,802,802,802,802,802,802,802,802,802,802,802,802,802,802,802,802,802,802,802,802,802,800,797,786,754,732,717,704,703,701,701,700,700,700,700,700,700,700,700,700,700,700,700,701,716,724,731,738,747,759,762,765,768,771,773,775,776,777,778,779,782,783,784,785,785,785,785,785,785,785,785,785,785,785,785,787,790,811,834,910,951,987,1016,1036,1048,1067,1073,1080],"ymouse":[611,611,611,611,611,611,611,611,611,611,611,611,611,611,611,611,611,611,611,611,611,611,611,611,611,611,611,611,611,611,611,611,611,611,611,611,611,611,611,611,611,611,611,611,611,611,611,611,611,611,611,611,611,611,611,611,611,611,611,611,611,611,611,611,611,611,611,611,611,611,611,611,611,611,611,611,611,611,611,611,611,611,611,611,611,611,611,611,611,611,611,611,611,611,611,608,591,536,499,470,446,441,435,434,433,433,433,433,433,433,433,433,433,433,433,433,445,485,502,517,529,541,557,561,566,571,578,579,583,584,585,587,589,594,596,597,598,598,598,598,598,598,598,598,598,598,598,598,598,598,584,567,472,409,350,293,247,210,144,118,95],"timestamp_mouse":[1,22,41,61,82,102,121,140,160,180,200,222,242,260,280,301,321,341,361,382,400,420,441,461,481,501,521,540,560,581,600,620,640,661,681,700,721,741,761,781,801,820,840,860,881,901,921,941,961,981,1000,1020,1041,1061,1080,1101,1121,1142,1162,1181,1201,1221,1240,1261,1281,1301,1321,1341,1360,1380,1401,1421,1442,1462,1480,1500,1521,1541,1560,1581,1602,1620,1642,1661,1680,1702,1720,1740,1761,1780,1801,1822,1841,1860,1881,1902,1921,1941,1961,1980,2002,2021,2041,2061,2080,2100,2120,2140,2160,2180,2202,2221,2241,2261,2282,2301,2321,2340,2361,2380,2401,2420,2440,2462,2481,2500,2520,2541,2562,2580,2602,2620,2641,2660,2680,2701,2721,2741,2760,2781,2801,2820,2840,2860,2881,2900,2920,2940,2962,2980,3001,3021,3041,3061,3081,3100,3121,3140,3161,3181,3202],"xSR":741.5,"ySR":573.95,"xT1":424.9,"yT1":0,"xT2":1058.1,"yT2":0,"toosoon":0,"cond_shown":"Incongruent","ratio_trial":300,"L_num":4,"L_den":20,"R_num":2,"R_den":4,"correct_side":2,"subjID":"camilocarvajalsierra20","gender":"0","school":"6","age":"11"},{"start_time":1551880742919,"click_time":1551880745816,"finger_time":1551880744956,"fix_duration":642.2629367359823,"trial":29,"RT":2037,"MT":860,"sideResp":1,"stimulus":[],"xmouse":[810,810,810,810,810,810,810,810,810,810,810,810,810,810,810,810,810,810,810,810,810,810,810,810,810,810,810,810,810,810,810,810,810,810,810,810,810,810,810,810,810,810,810,810,810,810,810,810,810,810,810,810,810,810,810,810,810,810,810,810,810,810,808,799,785,769,760,759,759,759,759,759,759,759,759,759,759,759,759,760,763,765,769,772,774,776,777,777,777,777,777,777,778,779,780,782,783,784,784,784,784,780,744,716,690,670,662,652,649,642,638,633,618,612,606,602,598,593,590,587,583,577,570,568,565,560,552,541,539,538,537,536,530,528,528,528,528,528,527,526,525,525,525,525,524],"ymouse":[642,642,642,642,642,642,642,642,642,642,642,642,642,642,642,642,642,642,642,642,642,642,642,642,642,642,642,642,642,642,642,642,642,642,642,642,642,642,642,642,642,642,642,642,642,642,642,642,642,642,642,642,642,642,642,642,642,642,642,642,642,642,643,645,648,651,652,652,652,652,652,652,652,652,652,652,652,652,652,652,652,652,652,652,652,651,650,650,650,650,649,649,648,647,646,646,645,644,641,633,613,571,446,381,319,261,217,157,136,118,104,90,63,56,49,46,45,43,43,43,43,43,43,43,45,47,51,57,57,58,58,58,62,63,63,63,63,63,63,64,64,65,65,65,65],"timestamp_mouse":[17,36,57,78,97,117,136,158,177,196,217,237,256,276,296,318,338,358,376,397,417,436,458,477,497,518,537,557,577,597,616,636,658,677,697,716,737,757,777,797,817,837,858,877,898,916,937,957,976,996,1017,1037,1056,1077,1098,1116,1137,1157,1176,1197,1217,1238,1258,1276,1296,1317,1337,1357,1378,1398,1416,1438,1457,1478,1496,1518,1537,1557,1577,1597,1617,1637,1656,1677,1696,1716,1737,1756,1776,1796,1817,1836,1856,1876,1897,1916,1936,1957,1976,1997,2017,2037,2057,2077,2098,2117,2136,2157,2176,2198,2216,2237,2257,2278,2297,2317,2337,2357,2377,2397,2418,2437,2457,2476,2497,2518,2538,2557,2576,2596,2618,2638,2658,2676,2697,2717,2738,2758,2776,2797,2816,2837,2857,2877,2897],"xSR":741.5,"ySR":573.95,"xT1":424.9,"yT1":0,"xT2":1058.1,"yT2":0,"toosoon":0,"cond_shown":"Incongruent","ratio_trial":100,"L_num":3,"L_den":9,"R_num":7,"R_den":30,"correct_side":1,"subjID":"camilocarvajalsierra20","gender":"0","school":"6","age":"11"},{"start_time":1551880748016,"click_time":1551880750116,"finger_time":1551880749536,"fix_duration":1118.346516207138,"trial":30,"RT":1520,"MT":580,"sideResp":1,"stimulus":[],"xmouse":[795,795,795,795,795,795,795,795,795,795,795,795,795,795,795,795,795,795,795,795,795,795,795,795,795,795,795,795,795,795,795,795,795,795,795,795,795,795,795,795,795,795,795,795,795,795,795,795,795,795,795,795,795,795,795,795,795,795,795,795,795,795,795,795,795,795,793,792,784,782,780,780,780,778,774,771,762,750,722,708,694,684,670,647,633,624,617,611,596,589,584,579,576,565,552,543,535,529,519,513,507,500,494,490,489,489],"ymouse":[635,635,635,635,635,635,635,635,635,635,635,635,635,635,635,635,635,635,635,635,635,635,635,635,635,635,635,635,635,635,635,635,635,635,635,635,635,635,635,635,635,635,635,635,635,635,635,635,635,635,635,635,635,635,635,635,635,635,635,635,635,635,635,635,635,635,635,635,629,623,620,617,614,605,598,591,570,548,514,498,475,450,425,385,364,350,335,321,291,276,265,255,249,230,215,202,193,182,165,155,145,130,120,106,100,97],"timestamp_mouse":[0,19,41,60,80,101,120,141,161,180,200,221,239,259,281,301,320,339,359,381,400,419,439,460,480,500,519,541,561,579,600,619,639,661,679,700,720,739,760,780,799,821,840,860,879,901,920,939,961,980,999,1020,1040,1061,1079,1099,1121,1140,1159,1179,1200,1220,1240,1259,1279,1300,1320,1340,1361,1380,1401,1420,1440,1461,1481,1500,1520,1539,1560,1580,1599,1619,1640,1660,1679,1700,1721,1740,1759,1780,1799,1820,1841,1860,1879,1900,1919,1941,1960,1980,1999,2020,2041,2060,2079,2099],"xSR":741.5,"ySR":573.95,"xT1":424.9,"yT1":0,"xT2":1058.1,"yT2":0,"toosoon":0,"cond_shown":"Congruent","ratio_trial":100,"L_num":11,"L_den":22,"R_num":4,"R_den":10,"correct_side":1,"subjID":"camilocarvajalsierra20","gender":"0","school":"6","age":"11"},{"start_time":1551880752162,"click_time":1551880753935,"finger_time":1551880753596,"fix_duration":1104.8629468912736,"trial":31,"RT":1434,"MT":339,"sideResp":1,"stimulus":[],"xmouse":[809,809,809,809,809,809,809,809,809,809,809,809,809,809,809,809,809,809,809,809,809,809,809,809,809,809,809,809,809,809,809,809,808,808,808,807,807,807,807,807,807,807,807,807,807,807,807,807,807,807,807,807,807,805,804,799,795,793,790,789,787,785,785,785,785,785,785,785,785,783,772,753,728,703,683,649,639,632,621,612,590,577,567,556,548,531,524,517,510],"ymouse":[630,630,630,630,630,630,630,630,630,630,630,630,630,630,630,630,630,630,630,630,630,630,630,630,630,631,631,631,631,631,631,631,632,632,632,632,632,632,632,632,632,632,632,632,632,632,632,632,632,632,632,632,632,633,634,635,636,637,638,638,638,639,639,639,639,639,639,639,639,633,599,561,502,447,401,320,301,286,268,255,224,205,188,172,159,122,111,103,94],"timestamp_mouse":[16,33,55,74,94,113,133,155,175,193,214,234,253,274,294,313,334,353,373,394,414,435,453,475,494,515,534,553,575,594,614,634,654,674,694,713,734,753,774,793,813,833,854,874,894,914,934,954,973,993,1014,1034,1053,1073,1093,1113,1135,1154,1173,1194,1214,1234,1253,1273,1293,1313,1335,1353,1373,1394,1413,1434,1454,1473,1493,1514,1535,1553,1573,1593,1614,1634,1654,1674,1694,1714,1734,1755,1773],"xSR":741.5,"ySR":573.95,"xT1":424.9,"yT1":0,"xT2":1058.1,"yT2":0,"toosoon":0,"cond_shown":"Congruent","ratio_trial":100,"L_num":11,"L_den":22,"R_num":6,"R_den":15,"correct_side":1,"subjID":"camilocarvajalsierra20","gender":"0","school":"6","age":"11"},{"start_time":1551880755619,"click_time":1551880757396,"finger_time":1551880756976,"fix_duration":543.834573552012,"trial":32,"RT":1357,"MT":420,"sideResp":1,"stimulus":[],"xmouse":[800,800,800,800,800,800,800,800,800,800,800,800,800,800,800,800,800,800,800,800,800,800,800,800,800,800,800,800,800,800,800,800,800,800,800,800,800,800,800,800,800,800,800,800,800,800,800,800,800,800,800,800,800,800,800,800,800,800,800,800,800,800,799,798,796,794,792,783,772,758,745,731,691,662,641,626,618,606,599,594,589,585,575,570,562,555,543,521,512],"ymouse":[619,619,619,619,619,619,619,619,619,619,619,619,619,619,619,619,619,619,619,619,619,619,619,619,619,619,619,619,619,619,619,619,619,619,619,619,619,619,619,619,619,619,619,619,619,619,619,619,619,619,619,619,619,619,619,619,619,619,619,619,619,619,614,608,600,589,575,540,520,500,483,463,421,391,367,346,330,299,282,264,250,236,202,188,170,154,136,104,91],"timestamp_mouse":[17,38,56,77,97,116,138,157,177,197,217,237,257,277,296,317,337,358,376,398,417,438,456,476,498,518,538,556,577,598,618,636,658,677,697,716,737,756,778,797,817,838,856,876,898,917,938,956,977,998,1017,1037,1056,1077,1096,1117,1137,1158,1176,1197,1217,1237,1257,1278,1296,1316,1338,1357,1377,1397,1417,1437,1457,1477,1496,1517,1537,1557,1577,1597,1616,1637,1656,1678,1696,1718,1737,1757,1777],"xSR":741.5,"ySR":573.95,"xT1":424.9,"yT1":0,"xT2":1058.1,"yT2":0,"toosoon":0,"cond_shown":"Incongruent","ratio_trial":100,"L_num":13,"L_den":26,"R_num":6,"R_den":10,"correct_side":2,"subjID":"camilocarvajalsierra20","gender":"0","school":"6","age":"11"},{"start_time":1551880759648,"click_time":1551880761296,"finger_time":1551880760496,"fix_duration":250,"trial":33,"RT":848,"MT":800,"sideResp":2,"stimulus":[],"xmouse":[802,799,799,799,799,799,799,799,799,799,799,799,799,799,799,799,799,799,799,799,799,799,799,799,799,799,799,799,799,799,799,799,799,799,799,799,799,799,799,799,799,806,825,838,845,851,859,863,868,875,885,901,908,911,917,924,938,948,956,964,968,977,984,989,997,1014,1023,1027,1033,1038,1042,1054,1060,1062,1066,1069,1077,1078,1080,1081,1082,1084,1085],"ymouse":[584,586,587,587,587,587,587,587,587,587,587,587,587,587,587,587,587,587,587,587,587,587,587,587,587,587,587,587,587,587,587,587,587,587,587,587,587,587,587,586,584,577,562,546,527,505,467,445,426,405,382,344,318,299,282,265,235,219,206,195,187,176,169,164,159,148,142,139,135,133,130,124,120,119,116,114,108,107,106,105,104,100,99],"timestamp_mouse":[9,28,48,67,88,109,127,147,169,187,209,229,248,267,287,307,328,347,367,388,407,428,448,468,487,507,527,548,568,588,609,628,647,668,687,708,728,748,767,788,808,828,848,868,888,908,928,947,968,988,1008,1027,1049,1069,1088,1108,1127,1148,1168,1188,1208,1228,1248,1269,1287,1308,1328,1347,1368,1388,1409,1427,1447,1468,1487,1508,1529,1548,1568,1589,1608,1627,1647],"xSR":741.5,"ySR":573.95,"xT1":424.9,"yT1":0,"xT2":1058.1,"yT2":0,"toosoon":0,"cond_shown":"Incongruent","ratio_trial":200,"L_num":14,"L_den":30,"R_num":6,"R_den":9,"correct_side":2,"subjID":"camilocarvajalsierra20","gender":"0","school":"6","age":"11"},{"start_time":1551880762434,"click_time":1551880764095,"finger_time":1551880763956,"fix_duration":257.67558570939144,"trial":34,"RT":1522,"MT":139,"sideResp":2,"stimulus":[],"xmouse":[810,810,810,810,810,810,810,810,810,810,810,810,810,810,810,810,808,804,803,803,803,803,803,803,803,803,803,803,803,803,803,803,798,792,789,785,784,784,784,783,783,782,782,782,782,782,782,782,782,782,782,782,782,782,782,782,782,782,782,782,782,782,782,782,782,782,782,782,782,782,782,782,782,782,784,798,824,895,925,958,989,1020,1059,1074],"ymouse":[624,624,624,624,624,624,624,624,624,624,624,624,624,62