[{"start_time":1551789979778,"click_time":1551789985949,"finger_time":1551789983108,"fix_duration":707.5034186633454,"trial":0,"RT":3330,"MT":2841,"sideResp":1,"stimulus":[],"xmouse":[752,752,752,752,752,752,752,752,752,752,752,752,752,752,752,752,752,752,752,752,752,752,752,752,752,752,752,752,752,752,752,752,752,752,752,752,752,752,752,752,752,752,752,752,752,752,752,752,752,752,752,752,752,752,752,752,752,752,752,752,752,752,752,752,752,752,752,752,752,752,752,752,752,752,752,752,752,752,752,752,752,752,752,752,752,752,752,752,752,752,752,752,752,752,752,752,752,752,752,752,752,752,752,752,752,752,752,752,752,752,752,752,752,752,752,752,752,752,752,752,752,752,752,752,752,752,752,752,752,752,752,752,752,752,752,752,752,752,752,752,752,752,752,752,753,761,765,765,765,765,765,765,765,765,765,765,765,765,765,765,766,766,766,756,756,760,761,761,761,760,760,760,761,761,761,761,761,761,761,761,761,761,761,761,761,761,761,761,761,761,760,760,760,759,759,760,761,762,763,763,763,763,763,763,763,763,763,762,760,757,751,744,735,684,648,627,609,594,585,585,585,585,585,585,585,585,585,585,585,585,589,601,622,660,673,686,703,724,779,800,819,822,824,824,824,824,824,825,825,825,825,825,823,820,808,805,805,805,805,805,805,805,805,805,805,805,805,805,805,805,805,803,803,803,800,798,795,789,765,751,735,712,700,681,666,645,632,624,620,616,599,590,585,585,585,585,585,584,581,577,572,562,554,549,540,533,524,517],"ymouse":[524,524,524,524,524,524,524,524,524,524,524,524,524,524,524,524,524,524,524,524,524,524,524,524,524,524,524,524,524,524,524,524,524,524,524,524,524,524,524,524,524,524,524,524,524,524,524,524,524,524,524,524,524,524,524,524,524,524,524,524,524,524,524,524,524,524,524,524,524,524,524,524,524,524,524,524,524,524,524,524,524,524,524,524,524,524,524,524,524,524,524,524,524,524,524,524,524,524,524,524,524,524,524,524,524,524,524,524,524,524,524,524,524,524,524,524,524,524,524,524,524,524,524,524,524,524,524,524,524,524,524,524,524,524,524,524,524,524,524,524,524,524,524,524,523,515,511,511,511,511,511,511,511,511,511,511,511,511,510,510,509,508,503,477,468,459,455,450,440,432,431,426,426,426,426,426,426,426,426,426,426,426,426,426,426,426,426,426,426,426,426,428,435,450,455,459,462,466,473,475,476,476,476,476,476,476,476,477,473,470,460,444,423,335,285,255,225,199,185,185,185,185,185,185,185,185,185,185,185,185,191,205,224,266,296,335,375,417,488,510,531,536,539,546,549,553,557,558,558,558,558,558,556,552,538,535,534,534,534,534,534,534,534,534,534,534,534,534,534,534,534,533,533,532,531,529,525,515,480,460,442,406,385,342,312,275,249,225,178,159,132,120,114,113,113,113,113,113,112,112,111,108,104,102,97,92,84,79],"timestamp_mouse":[8,49,69,89,110,130,149,169,189,209,228,249,269,289,310,329,349,369,390,408,430,448,468,489,510,529,549,569,590,609,629,649,669,688,710,729,750,770,790,810,830,850,869,889,909,930,949,969,990,1008,1030,1049,1069,1089,1109,1128,1149,1168,1190,1208,1229,1249,1269,1288,1310,1330,1349,1369,1389,1408,1429,1449,1470,1489,1509,1529,1549,1569,1589,1609,1629,1649,1670,1690,1710,1729,1749,1769,1789,1809,1830,1848,1869,1890,1909,1930,1949,1970,1990,2009,2029,2049,2069,2090,2109,2129,2149,2169,2189,2210,2229,2249,2269,2289,2309,2329,2349,2369,2389,2410,2430,2449,2469,2489,2509,2530,2549,2569,2589,2609,2628,2649,2669,2689,2710,2729,2749,2769,2789,2808,2830,2849,2869,2889,2909,2930,2949,2969,2989,3008,3030,3048,3069,3089,3109,3129,3148,3169,3189,3209,3229,3249,3269,3289,3310,3330,3349,3370,3390,3409,3430,3449,3470,3490,3510,3530,3550,3570,3590,3609,3629,3649,3669,3690,3709,3729,3749,3770,3789,3809,3830,3849,3869,3889,3909,3928,3949,3969,3989,4009,4029,4050,4069,4090,4109,4130,4149,4169,4189,4210,4229,4249,4269,4289,4309,4329,4349,4369,4389,4409,4429,4449,4469,4490,4510,4530,4550,4570,4590,4609,4629,4650,4669,4690,4709,4728,4749,4769,4789,4809,4830,4850,4869,4889,4910,4930,4949,4970,4990,5010,5029,5049,5069,5089,5110,5129,5149,5170,5189,5209,5229,5249,5270,5289,5309,5329,5350,5369,5390,5410,5430,5449,5470,5490,5509,5529,5549,5570,5589,5610,5630,5649,5670,5689,5708,5729,5750,5770,5790,5809,5829,5849,5870,5890,5910,5929,5950,5970,5989,6009,6029,6049,6070,6089,6109,6130,6149,6170],"xSR":733.5,"ySR":461.5,"xT1":420.09999999999997,"yT1":0,"xT2":1046.8999999999999,"yT2":0,"toosoon":0,"cond_shown":"Incongruent","ratio_trial":100,"L_num":9,"L_den":18,"R_num":6,"R_den":10,"correct_side":2,"subjID":"CamiloMalaver39","gender":"0","age":"11","school":"6","test":{"fix_dur":[250,1500],"timestim":1000,"targets_dim":[100,100],"targets_relative_coord":[0.3,0.7],"size_stim":[880,420],"start_dim":[100,100],"size_start":[300,300],"size_fix":60,"samplingrate":20,"img_types":["Congruent","Incongruent"],"ratios":[100,200,300],"rep_conds":19,"nTrials":120,"trials_to_rest":500,"Trials_order":[19,28,96,41,83,22,53,84,115,62,91,107,119,33,95,92,8,88,52,58,103,14,94,25,51,112,26,63,56,11,64,0,75,32,4,9,82,113,5,38,81,24,47,36,17,106,18,54,69,73,109,102,76,117,35,66,85,57,6,98,20,60,99,29,79,46,87,1,45,13,50,55,67,116,23,44,31,42,16,100,101,37,7,65,105,34,104,49,80,43,61,97,15,30,86,2,74,114,12,77,71,39,40,48,70,111,21,93,89,110,118,68,3,108,27,78,10,72,90,59],"cond_shown":["Incongruent","Congruent","Congruent","Incongruent","Incongruent","Congruent","Incongruent","Congruent","Incongruent","Congruent","Incongruent","Incongruent","Incongruent","Incongruent","Incongruent","Congruent","Congruent","Congruent","Congruent","Congruent","Incongruent","Congruent","Congruent","Incongruent","Incongruent","Congruent","Congruent","Incongruent","Congruent","Incongruent","Congruent","Congruent","Incongruent","Congruent","Congruent","Incongruent","Congruent","Incongruent","Incongruent","Congruent","Incongruent","Congruent","Incongruent","Congruent","Incongruent","Congruent","Congruent","Congruent","Incongruent","Incongruent","Incongruent","Congruent","Congruent","Incongruent","Incongruent","Congruent","Incongruent","Incongruent","Congruent","Congruent","Congruent","Congruent","Incongruent","Incongruent","Incongruent","Congruent","Incongruent","Incongruent","Incongruent","Incongruent","Congruent","Incongruent","Incongruent","Congruent","Incongruent","Congruent","Incongruent","Congruent","Congruent","Congruent","Incongruent","Incongruent","Incongruent","Incongruent","Incongruent","Congruent","Congruent","Incongruent","Congruent","Incongruent","Incongruent","Incongruent","Incongruent","Congruent","Congruent","Congruent","Congruent","Congruent","Congruent","Incongruent","Incongruent","Incongruent","Congruent","Congruent","Congruent","Incongruent","Incongruent","Incongruent","Incongruent","Congruent","Congruent","Congruent","Incongruent","Congruent","Incongruent","Congruent","Congruent","Congruent","Congruent","Incongruent"],"ratio_trial":[100,300,100,300,300,300,300,100,100,200,100,300,300,200,300,200,200,300,300,300,100,200,300,100,200,300,200,200,200,300,300,100,200,200,300,200,300,300,300,200,200,100,300,100,300,300,100,100,200,100,100,100,300,200,300,100,100,200,100,200,200,100,200,300,100,300,200,100,200,100,200,100,100,200,300,200,100,100,300,300,300,100,100,300,200,300,200,100,200,100,100,100,200,100,200,200,200,100,100,300,300,200,300,100,300,200,200,200,300,200,300,200,200,100,200,100,300,100,100,300],"left_num":[9,8,3,13,4,18,13,4,6,5,17,13,13,14,13,3,7,3,2,1,2,3,1,3,14,1,3,4,4,8,1,1,4,16,2,14,24,4,13,9,7,6,3,10,13,20,10,11,14,11,6,9,7,9,1,2,13,9,7,12,3,9,7,8,2,2,7,9,1,13,12,8,3,3,4,3,6,4,1,24,13,4,11,4,4,11,21,6,3,3,9,13,1,11,3,3,1,15,3,13,2,14,5,2,20,7,3,7,4,7,11,6,1,11,1,11,20,12,6,13],"right_num":[6,1,2,12,2,9,12,6,13,14,10,12,12,12,12,11,18,11,12,3,6,14,3,7,6,7,11,1,3,9,6,3,14,9,10,12,8,6,12,4,4,5,4,3,12,8,3,6,6,9,3,8,20,8,2,11,6,8,15,6,9,8,8,9,8,10,6,13,3,6,6,1,7,9,6,14,13,6,11,8,12,8,9,2,14,4,2,3,14,7,14,6,2,4,9,9,21,13,4,12,6,12,7,6,8,6,11,12,8,18,4,7,2,6,2,4,9,13,5,12],"left_den":[18,16,6,26,20,20,26,8,10,10,30,26,26,30,26,10,15,12,10,5,4,10,5,9,30,20,10,30,8,10,5,2,6,30,20,30,30,5,26,20,15,20,6,25,26,25,25,22,30,22,12,15,14,15,2,5,26,15,14,20,12,15,10,10,4,20,15,15,2,26,20,20,9,12,5,6,10,8,5,30,26,8,22,20,6,22,30,12,10,9,15,26,3,22,12,12,2,25,20,26,4,30,25,5,25,15,4,10,5,15,22,12,3,22,3,22,25,30,20,26],"right_den":[10,5,5,15,4,15,15,10,26,20,15,15,15,18,15,22,27,20,24,6,15,28,6,30,9,20,22,3,10,18,12,5,30,27,25,18,16,12,15,16,6,25,20,10,15,16,10,15,9,15,5,16,25,10,10,22,10,10,25,15,20,16,16,18,20,25,9,26,10,10,15,2,30,20,12,20,26,10,22,16,15,20,15,4,30,20,4,5,28,30,28,10,15,10,20,20,30,26,16,15,30,18,14,12,16,9,20,24,16,27,20,10,15,15,15,10,18,26,25,15],"correct_side":[2,1,1,2,2,1,2,2,1,2,2,2,2,2,2,2,2,2,2,2,1,2,2,1,2,2,2,2,1,1,2,2,1,1,2,2,1,1,2,1,2,1,1,1,2,1,1,1,2,2,2,1,2,2,1,2,2,2,2,1,2,1,1,1,1,2,2,1,1,2,1,2,1,2,1,2,1,2,2,1,2,1,2,2,1,1,1,2,2,1,1,2,1,1,2,2,2,1,2,2,1,2,2,2,1,2,1,1,1,2,1,2,1,1,1,1,1,2,1,2],"img_shown":["img2/100/Incongruent/R/I_Dist_100_LN_9_LD_18_RN_6_RD_10_1.png","img2/300/Congruent/L/C_Dist_300_LN_8_LD_16_RN_1_RD_5_0.png","img2/100/Congruent/L/C_Dist_100_LN_3_LD_6_RN_2_RD_5_0.png","img2/300/Incongruent/R/I_Dist_300_LN_13_LD_26_RN_12_RD_15_1.png","img2/300/Incongruent/R/I_Dist_300_LN_4_LD_20_RN_2_RD_4_1.png","img2/300/Congruent/L/C_Dist_300_LN_18_LD_20_RN_9_RD_15_0.png","img2/300/Incongruent/R/I_Dist_300_LN_13_LD_26_RN_12_RD_15_1.png","img2/100/Congruent/R/C_Dist_100_LN_4_LD_8_RN_6_RD_10_1.png","img2/100/Incongruent/L/I_Dist_100_LN_6_LD_10_RN_13_RD_26_0.png","img2/200/Congruent/R/C_Dist_200_LN_5_LD_10_RN_14_RD_20_1.png","img2/100/Incongruent/R/I_Dist_100_LN_17_LD_30_RN_10_RD_15_1.png","img2/300/Incongruent/R/I_Dist_300_LN_13_LD_26_RN_12_RD_15_1.png","img2/300/Incongruent/R/I_Dist_300_LN_13_LD_26_RN_12_RD_15_1.png","img2/200/Incongruent/R/I_Dist_200_LN_14_LD_30_RN_12_RD_18_1.png","img2/300/Incongruent/R/I_Dist_300_LN_13_LD_26_RN_12_RD_15_1.png","img2/200/Congruent/R/C_Dist_200_LN_3_LD_10_RN_11_RD_22_1.png","img2/200/Congruent/R/C_Dist_200_LN_7_LD_15_RN_18_RD_27_1.png","img2/300/Congruent/R/C_Dist_300_LN_3_LD_12_RN_11_RD_20_1.png","img2/300/Congruent/R/C_Dist_300_LN_2_LD_10_RN_12_RD_24_1.png","img2/300/Congruent/R/C_Dist_300_LN_1_LD_5_RN_3_RD_6_1.png","img2/100/Incongruent/L/I_Dist_100_LN_2_LD_4_RN_6_RD_15_0.png","img2/200/Congruent/R/C_Dist_200_LN_3_LD_10_RN_14_RD_28_1.png","img2/300/Congruent/R/C_Dist_300_LN_1_LD_5_RN_3_RD_6_1.png","img2/100/Incongruent/L/I_Dist_100_LN_3_LD_9_RN_7_RD_30_0.png","img2/200/Incongruent/R/I_Dist_200_LN_14_LD_30_RN_6_RD_9_1.png","img2/300/Congruent/R/C_Dist_300_LN_1_LD_20_RN_7_RD_20_1.png","img2/200/Congruent/R/C_Dist_200_LN_3_LD_10_RN_11_RD_22_1.png","img2/200/Incongruent/R/I_Dist_200_LN_4_LD_30_RN_1_RD_3_1.png","img2/200/Congruent/L/C_Dist_200_LN_4_LD_8_RN_3_RD_10_0.png","img2/300/Incongruent/L/I_Dist_300_LN_8_LD_10_RN_9_RD_18_0.png","img2/300/Congruent/R/C_Dist_300_LN_1_LD_5_RN_6_RD_12_1.png","img2/100/Congruent/R/C_Dist_100_LN_1_LD_2_RN_3_RD_5_1.png","img2/200/Incongruent/L/I_Dist_200_LN_4_LD_6_RN_14_RD_30_0.png","img2/200/Congruent/L/C_Dist_200_LN_16_LD_30_RN_9_RD_27_0.png","img2/300/Congruent/R/C_Dist_300_LN_2_LD_20_RN_10_RD_25_1.png","img2/200/Incongruent/R/I_Dist_200_LN_14_LD_30_RN_12_RD_18_1.png","img2/300/Congruent/L/C_Dist_300_LN_24_LD_30_RN_8_RD_16_0.png","img2/300/Incongruent/L/I_Dist_300_LN_4_LD_5_RN_6_RD_12_0.png","img2/300/Incongruent/R/I_Dist_300_LN_13_LD_26_RN_12_RD_15_1.png","img2/200/Congruent/L/C_Dist_200_LN_9_LD_20_RN_4_RD_16_0.png","img2/200/Incongruent/R/I_Dist_200_LN_7_LD_15_RN_4_RD_6_1.png","img2/100/Congruent/L/C_Dist_100_LN_6_LD_20_RN_5_RD_25_0.png","img2/300/Incongruent/L/I_Dist_300_LN_3_LD_6_RN_4_RD_20_0.png","img2/100/Congruent/L/C_Dist_100_LN_10_LD_25_RN_3_RD_10_0.png","img2/300/Incongruent/R/I_Dist_300_LN_13_LD_26_RN_12_RD_15_1.png","img2/300/Congruent/L/C_Dist_300_LN_20_LD_25_RN_8_RD_16_0.png","img2/100/Congruent/L/C_Dist_100_LN_10_LD_25_RN_3_RD_10_0.png","img2/100/Congruent/L/C_Dist_100_LN_11_LD_22_RN_6_RD_15_0.png","img2/200/Incongruent/R/I_Dist_200_LN_14_LD_30_RN_6_RD_9_1.png","img2/100/Incongruent/R/I_Dist_100_LN_11_LD_22_RN_9_RD_15_1.png","img2/100/Incongruent/R/I_Dist_100_LN_6_LD_12_RN_3_RD_5_1.png","img2/100/Congruent/L/C_Dist_100_LN_9_LD_15_RN_8_RD_16_0.png","img2/300/Congruent/R/C_Dist_300_LN_7_LD_14_RN_20_RD_25_1.png","img2/200/Incongruent/R/I_Dist_200_LN_9_LD_15_RN_8_RD_10_1.png","img2/300/Incongruent/L/I_Dist_300_LN_1_LD_2_RN_2_RD_10_0.png","img2/100/Congruent/R/C_Dist_100_LN_2_LD_5_RN_11_RD_22_1.png","img2/100/Incongruent/R/I_Dist_100_LN_13_LD_26_RN_6_RD_10_1.png","img2/200/Incongruent/R/I_Dist_200_LN_9_LD_15_RN_8_RD_10_1.png","img2/100/Congruent/R/C_Dist_100_LN_7_LD_14_RN_15_RD_25_1.png","img2/200/Congruent/L/C_Dist_200_LN_12_LD_20_RN_6_RD_15_0.png","img2/200/Congruent/R/C_Dist_200_LN_3_LD_12_RN_9_RD_20_1.png","img2/100/Congruent/L/C_Dist_100_LN_9_LD_15_RN_8_RD_16_0.png","img2/200/Incongruent/L/I_Dist_200_LN_7_LD_10_RN_8_RD_16_0.png","img2/300/Incongruent/L/I_Dist_300_LN_8_LD_10_RN_9_RD_18_0.png","img2/100/Incongruent/L/I_Dist_100_LN_2_LD_4_RN_8_RD_20_0.png","img2/300/Congruent/R/C_Dist_300_LN_2_LD_20_RN_10_RD_25_1.png","img2/200/Incongruent/R/I_Dist_200_LN_7_LD_15_RN_6_RD_9_1.png","img2/100/Incongruent/L/I_Dist_100_LN_9_LD_15_RN_13_RD_26_0.png","img2/200/Incongruent/L/I_Dist_200_LN_1_LD_2_RN_3_RD_10_0.png","img2/100/Incongruent/R/I_Dist_100_LN_13_LD_26_RN_6_RD_10_1.png","img2/200/Congruent/L/C_Dist_200_LN_12_LD_20_RN_6_RD_15_0.png","img2/100/Incongruent/R/I_Dist_100_LN_8_LD_20_RN_1_RD_2_1.png","img2/100/Incongruent/L/I_Dist_100_LN_3_LD_9_RN_7_RD_30_0.png","img2/200/Congruent/R/C_Dist_200_LN_3_LD_12_RN_9_RD_20_1.png","img2/300/Incongruent/L/I_Dist_300_LN_4_LD_5_RN_6_RD_12_0.png","img2/200/Congruent/R/C_Dist_200_LN_3_LD_6_RN_14_RD_20_1.png","img2/100/Incongruent/L/I_Dist_100_LN_6_LD_10_RN_13_RD_26_0.png","img2/100/Congruent/R/C_Dist_100_LN_4_LD_8_RN_6_RD_10_1.png","img2/300/Congruent/R/C_Dist_300_LN_1_LD_5_RN_11_RD_22_1.png","img2/300/Congruent/L/C_Dist_300_LN_24_LD_30_RN_8_RD_16_0.png","img2/300/Incongruent/R/I_Dist_300_LN_13_LD_26_RN_12_RD_15_1.png","img2/100/Incongruent/L/I_Dist_100_LN_4_LD_8_RN_8_RD_20_0.png","img2/100/Incongruent/R/I_Dist_100_LN_11_LD_22_RN_9_RD_15_1.png","img2/300/Incongruent/R/I_Dist_300_LN_4_LD_20_RN_2_RD_4_1.png","img2/200/Incongruent/L/I_Dist_200_LN_4_LD_6_RN_14_RD_30_0.png","img2/300/Congruent/L/C_Dist_300_LN_11_LD_22_RN_4_RD_20_0.png","img2/200/Congruent/L/C_Dist_200_LN_21_LD_30_RN_2_RD_4_0.png","img2/100/Incongruent/R/I_Dist_100_LN_6_LD_12_RN_3_RD_5_1.png","img2/200/Congruent/R/C_Dist_200_LN_3_LD_10_RN_14_RD_28_1.png","img2/100/Incongruent/L/I_Dist_100_LN_3_LD_9_RN_7_RD_30_0.png","img2/100/Incongruent/L/I_Dist_100_LN_9_LD_15_RN_14_RD_28_0.png","img2/100/Incongruent/R/I_Dist_100_LN_13_LD_26_RN_6_RD_10_1.png","img2/200/Incongruent/L/I_Dist_200_LN_1_LD_3_RN_2_RD_15_0.png","img2/100/Congruent/L/C_Dist_100_LN_11_LD_22_RN_4_RD_10_0.png","img2/200/Congruent/R/C_Dist_200_LN_3_LD_12_RN_9_RD_20_1.png","img2/200/Congruent/R/C_Dist_200_LN_3_LD_12_RN_9_RD_20_1.png","img2/200/Congruent/R/C_Dist_200_LN_1_LD_2_RN_21_RD_30_1.png","img2/100/Congruent/L/C_Dist_100_LN_15_LD_25_RN_13_RD_26_0.png","img2/100/Congruent/R/C_Dist_100_LN_3_LD_20_RN_4_RD_16_1.png","img2/300/Incongruent/R/I_Dist_300_LN_13_LD_26_RN_12_RD_15_1.png","img2/300/Incongruent/L/I_Dist_300_LN_2_LD_4_RN_6_RD_30_0.png","img2/200/Incongruent/R/I_Dist_200_LN_14_LD_30_RN_12_RD_18_1.png","img2/300/Congruent/R/C_Dist_300_LN_5_LD_25_RN_7_RD_14_1.png","img2/100/Congruent/R/C_Dist_100_LN_2_LD_5_RN_6_RD_12_1.png","img2/300/Congruent/L/C_Dist_300_LN_20_LD_25_RN_8_RD_16_0.png","img2/200/Incongruent/R/I_Dist_200_LN_7_LD_15_RN_6_RD_9_1.png","img2/200/Incongruent/L/I_Dist_200_LN_3_LD_4_RN_11_RD_20_0.png","img2/200/Incongruent/L/I_Dist_200_LN_7_LD_10_RN_12_RD_24_0.png","img2/300/Incongruent/L/I_Dist_300_LN_4_LD_5_RN_8_RD_16_0.png","img2/200/Congruent/R/C_Dist_200_LN_7_LD_15_RN_18_RD_27_1.png","img2/300/Congruent/L/C_Dist_300_LN_11_LD_22_RN_4_RD_20_0.png","img2/200/Congruent/R/C_Dist_200_LN_6_LD_12_RN_7_RD_10_1.png","img2/200/Incongruent/L/I_Dist_200_LN_1_LD_3_RN_2_RD_15_0.png","img2/100/Congruent/L/C_Dist_100_LN_11_LD_22_RN_6_RD_15_0.png","img2/200/Incongruent/L/I_Dist_200_LN_1_LD_3_RN_2_RD_15_0.png","img2/100/Congruent/L/C_Dist_100_LN_11_LD_22_RN_4_RD_10_0.png","img2/300/Congruent/L/C_Dist_300_LN_20_LD_25_RN_9_RD_18_0.png","img2/100/Congruent/R/C_Dist_100_LN_12_LD_30_RN_13_RD_26_1.png","img2/100/Congruent/L/C_Dist_100_LN_6_LD_20_RN_5_RD_25_0.png","img2/300/Incongruent/R/I_Dist_300_LN_13_LD_26_RN_12_RD_15_1.png"],"dist100_C":[["C_Dist_100_LN_10_LD_25_RN_3_RD_10_0.png","C_Dist_100_LN_11_LD_22_RN_4_RD_10_0.png","C_Dist_100_LN_11_LD_22_RN_6_RD_15_0.png","C_Dist_100_LN_15_LD_25_RN_13_RD_26_0.png","C_Dist_100_LN_3_LD_6_RN_2_RD_5_0.png","C_Dist_100_LN_6_LD_20_RN_5_RD_25_0.png","C_Dist_100_LN_8_LD_16_RN_2_RD_5_0.png","C_Dist_100_LN_9_LD_15_RN_8_RD_16_0.png"],["C_Dist_100_LN_1_LD_2_RN_18_RD_30_1.png","C_Dist_100_LN_1_LD_2_RN_3_RD_5_1.png","C_Dist_100_LN_12_LD_30_RN_13_RD_26_1.png","C_Dist_100_LN_2_LD_5_RN_11_RD_22_1.png","C_Dist_100_LN_2_LD_5_RN_6_RD_12_1.png","C_Dist_100_LN_3_LD_20_RN_4_RD_16_1.png","C_Dist_100_LN_4_LD_10_RN_15_RD_30_1.png","C_Dist_100_LN_4_LD_8_RN_6_RD_10_1.png","C_Dist_100_LN_6_LD_12_RN_15_RD_25_1.png","C_Dist_100_LN_7_LD_14_RN_15_RD_25_1.png","C_Dist_100_LN_7_LD_14_RN_9_RD_15_1.png"]],"dist100_I":[["I_Dist_100_LN_1_LD_2_RN_8_RD_20_0.png","I_Dist_100_LN_2_LD_4_RN_6_RD_15_0.png","I_Dist_100_LN_2_LD_4_RN_8_RD_20_0.png","I_Dist_100_LN_3_LD_5_RN_11_RD_22_0.png","I_Dist_100_LN_3_LD_5_RN_8_RD_16_0.png","I_Dist_100_LN_3_LD_6_RN_4_RD_10_0.png","I_Dist_100_LN_3_LD_9_RN_7_RD_30_0.png","I_Dist_100_LN_4_LD_8_RN_8_RD_20_0.png","I_Dist_100_LN_6_LD_10_RN_11_RD_22_0.png","I_Dist_100_LN_6_LD_10_RN_13_RD_26_0.png","I_Dist_100_LN_6_LD_10_RN_7_RD_14_0.png","I_Dist_100_LN_9_LD_10_RN_20_RD_25_0.png","I_Dist_100_LN_9_LD_15_RN_13_RD_26_0.png","I_Dist_100_LN_9_LD_15_RN_14_RD_28_0.png"],["I_Dist_100_LN_10_LD_25_RN_8_RD_16_1.png","I_Dist_100_LN_10_LD_25_RN_9_RD_18_1.png","I_Dist_100_LN_11_LD_22_RN_9_RD_15_1.png","I_Dist_100_LN_12_LD_24_RN_9_RD_15_1.png","I_Dist_100_LN_12_LD_30_RN_2_RD_4_1.png","I_Dist_100_LN_13_LD_26_RN_12_RD_20_1.png","I_Dist_100_LN_13_LD_26_RN_6_RD_10_1.png","I_Dist_100_LN_17_LD_30_RN_10_RD_15_1.png","I_Dist_100_LN_6_LD_12_RN_3_RD_5_1.png","I_Dist_100_LN_8_LD_16_RN_6_RD_10_1.png","I_Dist_100_LN_8_LD_20_RN_1_RD_2_1.png","I_Dist_100_LN_9_LD_18_RN_6_RD_10_1.png"]],"dist100_S":[["E_Dist_100_LN_2_LD_12_RN_2_RD_30_0.png","E_Dist_100_LN_6_LD_10_RN_6_RD_12_0.png"],["E_Dist_100_LN_6_LD_12_RN_6_RD_10_1.png"]],"dist200_C":[["C_Dist_200_LN_11_LD_22_RN_3_RD_10_0.png","C_Dist_200_LN_12_LD_15_RN_6_RD_10_0.png","C_Dist_200_LN_12_LD_20_RN_6_RD_15_0.png","C_Dist_200_LN_14_LD_28_RN_6_RD_20_0.png","C_Dist_200_LN_15_LD_25_RN_4_RD_10_0.png","C_Dist_200_LN_16_LD_20_RN_12_RD_20_0.png","C_Dist_200_LN_16_LD_30_RN_9_RD_27_0.png","C_Dist_200_LN_20_LD_25_RN_9_RD_15_0.png","C_Dist_200_LN_21_LD_30_RN_2_RD_4_0.png","C_Dist_200_LN_4_LD_10_RN_3_RD_15_0.png","C_Dist_200_LN_4_LD_8_RN_3_RD_10_0.png","C_Dist_200_LN_6_LD_15_RN_3_RD_15_0.png","C_Dist_200_LN_7_LD_21_RN_2_RD_15_0.png","C_Dist_200_LN_8_LD_15_RN_2_RD_6_0.png","C_Dist_200_LN_8_LD_15_RN_3_RD_9_0.png","C_Dist_200_LN_8_LD_15_RN_7_RD_21_0.png","C_Dist_200_LN_9_LD_20_RN_4_RD_16_0.png"],["C_Dist_200_LN_1_LD_2_RN_21_RD_30_1.png","C_Dist_200_LN_13_LD_26_RN_14_RD_20_1.png","C_Dist_200_LN_3_LD_10_RN_11_RD_22_1.png","C_Dist_200_LN_3_LD_10_RN_14_RD_28_1.png","C_Dist_200_LN_3_LD_10_RN_7_RD_14_1.png","C_Dist_200_LN_3_LD_12_RN_9_RD_20_1.png","C_Dist_200_LN_3_LD_6_RN_14_RD_20_1.png","C_Dist_200_LN_5_LD_10_RN_14_RD_20_1.png","C_Dist_200_LN_6_LD_12_RN_7_RD_10_1.png","C_Dist_200_LN_6_LD_20_RN_11_RD_22_1.png","C_Dist_200_LN_7_LD_15_RN_18_RD_27_1.png","C_Dist_200_LN_9_LD_30_RN_13_RD_26_1.png"]],"dist200_I":[["I_Dist_200_LN_1_LD_2_RN_3_RD_10_0.png","I_Dist_200_LN_1_LD_3_RN_2_RD_15_0.png","I_Dist_200_LN_3_LD_4_RN_11_RD_20_0.png","I_Dist_200_LN_4_LD_5_RN_6_RD_10_0.png","I_Dist_200_LN_4_LD_6_RN_14_RD_30_0.png","I_Dist_200_LN_7_LD_10_RN_12_RD_24_0.png","I_Dist_200_LN_7_LD_10_RN_14_RD_28_0.png","I_Dist_200_LN_7_LD_10_RN_8_RD_16_0.png"],["I_Dist_200_LN_11_LD_20_RN_3_RD_4_1.png","I_Dist_200_LN_14_LD_30_RN_12_RD_18_1.png","I_Dist_200_LN_14_LD_30_RN_6_RD_9_1.png","I_Dist_200_LN_3_LD_10_RN_1_RD_2_1.png","I_Dist_200_LN_4_LD_30_RN_1_RD_3_1.png","I_Dist_200_LN_6_LD_20_RN_3_RD_6_1.png","I_Dist_200_LN_7_LD_15_RN_4_RD_6_1.png","I_Dist_200_LN_7_LD_15_RN_6_RD_9_1.png","I_Dist_200_LN_9_LD_15_RN_8_RD_10_1.png"]],"dist200_S":[["E_Dist_200_LN_3_LD_6_RN_3_RD_10_0.png"],["E_Dist_200_LN_3_LD_10_RN_3_RD_6_1.png"]],"dist300_C":[["C_Dist_300_LN_11_LD_22_RN_1_RD_5_0.png","C_Dist_300_LN_11_LD_22_RN_2_RD_10_0.png","C_Dist_300_LN_11_LD_22_RN_4_RD_20_0.png","C_Dist_300_LN_12_LD_24_RN_2_RD_10_0.png","C_Dist_300_LN_18_LD_20_RN_9_RD_15_0.png","C_Dist_300_LN_20_LD_25_RN_13_RD_26_0.png","C_Dist_300_LN_20_LD_25_RN_14_RD_28_0.png","C_Dist_300_LN_20_LD_25_RN_5_RD_10_0.png","C_Dist_300_LN_20_LD_25_RN_8_RD_16_0.png","C_Dist_300_LN_20_LD_25_RN_9_RD_18_0.png","C_Dist_300_LN_24_LD_30_RN_2_RD_4_0.png","C_Dist_300_LN_24_LD_30_RN_8_RD_16_0.png","C_Dist_300_LN_3_LD_6_RN_2_RD_10_0.png","C_Dist_300_LN_4_LD_10_RN_1_RD_10_0.png","C_Dist_300_LN_4_LD_5_RN_2_RD_4_0.png","C_Dist_300_LN_8_LD_16_RN_1_RD_5_0.png","C_Dist_300_LN_9_LD_10_RN_3_RD_5_0.png"],["C_Dist_300_LN_1_LD_20_RN_7_RD_20_1.png","C_Dist_300_LN_1_LD_3_RN_19_RD_30_1.png","C_Dist_300_LN_1_LD_30_RN_8_RD_24_1.png","C_Dist_300_LN_1_LD_5_RN_11_RD_22_1.png","C_Dist_300_LN_1_LD_5_RN_3_RD_6_1.png","C_Dist_300_LN_1_LD_5_RN_6_RD_12_1.png","C_Dist_300_LN_2_LD_10_RN_12_RD_24_1.png","C_Dist_300_LN_2_LD_20_RN_10_RD_25_1.png","C_Dist_300_LN_3_LD_12_RN_11_RD_20_1.png","C_Dist_300_LN_3_LD_6_RN_4_RD_5_1.png","C_Dist_300_LN_4_LD_20_RN_13_RD_26_1.png","C_Dist_300_LN_5_LD_25_RN_6_RD_12_1.png","C_Dist_300_LN_5_LD_25_RN_7_RD_14_1.png","C_Dist_300_LN_7_LD_14_RN_20_RD_25_1.png","C_Dist_300_LN_8_LD_15_RN_10_RD_12_1.png"]],"dist300_I":[["I_Dist_300_LN_1_LD_2_RN_2_RD_10_0.png","I_Dist_300_LN_1_LD_2_RN_3_RD_15_0.png","I_Dist_300_LN_2_LD_4_RN_6_RD_30_0.png","I_Dist_300_LN_3_LD_6_RN_4_RD_20_0.png","I_Dist_300_LN_4_LD_5_RN_6_RD_12_0.png","I_Dist_300_LN_4_LD_5_RN_8_RD_16_0.png","I_Dist_300_LN_7_LD_10_RN_8_RD_20_0.png","I_Dist_300_LN_8_LD_10_RN_14_RD_28_0.png","I_Dist_300_LN_8_LD_10_RN_9_RD_18_0.png"],["I_Dist_300_LN_13_LD_26_RN_12_RD_15_1.png","I_Dist_300_LN_4_LD_20_RN_2_RD_4_1.png"]],"dist300_S":[["E_Dist_300_LN_9_LD_12_RN_9_RD_20_0.png"],["E_Dist_300_LN_18_LD_30_RN_18_RD_20_1.png","E_Dist_300_LN_3_LD_10_RN_3_RD_5_1.png","E_Dist_300_LN_9_LD_20_RN_9_RD_12_1.png"]],"dist500_C":[["C_Dist_500_LN_10_LD_13_RN_7_RD_26_0.png","C_Dist_500_LN_10_LD_15_RN_4_RD_24_0.png","C_Dist_500_LN_12_LD_16_RN_3_RD_12_0.png","C_Dist_500_LN_12_LD_18_RN_4_RD_24_0.png","C_Dist_500_LN_15_LD_18_RN_5_RD_15_0.png","C_Dist_500_LN_15_LD_20_RN_1_RD_4_0.png","C_Dist_500_LN_18_LD_27_RN_1_RD_6_0.png","C_Dist_500_LN_20_LD_24_RN_1_RD_3_0.png","C_Dist_500_LN_20_LD_24_RN_3_RD_9_0.png","C_Dist_500_LN_20_LD_24_RN_7_RD_21_0.png","C_Dist_500_LN_20_LD_28_RN_3_RD_14_0.png","C_Dist_500_LN_21_LD_28_RN_6_RD_24_0.png","C_Dist_500_LN_22_LD_28_RN_2_RD_7_0.png","C_Dist_500_LN_25_LD_30_RN_9_RD_27_0.png","C_Dist_500_LN_4_LD_6_RN_1_RD_6_0.png","C_Dist_500_LN_5_LD_6_RN_2_RD_6_0.png","C_Dist_500_LN_6_LD_9_RN_1_RD_6_0.png","C_Dist_500_LN_7_LD_10_RN_1_RD_5_0.png","C_Dist_500_LN_8_LD_12_RN_1_RD_6_0.png","C_Dist_500_LN_8_LD_12_RN_4_RD_24_0.png"],["C_Dist_500_LN_1_LD_4_RN_12_RD_16_1.png","C_Dist_500_LN_1_LD_4_RN_9_RD_12_1.png","C_Dist_500_LN_1_LD_9_RN_11_RD_18_1.png","C_Dist_500_LN_10_LD_24_RN_22_RD_24_1.png","C_Dist_500_LN_2_LD_12_RN_10_RD_15_1.png","C_Dist_500_LN_2_LD_12_RN_12_RD_18_1.png","C_Dist_500_LN_2_LD_12_RN_4_RD_6_1.png","C_Dist_500_LN_2_LD_24_RN_7_RD_12_1.png","C_Dist_500_LN_2_LD_5_RN_18_RD_20_1.png","C_Dist_500_LN_2_LD_5_RN_9_RD_10_1.png","C_Dist_500_LN_2_LD_8_RN_12_RD_16_1.png","C_Dist_500_LN_2_LD_8_RN_21_RD_28_1.png","C_Dist_500_LN_3_LD_10_RN_4_RD_5_1.png","C_Dist_500_LN_3_LD_12_RN_15_RD_20_1.png","C_Dist_500_LN_3_LD_30_RN_6_RD_10_1.png","C_Dist_500_LN_3_LD_8_RN_14_RD_16_1.png","C_Dist_500_LN_4_LD_16_RN_15_RD_20_1.png","C_Dist_500_LN_4_LD_24_RN_12_RD_18_1.png","C_Dist_500_LN_5_LD_14_RN_6_RD_7_1.png","C_Dist_500_LN_7_LD_21_RN_20_RD_24_1.png","C_Dist_500_LN_7_LD_28_RN_12_RD_16_1.png","C_Dist_500_LN_7_LD_28_RN_9_RD_12_1.png","C_Dist_500_LN_9_LD_27_RN_20_RD_24_1.png"]],"dist500_I":[["I_Dist_500_LN_2_LD_3_RN_4_RD_24_0.png","I_Dist_500_LN_5_LD_6_RN_6_RD_18_0.png","I_Dist_500_LN_7_LD_8_RN_9_RD_24_0.png"],["I_Dist_500_LN_7_LD_21_RN_5_RD_6_1.png"]],"dist500_S":[["E_Dist_500_LN_6_LD_8_RN_6_RD_24_0.png"],["E_Dist_500_LN_2_LD_12_RN_2_RD_3_1.png","E_Dist_500_LN_6_LD_24_RN_6_RD_8_1.png"]]}},{"start_time":1551789988998,"click_time":1551789991087,"finger_time":1551789990587,"fix_duration":328.50349633483745,"trial":1,"RT":1589,"MT":500,"sideResp":1,"stimulus":[],"xmouse":[802,802,802,802,802,802,802,801,801,801,801,801,800,800,800,799,799,799,799,799,799,799,799,799,799,799,799,799,799,799,799,799,799,799,799,799,799,799,799,799,799,799,799,799,799,799,799,799,799,799,799,799,799,799,799,799,799,799,799,799,799,799,799,799,799,799,799,799,799,799,799,797,795,793,784,778,775,772,769,745,722,685,671,637,614,593,593,593,593,593,593,593,593,593,593,593,593,593,593,593,593,536,531,525,505],"ymouse":[542,542,542,542,542,542,542,540,540,540,540,540,539,539,539,538,538,537,537,537,537,537,537,537,537,537,537,537,537,537,537,537,537,537,537,537,537,537,537,537,537,537,537,537,537,537,537,537,537,537,537,537,537,537,537,537,537,537,537,537,537,537,537,537,537,537,537,537,537,537,537,535,533,531,525,519,512,495,472,413,366,291,242,133,79,20,20,20,20,20,20,20,20,20,20,20,20,20,20,20,20,3,4,7,11],"timestamp_mouse":[11,34,49,69,89,109,129,150,169,190,209,229,249,268,290,310,328,350,370,389,410,429,450,469,489,510,530,550,570,590,610,630,650,669,689,710,730,749,769,789,810,829,850,870,889,909,930,948,969,989,1009,1029,1049,1069,1089,1109,1130,1149,1170,1189,1210,1229,1249,1270,1289,1310,1329,1349,1368,1390,1409,1429,1449,1470,1490,1510,1530,1549,1568,1589,1608,1629,1649,1669,1689,1709,1729,1749,1769,1790,1809,1830,1850,1870,1889,1910,1929,1950,1970,1990,2009,2029,2048,2069,2089],"xSR":733.5,"ySR":461.5,"xT1":420.09999999999997,"yT1":0,"xT2":1046.8999999999999,"yT2":0,"toosoon":0,"cond_shown":"Congruent","ratio_trial":300,"L_num":8,"L_den":16,"R_num":1,"R_den":5,"correct_side":1,"subjID":"CamiloMalaver39","gender":"0","school":"6","age":"11"},{"start_time":1551789992874,"click_time":1551789994568,"finger_time":1551789994167,"fix_duration":746.8181315876141,"trial":2,"RT":1293,"MT":401,"sideResp":1,"stimulus":[],"xmouse":[767,767,767,767,767,767,767,767,767,767,767,767,767,767,767,767,767,767,767,767,767,767,767,767,767,767,767,767,767,767,767,767,767,767,767,767,767,767,767,767,767,767,767,767,767,767,767,767,767,767,767,767,767,767,767,767,767,767,766,765,763,761,756,748,714,699,682,666,627,599,589,589,589,589,589,589,589,589,589,585,578,567,553,530,461],"ymouse":[502,502,502,502,502,502,502,502,502,502,502,502,502,502,502,502,502,502,502,502,502,502,502,502,502,502,502,502,502,502,502,502,502,502,502,502,502,502,502,502,502,502,502,502,502,502,502,502,502,502,502,502,502,502,502,502,502,501,499,498,497,497,495,491,463,443,422,401,345,300,290,290,290,290,290,290,290,290,288,274,260,244,225,196,98],"timestamp_mouse":[19,42,53,72,93,113,133,153,173,192,213,234,253,272,294,313,333,353,374,393,413,433,453,474,493,513,533,553,573,594,614,633,653,673,694,712,734,753,774,794,812,834,852,873,892,913,934,953,974,993,1013,1034,1053,1073,1093,1113,1133,1153,1174,1193,1214,1234,1253,1273,1293,1312,1333,1354,1373,1393,1412,1433,1453,1473,1494,1514,1533,1554,1573,1593,1613,1633,1654,1674,1694],"xSR":733.5,"ySR":461.5,"xT1":420.09999999999997,"yT1":0,"xT2":1046.8999999999999,"yT2":0,"toosoon":0,"cond_shown":"Congruent","ratio_trial":100,"L_num":3,"L_den":6,"R_num":2,"R_den":5,"correct_side":1,"subjID":"CamiloMalaver39","gender":"0","school":"6","age":"11"},{"start_time":1551789996080,"click_time":1551789997908,"finger_time":1551789997466,"fix_duration":250,"trial":3,"RT":1386,"MT":442,"sideResp":2,"stimulus":[],"xmouse":[768,768,768,768,768,768,768,768,768,768,768,768,768,768,767,766,766,766,766,766,766,766,766,766,766,766,766,766,766,766,766,766,766,766,766,766,766,766,766,766,766,766,766,766,766,766,766,766,766,766,766,766,766,766,766,766,766,766,766,766,766,766,766,766,766,767,779,793,816,853,963,1001,1023,1033,1044,1053,1070,1097,1102,1105,1105,1106,1107,1109,1110,1111,1111,1109,1105,1103,1103,1103],"ymouse":[503,503,503,503,503,503,503,503,503,503,503,503,503,503,503,503,503,503,503,503,503,503,503,503,503,503,503,503,503,503,503,503,503,503,503,503,503,503,503,503,503,503,503,503,503,503,503,503,503,503,503,503,503,503,503,503,503,503,503,503,503,503,503,503,503,500,492,482,462,425,331,286,251,228,202,196,190,181,178,175,175,172,168,161,150,145,139,129,120,113,102,99],"timestamp_mouse":[8,37,48,68,87,108,127,148,167,187,207,226,248,267,286,308,328,347,368,388,406,427,447,469,488,508,528,547,567,587,606,627,648,667,688,706,728,747,767,788,807,828,847,866,887,908,928,948,967,988,1007,1028,1047,1068,1087,1107,1128,1147,1168,1188,1207,1227,1248,1268,1288,1308,1327,1346,1367,1386,1408,1427,1447,1467,1488,1507,1527,1548,1567,1587,1608,1627,1647,1667,1688,1706,1728,1747,1768,1787,1807,1828],"xSR":733.5,"ySR":461.5,"xT1":420.09999999999997,"yT1":0,"xT2":1046.8999999999999,"yT2":0,"toosoon":0,"cond_shown":"Incongruent","ratio_trial":300,"L_num":13,"L_den":26,"R_num":12,"R_den":15,"correct_side":2,"subjID":"CamiloMalaver39","gender":"0","school":"6","age":"11"},{"start_time":1551789999638,"click_time":1551790001727,"finger_time":1551790001088,"fix_duration":727.3374870221686,"trial":4,"RT":1450,"MT":639,"sideResp":1,"stimulus":[],"xmouse":[806,806,806,806,806,806,806,806,806,806,806,806,806,806,806,806,806,806,806,806,806,806,806,806,806,806,806,806,806,806,806,806,806,806,806,806,806,806,806,806,806,806,806,806,806,806,806,806,806,806,806,806,806,806,806,806,806,806,806,806,806,806,806,806,806,806,806,806,806,803,799,784,776,771,768,757,728,693,667,642,619,605,604,603,599,591,578,577,577,577,576,563,558,554,553,551,550,548,543,539,536,531,528,522,517],"ymouse":[493,493,493,493,493,493,493,493,493,493,493,493,493,493,493,493,493,493,493,493,493,493,493,493,493,493,493,493,493,493,493,493,493,493,493,493,493,493,493,493,493,493,493,493,493,493,493,493,493,493,493,493,493,493,493,493,493,493,493,493,493,493,493,493,493,493,493,493,493,492,487,464,449,428,403,367,271,210,185,163,148,139,139,139,137,132,125,123,123,123,123,113,109,104,103,101,99,98,94,91,89,86,84,82,80],"timestamp_mouse":[9,36,49,69,89,110,129,149,170,189,209,229,249,269,290,309,329,349,370,389,410,429,448,469,489,509,530,548,569,590,609,630,650,670,690,710,730,750,770,788,810,829,849,869,890,910,929,950,970,988,1008,1029,1049,1069,1089,1110,1130,1149,1169,1189,1209,1229,1249,1269,1289,1309,1329,1350,1369,1390,1410,1429,1450,1469,1489,1509,1529,1549,1569,1590,1609,1629,1650,1669,1690,1710,1730,1749,1769,1789,1810,1829,1849,1868,1889,1909,1929,1949,1969,1989,2009,2029,2049,2069,2089],"xSR":733.5,"ySR":461.5,"xT1":420.09999999999997,"yT1":0,"xT2":1046.8999999999999,"yT2":0,"toosoon":0,"cond_shown":"Incongruent","ratio_trial":300,"L_num":4,"L_den":20,"R_num":2,"R_den":4,"correct_side":2,"subjID":"CamiloMalaver39","gender":"0","school":"6","age":"11"},{"start_time":1551790004730,"click_time":1551790006208,"finger_time":1551790005827,"fix_duration":1261.0410397469268,"trial":5,"RT":1097,"MT":381,"sideResp":1,"stimulus":[],"xmouse":[791,791,791,791,791,791,791,791,791,791,791,791,791,791,791,791,791,791,791,791,791,791,791,791,791,791,791,791,791,791,791,791,791,791,791,791,791,791,791,791,791,791,791,791,791,791,791,791,788,782,777,772,765,761,758,757,754,754,754,754,754,754,754,754,753,748,727,704,671,629,588,550,486,466],"ymouse":[498,498,498,498,498,498,498,498,498,498,498,498,498,498,498,498,498,498,498,498,498,498,498,498,498,498,498,498,498,498,498,498,498,498,498,498,498,498,498,498,498,498,498,498,498,498,498,498,494,487,481,475,468,464,459,458,455,455,455,455,455,455,455,455,454,447,415,382,340,292,244,196,103,70],"timestamp_mouse":[17,36,57,77,97,116,138,157,178,198,217,238,257,277,297,317,337,358,378,397,417,437,458,477,497,517,537,557,577,597,616,638,657,678,697,717,737,758,777,797,818,837,858,878,897,917,938,958,977,997,1018,1037,1058,1078,1097,1118,1137,1157,1178,1198,1217,1238,1258,1277,1298,1317,1337,1357,1378,1397,1417,1438,1457,1478],"xSR":733.5,"ySR":461.5,"xT1":420.09999999999997,"yT1":0,"xT2":1046.8999999999999,"yT2":0,"toosoon":0,"cond_shown":"Congruent","ratio_trial":300,"L_num":18,"L_den":20,"R_num":9,"R_den":15,"correct_side":1,"subjID":"CamiloMalaver39","gender":"0","school":"6","age":"11"},{"start_time":1551790007635,"click_time":1551790009467,"finger_time":1551790009007,"fix_duration":425.84035806173927,"trial":6,"RT":1372,"MT":460,"sideResp":2,"stimulus":[],"xmouse":[762,762,762,762,762,762,762,762,762,762,762,762,762,762,762,762,762,762,762,762,762,762,762,762,762,762,762,762,762,762,762,762,762,762,762,762,762,762,762,762,762,762,762,762,762,762,762,762,762,762,762,762,762,762,762,762,762,762,762,762,762,763,764,767,771,775,796,824,872,897,917,957,982,1000,1014,1028,1059,1073,1081,1081,1081,1083,1087,1089,1090,1090,1090,1090,1090,1092,1094,1097],"ymouse":[502,502,502,502,502,502,502,502,502,502,502,502,502,502,502,502,502,502,502,502,502,502,502,502,502,502,502,502,502,502,502,502,502,502,502,502,502,502,502,502,502,502,502,502,502,502,502,502,502,502,502,502,502,502,502,502,502,502,502,502,502,502,501,500,499,496,486,472,441,420,403,370,352,337,314,292,254,234,213,206,190,181,162,152,146,140,128,121,120,111,104,95],"timestamp_mouse":[12,32,52,72,92,112,132,152,173,191,212,232,253,272,293,312,331,352,373,393,413,432,453,473,493,513,533,552,572,592,612,631,652,673,691,713,732,752,772,793,811,832,851,873,893,912,933,952,972,993,1012,1032,1053,1072,1093,1113,1132,1153,1173,1193,1212,1233,1253,1272,1292,1312,1332,1352,1372,1392,1412,1433,1453,1472,1493,1512,1532,1553,1572,1592,1613,1632,1652,1673,1693,1713,1732,1752,1773,1791,1812,1831],"xSR":733.5,"ySR":461.5,"xT1":420.09999999999997,"yT1":0,"xT2":1046.8999999999999,"yT2":0,"toosoon":0,"cond_shown":"Incongruent","ratio_trial":300,"L_num":13,"L_den":26,"R_num":12,"R_den":15,"correct_side":2,"subjID":"CamiloMalaver39","gender":"0","school":"6","age":"11"},{"start_time":1551790011105,"click_time":1551790012907,"finger_time":1551790012408,"fix_duration":715.0068098794821,"trial":7,"RT":1303,"MT":499,"sideResp":2,"stimulus":[],"xmouse":[784,784,784,784,784,784,784,784,784,784,784,784,784,784,784,784,784,784,784,784,784,784,784,784,784,784,784,784,784,784,784,784,784,784,784,784,784,784,784,784,784,784,784,784,784,784,784,784,784,784,784,784,788,791,800,804,807,809,811,811,811,811,811,812,813,820,828,837,858,875,892,912,943,983,1000,1014,1032,1038,1042,1043,1043,1043,1043,1042,1042,1042,1045,1048,1056,1059,1063],"ymouse":[485,485,485,485,485,485,485,485,485,485,485,485,485,485,485,485,485,485,485,485,485,485,485,485,485,485,485,485,485,485,485,485,485,485,485,485,485,485,485,485,485,485,485,485,485,485,485,485,485,485,485,485,482,481,477,475,472,472,471,471,471,471,471,470,468,461,456,449,430,414,392,358,312,257,241,231,217,209,191,185,179,171,163,149,142,139,130,123,108,104,99],"timestamp_mouse":[10,22,43,63,82,102,121,143,161,183,203,223,241,263,282,302,323,342,361,382,402,421,443,462,481,503,522,542,563,583,603,623,643,663,683,702,722,743,763,782,802,823,842,863,882,903,922,942,963,982,1002,1023,1041,1062,1083,1102,1122,1142,1162,1183,1203,1223,1242,1263,1282,1303,1323,1342,1363,1381,1403,1423,1442,1463,1481,1502,1522,1542,1562,1582,1602,1622,1642,1663,1682,1703,1722,1743,1762,1782,1802],"xSR":733.5,"ySR":461.5,"xT1":420.09999999999997,"yT1":0,"xT2":1046.8999999999999,"yT2":0,"toosoon":0,"cond_shown":"Congruent","ratio_trial":100,"L_num":4,"L_den":8,"R_num":6,"R_den":10,"correct_side":2,"subjID":"CamiloMalaver39","gender":"0","school":"6","age":"11"},{"start_time":1551790014272,"click_time":1551790015987,"finger_time":1551790015667,"fix_duration":422.4374555269714,"trial":8,"RT":1395,"MT":320,"sideResp":2,"stimulus":[],"xmouse":[794,794,794,794,794,794,794,794,794,794,794,794,794,794,794,794,794,794,794,794,794,794,794,794,794,794,794,794,794,794,794,794,794,794,794,794,794,794,794,794,794,794,794,794,794,794,794,794,794,794,794,794,794,794,794,794,794,794,794,794,794,794,794,794,794,794,794,796,803,839,879,924,964,993,1046,1077,1086,1106,1111,1113,1113,1113,1113,1113,1113,1112],"ymouse":[485,485,485,485,485,485,485,485,485,485,485,485,485,485,485,485,485,485,485,485,485,485,485,485,485,485,485,485,485,485,485,485,485,485,485,485,485,485,485,485,485,485,485,485,485,485,485,485,485,485,485,485,485,485,485,485,485,485,485,485,485,485,485,485,485,485,485,484,477,439,405,368,338,312,244,193,179,157,150,144,138,134,128,122,106,99],"timestamp_mouse":[15,36,61,76,95,116,136,156,175,195,216,235,255,276,295,316,335,355,375,395,415,434,455,476,496,515,535,554,575,596,615,636,656,676,696,716,736,755,774,795,816,836,855,876,895,916,936,956,976,996,1016,1035,1056,1075,1095,1115,1136,1154,1175,1195,1216,1236,1256,1276,1295,1316,1336,1355,1375,1395,1414,1435,1455,1475,1496,1515,1536,1555,1576,1595,1615,1635,1656,1675,1696,1714],"xSR":733.5,"ySR":461.5,"xT1":420.09999999999997,"yT1":0,"xT2":1046.8999999999999,"yT2":0,"toosoon":0,"cond_shown":"Incongruent","ratio_trial":100,"L_num":6,"L_den":10,"R_num":13,"R_den":26,"correct_side":1,"subjID":"CamiloMalaver39","gender":"0","school":"6","age":"11"},{"start_time":1551790019656,"click_time":1551790021507,"finger_time":1551790021187,"fix_duration":1388.0012996882797,"trial":9,"RT":1531,"MT":320,"sideResp":2,"stimulus":[],"xmouse":[788,788,788,788,788,788,788,788,788,788,788,788,788,788,788,788,788,788,788,788,788,788,788,788,788,788,788,788,788,788,788,788,788,788,788,788,788,788,788,788,788,788,788,788,788,788,788,788,788,788,788,788,788,788,788,788,788,788,788,788,788,788,788,788,788,788,788,788,788,788,788,788,788,788,788,790,801,816,827,837,854,869,895,928,948,968,981,985,994,1003,1025,1037,1047],"ymouse":[474,474,474,474,474,474,474,474,474,474,474,474,474,474,474,474,474,474,474,474,474,474,474,474,474,474,474,474,474,474,474,474,474,474,474,474,474,474,474,474,474,474,474,474,474,474,474,474,474,474,474,474,474,474,474,474,474,474,474,474,474,474,474,474,474,474,474,474,474,474,474,474,474,473,471,468,452,432,414,393,338,307,271,236,215,191,176,170,155,143,119,105,94],"timestamp_mouse":[10,32,51,71,91,112,131,151,172,191,211,231,251,271,291,312,331,351,371,392,410,432,451,472,491,512,532,551,572,591,611,631,651,671,692,711,731,751,771,791,811,831,850,871,891,912,931,951,972,991,1011,1031,1051,1071,1092,1111,1131,1151,1170,1191,1212,1232,1251,1272,1291,1311,1332,1351,1372,1391,1411,1431,1452,1472,1492,1511,1531,1551,1572,1591,1611,1631,1651,1671,1692,1712,1731,1752,1771,1792,1812,1832,1851],"xSR":733.5,"ySR":461.5,"xT1":420.09999999999997,"yT1":0,"xT2":1046.8999999999999,"yT2":0,"toosoon":0,"cond_shown":"Congruent","ratio_trial":200,"L_num":5,"L_den":10,"R_num":14,"R_den":20,"correct_side":2,"subjID":"CamiloMalaver39","gender":"0","school":"6","age":"11"},{"start_time":1551790024049,"click_time":1551790025907,"finger_time":1551790025547,"fix_duration":1299.366022381086,"trial":10,"RT":1498,"MT":360,"sideResp":2,"stimulus":[],"xmouse":[801,801,801,801,801,801,801,801,801,801,801,801,801,801,801,801,801,801,801,801,801,801,801,801,801,801,801,801,801,801,800,800,799,799,799,799,799,799,799,799,799,799,799,799,799,799,799,799,799,799,799,799,799,799,799,799,799,799,799,799,799,799,799,799,799,799,799,799,799,799,799,799,800,808,824,845,887,902,913,920,931,945,984,1000,1011,1017,1030,1038,1053,1058,1064,1068,1075,1084],"ymouse":[485,485,485,485,485,485,485,485,485,485,485,485,485,485,485,485,485,485,485,485,485,485,485,485,485,485,485,485,485,485,485,485,485,485,485,485,485,485,485,485,485,485,485,485,485,485,485,485,485,485,485,485,485,485,485,485,485,485,485,485,485,485,485,485,485,485,485,485,485,485,485,485,483,477,465,452,426,412,395,377,342,311,249,228,210,193,161,144,125,119,114,111,103,97],"timestamp_mouse":[1,18,39,68,78,97,119,138,158,178,199,219,239,258,279,297,319,339,357,378,399,418,439,459,478,498,519,538,557,579,598,618,639,659,678,699,718,738,759,779,798,819,838,859,878,898,919,939,958,978,998,1018,1037,1058,1079,1098,1119,1138,1158,1178,1199,1219,1238,1258,1278,1298,1318,1338,1359,1378,1398,1418,1438,1458,1477,1498,1519,1539,1558,1578,1599,1619,1639,1658,1678,1698,1719,1739,1758,1778,1799,1818,1838,1858],"xSR":733.5,"ySR":461.5,"xT1":420.09999999999997,"yT1":0,"xT2":1046.8999999999999,"yT2":0,"toosoon":0,"cond_shown":"Incongruent","ratio_trial":100,"L_num":17,"L_den":30,"R_num":10,"R_den":15,"correct_side":2,"subjID":"CamiloMalaver39","gender":"0","school":"6","age":"11"},{"start_time":1551790027295,"click_time":1551790029147,"finger_time":1551790028688,"fix_duration":446.99486909213414,"trial":11,"RT":1393,"MT":459,"sideResp":2,"stimulus":[],"xmouse":[757,757,757,757,757,757,757,757,757,757,757,757,756,756,756,756,756,756,756,756,756,756,756,756,756,756,756,756,756,756,756,756,756,756,756,756,756,756,756,756,756,756,756,756,756,756,756,756,756,756,756,756,756,756,756,756,756,756,756,756,756,756,756,756,758,766,780,790,805,817,836,855,871,886,895,904,925,946,964,993,1001,1009,1016,1034,1048,1058,1059,1062,1066,1068,1070,1073,1076],"ymouse":[489,489,489,489,489,489,489,489,489,489,489,489,489,489,489,489,489,489,489,489,489,489,489,489,489,489,489,489,489,489,489,489,489,489,489,489,489,489,489,489,489,489,489,489,489,489,489,489,489,489,489,489,489,489,489,489,489,489,489,489,489,489,489,487,484,481,477,475,466,456,441,424,407,379,361,340,300,274,252,214,195,178,164,145,137,130,129,122,114,112,107,103,99],"timestamp_mouse":[13,37,52,71,92,112,132,152,173,192,213,233,252,272,293,313,333,353,373,391,413,432,452,473,492,512,533,552,573,592,613,631,653,672,693,713,733,752,772,793,813,831,853,872,893,913,933,952,973,993,1012,1032,1053,1072,1091,1112,1133,1152,1172,1192,1212,1232,1254,1272,1293,1313,1332,1352,1372,1393,1412,1432,1453,1473,1491,1512,1532,1552,1573,1592,1612,1632,1652,1673,1692,1713,1733,1752,1772,1793,1811,1832,1852],"xSR":733.5,"ySR":461.5,"xT1":420.09999999999997,"yT1":0,"xT2":1046.8999999999999,"yT2":0,"toosoon":0,"cond_shown":"Incongruent","ratio_trial":300,"L_num":13,"L_den":26,"R_num":12,"R_den":15,"correct_side":2,"subjID":"CamiloMalaver39","gender":"0","school":"6","age":"11"},{"start_time":1551790030628,"click_time":1551790032247,"finger_time":1551790031968,"fix_duration":459.66318992884015,"trial":12,"RT":1340,"MT":279,"sideResp":2,"stimulus":[],"xmouse":[761,761,761,761,761,761,761,761,761,761,761,761,761,761,761,761,761,761,761,761,761,761,761,761,761,761,761,760,760,760,760,760,760,760,760,760,760,760,760,760,760,760,760,760,760,760,760,760,760,760,760,760,760,760,760,760,760,760,761,761,761,761,761,761,767,775,786,818,833,868,889,958,1001,1059,1074,1086,1094,1109,1118,1119,1121,1124],"ymouse":[492,492,492,492,492,492,492,492,492,492,492,492,492,492,492,492,492,492,492,492,492,492,492,492,492,492,492,493,493,493,493,493,493,493,493,493,493,493,493,493,493,493,493,493,493,493,493,493,493,493,492,492,492,492,492,492,492,492,492,492,492,492,492,492,489,485,479,459,446,410,389,326,288,225,204,188,174,149,132,129,113,99],"timestamp_mouse":[1,20,40,60,80,99,119,139,159,179,199,220,240,259,279,300,320,340,359,379,400,419,438,460,480,500,520,540,559,579,600,619,639,660,678,699,719,740,759,780,799,820,840,859,879,899,920,940,960,980,1000,1019,1039,1060,1079,1100,1120,1139,1159,1179,1198,1219,1240,1259,1279,1299,1319,1340,1360,1379,1399,1420,1439,1458,1479,1499,1519,1540,1559,1579,1599,1619],"xSR":733.5,"ySR":461.5,"xT1":420.09999999999997,"yT1":0,"xT2":1046.8999999999999,"yT2":0,"toosoon":0,"cond_shown":"Incongruent","ratio_trial":300,"L_num":13,"L_den":26,"R_num":12,"R_den":15,"correct_side":2,"subjID":"CamiloMalaver39","gender":"0","school":"6","age":"11"},{"start_time":1551790034562,"click_time":1551790036298,"finger_time":1551790035898,"fix_duration":972.5746492233362,"trial":13,"RT":1336,"MT":400,"sideResp":2,"stimulus":[],"xmouse":[804,804,804,804,804,804,804,804,804,804,804,804,804,804,804,804,804,804,804,804,804,804,804,804,804,804,804,804,804,804,804,804,804,804,804,804,804,804,804,804,804,804,804,804,804,804,804,804,804,804,804,804,804,803,803,805,806,807,807,807,807,807,808,808,809,816,825,841,867,890,930,955,985,1026,1037,1043,1047,1048,1051,1053,1057,1058,1058,1058,1058,1059,1064],"ymouse":[489,489,489,489,489,489,489,489,489,489,489,489,489,489,489,489,489,489,489,489,489,489,489,489,489,489,489,489,489,489,489,489,489,489,489,489,489,489,489,489,489,489,489,489,489,489,489,489,489,489,489,489,489,489,488,483,482,481,480,480,480,480,479,478,476,467,458,447,434,423,396,376,350,305,287,267,236,224,207,195,163,150,140,127,118,110,95],"timestamp_mouse":[9,25,47,65,85,106,126,146,165,185,205,226,245,265,286,306,336,356,375,395,415,436,455,475,495,515,537,556,577,595,616,636,656,675,695,715,736,756,775,795,815,835,856,875,896,916,935,955,977,995,1016,1037,1057,1075,1096,1116,1136,1155,1175,1195,1216,1236,1255,1275,1296,1316,1336,1356,1375,1396,1415,1435,1455,1475,1496,1516,1535,1555,1575,1595,1616,1635,1656,1675,1696,1716,1736],"xSR":733.5,"ySR":461.5,"xT1":420.09999999999997,"yT1":0,"xT2":1046.8999999999999,"yT2":0,"toosoon":0,"cond_shown":"Incongruent","ratio_trial":200,"L_num":14,"L_den":30,"R_num":12,"R_den":18,"correct_side":2,"subjID":"CamiloMalaver39","gender":"0","school":"6","age":"11"},{"start_time":1551790038076,"click_time":1551790039559,"finger_time":1551790039377,"fix_duration":637.2157088295089,"trial":14,"RT":1301,"MT":182,"sideResp":2,"stimulus":[],"xmouse":[788,788,788,788,788,788,788,788,788,788,788,788,788,788,788,788,788,788,788,788,788,788,788,788,788,788,788,788,788,788,788,788,788,788,788,788,788,788,788,788,788,788,788,788,788,788,788,788,788,788,788,788,788,788,788,788,788,788,788,788,788,791,796,804,815,842,858,872,909,939,972,989,1007,1024,1047],"ymouse":[493,493,493,493,493,493,493,493,493,493,493,493,493,493,493,493,493,493,493,493,493,493,493,493,493,493,493,493,493,493,493,493,493,493,493,493,493,493,493,493,493,493,493,493,493,493,493,493,493,493,493,493,493,493,493,493,493,493,493,493,493,492,490,484,475,447,418,372,284,231,158,126,97,74,47],"timestamp_mouse":[7,23,43,61,82,101,122,141,161,182,202,221,241,261,282,303,322,341,361,381,401,421,441,461,481,501,522,543,561,581,602,622,643,661,682,702,723,742,761,781,802,822,842,861,881,901,922,942,962,982,1001,1022,1041,1062,1082,1101,1121,1142,1161,1182,1202,1222,1242,1262,1281,1301,1321,1341,1362,1381,1401,1421,1441,1462,1483],"xSR":733.5,"ySR":461.5,"xT1":420.09999999999997,"yT1":0,"xT2":1046.8999999999999,"yT2":0,"toosoon":0,"cond_shown":"Incongruent","ratio_trial":300,"L_num":13,"L_den":26,"R_num":12,"R_den":15,"correct_side":2,"subjID":"CamiloMalaver39","gender":"0","school":"6","age":"11"},{"start_time":1551790041929,"click_time":1551790043959,"finger_time":1551790043277,"fix_duration":1049.652363705919,"trial":15,"RT":1348,"MT":682,"sideResp":2,"stimulus":[],"xmouse":[742,742,742,742,742,742,742,742,742,742,742,742,742,742,742,742,742,742,742,742,742,742,742,742,742,742,742,742,742,742,742,742,742,742,742,742,742,742,742,742,742,742,742,742,742,742,742,742,742,742,742,742,742,742,742,742,742,742,742,742,742,742,743,746,759,771,790,845,874,902,923,943,956,969,977,986,997,1016,1019,1022,1025,1026,1029,1030,1033,1040,1043,1049,1062,1068,1075,1079,1084,1086,1087,1091,1093,1095,1098,1099,1100,1103],"ymouse":[517,517,517,517,517,517,517,517,517,517,517,517,517,517,517,517,517,517,517,517,517,517,517,517,517,517,517,517,517,517,517,517,517,517,517,517,517,517,517,517,517,517,517,517,517,517,517,517,517,517,517,517,517,517,517,517,517,517,517,517,517,516,516,512,503,493,478,433,409,383,361,341,321,292,269,248,229,199,188,177,170,165,162,161,160,157,155,152,144,140,135,129,124,122,119,114,110,106,103,101,100,97],"timestamp_mouse":[8,29,62,69,89,109,129,149,169,189,208,228,249,268,288,308,330,348,369,390,409,430,448,469,489,508,528,548,569,588,609,629,649,669,689,709,729,748,769,789,808,829,848,869,888,909,928,948,968,989,1008,1029,1048,1069,1089,1109,1128,1149,1169,1189,1209,1230,1249,1268,1288,1308,1329,1348,1368,1388,1409,1428,1448,1469,1488,1509,1528,1548,1568,1588,1609,1629,1649,1669,1688,1708,1728,1748,1769,1788,1809,1830,1848,1868,1888,1908,1929,1949,1968,1989,2008,2030],"xSR":733.5,"ySR":461.5,"xT1":420.09999999999997,"yT1":0,"xT2":1046.8999999999999,"yT2":0,"toosoon":0,"cond_shown":"Congruent","ratio_trial":200,"L_num":3,"L_den":10,"R_num":11,"R_den":22,"correct_side":2,"subjID":"CamiloMalaver39","gender":"0","school":"6","age":"11"},{"start_time":1551790046102,"click_time":1551790047797,"finger_time":1551790047237,"fix_duration":742.1761089740006,"trial":16,"RT":1135,"MT":560,"sideResp":2,"stimulus":[],"xmouse":[785,785,785,785,785,785,785,785,785,785,785,785,785,785,785,785,785,785,785,785,785,785,785,785,785,785,785,785,785,785,785,785,785,785,785,785,785,785,785,785,785,785,785,785,785,785,785,785,785,786,788,790,792,797,801,803,809,813,821,827,834,840,845,857,866,881,890,903,932,943,951,961,974,999,1015,1028,1038,1052,1060,1071,1075,1078,1081,1089,1092],"ymouse":[512,512,512,512,512,512,512,512,512,512,512,512,512,512,512,512,512,512,512,512,512,512,512,512,512,512,512,512,512,512,512,512,512,512,512,512,512,512,512,512,512,512,512,512,512,512,512,512,512,509,504,500,495,482,471,466,451,442,424,414,402,387,374,347,326,301,287,274,240,230,223,217,206,180,162,148,140,131,125,117,113,109,106,100,97],"timestamp_mouse":[15,51,55,76,96,115,135,156,175,195,215,235,256,276,295,315,336,355,377,395,416,436,457,475,495,515,536,555,576,596,617,635,656,676,695,715,735,755,775,796,815,835,855,876,896,915,936,955,976,995,1015,1036,1055,1075,1096,1116,1135,1156,1175,1196,1215,1236,1255,1276,1296,1315,1336,1355,1375,1395,1415,1436,1456,1476,1496,1515,1536,1556,1576,1596,1615,1636,1655,1676,1695],"xSR":733.5,"ySR":461.5,"xT1":420.09999999999997,"yT1":0,"xT2":1046.8999999999999,"yT2":0,"toosoon":0,"cond_shown":"Congruent","ratio_trial":200,"L_num":7,"L_den":15,"R_num":18,"R_den":27,"correct_side":2,"subjID":"CamiloMalaver39","gender":"0","school":"6","age":"11"},{"start_time":1551790050068,"click_time":1551790052698,"finger_time":1551790051637,"fix_duration":948.8324087905833,"trial":17,"RT":1569,"MT":1061,"sideResp":2,"stimulus":[],"xmouse":[771,771,771,771,771,771,771,771,771,771,771,771,771,771,771,771,771,771,771,771,771,771,771,771,771,771,771,771,771,771,771,771,771,771,771,771,771,771,771,771,771,771,771,771,771,771,771,771,771,771,771,771,771,771,771,771,771,771,771,771,771,771,771,771,771,771,771,771,771,771,771,771,771,774,777,794,811,828,849,864,896,910,920,931,939,956,975,982,1010,1027,1050,1059,1072,1090,1125,1228,1277,1342,1439,1439,1439,1439,1439,1439,1439,1439,1439,1439,1439,1439,1438,1426,1418,1411,1404,1390,1383,1381,1377,1371,1346,1324,1294,1268,1250,1223,1208,1193,1173,1166,1151,1145],"ymouse":[481,481,481,481,481,481,481,481,481,481,481,481,481,481,481,481,481,481,481,481,481,481,481,481,481,481,481,481,481,481,481,481,481,481,481,481,481,481,481,481,481,481,481,481,481,481,481,481,481,481,481,481,481,481,481,481,481,481,481,481,481,481,481,481,481,481,481,481,481,481,481,481,481,481,481,476,471,465,454,446,423,409,393,377,362,330,303,294,273,261,245,239,230,219,200,155,120,77,2,2,2,2,2,2,2,2,2,2,2,2,0,14,25,34,44,60,65,66,67,67,67,64,60,56,56,56,57,59,64,66,72,74],"timestamp_mouse":[10,30,49,69,89,109,130,149,170,189,211,229,250,269,289,309,330,350,369,389,409,429,449,470,489,510,530,549,570,589,610,629,649,670,689,709,730,749,770,791,810,830,849,870,889,909,929,949,970,989,1010,1029,1051,1070,1089,1110,1130,1149,1169,1190,1209,1229,1249,1269,1290,1310,1331,1350,1370,1389,1409,1429,1449,1470,1491,1509,1530,1551,1569,1589,1609,1629,1649,1670,1689,1709,1729,1750,1769,1790,1809,1829,1849,1869,1890,1909,1929,1950,1970,1991,2010,2030,2050,2070,2089,2110,2129,2150,2169,2189,2209,2229,2250,2269,2290,2310,2329,2349,2371,2389,2409,2429,2449,2469,2490,2509,2529,2549,2569,2589,2609,2630],"xSR":733.5,"ySR":461.5,"xT1":420.09999999999997,"yT1":0,"xT2":1046.8999999999999,"yT2":0,"toosoon":0,"cond_shown":"Congruent","ratio_trial":300,"L_num":3,"L_den":12,"R_num":11,"R_den":20,"correct_side":2,"subjID":"CamiloMalaver39","gender":"0","school":"6","age":"11"},{"start_time":1551790054315,"click_time":1551790056037,"finger_time":1551790055717,"fix_duration":395.68619948813745,"trial":18,"RT":1402,"MT":320,"sideResp":2,"stimulus":[],"xmouse":[781,781,781,781,781,781,781,781,781,781,781,781,781,781,781,781,781,781,781,781,781,781,781,781,781,781,781,781,781,781,781,781,781,781,781,781,781,781,781,781,781,781,781,781,781,781,781,781,781,781,781,781,781,781,781,781,781,781,781,781,781,781,781,781,781,781,781,781,790,796,803,811,824,863,898,934,977,989,1006,1012,1017,1024,1029,1039,1042,1044,1047],"ymouse":[488,488,488,488,488,488,488,488,488,488,488,488,488,488,488,488,488,488,488,488,488,488,488,488,488,488,488,488,488,488,488,488,488,488,488,488,488,488,488,488,488,488,488,488,488,488,488,488,488,488,488,488,488,488,488,488,488,488,488,488,488,488,488,488,488,488,488,487,477,468,458,445,428,375,333,283,229,211,181,166,153,138,127,111,107,103,99],"timestamp_mouse":[8,22,42,62,82,103,123,142,183,183,203,223,242,263,283,302,322,342,363,382,402,422,443,463,482,502,523,542,562,583,603,622,642,662,682,703,723,742,762,782,803,822,843,863,882,902,923,942,962,983,1002,1022,1042,1063,1082,1103,1123,1142,1162,1182,1204,1222,1243,1262,1283,1302,1323,1342,1363,1382,1402,1422,1442,1463,1482,1502,1522,1542,1562,1582,1602,1623,1642,1663,1683,1702,1722],"xSR":733.5,"ySR":461.5,"xT1":420.09999999999997,"yT1":0,"xT2":1046.8999999999999,"yT2":0,"toosoon":0,"cond_shown":"Congruent","ratio_trial":300,"L_num":2,"L_den":10,"R_num":12,"R_den":24,"correct_side":2,"subjID":"CamiloMalaver39","gender":"0","school":"6","age":"11"},{"start_time":1551790103265,"click_time":1551790105184,"finger_time":1551790103964,"fix_duration":1139.6466717759263,"trial":19,"RT":699,"MT":1220,"sideResp":2,"stimulus":[],"xmouse":[762,762,762,762,762,762,762,762,762,762,762,762,762,762,762,762,762,762,762,762,762,762,762,762,762,762,762,762,762,762,762,762,763,764,761,752,736,730,720,713,705,697,696,696,696,697,704,713,717,738,758,840,892,931,964,986,1026,1043,1061,1064,1065,1065,1066,1067,1068,1070,1072,1072,1072,1072,1072,1074,1075,1076,1079,1083,1084,1082,1080,1080,1080,1080,1080,1080,1080,1080,1080,1080,1081,1081,1082,1082,1083,1083,1084,1085,1088],"ymouse":[509,509,509,509,509,509,509,509,509,509,509,509,509,509,509,509,509,509,509,509,509,509,509,509,509,509,509,509,509,509,509,509,509,496,472,450,431,426,419,411,401,384,382,382,380,379,373,365,360,344,334,301,286,275,264,254,238,232,224,223,222,221,218,215,211,206,200,199,196,196,195,194,192,190,179,166,135,117,111,111,111,111,111,111,111,111,111,111,109,108,107,105,104,103,102,101,95],"timestamp_mouse":[1,33,40,59,79,100,119,138,160,178,200,220,238,260,278,299,319,340,360,379,399,419,440,458,480,499,520,539,559,580,599,620,639,659,680,699,719,739,758,779,799,819,838,859,879,899,918,938,959,979,999,1020,1039,1058,1078,1099,1119,1140,1159,1178,1198,1218,1239,1259,1279,1300,1319,1340,1359,1378,1398,1418,1440,1459,1479,1499,1519,1539,1559,1579,1599,1620,1639,1658,1679,1700,1719,1738,1759,1779,1800,1819,1839,1859,1879,1899,1919],"xSR":733.5,"ySR":461.5,"xT1":420.09999999999997,"yT1":0,"xT2":1046.8999999999999,"yT2":0,"toosoon":0,"cond_shown":"Congruent","ratio_trial":300,"L_num":1,"L_den":5,"R_num":3,"R_den":6,"correct_side":2,"subjID":"CamiloMalaver39","gender":"0","school":"6","age":"11"},{"start_time":1551790107916,"click_time":1551790109204,"finger_time":1551790108784,"fix_duration":250,"trial":20,"RT":868,"MT":420,"sideResp":2,"stimulus":[],"xmouse":[793,793,793,793,793,793,793,793,793,793,793,793,793,793,793,793,793,793,793,793,793,793,793,793,793,793,793,793,793,793,793,793,793,793,793,793,793,793,793,793,793,797,806,834,842,853,861,868,882,889,892,897,900,917,932,943,953,961,975,977,981,989,1003,1031,1066],"ymouse":[524,524,524,524,524,524,524,524,524,524,524,524,524,524,524,524,524,524,524,524,524,524,524,524,524,524,524,524,524,524,524,524,524,524,524,524,524,524,524,524,524,524,522,509,495,462,437,413,363,344,329,312,296,249,213,193,176,162,143,136,129,117,95,64,42],"timestamp_mouse":[8,36,49,67,88,108,129,147,168,188,207,228,249,269,288,307,329,349,369,388,408,428,447,469,487,508,529,549,568,587,608,627,649,668,688,708,729,749,768,788,808,829,847,867,887,908,928,947,968,989,1007,1027,1048,1067,1087,1108,1128,1148,1168,1188,1208,1227,1247,1267,1288],"xSR":733.5,"ySR":461.5,"xT1":420.09999999999997,"yT1":0,"xT2":1046.8999999999999,"yT2":0,"toosoon":0,"cond_shown":"Incongruent","ratio_trial":100,"L_num":2,"L_den":4,"R_num":6,"R_den":15,"correct_side":1,"subjID":"CamiloMalaver39","gender":"0","school":"6","age":"11"},{"start_time":1551790113033,"click_time":1551790114424,"finger_time":1551790114384,"fix_duration":1287.4265274365985,"trial":21,"RT":1351,"MT":40,"sideResp":2,"stimulus":[],"xmouse":[788,788,788,788,788,788,788,788,788,788,788,788,788,788,788,788,788,788,788,788,788,788,788,788,788,788,788,788,788,788,788,788,788,788,788,788,788,788,788,788,788,788,788,788,788,788,788,788,788,788,788,788,788,788,788,788,788,788,788,788,788,788,788,788,790,791,800,868,939,1069],"ymouse":[510,510,510,510,510,510,510,510,510,510,510,510,510,510,510,510,510,510,510,510,510,510,510,510,510,510,510,510,510,510,510,510,510,510,510,510,510,510,510,510,510,510,510,510,510,510,510,510,510,510,510,510,510,510,510,510,510,510,510,510,510,510,510,510,500,492,468,334,241,94],"timestamp_mouse":[12,38,51,70,90,111,131,151,171,192,212,231,251,272,291,311,331,351,371,391,411,432,450,470,492,512,531,552,571,591,611,630,651,671,690,710,731,751,771,790,812,831,850,872,892,910,931,952,971,991,1011,1031,1051,1072,1092,1110,1131,1151,1172,1191,1212,1232,1250,1272,1292,1310,1331,1351,1370,1390],"xSR":733.5,"ySR":461.5,"xT1":420.09999999999997,"yT1":0,"xT2":1046.8999999999999,"yT2":0,"toosoon":0,"cond_shown":"Congruent","ratio_trial":200,"L_num":3,"L_den":10,"R_num":14,"R_den":28,"correct_side":2,"subjID":"CamiloMalaver39","gender":"0","school":"6","age":"11"},{"start_time":1551790116556,"click_time":1551790118584,"finger_time":1551790118105,"fix_duration":250,"trial":22,"RT":1549,"MT":479,"sideResp":2,"stimulus":[],"xmouse":[813,813,813,813,813,813,813,813,813,813,813,813,813,813,813,813,813,813,813,813,813,813,813,813,813,813,813,813,813,813,813,813,813,813,813,813,813,813,813,813,813,813,813,813,813,813,813,813,813,813,813,813,813,813,813,813,813,813,813,813,813,813,813,813,813,813,813,813,813,813,813,813,813,813,812,812,812,817,835,857,882,924,944,971,989,1014,1085,1112,1125,1128,1128,1128,1128,1128,1128,1128,1123,1119,1116,1115,1114,1114],"ymouse":[488,488,488,488,488,488,488,488,488,488,488,488,488,488,488,488,488,488,488,488,488,488,488,488,488,488,488,488,488,488,488,488,488,488,488,488,488,488,488,488,488,488,488,488,488,488,488,488,488,488,488,488,488,488,488,488,488,488,488,488,488,488,488,488,488,488,488,488,488,488,488,488,488,488,488,486,471,452,422,389,355,307,283,250,230,203,155,139,130,126,126,125,125,124,122,120,115,112,109,108,105,96],"timestamp_mouse":[9,32,48,67,89,107,128,148,168,188,207,229,249,269,289,307,329,347,368,388,408,427,448,467,489,508,528,548,567,588,609,629,648,669,688,707,728,748,769,787,808,829,847,868,888,909,929,949,967,989,1008,1029,1047,1069,1087,1108,1128,1147,1169,1188,1208,1228,1249,1269,1287,1308,1328,1348,1368,1389,1409,1428,1447,1469,1489,1508,1528,1549,1568,1592,1608,1628,1649,1668,1688,1708,1727,1748,1768,1788,1808,1828,1849,1868,1888,1907,1927,1949,1968,1989,2009,2028],"xSR":733.5,"ySR":461.5,"xT1":420.09999999999997,"yT1":0,"xT2":1046.8999999999999,"yT2":0,"toosoon":0,"cond_shown":"Congruent","ratio_trial":300,"L_num":1,"L_den":5,"R_num":3,"R_den":6,"correct_side":2,"subjID":"CamiloMalaver39","gender":"0","school":"6","age":"11"},{"start_time":1551790120571,"click_time":1551790122344,"finger_time":1551790121844,"fix_duration":966.1861285514957,"trial":23,"RT":1273,"MT":500,"sideResp":1,"stimulus":[],"xmouse":[784,784,784,784,784,784,784,784,784,784,784,784,784,784,784,784,784,784,784,784,784,784,784,784,784,784,784,784,784,784,784,784,784,784,784,784,784,784,784,784,784,784,783,778,775,772,772,772,772,772,772,772,772,772,772,772,772,772,772,771,769,767,760,753,745,730,713,694,678,664,630,622,610,602,587,573,569,567,567,565,563,559,558,556,552,540,532,523,513],"ymouse":[499,499,499,499,499,499,499,499,499,499,499,499,499,499,499,499,499,499,499,499,499,499,499,499,499,499,499,499,499,499,499,499,499,499,499,499,499,499,499,499,499,498,497,495,493,491,491,491,491,491,491,491,491,491,491,491,491,491,491,490,482,477,465,452,437,401,370,342,320,299,221,201,179,171,163,153,149,147,147,144,141,137,137,133,129,117,110,104,97],"timestamp_mouse":[14,46,53,73,92,113,133,154,174,193,212,233,254,272,293,313,333,352,372,392,412,432,453,472,492,513,534,554,572,594,614,633,654,674,692,712,733,752,774,793,813,832,853,873,892,913,934,952,972,994,1014,1033,1054,1072,1093,1113,1133,1153,1173,1192,1213,1233,1252,1273,1293,1313,1334,1353,1373,1393,1413,1432,1453,1472,1492,1512,1532,1553,1573,1593,1613,1632,1654,1672,1693,1712,1733,1752,1772],"xSR":733.5,"ySR":461.5,"xT1":420.09999999999997,"yT1":0,"xT2":1046.8999999999999,"yT2":0,"toosoon":0,"cond_shown":"Incongruent","ratio_trial":100,"L_num":3,"L_den":9,"R_num":7,"R_den":30,"correct_side":1,"subjID":"CamiloMalaver39","gender":"0","school":"6","age":"11"},{"start_time":1551790123872,"click_time":1551790125764,"finger_time":1551790125165,"fix_duration":366.6541393410212,"trial":24,"RT":1293,"MT":599,"sideResp":2,"stimulus":[],"xmouse":[785,785,785,785,785,785,785,785,785,785,784,784,783,783,783,783,783,783,783,783,783,783,783,783,783,783,783,783,783,783,783,783,783,783,783,783,783,783,783,783,783,783,783,783,783,783,783,783,783,783,783,783,783,783,783,783,783,783,783,783,782,781,781,779,778,778,779,783,789,799,814,817,818,819,820,829,833,837,844,848,857,893,922,942,962,996,1013,1032,1040,1045,1054,1056,1058,1059,1059],"ymouse":[489,489,489,489,489,489,489,489,489,489,489,489,489,489,489,489,489,489,489,489,489,489,489,489,489,489,489,489,489,489,489,489,489,489,489,489,489,489,489,489,489,489,489,489,489,489,489,489,489,489,489,489,489,489,489,489,489,489,489,489,486,481,475,465,456,443,414,389,370,349,315,307,305,304,301,291,286,281,276,271,260,233,216,204,193,172,161,148,142,134,119,113,105,100,93],"timestamp_mouse":[13,32,63,72,92,112,132,152,171,191,213,233,252,271,293,313,333,352,373,393,413,433,452,472,493,512,533,553,573,593,612,631,652,672,693,713,732,753,771,792,811,832,851,872,892,912,933,951,972,992,1011,1032,1052,1071,1092,1113,1131,1153,1172,1193,1212,1232,1252,1271,1293,1312,1333,1353,1371,1391,1413,1432,1451,1473,1492,1512,1532,1552,1572,1591,1612,1631,1651,1673,1691,1712,1733,1752,1771,1792,1812,1831,1852,1872,1892],"xSR":733.5,"ySR":461.5,"xT1":420.09999999999997,"yT1":0,"xT2":1046.8999999999999,"yT2":0,"toosoon":0,"cond_shown":"Incongruent","ratio_trial":200,"L_num":14,"L_den":30,"R_num":6,"R_den":9,"correct_side":2,"subjID":"CamiloMalaver39","gender":"0","school":"6","age":"11"},{"start_time":1551790127274,"click_time":1551790128803,"finger_time":1551790128683,"fix_duration":409.1022980784151,"trial":25,"RT":1409,"MT":120,"sideResp":2,"stimulus":[],"xmouse":[786,786,786,786,786,786,786,786,786,786,786,786,786,786,786,786,786,786,786,786,786,786,786,786,786,786,786,786,786,786,786,786,786,786,786,786,786,786,786,786,786,786,786,786,786,786,786,786,786,786,786,786,786,786,786,786,786,786,786,786,786,786,786,786,786,787,790,796,798,800,809,820,838,874,919,1020,1090],"ymouse":[482,482,482,482,482,482,482,482,482,482,482,482,482,482,482,482,482,482,482,482,482,482,482,482,482,482,482,482,482,482,482,482,482,482,482,482,482,482,482,482,482,482,482,482,482,482,482,482,482,482,482,482,482,482,482,482,482,482,482,482,482,482,482,482,482,480,477,470,468,468,455,438,411,364,310,187,84],"timestamp_mouse":[9,41,49,70,90,111,129,150,169,190,209,230,250,270,291,311,329,350,369,390,411,431,450,471,489,509,531,551,570,590,611,630,650,671,691,710,730,750,770,791,809,830,851,869,889,911,930,950,969,990,1010,1030,1049,1070,1089,1111,1129,1149,1170,1190,1210,1230,1249,1270,1289,1311,1329,1349,1370,1389,1409,1430,1449,1471,1490,1510,1529],"xSR":733.5,"ySR":461.5,"xT1":420.09999999999997,"yT1":0,"xT2":1046.8999999999999,"yT2":0,"toosoon":0,"cond_shown":"Congruent","ratio_trial":300,"L_num":1,"L_den":20,"R_num":7,"R_den":20,"correct_side":2,"subjID":"CamiloMalaver39","gender":"0","school":"6","age":"11"},{"start_time":1551790130535,"click_time":1551790132264,"finger_time":1551790131843,"fix_duration":250,"trial":26,"RT":1308,"MT":421,"sideResp":2,"stimulus":[],"xmouse":[795,795,795,795,795,795,795,795,795,795,795,795,795,795,795,795,795,795,795,795,795,795,795,795,795,795,795,795,795,795,795,795,795,795,795,795,795,795,795,795,795,795,795,795,795,795,795,795,795,795,795,795,795,795,795,795,795,795,795,795,797,799,801,809,825,843,862,892,908,930,958,971,981,986,988,989,993,998,1001,1004,1007,1013,1033,1047,1056,1067,1079],"ymouse":[541,541,538,536,536,536,536,536,536,536,536,536,536,536,536,536,536,536,536,536,536,536,536,536,536,536,536,536,536,536,536,536,536,536,536,536,536,536,536,536,536,536,536,536,536,536,536,536,536,536,536,536,536,536,536,536,536,536,535,533,532,531,530,522,503,481,454,385,345,294,242,215,192,184,180,178,171,161,157,154,150,146,135,126,118,109,96],"timestamp_mouse":[10,34,48,69,90,108,129,148,168,188,209,229,250,268,289,310,329,348,370,389,410,428,449,469,490,510,529,550,569,590,610,629,649,668,689,708,728,749,769,789,808,829,850,870,890,910,928,948,969,989,1009,1028,1049,1069,1088,1109,1130,1150,1169,1188,1208,1230,1249,1268,1289,1308,1329,1349,1369,1388,1409,1429,1449,1468,1489,1508,1528,1550,1569,1589,1610,1629,1648,1668,1689,1708,1728],"xSR":733.5,"ySR":461.5,"xT1":420.09999999999997,"yT1":0,"xT2":1046.8999999999999,"yT2":0,"toosoon":0,"cond_shown":"Congruent","ratio_trial":200,"L_num":3,"L_den":10,"R_num":11,"R_den":22,"correct_side":2,"subjID":"CamiloMalaver39","gender":"0","school":"6","age":"11"},{"start_time":1551790133957,"click_time":1551790136343,"finger_time":1551790134784,"fix_duration":471.92842604162354,"trial":27,"RT":827,"MT":1559,"sideResp":1,"stimulus":[],"xmouse":[790,790,790,790,790,790,790,790,790,790,790,790,790,790,790,790,790,790,790,790,790,790,790,790,790,790,790,789,786,785,783,782,782,781,780,778,776,776,774,773,772,761,751,741,741,741,741,742,744,747,750,755,757,758,760,762,767,770,772,775,778,783,789,799,808,822,869,883,889,896,903,918,924,924,924,924,924,919,915,911,907,902,898,894,889,888,885,885,886,888,888,888,889,894,898,902,906,907,903,892,873,849,766,676,612,580,580,580,580,580,580,580,580,580,580,580,580,580,405,424],"ymouse":[476,476,476,476,476,476,476,476,476,476,476,476,476,476,476,476,476,476,476,476,476,476,476,476,476,476,476,476,477,477,477,477,477,477,477,477,477,477,475,474,470,453,441,429,427,427,427,427,428,431,433,439,441,443,446,448,456,459,461,463,464,464,461,450,438,421,365,349,338,330,318,302,297,296,295,295,294,294,294,296,298,302,310,320,336,345,359,363,365,367,367,367,367,367,367,367,363,355,343,328,312,298,243,162,84,41,41,41,41,41,41,41,41,41,41,41,41,41,3,28],"timestamp_mouse":[8,40,47,67,87,108,126,148,168,186,208,228,247,266,288,306,326,347,367,387,408,426,447,467,488,508,526,547,567,587,607,627,648,668,687,706,726,748,768,787,807,827,847,866,887,907,927,946,967,987,1006,1027,1047,1067,1087,1106,1126,1147,1168,1187,1208,1226,1247,1266,1287,1306,1327,1347,1367,1387,1407,1427,1446,1467,1487,1507,1527,1547,1567,1587,1607,1627,1646,1667,1688,1707,1727,1747,1768,1786,1806,1827,1847,1867,1888,1906,1926,1947,1967,1987,2008,2027,2048,2067,2087,2108,2128,2146,2166,2186,2208,2227,2247,2268,2287,2308,2326,2347,2367,2386],"xSR":733.5,"ySR":461.5,"xT1":420.09999999999997,"yT1":0,"xT2":1046.8999999999999,"yT2":0,"toosoon":0,"cond_shown":"Incongruent","ratio_trial":200,"L_num":4,"L_den":30,"R_num":1,"R_den":3,"correct_side":2,"subjID":"CamiloMalaver39","gender":"0","school":"6","age":"11"},{"start_time":1551790140610,"click_time":1551790142284,"finger_time":1551790141805,"fix_duration":925.4496315519649,"trial":28,"RT":1195,"MT":479,"sideResp":1,"stimulus":[],"xmouse":[779,779,779,779,778,770,764,761,758,758,758,758,758,758,758,758,758,758,758,758,758,758,758,758,758,758,758,758,758,758,758,758,758,758,758,758,758,758,758,758,758,757,756,753,753,753,753,753,753,753,753,753,753,753,753,753,753,753,751,747,743,741,733,704,691,675,662,646,607,591,583,572,564,560,560,560,560,558,551,543,541,532,522,501],"ymouse":[515,515,515,515,515,514,514,513,513,513,513,513,513,512,512,512,512,512,512,512,512,512,512,512,512,512,512,512,512,512,512,512,512,512,512,512,512,512,512,512,512,511,508,502,500,500,500,500,500,500,500,500,500,500,500,500,497,493,483,459,432,403,357,273,243,221,203,183,138,124,115,106,101,99,99,99,99,98,94,91,90,87,85,78],"timestamp_mouse":[13,39,54,74,95,114,135,155,175,194,215,233,254,275,293,314,334,353,375,393,413,434,454,475,493,515,534,553,574,593,615,635,654,675,694,715,734,754,773,794,814,833,854,873,894,914,933,955,974,993,1014,1033,1054,1074,1093,1114,1133,1154,1173,1194,1213,1234,1254,1274,1294,1313,1333,1354,1373,1394,1415,1434,1455,1475,1494,1514,1534,1554,1573,1593,1615,1634,1654,1673],"xSR":733.5,"ySR":461.5,"xT1":420.09999999999997,"yT1":0,"xT2":1046.8999999999999,"yT2":0,"toosoon":0,"cond_shown":"Congruent","ratio_trial":200,"L_num":4,"L_den":8,"R_num":3,"R_den":10,"correct_side":1,"subjID":"CamiloMalaver39","gender":"0","school":"6","age":"11"},{"start_time":1551790144969,"click_time":1551790146504,"finger_time":1551790145863,"fix_duration":403.07532749336883,"trial":29,"RT":894,"MT":641,"sideResp":1,"stimulus":[],"xmouse":[793,793,793,793,793,793,793,793,793,793,793,793,793,793,793,793,793,793,793,793,793,793,793,793,793,793,793,793,793,793,792,792,792,792,792,792,792,792,792,792,794,794,795,796,797,797,797,797,796,794,788,786,783,773,760,729,712,699,686,675,646,631,617,610,600,591,585,580,573,567,559,552,550,548,547,520,495],"ymouse":[539,539,539,539,539,539,539,539,539,539,539,539,539,539,539,539,539,539,539,539,539,539,539,539,539,539,539,539,538,538,538,538,538,537,536,534,532,530,529,525,509,495,473,465,460,452,447,438,426,415,399,395,390,379,370,351,340,330,320,310,284,272,256,243,227,214,204,199,192,188,180,171,169,167,163,115,77],"timestamp_mouse":[15,34,54,74,95,115,135,155,176,195,215,235,254,275,295,315,336,355,374,396,414,434,455,474,496,514,535,555,576,596,614,635,656,674,695,715,734,755,774,795,815,834,855,875,894,916,935,955,974,995,1016,1034,1054,1075,1095,1116,1135,1155,1175,1196,1215,1236,1255,1275,1294,1314,1335,1356,1375,1396,1415,1434,1456,1474,1495,1514,1535],"xSR":733.5,"ySR":461.5,"xT1":420.09999999999997,"yT1":0,"xT2":1046.8999999999999,"yT2":0,"toosoon":0,"cond_shown":"Incongruent","ratio_trial":300,"L_num":8,"L_den":10,"R_num":9,"R_den":18,"correct_side":1,"subjID":"CamiloMalaver39","gender":"0","school":"6","age":"11"},{"start_time":1551790148148,"click_time":1551790149584,"finger_time":1551790149404,"fix_duration":262.08117781254117,"trial":30,"RT":1256,"MT":180,"sideResp":2,"stimulus":[],"xmouse":[788,788,788,788,788,788,788,788,788,788,788,788,788,788,788,788,788,788,788,788,788,788,788,788,788,788,788,788,788,788,788,788,788,788,788,788,788,788,786,786,786,786,786,786,786,786,786,786,786,786,786,786,786,792,795,797,799,802,802,803,806,823,842,849,861,873,894,909,930,962,996,1077],"ymouse":[527,527,527,527,527,527,527,527,527,527,527,527,527,527,527,527,527,527,527,527,527,527,527,527,527,527,527,527,527,527,527,527,527,527,527,527,527,527,526,526,526,526,526,526,526,526,526,526,526,526,526,526,526,521,519,517,516,514,513,512,510,502,492,488,480,468,435,409,375,321,253,97],"timestamp_mouse":[16,36,56,76,95,117,136,156,176,196,217,237,255,275,296,315,336,355,377,396,416,436,455,477,497,517,535,557,575,597,616,636,655,676,696,716,736,756,775,795,816,836,856,877,896,915,937,956,976,997,1016,1036,1056,1075,1096,1115,1136,1156,1176,1196,1216,1235,1256,1276,1295,1315,1336,1356,1375,1396,1417,1435],"xSR":733.5,"ySR":461.5,"xT1":420.09999999999997,"yT1":0,"xT2":1046.8999999999999,"yT2":0,"toosoon":0,"cond_shown":"Congruent","ratio_trial":300,"L_num":1,"L_den":5,"R_num":6,"R_den":12,"correct_side":2,"subjID":"CamiloMalaver39","gender":"0","school":"6","age":"11"},{"start_time":1551790152541,"click_time":1551790154824,"finger_time":1551790154044,"fix_duration":1336.246409795645,"trial":31,"RT":1503,"MT":780,"sideResp":1,"stimulus":[],"xmouse":[776,776,776,776,776,776,776,776,776,776,776,776,776,776,776,776,776,776,776,776,776,776,776,776,776,776,776,776,776,776,776,776,776,776,776,776,776,776,776,776,776,776,776,776,776,776,776,776,775,772,771,770,770,770,770,770,770,770,770,770,770,770,770,770,770,770,770,770,770,770,770,770,770,767,761,744,724,658,637,628,626,626,625,621,616,602,590,555,532,511,494,487,480,476,472,469,468,468,467,466,465,465,464,462,462,462,462,462,462,462,461,461,461,461,461],"ymouse":[505,505,505,505,505,505,505,505,505,505,505,505,505,505,505,505,505,505,505,505,505,505,505,505,505,505,504,503,502,501,501,500,499,499,498,497,497,497,497,497,497,497,497,497,497,497,497,496,493,489,488,487,487,487,487,487,487,487,487,487,487,487,487,487,487,487,487,487,487,487,487,487,487,480,467,429,388,288,257,242,235,232,231,229,227,224,218,202,189,175,163,158,153,151,149,145,145,141,139,135,131,125,120,115,112,111,110,108,107,106,105,103,101,100,97],"timestamp_mouse":[9,24,42,63,84,104,122,144,163,183,204,222,242,264,282,303,322,343,362,384,402,424,443,463,482,504,522,543,562,583,604,624,643,664,683,703,723,742,764,783,804,824,843,863,884,902,924,944,963,982,1002,1023,1043,1062,1084,1102,1124,1143,1163,1183,1203,1223,1243,1263,1283,1303,1322,1342,1362,1383,1404,1423,1443,1463,1483,1503,1522,1543,1563,1583,1602,1623,1643,1664,1684,1703,1723,1743,1763,1783,1802,1824,1842,1862,1884,1904,1923,1943,1962,1984,2003,2023,2043,2064,2083,2104,2123,2144,2164,2183,2202,2222,2243,2263,2283],"xSR":733.5,"ySR":461.5,"xT1":420.09999999999997,"yT1":0,"xT2":1046.8999999999999,"yT2":0,"toosoon":0,"cond_shown":"Congruent","ratio_trial":100,"L_num":1,"L_den":2,"R_num":3,"R_den":5,"correct_side":2,"subjID":"CamiloMalaver39","gender":"0","school":"6","age":"11"},{"start_time":1551790158936,"click_time":1551790165368,"finger_time":1551790164687,"fix_duration":331.51654266944473,"trial":32,"RT":5751,"MT":681,"sideResp":2,"stimulus":[],"xmouse":[809,809,809,809,809,809,809,809,809,809,809,809,809,809,809,809,809,809,809,809,809,809,809,809,809,809,809,809,809,809,809,809,809,809,809,809,809,809,809,809,809,809,809,809,809,809,809,809,809,809,809,809,809,809,809,809,809,809,809,809,809,809,809,809,809,809,809,809,809,809,809,809,809,811,813,813,813,813,813,813,813,814,814,814,814,814,813,813,813,813,813,813,813,813,813,813,813,813,813,813,813,813,813,813,813,813,813,813,813,813,813,813,813,813,813,813,813,813,813,813,813,813,813,813,813,813,813,813,813,813,813,813,813,813,813,813,813,813,813,813,813,813,813,813,813,813,813,813,813,813,813,813,813,813,813,813,813,813,813,813,813,813,813,813,813,813,813,813,813,813,813,813,813,813,813,813,813,813,813,813,813,813,813,813,813,813,813,813,813,813,813,814,814,814,814,814,814,814,814,814,814,814,814,814,814,814,814,814,814,814,814,814,814,814,814,814,814,814,814,814,814,814,814,814,814,814,814,814,812,811,810,808,803,802,798,794,792,791,791,791,791,791,791,791,791,791,791,791,791,791,791,791,791,791,791,791,791,791,791,794,798,806,825,830,833,833,833,833,833,833,833,830,829,829,829,827,826,822,821,821,821,821,821,821,821,822,828,860,900,937,962,974,976,976,977,977,977,977,977,979,984,992,999,1001,1003,1005,1010,1020,1022,1023,1024,1026,1031,1035,1040,1049,1054,1060,1064,1065,1069,1071],"ymouse":[528,528,528,528,528,528,528,528,528,528,528,528,528,528,528,528,528,528,528,528,528,528,528,528,528,528,528,528,528,528,528,528,528,528,528,528,528,528,528,528,528,528,528,528,528,528,528,528,528,528,528,528,528,528,528,528,528,528,528,528,528,528,528,528,528,528,528,528,528,528,528,528,528,528,528,528,528,528,528,528,528,528,528,528,528,528,527,526,524,522,522,522,522,522,522,522,522,522,522,522,522,522,522,522,522,521,521,521,521,521,521,521,521,521,521,521,521,521,521,521,521,521,521,521,521,521,521,521,521,521,521,521,521,521,521,521,521,521,521,521,521,521,521,521,521,521,521,521,521,521,521,521,521,521,521,521,521,521,521,521,521,521,521,521,521,521,521,521,521,521,521,521,521,521,521,521,521,521,521,521,521,521,521,521,521,521,521,521,521,521,521,521,523,523,523,523,523,523,523,523,523,523,523,523,523,523,523,524,524,524,524,524,524,524,524,524,524,524,524,524,524,524,524,524,524,524,524,524,524,523,522,521,517,517,514,513,513,513,513,513,513,513,513,513,513,513,513,513,513,513,513,513,513,513,513,513,513,513,513,510,507,503,492,489,488,488,488,488,488,488,488,488,488,488,488,488,490,491,492,492,492,492,492,492,492,492,489,466,436,409,381,354,306,285,269,266,264,255,241,222,201,184,170,167,164,160,153,142,140,137,135,132,125,121,118,112,109,105,104,103,100,98],"timestamp_mouse":[8,28,47,67,87,108,128,147,167,189,208,228,247,267,288,308,328,348,368,389,408,429,448,469,487,508,528,547,569,589,607,628,649,667,689,707,729,749,768,788,809,828,848,868,889,907,928,949,967,989,1009,1028,1049,1067,1088,1107,1128,1147,1169,1189,1207,1229,1249,1267,1287,1308,1328,1349,1367,1389,1407,1427,1449,1468,1489,1509,1529,1548,1568,1589,1609,1628,1648,1669,1688,1708,1728,1748,1768,1788,1808,1827,1849,1868,1889,1908,1928,1948,1968,1988,2008,2028,2048,2068,2088,2107,2128,2147,2168,2187,2207,2228,2249,2268,2288,2308,2329,2347,2367,2388,2407,2427,2449,2468,2487,2509,2527,2549,2568,2588,2608,2627,2649,2667,2689,2707,2729,2749,2767,2788,2807,2829,2849,2867,2888,2908,2927,2948,2967,2987,3008,3028,3048,3069,3088,3108,3127,3149,3169,3188,3207,3228,3247,3268,3287,3309,3329,3348,3367,3388,3407,3429,3449,3468,3488,3509,3527,3549,3568,3588,3609,3629,3648,3669,3687,3708,3728,3747,3769,3789,3807,3828,3848,3867,3889,3908,3927,3949,3968,3988,4007,4028,4049,4069,4088,4108,4128,4149,4168,4187,4208,4228,4249,4267,4288,4308,4328,4351,4371,4392,4412,4430,4452,4470,4492,4512,4531,4552,4570,4590,4610,4630,4652,4671,4691,4711,4731,4750,4771,4790,4812,4830,4850,4872,4891,4912,4930,4952,4970,4991,5010,5030,5051,5070,5091,5111,5130,5150,5170,5192,5210,5231,5251,5272,5291,5310,5332,5350,5372,5390,5411,5430,5451,5470,5490,5510,5530,5551,5571,5591,5610,5632,5652,5671,5691,5711,5730,5751,5771,5791,5811,5830,5851,5872,5890,5911,5931,5952,5971,5991,6011,6031,6051,6072,6091,6112,6132,6151,6171,6191,6211,6230,6251,6270,6291,6312,6331,6351,6371,6390,6411,6432],"xSR":733.5,"ySR":461.5,"xT1":420.09999999999997,"yT1":0,"xT2":1046.8999999999999,"yT2":0,"toosoon":0,"cond_shown":"Incongruent","ratio_trial":200,"L_num":4,"L_den":6,"R_num":14,"R_den":30,"correct_side":1,"subjID":"CamiloMalaver39","gender":"0","school":"6","age":"11"},{"start_time":1551790167748,"click_time":1551790169286,"finger_time":1551790168586,"fix_duration":1241.4548701909273,"trial":33,"RT":838,"MT":700,"sideResp":1,"stimulus":[],"xmouse":[806,806,806,806,806,806,806,806,806,806,806,806,806,806,806,806,806,806,806,806,806,806,806,806,806,806,806,806,806,806,806,806,806,806,806,806,806,806,805,800,792,760,745,728,723,716,704,700,694,689,680,648,631,611,599,585,558,547,538,529,522,512,509,508,508,508,508,507,506,504,502,498,498,498,498,498,498],"ymouse":[488,488,488,488,488,488,488,488,488,488,488,488,488,488,488,488,488,488,488,488,488,488,488,488,488,488,488,488,488,488,488,488,488,488,488,488,488,488,485,482,475,460,452,442,439,438,436,435,433,429,422,398,386,363,343,322,285,266,247,227,210,179,168,155,151,145,129,122,118,113,110,106,106,106,104,101,94],"timestamp_mouse":[18,52,59,79,100,119,140,159,178,199,219,239,259,279,299,320,339,359,380,398,419,439,458,478,500,519,538,559,578,600,618,638,659,679,699,719,740,759,778,798,818,838,860,879,899,920,938,959,978,999,1019,1039,1059,1079,1098,1119,1138,1159,1179,1200,1219,1238,1259,1279,1298,1319,1338,1358,1378,1399,1419,1439,1459,1479,1498,1519,1538],"xSR":733.5,"ySR":461.5,"xT1":420.09999999999997,"yT1":0,"xT2":1046.8999999999999,"yT2":0,"toosoon":0,"cond_shown":"Congruent","ratio_trial":200,"L_num":16,"L_den":30,"R_num":9,"R_den":27,"correct_side":1,"subjID":"CamiloMalaver39","gender":"0","school":"6","age":"11"},{"start_time":1551790170862,"click_time":1551790172327,"finger_time":1551790171927,"fix_duration":574.7231012437862,"trial":34,"RT":1065,"MT":400,"sideResp":2,"stimulus":[],"xmouse":[782,782,782,782,782,782,782,782,782,782,782,782,782,782,782,782,782,782,782,782,782,782,782,782,782,782,782,782,782,782,782,782,782,782,782,782,782,782,782,782,782,782,782,782,782,782,782,782,783,785,791,815,830,849,877,906,927,928,928,929,929,930,934,938,945,955,980,990,1001,1018,1035,1072,1091,1107],"ymouse":[499,499,499,499,499,500,502,503,504,505,506,507,507,507,507,507,507,507,507,507,507,507,507,507,507,507,507,507,507,507,507,507,507,507,507,507,507,507,507,507,507,507,507,507,507,507,507,507,508,506,501,484,470,448,409,368,314,295,292,282,276,258,246,234,223,210,179,167,157,143,133,112,101,95],"timestamp_mouse":[11,24,46,65,84,106,124,145,166,185,204,226,245,266,285,305,325,345,364,385,405,425,445,465,484,505,525,544,565,584,606,625,645,665,684,706,725,744,765,784,805,825,844,865,885,905,925,944,965,985,1006,1025,1045,1065,1085,1105,1125,1144,1164,1185,1206,1225,1245,1264,1286,1306,1325,1345,1365,1384,1404,1425,1445,1465],"xSR":733.5,"ySR":461.5,"xT1":420.09999999999997,"yT1":0,"xT2":1046.8999999999999,"yT2":0,"toosoon":0,"cond_shown":"Congruent","ratio_trial":300,"L_num":2,"L_den":20,"R_num":10,"R_den":25,"correct_side":2,"subjID":"CamiloMalaver39","gender":"0","school":"6","age":"11"},{"start_time":1551790174181,"click_time":1551790176227,"finger_time":1551790175926,"fix_duration":892.6286392038,"trial":35,"RT":1745,"MT":301,"sideResp":2,"stimulus":[],"xmouse":[805,805,805,805,805,805,805,805,805,805,805,805,805,805,805,805,805,805,805,805,805,805,805,805,805,805,805,805,805,805,805,805,805,805,805,805,805,805,805,805,805,805,805,805,805,805,805,805,805,805,805,805,805,805,805,805,805,805,805,805,805,805,805,805,805,805,805,805,805,805,805,805,805,805,805,805,805,805,805,805,805,805,805,805,806,817,828,840,859,881,920,1029,1059,1065,1066,1072,1081,1089,1095,1099,1107,1114,1117],"ymouse":[509,509,509,509,509,509,509,509,509,509,509,509,509,509,509,509,509,509,509,509,509,509,509,509,509,509,509,509,509,509,509,509,509,509,509,509,509,509,509,509,509,509,509,509,509,509,509,509,509,509,509,509,509,509,509,509,509,509,509,509,509,509,509,509,509,509,509,509,509,509,509,509,509,509,509,509,509,509,509,509,509,509,509,509,509,498,488,478,460,434,389,276,225,199,185,166,155,148,141,136,121,101,84],"timestamp_mouse":[10,37,46,67,87,106,127,145,167,186,205,225,247,265,287,305,326,346,366,385,405,425,446,466,486,506,527,547,566,586,605,627,646,667,686,705,725,746,766,787,805,826,846,866,887,906,927,947,965,987,1006,1026,1046,1066,1087,1105,1127,1145,1167,1187,1207,1227,1247,1265,1286,1306,1326,1347,1365,1386,1406,1426,1447,1466,1485,1507,1526,1546,1566,1587,1605,1626,1646,1667,1686,1706,1726,1745,1766,1785,1805,1825,1845,1867,1885,1905,1925,1946,1966,1985,2006,2025,2046],"xSR":733.5,"ySR":461.5,"xT1":420.09999999999997,"yT1":0,"xT2":1046.8999999999999,"yT2":0,"toosoon":0,"cond_shown":"Incongruent","ratio_trial":200,"L_num":14,"L_den":30,"R_num":12,"R_den":18,"correct_side":2,"subjID":"CamiloMalaver39","gender":"0","school":"6","age":"11"},{"start_time":1551790178892,"click_time":1551790180686,"finger_time":1551790179786,"fix_duration":1404.9357326205127,"trial":36,"RT":894,"MT":900,"sideResp":1,"stimulus":[],"xmouse":[764,764,764,764,764,764,764,764,764,764,764,765,765,765,765,765,765,765,765,765,765,765,765,765,765,765,765,765,765,765,765,765,765,765,765,765,765,765,765,765,765,766,766,767,771,771,761,756,752,751,751,751,751,751,751,751,751,751,750,745,739,730,717,703,686,653,641,636,634,630,629,623,618,613,594,580,562,558,554,550,545,542,541,541,541,540,533,527,523,520],"ymouse":[494,494,494,494,494,494,494,494,494,494,494,494,494,494,494,494,494,494,494,494,494,494,494,494,494,494,494,494,494,494,494,494,494,494,494,494,494,494,493,493,491,490,487,481,452,412,347,321,307,303,303,303,303,303,303,303,303,301,300,291,281,266,250,233,213,178,166,162,160,157,157,155,151,147,138,127,111,102,95,88,84,82,81,81,81,81,81,82,83,83],"timestamp_mouse":[17,49,55,74,101,115,136,154,174,195,214,236,255,276,295,314,336,354,375,394,414,436,456,475,495,514,535,555,575,595,616,636,654,674,696,716,735,756,774,795,815,836,855,874,894,915,934,955,974,996,1015,1034,1055,1076,1095,1115,1134,1156,1174,1194,1215,1234,1254,1275,1294,1315,1335,1355,1374,1395,1415,1435,1455,1476,1494,1516,1535,1556,1576,1594,1615,1634,1655,1675,1695,1715,1734,1755,1776,1794],"xSR":733.5,"ySR":461.5,"xT1":420.09999999999997,"yT1":0,"xT2":1046.8999999999999,"yT2":0,"toosoon":0,"cond_shown":"Congruent","ratio_trial":300,"L_num":24,"L_den":30,"R_num":8,"R_den":16,"correct_side":1,"subjID":"CamiloMalaver39","gender":"0","school":"6","age":"11"},{"start_time":1551790183050,"click_time":1551790184907,"finger_time":1551790184426,"fix_duration":961.7294359733978,"trial":37,"RT":1376,"MT":481,"sideResp":1,"stimulus":[],"xmouse":[769,769,769,769,769,769,769,769,769,769,769,769,769,769,769,769,769,769,769,769,769,769,769,769,769,769,769,769,769,769,769,769,769,769,769,769,769,769,769,768,768,768,768,768,768,768,768,768,768,768,768,768,768,768,768,768,768,768,768,768,768,768,768,766,766,765,761,755,735,714,695,669,658,642,624,602,558,546,537,532,529,522,518,513,510,509,508,507,504,498,491,486,486],"ymouse":[493,493,493,493,493,493,493,493,493,493,493,493,493,493,493,493,493,493,493,493,493,493,493,493,493,493,493,493,493,493,493,493,493,493,493,493,493,493,493,493,493,493,493,493,493,493,493,493,493,493,493,493,493,493,493,493,493,493,493,493,493,493,493,492,490,489,476,464,438,415,396,367,351,333,311,287,242,227,212,201,193,177,166,156,150,147,146,144,137,125,113,101,99],"timestamp_mouse":[17,37,57,77,96,116,137,157,178,197,216,237,258,276,296,318,336,358,377,397,416,438,456,477,497,517,538,556,578,597,616,638,657,676,696,716,736,756,778,797,818,836,856,878,896,917,937,956,976,998,1017,1037,1056,1078,1096,1117,1136,1157,1178,1197,1217,1237,1257,1277,1297,1317,1336,1357,1376,1398,1416,1437,1456,1477,1497,1516,1537,1557,1577,1597,1616,1638,1657,1676,1697,1717,1737,1757,1776,1797,1817,1836,1857],"xSR":733.5,"ySR":461.5,"xT1":420.09999999999997,"yT1":0,"xT2":1046.8999999999999,"yT2":0,"toosoon":0,"cond_shown":"Incongruent","ratio_trial":300,"L_num":4,"L_den":5,"R_num":6,"R_den":12,"correct_side":1,"subjID":"CamiloMalaver39","gender":"0","school":"6","age":"11"},{"start_time":1551790186196,"click_time":1551790188047,"finger_time":1551790187627,"fix_duration":308.49203415545634,"trial":38,"RT":1431,"MT":420,"sideResp":2,"stimulus":[],"xmouse":[763,763,763,763,763,763,763,763,763,763,763,763,763,763,763,763,763,763,763,763,763,763,763,763,763,763,763,763,763,763,763,763,763,763,763,763,763,763,763,763,763,763,763,763,763,763,763,763,763,763,763,763,763,763,763,764,766,766,766,766,766,766,766,766,767,769,772,774,781,811,830,844,867,880,906,916,923,931,937,943,949,951,951,955,960,963,967,976,999,1033,1040,1045,1048],"ymouse":[512,512,512,512,512,512,512,512,512,512,512,512,512,512,512,512,512,512,512,512,512,512,512,512,512,512,512,512,512,512,512,512,512,512,512,512,512,512,512,512,512,512,512,512,512,512,512,512,512,512,512,512,512,512,512,512,512,512,512,512,512,512,512,512,512,512,511,509,505,492,478,467,442,421,366,342,330,322,315,304,294,288,280,269,246,236,224,200,153,77,55,39,33],"timestamp_mouse":[11,41,50,72,90,112,130,152,170,191,212,230,251,271,290,311,332,350,370,390,412,430,450,471,491,512,531,552,570,590,612,631,652,671,690,710,731,750,771,792,811,831,852,871,891,912,930,952,970,992,1011,1031,1052,1070,1091,1111,1131,1152,1171,1192,1211,1232,1251,1270,1291,1310,1330,1351,1371,1392,1411,1431,1451,1471,1491,1511,1530,1551,1570,1590,1611,1630,1651,1672,1691,1711,1730,1750,1770,1791,1812,1831,1851],"xSR":733.5,"ySR":461.5,"xT1":420.09999999999997,"yT1":0,"xT2":1046.8999999999999,"yT2":0,"toosoon":0,"cond_shown":"Incongruent","ratio_trial":300,"L_num":13,"L_den":26,"R_num":12,"R_den":15,"correct_side":2,"subjID":"CamiloMalaver39","gender":"0","school":"6","age":"11"},{"start_time":1551790189277,"click_time":1551790191207,"finger_time":1551790190707,"fix_duration":250,"trial":39,"RT":1430,"MT":500,"sideResp":1,"stimulus":[],"xmouse":[795,795,795,795,795,795,795,795,795,795,795,795,795,795,795,795,795,795,795,795,795,795,795,795,795,795,795,795,794,794,794,794,794,794,794,794,794,794,794,794,794,794,794,794,794,794,794,794,794,794,794,794,794,794,794,794,794,794,794,794,794,794,794,794,794,794,794,794,794,791,774,758,737,719,703,663,641,621,607,606,605,602,592,581,572,564,561,555,550,545,538,536,534,529,523,507,497],"ymouse":[523,523,523,523,523,523,523,523,523,523,523,523,523,523,523,523,523,523,523,523,523,523,523,523,523,523,523,523,524,524,524,524,524,524,524,524,524,524,524,524,524,524,524,524,524,524,524,524,524,524,524,524,524,524,524,524,524,524,524,524,524,524,524,524,524,524,522,518,512,503,473,445,414,390,370,327,313,298,290,289,288,284,271,255,241,225,219,198,183,168,153,148,145,139,131,103,84],"timestamp_mouse":[11,29,49,70,90,110,130,150,170,190,209,231,249,270,289,311,330,351,371,391,411,430,449,470,490,509,529,550,570,590,610,630,651,669,689,709,730,750,771,789,809,829,851,870,891,910,930,949,969,991,1010,1030,1050,1069,1091,1109,1129,1149,1170,1191,1209,1229,1249,1270,1290,1309,1330,1350,1370,1390,1410,1430,1449,1470,1489,1510,1531,1549,1570,1590,1609,1630,1650,1670,1689,1710,1730,1750,1770,1790,1810,1830,1850,1870,1890,1910,1930],"xSR":733.5,"ySR":461.5,"xT1":420.09999999999997,"yT1":0,"xT2":1046.8999999999999,"yT2":0,"toosoon":0,"cond_shown":"Congruent","ratio_trial":200,"L_num":9,"L_den":20,"R_num":4,"R_den":16,"correct_side":1,"subjID":"CamiloMalaver39","gender":"0","school":"6","age":"11"},{"start_time":1551790193658,"click_time":1551790196047,"finger_time":1551790195128,"fix_duration":1370.7307327798196,"trial":40,"RT":1470,"MT":919,"sideResp":1,"stimulus":[],"xmouse":[764,764,764,764,764,764,764,764,764,764,764,764,764,764,764,764,764,764,764,764,764,764,764,764,764,764,764,764,764,764,764,764,764,764,764,764,764,764,764,764,764,764,764,764,764,764,764,764,764,764,764,764,764,764,764,764,764,765,765,765,765,765,765,765,765,765,765,765,765,766,766,765,764,761,754,743,718,697,672,660,656,653,649,645,641,636,624,616,605,588,576,564,563,563,563,563,563,563,563,563,563,563,563,561,558,552,531,518,516,514,514,513,513,513,513,513,513,514,518,518],"ymouse":[476,476,476,476,476,476,476,476,476,476,476,476,476,476,476,476,476,476,476,476,476,476,476,476,476,476,476,476,476,476,476,476,476,476,476,476,476,476,476,476,476,476,476,476,476,476,476,476,476,476,476,476,476,476,476,476,476,476,476,476,476,476,476,476,476,476,476,476,476,476,475,472,467,458,440,418,365,335,303,288,282,278,276,275,273,272,266,260,253,244,237,230,229,229,229,229,229,229,229,229,229,229,229,227,223,212,181,160,156,149,145,140,139,137,135,132,122,115,105,99],"timestamp_mouse":[8,42,50,69,88,110,128,148,168,188,209,228,248,270,289,308,330,348,370,388,408,429,448,470,488,509,529,550,568,588,608,629,648,670,689,709,728,749,769,788,809,828,849,868,888,909,928,949,969,988,1009,1029,1050,1068,1088,1109,1128,1150,1169,1190,1209,1229,1248,1270,1288,1310,1328,1348,1369,1388,1408,1429,1449,1470,1489,1508,1529,1549,1569,1589,1609,1629,1648,1669,1689,1710,1728,1748,1769,1789,1810,1829,1850,1869,1888,1909,1930,1949,1968,1989,2009,2029,2049,2069,2089,2110,2129,2148,2169,2190,2210,2228,2248,2269,2289,2308,2329,2349,2369,2389],"xSR":733.5,"ySR":461.5,"xT1":420.09999999999997,"yT1":0,"xT2":1046.8999999999999,"yT2":0,"toosoon":0,"cond_shown":"Incongruent","ratio_trial":200,"L_num":7,"L_den":15,"R_num":4,"R_den":6,"correct_side":2,"subjID":"CamiloMalaver39","gender":"0","school":"6","age":"11"},{"start_time":1551790197798,"click_time":1551790199987,"finger_time":1551790199267,"fix_duration":728.5374249855107,"trial":41,"RT":1469,"MT":720,"sideResp":1,"stimulus":[],"xmouse":[764,764,764,764,764,764,764,764,764,764,764,764,764,764,764,764,764,764,764,764,764,764,764,764,764,764,764,764,764,764,764,764,763,763,763,763,763,763,763,763,763,762,762,762,762,762,762,762,761,761,761,760,760,760,760,760,759,759,759,759,759,759,759,759,759,759,759,759,759,754,753,749,739,733,706,686,672,663,660,660,660,660,660,660,660,660,660,660,659,652,641,627,592,564,526,520,514,511,511,511,511,511,511,511,511,511,511,511,511,509],"ymouse":[515,515,515,515,515,515,515,515,515,515,515,515,515,515,515,515,515,515,515,515,515,515,515,515,515,515,515,515,515,515,515,515,515,515,515,515,515,515,515,515,515,515,515,515,515,515,515,515,515,515,515,515,514,514,514,514,513,512,511,511,511,511,510,510,510,510,508,506,505,496,492,485,472,461,413,383,364,352,347,347,347,347,347,347,347,347,347,347,347,324,304,281,235,199,137,120,106,101,101,101,101,101,101,101,101,101,101,101,101,99],"timestamp_mouse":[9,28,48,69,88,109,128,149,170,188,210,229,248,269,288,309,329,349,370,389,408,429,448,469,490,508,529,549,569,589,610,630,648,668,690,708,730,748,770,788,810,829,848,870,889,909,929,949,970,988,1009,1030,1050,1070,1088,1109,1130,1149,1168,1188,1208,1228,1249,1268,1288,1309,1329,1349,1370,1389,1409,1428,1449,1469,1489,1509,1529,1549,1568,1590,1610,1629,1648,1668,1689,1709,1729,1749,1769,1789,1808,1828,1850,1869,1889,1909,1928,1948,1968,1989,2010,2030,2049,2069,2090,2109,2129,2149,2169,2188],"xSR":733.5,"ySR":461.5,"xT1":420.09999999999997,"yT1":0,"xT2":1046.8999999999999,"yT2":0,"toosoon":0,"cond_shown":"Congruent","ratio_trial":100,"L_num":6,"L_den":20,"R_num":5,"R_den":25,"correct_side":1,"subjID":"CamiloMalaver39","gender":"0","school":"6","age":"11"},{"start_time":1551790201444,"click_time":1551790204187,"finger_time":1551790203927,"fix_duration":316.7010496838546,"trial":42,"RT":2483,"MT":260,"sideResp":1,"stimulus":[],"xmouse":[787,787,787,787,787,787,787,787,787,787,787,787,787,787,787,787,787,787,787,787,787,787,787,787,787,787,787,787,787,787,787,787,787,787,787,787,787,787,787,787,787,787,787,787,787,787,787,787,787,787,787,787,787,787,787,787,787,787,787,787,787,787,787,787,787,787,787,787,787,787,787,787,787,787,787,787,787,787,787,787,787,787,787,787,787,787,787,787,787,787,787,787,787,787,787,787,787,787,787,787,787,787,787,787,787,787,787,787,787,787,787,787,787,787,787,787,787,787,787,787,785,782,770,765,752,736,717,686,677,667,659,648,622,607,592,576,556,512],"ymouse":[517,517,517,517,517,517,517,517,517,517,517,517,517,517,517,517,517,517,517,517,517,517,517,517,517,517,517,517,517,517,517,517,517,517,517,517,517,517,517,517,517,517,517,517,517,517,517,517,517,517,517,517,517,517,517,517,517,517,517,517,517,517,517,517,517,517,516,513,513,512,512,512,512,512,512,512,512,512,512,511,510,509,507,507,507,507,507,507,507,507,507,507,507,507,507,507,507,507,507,507,507,507,507,507,507,507,507,507,507,507,507,507,507,507,507,507,507,507,507,505,500,495,478,471,455,433,405,358,344,319,299,278,237,216,192,168,140,81],"timestamp_mouse":[9,24,43,63,83,102,123,143,162,183,203,222,244,262,284,303,324,342,362,382,404,422,443,462,483,503,522,543,562,584,602,624,644,664,684,702,723,743,762,783,804,822,842,864,882,903,923,943,964,983,1003,1022,1043,1064,1082,1104,1123,1143,1164,1182,1203,1222,1243,1262,1283,1302,1324,1342,1362,1383,1403,1422,1442,1463,1483,1503,1523,1543,1564,1582,1603,1623,1643,1662,1684,1703,1723,1744,1762,1783,1803,1822,1843,1863,1882,1903,1924,1943,1963,1982,2003,2023,2044,2064,2082,2103,2122,2143,2162,2183,2203,2222,2244,2262,2283,2303,2324,2344,2362,2383,2404,2424,2443,2462,2483,2502,2523,2542,2564,2583,2603,2623,2644,2663,2683,2703,2722,2743],"xSR":733.5,"ySR":461.5,"xT1":420.09999999999997,"yT1":0,"xT2":1046.8999999999999,"yT2":0,"toosoon":0,"cond_shown":"Incongruent","ratio_trial":300,"L_num":3,"L_den":6,"R_num":4,"R_den":20,"correct_side":1,"subjID":"CamiloMalaver39","gender":"0","school":"6","age":"11"},{"start_time":1551790206222,"click_time":1551790208027,"finger_time":1551790207587,"fix_duration":514.2254440079565,"trial":43,"RT":1365,"MT":440,"sideResp":1,"stimulus":[],"xmouse":[757,757,757,757,757,757,757,757,757,757,757,757,757,757,757,757,757,757,757,757,757,757,757,757,757,757,757,757,757,757,757,757,757,757,757,757,757,757,757,757,757,757,757,757,757,757,757,757,757,757,757,757,757,757,757,757,757,757,757,757,757,757,757,757,757,757,757,758,758,758,758,741,720,664,642,629,615,602,577,565,553,550,548,546,538,531,522,512,494,483,468],"ymouse":[469,469,469,469,469,469,469,469,469,469,469,469,469,469,469,469,469,469,469,469,469,469,469,469,469,469,469,469,469,469,469,469,469,469,469,469,469,469,469,469,469,469,469,469,469,469,469,469,469,469,469,469,469,469,469,469,469,469,469,469,469,469,469,469,469,469,469,465,457,446,432,399,373,308,282,264,246,230,212,207,199,196,195,192,185,177,166,157,136,122,99],"timestamp_mouse":[8,24,44,65,86,105,124,146,166,184,204,225,246,265,284,306,326,344,366,384,406,426,445,466,486,504,526,544,564,586,606,625,645,665,684,706,725,746,765,786,806,825,845,866,884,905,925,946,964,985,1004,1025,1046,1066,1085,1106,1124,1146,1165,1186,1205,1226,1244,1265,1285,1305,1325,1346,1365,1385,1404,1424,1445,1465,1484,1506,1524,1544,1564,1585,1605,1624,1646,1665,1685,1704,1725,1744,1765,1785,1805],"xSR":733.5,"ySR":461.5,"xT1":420.09999999999997,"yT1":0,"xT2":1046.8999999999999,"yT2":0,"toosoon":0,"cond_shown":"Congruent","ratio_trial":100,"L_num":10,"L_den":25,"R_num":3,"R_den":10,"correct_side":1,"subjID":"CamiloMalaver39","gender":"0","school":"6","age":"11"},{"start_time":1551790210763,"click_time":1551790212627,"finger_time":1551790212166,"fix_duration":1315.6847664645695,"trial":44,"RT":1403,"MT":461,"sideResp":2,"stimulus":[],"xmouse":[774,774,774,774,774,774,774,774,774,774,774,774,774,774,774,774,774,774,774,774,774,774,774,774,774,774,774,774,774,774,774,774,774,774,774,774,774,774,774,774,774,774,774,774,774,774,774,774,774,774,774,774,774,774,774,774,774,774,774,774,774,774,774,774,774,774,782,786,792,799,810,855,875,898,906,914,932,942,957,975,994,1062,1118,1135,1139,1140,1140,1140,1140,1140,1140,1140,1135,1127],"ymouse":[513,513,513,513,513,513,513,513,513,513,513,513,513,513,513,513,513,513,513,513,513,513,513,513,513,513,513,513,513,513,513,513,513,513,513,513,513,513,513,513,513,513,513,513,513,513,513,513,513,513,513,513,513,513,513,513,513,513,513,513,513,513,513,513,513,514,507,500,487,463,425,336,302,256,237,219,188,176,167,161,157,147,134,124,120,116,115,115,115,115,113,113,104,92],"timestamp_mouse":[11,40,44,65,85,105,125,144,164,184,203,224,244,263,284,304,324,345,365,384,404,424,443,463,484,504,523,544,563,585,604,625,643,663,685,704,724,743,763,783,804,824,845,865,883,904,924,945,965,985,1003,1024,1045,1063,1084,1103,1123,1145,1163,1183,1204,1224,1243,1264,1283,1303,1323,1344,1364,1384,1403,1424,1444,1464,1485,1505,1523,1544,1564,1585,1603,1624,1645,1664,1684,1704,1724,1745,1764,1784,1804,1824,1844,1864],"xSR":733.5,"ySR":461.5,"xT1":420.09999999999997,"yT1":0,"xT2":1046.8999999999999,"yT2":0,"toosoon":0,"cond_shown":"Incongruent","ratio_trial":300,"L_num":13,"L_den":26,"R_num":12,"R_den":15,"correct_side":2,"subjID":"CamiloMalaver39","gender":"0","school":"6","age":"11"},{"start_time":1551790215103,"click_time":1551790216747,"finger_time":1551790216226,"fix_duration":1314.9161947372793,"trial":45,"RT":1123,"MT":521,"sideResp":1,"stimulus":[],"xmouse":[817,817,817,817,817,817,817,817,817,817,817,817,817,817,817,817,817,817,817,817,817,817,817,817,817,817,817,817,817,817,817,817,817,817,817,817,817,817,817,817,817,817,817,817,817,817,817,813,809,799,795,792,787,780,756,737,6