[{"start_time":1551801389041,"click_time":1551801390545,"finger_time":1551801390166,"fix_duration":250,"trial":0,"RT":1125,"MT":379,"sideResp":2,"stimulus":"img/750/randomdotsizeEA/L/8_Ratio_750_L_4_R_3.png","xmouse":[754,754,754,754,754,754,754,754,754,754,754,754,754,754,754,754,754,754,754,754,754,754,754,754,754,754,754,754,754,754,754,754,754,754,754,754,754,754,754,754,754,754,754,754,754,754,754,754,754,754,754,754,754,754,754,767,800,833,859,876,904,909,915,921,927,949,961,967,968,968,968,973,989,1011,1031,1060],"ymouse":[553,553,553,553,553,553,553,553,553,553,553,553,553,553,553,553,553,553,553,553,553,553,553,553,553,553,553,553,553,553,553,553,553,553,553,553,553,553,553,553,553,553,553,553,553,553,553,553,553,553,553,553,553,553,553,526,445,375,323,291,228,209,192,179,168,143,131,126,125,125,125,123,119,111,104,88],"timestamp_mouse":[8,31,44,65,84,105,124,144,163,185,205,225,245,265,283,304,325,344,365,383,405,424,445,464,485,505,524,545,564,585,605,623,645,665,685,705,724,745,765,785,804,824,844,865,884,903,925,944,964,984,1005,1024,1044,1064,1085,1104,1125,1145,1165,1185,1204,1224,1245,1264,1284,1304,1324,1344,1365,1385,1405,1424,1445,1464,1484,1504],"xSR":741.5,"ySR":469.95,"xT1":424.9,"yT1":0,"xT2":1058.1,"yT2":0,"toosoon":0,"cond_shown":"randomdotsizeEA","ratio_trial":750,"smaller_num":"3","larger_num":"4","correct_side":1,"subjID":"CAROLCASTILLO32","gender":"1","age":"10","school":"6","test":{"fix_dur":[250,1500],"timestim":300,"targets_dim":[100,100],"targets_relative_coord":[0.3,0.7],"size_stim":[880,420],"start_dim":[100,100],"size_start":[300,300],"size_fix":60,"samplingrate":20,"img_types":["equaldotsize","equaldotanddens","randomdotsizeEA"],"ratios":[250,500,750,900],"rep_conds":9,"nTrials":120,"trials_to_rest":500,"Trials_order":[116,17,38,79,25,60,71,34,104,66,40,89,99,59,45,52,8,15,41,18,75,55,14,6,47,67,90,58,24,33,93,74,49,113,63,43,94,62,86,69,7,61,54,100,35,76,65,95,110,68,50,78,3,64,1,109,48,96,112,44,83,9,107,28,2,30,27,56,46,70,73,5,32,21,77,80,111,101,31,87,42,108,82,114,16,97,11,81,0,98,105,57,19,20,26,102,22,12,106,117,39,92,51,53,23,29,118,119,85,88,84,115,4,36,72,13,91,37,103,10],"cond_shown":["randomdotsizeEA","randomdotsizeEA","randomdotsizeEA","equaldotanddens","equaldotanddens","equaldotsize","randomdotsizeEA","equaldotanddens","randomdotsizeEA","equaldotsize","equaldotanddens","randomdotsizeEA","equaldotsize","randomdotsizeEA","equaldotsize","equaldotanddens","randomdotsizeEA","equaldotsize","randomdotsizeEA","equaldotsize","equaldotsize","equaldotanddens","randomdotsizeEA","equaldotsize","randomdotsizeEA","equaldotanddens","equaldotsize","equaldotanddens","equaldotsize","equaldotsize","equaldotsize","randomdotsizeEA","equaldotanddens","randomdotsizeEA","equaldotsize","equaldotanddens","equaldotanddens","randomdotsizeEA","randomdotsizeEA","equaldotsize","equaldotanddens","equaldotanddens","equaldotsize","equaldotanddens","randomdotsizeEA","equaldotanddens","randomdotsizeEA","randomdotsizeEA","randomdotsizeEA","randomdotsizeEA","randomdotsizeEA","equaldotsize","equaldotsize","equaldotanddens","equaldotanddens","equaldotanddens","equaldotsize","equaldotsize","equaldotanddens","randomdotsizeEA","randomdotsizeEA","equaldotsize","randomdotsizeEA","equaldotanddens","randomdotsizeEA","equaldotsize","equaldotsize","randomdotsizeEA","equaldotanddens","equaldotanddens","equaldotanddens","randomdotsizeEA","randomdotsizeEA","equaldotsize","randomdotsizeEA","randomdotsizeEA","equaldotsize","randomdotsizeEA","equaldotanddens","equaldotsize","equaldotsize","equaldotsize","equaldotanddens","equaldotsize","equaldotanddens","equaldotanddens","randomdotsizeEA","equaldotsize","equaldotsize","randomdotsizeEA","equaldotsize","equaldotsize","equaldotanddens","randomdotsizeEA","randomdotsizeEA","equaldotsize","equaldotanddens","equaldotsize","equaldotanddens","equaldotsize","equaldotsize","randomdotsizeEA","equaldotsize","randomdotsizeEA","randomdotsizeEA","randomdotsizeEA","equaldotanddens","randomdotsizeEA","equaldotanddens","equaldotanddens","equaldotsize","equaldotanddens","equaldotanddens","equaldotsize","equaldotsize","equaldotanddens","equaldotanddens","equaldotanddens","equaldotanddens","equaldotanddens"],"ratio_trial":[750,500,250,750,250,250,900,900,750,750,500,500,500,900,900,500,750,500,500,750,500,750,250,750,900,750,750,900,250,900,900,250,250,500,500,750,900,250,250,900,750,250,750,500,900,500,500,900,250,750,250,750,500,500,250,250,250,250,500,750,900,900,900,500,250,750,500,750,900,900,250,500,750,900,500,750,500,500,750,500,750,250,900,750,500,250,900,900,250,250,900,900,750,750,250,750,900,250,900,900,500,750,500,500,900,500,900,900,250,500,250,750,500,250,250,250,750,250,750,900],"smaller_num":["3","1","6","15","4","3","9","9","15","15","3","5","1","18","9","4","3","2","2","18","3","3","2","15","18","3","18","9","3","18","18","2","4","6","2","3","18","6","5","18","3","2","15","6","18","3","6","18","2","3","3","3","6","6","3","6","4","3","2","6","18","9","9","5","3","6","9","15","18","18","2","6","3","9","6","18","5","5","6","4","6","2","9","15","6","3","18","18","2","3","18","18","15","3","2","3","9","1","18","18","2","6","9","9","18","2","18","9","4","2","4","9","5","2","3","2","3","3","12","18"],"larger_num":["4","2","24","20","16","12","10","10","20","20","6","10","2","20","10","8","4","4","4","24","6","4","8","20","20","4","24","10","12","20","20","8","16","12","4","4","20","24","20","20","4","8","20","12","20","6","12","20","8","4","12","4","12","12","12","24","16","12","4","8","20","10","10","10","12","8","18","20","20","20","8","12","4","10","12","24","10","10","8","8","8","8","10","20","12","12","20","20","8","12","20","20","20","4","8","4","10","4","20","20","4","8","18","18","20","4","20","10","16","4","16","12","10","8","12","8","4","12","16","20"],"correct_side":[1,2,1,2,2,2,2,2,2,1,2,1,2,1,2,1,1,2,1,1,2,2,1,1,2,2,1,1,1,2,2,1,2,1,1,1,2,1,2,1,1,1,2,1,2,2,1,1,1,2,1,2,1,1,2,1,1,2,2,1,1,2,1,1,1,1,2,2,2,1,1,1,1,1,1,1,1,2,1,1,1,1,2,1,1,2,1,1,1,1,2,2,2,2,1,1,1,2,2,1,1,1,1,2,2,1,1,1,1,2,1,2,2,1,1,1,1,2,2,1],"img_shown":["img/750/randomdotsizeEA/L/8_Ratio_750_L_4_R_3.png","img/500/randomdotsizeEA/R/15_Ratio_500_L_1_R_2.png","img/250/randomdotsizeEA/L/5_Ratio_250_L_24_R_6.png","img/750/equaldotanddens/R/3_Ratio_750_L_15_R_20.png","img/250/equaldotanddens/R/10_Ratio_250_L_4_R_16.png","img/250/equaldotsize/R/9_Ratio_250_L_3_R_12.png","img/900/randomdotsizeEA/R/6_Ratio_900_L_9_R_10.png","img/900/equaldotanddens/R/5_Ratio_900_L_9_R_10.png","img/750/randomdotsizeEA/R/4_Ratio_750_L_15_R_20.png","img/750/equaldotsize/L/1_Ratio_750_L_20_R_15.png","img/500/equaldotanddens/R/2_Ratio_500_L_3_R_6.png","img/500/randomdotsizeEA/L/7_Ratio_500_L_10_R_5.png","img/500/equaldotsize/R/15_Ratio_500_L_1_R_2.png","img/900/randomdotsizeEA/L/10_Ratio_900_L_20_R_18.png","img/900/equaldotsize/R/3_Ratio_900_L_9_R_10.png","img/500/equaldotanddens/L/8_Ratio_500_L_8_R_4.png","img/750/randomdotsizeEA/L/9_Ratio_750_L_4_R_3.png","img/500/equaldotsize/R/9_Ratio_500_L_2_R_4.png","img/500/randomdotsizeEA/L/10_Ratio_500_L_4_R_2.png","img/750/equaldotsize/L/6_Ratio_750_L_24_R_18.png","img/500/equaldotsize/R/2_Ratio_500_L_3_R_6.png","img/750/equaldotanddens/R/12_Ratio_750_L_3_R_4.png","img/250/randomdotsizeEA/L/7_Ratio_250_L_8_R_2.png","img/750/equaldotsize/L/1_Ratio_750_L_20_R_15.png","img/900/randomdotsizeEA/R/11_Ratio_900_L_18_R_20.png","img/750/equaldotanddens/R/12_Ratio_750_L_3_R_4.png","img/750/equaldotsize/L/6_Ratio_750_L_24_R_18.png","img/900/equaldotanddens/L/1_Ratio_900_L_10_R_9.png","img/250/equaldotsize/L/15_Ratio_250_L_12_R_3.png","img/900/equaldotsize/R/12_Ratio_900_L_18_R_20.png","img/900/equaldotsize/R/14_Ratio_900_L_18_R_20.png","img/250/randomdotsizeEA/L/1_Ratio_250_L_8_R_2.png","img/250/equaldotanddens/R/10_Ratio_250_L_4_R_16.png","img/500/randomdotsizeEA/L/13_Ratio_500_L_12_R_6.png","img/500/equaldotsize/L/10_Ratio_500_L_4_R_2.png","img/750/equaldotanddens/L/8_Ratio_750_L_4_R_3.png","img/900/equaldotanddens/R/13_Ratio_900_L_18_R_20.png","img/250/randomdotsizeEA/L/5_Ratio_250_L_24_R_6.png","img/250/randomdotsizeEA/R/12_Ratio_250_L_5_R_20.png","img/900/equaldotsize/L/4_Ratio_900_L_20_R_18.png","img/750/equaldotanddens/L/10_Ratio_750_L_4_R_3.png","img/250/equaldotanddens/L/1_Ratio_250_L_8_R_2.png","img/750/equaldotsize/R/5_Ratio_750_L_15_R_20.png","img/500/equaldotanddens/L/13_Ratio_500_L_12_R_6.png","img/900/randomdotsizeEA/R/9_Ratio_900_L_18_R_20.png","img/500/equaldotanddens/R/2_Ratio_500_L_3_R_6.png","img/500/randomdotsizeEA/L/13_Ratio_500_L_12_R_6.png","img/900/randomdotsizeEA/L/2_Ratio_900_L_20_R_18.png","img/250/randomdotsizeEA/L/7_Ratio_250_L_8_R_2.png","img/750/randomdotsizeEA/R/12_Ratio_750_L_3_R_4.png","img/250/randomdotsizeEA/L/14_Ratio_250_L_12_R_3.png","img/750/equaldotsize/R/12_Ratio_750_L_3_R_4.png","img/500/equaldotsize/L/13_Ratio_500_L_12_R_6.png","img/500/equaldotanddens/L/11_Ratio_500_L_12_R_6.png","img/250/equaldotanddens/R/11_Ratio_250_L_3_R_12.png","img/250/equaldotanddens/L/5_Ratio_250_L_24_R_6.png","img/250/equaldotsize/L/2_Ratio_250_L_16_R_4.png","img/250/equaldotsize/R/11_Ratio_250_L_3_R_12.png","img/500/equaldotanddens/R/9_Ratio_500_L_2_R_4.png","img/750/randomdotsizeEA/L/14_Ratio_750_L_8_R_6.png","img/900/randomdotsizeEA/L/2_Ratio_900_L_20_R_18.png","img/900/equaldotsize/R/15_Ratio_900_L_9_R_10.png","img/900/randomdotsizeEA/L/1_Ratio_900_L_10_R_9.png","img/500/equaldotanddens/L/7_Ratio_500_L_10_R_5.png","img/250/randomdotsizeEA/L/14_Ratio_250_L_12_R_3.png","img/750/equaldotsize/L/14_Ratio_750_L_8_R_6.png","img/500/equaldotsize/R/6_Ratio_500_L_9_R_18.png","img/750/randomdotsizeEA/R/4_Ratio_750_L_15_R_20.png","img/900/equaldotanddens/R/12_Ratio_900_L_18_R_20.png","img/900/equaldotanddens/L/4_Ratio_900_L_20_R_18.png","img/250/equaldotanddens/L/3_Ratio_250_L_8_R_2.png","img/500/randomdotsizeEA/L/13_Ratio_500_L_12_R_6.png","img/750/randomdotsizeEA/L/10_Ratio_750_L_4_R_3.png","img/900/equaldotsize/L/1_Ratio_900_L_10_R_9.png","img/500/randomdotsizeEA/L/11_Ratio_500_L_12_R_6.png","img/750/randomdotsizeEA/L/6_Ratio_750_L_24_R_18.png","img/500/equaldotsize/L/7_Ratio_500_L_10_R_5.png","img/500/randomdotsizeEA/R/14_Ratio_500_L_5_R_10.png","img/750/equaldotanddens/L/13_Ratio_750_L_8_R_6.png","img/500/equaldotsize/L/8_Ratio_500_L_8_R_4.png","img/750/equaldotsize/L/13_Ratio_750_L_8_R_6.png","img/250/equaldotsize/L/1_Ratio_250_L_8_R_2.png","img/900/equaldotanddens/R/7_Ratio_900_L_9_R_10.png","img/750/equaldotsize/L/1_Ratio_750_L_20_R_15.png","img/500/equaldotanddens/L/13_Ratio_500_L_12_R_6.png","img/250/equaldotanddens/R/4_Ratio_250_L_3_R_12.png","img/900/randomdotsizeEA/L/8_Ratio_900_L_20_R_18.png","img/900/equaldotsize/L/10_Ratio_900_L_20_R_18.png","img/250/equaldotsize/L/3_Ratio_250_L_8_R_2.png","img/250/randomdotsizeEA/L/14_Ratio_250_L_12_R_3.png","img/900/equaldotsize/R/14_Ratio_900_L_18_R_20.png","img/900/equaldotsize/R/14_Ratio_900_L_18_R_20.png","img/750/equaldotanddens/R/3_Ratio_750_L_15_R_20.png","img/750/randomdotsizeEA/R/12_Ratio_750_L_3_R_4.png","img/250/randomdotsizeEA/L/7_Ratio_250_L_8_R_2.png","img/750/equaldotsize/L/10_Ratio_750_L_4_R_3.png","img/900/equaldotanddens/L/1_Ratio_900_L_10_R_9.png","img/250/equaldotsize/R/8_Ratio_250_L_1_R_4.png","img/900/equaldotanddens/R/13_Ratio_900_L_18_R_20.png","img/900/equaldotsize/L/4_Ratio_900_L_20_R_18.png","img/500/equaldotsize/L/10_Ratio_500_L_4_R_2.png","img/750/randomdotsizeEA/L/13_Ratio_750_L_8_R_6.png","img/500/equaldotsize/L/4_Ratio_500_L_18_R_9.png","img/500/randomdotsizeEA/R/1_Ratio_500_L_9_R_18.png","img/900/randomdotsizeEA/R/13_Ratio_900_L_18_R_20.png","img/500/randomdotsizeEA/L/5_Ratio_500_L_4_R_2.png","img/900/equaldotanddens/L/2_Ratio_900_L_20_R_18.png","img/900/randomdotsizeEA/L/1_Ratio_900_L_10_R_9.png","img/250/equaldotanddens/L/2_Ratio_250_L_16_R_4.png","img/500/equaldotanddens/R/9_Ratio_500_L_2_R_4.png","img/250/equaldotsize/L/2_Ratio_250_L_16_R_4.png","img/750/equaldotanddens/R/15_Ratio_750_L_9_R_12.png","img/500/equaldotanddens/R/14_Ratio_500_L_5_R_10.png","img/250/equaldotsize/L/7_Ratio_250_L_8_R_2.png","img/250/equaldotsize/L/15_Ratio_250_L_12_R_3.png","img/250/equaldotanddens/L/1_Ratio_250_L_8_R_2.png","img/750/equaldotanddens/L/8_Ratio_750_L_4_R_3.png","img/250/equaldotanddens/R/4_Ratio_250_L_3_R_12.png","img/750/equaldotanddens/R/11_Ratio_750_L_12_R_16.png","img/900/equaldotanddens/L/2_Ratio_900_L_20_R_18.png"],"Rat0":[["12_Ratio_0_L_9_R_0.png","13_Ratio_0_L_6_R_0.png","5_Ratio_0_L_2_R_0.png","6_Ratio_0_L_4_R_0.png","8_Ratio_0_L_6_R_0.png"],["1_Ratio_0_L_0_R_17.png","10_Ratio_0_L_0_R_22.png","11_Ratio_0_L_0_R_1.png","14_Ratio_0_L_0_R_24.png","15_Ratio_0_L_0_R_4.png","2_Ratio_0_L_0_R_5.png","3_Ratio_0_L_0_R_17.png","4_Ratio_0_L_0_R_7.png","7_Ratio_0_L_0_R_19.png","9_Ratio_0_L_0_R_15.png"]],"Rat250":[["1_Ratio_250_L_8_R_2.png","14_Ratio_250_L_12_R_3.png","15_Ratio_250_L_12_R_3.png","2_Ratio_250_L_16_R_4.png","3_Ratio_250_L_8_R_2.png","5_Ratio_250_L_24_R_6.png","7_Ratio_250_L_8_R_2.png"],["10_Ratio_250_L_4_R_16.png","11_Ratio_250_L_3_R_12.png","12_Ratio_250_L_5_R_20.png","13_Ratio_250_L_2_R_8.png","4_Ratio_250_L_3_R_12.png","6_Ratio_250_L_6_R_24.png","8_Ratio_250_L_1_R_4.png","9_Ratio_250_L_3_R_12.png"]],"Rat500":[["10_Ratio_500_L_4_R_2.png","11_Ratio_500_L_12_R_6.png","13_Ratio_500_L_12_R_6.png","4_Ratio_500_L_18_R_9.png","5_Ratio_500_L_4_R_2.png","7_Ratio_500_L_10_R_5.png","8_Ratio_500_L_8_R_4.png"],["1_Ratio_500_L_9_R_18.png","12_Ratio_500_L_1_R_2.png","14_Ratio_500_L_5_R_10.png","15_Ratio_500_L_1_R_2.png","2_Ratio_500_L_3_R_6.png","3_Ratio_500_L_10_R_20.png","6_Ratio_500_L_9_R_18.png","9_Ratio_500_L_2_R_4.png"]],"Rat750":[["1_Ratio_750_L_20_R_15.png","10_Ratio_750_L_4_R_3.png","13_Ratio_750_L_8_R_6.png","14_Ratio_750_L_8_R_6.png","6_Ratio_750_L_24_R_18.png","8_Ratio_750_L_4_R_3.png","9_Ratio_750_L_4_R_3.png"],["11_Ratio_750_L_12_R_16.png","12_Ratio_750_L_3_R_4.png","15_Ratio_750_L_9_R_12.png","2_Ratio_750_L_6_R_8.png","3_Ratio_750_L_15_R_20.png","4_Ratio_750_L_15_R_20.png","5_Ratio_750_L_15_R_20.png","7_Ratio_750_L_3_R_4.png"]],"Rat900":[["1_Ratio_900_L_10_R_9.png","10_Ratio_900_L_20_R_18.png","2_Ratio_900_L_20_R_18.png","4_Ratio_900_L_20_R_18.png","8_Ratio_900_L_20_R_18.png"],["11_Ratio_900_L_18_R_20.png","12_Ratio_900_L_18_R_20.png","13_Ratio_900_L_18_R_20.png","14_Ratio_900_L_18_R_20.png","15_Ratio_900_L_9_R_10.png","3_Ratio_900_L_9_R_10.png","5_Ratio_900_L_9_R_10.png","6_Ratio_900_L_9_R_10.png","7_Ratio_900_L_9_R_10.png","9_Ratio_900_L_18_R_20.png"]],"Rat1000":[["10_Ratio_1000_L_16_R_16.png","11_Ratio_1000_L_6_R_6.png","12_Ratio_1000_L_14_R_14.png","13_Ratio_1000_L_20_R_20.png","15_Ratio_1000_L_15_R_15.png","2_Ratio_1000_L_17_R_17.png","4_Ratio_1000_L_9_R_9.png","5_Ratio_1000_L_6_R_6.png","6_Ratio_1000_L_19_R_19.png","8_Ratio_1000_L_14_R_14.png","9_Ratio_1000_L_25_R_25.png"],["1_Ratio_1000_L_1_R_1.png","14_Ratio_1000_L_17_R_17.png","3_Ratio_1000_L_17_R_17.png","7_Ratio_1000_L_6_R_6.png"]]}},{"start_time":1551801392037,"click_time":1551801393065,"finger_time":1551801392865,"fix_duration":250,"trial":1,"RT":828,"MT":200,"sideResp":1,"stimulus":"img/500/randomdotsizeEA/R/15_Ratio_500_L_1_R_2.png","xmouse":[775,775,775,775,775,775,775,775,775,775,775,775,775,775,775,775,775,775,775,775,775,775,775,775,775,775,775,775,775,775,775,775,775,775,775,775,775,775,775,775,770,736,670,600,496,473,464,462,460,458,454,453],"ymouse":[526,526,526,526,526,526,526,526,526,526,526,526,526,526,526,526,526,526,526,526,526,526,526,526,526,526,526,526,526,526,526,526,526,526,526,526,526,526,526,526,515,447,359,286,198,178,169,163,158,147,100,84],"timestamp_mouse":[9,33,48,69,87,109,128,148,168,187,208,229,248,269,288,308,328,347,369,387,408,429,449,468,488,508,529,549,569,588,607,628,648,668,687,709,728,748,768,789,809,828,849,869,889,908,928,948,968,988,1008,1028],"xSR":741.5,"ySR":469.95,"xT1":424.9,"yT1":0,"xT2":1058.1,"yT2":0,"toosoon":0,"cond_shown":"randomdotsizeEA","ratio_trial":500,"smaller_num":"1","larger_num":"2","correct_side":2,"subjID":"CAROLCASTILLO32","gender":"1","age":"10","school":"6"},{"start_time":1551801394844,"click_time":1551801396645,"finger_time":1551801396326,"fix_duration":898.0085262318962,"trial":2,"RT":1482,"MT":319,"sideResp":2,"stimulus":"img/250/randomdotsizeEA/L/5_Ratio_250_L_24_R_6.png","xmouse":[783,783,783,783,783,783,783,783,783,783,783,783,783,783,783,783,783,783,783,783,783,783,783,783,783,783,783,783,783,783,783,783,783,783,783,783,783,783,783,783,783,783,783,783,783,783,783,783,783,783,783,783,783,783,783,783,783,783,783,783,783,783,783,783,783,783,783,783,783,783,783,783,783,790,802,900,968,1042,1111,1175,1175,1175,1173,1171,1170,1170,1170,1168,1167,1164,1147],"ymouse":[492,492,492,492,492,492,492,492,492,492,492,492,492,492,492,492,492,492,492,492,492,492,492,492,492,492,492,492,492,492,492,492,492,492,492,492,492,492,492,492,492,492,492,492,492,492,492,492,492,492,492,492,492,492,492,492,492,492,492,492,492,492,492,492,492,492,492,492,492,492,492,492,492,488,467,333,266,196,140,90,88,87,87,87,62,42,28,18,15,13,14],"timestamp_mouse":[12,22,41,61,81,101,120,142,160,180,201,221,241,261,280,302,321,341,362,381,401,421,442,462,481,500,521,541,561,581,601,621,641,661,681,702,722,741,761,781,801,822,841,861,881,901,921,941,962,982,1000,1021,1042,1062,1081,1102,1120,1141,1161,1181,1201,1221,1240,1261,1281,1302,1321,1342,1360,1381,1401,1421,1441,1461,1482,1501,1521,1541,1561,1581,1601,1621,1641,1661,1681,1701,1721,1742,1761,1780,1801],"xSR":741.5,"ySR":469.95,"xT1":424.9,"yT1":0,"xT2":1058.1,"yT2":0,"toosoon":0,"cond_shown":"randomdotsizeEA","ratio_trial":250,"smaller_num":"6","larger_num":"24","correct_side":1,"subjID":"CAROLCASTILLO32","gender":"1","age":"10","school":"6"},{"start_time":1551801398662,"click_time":1551801400085,"finger_time":1551801399545,"fix_duration":1234.4715752913628,"trial":3,"RT":883,"MT":540,"sideResp":1,"stimulus":"img/750/equaldotanddens/R/3_Ratio_750_L_15_R_20.png","xmouse":[758,758,758,758,758,758,758,758,758,758,758,758,758,758,758,758,758,758,758,758,758,758,758,758,758,758,758,758,758,758,758,758,758,758,758,758,758,758,758,758,758,758,758,755,734,698,659,613,563,515,493,481,480,480,480,480,480,478,476,467,467,468,472,474,474,473,473,473,473,473,474,476],"ymouse":[534,534,534,534,534,534,534,534,534,534,534,534,534,534,534,534,534,534,534,534,534,534,534,534,534,534,534,534,534,534,534,534,534,534,534,534,534,534,534,534,534,534,534,525,497,461,422,385,341,306,296,291,291,291,291,291,291,287,282,239,214,189,163,148,133,132,132,132,131,111,100,92],"timestamp_mouse":[8,28,43,64,83,103,124,144,164,183,203,223,243,264,283,304,324,343,363,384,403,422,443,463,483,503,523,543,564,583,604,622,643,663,683,703,723,743,763,783,804,822,843,864,883,903,923,942,963,983,1003,1024,1044,1064,1084,1104,1123,1143,1163,1184,1203,1223,1244,1264,1284,1304,1323,1344,1363,1382,1403,1423],"xSR":741.5,"ySR":469.95,"xT1":424.9,"yT1":0,"xT2":1058.1,"yT2":0,"toosoon":0,"cond_shown":"equaldotanddens","ratio_trial":750,"smaller_num":"15","larger_num":"20","correct_side":2,"subjID":"CAROLCASTILLO32","gender":"1","age":"10","school":"6"},{"start_time":1551801402113,"click_time":1551801403245,"finger_time":1551801402885,"fix_duration":805.1905202640884,"trial":4,"RT":772,"MT":360,"sideResp":2,"stimulus":"img/250/equaldotanddens/R/10_Ratio_250_L_4_R_16.png","xmouse":[806,806,806,806,806,806,806,806,806,806,806,806,806,806,806,806,806,806,806,806,806,806,806,806,806,806,806,806,806,806,806,806,806,806,806,806,806,817,874,956,1057,1083,1099,1115,1131,1168,1173,1177,1179,1179,1179,1179,1175,1171,1165,1160,1147],"ymouse":[495,495,495,495,495,495,495,495,495,495,495,495,495,495,495,495,495,495,495,495,495,495,495,495,495,495,495,495,495,495,495,495,495,495,495,495,495,486,434,370,261,230,213,200,186,152,143,132,125,121,118,113,104,96,84,74,44],"timestamp_mouse":[12,32,52,73,92,113,131,152,172,192,212,233,251,272,293,313,333,353,374,394,412,432,452,473,492,512,533,553,573,592,613,632,653,673,693,714,733,752,772,793,813,832,853,872,893,913,932,952,974,992,1013,1032,1054,1073,1092,1112,1132],"xSR":741.5,"ySR":469.95,"xT1":424.9,"yT1":0,"xT2":1058.1,"yT2":0,"toosoon":0,"cond_shown":"equaldotanddens","ratio_trial":250,"smaller_num":"4","larger_num":"16","correct_side":2,"subjID":"CAROLCASTILLO32","gender":"1","age":"10","school":"6"},{"start_time":1551801405263,"click_time":1551801406426,"finger_time":1551801406065,"fix_duration":935.9834374415332,"trial":5,"RT":802,"MT":361,"sideResp":2,"stimulus":"img/250/equaldotsize/R/9_Ratio_250_L_3_R_12.png","xmouse":[822,822,822,822,822,822,822,822,822,822,822,822,822,822,822,822,822,822,822,822,822,822,822,822,822,822,822,822,822,822,822,822,822,822,822,822,822,822,822,839,883,930,956,962,953,950,949,949,950,953,953,953,953,953,953,953,1013,1033,1071],"ymouse":[521,521,521,521,521,521,521,521,521,521,521,521,521,521,521,521,521,521,521,521,521,521,521,521,521,521,521,521,521,521,521,521,521,521,521,521,521,521,521,489,384,276,171,92,19,12,11,11,6,3,3,3,3,3,3,3,18,34,53],"timestamp_mouse":[5,33,42,63,83,103,124,143,162,183,203,224,244,262,283,302,322,343,363,383,402,422,442,464,483,503,522,543,563,583,604,623,642,663,682,703,722,742,762,783,802,823,842,862,882,903,922,942,963,982,1002,1023,1043,1062,1082,1102,1122,1143,1163],"xSR":741.5,"ySR":469.95,"xT1":424.9,"yT1":0,"xT2":1058.1,"yT2":0,"toosoon":0,"cond_shown":"equaldotsize","ratio_trial":250,"smaller_num":"3","larger_num":"12","correct_side":2,"subjID":"CAROLCASTILLO32","gender":"1","age":"10","school":"6"},{"start_time":1551801407635,"click_time":1551801414765,"finger_time":1551801414686,"fix_duration":268.41513470327374,"trial":6,"RT":7051,"MT":79,"sideResp":2,"stimulus":"img/900/randomdotsizeEA/R/6_Ratio_900_L_9_R_10.png","xmouse":[797,797,797,797,797,797,797,797,797,797,797,797,797,797,797,797,797,797,797,797,797,797,797,797,797,797,797,797,797,797,797,797,797,797,797,797,797,797,797,797,797,797,797,797,797,797,797,797,797,797,797,797,797,797,797,797,797,797,797,797,797,797,797,797,797,797,797,797,797,797,797,797,797,797,797,797,797,797,797,797,797,797,797,797,797,797,797,797,797,797,797,797,797,797,797,797,797,797,797,797,797,797,797,797,797,797,797,797,797,797,797,797,797,797,797,797,797,797,797,797,797,797,797,797,797,797,797,797,797,797,797,797,797,797,797,797,797,797,797,797,797,797,797,797,797,797,797,797,797,797,797,797,797,797,797,797,797,797,797,797,797,797,797,797,797,797,797,797,797,797,797,797,797,797,797,797,797,797,797,797,797,797,797,797,797,797,797,797,797,797,797,797,797,797,797,797,797,797,797,797,797,797,797,797,797,797,797,797,797,797,797,797,797,797,797,797,797,797,797,797,797,797,797,797,797,797,797,797,797,797,797,797,797,797,797,797,797,797,797,797,797,797,797,797,797,797,797,797,797,797,797,797,797,797,797,797,797,797,797,797,797,797,797,797,797,797,797,797,797,797,797,797,797,797,797,797,797,797,797,797,797,797,797,797,797,797,797,797,797,797,797,797,797,797,797,797,797,797,797,797,797,797,797,797,797,797,797,797,797,797,797,797,797,797,797,797,797,797,797,797,797,797,797,797,797,797,797,797,797,797,797,797,797,797,797,797,797,797,797,797,797,797,797,797,797,797,797,797,797,797,797,802,849,933,1011,1097,1124],"ymouse":[525,525,525,525,525,525,525,525,525,525,525,525,525,525,525,525,525,525,525,525,525,525,525,525,525,525,525,525,525,525,525,525,525,525,525,525,525,525,525,525,525,525,525,525,525,525,525,525,525,525,525,525,525,525,525,525,525,525,525,525,525,525,525,525,525,525,525,525,525,525,525,525,525,525,525,525,525,525,525,525,525,525,525,525,525,525,525,525,525,525,525,525,525,525,525,525,525,525,525,525,525,525,525,525,525,525,525,525,525,525,525,525,525,525,525,525,525,525,525,525,525,525,525,525,525,525,525,525,525,525,525,525,525,525,525,525,525,525,525,525,525,525,525,525,525,525,525,525,525,525,525,525,525,525,525,525,525,525,525,525,525,525,525,525,525,525,525,525,525,525,525,525,525,525,525,525,525,525,525,525,525,525,525,525,525,525,525,525,525,525,525,525,525,525,525,525,525,525,525,525,525,525,525,525,525,525,525,525,525,525,525,525,525,525,525,525,525,525,525,525,525,525,525,525,525,525,525,525,525,525,525,525,525,525,525,525,525,525,525,525,525,525,525,525,525,525,525,525,525,525,525,525,525,525,525,525,525,525,525,525,525,525,525,525,525,525,525,525,525,525,525,525,525,525,525,525,525,525,525,525,525,525,525,525,525,525,525,525,525,525,525,525,525,525,525,525,525,525,525,525,525,525,525,525,525,525,525,525,525,525,525,525,525,525,525,525,525,525,525,525,525,525,525,525,525,525,525,525,525,525,525,525,525,525,525,525,525,525,525,525,525,525,525,525,525,525,525,525,525,525,526,525,478,373,272,111,56],"timestamp_mouse":[10,34,52,71,90,110,130,150,171,191,210,230,250,270,291,311,330,351,370,390,411,430,450,471,492,511,530,552,571,590,610,630,651,671,691,710,731,750,772,790,811,832,852,871,891,912,930,951,972,991,1010,1032,1050,1070,1091,1111,1132,1150,1170,1191,1211,1232,1250,1271,1292,1311,1330,1351,1372,1390,1411,1431,1450,1471,1492,1512,1530,1550,1570,1592,1610,1630,1650,1671,1691,1711,1732,1751,1770,1790,1812,1831,1851,1871,1890,1910,1931,1951,1972,1991,2011,2031,2052,2070,2091,2112,2131,2152,2172,2190,2211,2230,2251,2271,2291,2311,2332,2352,2371,2390,2411,2432,2451,2471,2491,2511,2530,2551,2571,2590,2612,2631,2651,2671,2691,2711,2731,2751,2771,2791,2811,2831,2851,2871,2891,2911,2930,2950,2971,2992,3011,3031,3052,3070,3091,3111,3131,3151,3171,3190,3212,3232,3251,3271,3290,3312,3330,3352,3370,3391,3412,3430,3450,3471,3491,3510,3531,3552,3571,3591,3612,3631,3652,3670,3691,3712,3732,3751,3771,3790,3812,3830,3851,3871,3890,3911,3930,3952,3970,3992,4010,4031,4050,4071,4092,4110,4131,4152,4170,4191,4212,4232,4250,4271,4292,4311,4332,4352,4371,4390,4410,4432,4450,4471,4492,4510,4531,4552,4570,4591,4611,4631,4652,4670,4690,4710,4730,4752,4770,4791,4810,4831,4850,4871,4890,4910,4930,4950,4971,4990,5011,5030,5050,5070,5090,5111,5132,5150,5170,5192,5211,5230,5251,5270,5290,5310,5330,5352,5370,5390,5411,5430,5450,5470,5491,5511,5532,5550,5571,5590,5611,5631,5651,5670,5691,5712,5731,5752,5770,5791,5811,5830,5852,5871,5891,5910,5932,5952,5970,5991,6011,6031,6052,6070,6090,6112,6132,6151,6170,6192,6211,6231,6252,6270,6290,6312,6330,6350,6371,6390,6412,6430,6450,6471,6490,6511,6531,6550,6570,6590,6612,6631,6651,6670,6691,6711,6730,6750,6771,6791,6810,6831,6850,6871,6891,6911,6930,6950,6972,6991,7011,7030,7051,7071,7090,7110,7130],"xSR":741.5,"ySR":469.95,"xT1":424.9,"yT1":0,"xT2":1058.1,"yT2":0,"toosoon":0,"cond_shown":"randomdotsizeEA","ratio_trial":900,"smaller_num":"9","larger_num":"10","correct_side":2,"subjID":"CAROLCASTILLO32","gender":"1","age":"10","school":"6"},{"start_time":1551801416732,"click_time":1551801418326,"finger_time":1551801417646,"fix_duration":926.1120868523196,"trial":7,"RT":914,"MT":680,"sideResp":2,"stimulus":"img/900/equaldotanddens/R/5_Ratio_900_L_9_R_10.png","xmouse":[780,780,780,780,780,780,780,780,780,780,780,780,780,780,780,780,780,780,780,780,780,780,780,780,780,780,780,780,780,780,780,780,780,780,780,780,780,780,780,780,780,780,780,781,787,850,881,908,933,952,954,954,956,958,967,983,988,988,988,988,996,1011,1024,1034,1039,1040,1040,1040,1040,1040,1040,1040,1040,1040,1040,1040,1040,1045,1052,1067],"ymouse":[552,552,552,552,552,552,552,552,552,552,552,552,552,552,552,552,552,552,552,552,552,552,552,552,552,552,552,552,552,552,552,552,552,552,552,552,552,552,552,552,552,552,552,550,539,437,365,288,228,186,179,176,171,163,148,122,114,114,114,114,106,95,89,86,83,82,82,82,82,82,82,82,82,82,82,82,82,80,78,74],"timestamp_mouse":[20,38,55,73,93,115,133,154,175,193,214,235,253,274,294,313,333,355,373,394,413,434,454,474,495,514,534,555,574,594,613,635,654,674,695,714,733,754,773,793,813,833,854,873,894,914,933,954,974,994,1013,1033,1054,1074,1093,1114,1133,1154,1175,1194,1213,1233,1254,1274,1293,1313,1334,1354,1373,1393,1414,1433,1453,1474,1494,1514,1535,1555,1573,1594],"xSR":741.5,"ySR":469.95,"xT1":424.9,"yT1":0,"xT2":1058.1,"yT2":0,"toosoon":0,"cond_shown":"equaldotanddens","ratio_trial":900,"smaller_num":"9","larger_num":"10","correct_side":2,"subjID":"CAROLCASTILLO32","gender":"1","age":"10","school":"6"},{"start_time":1551801420364,"click_time":1551801422025,"finger_time":1551801421625,"fix_duration":1377.7896786785675,"trial":8,"RT":1261,"MT":400,"sideResp":1,"stimulus":"img/750/randomdotsizeEA/R/4_Ratio_750_L_15_R_20.png","xmouse":[769,769,769,769,769,769,769,769,769,769,769,769,769,769,769,769,769,769,769,769,769,769,769,769,769,769,769,769,769,769,769,769,769,769,769,769,769,769,769,769,769,769,769,769,769,769,769,769,769,769,769,769,769,769,769,769,769,769,769,769,769,769,769,769,769,765,758,751,745,742,736,725,698,652,631,613,600,583,572,563,558,546,529,501],"ymouse":[531,531,531,531,531,531,531,531,531,531,531,531,531,531,531,531,531,531,531,531,531,531,531,531,531,531,531,531,531,531,531,531,531,531,531,531,531,531,531,531,531,531,531,531,531,531,531,531,531,531,531,531,531,531,531,531,531,531,531,531,531,518,491,415,319,283,260,243,230,225,219,210,193,169,156,143,132,121,112,104,100,95,89,80],"timestamp_mouse":[8,21,41,62,81,103,122,141,162,183,201,222,242,261,282,303,322,341,361,381,401,422,443,463,482,502,522,543,562,581,603,621,641,661,681,702,723,742,761,781,801,821,842,861,883,901,921,942,961,982,1003,1023,1042,1062,1081,1101,1122,1143,1162,1181,1201,1221,1242,1261,1281,1301,1323,1342,1362,1381,1402,1421,1441,1463,1481,1501,1521,1541,1561,1581,1601,1622,1641,1661],"xSR":741.5,"ySR":469.95,"xT1":424.9,"yT1":0,"xT2":1058.1,"yT2":0,"toosoon":0,"cond_shown":"randomdotsizeEA","ratio_trial":750,"smaller_num":"15","larger_num":"20","correct_side":2,"subjID":"CAROLCASTILLO32","gender":"1","age":"10","school":"6"},{"start_time":1551801424272,"click_time":1551801425445,"finger_time":1551801425145,"fix_duration":985.1292127555877,"trial":9,"RT":873,"MT":300,"sideResp":1,"stimulus":"img/750/equaldotsize/L/1_Ratio_750_L_20_R_15.png","xmouse":[820,820,820,820,820,820,820,820,820,820,820,820,820,820,820,820,820,820,820,820,820,820,820,820,820,820,820,820,820,820,820,820,820,820,820,820,820,820,820,820,820,820,820,817,811,798,778,770,725,708,688,666,623,602,586,573,555,527,515],"ymouse":[494,494,494,494,494,494,494,494,494,494,494,494,494,494,494,494,494,494,494,494,494,494,494,494,494,494,494,494,494,494,494,494,494,494,494,494,494,494,494,494,494,494,488,457,434,409,375,362,309,284,262,240,205,190,178,164,139,104,87],"timestamp_mouse":[15,34,54,73,93,115,133,153,174,193,213,234,254,275,295,315,334,353,375,393,415,433,453,474,493,513,533,554,574,595,614,634,654,674,694,715,734,753,773,794,815,833,854,873,893,914,934,955,974,994,1013,1034,1055,1073,1094,1114,1133,1154,1173],"xSR":741.5,"ySR":469.95,"xT1":424.9,"yT1":0,"xT2":1058.1,"yT2":0,"toosoon":0,"cond_shown":"equaldotsize","ratio_trial":750,"smaller_num":"15","larger_num":"20","correct_side":1,"subjID":"CAROLCASTILLO32","gender":"1","age":"10","school":"6"},{"start_time":1551801428019,"click_time":1551801429286,"finger_time":1551801428786,"fix_duration":250,"trial":10,"RT":767,"MT":500,"sideResp":2,"stimulus":"img/500/equaldotanddens/R/2_Ratio_500_L_3_R_6.png","xmouse":[774,774,774,774,774,774,774,774,774,774,774,774,774,774,774,774,774,774,774,774,774,774,774,774,774,774,774,774,774,774,774,774,774,774,774,774,780,806,839,894,950,966,976,984,995,1012,1025,1044,1079,1122,1174,1189,1193,1194,1194,1194,1194,1194,1194,1194,1192,1183,1166,1145],"ymouse":[505,505,505,505,505,505,505,505,505,505,505,505,505,505,505,505,505,505,505,505,505,505,505,505,505,505,505,505,505,505,505,505,505,505,505,505,499,480,456,409,333,315,303,291,273,249,234,214,177,139,91,76,68,66,66,66,66,66,66,66,65,64,62,58],"timestamp_mouse":[8,33,46,67,86,106,126,147,167,187,207,226,247,267,287,307,326,346,368,386,407,428,446,467,486,507,528,546,566,588,606,628,646,666,686,706,726,746,767,787,808,826,847,867,887,907,926,946,966,986,1007,1026,1046,1066,1087,1107,1126,1146,1167,1186,1206,1226,1247,1267],"xSR":741.5,"ySR":469.95,"xT1":424.9,"yT1":0,"xT2":1058.1,"yT2":0,"toosoon":0,"cond_shown":"equaldotanddens","ratio_trial":500,"smaller_num":"3","larger_num":"6","correct_side":2,"subjID":"CAROLCASTILLO32","gender":"1","age":"10","school":"6"},{"start_time":1551801431627,"click_time":1551801432906,"finger_time":1551801432825,"fix_duration":1380.6832336984373,"trial":11,"RT":1198,"MT":81,"sideResp":1,"stimulus":"img/500/randomdotsizeEA/L/7_Ratio_500_L_10_R_5.png","xmouse":[809,809,809,809,809,809,809,809,809,809,809,809,809,809,809,809,809,809,809,809,809,809,809,809,809,809,809,809,809,809,809,809,809,809,809,809,809,809,809,809,809,809,809,809,809,809,809,809,809,809,809,809,809,809,809,809,809,809,808,771,649,595,543,493],"ymouse":[489,489,489,489,489,489,489,489,489,489,489,489,489,489,489,489,489,489,489,489,489,489,489,489,489,489,489,489,489,489,489,489,489,489,489,489,489,489,489,489,489,489,489,489,489,489,489,489,489,489,489,489,489,489,489,489,489,489,484,407,223,154,95,47],"timestamp_mouse":[27,40,59,78,99,119,139,158,180,198,218,238,259,279,299,318,338,359,379,398,420,439,459,478,499,518,539,558,579,600,620,639,660,678,699,718,740,759,779,798,819,840,859,878,898,918,938,958,978,998,1018,1040,1059,1078,1098,1119,1139,1158,1178,1198,1219,1238,1258,1279],"xSR":741.5,"ySR":469.95,"xT1":424.9,"yT1":0,"xT2":1058.1,"yT2":0,"toosoon":0,"cond_shown":"randomdotsizeEA","ratio_trial":500,"smaller_num":"5","larger_num":"10","correct_side":1,"subjID":"CAROLCASTILLO32","gender":"1","age":"10","school":"6"},{"start_time":1551801436753,"click_time":1551801437686,"finger_time":1551801437465,"fix_duration":1286.1479962013593,"trial":12,"RT":712,"MT":221,"sideResp":2,"stimulus":"img/500/equaldotsize/R/15_Ratio_500_L_1_R_2.png","xmouse":[796,796,796,797,800,800,800,800,800,800,800,800,800,800,800,800,800,800,800,800,800,800,800,800,800,800,800,800,800,800,800,800,800,802,828,859,900,952,1031,1057,1074,1086,1096,1102,1104,1105,1106],"ymouse":[511,511,507,506,503,503,503,503,503,503,503,503,503,503,503,503,503,503,503,503,503,503,503,503,503,503,503,503,503,503,503,503,503,501,471,439,393,331,240,208,187,168,153,118,106,101,95],"timestamp_mouse":[12,33,52,72,93,112,133,152,172,194,212,232,252,274,292,312,334,353,372,392,414,433,452,473,493,513,533,553,572,594,613,633,653,673,693,712,733,752,773,792,812,833,853,873,892,912,933],"xSR":741.5,"ySR":469.95,"xT1":424.9,"yT1":0,"xT2":1058.1,"yT2":0,"toosoon":0,"cond_shown":"equaldotsize","ratio_trial":500,"smaller_num":"1","larger_num":"2","correct_side":2,"subjID":"CAROLCASTILLO32","gender":"1","age":"10","school":"6"},{"start_time":1551801439159,"click_time":1551801440247,"finger_time":1551801440046,"fix_duration":511.4247202290524,"trial":13,"RT":887,"MT":201,"sideResp":1,"stimulus":"img/900/randomdotsizeEA/L/10_Ratio_900_L_20_R_18.png","xmouse":[782,782,782,782,782,782,782,782,782,782,782,782,782,782,782,782,782,782,782,782,782,782,782,782,782,782,782,782,782,782,782,782,782,782,782,782,782,782,782,782,782,782,782,783,703,639,566,495,420,414,414,414,414,419,431],"ymouse":[546,546,546,546,546,546,546,546,546,546,546,546,546,546,546,546,546,546,546,546,546,546,546,546,546,546,546,546,546,546,546,546,546,546,546,546,546,546,546,546,546,546,546,545,418,350,291,239,186,181,179,171,156,125,86],"timestamp_mouse":[9,28,46,67,86,107,127,146,168,186,207,227,247,266,287,306,326,346,366,387,407,426,447,467,486,507,528,547,568,586,606,626,647,666,686,706,727,746,768,788,806,827,846,866,887,906,927,947,967,986,1007,1027,1048,1066,1088],"xSR":741.5,"ySR":469.95,"xT1":424.9,"yT1":0,"xT2":1058.1,"yT2":0,"toosoon":0,"cond_shown":"randomdotsizeEA","ratio_trial":900,"smaller_num":"18","larger_num":"20","correct_side":1,"subjID":"CAROLCASTILLO32","gender":"1","age":"10","school":"6"},{"start_time":1551801443939,"click_time":1551801445906,"finger_time":1551801444686,"fix_duration":1131.519784944629,"trial":14,"RT":747,"MT":1220,"sideResp":2,"stimulus":"img/900/equaldotsize/R/3_Ratio_900_L_9_R_10.png","xmouse":[787,787,787,787,787,787,787,787,787,787,787,787,787,787,787,787,787,787,787,787,787,787,787,787,787,787,787,787,787,787,787,787,787,788,791,815,832,847,861,884,892,901,915,926,945,952,956,961,965,975,982,991,996,1002,1017,1021,1024,1028,1031,1033,1034,1036,1038,1039,1045,1046,1046,1046,1046,1046,1046,1046,1046,1046,1046,1048,1048,1049,1049,1050,1051,1052,1052,1052,1053,1053,1053,1053,1053,1053,1053,1053,1053,1053,1053,1053,1053,1056,1060],"ymouse":[546,546,546,546,546,546,546,546,546,546,546,546,546,546,546,546,546,546,546,546,546,546,546,546,546,546,546,546,546,546,546,546,546,544,538,496,471,447,423,378,360,340,318,298,256,240,228,213,201,176,159,140,129,115,81,71,63,54,46,42,41,38,37,35,28,28,28,28,28,28,28,28,28,28,28,28,28,30,30,31,33,34,35,35,36,36,36,36,36,36,36,36,36,36,36,36,36,36,36],"timestamp_mouse":[8,34,48,67,87,107,128,146,167,188,207,226,248,267,287,306,328,346,366,386,408,426,448,467,486,507,526,546,568,587,606,628,646,667,687,707,726,747,767,788,806,827,846,866,887,906,926,946,967,987,1006,1026,1047,1067,1088,1106,1126,1146,1166,1187,1206,1226,1247,1267,1286,1307,1326,1347,1367,1387,1407,1427,1446,1467,1486,1506,1526,1546,1566,1586,1606,1627,1646,1666,1687,1706,1727,1747,1768,1787,1807,1826,1846,1866,1886,1907,1926,1946,1967],"xSR":741.5,"ySR":469.95,"xT1":424.9,"yT1":0,"xT2":1058.1,"yT2":0,"toosoon":0,"cond_shown":"equaldotsize","ratio_trial":900,"smaller_num":"9","larger_num":"10","correct_side":2,"subjID":"CAROLCASTILLO32","gender":"1","age":"10","school":"6"},{"start_time":1551801447970,"click_time":1551801449327,"finger_time":1551801448726,"fix_duration":1182.9160180301249,"trial":15,"RT":756,"MT":601,"sideResp":1,"stimulus":"img/500/equaldotanddens/L/8_Ratio_500_L_8_R_4.png","xmouse":[804,804,804,804,804,804,804,804,804,804,804,804,804,804,804,804,804,804,804,804,804,804,804,804,804,804,804,804,804,804,804,804,804,804,804,804,804,788,758,729,699,671,671,671,671,671,671,671,671,671,671,671,671,671,671,671,671,671,671,274,281,351,377,396,407,416,421,435],"ymouse":[520,520,520,520,520,520,520,520,520,520,520,520,520,520,520,520,520,520,520,520,520,520,520,520,520,520,520,520,520,520,520,520,520,520,520,520,520,437,336,231,126,28,28,28,28,28,28,28,28,28,28,28,28,28,28,28,28,28,28,3,11,50,59,64,64,62,59,49],"timestamp_mouse":[15,35,57,77,96,117,136,157,175,195,216,237,256,276,295,315,336,356,375,396,417,436,455,476,495,516,536,556,576,595,616,635,655,675,696,716,735,756,775,796,815,836,856,876,897,916,936,956,976,997,1015,1036,1056,1076,1097,1117,1136,1156,1177,1195,1216,1244,1257,1275,1296,1317,1336,1357],"xSR":741.5,"ySR":469.95,"xT1":424.9,"yT1":0,"xT2":1058.1,"yT2":0,"toosoon":0,"cond_shown":"equaldotanddens","ratio_trial":500,"smaller_num":"4","larger_num":"8","correct_side":1,"subjID":"CAROLCASTILLO32","gender":"1","age":"10","school":"6"},{"start_time":1551801451217,"click_time":1551801452826,"finger_time":1551801452506,"fix_duration":929.814682090683,"trial":16,"RT":1289,"MT":320,"sideResp":1,"stimulus":"img/750/randomdotsizeEA/L/9_Ratio_750_L_4_R_3.png","xmouse":[764,764,764,764,764,764,764,764,764,764,764,764,764,764,764,764,764,764,764,764,764,764,764,764,764,764,764,764,764,764,764,764,764,764,764,764,764,768,769,770,772,774,775,776,776,777,777,777,777,777,777,777,777,778,778,778,778,778,778,778,778,778,778,777,766,732,642,599,561,532,515,514,514,514,514,512,512,515,521,524,524],"ymouse":[494,494,494,494,494,494,494,494,494,494,494,494,494,494,494,494,494,494,494,494,494,494,494,494,494,494,494,494,494,494,494,494,494,494,494,494,494,494,493,491,490,488,487,486,486,486,485,485,485,485,485,485,485,484,484,484,484,484,484,484,484,484,484,478,466,426,355,327,301,279,246,224,212,208,201,189,178,164,143,122,85],"timestamp_mouse":[8,37,48,69,89,109,128,148,169,190,208,229,250,269,289,310,328,349,370,389,409,428,448,469,488,508,529,549,570,588,608,629,648,670,690,708,728,748,769,788,808,829,850,868,888,910,929,948,969,988,1009,1028,1048,1069,1088,1108,1128,1148,1169,1188,1208,1229,1250,1269,1289,1309,1328,1349,1369,1390,1409,1428,1448,1468,1488,1509,1528,1548,1569,1588,1609],"xSR":741.5,"ySR":469.95,"xT1":424.9,"yT1":0,"xT2":1058.1,"yT2":0,"toosoon":0,"cond_shown":"randomdotsizeEA","ratio_trial":750,"smaller_num":"3","larger_num":"4","correct_side":1,"subjID":"CAROLCASTILLO32","gender":"1","age":"10","school":"6"},{"start_time":1551801454468,"click_time":1551801455945,"finger_time":1551801455227,"fix_duration":761.6792032537139,"trial":17,"RT":759,"MT":718,"sideResp":2,"stimulus":"img/500/equaldotsize/R/9_Ratio_500_L_2_R_4.png","xmouse":[796,796,796,796,796,796,796,796,796,796,796,796,796,796,796,796,796,796,796,796,796,796,796,796,796,796,796,796,796,796,796,796,796,796,796,809,837,918,1161,1229,1257,1267,1268,1268,1268,1268,1268,1268,1268,1268,1268,1268,1244,1227,1215,1208,1207,1207,1207,1207,1207,1207,1207,1207,1207,1207,1207,1207,1207,1207,1207,1201,1161,1137],"ymouse":[519,519,519,519,519,519,519,519,519,519,519,519,519,519,519,519,519,519,519,519,519,519,519,519,519,519,519,519,519,519,519,519,519,519,519,506,483,415,177,104,72,59,58,58,58,58,58,58,58,58,58,58,68,72,75,76,76,76,76,76,76,76,76,76,76,76,76,76,76,76,76,77,81,81],"timestamp_mouse":[17,38,57,78,98,118,138,157,177,197,217,238,259,277,297,317,337,357,377,399,418,437,457,479,499,517,537,558,577,597,617,637,658,678,698,717,737,759,779,798,818,837,858,878,897,917,937,959,977,997,1018,1037,1058,1077,1098,1117,1137,1158,1178,1198,1218,1238,1258,1277,1297,1317,1337,1357,1378,1398,1417,1437,1459,1477],"xSR":741.5,"ySR":469.95,"xT1":424.9,"yT1":0,"xT2":1058.1,"yT2":0,"toosoon":0,"cond_shown":"equaldotsize","ratio_trial":500,"smaller_num":"2","larger_num":"4","correct_side":2,"subjID":"CAROLCASTILLO32","gender":"1","age":"10","school":"6"},{"start_time":1551801457446,"click_time":1551801458807,"finger_time":1551801458226,"fix_duration":600.3351462299443,"trial":18,"RT":780,"MT":581,"sideResp":1,"stimulus":"img/500/randomdotsizeEA/L/10_Ratio_500_L_4_R_2.png","xmouse":[791,791,791,791,791,791,791,791,791,791,791,791,791,791,791,791,791,791,791,791,791,791,791,791,791,791,791,791,791,791,791,791,791,791,791,791,789,779,604,513,418,328,253,205,205,205,205,204,218,222,227,232,248,293,319,343,361,371,377,378,378,379,382,388,392,397,408,428],"ymouse":[534,534,534,534,534,534,534,534,534,534,534,534,534,534,534,534,534,534,534,534,534,534,534,534,534,534,534,534,534,534,534,534,534,534,534,534,534,524,294,201,130,89,67,52,52,52,52,52,43,42,41,41,41,41,41,41,41,40,38,38,38,38,37,37,36,35,35,35],"timestamp_mouse":[23,40,60,80,100,120,140,160,179,199,219,239,259,281,299,321,339,359,379,401,420,440,460,479,499,520,539,560,579,601,619,639,661,679,701,719,739,761,780,799,819,839,859,880,899,920,939,959,980,999,1019,1039,1059,1081,1099,1119,1139,1160,1180,1199,1220,1240,1259,1280,1299,1319,1340,1361],"xSR":741.5,"ySR":469.95,"xT1":424.9,"yT1":0,"xT2":1058.1,"yT2":0,"toosoon":0,"cond_shown":"randomdotsizeEA","ratio_trial":500,"smaller_num":"2","larger_num":"4","correct_side":1,"subjID":"CAROLCASTILLO32","gender":"1","age":"10","school":"6"},{"start_time":1551801460881,"click_time":1551801462145,"finger_time":1551801461505,"fix_duration":1173.470053686879,"trial":19,"RT":624,"MT":640,"sideResp":1,"stimulus":"img/750/equaldotsize/L/6_Ratio_750_L_24_R_18.png","xmouse":[774,774,774,774,774,774,774,774,774,774,774,774,774,774,774,774,774,774,774,774,774,774,774,774,774,774,774,774,774,775,778,786,805,812,817,822,830,860,872,881,888,892,899,905,911,915,921,928,928,928,928,928,928,921,902,878,838,650,566,504,471,458,452,443],"ymouse":[484,484,484,484,484,484,484,484,484,484,484,484,484,484,484,484,484,484,484,484,484,484,484,484,484,484,484,484,484,483,479,468,441,432,427,419,407,356,336,323,313,306,293,284,274,264,252,227,226,226,226,226,225,225,225,220,209,161,141,124,114,109,102,88],"timestamp_mouse":[8,28,45,65,85,104,125,145,164,184,206,224,246,265,284,305,325,345,366,385,405,424,444,466,485,505,525,544,566,584,604,624,645,664,684,704,725,745,765,784,805,824,845,864,884,904,925,945,965,984,1005,1026,1045,1064,1084,1104,1125,1145,1164,1184,1204,1224,1245,1264],"xSR":741.5,"ySR":469.95,"xT1":424.9,"yT1":0,"xT2":1058.1,"yT2":0,"toosoon":0,"cond_shown":"equaldotsize","ratio_trial":750,"smaller_num":"18","larger_num":"24","correct_side":1,"subjID":"CAROLCASTILLO32","gender":"1","age":"10","school":"6"},{"start_time":1551801463278,"click_time":1551801464186,"finger_time":1551801463925,"fix_duration":250,"trial":20,"RT":647,"MT":261,"sideResp":2,"stimulus":"img/500/equaldotsize/R/2_Ratio_500_L_3_R_6.png","xmouse":[768,768,768,768,768,768,768,768,768,768,768,768,768,768,768,768,768,768,768,768,768,768,768,768,768,768,768,768,768,768,773,782,844,886,929,965,988,994,1046,1068,1080,1094,1106,1107,1105,1103],"ymouse":[530,530,530,530,530,530,530,530,530,530,530,530,530,530,530,530,530,530,530,530,530,530,530,530,530,530,530,530,530,530,526,516,440,392,345,313,287,278,200,173,158,139,112,107,102,96],"timestamp_mouse":[8,30,47,67,86,107,127,147,167,187,207,228,246,267,287,307,328,347,366,387,407,427,446,466,487,508,526,546,566,588,608,627,647,666,686,707,726,746,766,786,806,827,847,866,886,908],"xSR":741.5,"ySR":469.95,"xT1":424.9,"yT1":0,"xT2":1058.1,"yT2":0,"toosoon":0,"cond_shown":"equaldotsize","ratio_trial":500,"smaller_num":"3","larger_num":"6","correct_side":2,"subjID":"CAROLCASTILLO32","gender":"1","age":"10","school":"6"},{"start_time":1551801466797,"click_time":1551801467626,"finger_time":1551801467446,"fix_duration":250,"trial":21,"RT":649,"MT":180,"sideResp":2,"stimulus":"img/750/equaldotanddens/R/12_Ratio_750_L_3_R_4.png","xmouse":[812,812,812,812,812,812,812,812,812,812,812,812,812,812,812,812,812,812,812,812,812,812,812,812,812,812,812,812,812,812,812,812,855,897,947,998,1050,1053,1055,1055,1058,1065],"ymouse":[522,522,522,522,522,522,522,522,522,522,522,522,522,522,522,522,522,522,522,522,522,522,522,522,522,522,522,522,522,522,522,522,480,423,345,256,121,102,91,85,70,38],"timestamp_mouse":[8,32,48,68,88,108,129,148,169,189,208,228,248,269,289,308,328,349,368,389,407,429,448,467,489,508,527,548,567,589,608,627,649,668,689,708,729,747,768,788,809,828],"xSR":741.5,"ySR":469.95,"xT1":424.9,"yT1":0,"xT2":1058.1,"yT2":0,"toosoon":0,"cond_shown":"equaldotanddens","ratio_trial":750,"smaller_num":"3","larger_num":"4","correct_side":2,"subjID":"CAROLCASTILLO32","gender":"1","age":"10","school":"6"},{"start_time":1551801470081,"click_time":1551801471246,"finger_time":1551801470926,"fix_duration":253.140388877384,"trial":22,"RT":845,"MT":320,"sideResp":1,"stimulus":"img/250/randomdotsizeEA/L/7_Ratio_250_L_8_R_2.png","xmouse":[786,786,786,786,786,786,786,786,786,786,786,786,786,786,786,786,786,786,786,786,786,786,786,786,786,786,786,786,786,786,786,786,786,786,786,786,786,786,786,786,786,781,742,708,658,596,522,490,482,473,467,463,463,463,463,463,463,463,466],"ymouse":[511,511,511,511,511,511,511,511,511,511,511,511,511,511,511,511,511,511,511,511,511,511,511,511,511,511,511,511,511,511,511,511,511,511,511,511,511,511,511,511,511,503,441,394,326,256,190,149,137,124,115,110,109,109,109,109,109,105,82],"timestamp_mouse":[22,24,44,64,83,104,124,145,163,183,205,225,244,264,285,303,324,344,363,384,405,424,444,464,485,503,525,544,565,584,604,624,644,664,685,705,735,745,764,785,804,823,845,863,884,904,924,945,963,983,1003,1023,1044,1065,1084,1104,1123,1143,1165],"xSR":741.5,"ySR":469.95,"xT1":424.9,"yT1":0,"xT2":1058.1,"yT2":0,"toosoon":0,"cond_shown":"randomdotsizeEA","ratio_trial":250,"smaller_num":"2","larger_num":"8","correct_side":1,"subjID":"CAROLCASTILLO32","gender":"1","age":"10","school":"6"},{"start_time":1551801472319,"click_time":1551801473325,"finger_time":1551801473144,"fix_duration":391.80113621680215,"trial":23,"RT":825,"MT":181,"sideResp":1,"stimulus":"img/750/equaldotsize/L/1_Ratio_750_L_20_R_15.png","xmouse":[757,757,757,757,757,757,757,757,757,757,757,757,757,757,757,757,757,757,757,757,757,757,757,757,757,757,757,757,757,757,757,757,757,757,757,757,757,757,757,757,755,740,718,708,700,687,611,583,567,554,520],"ymouse":[502,502,502,502,502,502,502,502,502,502,502,502,502,502,502,502,502,502,502,502,502,502,502,502,502,502,502,502,502,502,502,502,502,502,502,502,502,502,502,502,495,432,353,308,286,265,156,113,92,78,50],"timestamp_mouse":[9,33,47,65,86,106,126,147,167,186,206,226,247,265,287,306,326,346,366,385,407,426,446,466,486,506,525,546,566,586,606,626,646,666,686,707,727,746,765,785,805,825,845,865,886,906,927,946,967,986,1006],"xSR":741.5,"ySR":469.95,"xT1":424.9,"yT1":0,"xT2":1058.1,"yT2":0,"toosoon":0,"cond_shown":"equaldotsize","ratio_trial":750,"smaller_num":"15","larger_num":"20","correct_side":1,"subjID":"CAROLCASTILLO32","gender":"1","age":"10","school":"6"},{"start_time":1551801475226,"click_time":1551801476324,"finger_time":1551801476085,"fix_duration":1079.8943314894227,"trial":24,"RT":859,"MT":239,"sideResp":2,"stimulus":"img/900/randomdotsizeEA/R/11_Ratio_900_L_18_R_20.png","xmouse":[799,799,799,799,799,799,799,799,799,799,799,799,799,799,799,799,799,799,799,799,799,799,799,799,799,799,799,799,799,799,799,799,799,799,799,799,799,799,799,799,808,820,830,848,879,920,989,996,997,998,998,998,998,1002,1019,1122],"ymouse":[513,513,513,513,513,513,513,513,513,513,513,513,513,513,513,513,513,513,513,513,513,513,513,513,513,513,513,513,513,513,513,513,513,513,513,513,513,513,513,513,510,495,473,430,358,268,112,89,80,79,79,79,79,75,60,10],"timestamp_mouse":[1,18,38,59,80,99,120,138,160,180,199,219,238,259,279,298,318,339,359,380,398,419,439,458,480,500,520,538,560,580,599,619,640,660,680,699,718,739,760,780,799,819,838,859,879,899,918,939,960,978,1000,1020,1038,1058,1079,1098],"xSR":741.5,"ySR":469.95,"xT1":424.9,"yT1":0,"xT2":1058.1,"yT2":0,"toosoon":0,"cond_shown":"randomdotsizeEA","ratio_trial":900,"smaller_num":"18","larger_num":"20","correct_side":2,"subjID":"CAROLCASTILLO32","gender":"1","age":"10","school":"6"},{"start_time":1551801477357,"click_time":1551801478166,"finger_time":1551801478064,"fix_duration":250,"trial":25,"RT":707,"MT":102,"sideResp":2,"stimulus":"img/750/equaldotanddens/R/12_Ratio_750_L_3_R_4.png","xmouse":[760,760,760,760,760,760,760,760,760,760,760,760,760,760,760,760,760,760,760,760,760,760,760,760,760,760,760,760,760,760,760,760,760,763,793,830,876,931,1055,1094,1115],"ymouse":[498,498,498,498,498,498,498,498,498,498,498,498,498,498,498,498,498,498,498,498,498,498,498,498,498,498,498,498,498,498,498,498,498,493,472,444,401,339,184,120,76],"timestamp_mouse":[10,29,48,68,88,109,127,147,169,188,207,227,249,267,288,307,327,349,368,388,408,427,448,467,488,507,528,547,567,588,608,627,649,667,688,707,729,748,768,788,809],"xSR":741.5,"ySR":469.95,"xT1":424.9,"yT1":0,"xT2":1058.1,"yT2":0,"toosoon":0,"cond_shown":"equaldotanddens","ratio_trial":750,"smaller_num":"3","larger_num":"4","correct_side":2,"subjID":"CAROLCASTILLO32","gender":"1","age":"10","school":"6"},{"start_time":1551801480450,"click_time":1551801481585,"finger_time":1551801481224,"fix_duration":484.3667043728749,"trial":26,"RT":774,"MT":361,"sideResp":1,"stimulus":"img/750/equaldotsize/L/6_Ratio_750_L_24_R_18.png","xmouse":[793,793,793,793,793,793,793,793,793,793,793,793,793,793,793,793,793,793,793,793,793,793,793,793,793,793,793,793,793,793,793,793,793,793,793,793,793,776,724,577,491,406,340,298,271,270,270,272,276,277,277,277,293,348,385,423,448],"ymouse":[494,494,494,494,494,494,494,494,494,494,494,494,494,494,494,494,494,494,494,494,494,494,494,494,494,494,494,494,494,494,494,494,494,494,494,495,495,477,411,291,236,194,156,124,74,55,43,35,27,27,27,27,28,35,41,46,50],"timestamp_mouse":[16,36,55,75,94,116,135,156,174,196,216,235,255,275,294,315,335,355,376,396,415,435,455,475,496,516,536,554,575,595,616,636,656,675,696,714,734,755,774,794,815,834,854,875,895,914,935,954,975,994,1016,1035,1055,1075,1095,1115,1135],"xSR":741.5,"ySR":469.95,"xT1":424.9,"yT1":0,"xT2":1058.1,"yT2":0,"toosoon":0,"cond_shown":"equaldotsize","ratio_trial":750,"smaller_num":"18","larger_num":"24","correct_side":1,"subjID":"CAROLCASTILLO32","gender":"1","age":"10","school":"6"},{"start_time":1551801486779,"click_time":1551801487945,"finger_time":1551801487526,"fix_duration":712.7758163876787,"trial":27,"RT":747,"MT":419,"sideResp":2,"stimulus":"img/900/equaldotanddens/L/1_Ratio_900_L_10_R_9.png","xmouse":[784,784,784,784,784,784,784,784,784,784,784,784,784,784,784,784,784,784,784,784,784,784,784,784,784,784,784,784,784,784,784,784,784,784,784,797,809,852,874,889,908,926,948,983,1008,1021,1025,1025,1025,1025,1025,1026,1030,1043,1045,1046,1048,1055,1063],"ymouse":[507,507,507,507,507,507,507,507,507,507,507,507,507,507,507,507,507,507,507,507,507,507,507,507,507,507,507,507,507,507,507,507,507,507,507,490,476,436,415,399,380,364,348,315,277,245,229,212,200,187,172,153,134,110,105,104,102,95,91],"timestamp_mouse":[8,27,45,65,87,105,126,146,166,187,206,225,246,265,287,306,326,346,365,385,406,426,446,466,485,505,527,546,566,585,606,627,645,665,687,706,726,747,765,787,806,826,846,865,886,906,925,946,965,986,1006,1025,1045,1067,1086,1106,1126,1147,1166],"xSR":741.5,"ySR":469.95,"xT1":424.9,"yT1":0,"xT2":1058.1,"yT2":0,"toosoon":0,"cond_shown":"equaldotanddens","ratio_trial":900,"smaller_num":"9","larger_num":"10","correct_side":1,"subjID":"CAROLCASTILLO32","gender":"1","age":"10","school":"6"},{"start_time":1551801489677,"click_time":1551801490685,"finger_time":1551801490344,"fix_duration":850.6310561948401,"trial":28,"RT":667,"MT":341,"sideResp":1,"stimulus":"img/250/equaldotsize/L/15_Ratio_250_L_12_R_3.png","xmouse":[757,757,757,757,757,757,757,757,757,757,757,757,757,757,757,757,757,757,757,757,757,757,757,757,757,757,757,757,757,757,757,757,756,738,708,672,643,601,577,564,552,543,539,525,524,524,524,524,528,528,524],"ymouse":[493,493,493,493,493,493,493,493,493,493,493,493,493,493,493,493,493,493,493,493,493,493,493,493,493,493,493,493,493,493,493,493,491,466,420,370,331,293,276,263,246,229,211,181,179,179,179,168,122,106,86],"timestamp_mouse":[8,29,48,68,89,108,128,147,169,187,209,228,248,268,287,308,329,348,369,389,409,428,448,468,488,508,527,548,568,589,608,627,648,667,689,708,727,748,768,787,808,828,847,867,891,907,929,948,968,988,1008],"xSR":741.5,"ySR":469.95,"xT1":424.9,"yT1":0,"xT2":1058.1,"yT2":0,"toosoon":0,"cond_shown":"equaldotsize","ratio_trial":250,"smaller_num":"3","larger_num":"12","correct_side":1,"subjID":"CAROLCASTILLO32","gender":"1","age":"10","school":"6"},{"start_time":1551801492454,"click_time":1551801493446,"finger_time":1551801493085,"fix_duration":987.830981698314,"trial":29,"RT":631,"MT":361,"sideResp":2,"stimulus":"img/900/equaldotsize/R/12_Ratio_900_L_18_R_20.png","xmouse":[819,819,819,819,819,819,819,819,819,819,819,819,819,819,819,819,819,819,819,819,819,819,819,819,819,819,819,819,819,823,827,835,844,874,900,922,943,956,975,984,997,1015,1030,1051,1056,1057,1057,1057,1058,1073],"ymouse":[488,488,488,488,488,488,488,488,488,488,488,488,488,488,488,488,488,488,488,488,488,488,488,488,488,488,488,488,487,480,475,467,458,431,410,390,370,352,308,286,257,225,197,152,136,124,112,101,80,41],"timestamp_mouse":[12,32,51,72,91,111,131,151,171,190,211,232,251,271,291,311,331,352,371,391,412,432,452,471,490,512,530,551,570,592,610,631,651,671,690,711,731,752,772,791,810,832,851,871,890,910,931,951,970,992],"xSR":741.5,"ySR":469.95,"xT1":424.9,"yT1":0,"xT2":1058.1,"yT2":0,"toosoon":0,"cond_shown":"equaldotsize","ratio_trial":900,"smaller_num":"18","larger_num":"20","correct_side":2,"subjID":"CAROLCASTILLO32","gender":"1","age":"10","school":"6"},{"start_time":1551801495832,"click_time":1551801496945,"finger_time":1551801496525,"fix_duration":1425.1271708703896,"trial":30,"RT":693,"MT":420,"sideResp":2,"stimulus":"img/900/equaldotsize/R/14_Ratio_900_L_18_R_20.png","xmouse":[836,836,836,836,836,836,836,836,836,836,836,836,836,836,836,836,836,836,836,836,836,836,836,836,836,836,836,836,836,836,836,836,836,836,844,863,876,883,892,926,935,944,955,962,976,984,993,1001,1016,1034,1040,1047,1055,1059,1060,1064],"ymouse":[516,516,516,516,516,516,516,516,516,516,516,516,516,516,516,516,516,516,516,516,516,516,516,516,516,516,516,516,516,516,516,516,516,516,507,480,462,441,415,356,344,332,318,305,277,267,255,244,218,186,172,151,127,109,105,86],"timestamp_mouse":[14,37,53,74,93,114,132,153,174,192,214,232,252,273,292,312,334,352,374,393,412,432,453,473,493,513,534,554,573,593,612,634,653,672,693,713,733,753,774,793,814,832,853,872,894,912,933,953,973,993,1012,1032,1054,1073,1092,1113],"xSR":741.5,"ySR":469.95,"xT1":424.9,"yT1":0,"xT2":1058.1,"yT2":0,"toosoon":0,"cond_shown":"equaldotsize","ratio_trial":900,"smaller_num":"18","larger_num":"20","correct_side":2,"subjID":"CAROLCASTILLO32","gender":"1","age":"10","school":"6"},{"start_time":1551801497858,"click_time":1551801499026,"finger_time":1551801498485,"fix_duration":250,"trial":31,"RT":627,"MT":541,"sideResp":1,"stimulus":"img/250/randomdotsizeEA/L/1_Ratio_250_L_8_R_2.png","xmouse":[764,764,764,765,765,765,765,765,765,765,765,765,765,765,765,765,765,765,765,765,765,765,765,765,765,765,765,765,765,765,764,759,751,733,727,721,717,707,696,683,673,665,653,636,631,620,605,588,575,575,575,575,575,575,575,575,574,574,494],"ymouse":[523,523,523,522,522,522,522,522,522,522,522,522,522,522,522,522,522,522,522,522,522,522,522,522,522,522,522,522,522,521,494,455,418,365,350,338,328,297,258,221,198,177,159,136,130,116,100,86,77,77,77,77,77,77,77,77,76,76,30],"timestamp_mouse":[7,34,47,67,87,107,128,147,166,187,207,227,247,266,288,307,328,346,368,386,408,426,447,467,487,507,527,548,566,587,606,627,646,667,686,707,727,746,767,787,806,827,847,867,887,907,928,948,967,986,1007,1026,1048,1068,1087,1108,1127,1146,1168],"xSR":741.5,"ySR":469.95,"xT1":424.9,"yT1":0,"xT2":1058.1,"yT2":0,"toosoon":0,"cond_shown":"randomdotsizeEA","ratio_trial":250,"smaller_num":"2","larger_num":"8","correct_side":1,"subjID":"CAROLCASTILLO32","gender":"1","age":"10","school":"6"},{"start_time":1551801500225,"click_time":1551801503065,"finger_time":1551801500845,"fix_duration":299.3817144974845,"trial":32,"RT":620,"MT":2220,"sideResp":2,"stimulus":"img/250/equaldotanddens/R/10_Ratio_250_L_4_R_16.png","xmouse":[821,812,810,810,810,809,809,809,809,809,809,809,809,811,811,811,811,811,811,811,811,811,811,811,811,811,811,811,812,815,833,865,918,977,1005,1069,1069,1069,1069,1069,1069,1069,1069,1069,1069,1069,1069,1069,1069,1069,1069,1069,1069,1069,1069,1069,1069,1069,1069,1069,1069,1069,1069,1069,1069,1069,1069,1069,1069,1069,1069,1069,1069,1069,1069,1069,1069,1069,1069,1069,1069,1069,1069,1069,1069,1069,1062,920,783,783,783,783,783,783,783,783,783,755,725,677,606,603,602,602,602,602,602,602,601,583,697,808,867,867,867,867,867,867,867,867,867,867,867,867,867,867,867,867,867,867,867,867,867,867,867,867,867,867,867,867,867,1163,1150],"ymouse":[513,511,510,510,510,509,509,509,509,509,509,508,507,506,506,506,506,506,506,506,506,506,506,506,506,506,506,506,504,504,487,446,370,288,246,189,189,189,189,189,189,189,189,189,189,189,189,189,189,189,189,189,189,189,189,189,189,189,189,189,189,189,189,189,189,189,189,189,189,189,189,189,189,189,189,189,189,189,189,189,189,189,189,189,189,189,197,324,444,444,444,444,444,444,444,444,444,468,505,563,695,704,705,705,705,705,705,705,697,646,303,125,39,39,39,39,39,39,39,39,39,39,39,39,39,39,39,39,39,39,39,39,39,39,39,39,39,39,39,39,39,60,97],"timestamp_mouse":[1,28,41,60,79,99,120,140,161,179,199,221,239,260,281,300,320,339,361,381,399,420,441,459,480,499,520,541,559,580,600,620,639,660,680,701,720,739,759,780,801,821,840,860,879,901,920,941,961,980,1000,1020,1041,1061,1080,1099,1119,1140,1160,1181,1200,1221,1240,1261,1280,1300,1321,1341,1360,1379,1400,1421,1440,1459,1479,1501,1520,1541,1561,1581,1601,1619,1641,1660,1679,1700,1719,1740,1761,1781,1801,1819,1840,1861,1881,1899,1919,1941,1960,1981,2000,2020,2039,2060,2080,2099,2120,2140,2160,2181,2200,2220,2240,2260,2280,2301,2320,2341,2360,2381,2401,2420,2441,2460,2479,2499,2521,2540,2561,2581,2600,2621,2639,2660,2680,2700,2721,2740,2760,2780,2800,2821,2840],"xSR":741.5,"ySR":469.95,"xT1":424.9,"yT1":0,"xT2":1058.1,"yT2":0,"toosoon":0,"cond_shown":"equaldotanddens","ratio_trial":250,"smaller_num":"4","larger_num":"16","correct_side":2,"subjID":"CAROLCASTILLO32","gender":"1","age":"10","school":"6"},{"start_time":1551801506247,"click_time":1551801507225,"finger_time":1551801506984,"fix_duration":779.4610119262353,"trial":33,"RT":737,"MT":241,"sideResp":1,"stimulus":"img/500/randomdotsizeEA/L/13_Ratio_500_L_12_R_6.png","xmouse":[775,775,775,775,775,775,775,775,775,775,775,775,775,775,775,775,775,775,775,775,775,775,775,775,775,775,775,775,775,775,775,775,775,775,775,762,738,717,630,602,589,586,586,587,590,582,567,552,514],"ymouse":[523,523,523,523,523,523,523,523,523,523,523,523,523,523,523,523,523,523,523,523,523,523,523,523,523,523,523,523,523,523,523,523,523,523,523,512,491,456,361,333,313,295,280,261,195,153,106,78,51],"timestamp_mouse":[27,38,57,77,98,117,138,157,177,198,218,238,257,278,297,318,340,357,378,398,418,438,458,478,498,517,537,558,578,597,619,638,657,677,697,717,737,758,778,798,818,838,858,878,898,917,937,958,978],"xSR":741.5,"ySR":469.95,"xT1":424.9,"yT1":0,"xT2":1058.1,"yT2":0,"toosoon":0,"cond_shown":"randomdotsizeEA","ratio_trial":500,"smaller_num":"6","larger_num":"12","correct_side":1,"subjID":"CAROLCASTILLO32","gender":"1","age":"10","school":"6"},{"start_time":1551801513269,"click_time":1551801514265,"finger_time":1551801513925,"fix_duration":1423.063102653328,"trial":34,"RT":656,"MT":340,"sideResp":1,"stimulus":"img/500/equaldotsize/L/10_Ratio_500_L_4_R_2.png","xmouse":[811,811,811,811,811,811,811,811,811,811,811,811,811,811,811,811,811,811,811,811,811,811,811,811,811,811,811,811,811,811,811,802,756,726,685,632,570,525,466,458,452,448,446,446,446,446,446,446,446,448],"ymouse":[490,490,490,490,490,490,490,490,490,490,490,490,490,490,490,490,490,490,490,490,490,490,490,490,490,490,490,490,490,490,490,475,406,379,350,311,268,233,173,157,140,121,104,103,103,103,103,103,101,96],"timestamp_mouse":[16,37,57,75,96,116,135,155,177,195,217,235,256,275,297,317,336,356,375,397,416,436,456,475,495,516,536,556,575,595,616,635,656,675,696,716,736,755,777,796,817,835,856,876,895,916,937,957,976,995],"xSR":741.5,"ySR":469.95,"xT1":424.9,"yT1":0,"xT2":1058.1,"yT2":0,"toosoon":0,"cond_shown":"equaldotsize","ratio_trial":500,"smaller_num":"2","larger_num":"4","correct_side":1,"subjID":"CAROLCASTILLO32","gender":"1","age":"10","school":"6"},{"start_time":1551801517710,"click_time":1551801519084,"finger_time":1551801518444,"fix_duration":1344.52043282745,"trial":35,"RT":734,"MT":640,"sideResp":1,"stimulus":"img/750/equaldotanddens/L/8_Ratio_750_L_4_R_3.png","xmouse":[793,793,793,793,793,793,793,793,793,793,793,793,793,793,793,793,793,793,793,793,793,793,793,793,793,793,793,793,793,793,793,793,793,793,793,795,800,804,809,813,816,817,817,817,813,786,762,733,703,682,647,628,612,596,582,554,550,549,549,549,549,548,548,546,546,543,540,533,523],"ymouse":[507,507,507,507,507,507,507,507,507,507,507,507,507,507,507,507,507,507,507,507,507,507,507,507,507,507,507,507,507,507,507,507,507,507,504,471,454,440,425,409,394,363,353,343,334,306,293,276,258,245,215,202,191,179,170,143,134,122,111,102,89,87,82,79,77,72,69,66,61],"timestamp_mouse":[15,34,55,75,96,116,134,156,176,195,215,234,256,276,296,315,335,355,374,395,416,435,456,475,495,515,536,555,575,595,614,635,655,675,695,715,734,755,776,795,815,835,855,875,894,915,935,954,975,995,1015,1035,1055,1075,1095,1115,1135,1154,1176,1195,1215,1234,1256,1275,1296,1315,1334,1354,1374],"xSR":741.5,"ySR":469.95,"xT1":424.9,"yT1":0,"xT2":1058.1,"yT2":0,"toosoon":0,"cond_shown":"equaldotanddens","ratio_trial":750,"smaller_num":"3","larger_num":"4","correct_side":1,"subjID":"CAROLCASTILLO32","gender":"1","age":"10","school":"6"},{"start_time":1551801520894,"click_time":1551801522045,"finger_time":1551801521264,"fix_duration":1008.2962612350523,"trial":36,"RT":370,"MT":781,"sideResp":1,"stimulus":"img/900/equaldotanddens/R/13_Ratio_900_L_18_R_20.png","xmouse":[834,834,834,834,834,834,834,834,834,834,834,834,834,834,834,834,834,833,844,846,846,846,846,846,846,846,846,840,832,822,815,798,785,770,749,721,692,665,651,633,615,591,587,578,566,553,534,527,526,525,523,521,520,517,516,516,512,511],"ymouse":[483,483,483,483,483,483,483,483,483,483,483,483,483,483,483,483,483,482,482,482,482,482,482,482,482,482,477,468,459,448,441,427,415,400,377,342,305,271,252,229,206,184,180,176,169,162,148,143,142,141,140,139,135,129,125,124,104,95],"timestamp_mouse":[10,31,51,71,91,111,130,151,171,191,211,232,252,272,292,311,332,351,370,392,412,432,452,471,490,512,531,550,571,591,611,632,650,672,691,711,731,751,770,791,810,832,851,871,891,910,932,951,970,991,1010,1031,1051,1071,1091,1111,1131,1151],"xSR":741.5,"ySR":469.95,"xT1":424.9,"yT1":0,"xT2":1058.1,"yT2":0,"toosoon":0,"cond_shown":"equaldotanddens","ratio_trial":900,"smaller_num":"18","larger_num":"20","correct_side":2,"subjID":"CAROLCASTILLO32","gender":"1","age":"10","school":"6"},{"start_time":1551801525572,"click_time":1551801526686,"finger_time":1551801526146,"fix_duration":264.02344923303656,"trial":37,"RT":574,"MT":540,"sideResp":1,"stimulus":"img/250/randomdotsizeEA/L/5_Ratio_250_L_24_R_6.png","xmouse":[806,806,806,806,806,806,806,806,806,806,806,806,806,806,806,806,806,806,806,806,806,806,806,806,806,806,806,798,762,721,671,609,436,412,395,390,390,390,390,390,390,393,399,410,415,417,417,417,417,417,417,417,417,417,420,429],"ymouse":[496,496,496,496,496,496,496,496,496,496,496,496,496,496,496,496,496,496,496,496,496,496,496,496,496,496,496,488,448,409,361,304,157,133,117,111,110,107,105,102,97,89,79,71,70,69,69,69,69,69,69,69,69,69,67,57],"timestamp_mouse":[13,33,54,74,94,114,133,153,174,193,215,233,254,274,295,313,334,354,374,393,415,434,453,475,494,514,533,554,574,594,613,633,655,673,693,713,733,753,773,794,813,834,853,873,893,913,933,954,974,993,1014,1033,1054,1075,1093,1114],"xSR":741.5,"ySR":469.95,"xT1":424.9,"yT1":0,"xT2":1058.1,"yT2":0,"toosoon":0,"cond_shown":"randomdotsizeEA","ratio_trial":250,"smaller_num":"6","larger_num":"24","correct_side":1,"subjID":"CAROLCASTILLO32","gender":"1","age":"10","school":"6"},{"start_time":1551801530436,"click_time":1551801531345,"finger_time":1551801531065,"fix_duration":1308.7826625341534,"trial":38,"RT":629,"MT":280,"sideResp":2,"stimulus":"img/250/randomdotsizeEA/R/12_Ratio_250_L_5_R_20.png","xmouse":[776,776,776,776,776,776,776,776,776,776,776,776,776,776,776,776,776,776,776,776,776,776,776,776,776,776,776,776,776,776,777,785,797,815,876,911,939,956,968,989,996,1005,1013,1024,1052,1066],"ymouse":[504,504,504,504,504,504,504,504,504,504,504,504,504,504,504,504,504,504,504,504,504,504,504,504,504,504,504,504,504,504,491,464,433,382,283,231,192,161,142,104,88,74,61,46,18,7],"timestamp_mouse":[18,38,49,69,90,109,130,151,169,189,210,231,249,269,291,309,329,350,371,389,411,429,449,471,490,510,529,549,569,590,610,629,650,669,690,709,730,749,769,789,809,829,850,870,891,909],"xSR":741.5,"ySR":469.95,"xT1":424.9,"yT1":0,"xT2":1058.1,"yT2":0,"toosoon":0,"cond_shown":"randomdotsizeEA","ratio_trial":250,"smaller_num":"5","larger_num":"20","correct_side":2,"subjID":"CAROLCASTILLO32","gender":"1","age":"10","school":"6"},{"start_time":1551801534159,"click_time":1551801535226,"finger_time":1551801534965,"fix_duration":631.8827215471815,"trial":39,"RT":806,"MT":261,"sideResp":1,"stimulus":"img/900/equaldotsize/L/4_Ratio_900_L_20_R_18.png","xmouse":[792,792,792,792,792,792,792,792,792,792,792,792,792,792,792,792,792,792,792,792,792,792,792,792,792,792,792,792,792,792,792,792,792,792,792,792,792,792,792,792,783,746,697,659,615,606,597,588,576,566,557,550,542,520],"ymouse":[503,503,503,503,503,503,503,503,503,503,503,503,503,503,503,503,503,503,503,503,503,503,503,503,503,503,503,503,503,503,503,503,503,503,503,503,503,503,503,503,464,373,283,214,142,130,122,114,107,102,98,97,94,83],"timestamp_mouse":[8,26,46,68,87,107,126,146,166,187,207,227,246,266,287,308,326,346,366,386,407,427,446,466,486,506,527,547,566,588,608,627,646,667,686,707,726,746,768,786,806,826,847,866,887,906,927,946,967,986,1006,1026,1047,1067],"xSR":741.5,"ySR":469.95,"xT1":424.9,"yT1":0,"xT2":1058.1,"yT2":0,"toosoon":0,"cond_shown":"equaldotsize","ratio_trial":900,"smaller_num":"18","larger_num":"20","correct_side":1,"subjID":"CAROLCASTILLO32","gender":"1","age":"10","school":"6"},{"start_time":1551801537089,"click_time":1551801538286,"finger_time":1551801538066,"fix_duration":1002.4987262021916,"trial":40,"RT":977,"MT":220,"sideResp":1,"stimulus":"img/750/equaldotanddens/L/10_Ratio_750_L_4_R_3.png","xmouse":[782,782,782,782,782,782,782,782,782,782,782,782,782,782,782,782,782,782,782,782,782,782,782,782,782,782,782,782,782,782,782,782,782,782,782,782,782,782,782,782,782,782,782,782,782,782,782,768,750,729,694,643,521,498,492,491,493,494,496,496],"ymouse":[506,506,506,506,506,506,506,506,506,506,506,506,506,506,506,506,506,506,506,506,506,506,506,506,506,506,506,506,506,506,506,506,506,506,506,506,506,506,506,506,506,506,506,506,506,506,503,484,462,443,404,340,193,162,152,146,136,127,111,95],"timestamp_mouse":[23,38,57,77,97,118,136,158,176,198,216,236,257,276,298,318,336,357,377,397,418,437,457,477,498,517,537,557,577,596,617,636,657,677,696,717,738,757,778,797,817,837,857,876,896,918,937,957,977,997,1016,1037,1056,1078,1097,1117,1137,1156,1176,1197],"xSR":741.5,"ySR":469.95,"xT1":424.9,"yT1":0,"xT2":1058.1,"yT2":0,"toosoon":0,"cond_shown":"equaldotanddens","ratio_trial":750,"smaller_num":"3","larger_num":"4","correct_side":1,"subjID":"CAROLCASTILLO32","gender":"1","age":"10","school":"6"},{"start_time":1551801540123,"click_time":1551801541326,"finger_time":1551801540807,"fix_duration":915.5186468250075,"trial":41,"RT":684,"MT":519,"sideResp":1,"stimulus":"img/250/equaldotanddens/L/1_Ratio_250_L_8_R_2.png","xmouse":[813,813,813,813,813,813,813,813,813,813,813,813,813,813,813,813,813,813,813,813,813,813,813,813,813,813,813,813,813,813,813,813,811,802,750,709,698,690,685,680,666,659,654,648,643,637,624,614,605,601,594,590,582,573,564,549,542,535,531,528,517],"ymouse":[522,522,522,522,522,522,522,522,522,522,522,522,522,522,522,522,522,522,522,522,522,522,522,522,522,522,522,522,522,522,522,522,517,509,459,411,394,378,366,357,333,320,309,299,288,277,262,244,230,222,209,200,185,169,156,130,123,117,113,109,92],"timestamp_mouse":[8,30,42,63,83,102,123,142,164,183,202,223,242,264,284,302,322,342,363,382,402,423,444,462,483,504,522,543,564,582,602,623,642,662,684,703,722,742,762,782,804,822,843,862,883,902,924,942,962,982,1003,1022,1043,1063,1082,1103,1123,1142,1164,1183,1203],"xSR":741.5,"ySR":469.95,"xT1":424.9,"yT1":0,"xT2":1058.1,"yT2":0,"toosoon":0,"cond_shown":"equaldotanddens","ratio_trial":250,"smaller_num":"2","larger_num":"8","correct_side":1,"subjID":"CAROLCASTILLO32","gender":"1","age":"10","school":"6"},{"start_time":1551801543044,"click_time":1551801544346,"finger_time":1551801543686,"fix_duration":716.5065948237328,"trial":42,"RT":642,"MT":660,"sideResp":2,"stimulus":"img/750/equaldotsize/R/5_Ratio_750_L_15_R_20.png","xmouse":[794,794,794,794,794,794,794,794,794,794,794,794,794,794,794,794,794,794,794,794,794,794,794,794,794,794,794,794,794,794,807,820,838,875,907,953,988,1030,1049,1057,1073,1083,1093,1108,1145,1167,1187,1202,1206,1208,1208,1207,1206,1205,1197,1191,1187,1184,1183,1178,1175,1173,1169,1166,1163,1157],"ymouse":[525,525,525,525,525,525,525,525,525,525,525,525,525,525,525,525,525,525,525,525,525,525,525,525,525,525,525,525,525,525,502,483,454,401,357,299,271,248,234,220,185,169,153,136,104,91,79,71,67,66,65,64,63,62,58,55,53,52,52,52,52,52,52,52,52,52],"timestamp_mouse":[8,28,42,63,81,102,122,141,163,181,201,223,241,261,283,302,321,341,362,382,403,422,441,462,483,502,522,541,562,581,602,622,642,661,682,701,721,742,763,781,802,821,842,861,882,901,921,942,962,981,1002,1021,1041,1062,1082,1101,1121,1143,1163,1182,1201,1221,1242,1261,1282,1301],"xSR":741.5,"ySR":469.95,"xT1":424.9,"yT1":0,"xT2":1058.1,"yT2":0,"toosoon":0,"cond_shown":"equaldotsize","ratio_trial":750,"smaller_num":"15","larger_num":"20","correct_side":2,"subjID":"CAROLCASTILLO32","gender":"1","age":"10","school":"6"},{"start_time":1551801545536,"click_time":1551801546525,"finger_time":1551801546146,"fix_duration":288.22836415836395,"trial":43,"RT":610,"MT":379,"sideResp":1,"stimulus":"img/500/equaldotanddens/L/13_Ratio_500_L_12_R_6.png","xmouse":[829,829,829,829,829,829,829,829,829,829,829,829,829,829,829,829,829,829,829,829,829,829,829,829,829,829,829,829,829,817,792,756,713,677,654,628,619,604,592,572,568,562,557,553,550,543,536,531,528,521],"ymouse":[492,492,492,492,492,492,492,492,492,492,492,492,492,492,492,492,492,492,492,492,492,492,492,492,492,492,492,492,492,472,439,392,338,302,277,248,234,214,193,161,149,136,125,118,113,88,66,46,28,5],"timestamp_mouse":[9,34,51,70,90,109,129,149,169,191,210,229,249,271,289,310,329,349,370,390,409,430,450,469,490,509,531,549,569,589,610,630,649,669,690,709,729,750,769,790,809,830,849,870,889,910,930,950,969,989],"xSR":741.5,"ySR":469.95,"xT1":424.9,"yT1":0,"xT2":1058.1,"yT2":0,"toosoon":0,"cond_shown":"equaldotanddens","ratio_trial":500,"smaller_num":"6","larger_num":"12","correct_side":1,"subjID":"CAROLCASTILLO32","gender":"1","age":"10","school":"6"},{"start_time":1551801547377,"click_time":1551801548545,"finger_time":1551801548046,"fix_duration":250,"trial":44,"RT":669,"MT":499,"sideResp":2,"stimulus":"img/900/randomdotsizeEA/R/9_Ratio_900_L_18_R_20.png","xmouse":[802,802,802,802,802,802,802,802,802,802,802,802,802,802,802,802,802,802,802,802,802,802,802,802,802,802,802,802,802,802,808,821,840,846,851,858,870,907,920,929,938,952,1016,1046,1071,1091,1107,1120,1123,1124,1126,1126,1126,1126,1126,1126,1126,1126,1126],"ymouse":[546,546,546,546,546,546,546,546,546,546,546,546,546,546,546,546,546,546,546,546,546,546,546,546,546,546,546,546,546,546,538,521,489,478,468,451,422,336,311,295,282,265,208,187,169,155,143,130,125,123,119,118,109,107,105,102,101,100,98],"timestamp_mouse":[9,28,48,68,89,109,128,150,168,190,209,230,249,269,290,308,328,349,370,388,408,429,449,468,488,510,529,550,568,590,609,630,649,669,688,709,729,749,768,789,808,828,848,868,888,908,928,948,968,989,1008,1028,1048,1068,1088,1109,1129,1149,1168],"xSR":741.5,"ySR":469.95,"xT1":424.9,"yT1":0,"xT2":1058.1,"yT2":0,"toosoon":0,"cond_shown":"randomdotsizeEA","ratio_trial":900,"smaller_num":"18","larger_num":"20","correct_side":2,"subjID":"CAROLCASTILLO32","gender":"1","age":"10","school":"6"},{"start_time":1551801551381,"click_time":1551801552846,"finger_time":1551801552146,"fix_duration":513.40238331057,"trial":45,"RT":765,"MT":700,"sideResp":1,"stimulus":"img/500/equaldotanddens/R/2_Ratio_500_L_3_R_6.png","xmouse":[789,789,789,789,789,789,789,789,789,789,789,789,789,789,789,789,789,789,789,789,789,789,789,789,789,789,789,789,789,789,789,789,789,789,789,789,788,776,761,750,742,738,736,732,724,719,713,700,692,687,676,670,666,649,631,612,574,574,574,574,574,574,574,574,574,574,574,574,574,419,421,423,424,428],"ymouse":[522,522,522,522,522,522,522,522,522,522,522,522,522,522,522,522,522,522,522,522,522,522,522,522,522,522,522,522,522,522,522,522,522,522,522,522,522,485,438,416,403,397,396,392,384,380,376,365,359,354,340,332,324,276,219,153,23,23,23,23,23,23,23,23,23,23,23,23,23,1,3,4,5,7],"timestamp_mouse":[10,27,45,64,85,105,125,144,165,185,206,224,245,266,285,304,324,344,365,384,406,424,445,465,485,505,524,545,564,586,604,625,646,665,685,705,724,745,765,786,805,825,844,865,884,904,924,944,964,984,1004,1024,1045,1065,1084,1104,1124,1145,1165,1186,1205,1225,1245,1264,1285,1305,1324,1345,1365,1385,1404,1424,1444,1465],"xSR":741.5,"ySR":469.95,"xT1":424.9,"yT1":0,"xT2":1058.1,"yT2":0,"toosoon":0,"cond_shown":"equaldotanddens","ratio_trial":500,"smaller_num":"3","larger_num":"6","correct_side":2,"subjID":"CAROLCASTILLO32","gender":"1","age":"10","school":"6"},{"start_time":1551801554757,"click_time":1551801556127,"finger_time":1551801555567,"fix_duration":250,"trial":46,"RT":810,"MT":560,"sideResp":1,"stimulus":"img/500/randomdotsizeEA/L/13_Ratio_500_L_12_R_6.png","xmouse":[806,806,806,806,806,806,806,806,806,806,806,806,806,806,806,806,806,806,806,806,806,806,806,806,806,806,806,806,806,806,806,806,806,806,806,806,806,806,803,787,758,716,680,632,628,628,628,628,628,628,629,631,631,631,627,622,611,604,589,588,588,588,588,588,588,588,586,578,520],"ymouse":[515,515,515,515,515,515,515,515,515,515,515,515,515,515,515,515,515,515,515,515,515,515,515,515,515,515,515,515,515,515,515,515,515,515,515,515,515,515,509,489,446,364,297,211,201,199,199,199,197,193,189,185,180,175,159,149,134,127,105,103,103,103,103,103,103,101,99,93,80],"timestamp_mouse":[10,29,49,69,88,108,130,150,168,189,209,230,249,269,289,310,328,349,368,389,409,429,449,469,489,509,528,549,568,588,609,629,648,668,688,709,728,750,770,788,810,828,848,868,888,909,928,949,969,988,1009,1029,1048,1068,1088,1109,1129,1149,1169,1188,1208,1230,1250,1269,1289,1309,1329,1348,1370],"xSR":741.5,"ySR":469.95,"xT1":424.9,"yT1":0,"xT2":1058.1,"yT2":0,"toosoon":0,"cond_shown":"randomdotsizeEA","ratio_trial":500,"smaller_num":"6","larger_num":"12","correct_side":1,"subjID":"CAROLCASTILLO32","gender":"1","age":"10","school":"6"},{"start_time":1551801558094,"click_time":1551801559447,"finger_time":1551801559025,"fix_duration":607.9459595296513,"trial":47,"RT":931,"MT":422,"sideResp":1,"stimulus":"img/900/randomdotsizeEA/L/2_Ratio_900_L_20_R_18.png","xmouse":[764,764,764,764,764,764,764,764,764,764,764,764,764,764,764,764,764,764,764,764,764,764,764,764,764,764,764,764,764,764,764,764,764,764,764,764,764,764,764,764,764,764,761,759,752,747,730,725,720,706,682,597,551,551,551,551,551,551,551,551,551,551,551,551,551,551,551,514],"ymouse":[522,522,522,522,522,522,522,522,522,522,522,522,522,522,522,522,522,522,522,522,522,522,522,522,522,522,522,522,522,522,522,522,522,522,522,522,522,522,522,522,522,520,511,503,492,479,438,421,399,352,273,82,2,2,2,2,2,2,2,2,2,2,2,2,2,2,2,7],"timestamp_mouse":[11,31,52,71,93,112,131,152,171,193,212,232,252,272,292,311,331,353,372,392,412,431,453,471,491,512,531,551,573,591,612,631,652,671,691,712,731,751,772,793,813,831,851,872,891,911,931,952,971,991,1011,1032,1051,1071,1091,1111,1132,1151,1172,1191,1211,1231,1251,1272,1292,1311,1331,1352],"xSR":741.5,"ySR":469.95,"xT1":424.9,"yT1":0,"xT2":1058.1,"yT2":0,"toosoon":0,"cond_shown":"randomdotsizeEA","ratio_trial":900,"smaller_num":"18","larger_num":"20","correct_side":1,"subjID":"CAROLCASTILLO32","gender":"1","age":"10","school":"6"},{"start_time":1551801561074,"click_time":1551801562026,"finger_time":1551801561745,"fix_duration":445.9263923261291,"trial":48,"RT":671,"MT":281,"sideResp":1,"stimulus":"img/250/randomdotsizeEA/L/7_Ratio_250_L_8_R_2.png","xmouse":[781,781,781,781,781,781,781,781,781,781,781,781,781,781,781,781,781,781,781,781,781,781,781,781,781,781,781,781,781,779,778,775,766,735,699,644,588,492,475,469,467,466,463,460,458,456,456,454],"ymouse":[521,521,521,521,521,521,521,521,521,521,521,521,521,521,521,521,521,521,521,521,521,521,521,521,521,521,521,521,521,521,521,515,500,466,441,403,369,280,255,240,228,213,179,162,142,126,112,96],"timestamp_mouse":[13,32,52,71,91,111,133,151,173,191,211,232,252,271,292,313,331,352,371,391,412,433,451,473,492,512,532,552,572,591,612,631,652,671,692,712,731,751,771,791,813,831,852,873,891,911,931,952],"xSR":741.5,"ySR":469.95,"xT1":424.9,"yT1":0,"xT2":1058.1,"yT2":0,"toosoon":0,"cond_shown":"randomdotsizeEA","ratio_trial":250,"smaller_num":"2","larger_num":"8","correct_side":1,"subjID":"CAROLCASTILLO32","gender":"1","age":"10","school":"6"},{"start_time":1551801564246,"click_time":1551801565545,"finger_time":1551801564967,"fix_duration":1298.1335453269564,"trial":49,"RT":721,"MT":578,"sideResp":2,"stimulus":"img/750/randomdotsizeEA/R/12_Ratio_750_L_3_R_4.png","xmouse":[767,767,767,767,767,767,767,767,767,767,767,767,767,767,767,767,767,767,767,767,767,767,767,767,767,767,767,767,767,767,767,770,774,775,791,809,849,908,972,1015,1061,1071,1078,1085,1095,1102,1108,1110,1111,1104,1099,1096,1094,1093,1091,1091,1091,1090,1090,1090,1090,1090,1090,1091,1092,1093],"ymouse":[539,539,539,539,539,539,539,539,539,539,539,539,539,539,539,539,539,539,539,539,539,539,539,539,539,539,539,539,539,539,539,539,537,536,528,517,492,460,423,397,357,341,321,300,260,244,231,223,213,184,175,169,163,160,153,151,151,149,144,139,134,130,125,117,102,97],"timestamp_mouse":[9,30,40,60,79,100,120,141,159,179,200,219,240,259,280,301,321,340,360,379,399,419,439,461,480,500,521,539,559,580,599,620,640,660,680,700,721,740,761,779,799,819,840,859,880,900,919,939,961,980,999,1019,1039,1060,1080,1099,1119,1139,1160,1180,1200,1219,1239,1261,1280,1299],"xSR":741.5,"ySR":469.95,"xT1":424.9,"yT1":0,"xT2":1058.1,"yT2":0,"toosoon":0,"cond_shown":"randomdotsizeEA","ratio_trial":750,"smaller_num":"3","larger_num":"4","correct_side":2,"subjID":"CAROLCASTILLO32","gender":"1","age":"10","school":"6"},{"start_time":1551801566758,"click_time":1551801567906,"finger_time":1551801567325,"fix_duration":250,"trial":50,"RT":567,"MT":581,"sideResp":1,"stimulus":"img/250/randomdotsizeEA/L/14_Ratio_250_L_12_R_3.png","xmouse":[813,813,813,813,813,813,813,813,813,813,813,813,813,813,813,813,813,813,813,813,813,813,813,813,813,813,813,811,799,787,774,764,751,697,687,676,665,653,620,614,614,614,609,596,581,570,562,556,550,550,550,550,550,543,536,529,526,517],"ymouse":[474,474,474,474,474,474,474,474,474,474,474,474,474,474,474,474,474,474,474,474,474,474,474,474,474,474,474,472,458,443,426,405,363,203,180,163,144,123,74,67,67,67,67,67,67,67,67,67,67,67,67,67,67,66,66,66,66,66],"timestamp_mouse":[8,33,48,68,89,109,127,149,167,187,208,227,248,269,288,307,328,349,367,389,408,427,448,469,487,508,527,547,567,587,608,627,648,667,687,707,727,747,768,789,808,827,847,867,887,908,927,947,967,987,1008,1027,1048,1067,1087,1108,1127,1148],"xSR":741.5,"ySR":469.95,"xT1":424.9,"yT1":0,"xT2":1058.1,"yT2":0,"toosoon":0,"cond_shown":"randomdotsizeEA","ratio_trial":250,"smaller_num":"3","larger_num":"12","correct_side":1,"subjID":"CAROLCASTILLO32","gender":"1","age":"10","school":"6"},{"start_time":1551801570317,"click_time":1551801571166,"finger_time":1551801570966,"fix_duration":250,"trial":51,"RT":649,"MT":200,"sideResp":2,"stimulus":"img/750/equaldotsize/R/12_Ratio_750_L_3_R_4.png","xmouse":[808,808,808,808,808,808,808,808,808,808,808,808,808,808,808,808,808,808,808,808,808,808,808,808,808,808,808,808,808,808,808,818,833,866,911,995,1023,1038,1042,1046,1055,1057,1065],"ymouse":[513,513,513,513,513,513,513,513,513,513,513,513,513,513,513,513,513,513,513,513,513,513,513,513,513,513,513,513,513,512,506,490,465,416,344,200,156,129,123,112,93,86,77],"timestamp_mouse":[11,33,48,69,88,108,129,149,168,188,209,228,248,269,288,309,328,349,368,388,409,429,448,469,489,508,529,548,568,589,609,628,649,668,689,709,728,748,768,788,809,828,849],"xSR":741.5,"ySR":469.95,"xT1":424.9,"yT1":0,"xT2":1058.1,"yT2":0,"toosoon":0,"cond_shown":"equaldotsize","ratio_trial":750,"smaller_num":"3","larger_num":"4","correct_side":2,"subjID":"CAROLCASTILLO32","gender":"1","age":"10","school":"6"},{"start_time":1551801572614,"click_time":1551801573526,"finger_time":1551801573225,"fix_duration":628.3743826143369,"trial":52,"RT":611,"MT":301,"sideResp":1,"stimulus":"img/500/equaldotsize/L/13_Ratio_500_L_12_R_6.png","xmouse":[799,799,799,799,799,799,799,799,799,799,799,799,799,799,799,799,799,799,799,799,799,799,799,799,799,799,799,799,799,799,783,773,751,711,677,614,606,606,608,609,610,610,609,605,595,517],"ymouse":[487,487,487,487,487,487,487,487,487,487,487,487,487,487,487,487,487,487,487,487,487,487,487,487,487,487,487,487,484,482,456,436,378,279,193,50,37,29,25,23,18,16,14,12,10,8],"timestamp_mouse":[11,31,53,71,92,113,131,151,172,191,212,232,252,271,292,312,332,353,372,391,413,432,452,472,491,513,532,551,571,591,611,631,651,672,692,712,731,751,771,793,812,831,851,872,892,912],"xSR":741.5,"ySR":469.95,"xT1":424.9,"yT1":0,"xT2":1058.1,"yT2":0,"toosoon":0,"cond_shown":"equaldotsize","ratio_trial":500,"smaller_num":"6","larger_num":"12","correct_side":1,"subjID":"CAROLCASTILLO32","gender":"1","age":"10","school":"6"},{"start_time":1551801574877,"click_time":1551801575906,"finger_time":1551801575465,"fix_duration":250,"trial":53,"RT":588,"MT":441,"sideResp":1,"stimulus":"img/500/equaldotanddens/L/11_Ratio_500_L_12_R_6.png","xmouse":[758,758,758,758,758,758,758,758,758,758,758,758,758,758,758,758,758,758,758,758,758,758,758,758,758,758,758,757,752,741,730,718,683,654,613,579,557,545,545,545,545,545,545,545,545,545,545,545,545,545,545,479],"ymouse":[531,531,531,531,531,531,531,531,531,531,531,531,531,531,531,531,531,531,531,531,531,531,531,531,531,531,530,525,507,472,432,386,263,186,114,55,25,4,4,4,4,4,4,4,4,4,4,4,4,4,4,8],"timestamp_mouse":[9,28,49,69,89,110,130,148,168,189,208,229,249,268,290,309,328,348,370,388,408,430,448,468,489,508,528,549,568,588,609,628,649,668,688,708,729,749,769,788,809,828,849,868,888,908,928,948,968,988,1009,1029],"xSR":741.5,"ySR":469.95,"xT1":424.9,"yT1":0,"xT2":1058.1,"yT2":0,"toosoon":0,"cond_shown":"equaldotanddens","ratio_trial":500,"smaller_num":"6","larger_num":"12","correct_side":1,"subjID":"CAROLCASTILLO32","gender":"1","age":"10","school":"6"},{"start_time":1551801579274,"click_time":1551801579965,"finger_time":1551801579806,"fix_duration":927.6675273257542,"trial":54,"RT":532,"MT":159,"sideResp":2,"stimulus":"img/250/equaldotanddens/R/11_Ratio_250_L_3_R_12.png","xmouse":[771,771,771,771,771,771,771,771,771,771,771,771,771,771,771,771,771,771,771,771,771,771,771,771,777,788,814,850,941,965,984,1001,1053,1076,1095],"ymouse":[506,506,506,506,506,506,506,506,506,506,506,506,506,506,506,506,506,506,506,506,506,506,506,503,492,476,445,404,305,269,239,208,136,109,85],"timestamp_mouse":[11,32,52,73,93,112,131,152,171,192,212,232,252,271,293,311,331,352,371,391,413,431,453,471,493,511,532,552,571,591,611,632,652,671,691],"xSR":741.5,"ySR":469.95,"xT1":424.9,"yT1":0,"xT2":1058.1,"yT2":0,"toosoon":0,"cond_shown":"equaldotanddens","ratio_trial":250,"smaller_num":"3","larger_num":"12","correct_side":2,"subjID":"CAROLCASTILLO32","gender":"1","age":"10","school":"6"},{"start_time":1551801582887,"click_time":1551801583785,"finger_time":1551801583506,"fix_duration":419.3800215273529,"trial":55,"RT":619,"MT":279,"sideResp":1,"stimulus":"img/250/equaldotanddens/L/5_Ratio_250_L_24_R_6.png","xmouse":[778,778,778,778,778,778,778,778,778,778,778,778,778,778,778,778,778,778,778,778,778,778,778,778,778,778,778,778,770,764,749,723,705,687,667,651,631,543,507,474,455,442,440,439,439],"ymouse":[500,500,500,500,500,500,500,500,500,500,500,500,500,500,500,500,500,500,500,500,500,500,500,500,500,500,500,500,491,477,439,392,357,321,289,268,244,193,182,176,164,144,128,105,85],"timestamp_mouse":[20,38,58,78,99,119,138,159,180,199,219,238,259,278,298,318,339,358,378,398,418,438,458,479,500,518,539,559,578,599,619,639,658,679,699,719,738,758,778,798,819,838,858,879,898],"xSR":741.5,"ySR":469.95,"xT1":424.9,"yT1":0,"xT2":1058.1,"yT2":0,"toosoon":0,"cond_shown":"equaldotanddens","ratio_trial":250,"smaller_num":"6","larger_num":"24","correct_side":1,"subjID":"CAROLCASTILLO32","gender":"1","age":"10","school":"6"},{"start_time":1551801587473,"click_time":1551801588726,"finger_time":1551801588206,"fix_duration":346.37757842551343,"trial":56,"RT":733,"MT":520,"sideResp":1,"stimulus":"img/250/equaldotsize/L/2_Ratio_250_L_16_R_4.png","xmouse":[813,813,813,813,813,813,813,813,813,813,813,813,813,813,813,813,813,813,813,813,813,813,813,813,813,813,813,813,813,813,813,813,813,808,796,768,732,659,633,620,609,606,602,602,602,602,602,592,581,564,538,501,442,421,408,403,402,406,409,412,416,419,425],"ymouse":[533,533,533,533,533,533,533,533,533,533,533,533,533,533,533,533,533,533,533,533,533,533,533,533,533,533,533,533,533,533,533,533,533,529,522,497,477,437,413,390,355,326,310,310,310,310,310,292,275,250,214,178,126,107,89,79,74,66,62,60,59,57,57],"timestamp_mouse":[13,34,53,73,93,112,134,153,172,193,212,232,254,272,293,313,334,352,373,393,413,433,452,474,492,513,534,553,573,593,612,634,654,673,693,713,733,752,772,792,814,833,853,873,894,913,932,952,972,993,1013,1032,1053,1072,1093,1112,1133,1152,1173,1192,1213,1232,1253],"xSR":741.5,"ySR":469.95,"xT1":424.9,"yT1":0,"xT2":1058.1,"yT2":0,"toosoon":0,"cond_shown":"equaldotsize","ratio_trial":250,"smaller_num":"4","larger_num":"16","correct_side":1,"subjID":"CAROLCASTILLO32","gender":"1","age":"10","school":"6"},{"start_time":1551801592767,"click_time":1551801593426,"finger_time":1551801593326,"fix_duration":840.03472978824,"trial":57,"RT":559,"MT":100,"sideResp":2,"stimulus":"img/250/equaldotsize/R/11_Ratio_250_L_3_R_12.png","xmouse":[799,799,799,799,799,799,799,799,799,799,799,799,799,799,799,799,799,799,799,799,799,799,799,799,799,799,804,863,918,972,1015,1045,1076],"ymouse":[527,527,527,527,527,527,527,527,527,527,527,527,527,527,527,527,527,527,527,527,527,527,527,527,527,527,501,378,272,176,99,59,17],"timestamp_mouse":[19,38,58,79,99,119,140,158,179,198,218,240,259,279,299,320,338,360,378,400,420,438,460,480,499,519,539,559,579,599,618,638,658],"xSR":741.5,"ySR":469.95,"xT1":424.9,"yT1":0,"xT2":1058.1,"yT2":0,"toosoon":0,"cond_shown":"equaldotsize","ratio_trial":250,"smaller_num":"3","larger_num":"12","correct_side":2,"subjID":"CAROLCASTILLO32","gender":"1","age":"10","school":"6"},{"start_time":1551801595467,"click_time":1551801596445,"finger_time":1551801596087,"fix_duration":1358.6549938378396,"trial":58,"RT":620,"MT":358,"sideResp":2,"stimulus":"img/500/equaldotanddens/R/9_Ratio_500_L_2_R_4.png","xmouse":[779,779,779,779,779,779,779,779,779,779,779,779,779,779,779,779,779,779,779,779,779,779,779,779,779,779,779,779,779,779,783,790,814,898,953,995,1027,1037,1040,1040,1040,1040,1040,1040,1037,1035,1035,1037,1056,1063],"ymouse":[481,481,481,481,481,481,481,481,481,481,481,481,481,481,481,481,481,481,481,481,481,481,481,481,481,481,481,481,481,481,471,457,421,308,241,176,132,111,101,101,101,101,100,94,86,83,77,65,30,17],"timestamp_mouse":[1,18,40,58,79,98,119,139,159,179,198,220,239,259,279,299,320,338,360,379,398,420,440,458,478,499,519,538,559,578,598,620,639,659,679,698,718,740,759,778,799,819,838,858,878,899,919,938,958,978],"xSR":741.5,"ySR":469.95,"xT1":424.9,"yT1":0,"xT2":1058.1,"yT2":0,"toosoon":0,"cond_shown":"equaldotanddens","ratio_trial":500,"smaller_num":"2","larger_num":"4","correct_side":2,"subjID":"CAROLCASTILLO32","gender":"1","age":"10","school":"6"},{"start_time":1551801597646,"click_time":1551801598426,"finger_time":1551801598205,"fix_duration":400.27591743980116,"trial":59,"RT":559,"MT":221,"sideResp":1,"stimulus":"img/750/randomdotsizeEA/L/14_Ratio_750_L_8_R_6.png","xmouse":[804,804,804,804,804,804,804,804,804,804,804,804,804,804,804,804,804,804,804,804,804,804,803,800,796,792,787,774,750,733,708,684,651,582,556,538,522,505,482],"ymouse":[533,533,533,533,533,533,533,533,533,533,533,533,533,533,533,533,533,533,533,533,533,533,526,508,499,491,483,466,437,416,387,353,302,208,178,156,140,122,97],"timestamp_mouse":[21,40,61,79,100,121,140,159,180,201,219,239,259,280,300,319,340,361,379,399,421,439,459,480,499,520,539,559,580,600,620,639,659,680,700,719,739,760,780],"xSR":741.5,"ySR":469.95,"xT1":424.9,"yT1":0,"xT2":1058.1,"yT2":0,"toosoon":0,"cond_shown":"randomdotsizeEA","ratio_trial":750,"smaller_num":"6","larger_num":"8","correct_side":1,"subjID":"CAROLCASTILLO32","gender":"1","age":"10","school":"6"},{"start_time":1551801599581,"click_time":1551801600625,"finger_time":1551801600246,"fix_duration":514.1531741661889,"trial":60,"RT":665,"MT":379,"sideResp":1,"stimulus":"img/900/randomdotsizeEA/L/2_Ratio_900_L_20_R_18.png","xmouse":[804,804,804,804,804,804,804,804,804,804,804,804,804,804,804,804,804,804,804,804,804,804,804,804,804,804,804,804,804,804,806,808,839,859,879,896,904,905,905,905,905,895,779,698,604,523,475,446,440,439,437,435,433],"ymouse":[514,514,514,514,514,514,514,514,514,514,514,514,514,514,514,514,514,514,514,514,514,514,514,514,514,514,514,514,514,514,514,512,481,470,452,437,426,422,422,421,420,410,353,318,278,243,212,179,165,155,142,128,93],"timestamp_mouse":[6,25,45,65,84,104,126,144,164,185,205,226,244,264,285,305,326,344,366,386,404,426,446,464,485,504,525,545,564,585,605,626,644,665,684,704,724,745,766,785,804,825,845,866,886,905,926,945,965,985,1006,1025,1044],"xSR":741.5,"ySR":469.95,"xT1":424.9,"yT1":0,"xT2":1058.1,"yT2":0,"toosoon":0,"cond_shown":"randomdotsizeEA","ratio_trial":900,"smaller_num":"18","larger_num":"20","correct_side":1,"subjID":"CAROLCASTILLO32","gender":"1","age":"10","school":"6"},{"start_time":1551801602703,"click_time":1551801603926,"finger_time":1551801603425,"fix_duration":1216.6258443381384,"trial":61,"RT":722,"MT":501,"sideResp":2,"stimulus":"img/900/equaldotsize/R/15_Ratio_900_L_9_R_10.png","xmouse":[772,772,772,772,772,772,772,772,772,772,772,772,772,772,772,772,772,772,772,772,772,772,772,772,772,772,772,771,770,768,768,766,765,764,762,760,740,726,712,700,687,670,665,662,659,658,658,658,658,660,666,735,777,820,877,922,948,971,990,1011,1031,1062],"ymouse":[507,507,507,507,507,507,507,507,507,507,507,507,507,507,507,507,507,507,507,507,507,507,507,507,507,505,500,497,494,489,488,484,482,480,477,473,437,415,395,376,359,337,329,325,321,319,319,319,319,322,328,367,374,374,370,354,334,216,165,132,110,73],"timestamp_mouse":[8,33,42,63,83,104,122,143,162,183,202,224,243,262,284,302,323,344,362,382,403,422,444,462,482,502,522,543,562,583,604,622,642,663,683,702,722,742,762,782,802,823,843,863,882,903,923,942,962,982,1002,1022,1042,1062,1083,1104,1122,1143,1162,1184,1203,1223],"xSR":741.5,"ySR":469.95,"xT1":424.9,"yT1":0,"xT2":1058.1,"yT2":0,"toosoon":0,"cond_shown":"equaldotsize","ratio_trial":900,"smaller_num":"9","larger_num":"10","correct_side":2,"subjID":"CAROLCASTILLO32","gender":"1","age":"10","school":"6"},{"start_time":1551801605775,"click_time":1551801606805,"finger_time":1551801606525,"fix_duration":1047.94284708701,"trial":62,"RT":750,"MT":280,"sideResp":1,"stimulus":"img/900/randomdotsizeEA/L/1_Ratio_900_L_10_R_9.png","xmouse":[799,799,799,799,799,799,799,799,799,799,799,799,799,799,799,799,799,799,799,799,799,799,799,799,799,799,799,799,799,799,799,799,799,799,799,799,796,744,699,642,578,540,504,497,491,485,476,458,450,448,447,447],"ymouse":[506,506,506,506,506,506,506,506,506,506,506,506,506,506,506,506,506,506,506,506,506,506,506,506,506,506,506,506,506,506,506,506,506,506,506,506,505,450,397,343,296,268,239,229,219,203,182,139,121,109,103,96],"timestamp_mouse":[10,30,51,72,90,112,130,150,171,192,210,232,250,271,290,310,332,352,370,391,411,431,450,472,490,511,532,550,572,592,611,631,651,670,691,711,731,750,770,790,811,831,850,870,891,910,930,950,970,991,1010,1030],"xSR":741.5,"ySR":469.95,"xT1":424.9,"yT1":0,"xT2":1058.1,"yT2":0,"toosoon":0,"cond_shown":"randomdotsizeEA","ratio_trial":900,"smaller_num":"9","larger_num":"10","correct_side":1,"subjID":"CAROLCASTILLO32","gender":"1","age":"10","school":"6"},{"start_time":1551801608417,"click_time":1551801609186,"finger_time":1551801608807,"fix_duration":930.3858678561672,"trial":63,"RT":390,"MT":379,"sideResp":1,"stimulus":"img/500/equaldotanddens/L/7_Ratio_500_L_10_R_5.png","xmouse":[781,781,781,781,781,781,781,781,781,781,781,781,781,781,781,781,781,781,776,768,737,727,721,717,712,702,694,686,676,668,652,643,634,619,608,575,557,534,506],"ymouse":[523,523,523,523,523,523,523,523,523,523,523,523,523,523,523,523,511,503,484,466,416,404,397,391,384,360,343,326,309,295,263,242,220,196,178,147,132,113,94],"timestamp_mouse":[9,36,49,69,88,109,128,149,170,188,208,230,250,269,289,309,329,349,368,390,409,429,448,468,488,508,528,549,569,588,608,628,649,669,688,708,729,748,769],"xSR":741.5,"ySR":469.95,"xT1":424.9,"yT1":0,"xT2":1058.1,"yT2":0,"toosoon":0,"cond_shown":"equaldotanddens","ratio_trial":500,"smaller_num":"5","larger_num":"10","correct_side":1,"subjID":"CAROLCASTILLO32","gender":"1","age":"10","school":"6"},{"start_time":1551801611105,"click_time":1551801612106,"finger_time":1551801611786,"fix_duration":1137.0347017299775,"trial":64,"RT":681,"MT":320,"sideResp":1,"stimulus":"img/250/randomdotsizeEA/L/14_Ratio_250_L_12_R_3.png","xmouse":[771,771,771,771,771,771,771,771,771,771,771,771,771,771,771,771,771,771,771,771,771,771,771,771,771,771,771,771,771,771,771,771,771,763,738,691,625,602,590,582,579,576,575,573,571,568,552,542,533,525,517],"ymouse":[493,493,493,493,493,493,493,493,493,493,493,493,493,493,493,493,493,493,493,493,493,493,493,493,493,493,493,493,493,493,493,493,491,473,413,324,235,204,189,179,175,168,166,161,156,149,116,99,84,72,61],"timestamp_mouse":[11,31,41,61,82,102,120,141,161,180,200,222,240,262,281,301,321,340,361,380,402,420,441,460,482,500,522,540,561,582,600,621,641,660,681,701,721,741,760,781,801,821,841,860,881,901,921,940,961,982,1001],"xSR":741.5,"ySR":469.95,"xT1":424.9,"yT1":0,"xT2":1058.1,"yT2":0,"toosoon":0,"cond_shown":"randomdotsizeEA","ratio_trial":250,"smaller_num":"3","larger_num":"12","correct_side":1,"subjID":"CAROLCASTILLO32","gender":"1","age":"10","school":"6"},{"start_time":1551801614347,"click_time":1551801615585,"finger_time":1551801615145,"fix_duration":1498.4022328835533,"trial":65,"RT":798,"MT":440,"sideResp":1,"stimulus":"img/750/equaldotsize/L/14_Ratio_750_L_8_R_6.png","xmouse":[785,785,785,785,785,785,785,785,785,785,785,785,785,785,785,785,785,785,785,785,785,785,785,785,785,785,785,785,785,785,785,785,785,785,785,785,785,785,785,783,770,756,741,726,698,689,677,658,636,610,600,590,581,559,553,553,553,553,553,553,553,553,488],"ymouse":[488,488,488,488,488,488,488,488,488,488,488,488,488,488,488,488,488,488,488,488,488,488,488,488,488,488,488,488,488,488,488,488,488,488,488,488,488,488,488,479,435,398,363,328,266,232,191,145,96,53,41,30,22,6,2,2,2,2,2,2,2,2,14],"timestamp_mouse":[1,27,38,59,78,99,119,138,159,178,198,219,239,258,280,300,319,339,358,378,399,418,438,459,478,499,518,539,559,578,600,619,639,658,680,698,718,740,758,780,798,818,839,858,878,898,919,939,958,978,998,1019,1038,1058,1079,1099,1119,1139,1159,1179,1199,1218,1238],"xSR":741.5,"ySR":469.95,"xT1":424.9,"yT1":0,"xT2":1058.1,"yT2":0,"toosoon":0,"cond_shown":"equaldotsize","ratio_trial":750,"smaller_num":"6","larger_num":"8","correct_side":1,"subjID":"CAROLCASTILLO32","gender":"1","age":"10","school":"6"},{"start_time":1551801617246,"click_time":1551801618305,"finger_time":1551801617985,"fix_duration":718.4629937376343,"trial":66,"RT":739,"MT":320,"sideResp":2,"stimulus":"img/500/equaldotsize/R/6_Ratio_500_L_9_R_18.png","xmouse":[810,810,810,810,810,810,810,810,810,810,810,810,810,810,810,810,810,810,810,810,810,810,810,810,810,810,810,810,810,810,810,810,810,810,810,819,832,887,974,1184,1223,1237,1239,1239,1239,1239,1237,1235,1232,1220,1205,1185,1159,1120],"ymouse":[484,484,484,484,484,484,484,484,484,484,484,484,484,484,484,484,484,484,484,484,484,484,484,484,484,484,484,484,484,484,484,484,484,484,484,482,473,433,372,221,184,158,146,143,140,139,136,133,127,116,106,94,78,56],"timestamp_mouse":[1,30,39,60,81,100,120,141,160,179,201,220,239,260,279,300,320,339,360,379,401,420,440,461,480,501,519,541,561,579,601,619,641,660,680,699,719,739,759,779,799,820,839,859,879,899,920,941,959,979,1000,1019,1040,1059],"xSR":741.5,"ySR":469.95,"xT1":424.9,"yT1":0,"xT2":1058.1,"yT2":0,"toosoon":0,"cond_shown":"equaldotsize","ratio_trial":500,"smaller_num":"9","larger_num":"18","correct_side":2,"subjID":"CAROLCASTILLO32","gender":"1","age":"10","school":"6"},{"start_time":1551801620121,"click_time":1551801621025,"finger_time":1551801620525,"fix_duration":493.5661226711354,"trial":67,"RT":404,"MT":500,"sideResp":1,"stimulus":"img/750/randomdotsizeEA/R/4_Ratio_750_L_15_R_20.png","xmouse":[816,816,816,816,816,816,816,816,816,816,816,816,816,816,816,816,816,816,816,811,796,766,753,738,727,706,700,692,679,664,639,629,619,608,597,571,565,561,561,561,561,560,558,552,545,519],"ymouse":[479,479,479,479,479,479,479,479,479,479,479,479,479,479,479,479,479,479,480,477,464,438,428,416,407,385,376,361,340,318,278,259,237,213,188,147,140,135,134,134,134,133,128,116,102,62],"timestamp_mouse":[9,32,45,64,84,105,125,145,165,184,205,224,246,265,286,305,326,345,364,384,404,424,445,465,484,504,524,546,566,584,604,624,645,665,684,705,724,744,765,786,804,824,845,864,884,904],"xSR":