[{"start_time":1551790168401,"click_time":1551790170554,"finger_time":1551790170053,"fix_duration":1244.968340752255,"trial":0,"RT":1652,"MT":501,"sideResp":2,"stimulus":[],"xmouse":[819,819,819,819,819,819,819,819,819,819,819,819,819,819,819,819,819,819,819,819,819,819,819,819,819,819,819,819,819,819,819,819,819,819,819,819,819,819,819,819,819,819,819,819,819,819,819,819,819,819,819,819,819,819,819,819,819,819,819,819,819,819,819,819,819,819,819,819,819,819,819,819,819,819,819,819,819,819,819,819,821,827,843,855,865,877,906,920,931,940,952,960,981,992,1003,1008,1018,1021,1024,1029,1037,1040,1040,1040,1042,1043,1047,1061],"ymouse":[552,552,552,552,552,552,552,552,552,552,552,552,552,552,552,552,552,552,552,552,552,552,552,552,552,552,552,552,552,552,552,552,552,552,552,552,552,552,552,552,552,552,552,552,552,552,552,552,552,552,552,552,552,552,552,552,552,552,552,552,552,552,552,552,552,552,552,552,552,552,552,552,552,552,552,552,552,552,552,552,544,528,496,479,467,448,393,369,349,330,298,279,223,185,149,126,92,88,86,82,76,73,73,73,73,73,72,63],"timestamp_mouse":[14,45,54,73,92,113,132,153,172,192,214,233,253,272,294,314,332,353,373,394,412,433,454,473,493,513,533,553,573,593,613,632,653,673,693,714,734,754,773,793,814,832,853,874,894,912,933,953,972,993,1012,1034,1053,1073,1094,1113,1133,1154,1173,1193,1214,1234,1254,1274,1292,1313,1332,1354,1374,1392,1414,1434,1452,1473,1494,1512,1534,1552,1573,1592,1612,1632,1652,1672,1693,1713,1734,1753,1773,1793,1812,1833,1853,1872,1892,1913,1934,1952,1974,1993,2014,2033,2054,2072,2093,2113,2133,2152],"xSR":741.5,"ySR":501.8,"xT1":424.9,"yT1":0,"xT2":1058.1,"yT2":0,"toosoon":0,"cond_shown":"Congruent","ratio_trial":100,"L_num":11,"L_den":22,"R_num":6,"R_den":15,"correct_side":1,"subjID":"AlbertoCruzgalan11","gender":"0","age":"11","school":"6","test":{"fix_dur":[250,1500],"timestim":1000,"targets_dim":[100,100],"targets_relative_coord":[0.3,0.7],"size_stim":[880,420],"start_dim":[100,100],"size_start":[300,300],"size_fix":60,"samplingrate":20,"img_types":["Congruent","Incongruent"],"ratios":[100,200,300],"rep_conds":19,"nTrials":120,"trials_to_rest":500,"Trials_order":[96,11,19,58,78,18,10,114,69,97,99,76,106,77,104,59,115,108,38,25,22,71,116,16,81,73,57,84,15,51,87,74,107,75,6,109,23,8,94,14,56,92,72,103,82,93,41,101,17,34,90,0,20,7,26,30,83,43,42,2,21,46,31,55,91,111,9,24,95,5,67,88,4,62,102,28,98,39,80,48,64,117,12,65,61,100,60,53,32,89,37,86,110,119,112,63,70,113,85,47,3,1,79,13,29,52,27,44,49,105,36,45,66,33,54,118,35,50,40,68],"cond_shown":["Congruent","Incongruent","Incongruent","Congruent","Congruent","Congruent","Congruent","Congruent","Incongruent","Incongruent","Incongruent","Congruent","Congruent","Incongruent","Congruent","Incongruent","Incongruent","Congruent","Congruent","Incongruent","Congruent","Incongruent","Congruent","Congruent","Incongruent","Incongruent","Incongruent","Congruent","Incongruent","Incongruent","Incongruent","Congruent","Incongruent","Incongruent","Congruent","Incongruent","Incongruent","Congruent","Congruent","Congruent","Congruent","Congruent","Congruent","Incongruent","Congruent","Incongruent","Incongruent","Incongruent","Incongruent","Congruent","Congruent","Congruent","Congruent","Incongruent","Congruent","Congruent","Incongruent","Incongruent","Congruent","Congruent","Incongruent","Congruent","Incongruent","Incongruent","Incongruent","Incongruent","Incongruent","Congruent","Incongruent","Incongruent","Incongruent","Congruent","Congruent","Congruent","Congruent","Congruent","Congruent","Incongruent","Congruent","Congruent","Congruent","Incongruent","Congruent","Incongruent","Incongruent","Congruent","Congruent","Incongruent","Congruent","Incongruent","Incongruent","Congruent","Congruent","Incongruent","Congruent","Incongruent","Congruent","Incongruent","Incongruent","Incongruent","Incongruent","Incongruent","Incongruent","Incongruent","Incongruent","Congruent","Incongruent","Congruent","Incongruent","Incongruent","Congruent","Incongruent","Congruent","Incongruent","Congruent","Congruent","Incongruent","Congruent","Congruent","Congruent"],"ratio_trial":[100,300,100,300,100,100,300,100,200,100,200,300,300,300,200,300,100,100,200,100,300,300,200,300,200,100,200,100,200,200,200,200,300,200,100,100,300,200,300,200,200,200,100,100,300,200,300,300,300,300,100,100,200,100,200,100,300,100,100,200,200,300,100,100,100,200,200,100,300,300,100,300,300,200,100,300,200,200,200,100,300,200,100,300,100,300,100,300,200,300,100,200,200,300,300,200,300,300,100,300,200,100,100,100,300,300,200,200,100,200,100,200,100,200,100,300,300,200,300,200],"left_num":[11,8,10,20,4,8,20,2,7,9,14,1,3,13,14,1,9,7,7,8,9,13,12,20,3,9,1,1,6,4,14,9,8,3,4,12,4,7,24,8,21,8,4,3,3,3,4,4,1,20,8,15,16,11,12,8,13,8,9,14,9,1,9,8,9,3,7,11,2,1,2,20,3,6,6,1,9,4,6,9,3,7,6,4,1,4,2,4,3,13,6,16,8,1,1,3,3,13,6,13,14,4,9,13,3,20,3,1,9,9,11,4,3,6,7,11,13,9,20,14],"right_num":[6,14,8,9,6,2,14,6,4,13,12,11,4,12,6,2,13,9,18,6,3,12,6,14,1,6,3,3,3,6,12,13,9,11,6,9,2,2,2,3,2,2,15,4,11,11,2,2,3,13,2,13,12,9,6,2,12,1,8,6,8,19,13,1,13,1,8,6,6,3,8,8,2,7,15,3,4,1,11,8,4,8,5,2,8,2,11,2,14,12,13,9,7,2,19,11,11,12,7,12,6,8,14,6,4,5,11,21,14,8,4,6,2,3,15,4,12,13,14,6],"left_den":[22,10,25,25,8,16,25,5,15,15,30,5,6,26,28,2,15,14,15,16,10,26,15,25,10,18,2,2,20,5,30,30,10,4,8,24,20,21,30,15,30,15,10,6,12,4,20,20,2,25,16,25,20,22,20,16,26,20,15,28,15,3,15,20,15,10,10,22,4,2,4,25,6,12,12,5,20,30,20,15,6,10,20,20,2,5,5,20,6,26,10,30,15,2,3,4,12,26,10,26,30,8,15,26,6,25,4,2,15,15,22,5,6,20,14,22,26,30,25,28],"right_den":[15,28,16,18,10,5,28,12,6,26,18,22,5,15,20,10,26,15,27,10,5,15,10,28,2,10,10,5,6,10,18,26,18,20,10,15,4,15,4,9,4,6,30,10,20,20,4,4,15,26,5,26,20,15,15,5,15,2,16,20,10,30,26,2,26,2,16,15,30,15,20,16,10,10,25,6,16,3,22,16,5,16,25,4,20,4,22,4,20,15,26,27,21,10,30,20,20,15,14,15,9,20,28,10,20,10,20,30,28,10,10,10,5,6,25,20,15,26,28,20],"correct_side":[1,1,2,1,2,1,1,2,2,1,2,2,2,2,1,1,1,2,2,2,1,2,1,1,2,2,1,2,2,1,2,2,1,1,2,2,2,1,1,1,1,1,2,1,2,1,2,2,1,1,1,1,1,2,1,1,2,2,1,1,2,2,1,2,1,2,1,1,1,1,1,1,1,2,2,2,1,2,2,1,2,1,1,2,1,1,2,2,2,2,1,1,1,1,2,1,2,2,1,2,2,1,1,2,1,1,1,2,1,2,1,1,1,2,2,1,2,2,1,1],"img_shown":["img2/100/Congruent/L/C_Dist_100_LN_11_LD_22_RN_6_RD_15_0.png","img2/300/Incongruent/L/I_Dist_300_LN_8_LD_10_RN_14_RD_28_0.png","img2/100/Incongruent/R/I_Dist_100_LN_10_LD_25_RN_8_RD_16_1.png","img2/300/Congruent/L/C_Dist_300_LN_20_LD_25_RN_9_RD_18_0.png","img2/100/Congruent/R/C_Dist_100_LN_4_LD_8_RN_6_RD_10_1.png","img2/100/Congruent/L/C_Dist_100_LN_8_LD_16_RN_2_RD_5_0.png","img2/300/Congruent/L/C_Dist_300_LN_20_LD_25_RN_14_RD_28_0.png","img2/100/Congruent/R/C_Dist_100_LN_2_LD_5_RN_6_RD_12_1.png","img2/200/Incongruent/R/I_Dist_200_LN_7_LD_15_RN_4_RD_6_1.png","img2/100/Incongruent/L/I_Dist_100_LN_9_LD_15_RN_13_RD_26_0.png","img2/200/Incongruent/R/I_Dist_200_LN_14_LD_30_RN_12_RD_18_1.png","img2/300/Congruent/R/C_Dist_300_LN_1_LD_5_RN_11_RD_22_1.png","img2/300/Congruent/R/C_Dist_300_LN_3_LD_6_RN_4_RD_5_1.png","img2/300/Incongruent/R/I_Dist_300_LN_13_LD_26_RN_12_RD_15_1.png","img2/200/Congruent/L/C_Dist_200_LN_14_LD_28_RN_6_RD_20_0.png","img2/300/Incongruent/L/I_Dist_300_LN_1_LD_2_RN_2_RD_10_0.png","img2/100/Incongruent/L/I_Dist_100_LN_9_LD_15_RN_13_RD_26_0.png","img2/100/Congruent/R/C_Dist_100_LN_7_LD_14_RN_9_RD_15_1.png","img2/200/Congruent/R/C_Dist_200_LN_7_LD_15_RN_18_RD_27_1.png","img2/100/Incongruent/R/I_Dist_100_LN_8_LD_16_RN_6_RD_10_1.png","img2/300/Congruent/L/C_Dist_300_LN_9_LD_10_RN_3_RD_5_0.png","img2/300/Incongruent/R/I_Dist_300_LN_13_LD_26_RN_12_RD_15_1.png","img2/200/Congruent/L/C_Dist_200_LN_12_LD_15_RN_6_RD_10_0.png","img2/300/Congruent/L/C_Dist_300_LN_20_LD_25_RN_14_RD_28_0.png","img2/200/Incongruent/R/I_Dist_200_LN_3_LD_10_RN_1_RD_2_1.png","img2/100/Incongruent/R/I_Dist_100_LN_9_LD_18_RN_6_RD_10_1.png","img2/200/Incongruent/L/I_Dist_200_LN_1_LD_2_RN_3_RD_10_0.png","img2/100/Congruent/R/C_Dist_100_LN_1_LD_2_RN_3_RD_5_1.png","img2/200/Incongruent/R/I_Dist_200_LN_6_LD_20_RN_3_RD_6_1.png","img2/200/Incongruent/L/I_Dist_200_LN_4_LD_5_RN_6_RD_10_0.png","img2/200/Incongruent/R/I_Dist_200_LN_14_LD_30_RN_12_RD_18_1.png","img2/200/Congruent/R/C_Dist_200_LN_9_LD_30_RN_13_RD_26_1.png","img2/300/Incongruent/L/I_Dist_300_LN_8_LD_10_RN_9_RD_18_0.png","img2/200/Incongruent/L/I_Dist_200_LN_3_LD_4_RN_11_RD_20_0.png","img2/100/Congruent/R/C_Dist_100_LN_4_LD_8_RN_6_RD_10_1.png","img2/100/Incongruent/R/I_Dist_100_LN_12_LD_24_RN_9_RD_15_1.png","img2/300/Incongruent/R/I_Dist_300_LN_4_LD_20_RN_2_RD_4_1.png","img2/200/Congruent/L/C_Dist_200_LN_7_LD_21_RN_2_RD_15_0.png","img2/300/Congruent/L/C_Dist_300_LN_24_LD_30_RN_2_RD_4_0.png","img2/200/Congruent/L/C_Dist_200_LN_8_LD_15_RN_3_RD_9_0.png","img2/200/Congruent/L/C_Dist_200_LN_21_LD_30_RN_2_RD_4_0.png","img2/200/Congruent/L/C_Dist_200_LN_8_LD_15_RN_2_RD_6_0.png","img2/100/Congruent/R/C_Dist_100_LN_4_LD_10_RN_15_RD_30_1.png","img2/100/Incongruent/L/I_Dist_100_LN_3_LD_6_RN_4_RD_10_0.png","img2/300/Congruent/R/C_Dist_300_LN_3_LD_12_RN_11_RD_20_1.png","img2/200/Incongruent/L/I_Dist_200_LN_3_LD_4_RN_11_RD_20_0.png","img2/300/Incongruent/R/I_Dist_300_LN_4_LD_20_RN_2_RD_4_1.png","img2/300/Incongruent/R/I_Dist_300_LN_4_LD_20_RN_2_RD_4_1.png","img2/300/Incongruent/L/I_Dist_300_LN_1_LD_2_RN_3_RD_15_0.png","img2/300/Congruent/L/C_Dist_300_LN_20_LD_25_RN_13_RD_26_0.png","img2/100/Congruent/L/C_Dist_100_LN_8_LD_16_RN_2_RD_5_0.png","img2/100/Congruent/L/C_Dist_100_LN_15_LD_25_RN_13_RD_26_0.png","img2/200/Congruent/L/C_Dist_200_LN_16_LD_20_RN_12_RD_20_0.png","img2/100/Incongruent/R/I_Dist_100_LN_11_LD_22_RN_9_RD_15_1.png","img2/200/Congruent/L/C_Dist_200_LN_12_LD_20_RN_6_RD_15_0.png","img2/100/Congruent/L/C_Dist_100_LN_8_LD_16_RN_2_RD_5_0.png","img2/300/Incongruent/R/I_Dist_300_LN_13_LD_26_RN_12_RD_15_1.png","img2/100/Incongruent/R/I_Dist_100_LN_8_LD_20_RN_1_RD_2_1.png","img2/100/Congruent/L/C_Dist_100_LN_9_LD_15_RN_8_RD_16_0.png","img2/200/Congruent/L/C_Dist_200_LN_14_LD_28_RN_6_RD_20_0.png","img2/200/Incongruent/R/I_Dist_200_LN_9_LD_15_RN_8_RD_10_1.png","img2/300/Congruent/R/C_Dist_300_LN_1_LD_3_RN_19_RD_30_1.png","img2/100/Incongruent/L/I_Dist_100_LN_9_LD_15_RN_13_RD_26_0.png","img2/100/Incongruent/R/I_Dist_100_LN_8_LD_20_RN_1_RD_2_1.png","img2/100/Incongruent/L/I_Dist_100_LN_9_LD_15_RN_13_RD_26_0.png","img2/200/Incongruent/R/I_Dist_200_LN_3_LD_10_RN_1_RD_2_1.png","img2/200/Incongruent/L/I_Dist_200_LN_7_LD_10_RN_8_RD_16_0.png","img2/100/Congruent/L/C_Dist_100_LN_11_LD_22_RN_6_RD_15_0.png","img2/300/Incongruent/L/I_Dist_300_LN_2_LD_4_RN_6_RD_30_0.png","img2/300/Incongruent/L/I_Dist_300_LN_1_LD_2_RN_3_RD_15_0.png","img2/100/Incongruent/L/I_Dist_100_LN_2_LD_4_RN_8_RD_20_0.png","img2/300/Congruent/L/C_Dist_300_LN_20_LD_25_RN_8_RD_16_0.png","img2/300/Congruent/L/C_Dist_300_LN_3_LD_6_RN_2_RD_10_0.png","img2/200/Congruent/R/C_Dist_200_LN_6_LD_12_RN_7_RD_10_1.png","img2/100/Congruent/R/C_Dist_100_LN_6_LD_12_RN_15_RD_25_1.png","img2/300/Congruent/R/C_Dist_300_LN_1_LD_5_RN_3_RD_6_1.png","img2/200/Congruent/L/C_Dist_200_LN_9_LD_20_RN_4_RD_16_0.png","img2/200/Incongruent/R/I_Dist_200_LN_4_LD_30_RN_1_RD_3_1.png","img2/200/Congruent/R/C_Dist_200_LN_6_LD_20_RN_11_RD_22_1.png","img2/100/Congruent/L/C_Dist_100_LN_9_LD_15_RN_8_RD_16_0.png","img2/300/Congruent/R/C_Dist_300_LN_3_LD_6_RN_4_RD_5_1.png","img2/200/Incongruent/L/I_Dist_200_LN_7_LD_10_RN_8_RD_16_0.png","img2/100/Congruent/L/C_Dist_100_LN_6_LD_20_RN_5_RD_25_0.png","img2/300/Incongruent/R/I_Dist_300_LN_4_LD_20_RN_2_RD_4_1.png","img2/100/Incongruent/L/I_Dist_100_LN_1_LD_2_RN_8_RD_20_0.png","img2/300/Congruent/L/C_Dist_300_LN_4_LD_5_RN_2_RD_4_0.png","img2/100/Congruent/R/C_Dist_100_LN_2_LD_5_RN_11_RD_22_1.png","img2/300/Incongruent/R/I_Dist_300_LN_4_LD_20_RN_2_RD_4_1.png","img2/200/Congruent/R/C_Dist_200_LN_3_LD_6_RN_14_RD_20_1.png","img2/300/Incongruent/R/I_Dist_300_LN_13_LD_26_RN_12_RD_15_1.png","img2/100/Incongruent/L/I_Dist_100_LN_6_LD_10_RN_13_RD_26_0.png","img2/200/Congruent/L/C_Dist_200_LN_16_LD_30_RN_9_RD_27_0.png","img2/200/Congruent/L/C_Dist_200_LN_8_LD_15_RN_7_RD_21_0.png","img2/300/Incongruent/L/I_Dist_300_LN_1_LD_2_RN_2_RD_10_0.png","img2/300/Congruent/R/C_Dist_300_LN_1_LD_3_RN_19_RD_30_1.png","img2/200/Incongruent/L/I_Dist_200_LN_3_LD_4_RN_11_RD_20_0.png","img2/300/Congruent/R/C_Dist_300_LN_3_LD_12_RN_11_RD_20_1.png","img2/300/Incongruent/R/I_Dist_300_LN_13_LD_26_RN_12_RD_15_1.png","img2/100/Incongruent/L/I_Dist_100_LN_6_LD_10_RN_7_RD_14_0.png","img2/300/Incongruent/R/I_Dist_300_LN_13_LD_26_RN_12_RD_15_1.png","img2/200/Incongruent/R/I_Dist_200_LN_14_LD_30_RN_6_RD_9_1.png","img2/100/Incongruent/L/I_Dist_100_LN_4_LD_8_RN_8_RD_20_0.png","img2/100/Incongruent/L/I_Dist_100_LN_9_LD_15_RN_14_RD_28_0.png","img2/100/Incongruent/R/I_Dist_100_LN_13_LD_26_RN_6_RD_10_1.png","img2/300/Incongruent/L/I_Dist_300_LN_3_LD_6_RN_4_RD_20_0.png","img2/300/Congruent/L/C_Dist_300_LN_20_LD_25_RN_5_RD_10_0.png","img2/200/Incongruent/L/I_Dist_200_LN_3_LD_4_RN_11_RD_20_0.png","img2/200/Congruent/R/C_Dist_200_LN_1_LD_2_RN_21_RD_30_1.png","img2/100/Incongruent/L/I_Dist_100_LN_9_LD_15_RN_14_RD_28_0.png","img2/200/Incongruent/R/I_Dist_200_LN_9_LD_15_RN_8_RD_10_1.png","img2/100/Congruent/L/C_Dist_100_LN_11_LD_22_RN_4_RD_10_0.png","img2/200/Incongruent/L/I_Dist_200_LN_4_LD_5_RN_6_RD_10_0.png","img2/100/Congruent/L/C_Dist_100_LN_3_LD_6_RN_2_RD_5_0.png","img2/200/Incongruent/R/I_Dist_200_LN_6_LD_20_RN_3_RD_6_1.png","img2/100/Congruent/R/C_Dist_100_LN_7_LD_14_RN_15_RD_25_1.png","img2/300/Congruent/L/C_Dist_300_LN_11_LD_22_RN_4_RD_20_0.png","img2/300/Incongruent/R/I_Dist_300_LN_13_LD_26_RN_12_RD_15_1.png","img2/200/Congruent/R/C_Dist_200_LN_9_LD_30_RN_13_RD_26_1.png","img2/300/Congruent/L/C_Dist_300_LN_20_LD_25_RN_14_RD_28_0.png","img2/200/Congruent/L/C_Dist_200_LN_14_LD_28_RN_6_RD_20_0.png"],"dist100_C":[["C_Dist_100_LN_10_LD_25_RN_3_RD_10_0.png","C_Dist_100_LN_11_LD_22_RN_4_RD_10_0.png","C_Dist_100_LN_11_LD_22_RN_6_RD_15_0.png","C_Dist_100_LN_15_LD_25_RN_13_RD_26_0.png","C_Dist_100_LN_3_LD_6_RN_2_RD_5_0.png","C_Dist_100_LN_6_LD_20_RN_5_RD_25_0.png","C_Dist_100_LN_8_LD_16_RN_2_RD_5_0.png","C_Dist_100_LN_9_LD_15_RN_8_RD_16_0.png"],["C_Dist_100_LN_1_LD_2_RN_18_RD_30_1.png","C_Dist_100_LN_1_LD_2_RN_3_RD_5_1.png","C_Dist_100_LN_12_LD_30_RN_13_RD_26_1.png","C_Dist_100_LN_2_LD_5_RN_11_RD_22_1.png","C_Dist_100_LN_2_LD_5_RN_6_RD_12_1.png","C_Dist_100_LN_3_LD_20_RN_4_RD_16_1.png","C_Dist_100_LN_4_LD_10_RN_15_RD_30_1.png","C_Dist_100_LN_4_LD_8_RN_6_RD_10_1.png","C_Dist_100_LN_6_LD_12_RN_15_RD_25_1.png","C_Dist_100_LN_7_LD_14_RN_15_RD_25_1.png","C_Dist_100_LN_7_LD_14_RN_9_RD_15_1.png"]],"dist100_I":[["I_Dist_100_LN_1_LD_2_RN_8_RD_20_0.png","I_Dist_100_LN_2_LD_4_RN_6_RD_15_0.png","I_Dist_100_LN_2_LD_4_RN_8_RD_20_0.png","I_Dist_100_LN_3_LD_5_RN_11_RD_22_0.png","I_Dist_100_LN_3_LD_5_RN_8_RD_16_0.png","I_Dist_100_LN_3_LD_6_RN_4_RD_10_0.png","I_Dist_100_LN_3_LD_9_RN_7_RD_30_0.png","I_Dist_100_LN_4_LD_8_RN_8_RD_20_0.png","I_Dist_100_LN_6_LD_10_RN_11_RD_22_0.png","I_Dist_100_LN_6_LD_10_RN_13_RD_26_0.png","I_Dist_100_LN_6_LD_10_RN_7_RD_14_0.png","I_Dist_100_LN_9_LD_10_RN_20_RD_25_0.png","I_Dist_100_LN_9_LD_15_RN_13_RD_26_0.png","I_Dist_100_LN_9_LD_15_RN_14_RD_28_0.png"],["I_Dist_100_LN_10_LD_25_RN_8_RD_16_1.png","I_Dist_100_LN_10_LD_25_RN_9_RD_18_1.png","I_Dist_100_LN_11_LD_22_RN_9_RD_15_1.png","I_Dist_100_LN_12_LD_24_RN_9_RD_15_1.png","I_Dist_100_LN_12_LD_30_RN_2_RD_4_1.png","I_Dist_100_LN_13_LD_26_RN_12_RD_20_1.png","I_Dist_100_LN_13_LD_26_RN_6_RD_10_1.png","I_Dist_100_LN_17_LD_30_RN_10_RD_15_1.png","I_Dist_100_LN_6_LD_12_RN_3_RD_5_1.png","I_Dist_100_LN_8_LD_16_RN_6_RD_10_1.png","I_Dist_100_LN_8_LD_20_RN_1_RD_2_1.png","I_Dist_100_LN_9_LD_18_RN_6_RD_10_1.png"]],"dist100_S":[["E_Dist_100_LN_2_LD_12_RN_2_RD_30_0.png","E_Dist_100_LN_6_LD_10_RN_6_RD_12_0.png"],["E_Dist_100_LN_6_LD_12_RN_6_RD_10_1.png"]],"dist200_C":[["C_Dist_200_LN_11_LD_22_RN_3_RD_10_0.png","C_Dist_200_LN_12_LD_15_RN_6_RD_10_0.png","C_Dist_200_LN_12_LD_20_RN_6_RD_15_0.png","C_Dist_200_LN_14_LD_28_RN_6_RD_20_0.png","C_Dist_200_LN_15_LD_25_RN_4_RD_10_0.png","C_Dist_200_LN_16_LD_20_RN_12_RD_20_0.png","C_Dist_200_LN_16_LD_30_RN_9_RD_27_0.png","C_Dist_200_LN_20_LD_25_RN_9_RD_15_0.png","C_Dist_200_LN_21_LD_30_RN_2_RD_4_0.png","C_Dist_200_LN_4_LD_10_RN_3_RD_15_0.png","C_Dist_200_LN_4_LD_8_RN_3_RD_10_0.png","C_Dist_200_LN_6_LD_15_RN_3_RD_15_0.png","C_Dist_200_LN_7_LD_21_RN_2_RD_15_0.png","C_Dist_200_LN_8_LD_15_RN_2_RD_6_0.png","C_Dist_200_LN_8_LD_15_RN_3_RD_9_0.png","C_Dist_200_LN_8_LD_15_RN_7_RD_21_0.png","C_Dist_200_LN_9_LD_20_RN_4_RD_16_0.png"],["C_Dist_200_LN_1_LD_2_RN_21_RD_30_1.png","C_Dist_200_LN_13_LD_26_RN_14_RD_20_1.png","C_Dist_200_LN_3_LD_10_RN_11_RD_22_1.png","C_Dist_200_LN_3_LD_10_RN_14_RD_28_1.png","C_Dist_200_LN_3_LD_10_RN_7_RD_14_1.png","C_Dist_200_LN_3_LD_12_RN_9_RD_20_1.png","C_Dist_200_LN_3_LD_6_RN_14_RD_20_1.png","C_Dist_200_LN_5_LD_10_RN_14_RD_20_1.png","C_Dist_200_LN_6_LD_12_RN_7_RD_10_1.png","C_Dist_200_LN_6_LD_20_RN_11_RD_22_1.png","C_Dist_200_LN_7_LD_15_RN_18_RD_27_1.png","C_Dist_200_LN_9_LD_30_RN_13_RD_26_1.png"]],"dist200_I":[["I_Dist_200_LN_1_LD_2_RN_3_RD_10_0.png","I_Dist_200_LN_1_LD_3_RN_2_RD_15_0.png","I_Dist_200_LN_3_LD_4_RN_11_RD_20_0.png","I_Dist_200_LN_4_LD_5_RN_6_RD_10_0.png","I_Dist_200_LN_4_LD_6_RN_14_RD_30_0.png","I_Dist_200_LN_7_LD_10_RN_12_RD_24_0.png","I_Dist_200_LN_7_LD_10_RN_14_RD_28_0.png","I_Dist_200_LN_7_LD_10_RN_8_RD_16_0.png"],["I_Dist_200_LN_11_LD_20_RN_3_RD_4_1.png","I_Dist_200_LN_14_LD_30_RN_12_RD_18_1.png","I_Dist_200_LN_14_LD_30_RN_6_RD_9_1.png","I_Dist_200_LN_3_LD_10_RN_1_RD_2_1.png","I_Dist_200_LN_4_LD_30_RN_1_RD_3_1.png","I_Dist_200_LN_6_LD_20_RN_3_RD_6_1.png","I_Dist_200_LN_7_LD_15_RN_4_RD_6_1.png","I_Dist_200_LN_7_LD_15_RN_6_RD_9_1.png","I_Dist_200_LN_9_LD_15_RN_8_RD_10_1.png"]],"dist200_S":[["E_Dist_200_LN_3_LD_6_RN_3_RD_10_0.png"],["E_Dist_200_LN_3_LD_10_RN_3_RD_6_1.png"]],"dist300_C":[["C_Dist_300_LN_11_LD_22_RN_1_RD_5_0.png","C_Dist_300_LN_11_LD_22_RN_2_RD_10_0.png","C_Dist_300_LN_11_LD_22_RN_4_RD_20_0.png","C_Dist_300_LN_12_LD_24_RN_2_RD_10_0.png","C_Dist_300_LN_18_LD_20_RN_9_RD_15_0.png","C_Dist_300_LN_20_LD_25_RN_13_RD_26_0.png","C_Dist_300_LN_20_LD_25_RN_14_RD_28_0.png","C_Dist_300_LN_20_LD_25_RN_5_RD_10_0.png","C_Dist_300_LN_20_LD_25_RN_8_RD_16_0.png","C_Dist_300_LN_20_LD_25_RN_9_RD_18_0.png","C_Dist_300_LN_24_LD_30_RN_2_RD_4_0.png","C_Dist_300_LN_24_LD_30_RN_8_RD_16_0.png","C_Dist_300_LN_3_LD_6_RN_2_RD_10_0.png","C_Dist_300_LN_4_LD_10_RN_1_RD_10_0.png","C_Dist_300_LN_4_LD_5_RN_2_RD_4_0.png","C_Dist_300_LN_8_LD_16_RN_1_RD_5_0.png","C_Dist_300_LN_9_LD_10_RN_3_RD_5_0.png"],["C_Dist_300_LN_1_LD_20_RN_7_RD_20_1.png","C_Dist_300_LN_1_LD_3_RN_19_RD_30_1.png","C_Dist_300_LN_1_LD_30_RN_8_RD_24_1.png","C_Dist_300_LN_1_LD_5_RN_11_RD_22_1.png","C_Dist_300_LN_1_LD_5_RN_3_RD_6_1.png","C_Dist_300_LN_1_LD_5_RN_6_RD_12_1.png","C_Dist_300_LN_2_LD_10_RN_12_RD_24_1.png","C_Dist_300_LN_2_LD_20_RN_10_RD_25_1.png","C_Dist_300_LN_3_LD_12_RN_11_RD_20_1.png","C_Dist_300_LN_3_LD_6_RN_4_RD_5_1.png","C_Dist_300_LN_4_LD_20_RN_13_RD_26_1.png","C_Dist_300_LN_5_LD_25_RN_6_RD_12_1.png","C_Dist_300_LN_5_LD_25_RN_7_RD_14_1.png","C_Dist_300_LN_7_LD_14_RN_20_RD_25_1.png","C_Dist_300_LN_8_LD_15_RN_10_RD_12_1.png"]],"dist300_I":[["I_Dist_300_LN_1_LD_2_RN_2_RD_10_0.png","I_Dist_300_LN_1_LD_2_RN_3_RD_15_0.png","I_Dist_300_LN_2_LD_4_RN_6_RD_30_0.png","I_Dist_300_LN_3_LD_6_RN_4_RD_20_0.png","I_Dist_300_LN_4_LD_5_RN_6_RD_12_0.png","I_Dist_300_LN_4_LD_5_RN_8_RD_16_0.png","I_Dist_300_LN_7_LD_10_RN_8_RD_20_0.png","I_Dist_300_LN_8_LD_10_RN_14_RD_28_0.png","I_Dist_300_LN_8_LD_10_RN_9_RD_18_0.png"],["I_Dist_300_LN_13_LD_26_RN_12_RD_15_1.png","I_Dist_300_LN_4_LD_20_RN_2_RD_4_1.png"]],"dist300_S":[["E_Dist_300_LN_9_LD_12_RN_9_RD_20_0.png"],["E_Dist_300_LN_18_LD_30_RN_18_RD_20_1.png","E_Dist_300_LN_3_LD_10_RN_3_RD_5_1.png","E_Dist_300_LN_9_LD_20_RN_9_RD_12_1.png"]],"dist500_C":[["C_Dist_500_LN_10_LD_13_RN_7_RD_26_0.png","C_Dist_500_LN_10_LD_15_RN_4_RD_24_0.png","C_Dist_500_LN_12_LD_16_RN_3_RD_12_0.png","C_Dist_500_LN_12_LD_18_RN_4_RD_24_0.png","C_Dist_500_LN_15_LD_18_RN_5_RD_15_0.png","C_Dist_500_LN_15_LD_20_RN_1_RD_4_0.png","C_Dist_500_LN_18_LD_27_RN_1_RD_6_0.png","C_Dist_500_LN_20_LD_24_RN_1_RD_3_0.png","C_Dist_500_LN_20_LD_24_RN_3_RD_9_0.png","C_Dist_500_LN_20_LD_24_RN_7_RD_21_0.png","C_Dist_500_LN_20_LD_28_RN_3_RD_14_0.png","C_Dist_500_LN_21_LD_28_RN_6_RD_24_0.png","C_Dist_500_LN_22_LD_28_RN_2_RD_7_0.png","C_Dist_500_LN_25_LD_30_RN_9_RD_27_0.png","C_Dist_500_LN_4_LD_6_RN_1_RD_6_0.png","C_Dist_500_LN_5_LD_6_RN_2_RD_6_0.png","C_Dist_500_LN_6_LD_9_RN_1_RD_6_0.png","C_Dist_500_LN_7_LD_10_RN_1_RD_5_0.png","C_Dist_500_LN_8_LD_12_RN_1_RD_6_0.png","C_Dist_500_LN_8_LD_12_RN_4_RD_24_0.png"],["C_Dist_500_LN_1_LD_4_RN_12_RD_16_1.png","C_Dist_500_LN_1_LD_4_RN_9_RD_12_1.png","C_Dist_500_LN_1_LD_9_RN_11_RD_18_1.png","C_Dist_500_LN_10_LD_24_RN_22_RD_24_1.png","C_Dist_500_LN_2_LD_12_RN_10_RD_15_1.png","C_Dist_500_LN_2_LD_12_RN_12_RD_18_1.png","C_Dist_500_LN_2_LD_12_RN_4_RD_6_1.png","C_Dist_500_LN_2_LD_24_RN_7_RD_12_1.png","C_Dist_500_LN_2_LD_5_RN_18_RD_20_1.png","C_Dist_500_LN_2_LD_5_RN_9_RD_10_1.png","C_Dist_500_LN_2_LD_8_RN_12_RD_16_1.png","C_Dist_500_LN_2_LD_8_RN_21_RD_28_1.png","C_Dist_500_LN_3_LD_10_RN_4_RD_5_1.png","C_Dist_500_LN_3_LD_12_RN_15_RD_20_1.png","C_Dist_500_LN_3_LD_30_RN_6_RD_10_1.png","C_Dist_500_LN_3_LD_8_RN_14_RD_16_1.png","C_Dist_500_LN_4_LD_16_RN_15_RD_20_1.png","C_Dist_500_LN_4_LD_24_RN_12_RD_18_1.png","C_Dist_500_LN_5_LD_14_RN_6_RD_7_1.png","C_Dist_500_LN_7_LD_21_RN_20_RD_24_1.png","C_Dist_500_LN_7_LD_28_RN_12_RD_16_1.png","C_Dist_500_LN_7_LD_28_RN_9_RD_12_1.png","C_Dist_500_LN_9_LD_27_RN_20_RD_24_1.png"]],"dist500_I":[["I_Dist_500_LN_2_LD_3_RN_4_RD_24_0.png","I_Dist_500_LN_5_LD_6_RN_6_RD_18_0.png","I_Dist_500_LN_7_LD_8_RN_9_RD_24_0.png"],["I_Dist_500_LN_7_LD_21_RN_5_RD_6_1.png"]],"dist500_S":[["E_Dist_500_LN_6_LD_8_RN_6_RD_24_0.png"],["E_Dist_500_LN_2_LD_12_RN_2_RD_3_1.png","E_Dist_500_LN_6_LD_24_RN_6_RD_8_1.png"]]}},{"start_time":1551790174046,"click_time":1551790177094,"finger_time":1551790176734,"fix_duration":250,"trial":1,"RT":2688,"MT":360,"sideResp":1,"stimulus":[],"xmouse":[791,791,791,791,792,792,792,792,792,792,792,792,792,792,792,792,792,792,792,792,792,792,792,792,792,792,792,792,792,792,792,792,792,792,792,792,792,792,792,792,792,792,792,792,792,792,792,792,792,792,792,792,792,792,792,792,792,792,792,792,792,792,792,792,792,792,792,792,792,792,792,792,792,792,792,792,792,792,792,792,792,792,792,792,792,792,792,792,792,792,792,792,792,792,792,792,792,792,792,792,783,777,777,777,777,777,777,777,777,777,777,777,777,777,777,777,777,777,777,777,777,777,777,777,776,776,776,776,776,776,776,776,776,774,769,734,704,672,630,600,566,561,558,557,555,552,550,548,548,548,543,534,520],"ymouse":[526,526,526,525,524,524,524,524,524,524,524,524,524,524,524,524,524,524,524,524,524,524,524,524,524,524,524,524,524,524,524,524,524,524,524,524,524,524,524,524,524,524,524,524,524,524,524,524,524,524,524,524,524,524,524,524,524,524,524,524,524,524,524,524,524,524,524,524,524,524,524,524,524,524,524,524,524,525,525,525,525,525,525,525,525,525,525,525,525,525,525,525,525,525,525,525,525,525,525,525,525,525,524,524,524,524,524,524,524,524,524,524,524,524,524,524,524,524,524,524,524,524,524,524,524,524,524,524,524,524,524,523,517,509,496,420,364,306,210,157,98,84,74,65,60,53,51,50,50,50,50,50,52],"timestamp_mouse":[12,42,47,67,88,108,128,147,168,189,207,227,247,269,289,307,328,347,367,387,408,428,449,468,488,509,529,547,568,589,609,627,647,668,689,707,728,749,768,787,808,829,849,868,889,908,928,948,968,987,1009,1029,1048,1067,1087,1108,1128,1147,1169,1188,1208,1227,1248,1269,1289,1308,1327,1347,1369,1388,1408,1429,1448,1468,1488,1509,1529,1547,1568,1588,1608,1627,1649,1669,1689,1708,1728,1748,1769,1789,1809,1828,1849,1868,1888,1908,1927,1947,1968,1987,2009,2027,2048,2068,2087,2109,2127,2149,2168,2188,2209,2229,2249,2269,2288,2308,2328,2349,2368,2387,2408,2429,2448,2467,2488,2508,2529,2547,2568,2587,2609,2627,2648,2667,2688,2708,2728,2748,2769,2788,2808,2827,2847,2867,2887,2908,2928,2948,2969,2988,3007,3027,3048],"xSR":741.5,"ySR":501.8,"xT1":424.9,"yT1":0,"xT2":1058.1,"yT2":0,"toosoon":0,"cond_shown":"Incongruent","ratio_trial":300,"L_num":8,"L_den":10,"R_num":14,"R_den":28,"correct_side":1,"subjID":"AlbertoCruzgalan11","gender":"0","school":"6","age":"11"},{"start_time":1551790179211,"click_time":1551790182975,"finger_time":1551790182274,"fix_duration":633.9079005711658,"trial":2,"RT":3063,"MT":701,"sideResp":2,"stimulus":[],"xmouse":[805,805,805,805,805,805,805,805,805,805,805,805,805,805,805,805,805,805,805,805,805,805,805,805,805,805,805,805,805,805,805,805,805,805,805,805,805,805,805,805,805,805,805,805,805,805,805,805,805,805,805,805,805,805,805,805,805,805,805,805,805,805,805,805,805,805,805,805,805,805,805,805,805,805,805,805,805,805,805,805,805,805,805,805,805,806,806,806,806,806,806,806,806,806,806,806,807,807,807,807,807,807,807,807,807,807,807,807,807,807,807,807,807,807,807,807,807,807,807,807,807,807,807,807,807,807,807,807,807,807,807,807,807,807,807,807,807,807,807,807,807,807,807,807,807,807,807,807,807,807,807,807,814,819,828,838,848,867,893,915,929,939,953,960,968,974,981,985,991,994,1003,1009,1014,1015,1017,1019,1028,1049,1058,1069,1071,1071,1072,1074,1075,1076,1077,1077,1079],"ymouse":[520,520,520,520,520,520,520,520,520,520,520,520,520,520,520,520,520,520,520,520,520,520,520,520,520,520,520,520,520,520,520,520,520,520,520,520,520,520,520,520,520,520,520,520,520,520,520,520,520,520,520,520,520,520,520,520,520,520,520,520,520,520,520,520,520,520,520,520,520,520,520,520,520,520,520,520,520,520,520,520,520,520,520,520,520,520,520,520,520,520,520,520,520,520,520,520,520,520,520,520,520,520,520,520,520,520,520,520,520,520,520,520,520,520,520,520,520,520,520,520,520,520,520,520,520,520,520,520,520,520,520,520,520,520,520,520,520,520,520,520,520,520,520,520,520,520,520,520,520,520,520,520,510,500,488,471,446,420,397,381,370,359,332,315,297,277,255,226,202,191,159,147,140,139,138,137,131,123,117,107,105,105,105,104,103,102,101,100,99],"timestamp_mouse":[8,22,48,63,82,103,122,144,162,184,203,223,243,263,282,303,322,344,364,383,403,422,442,464,482,502,524,543,563,584,602,622,643,663,684,704,723,743,762,784,803,823,843,863,882,903,922,943,962,982,1003,1023,1043,1064,1083,1104,1123,1142,1164,1182,1203,1223,1243,1263,1282,1304,1322,1343,1362,1384,1404,1423,1443,1464,1483,1503,1524,1543,1563,1584,1603,1623,1644,1664,1684,1704,1723,1742,1763,1783,1802,1823,1842,1864,1884,1902,1922,1944,1963,1983,2002,2022,2043,2062,2084,2103,2124,2143,2162,2183,2202,2224,2243,2262,2282,2303,2323,2343,2364,2384,2404,2423,2444,2463,2484,2502,2524,2542,2563,2582,2603,2623,2643,2664,2682,2703,2722,2743,2763,2783,2802,2823,2842,2864,2882,2903,2922,2944,2967,2984,3003,3023,3042,3062,3082,3103,3124,3143,3162,3182,3203,3224,3242,3262,3282,3303,3322,3342,3363,3383,3403,3423,3443,3463,3483,3502,3523,3542,3563,3582,3602,3623,3643,3663,3683,3703,3723,3742,3763],"xSR":741.5,"ySR":501.8,"xT1":424.9,"yT1":0,"xT2":1058.1,"yT2":0,"toosoon":0,"cond_shown":"Incongruent","ratio_trial":100,"L_num":10,"L_den":25,"R_num":8,"R_den":16,"correct_side":2,"subjID":"AlbertoCruzgalan11","gender":"0","school":"6","age":"11"},{"start_time":1551790186540,"click_time":1551790187693,"finger_time":1551790187554,"fix_duration":664.7071291988807,"trial":3,"RT":1014,"MT":139,"sideResp":1,"stimulus":[],"xmouse":[797,797,797,797,797,797,797,797,797,797,797,797,797,797,797,797,797,797,797,797,797,797,797,797,797,797,797,797,797,797,797,797,797,797,797,797,797,797,797,797,797,797,795,795,794,794,794,792,789,784,766,749,724,678,646,565,516,484],"ymouse":[524,524,524,524,524,524,524,524,524,524,524,524,524,524,524,524,524,524,524,524,524,524,524,524,524,524,524,524,524,524,524,524,524,524,524,524,524,524,524,524,524,524,524,524,524,524,524,522,514,502,471,446,411,343,284,165,110,73],"timestamp_mouse":[15,35,53,75,94,114,134,153,173,194,215,235,255,273,295,313,334,353,373,395,413,433,454,475,493,515,533,555,575,593,614,635,653,674,694,715,734,755,775,793,815,834,853,873,893,914,933,954,974,994,1014,1034,1054,1075,1093,1114,1133,1153],"xSR":741.5,"ySR":501.8,"xT1":424.9,"yT1":0,"xT2":1058.1,"yT2":0,"toosoon":0,"cond_shown":"Congruent","ratio_trial":300,"L_num":20,"L_den":25,"R_num":9,"R_den":18,"correct_side":1,"subjID":"AlbertoCruzgalan11","gender":"0","school":"6","age":"11"},{"start_time":1551790190204,"click_time":1551790192213,"finger_time":1551790191754,"fix_duration":1089.5042522545089,"trial":4,"RT":1550,"MT":459,"sideResp":2,"stimulus":[],"xmouse":[784,784,784,784,784,784,785,785,786,786,786,786,786,786,786,786,786,786,786,786,786,786,786,786,786,786,786,786,786,786,786,786,786,786,786,786,786,786,786,786,786,786,786,786,786,786,786,786,786,786,786,786,786,786,786,786,786,786,786,786,786,786,786,786,786,786,786,786,786,786,786,786,786,788,793,801,816,908,983,1050,1113,1123,1127,1128,1131,1134,1136,1134,1119,1085,1062,1052,1048,1048,1048,1048,1048,1048,1049,1052,1060],"ymouse":[565,565,565,565,565,565,565,565,564,564,564,564,564,564,564,564,564,564,564,564,564,564,564,564,564,564,564,564,564,564,564,564,564,564,564,564,564,564,564,564,564,564,564,564,564,564,564,564,564,564,564,564,564,564,564,564,564,564,564,564,564,564,564,564,564,564,564,564,564,564,564,564,564,561,556,549,537,491,461,433,393,382,367,353,339,325,304,253,213,150,123,111,97,92,86,82,80,80,80,80,80],"timestamp_mouse":[11,30,63,71,90,109,129,149,170,190,210,229,251,270,290,310,331,351,370,390,410,431,449,471,491,510,530,550,569,591,610,631,650,670,690,709,730,750,770,791,810,830,850,869,891,911,930,949,970,990,1011,1030,1050,1071,1091,1111,1131,1150,1169,1190,1210,1229,1250,1271,1290,1310,1329,1350,1369,1390,1411,1430,1450,1470,1490,1510,1530,1550,1570,1590,1610,1630,1650,1669,1689,1709,1729,1750,1770,1789,1811,1830,1849,1869,1891,1910,1930,1950,1969,1991,2009],"xSR":741.5,"ySR":501.8,"xT1":424.9,"yT1":0,"xT2":1058.1,"yT2":0,"toosoon":0,"cond_shown":"Congruent","ratio_trial":100,"L_num":4,"L_den":8,"R_num":6,"R_den":10,"correct_side":2,"subjID":"AlbertoCruzgalan11","gender":"0","school":"6","age":"11"},{"start_time":1551790194836,"click_time":1551790196254,"finger_time":1551790195874,"fix_duration":1460.4859103610681,"trial":5,"RT":1038,"MT":380,"sideResp":1,"stimulus":[],"xmouse":[801,801,801,801,801,801,801,801,801,801,801,801,801,801,801,801,801,801,801,801,801,801,801,801,801,801,801,801,801,801,801,801,801,801,801,801,801,801,801,801,801,801,801,801,801,800,798,793,787,781,772,769,766,759,749,706,667,627,583,576,569,567,562,555,549,541,540,540,533,525,515],"ymouse":[535,535,535,535,535,535,535,535,535,535,535,535,535,535,535,535,535,535,535,535,535,535,535,535,535,535,535,535,535,535,535,535,535,535,535,535,535,535,535,535,535,535,535,535,535,535,529,523,516,510,503,499,495,485,469,393,326,259,202,186,171,162,148,132,120,107,102,100,85,72,58],"timestamp_mouse":[18,47,58,78,98,117,139,159,177,199,218,238,259,278,297,319,337,357,378,398,417,438,457,478,499,517,538,559,577,598,618,638,658,679,698,719,739,757,778,799,818,838,857,879,899,918,939,958,977,998,1018,1038,1058,1078,1099,1118,1138,1158,1178,1198,1218,1237,1258,1277,1299,1318,1338,1357,1377,1398,1418],"xSR":741.5,"ySR":501.8,"xT1":424.9,"yT1":0,"xT2":1058.1,"yT2":0,"toosoon":0,"cond_shown":"Congruent","ratio_trial":100,"L_num":8,"L_den":16,"R_num":2,"R_den":5,"correct_side":1,"subjID":"AlbertoCruzgalan11","gender":"0","school":"6","age":"11"},{"start_time":1551790199888,"click_time":1551790201415,"finger_time":1551790200794,"fix_duration":1172.9698286348382,"trial":6,"RT":906,"MT":621,"sideResp":1,"stimulus":[],"xmouse":[811,811,811,811,811,811,811,811,811,811,811,811,811,811,811,811,811,811,811,811,811,811,811,811,811,811,811,811,811,811,811,811,811,811,811,811,811,811,811,811,811,803,797,777,769,764,761,759,759,759,759,759,758,742,732,718,700,687,671,652,623,593,577,567,565,563,559,556,555,555,555,555,554,547,537,524,493],"ymouse":[543,543,543,543,543,543,543,543,543,543,543,543,543,543,543,543,543,543,543,543,543,543,543,543,543,543,543,543,543,543,543,543,543,543,543,543,543,543,543,543,543,535,530,512,506,500,497,494,494,494,494,493,491,475,463,449,436,422,393,370,337,300,269,226,212,198,179,164,142,137,133,131,130,121,113,104,91],"timestamp_mouse":[8,27,50,66,87,106,127,146,166,186,205,226,247,265,287,305,325,347,367,385,406,426,447,466,486,506,526,546,566,585,607,627,646,666,685,707,726,747,766,785,807,826,846,866,885,906,926,946,965,986,1006,1026,1045,1065,1085,1106,1126,1146,1167,1185,1206,1226,1245,1265,1286,1306,1325,1347,1366,1385,1405,1426,1446,1466,1485,1505,1527],"xSR":741.5,"ySR":501.8,"xT1":424.9,"yT1":0,"xT2":1058.1,"yT2":0,"toosoon":0,"cond_shown":"Congruent","ratio_trial":300,"L_num":20,"L_den":25,"R_num":14,"R_den":28,"correct_side":1,"subjID":"AlbertoCruzgalan11","gender":"0","school":"6","age":"11"},{"start_time":1551790203008,"click_time":1551790207875,"finger_time":1551790207354,"fix_duration":513.3204623442804,"trial":7,"RT":4346,"MT":521,"sideResp":1,"stimulus":[],"xmouse":[782,782,782,782,782,782,782,782,782,783,783,783,783,783,783,783,783,783,783,785,788,791,791,791,792,792,792,792,792,792,792,792,792,792,792,792,792,792,792,792,792,792,792,792,792,792,792,792,792,792,792,792,792,792,792,792,792,792,792,792,792,792,792,792,792,792,792,792,792,792,792,792,792,792,792,792,792,792,792,792,792,792,792,792,792,792,792,792,792,792,792,792,792,792,792,792,792,792,792,792,792,792,792,792,792,792,792,792,792,792,792,792,792,792,792,792,792,792,792,792,792,792,792,792,792,792,792,792,792,792,792,792,792,792,792,792,792,792,792,792,792,792,792,792,792,792,792,792,792,792,792,792,792,792,792,792,792,792,792,792,792,792,792,792,792,792,792,792,792,792,792,792,792,792,792,792,792,792,792,792,792,792,792,792,792,792,792,792,792,792,792,792,792,792,792,792,792,792,792,792,792,792,792,792,792,792,792,792,792,792,792,792,792,792,790,789,784,774,771,762,758,738,701,681,660,641,620,587,574,564,560,552,546,544,543,543,543,544,547,550,550,549,527,520],"ymouse":[543,543,543,545,545,545,545,545,545,545,545,545,545,545,545,545,545,545,546,546,548,550,550,550,551,551,551,551,551,551,551,551,551,551,551,551,551,551,551,551,551,551,551,551,551,551,551,551,551,551,551,551,551,551,551,551,551,551,551,551,551,551,551,551,551,551,551,551,551,551,551,551,551,551,551,551,551,551,551,551,551,551,551,551,551,551,551,551,551,551,551,551,551,551,551,551,551,551,551,551,551,551,551,551,551,551,551,551,551,551,551,551,551,551,551,551,551,551,551,551,551,551,551,551,551,551,551,551,551,551,551,551,551,551,551,551,551,551,551,551,551,551,551,551,551,551,551,551,551,551,551,551,551,551,551,551,551,551,551,551,551,551,551,551,551,551,551,551,551,551,551,551,551,551,551,551,551,551,551,551,551,551,551,551,551,551,551,551,551,551,551,551,551,551,551,551,551,551,551,551,551,551,551,551,551,551,551,551,551,551,551,551,551,551,545,535,511,467,450,419,410,373,329,307,288,277,267,254,245,240,235,228,218,211,205,197,182,154,142,136,135,129,106,96],"timestamp_mouse":[9,26,47,66,86,107,126,146,165,186,207,227,246,267,286,306,328,347,366,386,408,426,447,467,488,508,527,546,567,586,607,626,646,667,687,706,727,746,768,786,807,827,848,867,887,906,927,946,966,987,1008,1027,1047,1068,1086,1107,1127,1147,1166,1186,1207,1227,1247,1268,1287,1307,1327,1347,1367,1386,1408,1426,1447,1467,1486,1507,1527,1546,1566,1588,1606,1627,1647,1668,1686,1706,1727,1747,1767,1788,1806,1827,1847,1866,1887,1908,1926,1947,1966,1988,2007,2026,2046,2068,2087,2108,2127,2147,2168,2187,2207,2227,2248,2267,2288,2308,2327,2347,2366,2386,2408,2427,2446,2467,2488,2507,2527,2548,2568,2587,2608,2628,2647,2666,2688,2708,2728,2747,2767,2788,2807,2828,2846,2868,2886,2908,2927,2947,2968,2987,3008,3027,3046,3067,3086,3108,3127,3146,3168,3187,3207,3227,3247,3268,3288,3308,3327,3347,3368,3386,3406,3427,3447,3466,3488,3508,3526,3548,3567,3588,3609,3627,3647,3667,3688,3707,3727,3748,3768,3787,3807,3827,3847,3867,3887,3907,3928,3947,3967,3987,4006,4027,4047,4067,4088,4108,4126,4147,4167,4187,4206,4227,4247,4266,4286,4306,4327,4346,4366,4386,4408,4427,4447,4466,4486,4507,4526,4546,4566,4587,4607,4627,4647,4667,4687,4706,4726,4746,4767,4787,4807,4827,4846,4866],"xSR":741.5,"ySR":501.8,"xT1":424.9,"yT1":0,"xT2":1058.1,"yT2":0,"toosoon":0,"cond_shown":"Congruent","ratio_trial":100,"L_num":2,"L_den":5,"R_num":6,"R_den":12,"correct_side":2,"subjID":"AlbertoCruzgalan11","gender":"0","school":"6","age":"11"},{"start_time":1551790211274,"click_time":1551790212434,"finger_time":1551790212254,"fix_duration":677.8887683907669,"trial":8,"RT":980,"MT":180,"sideResp":1,"stimulus":[],"xmouse":[787,787,787,787,787,787,787,787,787,787,787,787,787,787,787,787,787,787,787,787,787,787,787,787,787,787,787,787,787,787,787,787,787,787,787,787,787,787,787,787,787,787,787,787,787,787,787,787,785,777,763,746,720,680,605,571,544,518,508],"ymouse":[532,532,532,532,532,532,532,532,532,532,532,532,532,532,532,532,532,532,532,532,532,532,532,532,532,532,532,532,532,532,532,532,532,532,532,532,532,532,532,532,532,532,532,532,532,532,532,532,532,500,466,431,386,331,233,186,145,108,93],"timestamp_mouse":[8,20,40,61,80,101,120,142,160,182,201,221,240,262,281,302,321,342,361,381,400,422,442,461,481,502,520,542,561,581,602,620,641,661,680,701,721,740,761,782,801,820,842,860,880,902,922,940,962,980,1001,1022,1041,1061,1080,1101,1121,1140,1160],"xSR":741.5,"ySR":501.8,"xT1":424.9,"yT1":0,"xT2":1058.1,"yT2":0,"toosoon":0,"cond_shown":"Incongruent","ratio_trial":200,"L_num":7,"L_den":15,"R_num":4,"R_den":6,"correct_side":2,"subjID":"AlbertoCruzgalan11","gender":"0","school":"6","age":"11"},{"start_time":1551790214261,"click_time":1551790215614,"finger_time":1551790215274,"fix_duration":1004.5261230071577,"trial":9,"RT":1013,"MT":340,"sideResp":2,"stimulus":[],"xmouse":[817,817,817,817,817,817,817,817,817,817,817,817,817,817,817,817,817,817,817,817,817,817,817,817,817,817,817,817,817,817,817,817,817,817,817,817,817,817,817,817,817,817,817,817,817,817,817,820,824,839,848,852,854,854,866,882,898,915,926,943,954,964,976,989,1015,1034,1039,1060],"ymouse":[556,556,556,556,556,556,556,556,556,556,556,556,556,556,556,556,556,556,556,556,556,556,556,556,556,556,556,556,556,556,556,556,556,556,556,556,556,556,556,556,556,556,556,556,556,556,553,548,540,510,487,470,457,448,419,390,359,322,303,273,258,244,227,209,162,132,123,94],"timestamp_mouse":[13,40,54,74,94,114,134,155,175,194,214,234,253,274,294,315,334,353,374,393,415,434,454,475,493,515,535,553,575,594,613,633,653,674,694,713,733,755,774,794,814,833,854,874,894,913,934,953,974,993,1013,1034,1053,1074,1094,1115,1134,1153,1174,1194,1213,1234,1253,1274,1293,1315,1333,1353],"xSR":741.5,"ySR":501.8,"xT1":424.9,"yT1":0,"xT2":1058.1,"yT2":0,"toosoon":0,"cond_shown":"Incongruent","ratio_trial":100,"L_num":9,"L_den":15,"R_num":13,"R_den":26,"correct_side":1,"subjID":"AlbertoCruzgalan11","gender":"0","school":"6","age":"11"},{"start_time":1551790217937,"click_time":1551790219795,"finger_time":1551790219394,"fix_duration":1319.9993177735125,"trial":10,"RT":1457,"MT":401,"sideResp":1,"stimulus":[],"xmouse":[777,777,777,777,777,778,778,779,779,779,779,779,779,779,779,779,779,779,779,779,780,780,780,780,780,780,780,780,780,780,780,780,780,780,780,780,780,780,780,780,780,780,780,780,780,780,780,780,780,780,780,780,780,780,780,780,780,780,780,780,780,780,780,780,780,780,780,780,780,779,775,770,759,739,724,691,675,662,651,642,625,616,604,590,568,550,544,541,537,536,530,526,524],"ymouse":[550,550,550,550,550,550,550,549,549,548,548,548,548,548,548,548,548,548,548,547,546,546,545,545,545,545,545,545,545,545,545,545,545,545,545,545,545,545,545,545,545,545,545,545,545,545,545,545,545,545,545,545,545,545,545,545,543,542,540,539,539,539,539,539,539,539,539,539,539,535,524,511,490,462,444,405,386,367,351,334,297,276,255,231,196,156,141,129,120,116,106,101,99],"timestamp_mouse":[18,37,66,78,99,117,138,158,179,198,217,238,258,278,299,317,337,359,377,397,418,437,458,478,498,518,538,559,577,599,619,637,659,679,698,717,739,758,778,799,819,837,857,879,897,917,937,959,979,998,1017,1039,1059,1078,1099,1118,1138,1157,1178,1198,1217,1238,1258,1277,1299,1318,1338,1358,1378,1398,1417,1438,1457,1478,1498,1518,1537,1558,1577,1598,1618,1638,1658,1679,1697,1718,1737,1758,1778,1798,1817,1838,1858],"xSR":741.5,"ySR":501.8,"xT1":424.9,"yT1":0,"xT2":1058.1,"yT2":0,"toosoon":0,"cond_shown":"Incongruent","ratio_trial":200,"L_num":14,"L_den":30,"R_num":12,"R_den":18,"correct_side":2,"subjID":"AlbertoCruzgalan11","gender":"0","school":"6","age":"11"},{"start_time":1551790221165,"click_time":1551790222295,"finger_time":1551790221915,"fix_duration":250,"trial":11,"RT":750,"MT":380,"sideResp":2,"stimulus":[],"xmouse":[777,777,777,777,777,777,777,777,777,777,777,777,777,777,777,777,777,777,777,777,778,779,781,782,785,787,788,788,788,789,791,791,792,794,799,802,807,817,830,862,888,946,1006,1082,1174,1187,1192,1194,1195,1195,1194,1193,1188,1181,1166,1161,1156],"ymouse":[541,541,541,541,541,541,541,541,541,541,541,541,541,541,541,541,541,541,541,541,541,541,541,541,541,541,541,541,541,541,540,540,539,536,528,522,513,497,477,431,394,326,261,191,129,117,104,85,74,66,64,62,58,55,51,50,49],"timestamp_mouse":[11,35,50,71,89,109,130,150,170,190,209,229,249,271,289,310,330,350,369,389,410,430,451,470,490,509,531,551,569,589,610,630,650,670,690,710,731,750,770,789,811,829,849,871,890,910,930,949,971,989,1011,1030,1049,1070,1089,1109,1130],"xSR":741.5,"ySR":501.8,"xT1":424.9,"yT1":0,"xT2":1058.1,"yT2":0,"toosoon":0,"cond_shown":"Congruent","ratio_trial":300,"L_num":1,"L_den":5,"R_num":11,"R_den":22,"correct_side":2,"subjID":"AlbertoCruzgalan11","gender":"0","school":"6","age":"11"},{"start_time":1551790225152,"click_time":1551790226895,"finger_time":1551790226754,"fix_duration":1477.695647095777,"trial":12,"RT":1602,"MT":141,"sideResp":2,"stimulus":[],"xmouse":[799,800,800,800,800,800,800,800,800,800,800,800,800,800,800,800,800,800,800,800,800,800,800,800,800,800,800,800,800,800,800,800,800,800,800,800,800,800,800,800,800,800,800,800,800,800,800,800,800,800,800,800,800,800,800,800,800,800,800,800,800,800,800,800,800,800,800,800,800,800,800,800,800,800,800,800,800,802,805,812,864,900,941,948,966,1025,1066,1100],"ymouse":[548,549,549,549,549,549,549,549,549,549,549,549,549,549,549,549,549,549,549,549,549,549,549,549,549,549,549,549,549,549,549,549,549,549,549,549,549,549,549,549,549,549,549,549,549,549,549,549,549,549,549,549,549,549,549,549,549,549,549,549,549,549,549,549,549,549,549,549,549,549,549,549,549,549,549,549,548,544,539,527,448,382,301,284,242,171,133,99],"timestamp_mouse":[11,22,50,64,84,102,124,142,163,182,203,222,243,263,283,303,322,344,364,382,404,423,443,463,483,503,523,542,563,583,603,623,644,663,683,703,723,743,763,784,804,822,843,864,883,903,923,943,964,984,1003,1024,1042,1063,1083,1102,1124,1144,1163,1184,1202,1223,1243,1263,1283,1303,1323,1344,1363,1383,1403,1423,1443,1464,1482,1503,1523,1544,1563,1583,1602,1623,1642,1663,1683,1702,1723,1742],"xSR":741.5,"ySR":501.8,"xT1":424.9,"yT1":0,"xT2":1058.1,"yT2":0,"toosoon":0,"cond_shown":"Congruent","ratio_trial":300,"L_num":3,"L_den":6,"R_num":4,"R_den":5,"correct_side":2,"subjID":"AlbertoCruzgalan11","gender":"0","school":"6","age":"11"},{"start_time":1551790228246,"click_time":1551790230174,"finger_time":1551790229854,"fix_duration":250,"trial":13,"RT":1608,"MT":320,"sideResp":2,"stimulus":[],"xmouse":[773,773,773,773,773,773,773,773,773,773,773,773,773,773,773,773,773,773,773,773,773,773,773,773,773,773,773,773,773,773,773,773,773,773,773,773,773,773,773,773,773,773,773,773,773,773,773,773,773,773,773,773,773,773,773,773,773,773,773,773,773,773,773,773,773,773,773,773,773,773,773,773,773,773,773,773,773,773,775,779,800,840,896,950,990,1016,1018,1019,1020,1020,1025,1027,1031,1038,1044,1056,1060],"ymouse":[539,539,539,539,539,539,539,539,539,539,539,539,539,539,539,539,539,539,539,539,539,539,539,539,539,539,539,539,539,539,539,539,539,539,539,539,539,539,539,539,539,539,539,539,539,539,539,539,539,539,539,539,539,539,539,539,539,539,539,539,539,539,539,539,539,539,539,539,539,539,539,539,539,539,539,539,539,539,535,526,484,429,384,335,287,252,244,241,238,237,213,195,173,154,135,105,88],"timestamp_mouse":[9,38,50,70,88,109,128,149,169,188,208,230,248,270,289,309,330,348,369,389,408,430,448,468,489,509,528,549,569,589,608,629,649,669,689,709,729,748,769,788,810,829,849,869,890,909,928,948,969,988,1009,1029,1049,1069,1089,1109,1130,1149,1170,1190,1209,1229,1249,1269,1289,1309,1329,1349,1369,1389,1409,1428,1449,1469,1489,1509,1530,1549,1568,1589,1608,1629,1649,1668,1688,1708,1730,1748,1768,1789,1810,1829,1850,1870,1889,1908,1928],"xSR":741.5,"ySR":501.8,"xT1":424.9,"yT1":0,"xT2":1058.1,"yT2":0,"toosoon":0,"cond_shown":"Incongruent","ratio_trial":300,"L_num":13,"L_den":26,"R_num":12,"R_den":15,"correct_side":2,"subjID":"AlbertoCruzgalan11","gender":"0","school":"6","age":"11"},{"start_time":1551790231106,"click_time":1551790234395,"finger_time":1551790233495,"fix_duration":250,"trial":14,"RT":2389,"MT":900,"sideResp":1,"stimulus":[],"xmouse":[771,771,771,771,771,771,771,771,770,770,770,770,770,770,770,769,769,769,769,769,769,769,769,769,769,769,769,769,769,769,769,769,769,769,768,767,767,767,767,765,765,765,765,765,765,765,764,763,763,763,763,763,763,763,763,763,763,763,762,762,762,762,762,761,761,760,760,760,760,760,760,760,760,760,760,760,760,760,760,760,760,760,760,760,760,760,760,760,760,760,760,760,760,760,760,760,760,760,760,760,760,760,760,760,758,754,751,750,750,750,750,750,750,750,750,750,750,750,745,736,723,709,683,679,677,668,657,632,618,605,594,582,577,576,576,576,585,598,602,604,604,604,601,597,594,587,582,576,570,564,555,547,536,535,535,535,534,533,533,533,533,533,530,525,517],"ymouse":[571,571,571,571,571,571,571,571,571,571,571,571,571,571,571,572,572,572,572,572,572,572,572,572,572,572,572,572,572,572,572,572,572,572,572,573,573,573,574,574,574,575,575,575,575,575,575,575,575,575,575,575,575,575,575,575,575,575,575,575,575,575,575,575,575,576,576,576,576,576,576,576,576,576,576,576,576,576,576,576,576,576,576,576,576,576,576,576,576,576,576,576,576,576,576,576,576,576,576,576,576,576,576,576,576,576,576,576,576,576,576,576,576,576,576,576,576,576,572,551,526,499,464,460,457,441,420,372,346,320,297,261,241,224,204,172,144,101,87,78,77,77,75,73,70,66,64,64,64,64,64,62,60,60,60,60,60,60,60,60,60,60,60,60,61],"timestamp_mouse":[9,43,49,68,89,110,129,149,169,188,210,229,249,269,289,309,329,349,369,390,408,428,448,469,489,510,528,549,569,588,609,628,649,669,689,709,729,749,768,789,809,828,849,870,889,909,928,949,969,989,1010,1028,1049,1068,1089,1109,1129,1148,1168,1189,1209,1229,1249,1269,1289,1309,1329,1349,1369,1389,1409,1429,1449,1469,1489,1509,1529,1548,1568,1589,1609,1628,1649,1668,1689,1709,1729,1749,1769,1789,1809,1829,1848,1869,1890,1909,1928,1949,1968,1988,2009,2030,2048,2068,2089,2109,2130,2148,2176,2189,2209,2228,2250,2269,2289,2310,2328,2349,2369,2389,2408,2430,2449,2469,2489,2510,2529,2549,2568,2588,2609,2631,2649,2669,2688,2710,2729,2749,2768,2789,2810,2829,2849,2869,2890,2910,2928,2950,2969,2988,3008,3028,3048,3069,3088,3108,3129,3149,3169,3189,3210,3229,3249,3269,3288],"xSR":741.5,"ySR":501.8,"xT1":424.9,"yT1":0,"xT2":1058.1,"yT2":0,"toosoon":0,"cond_shown":"Congruent","ratio_trial":200,"L_num":14,"L_den":28,"R_num":6,"R_den":20,"correct_side":1,"subjID":"AlbertoCruzgalan11","gender":"0","school":"6","age":"11"},{"start_time":1551790236723,"click_time":1551790239316,"finger_time":1551790238935,"fix_duration":1367.4958336094135,"trial":15,"RT":2212,"MT":381,"sideResp":1,"stimulus":[],"xmouse":[763,763,764,764,764,764,764,764,764,764,764,764,764,764,764,764,764,764,764,764,764,764,764,764,764,764,764,764,764,764,764,764,764,764,764,764,764,764,764,764,764,764,764,764,764,764,764,764,764,764,764,764,764,764,764,764,764,764,764,764,764,764,764,764,764,764,764,764,764,764,764,764,764,764,764,764,764,764,764,764,764,764,764,764,764,764,764,764,762,761,760,760,760,760,760,760,760,760,759,759,759,759,759,759,759,759,759,753,748,742,737,734,734,734,733,732,725,723,721,717,714,706,698,688,658,630,544,521,512,507],"ymouse":[554,554,555,555,556,557,557,558,559,560,561,561,561,561,561,561,561,561,561,561,561,561,561,561,561,561,561,561,561,561,561,561,561,561,561,561,561,561,561,561,561,561,561,561,561,561,561,561,561,561,561,561,561,561,561,561,561,561,561,561,561,561,561,561,561,561,561,561,561,561,561,561,561,561,561,561,561,561,561,561,561,561,561,561,561,561,561,561,561,561,561,561,561,561,561,561,561,561,561,561,561,561,561,561,561,561,560,553,549,544,541,539,539,538,535,530,515,510,505,500,495,478,461,438,372,308,180,136,114,99],"timestamp_mouse":[12,32,53,71,92,112,132,153,173,191,212,232,251,272,292,312,331,351,372,393,411,432,451,472,493,511,532,553,572,593,612,632,652,672,693,712,731,753,772,791,813,831,851,873,891,911,932,951,972,992,1013,1032,1052,1072,1092,1112,1132,1151,1172,1193,1213,1231,1252,1272,1293,1311,1332,1353,1372,1393,1412,1432,1452,1472,1492,1513,1532,1552,1572,1592,1611,1631,1653,1672,1693,1711,1732,1752,1772,1791,1811,1832,1853,1873,1893,1912,1932,1951,1972,1992,2013,2032,2053,2071,2091,2112,2132,2152,2173,2191,2212,2231,2253,2272,2293,2312,2331,2352,2372,2392,2412,2432,2451,2471,2492,2512,2532,2551,2571,2592],"xSR":741.5,"ySR":501.8,"xT1":424.9,"yT1":0,"xT2":1058.1,"yT2":0,"toosoon":0,"cond_shown":"Incongruent","ratio_trial":300,"L_num":1,"L_den":2,"R_num":2,"R_den":10,"correct_side":1,"subjID":"AlbertoCruzgalan11","gender":"0","school":"6","age":"11"},{"start_time":1551790240996,"click_time":1551790243355,"finger_time":1551790242854,"fix_duration":620.1913741409493,"trial":16,"RT":1858,"MT":501,"sideResp":1,"stimulus":[],"xmouse":[800,800,800,800,800,800,800,800,800,800,800,800,800,800,800,800,800,800,799,799,799,799,799,799,799,799,799,799,799,799,799,799,799,799,799,799,799,799,799,799,799,799,799,799,799,799,799,799,799,799,799,799,799,799,799,799,799,799,799,799,799,798,798,798,798,798,798,798,798,798,798,798,798,798,798,798,798,798,798,798,798,798,798,798,798,798,798,798,798,799,799,798,792,787,779,767,747,696,664,639,619,613,608,606,605,602,599,594,593,591,586,580,561,548,536,528,525,519],"ymouse":[526,526,526,526,526,526,526,526,526,526,526,526,526,526,526,526,526,526,527,528,528,528,528,528,528,528,528,528,528,528,528,528,528,528,528,528,528,528,528,528,528,528,528,528,528,528,528,528,528,528,528,528,528,528,528,528,528,528,529,530,530,531,531,531,531,531,531,531,531,531,531,531,531,531,531,531,531,531,531,531,531,531,531,531,531,531,531,529,521,516,513,509,497,484,466,440,408,340,300,260,221,209,198,193,189,183,179,168,166,163,156,146,123,109,103,100,99,98],"timestamp_mouse":[19,41,60,79,98,118,140,159,178,200,219,238,259,279,299,319,339,359,378,399,420,438,459,479,500,519,538,558,579,599,619,639,659,678,699,720,738,759,778,799,819,838,859,880,900,919,938,959,980,1000,1019,1038,1060,1078,1100,1118,1138,1159,1179,1200,1219,1238,1259,1280,1299,1320,1339,1359,1380,1398,1420,1439,1459,1480,1498,1520,1539,1559,1580,1599,1618,1639,1659,1679,1700,1719,1739,1758,1780,1799,1819,1838,1858,1878,1898,1918,1939,1959,1978,1998,2019,2039,2058,2079,2099,2118,2139,2158,2180,2200,2220,2239,2260,2278,2299,2319,2340,2359],"xSR":741.5,"ySR":501.8,"xT1":424.9,"yT1":0,"xT2":1058.1,"yT2":0,"toosoon":0,"cond_shown":"Incongruent","ratio_trial":100,"L_num":9,"L_den":15,"R_num":13,"R_den":26,"correct_side":1,"subjID":"AlbertoCruzgalan11","gender":"0","school":"6","age":"11"},{"start_time":1551790245076,"click_time":1551790247295,"finger_time":1551790246915,"fix_duration":839.0297526729452,"trial":17,"RT":1839,"MT":380,"sideResp":2,"stimulus":[],"xmouse":[786,786,786,786,786,786,786,786,786,786,787,787,788,788,788,788,788,788,788,788,788,788,788,788,788,788,788,788,788,788,788,788,788,788,788,788,788,788,788,788,788,788,788,788,788,788,788,788,789,789,789,789,789,789,789,789,789,789,789,789,789,789,789,789,789,789,789,789,789,789,789,789,789,789,789,789,789,789,789,789,789,789,789,789,789,792,801,809,819,824,833,845,863,911,939,950,973,984,995,998,1002,1006,1011,1021,1026,1037,1046,1052,1066,1073,1077],"ymouse":[553,553,553,553,553,553,553,553,553,553,553,553,553,553,553,553,553,553,553,553,553,553,553,553,553,553,553,553,553,553,553,553,553,553,553,553,553,553,553,553,553,553,553,553,553,553,553,553,553,553,553,553,553,553,553,553,553,553,553,553,553,553,553,553,553,553,553,553,553,553,553,553,553,553,553,553,553,553,553,553,553,553,553,553,553,551,548,544,535,530,519,504,484,424,374,348,298,269,215,195,180,171,164,151,143,131,123,116,105,101,99],"timestamp_mouse":[20,40,58,78,98,118,140,158,178,199,219,239,260,278,298,320,358,358,379,400,419,439,459,480,498,520,538,560,578,598,620,639,659,678,700,718,738,760,779,799,818,838,859,879,898,918,938,958,978,999,1019,1039,1058,1078,1099,1118,1139,1159,1179,1198,1220,1238,1258,1279,1299,1320,1339,1360,1378,1399,1419,1440,1459,1479,1499,1518,1540,1559,1578,1598,1620,1640,1658,1678,1699,1719,1738,1759,1779,1798,1820,1839,1860,1879,1898,1918,1938,1958,1979,1998,2018,2038,2059,2079,2099,2118,2139,2159,2179,2198,2219],"xSR":741.5,"ySR":501.8,"xT1":424.9,"yT1":0,"xT2":1058.1,"yT2":0,"toosoon":0,"cond_shown":"Congruent","ratio_trial":100,"L_num":7,"L_den":14,"R_num":9,"R_den":15,"correct_side":2,"subjID":"AlbertoCruzgalan11","gender":"0","school":"6","age":"11"},{"start_time":1551790250471,"click_time":1551790253014,"finger_time":1551790252715,"fix_duration":874.8806924581683,"trial":18,"RT":2244,"MT":299,"sideResp":1,"stimulus":[],"xmouse":[794,794,794,794,794,794,794,794,794,794,794,794,794,794,794,794,794,794,794,794,794,794,794,794,794,794,794,794,794,794,794,794,794,794,794,794,794,794,794,794,794,794,794,794,794,794,794,794,794,794,794,794,794,794,794,794,794,794,794,794,794,794,794,794,794,794,794,794,794,794,794,794,794,794,794,794,794,794,794,796,799,800,800,800,800,800,800,800,800,800,800,800,800,800,800,800,800,800,800,799,799,799,799,799,799,798,798,798,797,792,776,752,706,658,597,577,556,538,520,488,483,482,482,482,489,493,497,502],"ymouse":[553,553,553,553,553,553,553,553,553,553,553,553,553,553,553,553,553,553,553,553,553,553,553,553,553,553,553,553,553,553,553,553,553,553,553,553,553,553,553,553,553,553,553,553,553,553,553,553,553,553,553,553,553,553,553,553,553,553,553,553,553,553,553,553,553,553,553,553,553,553,553,553,553,553,553,553,553,553,553,540,533,531,531,531,531,530,530,530,530,530,530,530,530,530,530,530,530,530,530,530,530,530,530,530,530,530,530,530,530,528,519,507,483,456,429,414,390,350,310,234,214,201,184,167,137,122,108,87],"timestamp_mouse":[11,33,43,65,84,103,124,143,165,184,204,224,243,265,284,304,324,343,363,384,404,423,445,465,484,503,525,544,564,584,604,625,644,664,684,705,725,743,764,784,803,824,844,865,884,905,924,944,965,983,1003,1024,1044,1064,1084,1103,1124,1143,1164,1184,1204,1224,1244,1265,1283,1305,1324,1343,1363,1384,1403,1423,1445,1463,1484,1503,1524,1545,1563,1584,1605,1624,1644,1664,1684,1703,1724,1743,1765,1785,1805,1823,1844,1865,1884,1904,1925,1945,1964,1984,2003,2023,2044,2063,2084,2103,2124,2145,2163,2184,2203,2224,2244,2264,2284,2305,2323,2344,2363,2383,2403,2424,2444,2463,2483,2504,2524,2543],"xSR":741.5,"ySR":501.8,"xT1":424.9,"yT1":0,"xT2":1058.1,"yT2":0,"toosoon":0,"cond_shown":"Congruent","ratio_trial":200,"L_num":7,"L_den":15,"R_num":18,"R_den":27,"correct_side":2,"subjID":"AlbertoCruzgalan11","gender":"0","school":"6","age":"11"},{"start_time":1551790254369,"click_time":1551790256216,"finger_time":1551790255794,"fix_duration":434.12280905154466,"trial":19,"RT":1425,"MT":422,"sideResp":2,"stimulus":[],"xmouse":[773,773,773,773,773,773,773,773,773,773,773,773,773,773,773,773,773,773,773,773,773,773,773,773,773,773,773,773,773,773,773,773,773,773,773,773,773,774,775,775,775,775,775,776,776,776,776,777,777,777,777,777,777,778,778,778,779,779,779,779,779,779,779,779,779,779,779,779,780,784,791,804,816,829,863,883,898,909,921,937,943,952,957,964,976,981,984,990,998,1019,1032,1044,1073],"ymouse":[547,547,547,547,547,547,547,547,547,547,547,547,547,547,547,547,547,547,547,547,547,547,547,547,547,547,547,547,547,547,547,547,547,547,547,547,547,547,546,546,546,546,546,545,545,544,544,543,543,543,541,541,540,539,539,539,538,538,538,538,538,538,538,538,538,538,538,538,537,529,517,499,480,456,366,322,283,247,213,174,160,140,129,118,100,93,89,84,80,70,65,62,57],"timestamp_mouse":[9,37,47,65,85,106,125,147,166,187,206,227,246,267,286,307,326,346,367,385,405,426,447,466,487,505,526,547,565,585,605,625,645,666,686,707,726,746,767,785,805,826,845,867,886,905,927,947,966,986,1006,1026,1047,1065,1087,1105,1126,1146,1165,1186,1205,1226,1247,1265,1285,1305,1326,1345,1366,1385,1406,1425,1446,1466,1486,1505,1525,1547,1566,1586,1605,1625,1646,1665,1687,1706,1725,1746,1766,1785,1806,1826,1847],"xSR":741.5,"ySR":501.8,"xT1":424.9,"yT1":0,"xT2":1058.1,"yT2":0,"toosoon":0,"cond_shown":"Incongruent","ratio_trial":100,"L_num":8,"L_den":16,"R_num":6,"R_den":10,"correct_side":2,"subjID":"AlbertoCruzgalan11","gender":"0","school":"6","age":"11"},{"start_time":1551790257672,"click_time":1551790259316,"finger_time":1551790259014,"fix_duration":356.01619877154855,"trial":20,"RT":1342,"MT":302,"sideResp":2,"stimulus":[],"xmouse":[759,759,759,759,759,759,759,759,759,759,759,759,759,759,760,761,762,762,762,762,762,762,762,762,762,762,762,762,762,762,762,762,762,762,762,762,762,763,763,763,763,763,763,763,763,763,763,763,763,763,763,763,763,763,763,763,763,763,763,763,763,764,764,765,771,778,792,831,881,976,1003,1017,1026,1031,1035,1038,1040,1042,1044,1048,1053,1057,1063],"ymouse":[548,548,548,548,548,548,548,548,548,548,548,548,548,548,548,547,547,547,547,547,547,547,547,547,547,547,547,547,547,546,546,546,546,546,546,546,546,545,545,545,545,545,545,545,545,545,545,545,545,545,545,545,545,545,545,545,545,545,545,545,545,544,544,544,539,531,513,463,382,234,195,175,161,150,141,133,118,103,90,73,60,49,39],"timestamp_mouse":[2,35,43,64,82,102,124,143,163,183,203,223,242,263,283,303,322,343,364,382,402,424,442,462,483,503,523,543,563,582,603,624,643,662,682,703,723,744,763,783,802,824,843,863,883,904,923,942,962,983,1003,1023,1043,1064,1082,1103,1124,1143,1163,1183,1202,1224,1243,1262,1282,1304,1323,1342,1363,1383,1402,1422,1443,1462,1482,1504,1522,1543,1562,1583,1603,1623,1643],"xSR":741.5,"ySR":501.8,"xT1":424.9,"yT1":0,"xT2":1058.1,"yT2":0,"toosoon":0,"cond_shown":"Congruent","ratio_trial":300,"L_num":9,"L_den":10,"R_num":3,"R_den":5,"correct_side":1,"subjID":"AlbertoCruzgalan11","gender":"0","school":"6","age":"11"},{"start_time":1551790261506,"click_time":1551790263554,"finger_time":1551790263054,"fix_duration":1430.5936416698669,"trial":21,"RT":1548,"MT":500,"sideResp":2,"stimulus":[],"xmouse":[811,811,811,811,811,811,811,811,811,811,811,811,811,811,811,811,811,811,811,811,811,811,811,811,811,811,811,811,811,811,811,811,811,811,811,811,811,811,811,811,811,811,811,811,811,811,811,811,811,811,811,811,811,811,811,811,811,811,811,811,811,811,811,811,811,811,811,811,811,811,811,811,812,815,821,833,840,860,870,881,891,911,956,971,984,996,1010,1019,1022,1026,1032,1035,1037,1039,1041,1044,1047,1050,1052,1055,1057,1058,1059],"ymouse":[570,570,570,570,570,570,570,570,570,570,570,570,570,570,570,570,570,570,570,570,570,570,570,570,570,570,570,570,570,570,570,570,570,570,570,570,570,570,570,570,570,570,570,570,570,570,570,570,570,570,570,570,570,570,570,570,570,570,570,570,570,570,570,570,570,570,570,570,570,570,570,570,565,561,554,538,528,494,461,423,387,339,262,248,233,219,200,185,179,175,168,164,159,154,147,139,133,122,113,106,98,93,84],"timestamp_mouse":[11,33,48,69,89,110,128,148,169,188,208,229,248,270,288,308,329,349,370,388,409,430,449,469,489,509,529,549,570,589,610,630,649,669,688,709,730,748,770,790,810,828,849,869,889,909,928,949,968,988,1010,1030,1049,1069,1089,1109,1129,1149,1168,1189,1210,1228,1248,1268,1290,1309,1330,1349,1370,1390,1410,1430,1448,1469,1489,1509,1529,1548,1568,1589,1609,1630,1649,1669,1689,1708,1728,1748,1768,1788,1809,1829,1850,1869,1888,1908,1929,1948,1968,1988,2008,2030,2048],"xSR":741.5,"ySR":501.8,"xT1":424.9,"yT1":0,"xT2":1058.1,"yT2":0,"toosoon":0,"cond_shown":"Incongruent","ratio_trial":300,"L_num":13,"L_den":26,"R_num":12,"R_den":15,"correct_side":2,"subjID":"AlbertoCruzgalan11","gender":"0","school":"6","age":"11"},{"start_time":1551790266011,"click_time":1551790268135,"finger_time":1551790267754,"fix_duration":1215.726798134389,"trial":22,"RT":1743,"MT":381,"sideResp":1,"stimulus":[],"xmouse":[790,790,790,790,792,793,794,795,796,796,797,797,799,799,800,800,800,800,800,800,800,800,800,800,800,800,800,800,800,800,800,800,800,800,800,800,800,800,800,800,800,800,800,800,800,800,800,800,800,800,800,800,800,800,800,800,800,800,800,800,800,800,800,800,800,800,800,800,800,800,800,800,800,800,800,800,800,800,800,800,800,800,800,800,799,796,792,768,753,740,727,693,629,590,555,538,527,510,502,488,482,480,478,477,475,474,469],"ymouse":[544,544,544,544,543,539,536,533,532,530,529,527,524,523,522,522,522,522,522,522,522,522,522,522,522,522,522,522,522,522,522,522,522,522,522,522,522,522,522,522,522,522,522,522,522,522,522,522,522,522,522,522,522,522,522,522,522,522,522,522,522,522,522,522,522,522,522,522,522,522,522,522,522,522,522,522,522,522,522,522,522,522,522,522,519,514,508,482,461,441,428,397,351,322,292,276,263,234,219,195,181,168,144,131,119,105,90],"timestamp_mouse":[9,23,43,63,83,104,124,144,163,183,204,223,243,263,283,304,324,343,363,383,405,424,443,463,483,503,525,543,563,585,603,623,643,663,683,703,724,744,764,783,805,823,843,863,883,903,925,943,964,985,1003,1023,1044,1065,1083,1103,1123,1144,1163,1183,1203,1224,1243,1265,1283,1303,1324,1345,1363,1383,1403,1423,1443,1463,1484,1503,1524,1544,1563,1583,1603,1623,1643,1663,1683,1703,1723,1743,1764,1783,1805,1824,1844,1863,1883,1903,1924,1943,1964,1983,2003,2024,2044,2063,2083,2103,2124],"xSR":741.5,"ySR":501.8,"xT1":424.9,"yT1":0,"xT2":1058.1,"yT2":0,"toosoon":0,"cond_shown":"Congruent","ratio_trial":200,"L_num":12,"L_den":15,"R_num":6,"R_den":10,"correct_side":1,"subjID":"AlbertoCruzgalan11","gender":"0","school":"6","age":"11"},{"start_time":1551790269386,"click_time":1551790271075,"finger_time":1551790270815,"fix_duration":250,"trial":23,"RT":1429,"MT":260,"sideResp":1,"stimulus":[],"xmouse":[764,764,764,764,764,764,764,764,764,764,764,764,764,764,764,764,764,764,764,764,764,764,764,764,764,764,764,764,764,764,764,764,764,764,764,764,764,764,764,764,764,764,764,764,764,764,764,764,764,764,764,764,764,764,764,764,764,764,764,764,764,764,764,764,764,764,764,764,762,757,748,735,713,675,649,619,593,558,483,469,461,459,459,464,468],"ymouse":[594,594,594,594,594,594,594,594,594,594,594,594,594,594,594,594,594,594,594,594,594,593,592,591,590,590,589,588,587,587,586,586,586,586,586,586,585,585,585,585,585,585,585,584,584,584,584,584,584,584,584,584,584,584,584,584,584,584,584,584,584,584,584,584,584,583,582,578,565,554,536,515,482,439,409,370,336,295,234,218,200,168,144,106,93],"timestamp_mouse":[10,31,48,69,88,110,128,148,168,188,208,228,248,269,288,309,328,349,369,389,408,428,448,468,489,508,528,548,568,589,610,628,648,669,688,710,728,749,768,789,810,828,848,869,888,909,929,948,968,988,1010,1028,1049,1068,1089,1108,1128,1150,1169,1188,1210,1229,1248,1268,1288,1308,1328,1349,1368,1388,1409,1429,1449,1468,1488,1508,1529,1549,1568,1589,1608,1628,1649,1669,1688],"xSR":741.5,"ySR":501.8,"xT1":424.9,"yT1":0,"xT2":1058.1,"yT2":0,"toosoon":0,"cond_shown":"Congruent","ratio_trial":300,"L_num":20,"L_den":25,"R_num":14,"R_den":28,"correct_side":1,"subjID":"AlbertoCruzgalan11","gender":"0","school":"6","age":"11"},{"start_time":1551790273480,"click_time":1551790274775,"finger_time":1551790274574,"fix_duration":1384.372685935416,"trial":24,"RT":1094,"MT":201,"sideResp":2,"stimulus":[],"xmouse":[806,806,806,806,806,806,806,806,806,805,805,805,805,805,805,805,805,805,805,805,805,805,805,805,805,805,805,805,805,805,805,805,805,805,805,805,805,805,805,805,805,805,805,805,805,805,805,805,805,805,805,805,806,813,822,831,848,871,910,938,967,992,1013,1048,1069],"ymouse":[539,539,539,539,539,539,537,537,535,534,534,534,534,533,533,532,531,530,530,530,530,530,530,530,529,528,527,526,524,523,523,523,523,523,523,523,523,523,523,523,523,523,523,523,523,523,523,523,523,523,523,523,522,512,501,488,469,433,341,276,216,169,137,89,60],"timestamp_mouse":[15,39,55,74,96,114,135,154,176,194,216,234,255,276,294,314,335,354,374,395,414,436,454,474,494,514,535,555,575,594,614,634,654,675,694,714,734,755,774,795,815,834,854,875,896,914,934,955,974,994,1015,1035,1055,1074,1094,1115,1136,1154,1175,1194,1214,1234,1256,1274,1295],"xSR":741.5,"ySR":501.8,"xT1":424.9,"yT1":0,"xT2":1058.1,"yT2":0,"toosoon":0,"cond_shown":"Incongruent","ratio_trial":200,"L_num":3,"L_den":10,"R_num":1,"R_den":2,"correct_side":2,"subjID":"AlbertoCruzgalan11","gender":"0","school":"6","age":"11"},{"start_time":1551790276353,"click_time":1551790278094,"finger_time":1551790277714,"fix_duration":278.46386782153445,"trial":25,"RT":1361,"MT":380,"sideResp":2,"stimulus":[],"xmouse":[810,810,810,810,810,810,810,810,810,810,810,810,810,810,810,810,810,810,810,810,810,810,810,810,810,810,810,810,810,810,810,810,810,810,810,810,810,810,810,810,810,810,810,810,810,810,810,810,810,810,810,810,810,810,810,810,810,810,810,810,810,810,810,810,810,810,810,825,846,864,931,964,987,1010,1018,1030,1033,1037,1040,1042,1042,1041,1041,1041,1042,1048,1055,1061],"ymouse":[566,566,566,566,566,566,566,566,566,566,566,566,566,566,566,566,566,566,566,566,566,566,566,566,566,566,566,566,566,566,566,566,566,566,566,566,566,566,566,566,566,566,566,566,566,566,566,566,566,566,566,566,566,566,566,566,566,566,566,566,566,566,566,566,566,566,565,555,541,527,451,388,334,267,242,213,202,188,173,156,117,107,101,100,98,86,72,61],"timestamp_mouse":[8,35,42,62,83,101,121,141,161,181,201,222,242,262,281,303,321,342,363,383,402,421,443,462,481,501,521,541,561,581,601,622,641,661,682,701,721,741,763,781,802,823,841,861,882,902,921,941,963,981,1002,1022,1042,1062,1082,1101,1121,1141,1162,1181,1201,1221,1241,1261,1283,1301,1321,1343,1361,1382,1401,1422,1442,1461,1482,1501,1521,1541,1562,1581,1601,1621,1641,1661,1682,1702,1722,1741],"xSR":741.5,"ySR":501.8,"xT1":424.9,"yT1":0,"xT2":1058.1,"yT2":0,"toosoon":0,"cond_shown":"Incongruent","ratio_trial":100,"L_num":9,"L_den":18,"R_num":6,"R_den":10,"correct_side":2,"subjID":"AlbertoCruzgalan11","gender":"0","school":"6","age":"11"},{"start_time":1551790280324,"click_time":1551790281394,"finger_time":1551790281194,"fix_duration":1368.992537073344,"trial":26,"RT":870,"MT":200,"sideResp":1,"stimulus":[],"xmouse":[792,792,792,792,792,792,792,792,792,792,792,792,792,792,792,792,792,792,792,792,792,792,792,792,792,792,792,792,792,792,792,792,792,792,792,792,792,792,791,786,780,771,765,751,725,696,669,662,650,633,604,539,509,485],"ymouse":[547,547,547,547,547,547,547,547,547,547,547,547,547,547,547,547,547,547,547,547,547,547,547,547,547,547,547,547,547,547,547,547,547,547,547,547,547,546,544,540,534,520,506,476,441,400,356,338,316,286,242,149,110,88],"timestamp_mouse":[10,30,61,71,90,110,131,150,170,190,212,230,252,272,291,311,331,351,371,392,411,431,450,471,492,510,530,551,570,591,610,631,650,670,690,710,730,750,771,791,811,830,850,870,891,911,930,950,970,990,1011,1031,1050,1070],"xSR":741.5,"ySR":501.8,"xT1":424.9,"yT1":0,"xT2":1058.1,"yT2":0,"toosoon":0,"cond_shown":"Incongruent","ratio_trial":200,"L_num":1,"L_den":2,"R_num":3,"R_den":10,"correct_side":1,"subjID":"AlbertoCruzgalan11","gender":"0","school":"6","age":"11"},{"start_time":1551790283188,"click_time":1551790284834,"finger_time":1551790283994,"fix_duration":672.5658249928623,"trial":27,"RT":806,"MT":840,"sideResp":1,"stimulus":[],"xmouse":[807,807,807,807,807,807,807,807,807,807,807,807,807,807,807,807,807,807,807,807,807,807,807,807,807,807,807,807,807,807,807,807,807,807,807,805,802,797,793,792,786,777,768,751,744,742,741,741,741,740,736,736,735,735,735,735,735,735,735,735,734,728,713,686,676,671,665,654,627,618,613,607,603,589,576,562,548,534,514,511,508,506,504],"ymouse":[573,573,573,573,573,573,573,573,573,573,573,572,572,572,572,572,572,572,572,572,572,572,572,572,572,572,572,572,572,572,572,569,568,564,555,545,535,522,510,505,491,478,466,448,440,438,437,437,437,435,432,432,431,431,431,431,431,431,431,431,430,423,403,361,346,336,319,297,258,251,244,230,215,191,178,166,150,133,109,103,101,100,98],"timestamp_mouse":[9,35,47,67,87,106,126,146,166,186,206,227,246,268,287,306,327,346,367,387,407,428,446,468,486,506,527,546,566,587,606,627,646,666,686,707,726,746,766,787,806,826,847,867,886,906,927,947,966,986,1007,1027,1047,1067,1086,1107,1126,1147,1167,1187,1207,1227,1246,1266,1286,1306,1327,1347,1366,1387,1408,1428,1447,1466,1486,1507,1526,1547,1566,1587,1607,1626,1646],"xSR":741.5,"ySR":501.8,"xT1":424.9,"yT1":0,"xT2":1058.1,"yT2":0,"toosoon":0,"cond_shown":"Congruent","ratio_trial":100,"L_num":1,"L_den":2,"R_num":3,"R_den":5,"correct_side":2,"subjID":"AlbertoCruzgalan11","gender":"0","school":"6","age":"11"},{"start_time":1551790286235,"click_time":1551790288175,"finger_time":1551790287774,"fix_duration":539.2035446708877,"trial":28,"RT":1539,"MT":401,"sideResp":2,"stimulus":[],"xmouse":[784,784,784,784,784,784,784,784,784,784,784,784,784,784,784,784,784,784,784,784,784,784,784,784,784,784,784,784,784,784,784,784,784,784,784,784,784,784,784,784,784,784,784,784,784,784,784,784,784,784,784,784,784,784,784,784,784,784,784,784,784,784,784,784,784,784,784,784,784,784,784,784,784,784,784,784,797,820,844,866,874,888,898,910,921,932,947,958,971,992,1005,1032,1046,1062,1078,1088,1098,1103],"ymouse":[530,530,530,530,530,530,530,530,530,530,530,530,530,530,530,530,530,530,530,530,531,531,531,531,531,531,531,531,531,531,531,531,531,531,531,531,531,531,531,531,531,531,531,531,531,531,531,531,531,531,531,531,531,531,531,531,531,531,531,531,531,531,531,531,531,531,531,531,531,531,531,531,531,531,531,532,508,470,428,391,375,348,329,309,290,274,247,235,220,201,192,172,160,147,133,123,101,68],"timestamp_mouse":[2,21,46,60,80,100,120,140,161,179,200,220,239,259,279,300,320,340,359,380,401,420,440,459,481,500,519,539,559,580,599,620,639,660,679,700,719,741,760,779,799,819,839,860,880,901,919,939,960,979,1000,1020,1039,1059,1080,1100,1119,1141,1161,1179,1200,1219,1239,1259,1281,1299,1319,1339,1360,1381,1399,1419,1440,1459,1480,1499,1519,1539,1560,1580,1599,1619,1639,1659,1679,1701,1719,1739,1759,1779,1800,1819,1839,1860,1879,1899,1919,1940],"xSR":741.5,"ySR":501.8,"xT1":424.9,"yT1":0,"xT2":1058.1,"yT2":0,"toosoon":0,"cond_shown":"Incongruent","ratio_trial":200,"L_num":6,"L_den":20,"R_num":3,"R_den":6,"correct_side":2,"subjID":"AlbertoCruzgalan11","gender":"0","school":"6","age":"11"},{"start_time":1551790290375,"click_time":1551790291974,"finger_time":1551790291394,"fix_duration":1158.051059174478,"trial":29,"RT":1019,"MT":580,"sideResp":1,"stimulus":[],"xmouse":[787,787,787,787,787,787,787,787,787,787,788,789,790,791,793,794,795,796,796,797,798,799,799,800,800,800,800,800,800,800,800,800,800,800,800,800,800,800,800,800,800,800,800,800,800,800,800,800,800,793,787,781,776,772,760,750,739,729,717,690,675,666,658,651,630,621,614,607,604,603,601,598,584,566,548,544,541,537,533,519,514],"ymouse":[553,553,553,553,553,553,553,553,553,553,552,551,550,549,548,547,546,545,545,543,543,542,542,541,541,541,541,541,541,541,541,541,541,541,541,541,541,541,541,541,541,541,541,541,541,541,541,540,538,521,512,501,487,471,440,425,410,393,377,347,332,319,301,288,259,247,231,219,214,210,208,207,194,179,153,147,141,135,125,102,95],"timestamp_mouse":[1,20,45,59,79,100,120,139,159,180,199,219,241,260,279,299,319,340,359,379,400,419,439,460,479,499,519,541,559,580,599,619,641,659,679,699,719,739,759,779,800,819,840,859,880,901,919,939,960,979,999,1019,1039,1060,1080,1099,1121,1140,1159,1180,1200,1220,1239,1260,1280,1299,1319,1340,1359,1379,1399,1420,1440,1459,1479,1499,1519,1540,1559,1579,1599],"xSR":741.5,"ySR":501.8,"xT1":424.9,"yT1":0,"xT2":1058.1,"yT2":0,"toosoon":0,"cond_shown":"Incongruent","ratio_trial":200,"L_num":4,"L_den":5,"R_num":6,"R_den":10,"correct_side":1,"subjID":"AlbertoCruzgalan11","gender":"0","school":"6","age":"11"},{"start_time":1551790293588,"click_time":1551790295154,"finger_time":1551790294554,"fix_duration":372.58273051342815,"trial":30,"RT":966,"MT":600,"sideResp":2,"stimulus":[],"xmouse":[785,786,786,786,786,786,786,786,786,786,786,786,786,786,786,786,786,786,786,786,786,786,786,786,786,786,786,786,786,786,786,786,786,786,786,786,786,786,786,786,786,786,786,786,786,786,786,789,805,820,847,855,858,867,873,884,898,911,925,930,942,957,967,980,984,990,997,1000,1001,1002,1005,1012,1016,1019,1026,1037,1046,1052,1060],"ymouse":[510,510,510,510,510,510,510,510,510,510,510,510,510,510,510,510,510,510,510,510,510,510,510,510,510,510,510,510,510,510,510,510,510,510,510,510,510,510,510,510,510,510,510,510,510,510,510,510,496,478,442,417,397,360,338,310,287,268,246,234,207,187,172,149,136,123,112,108,107,107,103,96,92,90,86,77,71,70,70],"timestamp_mouse":[8,40,47,66,88,107,128,147,166,187,207,227,246,267,286,307,326,347,366,387,406,428,446,467,487,506,527,547,566,586,607,628,647,667,686,707,726,746,767,786,807,826,848,867,886,906,926,946,966,988,1006,1026,1047,1066,1086,1107,1127,1147,1167,1186,1206,1226,1247,1266,1286,1306,1328,1347,1366,1387,1407,1427,1446,1466,1486,1507,1526,1546,1566],"xSR":741.5,"ySR":501.8,"xT1":424.9,"yT1":0,"xT2":1058.1,"yT2":0,"toosoon":0,"cond_shown":"Incongruent","ratio_trial":200,"L_num":14,"L_den":30,"R_num":12,"R_den":18,"correct_side":2,"subjID":"AlbertoCruzgalan11","gender":"0","school":"6","age":"11"},{"start_time":1551790296894,"click_time":1551790298474,"finger_time":1551790298214,"fix_duration":519.4377842687329,"trial":31,"RT":1320,"MT":260,"sideResp":2,"stimulus":[],"xmouse":[792,792,792,792,792,792,792,792,792,792,792,792,792,792,792,792,792,792,792,792,792,792,792,792,792,792,792,792,792,792,792,792,792,792,792,792,792,792,792,792,792,792,792,792,792,792,792,792,792,792,792,792,792,792,792,792,792,794,797,800,802,803,804,807,809,813,819,831,891,938,973,996,1014,1044,1054,1063,1075,1088,1103,1103],"ymouse":[556,556,556,556,556,556,556,556,556,556,556,556,556,556,556,556,556,556,556,556,556,556,556,556,556,556,556,556,556,556,556,556,556,556,556,556,556,556,556,556,556,556,556,556,556,556,556,556,556,556,556,556,556,556,556,556,556,554,550,547,544,537,532,524,518,502,490,474,403,339,301,279,264,243,229,211,174,149,110,99],"timestamp_mouse":[8,21,44,60,80,100,122,140,161,180,200,220,242,261,280,301,321,340,360,381,400,420,440,460,480,500,521,542,560,581,602,621,640,660,680,701,721,740,761,780,801,821,840,861,881,901,922,940,961,980,1001,1020,1041,1060,1080,1102,1120,1140,1160,1180,1200,1221,1240,1260,1281,1300,1320,1340,1360,1380,1400,1420,1441,1460,1481,1500,1520,1540,1561,1580],"xSR":741.5,"ySR":501.8,"xT1":424.9,"yT1":0,"xT2":1058.1,"yT2":0,"toosoon":0,"cond_shown":"Congruent","ratio_trial":200,"L_num":9,"L_den":30,"R_num":13,"R_den":26,"correct_side":2,"subjID":"AlbertoCruzgalan11","gender":"0","school":"6","age":"11"},{"start_time":1551790300355,"click_time":1551790301574,"finger_time":1551790301135,"fix_duration":838.2221294416288,"trial":32,"RT":780,"MT":439,"sideResp":1,"stimulus":[],"xmouse":[803,803,803,803,803,803,803,803,803,803,803,803,803,803,803,803,803,803,803,803,803,803,803,803,803,803,803,803,803,803,803,802,802,801,801,800,799,796,782,737,609,575,564,563,563,563,563,563,563,563,563,563,563,563,562,550,536,518,497,479,452,444],"ymouse":[581,581,581,581,581,581,581,581,581,581,581,581,581,581,581,581,581,581,581,581,581,581,581,581,581,581,581,581,581,581,581,580,580,579,578,577,575,573,565,540,476,465,462,462,462,461,461,461,461,461,461,458,458,451,441,397,360,318,262,207,111,83],"timestamp_mouse":[1,19,44,59,79,100,120,140,159,179,201,219,241,260,280,300,319,339,359,380,399,420,439,461,480,500,520,540,560,579,600,620,639,659,680,699,719,741,759,780,800,820,840,860,880,899,920,940,960,980,1000,1019,1039,1061,1080,1099,1119,1140,1159,1180,1199,1219],"xSR":741.5,"ySR":501.8,"xT1":424.9,"yT1":0,"xT2":1058.1,"yT2":0,"toosoon":0,"cond_shown":"Incongruent","ratio_trial":300,"L_num":8,"L_den":10,"R_num":9,"R_den":18,"correct_side":1,"subjID":"AlbertoCruzgalan11","gender":"0","school":"6","age":"11"},{"start_time":1551790303564,"click_time":1551790304834,"finger_time":1551790304195,"fix_duration":1209.4547332419195,"trial":33,"RT":631,"MT":639,"sideResp":1,"stimulus":[],"xmouse":[800,800,800,800,800,800,800,800,800,800,800,800,800,800,800,800,800,800,800,800,800,800,800,800,800,800,800,800,800,787,778,765,750,727,668,633,598,575,562,549,548,546,542,540,540,540,539,535,527,478,460,451,450,450,450,450,450,450,450,450,451,451,453,455],"ymouse":[565,565,565,565,565,565,565,565,565,565,565,565,565,565,565,565,565,565,565,565,565,565,565,565,565,565,565,565,559,538,520,499,478,446,367,337,301,280,268,248,244,234,211,194,164,154,144,132,130,111,105,101,101,101,101,101,101,101,101,100,100,100,100,99],"timestamp_mouse":[11,36,51,70,90,112,130,151,170,190,211,230,250,271,290,311,331,352,370,390,410,431,452,470,490,511,530,550,571,590,610,631,651,671,691,710,730,751,771,791,811,830,852,871,890,910,930,950,970,991,1011,1030,1051,1071,1091,1110,1132,1152,1172,1192,1211,1231,1250,1270],"xSR":741.5,"ySR":501.8,"xT1":424.9,"yT1":0,"xT2":1058.1,"yT2":0,"toosoon":0,"cond_shown":"Incongruent","ratio_trial":200,"L_num":3,"L_den":4,"R_num":11,"R_den":20,"correct_side":1,"subjID":"AlbertoCruzgalan11","gender":"0","school":"6","age":"11"},{"start_time":1551790305947,"click_time":1551790308014,"finger_time":1551790307674,"fix_duration":250,"trial":34,"RT":1727,"MT":340,"sideResp":1,"stimulus":[],"xmouse":[830,830,830,831,832,832,832,832,832,832,832,832,832,832,832,832,832,832,832,832,832,832,832,832,832,832,832,832,832,832,832,832,832,832,832,832,832,832,832,832,832,832,832,832,832,832,832,832,832,832,832,832,832,832,832,832,832,832,832,832,832,832,832,832,832,832,832,832,832,832,832,832,832,832,832,832,832,832,832,832,832,832,832,832,831,823,804,776,754,738,721,717,715,715,712,691,675,651,620,595,555,541,532,522],"ymouse":[557,557,557,558,558,559,559,560,561,562,567,568,569,569,569,569,569,569,569,569,569,570,570,570,570,570,570,570,570,570,570,570,570,570,570,570,570,570,570,570,570,570,570,570,570,570,570,570,570,570,570,571,571,571,571,571,571,571,571,571,571,571,571,571,571,571,571,571,571,571,571,571,571,572,572,572,572,572,572,572,572,572,572,572,569,545,501,448,409,380,342,331,326,323,315,283,260,231,196,172,133,117,107,97],"timestamp_mouse":[7,39,48,67,87,107,128,147,167,188,207,227,248,268,287,307,328,348,368,388,407,427,447,468,488,507,527,547,568,587,607,628,649,667,688,707,728,748,768,788,808,827,848,868,888,907,928,947,968,989,1007,1027,1049,1067,1087,1107,1127,1149,1167,1187,1208,1228,1249,1268,1287,1307,1329,1348,1367,1389,1407,1427,1447,1467,1488,1507,1528,1547,1568,1588,1607,1627,1648,1669,1688,1707,1727,1747,1767,1789,1807,1828,1847,1868,1888,1908,1927,1947,1967,1987,2007,2027,2047,2067],"xSR":741.5,"ySR":501.8,"xT1":424.9,"yT1":0,"xT2":1058.1,"yT2":0,"toosoon":0,"cond_shown":"Congruent","ratio_trial":100,"L_num":4,"L_den":8,"R_num":6,"R_den":10,"correct_side":2,"subjID":"AlbertoCruzgalan11","gender":"0","school":"6","age":"11"},{"start_time":1551790311934,"click_time":1551790313814,"finger_time":1551790313415,"fix_duration":796.0071868002532,"trial":35,"RT":1481,"MT":399,"sideResp":2,"stimulus":[],"xmouse":[805,805,801,801,800,799,798,797,797,797,797,797,797,797,797,797,797,797,797,797,797,797,797,797,797,797,797,797,797,797,797,797,797,797,797,797,797,797,797,797,797,797,797,797,797,797,797,797,797,797,797,797,797,797,797,797,797,797,797,797,797,797,797,797,797,797,797,797,797,797,797,802,806,812,828,843,898,941,989,1032,1059,1065,1065,1065,1065,1065,1063,1060,1059,1058,1058,1071,1077,1082,1090],"ymouse":[550,550,549,549,549,549,548,548,548,548,548,548,548,548,548,548,548,548,548,548,548,548,548,548,548,548,548,548,548,548,548,548,548,548,548,548,548,548,548,548,548,548,548,548,548,548,548,548,548,548,548,548,548,548,548,548,548,548,548,548,548,548,548,548,548,548,548,548,548,547,545,533,524,512,489,472,427,392,350,308,274,258,252,245,232,208,174,160,151,146,143,123,112,105,95],"timestamp_mouse":[8,20,51,60,81,100,120,141,160,181,200,222,240,262,281,301,322,340,360,380,400,420,441,461,481,500,520,541,560,581,601,620,641,660,680,700,720,740,762,781,800,821,840,862,880,902,920,942,961,980,1000,1021,1041,1061,1080,1100,1120,1140,1161,1180,1200,1220,1240,1261,1280,1300,1321,1341,1360,1380,1400,1420,1440,1461,1481,1500,1521,1540,1561,1581,1600,1621,1640,1661,1681,1701,1720,1740,1761,1780,1801,1820,1842,1860,1880],"xSR":741.5,"ySR":501.8,"xT1":424.9,"yT1":0,"xT2":1058.1,"yT2":0,"toosoon":0,"cond_shown":"Incongruent","ratio_trial":100,"L_num":12,"L_den":24,"R_num":9,"R_den":15,"correct_side":2,"subjID":"AlbertoCruzgalan11","gender":"0","school":"6","age":"11"},{"start_time":1551790317318,"click_time":1551790318554,"finger_time":1551790318195,"fix_duration":1301.3000331734822,"trial":36,"RT":877,"MT":359,"sideResp":2,"stimulus":[],"xmouse":[782,782,782,782,782,782,782,782,782,782,782,782,782,782,782,782,782,782,782,782,782,782,782,782,782,782,782,782,782,782,782,782,782,782,782,782,782,782,782,782,782,785,809,847,905,916,925,927,933,942,953,971,984,988,1003,1008,1025,1040,1057,1076,1095,1122],"ymouse":[559,559,559,559,559,559,559,559,559,559,559,559,559,559,559,559,559,559,559,559,559,559,559,559,559,559,559,559,559,559,559,559,559,559,559,559,559,559,559,559,559,553,513,449,367,346,315,298,277,254,234,206,188,181,164,158,144,138,130,122,113,89],"timestamp_mouse":[17,49,57,78,96,118,137,157,176,197,216,237,256,276,297,316,338,356,376,397,416,437,457,476,498,517,538,556,576,597,616,636,656,677,697,717,737,756,777,797,816,836,856,877,896,917,936,956,976,996,1017,1036,1056,1077,1096,1117,1136,1156,1177,1196,1217,1236],"xSR":741.5,"ySR":501.8,"xT1":424.9,"yT1":0,"xT2":1058.1,"yT2":0,"toosoon":0,"cond_shown":"Incongruent","ratio_trial":300,"L_num":4,"L_den":20,"R_num":2,"R_den":4,"correct_side":2,"subjID":"AlbertoCruzgalan11","gender":"0","school":"6","age":"11"},{"start_time":1551790321069,"click_time":1551790323674,"finger_time":1551790322814,"fix_duration":1492.0498036661568,"trial":37,"RT":1745,"MT":860,"sideResp":1,"stimulus":[],"xmouse":[823,822,822,822,822,822,822,822,821,815,810,806,803,801,801,801,801,801,801,801,801,801,801,801,801,801,801,801,801,801,801,801,801,801,801,801,801,801,801,801,801,801,801,801,801,801,801,801,801,801,801,801,801,801,801,801,801,801,801,801,801,800,800,798,798,798,798,798,798,798,798,798,798,798,798,798,798,798,798,798,798,797,795,787,765,754,743,735,730,716,709,700,693,681,650,633,624,609,602,590,588,586,583,582,581,579,577,572,569,564,561,560,560,560,560,558,554,549,543,534,532,530,529,529,527,527,527,527,526,525,523],"ymouse":[578,578,578,578,578,578,578,578,578,578,578,578,579,579,579,579,579,579,579,579,579,579,579,579,579,579,579,579,579,579,579,579,579,579,579,579,579,579,579,579,579,579,579,579,579,579,579,579,579,579,579,579,579,579,579,579,579,579,579,579,579,580,580,581,581,581,581,581,581,581,581,581,581,581,581,581,581,580,578,576,576,574,573,566,547,535,523,508,496,470,456,441,423,403,354,333,321,297,284,263,257,251,243,238,223,210,197,163,143,116,107,103,103,103,103,100,99,98,98,97,95,92,90,88,82,82,80,79,78,78,78],"timestamp_mouse":[9,26,48,66,86,105,126,146,165,185,205,226,246,267,285,305,325,345,366,385,407,426,445,465,485,505,526,545,567,585,607,626,645,667,686,706,725,746,766,786,805,826,846,865,886,906,926,946,966,985,1006,1025,1046,1065,1085,1105,1125,1145,1167,1185,1205,1226,1245,1266,1285,1305,1326,1345,1366,1386,1405,1425,1445,1465,1485,1505,1525,1545,1565,1585,1605,1627,1646,1666,1685,1705,1726,1745,1765,1785,1805,1825,1846,1867,1886,1906,1925,1945,1966,1986,2005,2025,2045,2066,2085,2105,2125,2145,2166,2186,2205,2226,2246,2265,2285,2306,2325,2345,2365,2384,2404,2426,2445,2465,2485,2504,2524,2545,2566,2586,2605],"xSR":741.5,"ySR":501.8,"xT1":424.9,"yT1":0,"xT2":1058.1,"yT2":0,"toosoon":0,"cond_shown":"Congruent","ratio_trial":200,"L_num":7,"L_den":21,"R_num":2,"R_den":15,"correct_side":1,"subjID":"AlbertoCruzgalan11","gender":"0","school":"6","age":"11"},{"start_time":1551790327356,"click_time":1551790330234,"finger_time":1551790329914,"fix_duration":621.1243105458476,"trial":38,"RT":2558,"MT":320,"sideResp":1,"stimulus":[],"xmouse":[768,768,768,768,768,768,769,769,770,771,771,773,774,775,776,777,778,778,778,778,778,778,778,778,778,778,778,778,779,779,779,779,779,779,779,779,779,779,779,779,779,779,779,779,779,779,779,779,779,779,779,779,779,779,779,779,779,779,779,779,779,779,779,779,779,779,779,779,779,779,779,779,779,779,779,779,779,779,779,779,779,779,779,779,779,779,779,779,779,779,779,779,779,779,779,779,779,779,779,779,779,779,780,780,780,780,780,780,780,781,781,781,781,781,781,781,781,781,781,781,781,781,781,781,775,769,757,745,729,693,678,667,655,650,644,643,640,636,624,591,578,562,531,505],"ymouse":[574,574,574,574,574,574,573,573,573,573,573,573,572,571,570,569,568,568,568,568,568,568,568,568,568,568,568,568,568,568,568,568,568,568,568,568,568,568,568,568,568,568,568,568,568,568,568,568,568,568,568,568,568,568,568,568,568,568,568,568,568,568,568,568,568,568,568,568,568,568,568,568,568,568,568,568,568,568,568,568,568,568,568,568,568,568,568,568,568,568,568,568,568,568,568,568,568,568,568,568,568,568,568,568,568,568,568,568,568,568,568,568,568,568,568,568,568,568,568,568,568,568,568,567,551,538,515,488,451,358,325,298,265,250,232,227,221,212,190,140,125,112,96,80],"timestamp_mouse":[17,38,62,79,98,118,138,157,178,197,218,239,258,277,298,318,338,357,379,398,418,438,458,477,497,518,539,559,579,597,618,639,657,678,697,718,738,758,779,798,819,838,858,878,898,918,938,958,978,998,1019,1038,1058,1079,1098,1118,1138,1158,1178,1198,1218,1238,1258,1278,1298,1318,1338,1358,1378,1398,1418,1438,1458,1477,1498,1517,1538,1559,1578,1598,1619,1639,1657,1678,1697,1718,1739,1759,1777,1797,1818,1838,1857,1879,1898,1919,1938,1957,1978,1998,2019,2039,2057,2079,2098,2118,2138,2157,2178,2197,2218,2239,2259,2279,2297,2317,2339,2359,2378,2398,2418,2438,2459,2478,2497,2518,2537,2558,2577,2598,2618,2638,2657,2678,2698,2717,2737,2757,2778,2797,2818,2838,2858,2877],"xSR":741.5,"ySR":501.8,"xT1":424.9,"yT1":0,"xT2":1058.1,"yT2":0,"toosoon":0,"cond_shown":"Congruent","ratio_trial":300,"L_num":24,"L_den":30,"R_num":2,"R_den":4,"correct_side":1,"subjID":"AlbertoCruzgalan11","gender":"0","school":"6","age":"11"},{"start_time":1551790332236,"click_time":1551790334194,"finger_time":1551790333994,"fix_duration":1140.0981238815461,"trial":39,"RT":1758,"MT":200,"sideResp":1,"stimulus":[],"xmouse":[827,827,827,827,827,827,827,827,827,827,827,827,827,827,827,827,827,827,827,827,827,827,827,827,827,827,827,827,827,827,827,827,827,827,827,827,827,827,827,827,827,827,827,827,827,827,827,827,827,827,827,827,827,827,827,827,827,827,827,827,827,827,827,827,827,827,827,827,827,827,827,827,827,827,827,827,827,827,827,827,827,827,827,827,825,814,802,784,773,754,688,650,612,579,553,523,512,503],"ymouse":[562,562,562,562,562,562,562,562,562,562,562,562,562,562,562,562,562,562,563,563,563,563,563,563,563,563,563,563,563,563,563,563,563,563,563,563,563,563,563,563,563,563,563,563,563,563,563,563,563,563,563,563,563,563,563,563,563,563,563,563,563,563,563,563,563,563,563,563,563,563,563,563,563,563,563,563,563,563,563,563,563,563,563,563,562,546,526,492,467,432,345,298,250,212,183,142,125,96],"timestamp_mouse":[18,39,58,78,98,118,137,159,179,197,217,238,259,278,297,318,338,359,379,398,419,439,459,479,499,518,538,559,577,597,618,637,659,677,698,718,738,758,779,798,818,838,858,878,898,917,938,958,977,997,1019,1038,1058,1078,1099,1118,1138,1159,1179,1197,1217,1238,1257,1278,1298,1318,1338,1359,1378,1398,1417,1439,1457,1479,1497,1518,1537,1557,1577,1598,1618,1637,1658,1678,1698,1717,1738,1758,1777,1798,1818,1838,1857,1877,1899,1918,1939,1958],"xSR":741.5,"ySR":501.8,"xT1":424.9,"yT1":0,"xT2":1058.1,"yT2":0,"toosoon":0,"cond_shown":"Congruent","ratio_trial":200,"L_num":8,"L_den":15,"R_num":3,"R_den":9,"correct_side":1,"subjID":"AlbertoCruzgalan11","gender":"0","school":"6","age":"11"},{"start_time":1551790337161,"click_time":1551790338854,"finger_time":1551790338733,"fix_duration":505.85369939573366,"trial":40,"RT":1572,"MT":121,"sideResp":1,"stimulus":[],"xmouse":[801,801,801,801,801,801,801,801,801,801,801,801,801,801,801,801,801,801,801,801,801,801,801,801,801,801,801,801,801,801,801,801,801,801,801,801,801,801,801,801,801,801,801,801,801,801,801,801,801,801,801,801,801,801,801,801,801,801,801,801,801,801,801,801,801,801,801,801,801,801,801,801,801,801,802,802,794,780,763,699,649,606,550,520,479],"ymouse":[562,562,562,562,562,562,562,562,562,562,562,562,562,562,562,562,562,562,562,562,562,562,562,562,562,562,562,562,562,562,562,562,562,562,562,562,562,562,562,562,562,562,562,562,562,562,562,562,562,562,562,562,562,562,562,562,562,562,562,562,562,562,562,562,562,562,562,562,562,562,562,562,562,562,558,545,527,506,481,379,313,257,180,125,45],"timestamp_mouse":[13,47,52,73,93,113,132,153,174,193,214,234,252,272,294,314,334,353,373,393,413,432,453,473,493,512,533,553,574,593,613,632,654,673,693,713,734,753,773,793,812,834,853,872,893,912,933,953,973,993,1013,1033,1053,1072,1093,1112,1132,1153,1174,1193,1213,1233,1252,1273,1293,1314,1334,1352,1372,1393,1412,1434,1454,1472,1493,1513,1534,1553,1572,1592,1612,1633,1653,1673,1693],"xSR":741.5,"ySR":501.8,"xT1":424.9,"yT1":0,"xT2":1058.1,"yT2":0,"toosoon":0,"cond_shown":"Congruent","ratio_trial":200,"L_num":21,"L_den":30,"R_num":2,"R_den":4,"correct_side":1,"subjID":"AlbertoCruzgalan11","gender":"0","school":"6","age":"11"},{"start_time":1551790342529,"click_time":1551790344674,"finger_time":1551790344253,"fix_duration":974.1594171533691,"trial":41,"RT":1724,"MT":421,"sideResp":1,"stimulus":[],"xmouse":[808,808,809,809,809,809,809,809,809,809,810,811,811,812,813,815,819,819,819,819,819,819,819,819,819,819,819,819,819,819,819,819,819,819,819,819,819,819,819,819,819,819,819,819,820,820,820,820,820,820,820,820,820,820,820,820,820,820,820,820,820,820,820,819,817,813,808,807,807,806,806,803,803,803,802,801,800,800,800,800,799,798,798,790,786,768,736,712,679,650,623,587,575,569,568,568,563,558,554,549,546,540,532,530,520,517,514,513],"ymouse":[569,569,568,568,568,568,568,568,568,568,568,567,567,566,565,561,558,558,558,558,558,558,558,558,558,558,558,558,558,558,558,558,558,558,558,558,558,558,558,558,558,558,558,557,556,556,556,556,556,556,556,556,556,556,556,556,556,556,556,556,556,556,556,555,553,551,549,547,541,537,536,534,534,534,534,535,535,535,535,535,535,535,535,535,533,513,470,442,404,373,350,314,297,284,280,279,266,255,246,231,214,183,158,149,125,115,104,98],"timestamp_mouse":[8,37,45,65,85,105,124,145,165,185,205,225,246,265,284,304,325,345,365,385,406,425,445,466,485,505,524,545,565,585,605,625,645,665,686,705,725,745,765,786,806,824,846,865,885,904,925,945,966,985,1006,1025,1044,1065,1086,1104,1125,1145,1165,1185,1204,1224,1245,1265,1285,1304,1325,1344,1366,1385,1406,1425,1445,1465,1486,1506,1524,1545,1566,1585,1605,1625,1646,1665,1685,1705,1724,1745,1765,1785,1806,1824,1845,1866,1886,1905,1925,1945,1964,1986,2006,2025,2044,2065,2085,2105,2125,2144],"xSR":741.5,"ySR":501.8,"xT1":424.9,"yT1":0,"xT2":1058.1,"yT2":0,"toosoon":0,"cond_shown":"Congruent","ratio_trial":200,"L_num":8,"L_den":15,"R_num":2,"R_den":6,"correct_side":1,"subjID":"AlbertoCruzgalan11","gender":"0","school":"6","age":"11"},{"start_time":1551790346259,"click_time":1551790347774,"finger_time":1551790347414,"fix_duration":384.86592895536467,"trial":42,"RT":1155,"MT":360,"sideResp":2,"stimulus":[],"xmouse":[777,777,777,779,779,780,782,783,783,783,783,783,783,783,783,783,783,783,783,783,783,783,783,783,783,782,781,778,777,776,775,775,775,775,775,775,775,775,775,775,775,776,778,780,781,781,781,781,781,782,782,783,784,784,786,787,798,815,840,872,880,887,897,907,930,942,955,979,990,1006,1010,1014,1018,1028,1053,1069],"ymouse":[522,522,522,522,522,521,521,520,519,518,518,518,518,518,518,518,518,518,518,518,521,522,524,525,528,532,535,542,545,552,555,556,556,556,556,556,556,556,556,556,556,553,549,547,545,545,545,545,545,544,544,542,540,539,534,529,510,485,451,404,388,370,345,323,276,251,233,205,192,169,161,153,144,130,107,95],"timestamp_mouse":[15,46,55,74,95,116,135,155,175,196,215,236,256,274,296,315,335,356,375,395,415,435,455,474,494,515,535,555,574,595,615,634,655,675,696,714,735,755,774,795,815,835,855,875,894,916,936,954,975,994,1015,1036,1055,1075,1095,1115,1134,1155,1176,1196,1215,1237,1254,1276,1295,1315,1335,1354,1374,1395,1414,1435,1454,1475,1495,1515],"xSR":741.5,"ySR":501.8,"xT1":424.9,"yT1":0,"xT2":1058.1,"yT2":0,"toosoon":0,"cond_shown":"Congruent","ratio_trial":100,"L_num":4,"L_den":10,"R_num":15,"R_den":30,"correct_side":2,"subjID":"AlbertoCruzgalan11","gender":"0","school":"6","age":"11"},{"start_time":1551790349598,"click_time":1551790351894,"finger_time":1551790351453,"fix_duration":723.5098978829654,"trial":43,"RT":1855,"MT":441,"sideResp":1,"stimulus":[],"xmouse":[790,790,790,790,789,789,789,789,789,789,789,786,783,782,782,782,782,782,782,782,782,782,782,782,782,782,782,782,782,782,782,782,782,782,782,782,782,782,782,782,782,782,782,782,782,782,782,782,782,782,782,782,782,782,782,782,782,782,782,781,781,781,781,781,781,781,781,781,781,781,781,782,782,782,782,782,782,782,782,782,782,782,779,778,776,775,775,775,775,772,763,751,736,721,698,668,635,587,574,567,563,562,556,552,549,548,548,546,543,539,532,528,521,514,507],"ymouse":[552,551,551,551,551,551,551,551,551,551,552,555,561,563,563,563,563,563,563,563,563,563,563,563,563,563,563,563,563,563,563,563,563,563,563,563,563,563,563,563,563,563,563,563,563,563,563,563,563,563,563,563,563,563,563,563,563,563,563,563,563,563,563,563,563,563,563,563,563,562,562,560,560,560,560,560,560,560,560,560,560,559,553,549,544,543,543,543,541,538,524,503,467,434,390,337,293,227,211,199,180,172,163,160,159,158,158,151,147,141,128,119,108,100,93],"timestamp_mouse":[17,36,55,77,96,117,136,156,176,195,216,235,256,276,297,317,336,357,375,395,415,436,456,476,496,517,536,556,575,597,616,636,657,676,696,717,737,756,777,797,815,836,857,875,895,916,935,957,976,996,1016,1036,1055,1075,1096,1117,1135,1156,1176,1195,1216,1237,1256,1275,1296,1316,1336,1356,1376,1395,1416,1436,1456,1476,1495,1516,1535,1555,1576,1596,1616,1635,1656,1676,1696,1717,1736,1755,1776,1796,1816,1835,1855,1876,1896,1916,1936,1956,1976,1996,2016,2037,2056,2076,2096,2116,2136,2156,2176,2195,2217,2236,2255,2275,2296],"xSR":741.5,"ySR":501.8,"xT1":424.9,"yT1":0,"xT2":1058.1,"yT2":0,"toosoon":0,"cond_shown":"Incongruent","ratio_trial":100,"L_num":3,"L_den":6,"R_num":4,"R_den":10,"correct_side":1,"subjID":"AlbertoCruzgalan11","gender":"0","school":"6","age":"11"},{"start_time":1551790353744,"click_time":1551790355114,"finger_time":1551790354734,"fix_duration":669.8248892916785,"trial":44,"RT":990,"MT":380,"sideResp":2,"stimulus":[],"xmouse":[788,788,788,788,788,788,788,788,788,788,788,788,788,788,788,788,788,788,788,788,788,788,788,788,788,788,788,788,788,788,788,788,788,788,787,787,787,787,787,787,787,787,787,789,790,798,806,811,819,829,864,894,899,930,955,985,990,993,997,1003,1019,1024,1024,1025,1026,1030,1036,1046,1059],"ymouse":[542,542,542,542,542,542,542,542,542,542,542,542,542,542,542,542,542,542,542,542,542,542,542,542,542,542,542,542,542,542,542,542,542,542,542,542,542,542,542,542,542,542,542,542,542,536,526,518,506,487,407,281,250,166,128,88,80,74,66,54,35,31,31,31,31,33,40,50,59],"timestamp_mouse":[9,41,49,69,91,110,129,150,169,190,211,229,250,271,289,309,330,351,371,391,410,430,450,471,489,511,530,550,571,591,611,630,649,671,690,710,730,750,770,789,810,830,850,870,890,910,930,951,970,990,1011,1031,1050,1070,1090,1110,1129,1150,1171,1190,1209,1230,1249,1271,1289,1310,1330,1350,1370],"xSR":741.5,"ySR":501.8,"xT1":424.9,"yT1":0,"xT2":1058.1,"yT2":0,"toosoon":0,"cond_shown":"Congruent","ratio_trial":300,"L_num":3,"L_den":12,"R_num":11,"R_den":20,"correct_side":2,"subjID":"AlbertoCruzgalan11","gender":"0","school":"6","age":"11"},{"start_time":1551790356974,"click_time":1551790358855,"finger_time":1551790358495,"fix_duration":639.0335067238401,"trial":45,"RT":1521,"MT":360,"sideResp":1,"stimulus":[],"xmouse":[763,763,764,765,765,765,766,766,766,766,766,767,767,770,775,778,780,782,782,782,782,782,782,782,782,782,782,782,782,782,782,782,782,782,782,782,782,782,782,782,782,782,782,782,782,782,782,782,782,782,782,782,782,782,782,782,782,782,782,782,781,781,781,781,781,781,781,781,780,780,779,776,773,761,748,731,709,688,630,598,569,545,534,513,504,496,491,487,485,485,485,485,485,485],"ymouse":[520,520,520,522,523,525,525,525,527,527,527,528,528,536,543,548,555,559,563,563,563,563,563,563,563,563,563,563,563,563,563,563,563,563,563,563,563,563,563,563,563,563,563,563,563,563,563,563,563,563,563,563,563,563,563,563,563,563,563,563,563,563,563,563,563,562,562,562,560,557,554,547,543,532,521,507,485,461,392,354,320,286,267,224,200,181,163,150,140,137,132,118,107,83],"timestamp_mouse":[21,40,60,79,100,119,139,160,180,200,220,240,259,280,300,319,341,360,380,399,419,440,460,480,500,519,540,560,580,600,620,640,659,681,700,721,741,761,780,800,819,839,860,879,899,920,940,961,980,999,1019,1040,1061,1080,1099,1120,1141,1160,1180,1200,1219,1240,1260,1279,1300,1321,1340,1359,1380,1400,1420,1440,1459,1480,1499,1521,1540,1559,1580,1601,1620,1639,1660,1680,1699,1719,1739,1761,1780,1800,1820,1839,1860,1880],"xSR":741.5,"ySR":501.8,"xT1":424.9,"yT1":0,"xT2":1058.1,"yT2":0,"toosoon":0,"cond_shown":"Incongruent","ratio_trial":200,"L_num":3,"L_den":4,"R_num":11,"R_den":20,"correct_side":1,"subjID":"AlbertoCruzgalan11","gender":"0","school":"6","age":"11"},{"start_time":1551790360329,"click_time":1551790362354,"finger_time":1551790362174,"fix_duration":492.3821021830662,"trial":46,"RT":1845,"MT":180,"sideResp":1,"stimulus":[],"xmouse":[760,760,760,760,760,760,760,760,760,760,760,760,760,760,760,760,761,761,761,761,761,761,761,761,761,761,761,761,761,761,761,761,761,761,761,761,761,761,761,761,761,761,761,761,761,762,762,762,762,762,762,762,762,762,762,762,763,764,764,764,764,764,764,764,764,764,764,764,764,764,764,764,764,764,764,764,764,764,764,764,764,764,764,764,764,764,764,764,764,764,764,762,756,735,709,680,616,593,577,560,542,519],"ymouse":[560,560,560,560,560,560,560,560,560,560,560,560,560,560,560,560,560,560,560,560,559,559,559,559,559,559,559,559,559,559,559,559,559,559,559,559,559,559,559,559,559,559,559,559,559,559,559,559,559,559,559,559,559,559,558,558,557,555,555,555,555,555,555,555,555,555,555,555,555,555,555,555,555,555,555,555,555,555,555,555,555,555,555,555,555,554,552,551,547,544,535,509,488,414,349,301,206,175,154,133,112,85],"timestamp_mouse":[10,40,45,66,84,105,126,145,166,184,205,226,244,265,284,305,326,345,364,385,405,425,445,466,484,505,525,546,565,584,605,625,645,665,686,706,724,744,765,785,806,825,844,865,885,904,924,944,965,986,1005,1025,1045,1065,1084,1105,1125,1145,1165,1185,1204,1225,1244,1266,1285,1305,1325,1344,1365,1385,1404,1425,1445,1465,1485,1505,1525,1546,1564,1586,1605,1625,1645,1665,1685,1704,1725,1745,1764,1784,1805,1825,1845,1865,1885,1906,1925,1945,1964,1985,2006,2025],"xSR":741.5,"ySR":501.8,"xT1":424.9,"yT1":0,"xT2":1058.1,"yT2":0,"toosoon":0,"cond_shown":"Incongruent","ratio_trial":300,"L_num":4,"L_den":20,"R_num":2,"R_den":4,"correct_side":2,"subjID":"AlbertoCruzgalan11","gender":"0","school":"6","age":"11"},{"start_time":1551790363767,"click_time":1551790365034,"finger_time":1551790364715,"fix_duration":250,"trial":47,"RT":948,"MT":319,"sideResp":2,"stimulus":[],"xmouse":[822,822,822,822,822,822,822,822,822,822,822,822,822,822,824,824,824,825,825,825,825,825,825,825,825,825,825,825,825,825,825,826,827,827,827,827,827,827,828,828,828,828,828,828,828,829,834,845,860,896,916,920,926,935,947,952,957,966,975,993,1005,1021,1052,1072],"ymouse":[562,562,562,562,562,562,562,562,562,562,562,562,562,562,562,562,561,561,560,558,558,558,558,558,558,558,558,558,558,558,558,557,555,554,552,551,550,549,548,548,548,548,548,548,548,545,536,516,472,369,311,288,266,244,214,202,186,166,150,125,111,98,80,72],"timestamp_mouse":[7,27,47,67,87,106,128