[{"start_time":1551901279187,"click_time":1551901280364,"finger_time":1551901279884,"fix_duration":1159.405154302041,"trial":0,"RT":697,"MT":480,"sideResp":1,"stimulus":"img/500/equaldotanddens/L/5_Ratio_500_L_4_R_2.png","xmouse":[776,776,776,776,776,776,776,776,776,776,776,776,776,776,776,776,776,776,776,776,776,776,776,776,776,776,776,776,776,776,776,774,769,751,689,654,618,587,547,476,458,447,442,439,439,439,443,447,452,459,461,462,462,462,462,462,462,462,461],"ymouse":[500,500,500,500,500,500,500,500,500,500,500,500,500,500,500,500,500,500,500,500,500,500,500,500,500,500,500,500,500,500,500,497,490,471,436,421,405,386,364,312,298,289,285,283,270,261,249,234,212,158,143,132,127,124,120,114,109,102,95],"timestamp_mouse":[1,38,56,76,98,117,137,157,177,197,217,236,256,276,297,317,336,357,377,396,417,436,457,476,497,517,536,556,576,596,616,636,656,677,697,717,737,756,776,798,817,837,858,878,898,916,936,957,977,998,1016,1037,1058,1078,1097,1116,1138,1157,1177],"xSR":741.5,"ySR":449.15000000000003,"xT1":424.9,"yT1":0,"xT2":1058.1,"yT2":0,"toosoon":0,"cond_shown":"equaldotanddens","ratio_trial":500,"smaller_num":"2","larger_num":"4","correct_side":1,"subjID":"catalinagomez23","gender":"1","age":"11","school":"cafam","test":{"fix_dur":[250,1500],"timestim":300,"targets_dim":[100,100],"targets_relative_coord":[0.3,0.7],"size_stim":[880,420],"start_dim":[100,100],"size_start":[300,300],"size_fix":60,"samplingrate":20,"img_types":["equaldotsize","equaldotanddens","randomdotsizeEA"],"ratios":[250,500,750,900],"rep_conds":9,"nTrials":120,"trials_to_rest":500,"Trials_order":[52,41,72,94,5,49,76,66,105,14,56,6,68,1,110,33,30,84,26,4,10,48,15,93,18,3,7,34,37,45,97,32,83,77,63,101,59,75,20,21,71,82,38,109,31,60,64,119,54,55,62,92,103,61,111,79,100,57,95,12,29,90,11,70,108,98,53,86,28,40,80,89,107,113,118,112,22,91,106,27,50,69,117,65,2,9,51,25,44,0,19,42,46,96,115,39,74,13,67,78,47,58,16,85,104,23,102,43,17,8,88,87,35,116,73,36,99,114,24,81],"cond_shown":["equaldotanddens","randomdotsizeEA","equaldotsize","equaldotanddens","randomdotsizeEA","equaldotanddens","equaldotanddens","equaldotsize","equaldotsize","randomdotsizeEA","randomdotsizeEA","equaldotsize","randomdotsizeEA","equaldotanddens","randomdotsizeEA","equaldotsize","equaldotsize","equaldotsize","randomdotsizeEA","equaldotanddens","equaldotanddens","equaldotsize","equaldotsize","equaldotsize","equaldotsize","equaldotsize","equaldotanddens","equaldotanddens","equaldotanddens","equaldotsize","equaldotanddens","randomdotsizeEA","randomdotsizeEA","randomdotsizeEA","equaldotsize","randomdotsizeEA","randomdotsizeEA","equaldotsize","randomdotsizeEA","equaldotsize","randomdotsizeEA","equaldotanddens","randomdotsizeEA","equaldotanddens","equaldotanddens","equaldotsize","equaldotanddens","randomdotsizeEA","equaldotsize","equaldotanddens","randomdotsizeEA","randomdotsizeEA","equaldotanddens","equaldotanddens","equaldotsize","equaldotanddens","equaldotanddens","equaldotsize","randomdotsizeEA","equaldotsize","randomdotsizeEA","equaldotsize","randomdotsizeEA","equaldotanddens","equaldotsize","randomdotsizeEA","randomdotsizeEA","randomdotsizeEA","equaldotanddens","equaldotanddens","randomdotsizeEA","randomdotsizeEA","randomdotsizeEA","randomdotsizeEA","equaldotanddens","equaldotanddens","equaldotanddens","equaldotanddens","equaldotanddens","equaldotsize","randomdotsizeEA","equaldotsize","equaldotsize","randomdotsizeEA","randomdotsizeEA","equaldotsize","equaldotsize","equaldotanddens","randomdotsizeEA","equaldotsize","equaldotanddens","equaldotsize","equaldotanddens","equaldotsize","equaldotanddens","equaldotsize","randomdotsizeEA","equaldotanddens","equaldotanddens","equaldotsize","randomdotsizeEA","equaldotanddens","equaldotanddens","equaldotanddens","randomdotsizeEA","randomdotsizeEA","equaldotsize","equaldotanddens","randomdotsizeEA","randomdotsizeEA","equaldotanddens","equaldotsize","randomdotsizeEA","randomdotsizeEA","equaldotanddens","equaldotsize","equaldotsize","equaldotsize","equaldotsize","equaldotsize"],"ratio_trial":[500,500,250,900,500,250,500,750,900,250,750,750,750,250,250,900,750,250,250,500,900,250,500,900,750,500,750,900,250,900,250,750,900,500,500,500,900,500,750,900,900,900,250,250,750,250,500,900,750,750,250,750,750,250,500,750,500,900,900,250,500,750,900,900,250,250,500,250,500,500,750,500,900,500,900,500,900,750,900,500,250,900,900,500,250,900,500,250,750,250,750,750,900,250,750,500,250,250,750,750,900,900,500,250,750,900,750,750,500,750,500,500,900,750,250,250,500,750,250,900],"smaller_num":["2","6","6","18","2","3","6","3","18","3","3","3","9","6","2","9","18","2","4","6","9","6","9","9","6","9","15","9","2","18","3","3","18","5","2","1","18","9","3","9","18","18","3","4","15","3","5","18","6","9","2","9","15","2","1","15","6","18","9","2","6","18","9","18","2","6","6","6","5","6","3","1","9","9","9","2","18","15","9","6","3","18","9","6","1","18","6","2","3","2","15","6","18","4","3","10","4","2","3","3","18","9","3","3","15","18","6","3","5","15","4","6","18","3","3","6","1","3","5","9"],"larger_num":["4","12","24","20","4","12","12","4","20","12","4","4","12","24","8","10","24","8","16","12","10","24","18","10","8","18","20","10","8","20","12","4","20","10","4","2","20","18","4","10","20","20","12","16","20","12","10","20","8","12","8","12","20","8","2","20","12","20","10","8","12","24","10","20","8","24","12","24","10","12","4","2","10","18","10","4","20","20","10","12","12","20","10","12","4","20","12","8","4","8","20","8","20","16","4","20","16","8","4","4","20","10","6","12","20","20","8","4","10","20","8","12","20","4","12","24","2","4","20","10"],"correct_side":[1,1,2,2,2,2,1,1,2,2,1,2,2,2,1,2,1,1,2,1,2,2,2,2,1,2,2,2,1,1,2,1,1,1,1,2,1,2,1,2,1,1,1,1,2,2,2,1,1,2,1,2,2,2,2,2,1,2,1,2,1,1,2,1,1,1,1,1,1,1,2,2,2,2,1,2,1,2,2,1,2,2,2,1,2,2,1,1,1,1,2,1,2,2,2,2,2,2,1,1,2,2,2,2,1,2,1,2,1,2,1,1,1,2,1,2,2,2,2,2],"img_shown":["img/500/equaldotanddens/L/5_Ratio_500_L_4_R_2.png","img/500/randomdotsizeEA/L/13_Ratio_500_L_12_R_6.png","img/250/equaldotsize/R/6_Ratio_250_L_6_R_24.png","img/900/equaldotanddens/R/9_Ratio_900_L_18_R_20.png","img/500/randomdotsizeEA/R/9_Ratio_500_L_2_R_4.png","img/250/equaldotanddens/R/9_Ratio_250_L_3_R_12.png","img/500/equaldotanddens/L/11_Ratio_500_L_12_R_6.png","img/750/equaldotsize/L/9_Ratio_750_L_4_R_3.png","img/900/equaldotsize/R/14_Ratio_900_L_18_R_20.png","img/250/randomdotsizeEA/R/11_Ratio_250_L_3_R_12.png","img/750/randomdotsizeEA/L/10_Ratio_750_L_4_R_3.png","img/750/equaldotsize/R/12_Ratio_750_L_3_R_4.png","img/750/randomdotsizeEA/R/15_Ratio_750_L_9_R_12.png","img/250/equaldotanddens/R/6_Ratio_250_L_6_R_24.png","img/250/randomdotsizeEA/L/7_Ratio_250_L_8_R_2.png","img/900/equaldotsize/R/3_Ratio_900_L_9_R_10.png","img/750/equaldotsize/L/6_Ratio_750_L_24_R_18.png","img/250/equaldotsize/L/7_Ratio_250_L_8_R_2.png","img/250/randomdotsizeEA/R/10_Ratio_250_L_4_R_16.png","img/500/equaldotanddens/L/11_Ratio_500_L_12_R_6.png","img/900/equaldotanddens/R/3_Ratio_900_L_9_R_10.png","img/250/equaldotsize/R/6_Ratio_250_L_6_R_24.png","img/500/equaldotsize/R/1_Ratio_500_L_9_R_18.png","img/900/equaldotsize/R/3_Ratio_900_L_9_R_10.png","img/750/equaldotsize/L/14_Ratio_750_L_8_R_6.png","img/500/equaldotsize/R/6_Ratio_500_L_9_R_18.png","img/750/equaldotanddens/R/3_Ratio_750_L_15_R_20.png","img/900/equaldotanddens/R/15_Ratio_900_L_9_R_10.png","img/250/equaldotanddens/L/3_Ratio_250_L_8_R_2.png","img/900/equaldotsize/L/2_Ratio_900_L_20_R_18.png","img/250/equaldotanddens/R/11_Ratio_250_L_3_R_12.png","img/750/randomdotsizeEA/L/10_Ratio_750_L_4_R_3.png","img/900/randomdotsizeEA/L/10_Ratio_900_L_20_R_18.png","img/500/randomdotsizeEA/L/7_Ratio_500_L_10_R_5.png","img/500/equaldotsize/L/10_Ratio_500_L_4_R_2.png","img/500/randomdotsizeEA/R/12_Ratio_500_L_1_R_2.png","img/900/randomdotsizeEA/L/2_Ratio_900_L_20_R_18.png","img/500/equaldotsize/R/1_Ratio_500_L_9_R_18.png","img/750/randomdotsizeEA/L/8_Ratio_750_L_4_R_3.png","img/900/equaldotsize/R/5_Ratio_900_L_9_R_10.png","img/900/randomdotsizeEA/L/8_Ratio_900_L_20_R_18.png","img/900/equaldotanddens/L/2_Ratio_900_L_20_R_18.png","img/250/randomdotsizeEA/L/14_Ratio_250_L_12_R_3.png","img/250/equaldotanddens/L/2_Ratio_250_L_16_R_4.png","img/750/equaldotanddens/R/3_Ratio_750_L_15_R_20.png","img/250/equaldotsize/R/4_Ratio_250_L_3_R_12.png","img/500/equaldotanddens/R/14_Ratio_500_L_5_R_10.png","img/900/randomdotsizeEA/L/8_Ratio_900_L_20_R_18.png","img/750/equaldotsize/L/13_Ratio_750_L_8_R_6.png","img/750/equaldotanddens/R/15_Ratio_750_L_9_R_12.png","img/250/randomdotsizeEA/L/1_Ratio_250_L_8_R_2.png","img/750/randomdotsizeEA/R/15_Ratio_750_L_9_R_12.png","img/750/equaldotanddens/R/4_Ratio_750_L_15_R_20.png","img/250/equaldotanddens/R/13_Ratio_250_L_2_R_8.png","img/500/equaldotsize/R/15_Ratio_500_L_1_R_2.png","img/750/equaldotanddens/R/4_Ratio_750_L_15_R_20.png","img/500/equaldotanddens/L/11_Ratio_500_L_12_R_6.png","img/900/equaldotsize/R/14_Ratio_900_L_18_R_20.png","img/900/randomdotsizeEA/L/1_Ratio_900_L_10_R_9.png","img/250/equaldotsize/R/13_Ratio_250_L_2_R_8.png","img/500/randomdotsizeEA/L/13_Ratio_500_L_12_R_6.png","img/750/equaldotsize/L/6_Ratio_750_L_24_R_18.png","img/900/randomdotsizeEA/R/5_Ratio_900_L_9_R_10.png","img/900/equaldotanddens/L/4_Ratio_900_L_20_R_18.png","img/250/equaldotsize/L/1_Ratio_250_L_8_R_2.png","img/250/randomdotsizeEA/L/5_Ratio_250_L_24_R_6.png","img/500/randomdotsizeEA/L/13_Ratio_500_L_12_R_6.png","img/250/randomdotsizeEA/L/5_Ratio_250_L_24_R_6.png","img/500/equaldotanddens/L/7_Ratio_500_L_10_R_5.png","img/500/equaldotanddens/L/13_Ratio_500_L_12_R_6.png","img/750/randomdotsizeEA/R/7_Ratio_750_L_3_R_4.png","img/500/randomdotsizeEA/R/15_Ratio_500_L_1_R_2.png","img/900/randomdotsizeEA/R/3_Ratio_900_L_9_R_10.png","img/500/randomdotsizeEA/R/6_Ratio_500_L_9_R_18.png","img/900/equaldotanddens/L/1_Ratio_900_L_10_R_9.png","img/500/equaldotanddens/R/9_Ratio_500_L_2_R_4.png","img/900/equaldotanddens/L/8_Ratio_900_L_20_R_18.png","img/750/equaldotanddens/R/4_Ratio_750_L_15_R_20.png","img/900/equaldotanddens/R/6_Ratio_900_L_9_R_10.png","img/500/equaldotsize/L/11_Ratio_500_L_12_R_6.png","img/250/randomdotsizeEA/R/4_Ratio_250_L_3_R_12.png","img/900/equaldotsize/R/9_Ratio_900_L_18_R_20.png","img/900/equaldotsize/R/6_Ratio_900_L_9_R_10.png","img/500/randomdotsizeEA/L/13_Ratio_500_L_12_R_6.png","img/250/randomdotsizeEA/R/8_Ratio_250_L_1_R_4.png","img/900/equaldotsize/R/11_Ratio_900_L_18_R_20.png","img/500/equaldotsize/L/13_Ratio_500_L_12_R_6.png","img/250/equaldotanddens/L/3_Ratio_250_L_8_R_2.png","img/750/randomdotsizeEA/L/10_Ratio_750_L_4_R_3.png","img/250/equaldotsize/L/3_Ratio_250_L_8_R_2.png","img/750/equaldotanddens/R/3_Ratio_750_L_15_R_20.png","img/750/equaldotsize/L/14_Ratio_750_L_8_R_6.png","img/900/equaldotanddens/R/11_Ratio_900_L_18_R_20.png","img/250/equaldotsize/R/10_Ratio_250_L_4_R_16.png","img/750/equaldotanddens/R/7_Ratio_750_L_3_R_4.png","img/500/equaldotsize/R/3_Ratio_500_L_10_R_20.png","img/250/randomdotsizeEA/R/10_Ratio_250_L_4_R_16.png","img/250/equaldotanddens/R/13_Ratio_250_L_2_R_8.png","img/750/equaldotanddens/L/10_Ratio_750_L_4_R_3.png","img/750/equaldotsize/L/8_Ratio_750_L_4_R_3.png","img/900/randomdotsizeEA/R/9_Ratio_900_L_18_R_20.png","img/900/equaldotanddens/R/3_Ratio_900_L_9_R_10.png","img/500/equaldotanddens/R/2_Ratio_500_L_3_R_6.png","img/250/equaldotanddens/R/11_Ratio_250_L_3_R_12.png","img/750/randomdotsizeEA/L/1_Ratio_750_L_20_R_15.png","img/900/randomdotsizeEA/R/11_Ratio_900_L_18_R_20.png","img/750/equaldotsize/L/13_Ratio_750_L_8_R_6.png","img/750/equaldotanddens/R/12_Ratio_750_L_3_R_4.png","img/500/randomdotsizeEA/L/7_Ratio_500_L_10_R_5.png","img/750/randomdotsizeEA/R/4_Ratio_750_L_15_R_20.png","img/500/equaldotanddens/L/8_Ratio_500_L_8_R_4.png","img/500/equaldotsize/L/11_Ratio_500_L_12_R_6.png","img/900/randomdotsizeEA/L/2_Ratio_900_L_20_R_18.png","img/750/randomdotsizeEA/R/12_Ratio_750_L_3_R_4.png","img/250/equaldotanddens/L/14_Ratio_250_L_12_R_3.png","img/250/equaldotsize/R/6_Ratio_250_L_6_R_24.png","img/500/equaldotsize/R/12_Ratio_500_L_1_R_2.png","img/750/equaldotsize/R/7_Ratio_750_L_3_R_4.png","img/250/equaldotsize/R/12_Ratio_250_L_5_R_20.png","img/900/equaldotsize/R/3_Ratio_900_L_9_R_10.png"],"Rat0":[["12_Ratio_0_L_9_R_0.png","13_Ratio_0_L_6_R_0.png","5_Ratio_0_L_2_R_0.png","6_Ratio_0_L_4_R_0.png","8_Ratio_0_L_6_R_0.png"],["1_Ratio_0_L_0_R_17.png","10_Ratio_0_L_0_R_22.png","11_Ratio_0_L_0_R_1.png","14_Ratio_0_L_0_R_24.png","15_Ratio_0_L_0_R_4.png","2_Ratio_0_L_0_R_5.png","3_Ratio_0_L_0_R_17.png","4_Ratio_0_L_0_R_7.png","7_Ratio_0_L_0_R_19.png","9_Ratio_0_L_0_R_15.png"]],"Rat250":[["1_Ratio_250_L_8_R_2.png","14_Ratio_250_L_12_R_3.png","15_Ratio_250_L_12_R_3.png","2_Ratio_250_L_16_R_4.png","3_Ratio_250_L_8_R_2.png","5_Ratio_250_L_24_R_6.png","7_Ratio_250_L_8_R_2.png"],["10_Ratio_250_L_4_R_16.png","11_Ratio_250_L_3_R_12.png","12_Ratio_250_L_5_R_20.png","13_Ratio_250_L_2_R_8.png","4_Ratio_250_L_3_R_12.png","6_Ratio_250_L_6_R_24.png","8_Ratio_250_L_1_R_4.png","9_Ratio_250_L_3_R_12.png"]],"Rat500":[["10_Ratio_500_L_4_R_2.png","11_Ratio_500_L_12_R_6.png","13_Ratio_500_L_12_R_6.png","4_Ratio_500_L_18_R_9.png","5_Ratio_500_L_4_R_2.png","7_Ratio_500_L_10_R_5.png","8_Ratio_500_L_8_R_4.png"],["1_Ratio_500_L_9_R_18.png","12_Ratio_500_L_1_R_2.png","14_Ratio_500_L_5_R_10.png","15_Ratio_500_L_1_R_2.png","2_Ratio_500_L_3_R_6.png","3_Ratio_500_L_10_R_20.png","6_Ratio_500_L_9_R_18.png","9_Ratio_500_L_2_R_4.png"]],"Rat750":[["1_Ratio_750_L_20_R_15.png","10_Ratio_750_L_4_R_3.png","13_Ratio_750_L_8_R_6.png","14_Ratio_750_L_8_R_6.png","6_Ratio_750_L_24_R_18.png","8_Ratio_750_L_4_R_3.png","9_Ratio_750_L_4_R_3.png"],["11_Ratio_750_L_12_R_16.png","12_Ratio_750_L_3_R_4.png","15_Ratio_750_L_9_R_12.png","2_Ratio_750_L_6_R_8.png","3_Ratio_750_L_15_R_20.png","4_Ratio_750_L_15_R_20.png","5_Ratio_750_L_15_R_20.png","7_Ratio_750_L_3_R_4.png"]],"Rat900":[["1_Ratio_900_L_10_R_9.png","10_Ratio_900_L_20_R_18.png","2_Ratio_900_L_20_R_18.png","4_Ratio_900_L_20_R_18.png","8_Ratio_900_L_20_R_18.png"],["11_Ratio_900_L_18_R_20.png","12_Ratio_900_L_18_R_20.png","13_Ratio_900_L_18_R_20.png","14_Ratio_900_L_18_R_20.png","15_Ratio_900_L_9_R_10.png","3_Ratio_900_L_9_R_10.png","5_Ratio_900_L_9_R_10.png","6_Ratio_900_L_9_R_10.png","7_Ratio_900_L_9_R_10.png","9_Ratio_900_L_18_R_20.png"]],"Rat1000":[["10_Ratio_1000_L_16_R_16.png","11_Ratio_1000_L_6_R_6.png","12_Ratio_1000_L_14_R_14.png","13_Ratio_1000_L_20_R_20.png","15_Ratio_1000_L_15_R_15.png","2_Ratio_1000_L_17_R_17.png","4_Ratio_1000_L_9_R_9.png","5_Ratio_1000_L_6_R_6.png","6_Ratio_1000_L_19_R_19.png","8_Ratio_1000_L_14_R_14.png","9_Ratio_1000_L_25_R_25.png"],["1_Ratio_1000_L_1_R_1.png","14_Ratio_1000_L_17_R_17.png","3_Ratio_1000_L_17_R_17.png","7_Ratio_1000_L_6_R_6.png"]]}},{"start_time":1551901282121,"click_time":1551901283604,"finger_time":1551901283184,"fix_duration":936.1686924568359,"trial":1,"RT":1063,"MT":420,"sideResp":2,"stimulus":"img/500/randomdotsizeEA/L/13_Ratio_500_L_12_R_6.png","xmouse":[816,816,816,816,816,816,816,816,816,816,816,816,816,816,816,816,816,816,816,816,816,816,816,816,816,816,816,816,816,816,816,816,816,816,816,816,816,816,816,816,816,816,816,815,816,816,816,816,816,816,816,816,820,898,956,995,1010,1018,1023,1027,1028,1033,1034,1034,1031,1030,1030,1030,1030,1030,1031,1039,1048,1057,1073],"ymouse":[530,530,530,530,530,530,530,530,530,530,530,530,530,530,530,530,530,530,530,530,530,530,530,530,530,530,530,530,530,530,530,530,530,530,530,530,530,530,530,530,530,530,530,530,538,538,539,539,539,539,539,539,539,470,400,357,332,311,295,255,234,208,185,162,108,98,95,95,95,95,94,88,82,78,74],"timestamp_mouse":[9,23,43,64,83,102,123,142,163,184,203,223,243,263,283,303,324,342,362,383,403,422,443,462,483,503,523,542,562,584,602,622,642,663,684,703,723,743,763,782,803,822,842,863,883,903,923,943,963,984,1002,1023,1043,1063,1082,1103,1123,1143,1162,1183,1203,1223,1243,1262,1282,1302,1323,1342,1364,1384,1403,1423,1442,1462,1483],"xSR":741.5,"ySR":449.15000000000003,"xT1":424.9,"yT1":0,"xT2":1058.1,"yT2":0,"toosoon":0,"cond_shown":"randomdotsizeEA","ratio_trial":500,"smaller_num":"6","larger_num":"12","correct_side":1,"subjID":"catalinagomez23","gender":"1","age":"11","school":"cafam"},{"start_time":1551901285556,"click_time":1551901286285,"finger_time":1551901286164,"fix_duration":1069.4256885432933,"trial":2,"RT":608,"MT":121,"sideResp":2,"stimulus":"img/250/equaldotsize/R/6_Ratio_250_L_6_R_24.png","xmouse":[809,809,809,809,809,809,809,809,809,809,809,809,809,809,809,809,809,809,809,809,809,809,809,809,809,809,809,809,809,815,844,873,1026,1073,1101,1112,1118],"ymouse":[470,470,470,470,470,470,470,470,470,470,470,470,470,470,470,470,470,470,470,470,470,470,470,470,470,470,470,470,470,470,440,411,237,169,123,103,87],"timestamp_mouse":[11,39,48,68,87,107,127,148,167,187,208,229,248,268,288,308,327,349,368,388,408,428,449,468,487,508,528,548,568,588,608,628,649,668,688,708,729],"xSR":741.5,"ySR":449.15000000000003,"xT1":424.9,"yT1":0,"xT2":1058.1,"yT2":0,"toosoon":0,"cond_shown":"equaldotsize","ratio_trial":250,"smaller_num":"6","larger_num":"24","correct_side":2,"subjID":"catalinagomez23","gender":"1","age":"11","school":"cafam"},{"start_time":1551901288884,"click_time":1551901290024,"finger_time":1551901289704,"fix_duration":258.0707264199076,"trial":3,"RT":820,"MT":320,"sideResp":1,"stimulus":"img/900/equaldotanddens/R/9_Ratio_900_L_18_R_20.png","xmouse":[799,799,799,799,799,799,799,799,799,799,799,799,799,799,799,799,799,799,799,799,799,799,799,799,799,799,799,799,799,799,799,799,799,799,799,799,799,799,799,795,787,705,639,566,485,426,349,336,328,321,315,315,315,315,318,332,403,427],"ymouse":[525,525,525,525,525,525,525,525,525,525,525,525,525,525,525,525,525,525,525,525,525,525,525,525,525,525,525,525,525,525,525,525,525,525,525,525,525,525,525,520,509,415,349,280,213,163,88,71,59,48,38,38,37,35,30,24,21,26],"timestamp_mouse":[8,29,40,60,79,100,120,139,160,180,200,220,239,260,280,300,320,340,359,379,401,420,440,459,479,499,521,539,560,580,600,619,639,660,680,700,719,741,760,780,799,820,841,861,880,900,920,940,959,980,1000,1020,1040,1059,1081,1100,1121,1140],"xSR":741.5,"ySR":449.15000000000003,"xT1":424.9,"yT1":0,"xT2":1058.1,"yT2":0,"toosoon":0,"cond_shown":"equaldotanddens","ratio_trial":900,"smaller_num":"18","larger_num":"20","correct_side":2,"subjID":"catalinagomez23","gender":"1","age":"11","school":"cafam"},{"start_time":1551901291572,"click_time":1551901292584,"finger_time":1551901292185,"fix_duration":625.3966890060883,"trial":4,"RT":613,"MT":399,"sideResp":2,"stimulus":"img/500/randomdotsizeEA/R/9_Ratio_500_L_2_R_4.png","xmouse":[772,772,772,772,773,775,775,775,775,775,775,775,775,775,775,775,775,775,775,775,775,775,775,775,775,775,775,777,783,798,851,861,867,869,871,874,879,880,880,880,888,904,924,952,981,1045,1079,1102,1121,1134,1147],"ymouse":[511,511,511,511,507,504,504,504,504,504,504,504,504,504,504,504,504,504,504,504,504,504,504,504,504,504,504,500,490,466,378,363,355,350,346,341,332,330,330,330,325,310,288,256,227,179,155,136,120,104,84],"timestamp_mouse":[12,32,52,73,92,112,133,152,172,192,212,232,251,272,292,313,332,352,371,393,412,432,452,471,491,512,531,552,572,592,613,631,652,673,692,711,732,752,773,793,812,831,852,871,892,912,931,951,972,992,1012],"xSR":741.5,"ySR":449.15000000000003,"xT1":424.9,"yT1":0,"xT2":1058.1,"yT2":0,"toosoon":0,"cond_shown":"randomdotsizeEA","ratio_trial":500,"smaller_num":"2","larger_num":"4","correct_side":2,"subjID":"catalinagomez23","gender":"1","age":"11","school":"cafam"},{"start_time":1551901293915,"click_time":1551901294824,"finger_time":1551901294563,"fix_duration":250,"trial":5,"RT":648,"MT":261,"sideResp":2,"stimulus":"img/250/equaldotanddens/R/9_Ratio_250_L_3_R_12.png","xmouse":[794,794,794,794,794,794,794,794,794,794,794,794,794,794,794,794,794,794,794,794,794,794,794,794,794,794,794,794,794,794,805,813,835,925,964,995,1016,1032,1045,1058,1059,1059,1060,1060,1063,1064],"ymouse":[482,482,482,482,482,482,482,482,482,482,482,482,482,482,482,482,482,482,482,482,482,482,482,482,482,482,482,482,482,482,462,451,421,308,265,227,203,181,160,135,132,131,127,120,100,98],"timestamp_mouse":[9,35,49,69,88,109,129,149,170,188,209,230,249,269,289,309,329,349,369,388,409,429,448,469,488,508,529,549,569,590,609,629,648,669,689,709,730,749,769,788,809,829,848,868,890,908],"xSR":741.5,"ySR":449.15000000000003,"xT1":424.9,"yT1":0,"xT2":1058.1,"yT2":0,"toosoon":0,"cond_shown":"equaldotanddens","ratio_trial":250,"smaller_num":"3","larger_num":"12","correct_side":2,"subjID":"catalinagomez23","gender":"1","age":"11","school":"cafam"},{"start_time":1551901297309,"click_time":1551901298204,"finger_time":1551901297884,"fix_duration":344.8514793873556,"trial":6,"RT":575,"MT":320,"sideResp":1,"stimulus":"img/500/equaldotanddens/L/11_Ratio_500_L_12_R_6.png","xmouse":[785,785,785,785,785,785,785,785,785,785,785,785,785,785,785,785,785,785,785,785,785,785,785,785,785,785,785,785,759,730,679,613,531,423,393,387,386,386,386,394,402,409,418,422,426],"ymouse":[515,515,515,515,515,515,515,515,515,515,515,515,515,515,515,515,515,515,515,515,515,515,515,515,515,515,512,507,447,387,316,250,206,167,155,150,146,141,135,108,89,69,53,46,42],"timestamp_mouse":[15,38,54,76,95,115,134,155,175,194,215,235,255,275,295,315,334,356,375,394,414,434,455,474,495,516,535,555,575,594,615,635,656,675,695,715,735,755,776,795,814,836,856,875,895],"xSR":741.5,"ySR":449.15000000000003,"xT1":424.9,"yT1":0,"xT2":1058.1,"yT2":0,"toosoon":0,"cond_shown":"equaldotanddens","ratio_trial":500,"smaller_num":"6","larger_num":"12","correct_side":1,"subjID":"catalinagomez23","gender":"1","age":"11","school":"cafam"},{"start_time":1551901300486,"click_time":1551901301405,"finger_time":1551901301084,"fix_duration":1321.8265191016058,"trial":7,"RT":598,"MT":321,"sideResp":1,"stimulus":"img/750/equaldotsize/L/9_Ratio_750_L_4_R_3.png","xmouse":[792,792,792,792,792,792,792,792,792,792,792,792,792,792,792,792,792,792,792,792,792,792,792,792,791,787,774,762,748,701,641,566,492,435,348,348,348,348,348,348,348,348,348,348,348,444],"ymouse":[501,501,501,501,501,501,501,501,501,501,501,501,501,501,501,501,501,501,501,501,501,501,501,495,485,480,472,462,452,406,354,286,212,143,17,17,17,17,17,17,17,17,17,17,17,29],"timestamp_mouse":[18,39,58,78,98,119,138,159,177,198,218,237,258,278,298,317,338,357,377,398,418,438,458,479,498,518,538,557,578,598,617,637,658,677,699,717,738,758,778,798,819,838,858,877,897,919],"xSR":741.5,"ySR":449.15000000000003,"xT1":424.9,"yT1":0,"xT2":1058.1,"yT2":0,"toosoon":0,"cond_shown":"equaldotsize","ratio_trial":750,"smaller_num":"3","larger_num":"4","correct_side":1,"subjID":"catalinagomez23","gender":"1","age":"11","school":"cafam"},{"start_time":1551901303294,"click_time":1551901304024,"finger_time":1551901303824,"fix_duration":948.3331702046771,"trial":8,"RT":530,"MT":200,"sideResp":2,"stimulus":"img/900/equaldotsize/R/14_Ratio_900_L_18_R_20.png","xmouse":[787,787,787,787,787,787,787,787,787,787,787,787,787,787,787,787,787,787,787,787,787,787,787,787,788,802,812,821,829,847,859,876,900,925,948,1036,1069],"ymouse":[495,495,495,495,495,495,495,495,495,495,495,495,495,495,495,495,495,495,495,495,495,495,495,495,495,459,427,394,372,337,322,303,282,260,237,134,82],"timestamp_mouse":[10,38,50,71,90,110,129,150,170,191,210,230,250,269,290,310,329,349,369,389,411,431,451,470,490,510,530,549,569,590,609,629,649,670,689,710,730],"xSR":741.5,"ySR":449.15000000000003,"xT1":424.9,"yT1":0,"xT2":1058.1,"yT2":0,"toosoon":0,"cond_shown":"equaldotsize","ratio_trial":900,"smaller_num":"18","larger_num":"20","correct_side":2,"subjID":"catalinagomez23","gender":"1","age":"11","school":"cafam"},{"start_time":1551901306852,"click_time":1551901308023,"finger_time":1551901307365,"fix_duration":645.133894884106,"trial":9,"RT":513,"MT":658,"sideResp":2,"stimulus":"img/250/randomdotsizeEA/R/11_Ratio_250_L_3_R_12.png","xmouse":[769,769,769,769,769,769,769,769,769,769,769,769,769,769,769,769,769,769,769,769,769,772,775,780,783,785,785,785,785,785,785,785,785,785,785,785,785,785,785,785,785,785,785,785,785,785,785,795,819,849,884,941,965,987,1009,1031,1058,1118,1130],"ymouse":[514,514,514,514,514,514,514,514,514,514,514,514,514,514,514,514,514,514,514,514,508,490,478,465,454,447,442,432,430,430,430,430,429,429,429,429,429,429,429,429,429,429,429,429,429,429,429,419,411,399,384,358,341,317,276,227,179,102,86],"timestamp_mouse":[12,32,52,71,92,112,131,153,171,192,211,231,251,271,292,313,331,351,372,391,412,432,452,472,492,513,533,552,572,592,611,631,652,673,692,712,732,752,772,792,812,831,852,873,892,912,932,953,972,993,1012,1032,1051,1071,1091,1111,1131,1151,1171],"xSR":741.5,"ySR":449.15000000000003,"xT1":424.9,"yT1":0,"xT2":1058.1,"yT2":0,"toosoon":0,"cond_shown":"randomdotsizeEA","ratio_trial":250,"smaller_num":"3","larger_num":"12","correct_side":2,"subjID":"catalinagomez23","gender":"1","age":"11","school":"cafam"},{"start_time":1551901309740,"click_time":1551901310704,"finger_time":1551901310463,"fix_duration":735.9963433723439,"trial":10,"RT":723,"MT":241,"sideResp":2,"stimulus":"img/750/randomdotsizeEA/L/10_Ratio_750_L_4_R_3.png","xmouse":[811,811,810,810,810,810,810,810,810,810,810,810,810,810,810,810,810,810,810,810,810,810,810,810,810,810,810,810,810,810,810,810,810,810,817,829,845,874,950,976,993,1004,1016,1017,1019,1024,1033,1063,1080],"ymouse":[498,498,498,498,498,498,498,498,498,498,498,498,498,498,498,498,501,508,509,509,509,509,509,509,509,509,509,509,509,509,509,509,509,509,504,493,471,429,306,260,231,215,196,192,189,180,167,118,94],"timestamp_mouse":[9,24,58,64,84,105,125,144,163,184,203,224,243,264,284,305,324,344,364,384,404,424,444,464,484,503,524,544,563,584,603,625,644,663,684,703,723,743,764,784,804,824,844,863,884,904,924,944,963],"xSR":741.5,"ySR":449.15000000000003,"xT1":424.9,"yT1":0,"xT2":1058.1,"yT2":0,"toosoon":0,"cond_shown":"randomdotsizeEA","ratio_trial":750,"smaller_num":"3","larger_num":"4","correct_side":1,"subjID":"catalinagomez23","gender":"1","age":"11","school":"cafam"},{"start_time":1551901313867,"click_time":1551901314704,"finger_time":1551901314405,"fix_duration":741.63229931979,"trial":11,"RT":538,"MT":299,"sideResp":2,"stimulus":"img/750/equaldotsize/R/12_Ratio_750_L_3_R_4.png","xmouse":[792,792,792,792,792,792,792,792,792,792,792,792,792,792,792,792,793,796,797,798,799,800,802,804,812,824,849,859,874,893,925,1005,1045,1082,1105,1128,1130,1132,1133,1133,1134,1137],"ymouse":[499,499,499,499,499,499,499,499,499,499,499,499,499,499,499,499,499,500,500,500,500,500,500,500,499,490,470,461,448,429,395,303,262,225,198,154,136,128,122,118,108,89],"timestamp_mouse":[18,37,57,77,97,116,136,156,177,197,217,237,257,277,296,318,337,357,377,396,416,437,457,476,496,517,538,557,577,596,618,637,656,676,697,717,736,756,776,797,817,837],"xSR":741.5,"ySR":449.15000000000003,"xT1":424.9,"yT1":0,"xT2":1058.1,"yT2":0,"toosoon":0,"cond_shown":"equaldotsize","ratio_trial":750,"smaller_num":"3","larger_num":"4","correct_side":2,"subjID":"catalinagomez23","gender":"1","age":"11","school":"cafam"},{"start_time":1551901316433,"click_time":1551901317304,"finger_time":1551901317104,"fix_duration":1127.8702789799659,"trial":12,"RT":671,"MT":200,"sideResp":2,"stimulus":"img/750/randomdotsizeEA/R/15_Ratio_750_L_9_R_12.png","xmouse":[789,789,789,789,789,789,789,789,789,789,789,789,789,789,789,789,789,789,789,789,789,789,789,789,789,789,789,789,789,789,789,804,824,883,906,922,937,953,1011,1029,1043,1052,1065,1088],"ymouse":[509,509,509,509,509,509,509,509,509,509,509,509,509,509,509,509,509,509,509,509,509,509,509,509,509,509,509,509,509,509,504,490,472,429,412,397,378,354,253,223,202,182,153,64],"timestamp_mouse":[10,31,50,70,91,110,130,151,171,190,211,231,251,271,291,313,332,350,371,391,411,431,451,471,491,510,530,551,572,591,611,630,651,671,690,711,731,750,770,790,811,832,851,871],"xSR":741.5,"ySR":449.15000000000003,"xT1":424.9,"yT1":0,"xT2":1058.1,"yT2":0,"toosoon":0,"cond_shown":"randomdotsizeEA","ratio_trial":750,"smaller_num":"9","larger_num":"12","correct_side":2,"subjID":"catalinagomez23","gender":"1","age":"11","school":"cafam"},{"start_time":1551901319274,"click_time":1551901319885,"finger_time":1551901319805,"fix_duration":709.0703453338444,"trial":13,"RT":531,"MT":80,"sideResp":2,"stimulus":"img/250/equaldotanddens/R/6_Ratio_250_L_6_R_24.png","xmouse":[805,805,805,805,805,805,805,805,805,805,805,805,805,805,805,805,805,805,805,805,805,805,805,805,807,814,919,975,1027,1081,1118],"ymouse":[497,497,497,497,497,497,497,497,497,497,497,497,497,497,497,497,497,497,497,497,497,497,497,497,497,494,374,292,214,142,90],"timestamp_mouse":[10,39,49,70,90,111,130,150,170,190,209,229,249,269,289,310,329,349,371,390,410,429,451,469,489,509,531,550,569,590,610],"xSR":741.5,"ySR":449.15000000000003,"xT1":424.9,"yT1":0,"xT2":1058.1,"yT2":0,"toosoon":0,"cond_shown":"equaldotanddens","ratio_trial":250,"smaller_num":"6","larger_num":"24","correct_side":2,"subjID":"catalinagomez23","gender":"1","age":"11","school":"cafam"},{"start_time":1551901322884,"click_time":1551901323844,"finger_time":1551901323365,"fix_duration":858.4939844979342,"trial":14,"RT":481,"MT":479,"sideResp":1,"stimulus":"img/250/randomdotsizeEA/L/7_Ratio_250_L_8_R_2.png","xmouse":[805,801,794,791,791,791,791,791,791,791,791,791,791,791,791,791,791,791,791,791,791,799,804,811,818,827,836,841,846,849,855,858,859,861,861,861,861,853,831,803,775,695,664,635,598,545,523,490,442],"ymouse":[515,513,511,510,510,510,510,510,510,510,510,510,510,510,510,510,510,510,510,509,507,487,477,463,448,431,414,402,388,375,358,353,349,346,344,344,344,341,337,334,328,312,298,280,251,206,184,144,78],"timestamp_mouse":[9,30,40,60,80,100,119,140,159,180,200,220,241,259,281,300,319,340,360,380,399,419,440,460,481,500,519,540,561,580,600,619,640,660,679,700,719,739,759,779,799,819,839,860,879,900,919,939,960],"xSR":741.5,"ySR":449.15000000000003,"xT1":424.9,"yT1":0,"xT2":1058.1,"yT2":0,"toosoon":0,"cond_shown":"randomdotsizeEA","ratio_trial":250,"smaller_num":"2","larger_num":"8","correct_side":1,"subjID":"catalinagomez23","gender":"1","age":"11","school":"cafam"},{"start_time":1551901324836,"click_time":1551901325904,"finger_time":1551901325383,"fix_duration":250,"trial":15,"RT":547,"MT":521,"sideResp":2,"stimulus":"img/900/equaldotsize/R/3_Ratio_900_L_9_R_10.png","xmouse":[826,825,820,811,808,808,808,808,808,808,808,808,808,808,808,808,808,808,808,808,808,808,808,808,808,808,815,857,924,961,988,1005,1013,1025,1027,1030,1032,1034,1041,1043,1045,1047,1048,1049,1051,1051,1052,1057,1058,1058,1058,1058,1058,1059],"ymouse":[511,511,511,510,510,510,510,510,510,510,510,510,510,510,510,510,510,510,510,510,510,510,510,510,510,508,503,460,391,360,335,314,294,253,241,229,223,215,174,163,152,138,125,105,100,96,93,76,73,72,72,72,72,72],"timestamp_mouse":[9,28,48,67,87,107,127,148,167,188,208,228,248,268,288,308,327,347,368,388,407,427,447,468,487,507,527,547,567,588,608,627,647,668,688,708,727,747,768,788,807,827,849,867,888,909,928,949,968,988,1008,1028,1049,1068],"xSR":741.5,"ySR":449.15000000000003,"xT1":424.9,"yT1":0,"xT2":1058.1,"yT2":0,"toosoon":0,"cond_shown":"equaldotsize","ratio_trial":900,"smaller_num":"9","larger_num":"10","correct_side":2,"subjID":"catalinagomez23","gender":"1","age":"11","school":"cafam"},{"start_time":1551901327869,"click_time":1551901328764,"finger_time":1551901328384,"fix_duration":963.5213838188934,"trial":16,"RT":515,"MT":380,"sideResp":2,"stimulus":"img/750/equaldotsize/L/6_Ratio_750_L_24_R_18.png","xmouse":[796,796,796,796,796,796,796,796,796,796,796,796,796,796,796,796,796,796,796,796,796,796,796,795,796,812,833,849,869,883,898,920,932,946,960,976,991,998,1004,1010,1026,1036,1046,1059,1070],"ymouse":[490,490,490,490,490,490,490,490,490,490,490,490,490,490,490,490,490,490,490,490,490,490,490,490,485,449,413,382,348,322,298,259,242,227,214,197,178,168,157,148,130,121,114,106,99],"timestamp_mouse":[15,34,55,76,95,115,135,154,174,194,214,235,255,274,294,316,336,354,374,395,416,434,454,475,495,515,534,554,575,595,614,635,655,675,695,714,734,755,775,795,815,834,855,875,895],"xSR":741.5,"ySR":449.15000000000003,"xT1":424.9,"yT1":0,"xT2":1058.1,"yT2":0,"toosoon":0,"cond_shown":"equaldotsize","ratio_trial":750,"smaller_num":"18","larger_num":"24","correct_side":1,"subjID":"catalinagomez23","gender":"1","age":"11","school":"cafam"},{"start_time":1551901330256,"click_time":1551901331464,"finger_time":1551901330864,"fix_duration":250,"trial":17,"RT":608,"MT":600,"sideResp":1,"stimulus":"img/250/equaldotsize/L/7_Ratio_250_L_8_R_2.png","xmouse":[822,822,822,822,822,822,822,822,822,822,822,822,822,822,822,822,822,822,822,822,822,822,822,822,822,822,822,822,822,820,813,731,690,667,649,636,628,625,625,625,623,607,598,589,577,558,496,417,373,352,344,343,343,343,343,343,343,358,382,406,428],"ymouse":[476,476,476,476,476,476,476,476,476,476,476,476,476,476,476,476,476,476,476,476,476,476,476,476,476,476,476,476,476,464,449,316,265,228,201,186,177,172,172,172,169,156,150,144,136,126,103,81,68,61,58,58,58,58,58,58,58,59,65,69,73],"timestamp_mouse":[8,28,56,69,88,107,128,148,167,188,207,228,247,268,288,308,328,348,367,388,408,427,448,467,488,508,528,549,567,588,608,628,648,667,688,708,728,747,768,789,808,828,847,868,888,908,928,947,968,988,1007,1027,1048,1068,1088,1107,1127,1147,1167,1188,1208],"xSR":741.5,"ySR":449.15000000000003,"xT1":424.9,"yT1":0,"xT2":1058.1,"yT2":0,"toosoon":0,"cond_shown":"equaldotsize","ratio_trial":250,"smaller_num":"2","larger_num":"8","correct_side":1,"subjID":"catalinagomez23","gender":"1","age":"11","school":"cafam"},{"start_time":1551901333956,"click_time":1551901337324,"finger_time":1551901336684,"fix_duration":250,"trial":18,"RT":2728,"MT":640,"sideResp":2,"stimulus":"img/250/randomdotsizeEA/R/10_Ratio_250_L_4_R_16.png","xmouse":[794,794,794,794,794,794,794,794,794,794,794,794,794,794,794,794,794,794,794,794,794,794,794,794,794,794,794,794,794,794,794,794,794,794,794,794,794,794,794,794,794,794,794,794,794,794,794,794,794,794,794,794,794,794,794,794,794,794,794,794,794,794,794,794,794,794,794,794,794,794,794,794,794,794,794,794,794,798,802,806,807,807,807,807,807,807,807,807,807,807,807,807,807,807,808,808,809,809,809,809,809,809,809,809,809,809,809,809,809,809,809,809,809,809,809,809,809,809,809,809,809,809,809,809,809,809,809,809,809,809,809,809,807,798,781,760,737,713,712,712,712,712,712,722,741,772,867,923,977,1011,1030,1034,1047,1051,1054,1057,1064,1065,1065,1065,1065,1065,1065,1065,1065,1065,1065,1061,1061],"ymouse":[467,467,467,467,467,467,467,467,467,467,467,467,467,467,467,467,467,467,467,467,467,467,467,467,467,467,467,467,467,467,467,467,467,467,467,467,467,467,467,467,467,467,467,467,467,467,467,467,467,467,467,467,467,467,467,467,467,467,467,467,467,467,467,467,467,467,467,467,467,467,467,467,467,467,467,467,467,467,466,465,465,465,465,465,465,465,465,465,465,465,465,465,465,465,470,480,507,512,513,513,513,513,513,513,513,513,513,513,513,513,513,513,513,513,513,513,513,513,513,513,513,513,513,513,513,513,513,513,513,513,513,513,513,506,496,486,478,475,475,475,475,475,475,475,471,463,437,416,391,366,342,336,300,279,255,236,207,197,184,172,166,165,165,165,159,152,142,116,97],"timestamp_mouse":[9,32,49,68,88,107,129,148,167,187,208,227,247,267,288,307,328,348,367,387,407,427,448,468,488,507,528,548,568,588,608,627,648,668,687,708,728,749,768,787,808,828,849,867,888,909,927,949,969,987,1007,1027,1049,1068,1087,1108,1127,1149,1169,1187,1208,1227,1249,1268,1288,1308,1328,1348,1368,1388,1407,1428,1449,1468,1488,1508,1528,1548,1569,1589,1608,1628,1649,1668,1688,1708,1727,1747,1769,1787,1808,1828,1847,1868,1888,1908,1928,1948,1969,1988,2007,2027,2047,2069,2087,2108,2142,2148,2167,2188,2208,2227,2248,2268,2287,2309,2328,2347,2368,2389,2407,2427,2447,2467,2488,2508,2527,2548,2568,2589,2607,2628,2648,2667,2689,2707,2728,2748,2769,2788,2807,2828,2847,2868,2888,2908,2928,2947,2968,2988,3008,3028,3048,3068,3088,3108,3128,3147,3168,3188,3207,3228,3249,3268,3288,3308,3328,3347,3368],"xSR":741.5,"ySR":449.15000000000003,"xT1":424.9,"yT1":0,"xT2":1058.1,"yT2":0,"toosoon":0,"cond_shown":"randomdotsizeEA","ratio_trial":250,"smaller_num":"4","larger_num":"16","correct_side":2,"subjID":"catalinagomez23","gender":"1","age":"11","school":"cafam"},{"start_time":1551901341113,"click_time":1551901342324,"finger_time":1551901341703,"fix_duration":1206.7594738690962,"trial":19,"RT":590,"MT":621,"sideResp":1,"stimulus":"img/500/equaldotanddens/L/11_Ratio_500_L_12_R_6.png","xmouse":[822,822,822,822,822,822,822,822,822,822,822,822,822,822,822,822,822,822,822,822,822,822,822,822,822,822,822,822,816,764,734,710,681,628,583,533,490,453,385,365,357,355,353,348,346,346,346,349,350,351,351,351,351,351,351,351,353,360,375,411,428],"ymouse":[507,507,507,507,507,507,507,507,507,507,507,507,507,507,507,507,507,507,507,507,507,507,507,507,507,507,507,490,470,384,352,329,308,271,243,219,199,184,155,145,140,138,134,116,97,69,43,21,8,1,1,1,1,1,1,1,4,13,32,70,84],"timestamp_mouse":[11,33,50,72,90,110,131,151,171,191,210,230,250,271,290,310,330,351,371,391,411,431,451,470,490,511,531,551,570,590,611,631,651,671,691,710,731,752,771,791,811,831,851,871,890,911,931,951,971,991,1012,1031,1052,1070,1090,1110,1130,1151,1171,1190,1211],"xSR":741.5,"ySR":449.15000000000003,"xT1":424.9,"yT1":0,"xT2":1058.1,"yT2":0,"toosoon":0,"cond_shown":"equaldotanddens","ratio_trial":500,"smaller_num":"6","larger_num":"12","correct_side":1,"subjID":"catalinagomez23","gender":"1","age":"11","school":"cafam"},{"start_time":1551901349601,"click_time":1551901350903,"finger_time":1551901350205,"fix_duration":256.8303767418263,"trial":20,"RT":604,"MT":698,"sideResp":2,"stimulus":"img/900/equaldotanddens/R/3_Ratio_900_L_9_R_10.png","xmouse":[782,782,782,782,782,782,782,782,782,782,782,782,782,782,782,782,782,782,782,782,782,782,782,782,782,782,783,784,786,789,801,807,813,820,831,838,842,845,850,854,876,889,900,911,918,937,949,963,978,992,1024,1036,1049,1060,1085,1098,1105,1108,1108,1108,1108,1108,1109,1109,1107,1104],"ymouse":[481,481,481,481,481,481,481,481,481,481,481,481,481,481,481,481,481,481,481,481,481,481,481,481,481,481,481,480,472,465,438,424,409,391,355,340,328,318,308,297,269,258,248,239,234,221,213,204,197,190,172,166,158,151,136,130,127,124,124,124,124,124,123,117,106,97],"timestamp_mouse":[8,30,43,62,83,102,123,143,162,183,203,223,243,263,282,303,323,342,362,384,403,423,442,462,483,503,523,543,563,583,604,622,642,664,684,703,723,743,763,783,803,823,843,863,884,902,923,943,962,983,1003,1023,1043,1063,1084,1102,1123,1143,1163,1184,1203,1223,1242,1264,1283,1302],"xSR":741.5,"ySR":449.15000000000003,"xT1":424.9,"yT1":0,"xT2":1058.1,"yT2":0,"toosoon":0,"cond_shown":"equaldotanddens","ratio_trial":900,"smaller_num":"9","larger_num":"10","correct_side":2,"subjID":"catalinagomez23","gender":"1","age":"11","school":"cafam"},{"start_time":1551901356956,"click_time":1551901358244,"finger_time":1551901357443,"fix_duration":1131.118182278529,"trial":21,"RT":487,"MT":801,"sideResp":2,"stimulus":"img/250/equaldotsize/R/6_Ratio_250_L_6_R_24.png","xmouse":[794,794,794,794,794,794,794,794,794,794,794,794,794,794,794,794,794,794,794,794,795,807,821,835,845,852,865,870,876,884,893,899,913,919,923,928,934,947,952,955,961,966,976,981,985,993,1020,1047,1095,1131,1151,1161,1161,1162,1162,1163,1164,1164,1164,1164,1164,1162,1157,1152,1146],"ymouse":[507,507,507,507,507,507,507,507,507,507,507,507,507,507,507,507,507,507,507,507,507,506,503,499,493,487,465,450,431,411,392,374,327,309,292,277,262,239,232,225,218,212,205,203,200,197,187,175,156,146,140,137,137,136,135,134,132,132,131,130,124,119,109,101,90],"timestamp_mouse":[10,28,48,68,87,108,127,148,168,187,209,228,249,268,287,307,329,347,367,388,409,428,448,468,487,507,529,547,569,588,607,627,648,668,688,707,727,747,768,788,807,828,848,868,888,907,928,948,968,987,1008,1029,1048,1068,1087,1108,1129,1147,1167,1188,1207,1228,1248,1268,1288],"xSR":741.5,"ySR":449.15000000000003,"xT1":424.9,"yT1":0,"xT2":1058.1,"yT2":0,"toosoon":0,"cond_shown":"equaldotsize","ratio_trial":250,"smaller_num":"6","larger_num":"24","correct_side":2,"subjID":"catalinagomez23","gender":"1","age":"11","school":"cafam"},{"start_time":1551901359716,"click_time":1551901360724,"finger_time":1551901360324,"fix_duration":250,"trial":22,"RT":608,"MT":400,"sideResp":2,"stimulus":"img/500/equaldotsize/R/1_Ratio_500_L_9_R_18.png","xmouse":[794,794,791,791,791,791,791,791,791,791,791,791,791,791,791,791,790,790,790,790,790,790,790,790,790,790,790,800,809,837,851,862,872,890,915,929,938,948,959,986,1005,1028,1046,1065,1107,1117,1124,1127,1135,1137,1139],"ymouse":[501,498,495,495,495,495,495,495,495,495,495,495,495,495,495,495,494,494,494,494,494,494,494,494,494,494,494,486,480,454,441,431,421,400,371,357,346,332,319,282,256,228,206,187,152,143,132,125,106,101,98],"timestamp_mouse":[9,33,48,68,87,107,128,147,168,188,207,227,247,268,287,308,327,349,368,387,408,428,447,467,488,508,528,547,568,588,608,628,648,668,688,707,728,748,769,788,808,828,848,867,887,908,927,947,968,987,1008],"xSR":741.5,"ySR":449.15000000000003,"xT1":424.9,"yT1":0,"xT2":1058.1,"yT2":0,"toosoon":0,"cond_shown":"equaldotsize","ratio_trial":500,"smaller_num":"9","larger_num":"18","correct_side":2,"subjID":"catalinagomez23","gender":"1","age":"11","school":"cafam"},{"start_time":1551901369091,"click_time":1551901370045,"finger_time":1551901369664,"fix_duration":1386.5371967367353,"trial":23,"RT":573,"MT":381,"sideResp":2,"stimulus":"img/900/equaldotsize/R/3_Ratio_900_L_9_R_10.png","xmouse":[793,793,793,793,793,793,793,793,793,793,793,793,793,793,793,793,793,793,793,793,794,797,801,804,804,807,809,815,822,846,859,873,890,909,926,961,978,996,1011,1033,1041,1048,1056,1062,1081,1089,1096,1103],"ymouse":[533,533,533,533,533,533,533,533,533,533,533,533,533,533,533,533,533,533,533,533,531,519,504,485,481,466,461,452,441,415,402,389,374,361,348,317,303,288,273,237,219,201,185,169,133,120,107,95],"timestamp_mouse":[13,38,53,73,92,114,134,153,173,192,214,232,254,272,292,312,332,353,373,393,413,432,452,473,493,513,533,552,573,593,612,632,653,673,693,713,733,753,772,794,812,832,854,872,893,912,933,954],"xSR":741.5,"ySR":449.15000000000003,"xT1":424.9,"yT1":0,"xT2":1058.1,"yT2":0,"toosoon":0,"cond_shown":"equaldotsize","ratio_trial":900,"smaller_num":"9","larger_num":"10","correct_side":2,"subjID":"catalinagomez23","gender":"1","age":"11","school":"cafam"},{"start_time":1551901371678,"click_time":1551901372703,"finger_time":1551901372283,"fix_duration":553.8410780577989,"trial":24,"RT":605,"MT":420,"sideResp":1,"stimulus":"img/750/equaldotsize/L/14_Ratio_750_L_8_R_6.png","xmouse":[804,804,804,804,804,804,804,804,804,804,804,804,804,804,804,804,804,804,804,804,804,804,804,804,804,804,804,803,798,790,779,737,718,703,692,683,659,655,653,646,630,624,619,615,607,583,576,567,555,543,533,519],"ymouse":[504,504,504,504,504,504,504,504,504,504,504,504,504,504,504,504,504,504,504,504,504,504,504,504,504,504,504,504,489,461,424,346,324,310,301,294,278,274,269,253,223,205,188,169,145,100,86,73,58,44,38,33],"timestamp_mouse":[8,38,45,65,85,106,125,145,165,185,204,225,245,265,285,306,325,345,365,385,405,425,445,465,486,505,526,544,565,585,605,625,646,665,685,704,724,745,765,785,805,824,845,865,884,906,924,945,965,986,1006,1025],"xSR":741.5,"ySR":449.15000000000003,"xT1":424.9,"yT1":0,"xT2":1058.1,"yT2":0,"toosoon":0,"cond_shown":"equaldotsize","ratio_trial":750,"smaller_num":"6","larger_num":"8","correct_side":1,"subjID":"catalinagomez23","gender":"1","age":"11","school":"cafam"},{"start_time":1551901375833,"click_time":1551901376703,"finger_time":1551901376303,"fix_duration":948.8687025602355,"trial":25,"RT":470,"MT":400,"sideResp":2,"stimulus":"img/500/equaldotsize/R/6_Ratio_500_L_9_R_18.png","xmouse":[784,784,784,784,784,784,784,784,784,784,784,784,784,784,784,784,784,784,784,784,784,784,790,809,826,843,855,876,895,910,926,945,978,994,1005,1013,1020,1025,1041,1044,1050,1057,1064,1071],"ymouse":[501,501,501,501,501,501,501,501,501,501,501,501,501,501,501,501,501,501,501,501,501,501,486,439,409,386,368,331,300,281,263,244,211,197,185,173,161,154,139,136,130,122,111,95],"timestamp_mouse":[9,29,51,70,91,110,130,150,170,190,210,230,249,270,291,310,330,350,370,390,410,430,450,470,490,510,530,550,570,590,610,630,651,670,690,710,730,750,770,790,810,830,851,870],"xSR":741.5,"ySR":449.15000000000003,"xT1":424.9,"yT1":0,"xT2":1058.1,"yT2":0,"toosoon":0,"cond_shown":"equaldotsize","ratio_trial":500,"smaller_num":"9","larger_num":"18","correct_side":2,"subjID":"catalinagomez23","gender":"1","age":"11","school":"cafam"},{"start_time":1551901378336,"click_time":1551901379283,"finger_time":1551901378923,"fix_duration":250,"trial":26,"RT":587,"MT":360,"sideResp":2,"stimulus":"img/750/equaldotanddens/R/3_Ratio_750_L_15_R_20.png","xmouse":[825,825,825,825,825,825,825,825,825,825,825,825,825,825,825,825,825,825,825,825,825,825,825,825,825,825,825,827,840,843,846,851,866,873,882,893,909,961,992,1023,1044,1064,1103,1117,1126,1131,1140,1154],"ymouse":[521,521,521,521,521,521,521,521,521,521,521,521,521,521,521,521,521,521,521,521,521,521,521,521,521,521,519,517,505,500,492,480,450,437,422,402,377,303,268,236,218,196,148,135,124,117,103,85],"timestamp_mouse":[8,27,47,67,87,107,127,148,167,186,207,226,247,267,287,307,327,347,367,386,407,427,447,467,487,508,527,547,567,587,607,628,648,667,686,707,727,748,766,787,807,827,848,866,886,907,927,947],"xSR":741.5,"ySR":449.15000000000003,"xT1":424.9,"yT1":0,"xT2":1058.1,"yT2":0,"toosoon":0,"cond_shown":"equaldotanddens","ratio_trial":750,"smaller_num":"15","larger_num":"20","correct_side":2,"subjID":"catalinagomez23","gender":"1","age":"11","school":"cafam"},{"start_time":1551901385802,"click_time":1551901386483,"finger_time":1551901386303,"fix_duration":978.3396107723876,"trial":27,"RT":501,"MT":180,"sideResp":2,"stimulus":"img/900/equaldotanddens/R/15_Ratio_900_L_9_R_10.png","xmouse":[789,789,789,789,789,789,789,789,789,789,789,789,789,789,789,789,789,789,789,789,789,789,789,790,796,818,834,850,866,889,962,996,1031,1055,1092],"ymouse":[504,504,504,504,504,504,504,504,504,504,504,504,504,504,504,504,504,504,504,504,504,504,503,502,490,446,420,392,369,332,230,185,138,100,55],"timestamp_mouse":[9,22,41,61,81,101,121,141,160,181,201,221,241,261,280,301,321,342,361,381,401,421,442,461,481,501,520,541,561,581,601,621,641,661,681],"xSR":741.5,"ySR":449.15000000000003,"xT1":424.9,"yT1":0,"xT2":1058.1,"yT2":0,"toosoon":0,"cond_shown":"equaldotanddens","ratio_trial":900,"smaller_num":"9","larger_num":"10","correct_side":2,"subjID":"catalinagomez23","gender":"1","age":"11","school":"cafam"},{"start_time":1551901388160,"click_time":1551901389102,"finger_time":1551901388843,"fix_duration":796.6412662375849,"trial":28,"RT":683,"MT":259,"sideResp":1,"stimulus":"img/250/equaldotanddens/L/3_Ratio_250_L_8_R_2.png","xmouse":[815,815,815,815,815,815,815,815,815,815,815,815,815,815,815,815,815,815,815,815,815,815,815,815,815,814,813,810,807,806,805,802,799,790,776,755,695,665,630,593,555,545,511,502,495,488,465,454],"ymouse":[537,537,537,537,537,537,537,537,537,537,537,537,537,537,537,537,537,537,537,537,537,537,537,537,537,537,531,520,512,507,503,497,489,471,448,418,352,323,292,263,230,222,190,178,165,148,107,94],"timestamp_mouse":[12,22,43,62,82,103,122,143,163,183,203,223,242,263,284,303,324,343,363,383,403,423,442,464,483,503,523,543,563,584,603,623,643,663,683,703,723,742,763,784,803,823,843,863,884,903,924,942],"xSR":741.5,"ySR":449.15000000000003,"xT1":424.9,"yT1":0,"xT2":1058.1,"yT2":0,"toosoon":0,"cond_shown":"equaldotanddens","ratio_trial":250,"smaller_num":"2","larger_num":"8","correct_side":1,"subjID":"catalinagomez23","gender":"1","age":"11","school":"cafam"},{"start_time":1551901391301,"click_time":1551901392483,"finger_time":1551901391944,"fix_duration":1076.2942294174995,"trial":29,"RT":643,"MT":539,"sideResp":2,"stimulus":"img/900/equaldotsize/L/2_Ratio_900_L_20_R_18.png","xmouse":[831,831,831,831,831,831,831,831,831,831,831,831,831,831,831,831,831,831,831,831,831,831,831,831,831,831,831,831,831,832,837,841,848,852,869,879,891,902,913,928,965,984,1000,1022,1030,1051,1056,1058,1060,1065,1068,1071,1075,1087,1107,1116,1127,1136,1144,1156],"ymouse":[519,519,519,519,519,519,519,519,519,519,519,519,519,519,519,519,519,519,519,519,519,519,519,519,519,519,519,519,514,510,487,471,457,446,418,405,393,381,369,354,325,311,298,280,273,251,244,242,237,228,222,215,204,183,153,140,125,114,104,81],"timestamp_mouse":[8,34,42,62,82,102,122,141,162,183,202,222,242,261,282,302,322,342,362,382,401,422,442,462,482,502,521,542,562,581,602,622,643,662,683,702,722,743,762,783,802,821,843,862,882,901,922,942,962,982,1002,1022,1042,1062,1083,1102,1122,1142,1162,1182],"xSR":741.5,"ySR":449.15000000000003,"xT1":424.9,"yT1":0,"xT2":1058.1,"yT2":0,"toosoon":0,"cond_shown":"equaldotsize","ratio_trial":900,"smaller_num":"18","larger_num":"20","correct_side":1,"subjID":"catalinagomez23","gender":"1","age":"11","school":"cafam"},{"start_time":1551901396591,"click_time":1551901397324,"finger_time":1551901397184,"fix_duration":1447.541965824785,"trial":30,"RT":593,"MT":140,"sideResp":2,"stimulus":"img/250/equaldotanddens/R/11_Ratio_250_L_3_R_12.png","xmouse":[796,796,796,795,795,794,794,794,794,794,794,794,794,794,794,794,794,794,793,792,792,792,792,792,792,792,792,792,796,844,878,913,949,984,1037,1053,1071],"ymouse":[479,479,490,505,518,534,536,536,536,536,536,536,536,536,536,536,532,524,514,504,504,504,504,504,504,504,500,495,477,383,319,253,187,138,73,54,39],"timestamp_mouse":[12,41,51,72,91,112,132,152,172,192,212,232,252,272,292,312,332,352,372,392,412,433,452,472,492,512,533,552,572,593,612,632,652,672,693,712,732],"xSR":741.5,"ySR":449.15000000000003,"xT1":424.9,"yT1":0,"xT2":1058.1,"yT2":0,"toosoon":0,"cond_shown":"equaldotanddens","ratio_trial":250,"smaller_num":"3","larger_num":"12","correct_side":2,"subjID":"catalinagomez23","gender":"1","age":"11","school":"cafam"},{"start_time":1551901398913,"click_time":1551901400503,"finger_time":1551901399684,"fix_duration":688.2002350227707,"trial":31,"RT":771,"MT":819,"sideResp":2,"stimulus":"img/750/randomdotsizeEA/L/10_Ratio_750_L_4_R_3.png","xmouse":[807,807,807,807,807,807,807,807,807,807,807,807,807,807,807,807,807,807,807,807,807,807,807,807,807,807,807,807,807,807,807,807,807,807,807,807,807,817,903,978,1076,1160,1160,1160,1160,1160,1160,1160,1160,1160,1160,1160,1160,1160,1160,1160,1245,1234,1225,1218,1218,1218,1218,1218,1218,1218,1217,1208,1195,1177,1172,1169,1168,1168,1168,1168,1168,1168,1165,1155],"ymouse":[530,530,530,530,530,530,530,530,530,530,530,530,530,530,530,530,530,530,530,530,530,530,530,530,530,530,530,530,530,530,530,530,530,530,530,530,528,516,418,307,151,27,27,27,27,27,27,27,27,27,27,27,27,27,27,27,1,41,66,77,77,77,77,77,77,77,77,66,51,36,32,30,29,29,29,29,29,29,31,46],"timestamp_mouse":[10,33,50,70,89,110,130,149,170,190,210,230,250,270,290,310,331,350,370,390,410,429,450,471,490,510,530,550,570,590,610,630,649,670,690,710,730,749,771,790,811,831,849,870,890,910,931,951,971,990,1010,1030,1049,1070,1091,1110,1130,1150,1170,1190,1210,1230,1249,1271,1290,1310,1329,1350,1370,1390,1410,1430,1450,1470,1490,1509,1530,1550,1570,1590],"xSR":741.5,"ySR":449.15000000000003,"xT1":424.9,"yT1":0,"xT2":1058.1,"yT2":0,"toosoon":0,"cond_shown":"randomdotsizeEA","ratio_trial":750,"smaller_num":"3","larger_num":"4","correct_side":1,"subjID":"catalinagomez23","gender":"1","age":"11","school":"cafam"},{"start_time":1551901402949,"click_time":1551901404063,"finger_time":1551901403643,"fix_duration":1384.4637448553933,"trial":32,"RT":694,"MT":420,"sideResp":1,"stimulus":"img/900/randomdotsizeEA/L/10_Ratio_900_L_20_R_18.png","xmouse":[761,761,761,761,761,761,761,761,761,761,761,761,761,761,761,761,761,761,761,761,761,761,761,761,761,761,761,761,761,761,761,761,766,779,800,823,877,894,903,910,913,913,913,913,913,913,914,914,914,914,912,902,862,756,595,428],"ymouse":[518,518,518,518,518,518,518,518,518,518,518,518,518,518,518,518,518,518,518,518,518,518,518,518,518,518,518,518,518,518,518,513,483,450,396,337,230,195,166,144,128,114,114,114,114,112,105,102,102,102,102,105,107,107,91,76],"timestamp_mouse":[14,34,54,73,94,114,134,154,174,194,214,234,254,274,293,314,335,354,374,394,414,434,454,474,493,514,533,555,575,594,614,634,655,674,694,715,736,754,775,794,814,835,854,874,894,914,935,953,974,994,1014,1035,1054,1074,1094,1114],"xSR":741.5,"ySR":449.15000000000003,"xT1":424.9,"yT1":0,"xT2":1058.1,"yT2":0,"toosoon":0,"cond_shown":"randomdotsizeEA","ratio_trial":900,"smaller_num":"18","larger_num":"20","correct_side":1,"subjID":"catalinagomez23","gender":"1","age":"11","school":"cafam"},{"start_time":1551901406382,"click_time":1551901416203,"finger_time":1551901415623,"fix_duration":1037.1324700969012,"trial":33,"RT":9241,"MT":580,"sideResp":2,"stimulus":"img/500/randomdotsizeEA/L/7_Ratio_500_L_10_R_5.png","xmouse":[814,814,814,814,814,814,814,814,814,814,814,814,814,814,814,814,814,814,814,814,814,814,814,814,814,814,814,814,814,814,814,814,814,814,814,814,814,814,814,814,814,814,814,814,814,814,814,814,814,814,814,814,814,814,814,814,814,814,814,814,814,814,814,814,814,814,814,814,814,814,814,814,814,814,814,814,814,814,814,814,814,814,814,814,814,814,814,814,814,814,814,814,814,814,814,814,814,814,814,814,814,814,814,814,814,814,814,814,814,814,814,814,814,814,814,814,814,814,814,814,814,814,814,814,814,814,814,814,814,814,814,814,814,814,814,814,814,814,814,814,814,814,814,814,814,814,814,814,814,814,814,814,814,814,814,814,814,814,814,814,814,814,814,814,814,814,814,814,814,814,814,814,814,814,814,814,814,814,814,814,814,814,814,814,814,814,814,814,814,814,814,814,814,814,814,814,814,814,814,814,814,814,814,814,814,814,814,814,814,814,814,814,814,814,814,814,814,814,814,814,814,814,814,814,814,814,814,814,814,814,814,814,814,814,814,814,814,814,814,814,814,814,814,814,814,814,814,814,814,814,814,814,814,814,814,814,814,814,814,814,814,814,814,814,814,814,814,814,814,814,814,814,814,814,814,814,814,814,814,814,814,814,814,814,814,814,814,814,814,814,814,814,814,814,814,814,814,814,814,814,814,814,814,814,814,814,814,814,814,814,814,814,814,814,814,814,814,814,814,814,814,814,814,814,814,814,814,814,814,814,814,814,814,814,814,814,814,814,814,814,814,814,814,814,814,814,814,814,814,814,814,814,814,814,814,814,814,814,814,814,814,814,814,814,814,814,814,814,814,814,814,814,814,814,814,814,814,814,814,814,814,814,814,814,814,814,814,814,814,814,814,814,814,814,814,814,814,814,814,814,814,814,814,814,814,814,814,814,814,814,814,814,814,814,814,814,814,814,814,814,814,814,814,814,814,814,814,814,814,814,814,814,814,814,814,814,814,814,814,814,814,814,814,814,814,814,814,814,814,814,814,814,814,814,814,814,814,814,814,814,814,833,880,925,980,1043,1148,1188,1231,1275,1299,1299,1299,1299,1299,1299,1299,1263,1244,1227,1198,1196,1195,1195,1194,1191,1185,1183,1183,1182,1179,1149],"ymouse":[486,486,486,486,486,486,486,486,486,486,486,486,486,486,486,486,486,486,486,486,486,486,486,486,486,486,486,486,486,486,486,486,486,486,486,486,486,486,486,486,486,486,486,486,486,486,486,486,486,486,486,486,486,486,486,486,486,486,486,486,486,486,486,486,486,486,486,486,486,486,486,486,486,486,486,486,486,486,486,486,486,486,486,486,486,486,486,486,486,486,486,486,486,486,486,486,486,486,486,486,486,486,486,486,486,486,486,486,486,486,486,486,486,486,486,486,486,486,486,486,486,486,486,486,486,486,486,486,486,486,486,486,486,486,486,486,486,486,486,486,486,486,486,486,486,486,486,486,486,486,486,486,486,486,486,486,486,486,486,486,486,486,486,486,486,486,486,486,486,486,486,486,486,486,486,486,486,486,486,486,486,486,486,486,486,486,486,486,486,486,486,486,486,486,486,486,486,486,486,486,486,486,486,486,486,486,486,486,486,486,486,486,486,486,486,486,486,486,486,486,486,486,486,486,486,486,486,486,486,486,486,486,486,486,486,486,486,486,486,486,486,486,486,486,486,486,486,486,486,486,486,486,486,486,486,486,486,486,486,486,486,486,486,486,486,486,486,486,486,486,486,486,486,486,486,486,486,486,486,486,486,486,486,486,486,486,486,486,486,486,486,486,486,486,486,486,486,486,486,486,486,486,486,486,486,486,486,486,486,486,486,486,486,486,486,486,486,486,486,486,486,486,486,486,486,486,486,486,486,486,486,486,486,486,486,486,486,486,486,486,486,486,486,486,486,486,486,486,486,486,486,486,486,486,486,486,486,486,486,486,486,486,486,486,486,486,486,486,486,486,486,486,486,486,486,486,486,486,486,486,486,486,486,486,486,486,486,486,486,486,486,486,486,486,486,486,486,486,486,486,486,486,486,486,486,486,486,486,486,486,486,486,486,486,486,486,486,486,486,486,486,486,486,486,486,486,486,486,486,486,486,486,486,486,486,486,486,486,486,486,486,486,486,486,486,486,486,486,486,486,486,486,486,486,486,486,486,486,486,486,486,462,419,380,341,296,209,165,119,70,18,5,1,1,1,1,1,6,15,27,45,46,46,47,47,50,55,56,56,56,56,56],"timestamp_mouse":[11,21,41,61,82,101,121,141,162,181,201,221,241,260,281,301,321,341,360,381,401,421,441,461,481,501,522,541,561,581,601,621,641,661,682,701,721,741,761,781,802,822,841,861,881,900,922,941,961,981,1002,1022,1041,1061,1081,1101,1121,1141,1161,1180,1201,1221,1241,1260,1281,1302,1321,1341,1360,1380,1401,1421,1441,1462,1481,1501,1521,1542,1561,1581,1600,1622,1641,1660,1682,1701,1721,1741,1762,1781,1802,1821,1841,1862,1880,1900,1922,1941,1961,1982,2002,2020,2042,2061,2081,2101,2122,2141,2160,2181,2201,2222,2241,2262,2281,2301,2321,2341,2361,2381,2401,2420,2441,2460,2481,2500,2521,2541,2561,2581,2601,2622,2640,2661,2680,2701,2721,2741,2761,2781,2801,2822,2841,2861,2881,2901,2922,2941,2961,2981,3001,3021,3041,3061,3081,3100,3121,3141,3161,3181,3200,3221,3240,3261,3281,3301,3322,3341,3360,3381,3401,3420,3441,3460,3481,3502,3520,3541,3561,3581,3602,3621,3641,3661,3681,3701,3721,3741,3760,3782,3801,3820,3842,3861,3881,3901,3921,3942,3961,3980,4001,4021,4041,4060,4081,4101,4122,4140,4161,4181,4201,4222,4242,4261,4281,4301,4321,4341,4361,4381,4401,4420,4441,4460,4481,4501,4520,4541,4561,4582,4601,4620,4642,4661,4681,4701,4722,4741,4761,4781,4801,4822,4841,4861,4882,4901,4922,4941,4961,4981,5001,5021,5041,5061,5081,5100,5121,5142,5161,5181,5200,5221,5240,5261,5280,5301,5321,5341,5361,5381,5401,5422,5441,5461,5482,5501,5522,5541,5561,5581,5601,5622,5641,5662,5680,5702,5722,5741,5761,5781,5801,5822,5841,5861,5881,5901,5921,5941,5961,5980,6002,6021,6041,6062,6081,6101,6122,6141,6162,6181,6201,6220,6241,6261,6281,6302,6321,6341,6361,6381,6402,6421,6441,6461,6481,6501,6521,6542,6562,6582,6600,6622,6641,6661,6681,6700,6721,6741,6760,6781,6801,6821,6841,6861,6881,6902,6921,6940,6961,6981,7000,7020,7041,7061,7081,7101,7121,7140,7161,7181,7200,7221,7241,7261,7281,7301,7321,7341,7361,7382,7402,7422,7441,7461,7481,7501,7522,7540,7561,7582,7600,7621,7641,7662,7682,7700,7721,7741,7762,7781,7802,7821,7841,7862,7881,7900,7921,7941,7961,7981,8002,8021,8041,8061,8081,8101,8121,8141,8161,8181,8201,8221,8241,8260,8281,8301,8321,8341,8362,8381,8401,8421,8441,8461,8481,8501,8521,8541,8561,8581,8601,8622,8641,8660,8682,8701,8720,8741,8761,8781,8801,8821,8842,8861,8881,8901,8921,8941,8961,8981,9002,9021,9041,9061,9081,9101,9121,9142,9160,9181,9201,9220,9241,9261,9281,9300,9321,9341,9361,9381,9401,9420,9441,9461,9481,9502,9521,9541,9561,9581,9602,9621,9641,9661,9680,9701,9721,9741,9760,9781,9801,9821],"xSR":741.5,"ySR":449.15000000000003,"xT1":424.9,"yT1":0,"xT2":1058.1,"yT2":0,"toosoon":0,"cond_shown":"randomdotsizeEA","ratio_trial":500,"smaller_num":"5","larger_num":"10","correct_side":1,"subjID":"catalinagomez23","gender":"1","age":"11","school":"cafam"},{"start_time":1551901419645,"click_time":1551901420884,"finger_time":1551901420362,"fix_duration":360.29272114191934,"trial":34,"RT":717,"MT":522,"sideResp":1,"stimulus":"img/500/equaldotsize/L/10_Ratio_500_L_4_R_2.png","xmouse":[780,780,780,780,780,780,780,780,780,780,780,780,780,780,780,780,780,780,780,780,780,780,780,780,780,780,780,780,780,780,780,780,778,766,751,735,715,687,678,670,661,641,629,615,604,598,594,587,584,580,570,561,553,552,551,550,541,536,527,516,505,498],"ymouse":[529,529,529,529,529,529,529,529,529,529,529,529,529,529,529,529,529,529,529,529,529,529,529,529,529,529,529,529,529,529,529,529,524,506,482,455,420,379,367,355,345,326,313,302,289,279,270,247,237,222,200,178,148,144,143,142,128,121,114,105,100,96],"timestamp_mouse":[18,41,58,78,99,118,138,158,178,198,218,238,258,278,298,318,338,358,377,398,418,439,458,479,498,518,537,558,578,598,618,638,658,677,698,717,737,758,778,798,818,838,858,878,898,918,937,958,978,999,1018,1037,1058,1078,1099,1119,1139,1157,1178,1198,1218,1239],"xSR":741.5,"ySR":449.15000000000003,"xT1":424.9,"yT1":0,"xT2":1058.1,"yT2":0,"toosoon":0,"cond_shown":"equaldotsize","ratio_trial":500,"smaller_num":"2","larger_num":"4","correct_side":1,"subjID":"catalinagomez23","gender":"1","age":"11","school":"cafam"},{"start_time":1551901423839,"click_time":1551901424783,"finger_time":1551901424363,"fix_duration":1233.649054237107,"trial":35,"RT":524,"MT":420,"sideResp":2,"stimulus":"img/500/randomdotsizeEA/R/12_Ratio_500_L_1_R_2.png","xmouse":[779,779,779,779,779,779,779,779,779,779,779,779,779,779,779,779,779,779,779,779,779,779,779,786,799,827,880,944,1077,1110,1131,1144,1153,1167,1174,1180,1185,1191,1194,1195,1195,1195,1195,1193,1188,1176,1159,1127],"ymouse":[528,528,528,528,528,528,528,528,528,528,528,528,528,528,528,528,528,528,528,528,528,528,529,527,520,503,475,434,301,269,251,234,220,201,189,178,167,153,138,129,124,122,121,120,115,108,99,83],"timestamp_mouse":[8,31,44,64,85,104,124,143,164,183,204,224,244,264,284,304,324,344,364,384,404,425,444,463,484,505,524,544,564,584,604,625,645,664,683,705,724,744,764,784,804,824,845,864,885,904,924,944],"xSR":741.5,"ySR":449.15000000000003,"xT1":424.9,"yT1":0,"xT2":1058.1,"yT2":0,"toosoon":0,"cond_shown":"randomdotsizeEA","ratio_trial":500,"smaller_num":"1","larger_num":"2","correct_side":2,"subjID":"catalinagomez23","gender":"1","age":"11","school":"cafam"},{"start_time":1551901428391,"click_time":1551901429403,"finger_time":1551901428803,"fix_duration":1326.999852589556,"trial":36,"RT":412,"MT":600,"sideResp":2,"stimulus":"img/900/randomdotsizeEA/L/2_Ratio_900_L_20_R_18.png","xmouse":[764,764,764,764,764,764,764,764,764,764,764,764,764,764,764,764,769,773,786,806,938,978,997,1012,1035,1037,1041,1044,1046,1049,1061,1066,1072,1075,1075,1075,1075,1075,1075,1075,1075,1075,1075,1074,1074,1074,1074,1074,1074,1074,1077],"ymouse":[507,507,507,507,507,507,507,507,507,507,507,507,507,507,507,507,507,507,507,507,496,481,465,450,419,410,400,390,384,375,343,324,306,288,272,239,220,200,184,158,130,123,119,117,117,117,115,114,112,107,86],"timestamp_mouse":[13,40,53,72,92,113,132,153,172,191,211,232,252,272,292,312,332,353,372,392,412,432,452,472,493,512,532,552,572,592,611,632,652,673,692,712,732,752,772,792,812,832,852,871,893,912,932,952,972,992,1012],"xSR":741.5,"ySR":449.15000000000003,"xT1":424.9,"yT1":0,"xT2":1058.1,"yT2":0,"toosoon":0,"cond_shown":"randomdotsizeEA","ratio_trial":900,"smaller_num":"18","larger_num":"20","correct_side":1,"subjID":"catalinagomez23","gender":"1","age":"11","school":"cafam"},{"start_time":1551901435289,"click_time":1551901436501,"finger_time":1551901435983,"fix_duration":326.2091503794875,"trial":37,"RT":694,"MT":518,"sideResp":2,"stimulus":"img/500/equaldotsize/R/1_Ratio_500_L_9_R_18.png","xmouse":[826,826,826,826,826,826,826,826,826,826,823,821,820,820,820,820,820,820,820,820,820,820,820,820,820,820,820,820,820,820,820,820,820,820,885,996,1115,1207,1254,1272,1272,1272,1272,1272,1272,1272,1272,1272,1272,1272,1272,1189,1179,1178,1178,1178,1178,1178,1178,1173,1135],"ymouse":[509,509,509,509,509,509,509,509,509,509,509,509,509,509,509,509,509,509,509,509,509,509,509,509,509,509,509,509,509,509,509,509,509,509,455,353,238,135,60,2,2,2,2,2,2,2,2,2,2,2,2,3,10,11,11,11,11,11,11,13,31],"timestamp_mouse":[13,38,53,74,93,112,133,153,173,193,213,233,253,272,293,313,333,354,373,394,413,432,453,473,493,513,532,553,572,593,612,634,653,673,694,713,733,754,774,794,813,833,853,873,893,912,933,953,973,993,1013,1033,1052,1073,1094,1112,1134,1153,1173,1193,1212],"xSR":741.5,"ySR":449.15000000000003,"xT1":424.9,"yT1":0,"xT2":1058.1,"yT2":0,"toosoon":0,"cond_shown":"equaldotsize","ratio_trial":500,"smaller_num":"9","larger_num":"18","correct_side":2,"subjID":"catalinagomez23","gender":"1","age":"11","school":"cafam"},{"start_time":1551901446876,"click_time":1551901448562,"finger_time":1551901447723,"fix_duration":892.0143604964394,"trial":38,"RT":847,"MT":839,"sideResp":2,"stimulus":"img/750/randomdotsizeEA/L/8_Ratio_750_L_4_R_3.png","xmouse":[783,783,783,783,783,783,783,783,783,783,783,783,783,783,783,783,783,783,783,783,783,783,783,783,783,783,783,783,783,783,783,783,782,782,781,781,781,781,781,782,785,787,789,794,798,806,828,831,835,838,841,860,872,884,892,905,908,910,912,914,918,918,918,918,918,918,926,937,943,949,974,990,1001,1004,1005,1006,1006,1008,1010,1016,1028,1050,1056,1058,1060],"ymouse":[508,508,508,508,508,508,508,508,508,508,508,508,508,508,508,508,508,508,508,508,508,508,508,508,508,508,508,508,508,508,508,508,507,502,494,489,476,472,469,465,458,453,448,438,429,417,386,378,371,367,362,340,325,314,304,285,280,273,270,266,256,254,254,254,253,246,208,186,176,169,144,131,122,119,117,116,115,113,111,104,97,86,82,81,80],"timestamp_mouse":[13,32,47,66,86,106,126,147,166,185,205,226,246,266,286,307,325,346,366,386,406,426,446,465,486,506,525,546,566,586,607,626,647,666,686,706,726,746,766,786,807,826,847,866,886,907,926,946,967,986,1005,1026,1046,1066,1086,1107,1125,1145,1166,1185,1207,1226,1246,1266,1286,1306,1326,1346,1367,1387,1407,1426,1447,1466,1486,1507,1525,1546,1566,1586,1606,1626,1647,1666,1686],"xSR":741.5,"ySR":449.15000000000003,"xT1":424.9,"yT1":0,"xT2":1058.1,"yT2":0,"toosoon":0,"cond_shown":"randomdotsizeEA","ratio_trial":750,"smaller_num":"3","larger_num":"4","correct_side":1,"subjID":"catalinagomez23","gender":"1","age":"11","school":"cafam"},{"start_time":1551901453104,"click_time":1551901454162,"finger_time":1551901453702,"fix_duration":381.6693540784488,"trial":39,"RT":598,"MT":460,"sideResp":2,"stimulus":"img/900/equaldotsize/R/5_Ratio_900_L_9_R_10.png","xmouse":[802,802,802,802,802,802,802,802,802,802,802,802,802,802,802,802,802,802,802,802,802,802,802,802,802,802,806,815,828,872,898,927,954,1013,1025,1032,1035,1035,1036,1036,1036,1036,1036,1036,1036,1037,1039,1039,1043,1052,1054,1058,1061],"ymouse":[500,500,500,500,500,500,500,500,500,500,500,500,500,500,500,500,500,500,500,500,500,500,500,500,500,500,491,473,453,375,327,277,229,124,96,77,71,68,66,66,66,66,66,66,64,60,58,58,55,48,47,46,43],"timestamp_mouse":[27,37,58,78,98,118,138,158,178,197,218,237,258,278,298,318,337,358,379,398,419,438,459,478,498,517,538,558,578,598,618,639,658,679,698,718,738,758,779,799,818,838,858,878,897,917,938,958,978,998,1018,1039,1058],"xSR":741.5,"ySR":449.15000000000003,"xT1":424.9,"yT1":0,"xT2":1058.1,"yT2":0,"toosoon":0,"cond_shown":"equaldotsize","ratio_trial":900,"smaller_num":"9","larger_num":"10","correct_side":2,"subjID":"catalinagomez23","gender":"1","age":"11","school":"cafam"},{"start_time":1551901455466,"click_time":1551901456283,"finger_time":1551901455922,"fix_duration":257.6245728325687,"trial":40,"RT":456,"MT":361,"sideResp":2,"stimulus":"img/900/randomdotsizeEA/L/8_Ratio_900_L_20_R_18.png","xmouse":[778,778,778,779,780,784,786,789,791,792,792,792,792,792,792,792,792,792,792,793,796,813,826,838,851,894,922,950,975,991,999,999,1000,1001,1001,1005,1009,1015,1030,1047,1085],"ymouse":[537,537,537,535,535,531,527,523,519,515,513,513,513,513,513,513,513,513,512,508,495,462,445,428,410,347,301,262,226,199,177,171,166,161,154,130,119,107,94,83,62],"timestamp_mouse":[31,37,56,76,95,117,136,156,176,196,216,236,255,275,296,317,336,357,375,397,415,436,456,476,495,516,536,556,577,597,617,635,656,677,697,717,736,756,777,796,817],"xSR":741.5,"ySR":449.15000000000003,"xT1":424.9,"yT1":0,"xT2":1058.1,"yT2":0,"toosoon":0,"cond_shown":"randomdotsizeEA","ratio_trial":900,"smaller_num":"18","larger_num":"20","correct_side":1,"subjID":"catalinagomez23","gender":"1","age":"11","school":"cafam"},{"start_time":1551901458136,"click_time":1551901459362,"finger_time":1551901459102,"fix_duration":1092.2113922677315,"trial":41,"RT":966,"MT":260,"sideResp":1,"stimulus":"img/900/equaldotanddens/L/2_Ratio_900_L_20_R_18.png","xmouse":[770,770,770,770,770,770,770,770,770,770,770,770,770,770,770,770,770,770,770,770,770,770,770,770,770,770,770,770,770,770,770,770,770,770,770,770,770,770,770,770,770,770,770,770,770,770,769,763,701,659,613,577,544,492,481,475,472,466,463,460,456,453],"ymouse":[525,525,525,525,525,525,525,525,525,525,525,525,525,525,525,525,525,525,525,525,525,525,525,525,525,525,525,525,525,525,525,525,525,525,525,525,525,525,525,525,525,525,525,525,525,525,525,522,447,394,328,279,230,157,145,136,132,122,115,110,102,92],"timestamp_mouse":[10,28,47,66,85,106,126,147,166,185,206,225,246,267,285,306,326,346,366,386,406,426,446,465,487,506,527,546,566,586,606,626,645,667,685,705,726,747,766,786,806,826,847,866,886,906,926,946,966,985,1007,1026,1046,1066,1086,1107,1126,1146,1165,1186,1207,1226],"xSR":741.5,"ySR":449.15000000000003,"xT1":424.9,"yT1":0,"xT2":1058.1,"yT2":0,"toosoon":0,"cond_shown":"equaldotanddens","ratio_trial":900,"smaller_num":"18","larger_num":"20","correct_side":1,"subjID":"catalinagomez23","gender":"1","age":"11","school":"cafam"},{"start_time":1551901461383,"click_time":1551901463222,"finger_time":1551901462122,"fix_duration":618.2752792342181,"trial":42,"RT":739,"MT":1100,"sideResp":1,"stimulus":"img/250/randomdotsizeEA/L/14_Ratio_250_L_12_R_3.png","xmouse":[835,835,835,831,823,811,784,774,766,766,766,766,766,766,766,766,766,766,766,766,766,766,766,766,766,766,766,766,766,766,766,766,766,766,766,765,755,739,718,653,556,515,470,435,403,381,360,357,355,355,351,350,350,350,350,350,350,350,350,350,350,350,350,350,350,350,350,350,350,350,350,350,350,350,350,350,350,350,350,350,350,350,350,350,350,350,353,358,365,370,397,413,428],"ymouse":[495,495,495,495,495,495,494,492,491,491,491,491,491,491,491,491,491,491,491,491,491,491,491,491,491,491,491,491,491,491,491,491,491,491,491,491,481,462,438,369,274,236,199,168,140,123,105,102,101,101,94,92,92,92,92,92,92,92,92,92,92,92,92,92,92,92,92,92,92,92,92,92,92,92,92,92,92,92,92,92,92,92,92,92,92,91,85,80,73,71,57,54,51],"timestamp_mouse":[1,30,38,59,79,99,119,139,159,179,199,218,239,259,279,299,319,339,359,379,400,419,439,459,478,499,520,538,559,578,600,619,639,659,679,699,719,739,759,778,800,818,839,859,879,899,919,939,959,979,1000,1019,1039,1058,1080,1100,1119,1140,1158,1179,1199,1219,1240,1259,1278,1298,1319,1339,1359,1379,1400,1418,1439,1458,1479,1500,1519,1539,1559,1580,1600,1619,1639,1659,1679,1699,1719,1739,1759,1778,1800,1819,1839],"xSR":741.5,"ySR":449.15000000000003,"xT1":424.9,"yT1":0,"xT2":1058.1,"yT2":0,"toosoon":0,"cond_shown":"randomdotsizeEA","ratio_trial":250,"smaller_num":"3","larger_num":"12","correct_side":1,"subjID":"catalinagomez23","gender":"1","age":"11","school":"cafam"},{"start_time":1551901465474,"click_time":1551901466183,"finger_time":1551901466142,"fix_duration":611.5883110417795,"trial":43,"RT":668,"MT":41,"sideResp":1,"stimulus":"img/250/equaldotanddens/L/2_Ratio_250_L_16_R_4.png","xmouse":[783,783,783,783,783,783,783,783,783,783,783,783,783,783,783,783,783,783,783,783,783,783,783,783,783,783,783,783,783,783,783,783,769,725,652,464],"ymouse":[477,477,477,477,477,477,477,477,477,477,477,477,477,477,477,477,477,477,477,477,477,477,477,477,477,477,477,477,477,477,477,475,458,400,307,52],"timestamp_mouse":[12,33,48,68,87,108,129,148,167,188,209,228,248,269,288,307,328,348,369,388,409,428,447,468,487,508,529,549,567,588,608,628,648,668,689,709],"xSR":741.5,"ySR":449.15000000000003,"xT1":424.9,"yT1":0,"xT2":1058.1,"yT2":0,"toosoon":0,"cond_shown":"equaldotanddens","ratio_trial":250,"smaller_num":"4","larger_num":"16","correct_side":1,"subjID":"catalinagomez23","gender":"1","age":"11","school":"cafam"},{"start_time":1551901474530,"click_time":1551901476142,"finger_time":1551901475201,"fix_duration":1427.6827063476271,"trial":44,"RT":671,"MT":941,"sideResp":2,"stimulus":"img/750/equaldotanddens/R/3_Ratio_750_L_15_R_20.png","xmouse":[812,812,812,812,812,812,812,812,812,812,812,812,812,812,812,812,812,812,812,812,812,812,812,812,812,812,812,812,812,812,812,813,813,838,869,905,926,940,942,943,947,952,962,986,994,1006,1020,1035,1064,1071,1078,1082,1087,1087,1087,1087,1087,1087,1087,1087,1087,1088,1088,1089,1093,1096,1096,1096,1096,1096,1096,1096,1096,1096,1096,1096,1096,1096,1096,1096,1098],"ymouse":[472,472,472,472,472,472,472,472,472,472,472,472,472,472,472,472,472,472,472,472,472,472,472,472,472,472,472,472,472,472,472,471,468,373,315,272,256,252,252,251,249,243,228,189,184,180,176,171,159,154,151,150,147,147,147,147,147,147,147,146,146,145,142,130,117,105,101,100,100,100,100,100,100,100,100,100,100,100,100,100,97],"timestamp_mouse":[11,32,52,72,92,112,132,153,172,192,213,232,252,272,292,313,332,352,372,392,413,433,453,472,491,513,531,551,572,592,612,632,652,671,691,712,732,753,772,792,812,831,851,872,892,911,933,951,972,992,1011,1031,1052,1071,1092,1113,1132,1153,1172,1192,1212,1232,1252,1272,1292,1312,1332,1352,1372,1392,1412,1432,1453,1472,1493,1512,1532,1552,1573,1592,1612],"xSR":741.5,"ySR":449.15000000000003,"xT1":424.9,"yT1":0,"xT2":1058.1,"yT2":0,"toosoon":0,"cond_shown":"equaldotanddens","ratio_trial":750,"smaller_num":"15","larger_num":"20","correct_side":2,"subjID":"catalinagomez23","gender":"1","age":"11","school":"cafam"},{"start_time":1551901478498,"click_time":1551901479442,"finger_time":1551901479063,"fix_duration":1013.1674590455939,"trial":45,"RT":565,"MT":379,"sideResp":2,"stimulus":"img/250/equaldotsize/R/4_Ratio_250_L_3_R_12.png","xmouse":[786,786,786,786,786,786,786,786,786,786,786,786,786,786,786,786,786,786,786,786,786,786,786,786,786,786,786,786,790,821,841,874,929,992,1064,1070,1071,1073,1073,1073,1073,1073,1073,1073,1073,1076,1078,1080],"ymouse":[459,459,459,459,459,459,459,459,459,459,459,459,459,459,459,459,459,459,459,459,459,459,459,459,459,459,459,452,440,374,332,290,239,192,139,133,131,128,128,128,128,128,128,127,122,111,103,97],"timestamp_mouse":[8,24,44,64,85,104,123,144,164,183,204,224,244,264,284,304,324,343,364,384,405,423,444,464,484,504,523,544,565,585,603,624,645,664,685,703,724,744,764,783,804,824,844,864,884,903,924,944],"xSR":741.5,"ySR":449.15000000000003,"xT1":424.9,"yT1":0,"xT2":1058.1,"yT2":0,"toosoon":0,"cond_shown":"equaldotsize","ratio_trial":250,"smaller_num":"3","larger_num":"12","correct_side":2,"subjID":"catalinagomez23","gender":"1","age":"11","school":"cafam"},{"start_time":1551901482175,"click_time":1551901483522,"finger_time":1551901482702,"fix_duration":1452.4449095878554,"trial":46,"RT":527,"MT":820,"sideResp":2,"stimulus":"img/500/equaldotanddens/R/14_Ratio_500_L_5_R_10.png","xmouse":[791,791,791,791,791,791,791,791,791,791,791,791,791,791,791,791,791,791,791,791,791,791,792,794,796,804,838,869,885,900,910,914,923,931,935,939,949,954,956,959,962,978,983,990,994,1002,1006,1009,1013,1019,1025,1029,1033,1037,1043,1048,1054,1058,1063,1067,1077,1077,1077,1077,1077,1078,1085,1090],"ymouse":[468,468,468,468,468,468,468,468,468,468,468,468,468,468,468,468,468,468,468,468,468,468,468,469,469,461,379,333,315,297,279,270,257,246,241,235,224,220,217,212,208,186,180,171,167,161,158,155,150,143,137,135,132,130,128,126,123,121,117,114,107,107,107,107,107,105,101,99],"timestamp_mouse":[8,27,47,67,88,107,126,147,167,187,207,228,247,267,287,307,327,347,367,387,407,427,446,467,487,507,527,546,568,588,608,627,647,667,688,708,727,746,767,787,808,827,847,867,888,908,927,947,967,987,1008,1027,1047,1066,1086,1107,1127,1147,1167,1187,1208,1226,1248,1266,1288,1307,1327,1347],"xSR":741.5,"ySR":449.15000000000003,"xT1":424.9,"yT1":0,"xT2":1058.1,"yT2":0,"toosoon":0,"cond_shown":"equaldotanddens","ratio_trial":500,"smaller_num":"5","larger_num":"10","correct_side":2,"subjID":"catalinagomez23","gender":"1","age":"11","school":"cafam"},{"start_time":1551901484771,"click_time":1551901487402,"finger_time":1551901485362,"fix_duration":366.6162008434604,"trial":47,"RT":591,"MT":2040,"sideResp":2,"stimulus":"img/900/randomdotsizeEA/L/8_Ratio_900_L_20_R_18.png","xmouse":[803,803,803,803,803,803,803,803,803,803,803,803,803,803,803,803,803,803,803,803,803,803,803,803,803,803,803,805,811,820,833,864,875,883,892,900,907,911,912,913,919,922,925,928,933,939,958,972,988,1005,1020,1052,1058,1070,1081,1093,1112,1117,1119,1119,1120,1120,1120,1120,1120,1120,1122,1126,1131,1142,1155,1159,1164,1168,1170,1172,1174,1174,1174,1174,1172,1132,1106,1060,1003,944,866,850,846,845,845,844,844,844,844,844,844,844,844,844,844,844,844,843,836,813,692,649,635,634,630,630,650,693,693,693,693,693,693,693,693,693,693,693,693,693,693,789,859,939,1014,1137],"ymouse":[482,482,482,482,482,482,482,482,482,482,482,482,482,482,482,482,482,482,482,482,482,482,482,482,482,482,482,471,451,429,404,363,351,340,328,318,308,300,297,294,282,278,274,269,265,259,246,237,231,226,222,213,211,209,209,206,203,202,202,202,202,202,202,202,202,202,201,197,194,191,191,191,191,192,193,193,194,194,194,194,194,188,184,178,172,165,157,154,154,154,153,152,152,152,152,152,152,152,152,152,152,152,152,152,153,163,232,260,264,264,318,384,485,626,626,626,626,626,626,626,626,626,626,626,626,626,626,658,532,396,265,49],"timestamp_mouse":[10,31,51,71,90,112,131,151,170,191,211,232,250,271,291,311,331,350,370,391,412,430,451,470,491,512,530,551,572,591,611,631,651,672,691,711,731,751,771,791,812,831,851,871,891,911,931,950,971,991,1011,1030,1051,1071,1091,1111,1131,1151,1171,1191,1210,1231,1251,1271,1291,1311,1331,1350,1370,1391,1412,1431,1451,1471,1491,1510,1530,1551,1571,1590,1610,1630,1651,1671,1691,1711,1731,1751,1771,1791,1811,1831,1851,1870,1891,1911,1931,1951,1971,1991,2011,2031,2051,2071,2091,2111,2131,2152,2171,2191,2211,2231,2251,2271,2291,2311,2331,2351,2371,2390,2412,2431,2452,2471,2491,2512,2531,2551,2572,2591,2611,2631],"xSR":741.5,"ySR":449.15000000000003,"xT1":424.9,"yT1":0,"xT2":1058.1,"yT2":0,"toosoon":0,"cond_shown":"randomdotsizeEA","ratio_trial":900,"smaller_num":"18","larger_num":"20","correct_side":1,"subjID":"catalinagomez23","gender":"1","age":"11","school":"cafam"},{"start_time":1551901489671,"click_time":1551901491142,"finger_time":1551901490383,"fix_duration":827.9566645461887,"trial":48,"RT":712,"MT":759,"sideResp":1,"stimulus":"img/750/equaldotsize/L/13_Ratio_750_L_8_R_6.png","xmouse":[799,799,799,799,799,799,799,799,799,799,799,799,799,799,799,799,799,799,799,799,799,799,799,799,799,799,799,799,798,797,796,793,793,792,789,786,765,750,733,701,662,549,495,450,412,387,366,366,366,366,364,364,363,363,363,363,367,369,372,376,389,395,396,400,401,402,402,403,404,406,408,410,417,430],"ymouse":[525,525,525,525,525,525,525,525,525,525,525,525,525,525,525,525,525,525,525,525,525,525,518,513,506,493,490,487,484,479,473,465,463,460,454,444,406,394,386,367,347,299,276,258,243,235,228,228,228,227,211,199,184,164,144,130,112,107,102,95,82,80,80,78,78,78,78,77,76,76,74,73,68,61],"timestamp_mouse":[10,32,59,71,91,110,131,150,171,191,211,232,251,271,290,312,331,351,370,391,411,431,451,471,491,512,530,551,571,591,611,632,651,671,691,712,731,751,771,791,810,831,851,871,891,911,932,951,970,991,1012,1031,1051,1071,1091,1112,1131,1150,1170,1192,1212,1230,1250,1271,1291,1311,1330,1351,1371,1392,1412,1431,1451,1471],"xSR":741.5,"ySR":449.15000000000003,"xT1":424.9,"yT1":0,"xT2":1058.1,"yT2":0,"toosoon":0,"cond_shown":"equaldotsize","ratio_trial":750,"smaller_num":"6","larger_num":"8","correct_side":1,"subjID":"catalinagomez23","gender":"1","age":"11","school":"cafam"},{"start_time":1551901493515,"click_time":1551901494282,"finger_time":1551901493942,"fix_duration":1152.713203384835,"trial":49,"RT":427,"MT":340,"sideResp":2,"stimulus":"img/750/equaldotanddens/R/15_Ratio_750_L_9_R_12.png","xmouse":[778,778,778,778,778,778,778,778,778,778,778,778,778,778,778,778,778,778,779,781,788,801,821,879,894,910,925,937,947,962,974,987,998,1007,1022,1032,1044,1054,1066],"ymouse":[501,501,501,501,501,501,501,501,501,501,501,501,501,501,501,501,501,501,501,490,472,447,413,335,312,291,269,251,237,203,181,160,145,133,117,110,103,99,92],"timestamp_mouse":[8,29,45,66,86,107,126,146,166,186,207,226,246,266,286,306,327,346,366,386,407,427,446,467,486,506,526,547,566,586,607,627,646,667,686,706,727,746,767],"xSR":741.5,"ySR":449.15000000000003,"xT1":424.9,"yT1":0,"xT2":1058.1,"yT2":0,"toosoon":0,"cond_shown":"equaldotanddens","ratio_trial":750,"smaller_num":"9","larger_num":"12","correct_side":2,"subjID":"catalinagomez23","gender":"1","age":"11","school":"cafam"},{"start_time":1551901497538,"click_time":1551901498922,"finger_time":1551901498001,"fix_duration":854.5239452442279,"trial":50,"RT":463,"MT":921,"sideResp":1,"stimulus":"img/250/randomdotsizeEA/L/1_Ratio_250_L_8_R_2.png","xmouse":[803,803,803,803,803,803,803,803,803,803,803,803,803,803,803,803,803,803,803,803,804,798,794,760,746,731,722,709,701,689,673,650,640,608,598,587,575,543,526,503,481,459,414,403,395,388,380,378,378,378,378,378,378,378,378,378,377,377,379,390,403,410,410,412,412,414,418,422,422,425],"ymouse":[502,502,502,502,502,502,502,502,502,502,502,502,502,502,502,502,502,502,502,502,501,484,473,407,388,372,363,348,338,328,316,303,297,279,272,263,251,221,206,192,182,173,157,151,148,144,140,138,138,138,138,138,138,138,138,138,137,137,133,125,117,113,113,111,111,107,102,98,97,95],"timestamp_mouse":[8,30,44,63,85,103,123,143,163,183,203,223,243,263,283,303,324,343,363,383,403,423,443,463,483,503,523,544,563,584,603,623,643,664,683,703,723,745,762,783,804,823,844,862,883,904,923,945,963,983,1003,1023,1044,1064,1083,1103,1123,1143,1163,1183,1204,1223,1243,1264,1283,1303,1323,1345,1363,1383],"xSR":741.5,"ySR":449.15000000000003,"xT1":424.9,"yT1":0,"xT2":1058.1,"yT2":0,"toosoon":0,"cond_shown":"randomdotsizeEA","ratio_trial":250,"smaller_num":"2","larger_num":"8","correct_side":1,"subjID":"catalinagomez23","gender":"1","age":"11","school":"cafam"},{"start_time":1551901501153,"click_time":1551901503101,"finger_time":1551901501782,"fix_duration":250,"trial":51,"RT":629,"MT":1319,"sideResp":2,"stimulus":"img/750/randomdotsizeEA/R/15_Ratio_750_L_9_R_12.png","xmouse":[782,782,782,782,782,782,782,782,782,782,782,782,782,782,782,782,782,782,782,782,782,782,781,781,781,781,781,781,781,781,782,789,796,796,798,804,814,831,839,849,856,864,884,896,910,926,949,999,1044,1080,1130,1197,1279,1298,1301,1301,1301,1302,1302,1299,1289,1277,1236,1215,1195,1172,1172,1172,1172,1172,1172,1172,1172,1172,1172,1172,1172,719,734,772,833,850,888,888,888,888,888,888,888,888,888,888,888,888,888,888,981,1069],"ymouse":[477,477,477,477,477,477,477,477,477,477,477,477,477,477,477,477,477,477,477,477,477,477,482,486,487,487,487,487,486,479,454,419,403,403,398,389,375,357,353,351,350,348,336,333,331,326,319,314,314,314,314,324,335,339,340,340,340,341,347,370,398,422,465,501,559,686,686,686,686,686,686,686,686,686,686,686,686,601,474,345,173,129,3,3,3,3,3,3,3,3,3,3,3,3,3,3,2,61],"timestamp_mouse":[11,33,48,68,88,108,129,149,168,188,208,229,248,268,288,308,329,348,369,388,408,429,448,468,488,508,528,548,568,588,608,629,648,668,688,709,728,748,769,788,807,829,847,868,888,908,928,948,968,988,1008,1028,1048,1068,1088,1108,1128,1148,1169,1188,1208,1229,1248,1268,1288,1308,1328,1348,1368,1388,1408,1428,1448,1469,1488,1508,1528,1548,1569,1588,1608,1628,1648,1668,1689,1708,1728,1748,1768,1788,1808,1828,1848,1868,1888,1908,1928,1948],"xSR":741.5,"ySR":449.15000000000003,"xT1":424.9,"yT1":0,"xT2":1058.1,"yT2":0,"toosoon":0,"cond_shown":"randomdotsizeEA","ratio_trial":750,"smaller_num":"9","larger_num":"12","correct_side":2,"subjID":"catalinagomez23","gender":"1","age":"11","school":"cafam"},{"start_time":1551901508321,"click_time":1551901509121,"finger_time":1551901508861,"fix_duration":1117.9821964106436,"trial":52,"RT":540,"MT":260,"sideResp":2,"stimulus":"img/750/equaldotanddens/R/4_Ratio_750_L_15_R_20.png","xmouse":[766,766,766,766,766,766,766,766,766,766,766,766,766,766,766,766,766,766,766,766,766,766,766,766,774,783,794,807,819,847,863,878,892,932,949,964,980,1000,1050,1071,1088],"ymouse":[496,496,496,496,496,496,496,496,496,496,496,496,496,496,496,496,496,496,496,496,496,496,496,496,486,473,458,440,422,385,365,344,325,268,245,224,202,179,129,114,99],"timestamp_mouse":[8,34,41,61,80,100,121,140,161,180,200,220,240,261,280,301,320,341,360,380,400,420,440,460,480,500,520,540,560,580,600,621,640,661,680,700,721,741,761,780,800],"xSR":741.5,"ySR":449.15000000000003,"xT1":424.9,"yT1":0,"xT2":1058.1,"yT2":0,"toosoon":0,"cond_shown":"equaldotanddens","ratio_trial":750,"smaller_num":"15","larger_num":"20","correct_side":2,"subjID":"catalinagomez23","gender":"1","age":"11","school":"cafam"},{"start_time":1551901511284,"click_time":1551901512142,"finger_time":1551901511901,"fix_duration":1100.1702871531152,"trial":53,"RT":617,"MT":241,"sideResp":2,"stimulus":"img/250/equaldotanddens/R/13_Ratio_250_L_2_R_8.png","xmouse":[788,788,788,788,788,788,788,788,788,788,788,788,788,788,788,788,788,788,788,788,788,788,788,788,788,788,788,788,791,803,837,862,889,915,934,991,1012,1029,1041,1050,1062,1066,1070],"ymouse":[480,480,480,480,480,480,480,480,480,480,480,480,480,480,480,480,480,480,480,480,480,480,480,480,480,480,480,477,474,460,438,418,397,375,355,270,226,194,173,153,124,111,97],"timestamp_mouse":[26,37,57,77,97,118,137,157,177,197,218,237,257,277,297,317,337,357,378,397,417,437,458,477,497,517,537,557,578,597,617,638,657,677,698,717,737,757,777,797,817,838,858],"xSR":741.5,"ySR":449.15000000000003,"xT1":424.9,"yT1":0,"xT2":1058.1,"yT2":0,"toosoon":0,"cond_shown":"equaldotanddens","ratio_trial":250,"smaller_num":"2","larger_num":"8","correct_side":2,"subjID":"catalinagomez23","gender":"1","age":"11","school":"cafam"},{"start_time":1551901514534,"click_time":1551901515762,"finger_time":1551901515142,"fix_duration":1371.5255738549681,"trial":54,"RT":608,"MT":620,"sideResp":2,"stimulus":"img/500/equaldotsize/R/15_Ratio_500_L_1_R_2.png","xmouse":[805,805,805,805,805,805,805,805,805,805,805,805,805,805,805,805,805,805,805,805,805,805,805,805,805,805,805,807,816,830,850,871,884,927,947,968,985,1013,1024,1035,1050,1073,1098,1180,1204,1218,1223,1223,1223,1223,1223,1223,1223,1223,1223,1223,1223,1223,1223,1174,1168,1158],"ymouse":[510,510,510,510,510,510,510,510,510,510,510,510,510,510,510,510,510,510,510,510,510,510,510,510,510,510,510,510,505,497,486,477,471,443,425,404,385,348,329,309,283,248,214,89,47,17,7,7,7,7,7,7,7,7,7,7,7,7,7,2,10,25],"timestamp_mouse":[10,28,48,67,88,107,127,147,167,187,207,226,248,267,288,307,327,347,369,387,407,427,447,467,487,507,527,548,567,587,608,628,647,667,687,707,727,749,767,787,808,827,847,867,887,907,927,947,968,988,1007,1027,1049,1068,1088,1107,1127,1147,1167,1188,1207,1227],"xSR":741.5,"ySR":449.15000000000003,"xT1":424.9,"yT1":0,"xT2":1058.1,"yT2":0,"toosoon":0,"cond_shown":"equaldotsize","ratio_trial":500,"smaller_num":"1","larger_num":"2","correct_side":2,"subjID":"catalinagomez23","gender":"1","age":"11","school":"cafam"},{"start_time":1551901517485,"click_time":1551901518601,"finger_time":1551901518001,"fix_duration":402.6494771802561,"trial":55,"RT":516,"MT":600,"sideResp":2,"stimulus":"img/750/equaldotanddens/R/4_Ratio_750_L_15_R_20.png","xmouse":[774,774,774,774,774,774,774,774,774,774,774,774,774,774,774,774,774,774,774,774,774,774,774,777,781,806,822,839,854,882,894,907,924,944,981,987,989,991,992,994,996,1000,1007,1014,1024,1028,1034,1039,1043,1051,1052,1052,1052,1052,1052,1063],"ymouse":[494,494,494,494,494,494,494,494,494,494,494,494,494,494,494,494,494,494,494,494,494,494,494,492,486,448,425,405,385,347,322,291,248,202,112,90,78,70,68,65,62,60,55,52,48,48,48,48,48,49,49,49,49,49,49,50],"timestamp_mouse":[27,36,56,76,97,116,136,157,176,196,216,236,256,276,296,316,336,356,377,397,416,436,456,476,497,516,536,557,576,597,616,636,657,676,697,716,736,757,776,798,816,837,857,876,897,916,936,956,976,998,1016,1036,1056,1076,1096,1116],"xSR":741.5,"ySR":449.15000000000003,"xT1":424.9,"yT1":0,"xT2":1058.1,"yT2":0,"toosoon":0,"cond_shown":"equaldotanddens","ratio_trial":750,"smaller_num":"15","larger_num":"20","correct_side":2,"subjID":"catalinagomez23","gender":"1","age":"11","school":"cafam"},{"start_time":1551901520237,"click_time":1551901521501,"finger_time":1551901520901,"fix_duration":314.2303715277794,"trial":56,"RT":664,"MT":600,"sideResp":1,"stimulus":"img/500/equaldotanddens/L/11_Ratio_500_L_12_R_6.png","xmouse":[785,785,785,785,785,785,785,785,785,785,785,785,785,785,785,785,785,785,785,785,785,785,785,785,788,792,796,800,807,807,807,807,807,808,807,798,781,745,673,624,581,561,561,561,561,561,561,561,561,561,561,561,561,407,407,412,413,413,413,413,413,413,418,425],"ymouse":[503,503,503,503,503,503,503,503,503,503,503,503,503,503,503,503,503,503,503,503,503,503,503,503,500,496,490,486,476,476,476,476,467,443,422,398,355,273,138,72,21,4,4,4,4,4,4,4,4,4,4,4,4,19,37,46,47,47,47,47,47,48,48,48],"timestamp_mouse":[10,30,44,64,84,104,124,144,164,184,204,225,244,264,284,305,324,344,364,384,405,425,444,464,484,505,524,544,564,584,604,624,644,664,685,704,724,744,764,784,805,824,845,864,884,904,925,945,964,984,1005,1024,1044,1064,1084,1105,1124,1144,1164,1184,1204,1224,1246,1264],"xSR":741.5,"ySR":449.15000000000003,"xT1":424.9,"yT1":0,"xT2":1058.1,"yT2":0,"toosoon":0,"cond_shown":"equaldotanddens","ratio_trial":500,"smaller_num":"6","larger_num":"12","correct_side":1,"subjID":"catalinagomez23","gender":"1","age":"11","school":"cafam"},{"start_time":1551901523132,"click_time":1551901524101,"finger_time":1551901523621,"fix_duration":809.0078796088393,"trial":57,"RT":489,"MT":480,"sideResp":2,"stimulus":"img/900/equaldotsize/R/14_Ratio_900_L_18_R_20.png","xmouse":[801,801,801,801,801,801,801,801,801,801,801,801,801,801,801,801,801,801,801,801,801,801,800,822,857,905,962,1090,1148,1196,1234,1250,1275,1290,1293,1295,1297,1298,1300,1300,1300,1299,1290,1274,1264,1247,1225,1199,1134],"ymouse":[502,502,502,502,502,502,502,502,502,502,502,502,502,502,502,502,502,502,502,502,502,502,501,484,464,437,410,335,303,274,251,237,216,205,202,200,198,192,183,180,176,171,158,139,130,119,104,88,44],"timestamp_mouse":[11,29,49,69,89,110,129,150,169,189,210,230,249,269,289,310,329,350,370,389,409,429,449,470,489,509,529,551,569,589,610,629,649,669,689,710,729,749,769,789,809,829,850,869,889,909,930,949,969],"xSR":741.5,"ySR":449.15000000000003,"xT1":424.9,"yT1":0,"xT2":1058.1,"yT2":0,"toosoon":0,"cond_shown":"equaldotsize","ratio_trial":900,"smaller_num":"18","larger_num":"20","correct_side":2,"subjID":"catalinagomez23","gender":"1","age":"11","school":"cafam"},{"start_time":1551901526449,"click_time":1551901527762,"finger_time":1551901527001,"fix_duration":1226.4532029280333,"trial":58,"RT":552,"MT":761,"sideResp":1,"stimulus":"img/900/randomdotsizeEA/L/1_Ratio_900_L_10_R_9.png","xmouse":[807,807,807,807,807,807,807,807,807,807,807,807,807,807,807,807,807,807,807,807,807,807,806,805,803,802,798,790,783,776,762,711,685,654,625,589,561,555,553,553,553,553,553,553,552,550,540,537,537,536,536,536,536,534,532,531,529,529,529,529,529,529,529,527,525,521],"ymouse":[513,513,513,513,513,513,513,513,513,513,513,513,513,513,513,513,513,513,513,513,513,506,497,487,480,471,457,427,406,382,345,264,221,184,149,110,85,82,81,81,81,81,81,81,81,81,79,78,78,78,78,78,78,77,77,77,77,77,77,77,77,77,77,77,78,79],"timestamp_mouse":[12,32,52,72,92,112,132,152,172,192,213,232,253,272,292,312,332,354,372,392,412,433,452,472,492,512,532,552,572,593,613,634,652,672,692,713,734,752,772,792,812,833,852,873,892,912,933,952,971,992,1012,1034,1052,1072,1092,1113,1133,1152,1172,1193,1213,1233,1252,1272,1292,1312],"xSR":741.5,"ySR":449.15000000000003,"xT1":424.9,"yT1":0,"xT2":1058.1,"yT2":0,"toosoon":0,"cond_shown":"randomdotsizeEA","ratio_trial":900,"smaller_num":"9","larger_num":"10","correct_side":1,"subjID":"catalinagomez23","gender":"1","age":"11","school":"cafam"},{"start_time":1551901530976,"click_time":1551901534982,"finger_time":1551901531401,"fix_duration":614.603931073965,"trial":59,"RT":425,"MT":3581,"sideResp":2,"stimulus":"img/250/equaldotsize/R/13_Ratio_250_L_2_R_8.png","xmouse":[829,829,829,829,829,829,829,829,829,829,829,829,829,829,829,829,829,829,829,829,835,842,853,864,874,899,914,930,946,960,992,999,1010,1022,1031,1044,1047,1053,1058,1060,1065,1079,1081,1085,1088,1091,1099,1100,1100,1100,1100,1100,1100,1100,1100,1100,1101,1097,1092,1089,1086,1083,1083,1083,1083,1083,1083,1079,1071,1037,1012,1005,1003,1013,1030,1059,1071,1084,1101,1129,1162,1170,1180,1191,1205,1209,1212,1208,1200,1183,1165,1043,950,861,776,718,718,718,718,718,718,752,807,843,880,927,1032,1064,1083,1098,1105,1105,1105,1105,1106,1106,1107,1097,1080,1057,1028,995,994,994,995,998,1005,1009,1016,1022,1044,1060,1069,1079,1082,1088,1093,1100,1105,1111,1114,1114,1114,1114,1114,1111,1086,1052,1030,1030,1030,1030,1030,1030,1030,1030,1030,1030,1030,1030,1030,1030,1030,960,964,968,978,984,994,1007,1011,1027,1030,1030,1031,1032,1034,1038,1041,1043,1048,1049,1051,1053,1053,1054,1057,1058,1058,1060,1063,1063,1064,1065,1066,1068,1070,1071,1072,1072,1074],"ymouse":[498,498,498,498,498,498,498,498,498,498,498,498,498,498,498,498,498,498,498,498,492,483,473,460,449,428,413,398,381,368,339,332,318,302,289,271,266,257,247,240,230,214,214,214,214,214,214,214,214,214,214,214,214,214,214,214,216,222,232,242,249,254,254,254,254,254,254,260,275,364,432,461,493,529,556,578,578,574,555,496,419,406,394,383,370,368,365,358,348,334,318,226,156,81,30,2,2,2,2,2,2,10,30,56,86,122,197,224,242,254,260,260,260,260,261,261,258,249,228,202,167,128,127,127,127,129,132,134,137,140,153,161,167,172,174,177,178,182,183,184,184,184,184,184,184,178,131,65,30,30,30,30,30,30,30,30,30,30,30,30,30,30,30,6,12,20,45,58,74,96,102,122,126,126,127,128,129,131,133,134,135,135,135,135,135,135,136,136,136,137,135,135,134,133,130,128,119,114,108,101,90],"timestamp_mouse":[9,35,45,65,85,106,125,145,165,185,205,225,246,265,286,305,326,345,365,386,406,425,445,466,486,506,524,545,566,585,606,625,645,665,686,706,725,745,765,785,805,825,845,865,885,905,925,945,965,986,1006,1025,1045,1065,1085,1106,1125,1146,1166,1185,1206,1225,1245,1265,1285,1305,1325,1345,1366,1385,1406,1425,1445,1465,1485,1506,1525,1545,1566,1585,1606,1624,1645,1665,1685,1705,1725,1745,1765,1786,1806,1825,1846,1865,1885,1906,1925,1945,1965,1985,2005,2025,2045,2065,2085,2106,2125,2145,2166,2185,2206,2225,2245,2265,2285,2306,2325,2345,2366,2385,2405,2425,2445,2466,2485,2505,2525,2545,2565,2585,2606,2625,2645,2665,2686,2706,2725,2745,2766,2785,2805,2825,2845,2866,2886,2905,2925,2945,2965,2985,3006,3025,3045,3065,3085,3105,3127,3145,3165,3184,3206,3225,3245,3265,3285,3305,3325,3346,3365,3385,3405,3425,3445,3465,3485,3506,3525,3545,3565,3585,3605,3625,3646,3665,3685,3705,3725,3746,3766,3786,3806,3825,3845,3866,3886,3905,3925,3945,3966,3985,4006],"xSR":741.5,"ySR":449.15000000000003,"xT1":424.9,"yT1":0,"xT2":1058.1,"yT2":0,"toosoon":0,"cond_shown":"equaldotsize","ratio_trial":250,"smaller_num":"2","larger_num":"8","correct_side":2,"subjID":"catalinagomez23","gender":"1","age":"11","school":"cafam"},{"start_time":1551901537498,"click_time":1551901538662,"finger_time":1551901538301,"fix_duration":495.4142436302007,"trial":60,"RT":803,"MT":361,"sideResp":1,"stimulus":"img/500/randomdotsizeEA/L/13_Ratio_500_L_12_R_6.png","xmouse":[767,767,767,767,767,767,767,767,767,767,767,767,767,767,767,767,767,767,767,767,767,767,767,767,767,767,767,767,767,767,767,767,767,767,767,767,767,767,767,761,734,706,669,607,555,541,532,523,516,508,491,488,484,480,473,455,449,443,439],"ymouse":[480,480,480,480,480,480,480,480,480,480,480,480,480,480,480,480,480,480,480,480,480,480,480,480,480,480,480,480,480,480,480,480,480,480,480,480,480,480,480,472,451,435,414,374,335,320,303,286,271,258,239,232,222,205,185,132,115,102,95],"timestamp_mouse":[10,31,43,63,83,103,124,143,163,183,203,224,243,263,283,305,323,343,364,383,403,424,443,463,483,504,523,543,563,583,603,623,643,663,683,703,724,744,763,783,803,823,844,864,885,903,923,943,963,983,1003,1023,1043,1063,1083,1103,1123,1143,1164],"xSR":741.5,"ySR":449.15000000000003,"xT1":424.9,"yT1":0,"xT2":1058.1,"yT2":0,"toosoon":0,"cond_shown":"randomdotsizeEA","ratio_trial":500,"smaller_num":"6","larger_num":"12","correct_side":1,"subjID":"catalinagomez23","gender":"1","age":"11","school":"cafam"},{"start_time":1551901540542,"click_time":1551901542082,"finger_time":1551901541081,"fix_duration":860.8491531945057,"trial":61,"RT":539,"MT":1001,"sideResp":1,"stimulus":"img/750/equaldotsize/L/6_Ratio_750_L_24_R_18.png","xmouse":[789,789,789,789,789,789,789,789,789,789,789,789,789,789,789,789,789,789,789,789,789,789,789,793,804,814,828,856,866,873,881,890,901,909,918,924,935,942,950,957,962,974,975,975,975,975,975,878,779,657,532,403,194,164,156,156,156,156,155,155,163,173,200,210,225,246,269,308,323,341,357,376,390,398,405,409,426],"ymouse":[494,494,494,494,494,494,494,494,494,494,494,494,494,494,494,494,494,494,494,494,494,494,494,494,480,466,449,406,389,371,354,327,286,263,231,208,179,168,157,149,144,137,137,137,137,137,137,154,162,166,166,153,107,98,96,96,96,96,95,89,77,66,50,49,48,47,47,46,45,44,44,44,43,43,42,42,38],"timestamp_mouse":[19,40,59,80,99,119,139,159,179,199,219,239,259,279,299,319,340,359,379,399,419,439,459,479,499,519,539,559,579,599,620,639,659,679,699,719,741,759,779,800,820,840,859,879,899,919,939,959,980,1000,1020,1039,1059,1079,1099,1119,1140,1160,1179,1199,1219,1240,1259,1279,1299,1319,1339,1359,1379,1399,1419,1439,1459,1479,1500,1520,1540],"xSR":741.5,"ySR":449.15000000000003,"xT1":424.9,"yT1":0,"xT2":1058.1,"yT2":0,"toosoon":0,"cond_shown":"equaldotsize","ratio_trial":750,"smaller_num":"18","larger_num":"24","correct_side":1,"subjID":"catalinagomez23","gender":"1","age":"11","school":"cafam"},{"start_time":1551901543576,"click_time":1551901544762,"finger_time":1551901544521,"fix_duration":874.413965754307,"trial":62,"RT":945,"MT":241,"sideResp":1,"stimulus":"img/900/randomdotsizeEA/R/5_Ratio_900_L_9_R_10.png","xmouse":[808,808,808,808,808,808,808,808,808,808,808,808,808,808,808,808,808,808,808,808,808,808,808,808,808,808,808,808,809,810,812,815,818,822,823,827,832,833,834,835,836,836,836,836,821,806,796,778,753,708,630,590,566,555,548,542,540,537,529,517],"ymouse":[519,519,519,519,519,519,519,519,519,519,519,519,519,519,519,519,519,519,519,519,519,513,509,506,504,502,502,501,499,498,495,491,489,486,486,484,479,478,477,477,477,477,477,477,477,474,457,406,342,255,168,134,109,92,79,64,61,57,50,44],"timestamp_mouse":[9,36,45,65,85,105,125,145,165,185,205,225,245,265,285,305,325,345,365,385,405,425,445,465,485,505,525,545,565,585,605,625,645,666,685,706,725,745,765,785,805,825,846,865,885,906,925,945,966,985,1006,1025,1045,1065,1086,1107,1125,1145,1166,1185],"xSR":741.5,"ySR":449.15000000000003,"xT1":424.9,"yT1":0,"xT2":1058.1,"yT2":0,"toosoon":0,"cond_shown":"randomdotsizeEA","ratio_trial":900,"smaller_num":"9","larger_num":"10","correct_side":2,"subjID":"catalinagomez23","gender":"1","age":"11","school":"cafam"},{"start_time":1551901546198,"click_time":1551901546801,"finger_time":1551901546681,"fix_duration":456.67277984008894,"trial":63,"RT":483,"MT":120,"sideResp":2,"stimulus":"img/900/equaldotanddens/L/4_Ratio_900_L_20_R_18.png","xmouse":[786,786,786,786,786,786,786,786,786,786,786,786,786,786,786,786,786,786,786,786,786,786,798,814,863,947,980,1009,1033,1061,1081],"ymouse":[518,518,518,518,518,518,518,518,518,518,518,518,518,518,518,518,518,518,518,518,518,518,506,493,447,339,287,239,197,138,88],"timestamp_mouse":[11,29,43,63,84,103,123,144,163,183,204,223,243,263,284,303,323,343,363,384,404,423,444,464,483,503,524,543,563,584,603],"xSR":741.5,"ySR":449.15000000000003,"xT1":424.9,"yT1":0,"xT2":1058.1,"yT2":0,"toosoon":0,"cond_shown":"equaldotanddens","ratio_trial":900,"smaller_num":"18","larger_num":"20","correct_side":1,"subjID":"catalinagomez23","gender":"1","age":"11","school":"cafam"},{"start_time":1551901548722,"click_time":1551901550061,"finger_time":1551901549462,"fix_duration":738.7697074123206,"trial":64,"RT":740,"MT":599,"sideResp":1,"stimulus":"img/250/equaldotsize/L/1_Ratio_250_L_8_R_2.png","xmouse