[{"start_time":1551800559944,"click_time":1551800562087,"finger_time":1551800561526,"fix_duration":751.704031311153,"trial":0,"RT":1582,"MT":561,"sideResp":1,"stimulus":[],"xmouse":[776,776,776,776,776,776,776,776,776,776,776,776,776,776,776,776,776,776,776,776,776,776,776,776,776,776,776,776,776,776,776,776,776,776,776,776,776,776,776,776,776,776,776,776,776,776,776,776,776,776,776,776,776,776,776,776,776,776,776,776,776,776,776,776,776,776,776,776,776,776,776,776,776,775,773,760,753,748,747,745,744,741,739,737,735,730,723,714,700,680,649,637,624,614,607,590,580,570,563,560,554,548,540,530,513,464,451,444],"ymouse":[490,490,490,490,490,490,490,490,490,490,490,490,490,490,490,490,490,490,490,490,490,490,490,490,490,490,490,490,490,490,490,490,490,490,490,490,490,490,490,490,490,490,490,490,490,490,490,490,490,490,490,490,490,490,490,490,490,490,490,490,490,490,490,490,490,490,490,490,490,490,490,490,490,490,489,478,472,471,470,468,456,447,440,432,423,394,380,366,351,335,311,301,289,278,269,250,235,216,200,192,179,169,157,146,133,108,103,98],"timestamp_mouse":[8,39,42,63,82,102,123,143,162,182,204,223,242,263,283,302,324,342,363,383,402,422,442,462,484,504,522,543,562,583,602,622,643,662,683,702,723,743,762,782,802,823,842,863,882,902,922,943,962,983,1003,1022,1043,1062,1082,1102,1123,1144,1163,1182,1202,1222,1242,1263,1283,1302,1322,1342,1362,1383,1404,1422,1442,1463,1482,1502,1523,1542,1562,1582,1603,1622,1642,1662,1682,1703,1724,1742,1762,1782,1802,1822,1843,1862,1882,1902,1923,1942,1962,1982,2004,2023,2043,2062,2082,2102,2122,2143],"xSR":741.5,"ySR":469.95,"xT1":424.9,"yT1":0,"xT2":1058.1,"yT2":0,"toosoon":0,"cond_shown":"Congruent","ratio_trial":200,"L_num":9,"L_den":30,"R_num":13,"R_den":26,"correct_side":2,"subjID":"charlottecaicedorestrepo36","gender":"1","age":"11","school":"6","test":{"fix_dur":[250,1500],"timestim":1000,"targets_dim":[100,100],"targets_relative_coord":[0.3,0.7],"size_stim":[880,420],"start_dim":[100,100],"size_start":[300,300],"size_fix":60,"samplingrate":20,"img_types":["Congruent","Incongruent"],"ratios":[100,200,300],"rep_conds":19,"nTrials":120,"trials_to_rest":500,"Trials_order":[26,72,13,59,0,10,4,70,99,77,14,9,37,79,87,12,96,51,98,24,115,117,30,40,65,88,63,48,85,55,18,93,84,91,104,27,31,32,64,111,82,75,106,46,74,62,33,42,6,56,100,3,94,21,23,5,45,86,69,8,47,11,108,22,2,109,102,118,50,71,43,97,113,83,90,101,112,105,68,34,81,66,7,92,25,49,41,116,95,76,53,1,39,67,15,58,52,73,16,20,89,36,60,35,54,28,103,19,114,29,17,44,78,38,80,119,61,57,107,110],"cond_shown":["Congruent","Congruent","Incongruent","Incongruent","Congruent","Congruent","Congruent","Congruent","Incongruent","Incongruent","Congruent","Incongruent","Incongruent","Incongruent","Incongruent","Congruent","Congruent","Incongruent","Congruent","Congruent","Incongruent","Incongruent","Congruent","Congruent","Incongruent","Congruent","Incongruent","Congruent","Incongruent","Incongruent","Congruent","Incongruent","Congruent","Incongruent","Congruent","Incongruent","Incongruent","Congruent","Congruent","Incongruent","Congruent","Incongruent","Congruent","Congruent","Congruent","Congruent","Incongruent","Congruent","Congruent","Congruent","Congruent","Incongruent","Congruent","Incongruent","Incongruent","Incongruent","Incongruent","Congruent","Incongruent","Congruent","Incongruent","Incongruent","Congruent","Congruent","Congruent","Incongruent","Congruent","Congruent","Congruent","Incongruent","Incongruent","Incongruent","Incongruent","Incongruent","Congruent","Incongruent","Congruent","Incongruent","Congruent","Congruent","Incongruent","Congruent","Incongruent","Congruent","Incongruent","Incongruent","Incongruent","Congruent","Incongruent","Congruent","Incongruent","Incongruent","Incongruent","Incongruent","Incongruent","Congruent","Congruent","Incongruent","Congruent","Congruent","Incongruent","Congruent","Congruent","Incongruent","Congruent","Congruent","Incongruent","Incongruent","Congruent","Incongruent","Incongruent","Congruent","Congruent","Congruent","Congruent","Incongruent","Incongruent","Incongruent","Incongruent","Congruent"],"ratio_trial":[200,100,100,300,100,300,300,300,200,300,200,200,100,100,200,100,100,200,200,100,100,200,100,300,300,300,200,100,100,100,100,200,100,100,200,200,100,200,300,200,300,200,300,300,200,200,200,100,100,200,300,200,300,200,300,300,200,200,200,200,300,300,100,300,200,100,100,300,200,300,100,100,300,300,100,300,300,200,200,300,200,100,100,200,100,100,300,200,300,300,300,100,200,100,200,300,300,100,300,200,300,100,100,300,100,300,100,100,100,300,300,200,100,200,200,300,100,200,300,200],"left_num":[9,11,11,7,8,1,9,4,7,8,8,7,10,13,7,7,15,9,6,2,17,9,3,3,13,2,9,9,9,1,4,3,7,6,20,7,6,12,4,14,1,7,24,1,4,7,3,4,10,16,20,4,20,3,4,4,1,5,9,1,4,4,11,20,13,6,11,12,4,2,8,1,8,13,4,3,3,3,3,24,3,7,1,6,2,12,4,12,8,4,13,1,7,9,11,4,9,12,1,4,3,4,9,8,2,18,9,6,1,8,1,8,7,14,16,4,3,6,8,9],"right_num":[13,6,9,8,2,19,3,13,4,9,2,6,8,12,4,9,13,8,11,11,10,8,4,11,12,12,8,8,14,8,15,11,9,11,9,14,3,6,1,12,6,6,8,3,3,18,1,15,3,12,8,1,5,1,2,2,2,14,8,21,2,2,6,9,14,11,4,2,3,6,6,8,14,12,15,4,11,1,9,2,11,9,8,7,8,9,2,6,9,1,12,8,14,20,3,13,3,9,8,3,4,15,8,14,11,9,14,11,18,14,2,3,15,6,9,6,7,3,9,13],"left_den":[30,22,22,10,16,3,10,20,15,10,15,15,25,26,15,14,25,15,20,5,30,15,20,12,26,10,15,15,15,2,10,4,14,10,25,10,12,20,10,30,5,15,30,5,8,15,10,10,25,20,25,30,25,10,20,20,3,10,15,2,20,20,22,25,26,10,22,24,10,4,16,2,10,26,10,6,12,10,12,30,4,14,2,12,4,24,20,15,10,10,26,2,10,10,20,20,10,24,30,10,6,10,15,10,5,20,15,10,2,10,2,15,14,28,30,5,9,20,10,30],"right_den":[26,15,15,20,5,30,5,26,6,18,6,9,16,20,6,15,26,10,22,22,15,10,16,20,15,24,10,16,28,20,30,20,15,22,15,28,5,15,10,18,12,9,16,6,10,27,2,30,10,20,16,3,10,2,4,4,15,20,10,30,4,4,15,18,20,22,10,10,15,30,10,20,28,15,30,20,20,2,20,4,20,15,20,10,20,15,4,10,18,10,15,20,28,25,4,26,5,15,24,15,20,30,16,28,22,15,28,22,30,28,10,9,25,20,27,12,30,6,18,26],"correct_side":[2,1,2,1,1,2,1,2,2,1,1,2,2,2,2,2,1,2,2,2,2,2,2,2,2,2,2,1,1,1,2,1,2,1,1,1,2,1,1,2,2,2,1,2,1,2,2,2,1,1,1,2,1,2,2,2,1,2,2,2,2,2,1,1,2,1,1,1,1,1,2,1,1,2,2,1,2,2,2,1,1,2,1,2,1,2,2,1,1,1,2,1,1,1,2,2,1,2,2,1,1,2,1,1,2,1,1,1,2,1,1,1,2,1,1,1,1,2,1,2],"img_shown":["img2/200/Congruent/R/C_Dist_200_LN_9_LD_30_RN_13_RD_26_1.png","img2/100/Congruent/L/C_Dist_100_LN_11_LD_22_RN_6_RD_15_0.png","img2/100/Incongruent/R/I_Dist_100_LN_11_LD_22_RN_9_RD_15_1.png","img2/300/Incongruent/L/I_Dist_300_LN_7_LD_10_RN_8_RD_20_0.png","img2/100/Congruent/L/C_Dist_100_LN_8_LD_16_RN_2_RD_5_0.png","img2/300/Congruent/R/C_Dist_300_LN_1_LD_3_RN_19_RD_30_1.png","img2/300/Congruent/L/C_Dist_300_LN_9_LD_10_RN_3_RD_5_0.png","img2/300/Congruent/R/C_Dist_300_LN_4_LD_20_RN_13_RD_26_1.png","img2/200/Incongruent/R/I_Dist_200_LN_7_LD_15_RN_4_RD_6_1.png","img2/300/Incongruent/L/I_Dist_300_LN_8_LD_10_RN_9_RD_18_0.png","img2/200/Congruent/L/C_Dist_200_LN_8_LD_15_RN_2_RD_6_0.png","img2/200/Incongruent/R/I_Dist_200_LN_7_LD_15_RN_6_RD_9_1.png","img2/100/Incongruent/R/I_Dist_100_LN_10_LD_25_RN_8_RD_16_1.png","img2/100/Incongruent/R/I_Dist_100_LN_13_LD_26_RN_12_RD_20_1.png","img2/200/Incongruent/R/I_Dist_200_LN_7_LD_15_RN_4_RD_6_1.png","img2/100/Congruent/R/C_Dist_100_LN_7_LD_14_RN_9_RD_15_1.png","img2/100/Congruent/L/C_Dist_100_LN_15_LD_25_RN_13_RD_26_0.png","img2/200/Incongruent/R/I_Dist_200_LN_9_LD_15_RN_8_RD_10_1.png","img2/200/Congruent/R/C_Dist_200_LN_6_LD_20_RN_11_RD_22_1.png","img2/100/Congruent/R/C_Dist_100_LN_2_LD_5_RN_11_RD_22_1.png","img2/100/Incongruent/R/I_Dist_100_LN_17_LD_30_RN_10_RD_15_1.png","img2/200/Incongruent/R/I_Dist_200_LN_9_LD_15_RN_8_RD_10_1.png","img2/100/Congruent/R/C_Dist_100_LN_3_LD_20_RN_4_RD_16_1.png","img2/300/Congruent/R/C_Dist_300_LN_3_LD_12_RN_11_RD_20_1.png","img2/300/Incongruent/R/I_Dist_300_LN_13_LD_26_RN_12_RD_15_1.png","img2/300/Congruent/R/C_Dist_300_LN_2_LD_10_RN_12_RD_24_1.png","img2/200/Incongruent/R/I_Dist_200_LN_9_LD_15_RN_8_RD_10_1.png","img2/100/Congruent/L/C_Dist_100_LN_9_LD_15_RN_8_RD_16_0.png","img2/100/Incongruent/L/I_Dist_100_LN_9_LD_15_RN_14_RD_28_0.png","img2/100/Incongruent/L/I_Dist_100_LN_1_LD_2_RN_8_RD_20_0.png","img2/100/Congruent/R/C_Dist_100_LN_4_LD_10_RN_15_RD_30_1.png","img2/200/Incongruent/L/I_Dist_200_LN_3_LD_4_RN_11_RD_20_0.png","img2/100/Congruent/R/C_Dist_100_LN_7_LD_14_RN_9_RD_15_1.png","img2/100/Incongruent/L/I_Dist_100_LN_6_LD_10_RN_11_RD_22_0.png","img2/200/Congruent/L/C_Dist_200_LN_20_LD_25_RN_9_RD_15_0.png","img2/200/Incongruent/L/I_Dist_200_LN_7_LD_10_RN_14_RD_28_0.png","img2/100/Incongruent/R/I_Dist_100_LN_6_LD_12_RN_3_RD_5_1.png","img2/200/Congruent/L/C_Dist_200_LN_12_LD_20_RN_6_RD_15_0.png","img2/300/Congruent/L/C_Dist_300_LN_4_LD_10_RN_1_RD_10_0.png","img2/200/Incongruent/R/I_Dist_200_LN_14_LD_30_RN_12_RD_18_1.png","img2/300/Congruent/R/C_Dist_300_LN_1_LD_5_RN_6_RD_12_1.png","img2/200/Incongruent/R/I_Dist_200_LN_7_LD_15_RN_6_RD_9_1.png","img2/300/Congruent/L/C_Dist_300_LN_24_LD_30_RN_8_RD_16_0.png","img2/300/Congruent/R/C_Dist_300_LN_1_LD_5_RN_3_RD_6_1.png","img2/200/Congruent/L/C_Dist_200_LN_4_LD_8_RN_3_RD_10_0.png","img2/200/Congruent/R/C_Dist_200_LN_7_LD_15_RN_18_RD_27_1.png","img2/200/Incongruent/R/I_Dist_200_LN_3_LD_10_RN_1_RD_2_1.png","img2/100/Congruent/R/C_Dist_100_LN_4_LD_10_RN_15_RD_30_1.png","img2/100/Congruent/L/C_Dist_100_LN_10_LD_25_RN_3_RD_10_0.png","img2/200/Congruent/L/C_Dist_200_LN_16_LD_20_RN_12_RD_20_0.png","img2/300/Congruent/L/C_Dist_300_LN_20_LD_25_RN_8_RD_16_0.png","img2/200/Incongruent/R/I_Dist_200_LN_4_LD_30_RN_1_RD_3_1.png","img2/300/Congruent/L/C_Dist_300_LN_20_LD_25_RN_5_RD_10_0.png","img2/200/Incongruent/R/I_Dist_200_LN_3_LD_10_RN_1_RD_2_1.png","img2/300/Incongruent/R/I_Dist_300_LN_4_LD_20_RN_2_RD_4_1.png","img2/300/Incongruent/R/I_Dist_300_LN_4_LD_20_RN_2_RD_4_1.png","img2/200/Incongruent/L/I_Dist_200_LN_1_LD_3_RN_2_RD_15_0.png","img2/200/Congruent/R/C_Dist_200_LN_5_LD_10_RN_14_RD_20_1.png","img2/200/Incongruent/R/I_Dist_200_LN_9_LD_15_RN_8_RD_10_1.png","img2/200/Congruent/R/C_Dist_200_LN_1_LD_2_RN_21_RD_30_1.png","img2/300/Incongruent/R/I_Dist_300_LN_4_LD_20_RN_2_RD_4_1.png","img2/300/Incongruent/R/I_Dist_300_LN_4_LD_20_RN_2_RD_4_1.png","img2/100/Congruent/L/C_Dist_100_LN_11_LD_22_RN_6_RD_15_0.png","img2/300/Congruent/L/C_Dist_300_LN_20_LD_25_RN_9_RD_18_0.png","img2/200/Congruent/R/C_Dist_200_LN_13_LD_26_RN_14_RD_20_1.png","img2/100/Incongruent/L/I_Dist_100_LN_6_LD_10_RN_11_RD_22_0.png","img2/100/Congruent/L/C_Dist_100_LN_11_LD_22_RN_4_RD_10_0.png","img2/300/Congruent/L/C_Dist_300_LN_12_LD_24_RN_2_RD_10_0.png","img2/200/Congruent/L/C_Dist_200_LN_4_LD_10_RN_3_RD_15_0.png","img2/300/Incongruent/L/I_Dist_300_LN_2_LD_4_RN_6_RD_30_0.png","img2/100/Incongruent/R/I_Dist_100_LN_8_LD_16_RN_6_RD_10_1.png","img2/100/Incongruent/L/I_Dist_100_LN_1_LD_2_RN_8_RD_20_0.png","img2/300/Incongruent/L/I_Dist_300_LN_8_LD_10_RN_14_RD_28_0.png","img2/300/Incongruent/R/I_Dist_300_LN_13_LD_26_RN_12_RD_15_1.png","img2/100/Congruent/R/C_Dist_100_LN_4_LD_10_RN_15_RD_30_1.png","img2/300/Incongruent/L/I_Dist_300_LN_3_LD_6_RN_4_RD_20_0.png","img2/300/Congruent/R/C_Dist_300_LN_3_LD_12_RN_11_RD_20_1.png","img2/200/Incongruent/R/I_Dist_200_LN_3_LD_10_RN_1_RD_2_1.png","img2/200/Congruent/R/C_Dist_200_LN_3_LD_12_RN_9_RD_20_1.png","img2/300/Congruent/L/C_Dist_300_LN_24_LD_30_RN_2_RD_4_0.png","img2/200/Incongruent/L/I_Dist_200_LN_3_LD_4_RN_11_RD_20_0.png","img2/100/Congruent/R/C_Dist_100_LN_7_LD_14_RN_9_RD_15_1.png","img2/100/Incongruent/L/I_Dist_100_LN_1_LD_2_RN_8_RD_20_0.png","img2/200/Congruent/R/C_Dist_200_LN_6_LD_12_RN_7_RD_10_1.png","img2/100/Incongruent/L/I_Dist_100_LN_2_LD_4_RN_8_RD_20_0.png","img2/100/Incongruent/R/I_Dist_100_LN_12_LD_24_RN_9_RD_15_1.png","img2/300/Incongruent/R/I_Dist_300_LN_4_LD_20_RN_2_RD_4_1.png","img2/200/Congruent/L/C_Dist_200_LN_12_LD_15_RN_6_RD_10_0.png","img2/300/Incongruent/L/I_Dist_300_LN_8_LD_10_RN_9_RD_18_0.png","img2/300/Congruent/L/C_Dist_300_LN_4_LD_10_RN_1_RD_10_0.png","img2/300/Incongruent/R/I_Dist_300_LN_13_LD_26_RN_12_RD_15_1.png","img2/100/Incongruent/L/I_Dist_100_LN_1_LD_2_RN_8_RD_20_0.png","img2/200/Incongruent/L/I_Dist_200_LN_7_LD_10_RN_14_RD_28_0.png","img2/100/Incongruent/L/I_Dist_100_LN_9_LD_10_RN_20_RD_25_0.png","img2/200/Incongruent/R/I_Dist_200_LN_11_LD_20_RN_3_RD_4_1.png","img2/300/Congruent/R/C_Dist_300_LN_4_LD_20_RN_13_RD_26_1.png","img2/300/Congruent/L/C_Dist_300_LN_9_LD_10_RN_3_RD_5_0.png","img2/100/Incongruent/R/I_Dist_100_LN_12_LD_24_RN_9_RD_15_1.png","img2/300/Congruent/R/C_Dist_300_LN_1_LD_30_RN_8_RD_24_1.png","img2/200/Congruent/L/C_Dist_200_LN_4_LD_10_RN_3_RD_15_0.png","img2/300/Incongruent/L/I_Dist_300_LN_3_LD_6_RN_4_RD_20_0.png","img2/100/Congruent/R/C_Dist_100_LN_4_LD_10_RN_15_RD_30_1.png","img2/100/Congruent/L/C_Dist_100_LN_9_LD_15_RN_8_RD_16_0.png","img2/300/Incongruent/L/I_Dist_300_LN_8_LD_10_RN_14_RD_28_0.png","img2/100/Congruent/R/C_Dist_100_LN_2_LD_5_RN_11_RD_22_1.png","img2/300/Congruent/L/C_Dist_300_LN_18_LD_20_RN_9_RD_15_0.png","img2/100/Incongruent/L/I_Dist_100_LN_9_LD_15_RN_14_RD_28_0.png","img2/100/Incongruent/L/I_Dist_100_LN_6_LD_10_RN_11_RD_22_0.png","img2/100/Congruent/R/C_Dist_100_LN_1_LD_2_RN_18_RD_30_1.png","img2/300/Incongruent/L/I_Dist_300_LN_8_LD_10_RN_14_RD_28_0.png","img2/300/Incongruent/L/I_Dist_300_LN_1_LD_2_RN_2_RD_10_0.png","img2/200/Congruent/L/C_Dist_200_LN_8_LD_15_RN_3_RD_9_0.png","img2/100/Congruent/R/C_Dist_100_LN_7_LD_14_RN_15_RD_25_1.png","img2/200/Congruent/L/C_Dist_200_LN_14_LD_28_RN_6_RD_20_0.png","img2/200/Congruent/L/C_Dist_200_LN_16_LD_30_RN_9_RD_27_0.png","img2/300/Incongruent/L/I_Dist_300_LN_4_LD_5_RN_6_RD_12_0.png","img2/100/Incongruent/L/I_Dist_100_LN_3_LD_9_RN_7_RD_30_0.png","img2/200/Incongruent/R/I_Dist_200_LN_6_LD_20_RN_3_RD_6_1.png","img2/300/Incongruent/L/I_Dist_300_LN_8_LD_10_RN_9_RD_18_0.png","img2/200/Congruent/R/C_Dist_200_LN_9_LD_30_RN_13_RD_26_1.png"],"dist100_C":[["C_Dist_100_LN_10_LD_25_RN_3_RD_10_0.png","C_Dist_100_LN_11_LD_22_RN_4_RD_10_0.png","C_Dist_100_LN_11_LD_22_RN_6_RD_15_0.png","C_Dist_100_LN_15_LD_25_RN_13_RD_26_0.png","C_Dist_100_LN_3_LD_6_RN_2_RD_5_0.png","C_Dist_100_LN_6_LD_20_RN_5_RD_25_0.png","C_Dist_100_LN_8_LD_16_RN_2_RD_5_0.png","C_Dist_100_LN_9_LD_15_RN_8_RD_16_0.png"],["C_Dist_100_LN_1_LD_2_RN_18_RD_30_1.png","C_Dist_100_LN_1_LD_2_RN_3_RD_5_1.png","C_Dist_100_LN_12_LD_30_RN_13_RD_26_1.png","C_Dist_100_LN_2_LD_5_RN_11_RD_22_1.png","C_Dist_100_LN_2_LD_5_RN_6_RD_12_1.png","C_Dist_100_LN_3_LD_20_RN_4_RD_16_1.png","C_Dist_100_LN_4_LD_10_RN_15_RD_30_1.png","C_Dist_100_LN_4_LD_8_RN_6_RD_10_1.png","C_Dist_100_LN_6_LD_12_RN_15_RD_25_1.png","C_Dist_100_LN_7_LD_14_RN_15_RD_25_1.png","C_Dist_100_LN_7_LD_14_RN_9_RD_15_1.png"]],"dist100_I":[["I_Dist_100_LN_1_LD_2_RN_8_RD_20_0.png","I_Dist_100_LN_2_LD_4_RN_6_RD_15_0.png","I_Dist_100_LN_2_LD_4_RN_8_RD_20_0.png","I_Dist_100_LN_3_LD_5_RN_11_RD_22_0.png","I_Dist_100_LN_3_LD_5_RN_8_RD_16_0.png","I_Dist_100_LN_3_LD_6_RN_4_RD_10_0.png","I_Dist_100_LN_3_LD_9_RN_7_RD_30_0.png","I_Dist_100_LN_4_LD_8_RN_8_RD_20_0.png","I_Dist_100_LN_6_LD_10_RN_11_RD_22_0.png","I_Dist_100_LN_6_LD_10_RN_13_RD_26_0.png","I_Dist_100_LN_6_LD_10_RN_7_RD_14_0.png","I_Dist_100_LN_9_LD_10_RN_20_RD_25_0.png","I_Dist_100_LN_9_LD_15_RN_13_RD_26_0.png","I_Dist_100_LN_9_LD_15_RN_14_RD_28_0.png"],["I_Dist_100_LN_10_LD_25_RN_8_RD_16_1.png","I_Dist_100_LN_10_LD_25_RN_9_RD_18_1.png","I_Dist_100_LN_11_LD_22_RN_9_RD_15_1.png","I_Dist_100_LN_12_LD_24_RN_9_RD_15_1.png","I_Dist_100_LN_12_LD_30_RN_2_RD_4_1.png","I_Dist_100_LN_13_LD_26_RN_12_RD_20_1.png","I_Dist_100_LN_13_LD_26_RN_6_RD_10_1.png","I_Dist_100_LN_17_LD_30_RN_10_RD_15_1.png","I_Dist_100_LN_6_LD_12_RN_3_RD_5_1.png","I_Dist_100_LN_8_LD_16_RN_6_RD_10_1.png","I_Dist_100_LN_8_LD_20_RN_1_RD_2_1.png","I_Dist_100_LN_9_LD_18_RN_6_RD_10_1.png"]],"dist100_S":[["E_Dist_100_LN_2_LD_12_RN_2_RD_30_0.png","E_Dist_100_LN_6_LD_10_RN_6_RD_12_0.png"],["E_Dist_100_LN_6_LD_12_RN_6_RD_10_1.png"]],"dist200_C":[["C_Dist_200_LN_11_LD_22_RN_3_RD_10_0.png","C_Dist_200_LN_12_LD_15_RN_6_RD_10_0.png","C_Dist_200_LN_12_LD_20_RN_6_RD_15_0.png","C_Dist_200_LN_14_LD_28_RN_6_RD_20_0.png","C_Dist_200_LN_15_LD_25_RN_4_RD_10_0.png","C_Dist_200_LN_16_LD_20_RN_12_RD_20_0.png","C_Dist_200_LN_16_LD_30_RN_9_RD_27_0.png","C_Dist_200_LN_20_LD_25_RN_9_RD_15_0.png","C_Dist_200_LN_21_LD_30_RN_2_RD_4_0.png","C_Dist_200_LN_4_LD_10_RN_3_RD_15_0.png","C_Dist_200_LN_4_LD_8_RN_3_RD_10_0.png","C_Dist_200_LN_6_LD_15_RN_3_RD_15_0.png","C_Dist_200_LN_7_LD_21_RN_2_RD_15_0.png","C_Dist_200_LN_8_LD_15_RN_2_RD_6_0.png","C_Dist_200_LN_8_LD_15_RN_3_RD_9_0.png","C_Dist_200_LN_8_LD_15_RN_7_RD_21_0.png","C_Dist_200_LN_9_LD_20_RN_4_RD_16_0.png"],["C_Dist_200_LN_1_LD_2_RN_21_RD_30_1.png","C_Dist_200_LN_13_LD_26_RN_14_RD_20_1.png","C_Dist_200_LN_3_LD_10_RN_11_RD_22_1.png","C_Dist_200_LN_3_LD_10_RN_14_RD_28_1.png","C_Dist_200_LN_3_LD_10_RN_7_RD_14_1.png","C_Dist_200_LN_3_LD_12_RN_9_RD_20_1.png","C_Dist_200_LN_3_LD_6_RN_14_RD_20_1.png","C_Dist_200_LN_5_LD_10_RN_14_RD_20_1.png","C_Dist_200_LN_6_LD_12_RN_7_RD_10_1.png","C_Dist_200_LN_6_LD_20_RN_11_RD_22_1.png","C_Dist_200_LN_7_LD_15_RN_18_RD_27_1.png","C_Dist_200_LN_9_LD_30_RN_13_RD_26_1.png"]],"dist200_I":[["I_Dist_200_LN_1_LD_2_RN_3_RD_10_0.png","I_Dist_200_LN_1_LD_3_RN_2_RD_15_0.png","I_Dist_200_LN_3_LD_4_RN_11_RD_20_0.png","I_Dist_200_LN_4_LD_5_RN_6_RD_10_0.png","I_Dist_200_LN_4_LD_6_RN_14_RD_30_0.png","I_Dist_200_LN_7_LD_10_RN_12_RD_24_0.png","I_Dist_200_LN_7_LD_10_RN_14_RD_28_0.png","I_Dist_200_LN_7_LD_10_RN_8_RD_16_0.png"],["I_Dist_200_LN_11_LD_20_RN_3_RD_4_1.png","I_Dist_200_LN_14_LD_30_RN_12_RD_18_1.png","I_Dist_200_LN_14_LD_30_RN_6_RD_9_1.png","I_Dist_200_LN_3_LD_10_RN_1_RD_2_1.png","I_Dist_200_LN_4_LD_30_RN_1_RD_3_1.png","I_Dist_200_LN_6_LD_20_RN_3_RD_6_1.png","I_Dist_200_LN_7_LD_15_RN_4_RD_6_1.png","I_Dist_200_LN_7_LD_15_RN_6_RD_9_1.png","I_Dist_200_LN_9_LD_15_RN_8_RD_10_1.png"]],"dist200_S":[["E_Dist_200_LN_3_LD_6_RN_3_RD_10_0.png"],["E_Dist_200_LN_3_LD_10_RN_3_RD_6_1.png"]],"dist300_C":[["C_Dist_300_LN_11_LD_22_RN_1_RD_5_0.png","C_Dist_300_LN_11_LD_22_RN_2_RD_10_0.png","C_Dist_300_LN_11_LD_22_RN_4_RD_20_0.png","C_Dist_300_LN_12_LD_24_RN_2_RD_10_0.png","C_Dist_300_LN_18_LD_20_RN_9_RD_15_0.png","C_Dist_300_LN_20_LD_25_RN_13_RD_26_0.png","C_Dist_300_LN_20_LD_25_RN_14_RD_28_0.png","C_Dist_300_LN_20_LD_25_RN_5_RD_10_0.png","C_Dist_300_LN_20_LD_25_RN_8_RD_16_0.png","C_Dist_300_LN_20_LD_25_RN_9_RD_18_0.png","C_Dist_300_LN_24_LD_30_RN_2_RD_4_0.png","C_Dist_300_LN_24_LD_30_RN_8_RD_16_0.png","C_Dist_300_LN_3_LD_6_RN_2_RD_10_0.png","C_Dist_300_LN_4_LD_10_RN_1_RD_10_0.png","C_Dist_300_LN_4_LD_5_RN_2_RD_4_0.png","C_Dist_300_LN_8_LD_16_RN_1_RD_5_0.png","C_Dist_300_LN_9_LD_10_RN_3_RD_5_0.png"],["C_Dist_300_LN_1_LD_20_RN_7_RD_20_1.png","C_Dist_300_LN_1_LD_3_RN_19_RD_30_1.png","C_Dist_300_LN_1_LD_30_RN_8_RD_24_1.png","C_Dist_300_LN_1_LD_5_RN_11_RD_22_1.png","C_Dist_300_LN_1_LD_5_RN_3_RD_6_1.png","C_Dist_300_LN_1_LD_5_RN_6_RD_12_1.png","C_Dist_300_LN_2_LD_10_RN_12_RD_24_1.png","C_Dist_300_LN_2_LD_20_RN_10_RD_25_1.png","C_Dist_300_LN_3_LD_12_RN_11_RD_20_1.png","C_Dist_300_LN_3_LD_6_RN_4_RD_5_1.png","C_Dist_300_LN_4_LD_20_RN_13_RD_26_1.png","C_Dist_300_LN_5_LD_25_RN_6_RD_12_1.png","C_Dist_300_LN_5_LD_25_RN_7_RD_14_1.png","C_Dist_300_LN_7_LD_14_RN_20_RD_25_1.png","C_Dist_300_LN_8_LD_15_RN_10_RD_12_1.png"]],"dist300_I":[["I_Dist_300_LN_1_LD_2_RN_2_RD_10_0.png","I_Dist_300_LN_1_LD_2_RN_3_RD_15_0.png","I_Dist_300_LN_2_LD_4_RN_6_RD_30_0.png","I_Dist_300_LN_3_LD_6_RN_4_RD_20_0.png","I_Dist_300_LN_4_LD_5_RN_6_RD_12_0.png","I_Dist_300_LN_4_LD_5_RN_8_RD_16_0.png","I_Dist_300_LN_7_LD_10_RN_8_RD_20_0.png","I_Dist_300_LN_8_LD_10_RN_14_RD_28_0.png","I_Dist_300_LN_8_LD_10_RN_9_RD_18_0.png"],["I_Dist_300_LN_13_LD_26_RN_12_RD_15_1.png","I_Dist_300_LN_4_LD_20_RN_2_RD_4_1.png"]],"dist300_S":[["E_Dist_300_LN_9_LD_12_RN_9_RD_20_0.png"],["E_Dist_300_LN_18_LD_30_RN_18_RD_20_1.png","E_Dist_300_LN_3_LD_10_RN_3_RD_5_1.png","E_Dist_300_LN_9_LD_20_RN_9_RD_12_1.png"]],"dist500_C":[["C_Dist_500_LN_10_LD_13_RN_7_RD_26_0.png","C_Dist_500_LN_10_LD_15_RN_4_RD_24_0.png","C_Dist_500_LN_12_LD_16_RN_3_RD_12_0.png","C_Dist_500_LN_12_LD_18_RN_4_RD_24_0.png","C_Dist_500_LN_15_LD_18_RN_5_RD_15_0.png","C_Dist_500_LN_15_LD_20_RN_1_RD_4_0.png","C_Dist_500_LN_18_LD_27_RN_1_RD_6_0.png","C_Dist_500_LN_20_LD_24_RN_1_RD_3_0.png","C_Dist_500_LN_20_LD_24_RN_3_RD_9_0.png","C_Dist_500_LN_20_LD_24_RN_7_RD_21_0.png","C_Dist_500_LN_20_LD_28_RN_3_RD_14_0.png","C_Dist_500_LN_21_LD_28_RN_6_RD_24_0.png","C_Dist_500_LN_22_LD_28_RN_2_RD_7_0.png","C_Dist_500_LN_25_LD_30_RN_9_RD_27_0.png","C_Dist_500_LN_4_LD_6_RN_1_RD_6_0.png","C_Dist_500_LN_5_LD_6_RN_2_RD_6_0.png","C_Dist_500_LN_6_LD_9_RN_1_RD_6_0.png","C_Dist_500_LN_7_LD_10_RN_1_RD_5_0.png","C_Dist_500_LN_8_LD_12_RN_1_RD_6_0.png","C_Dist_500_LN_8_LD_12_RN_4_RD_24_0.png"],["C_Dist_500_LN_1_LD_4_RN_12_RD_16_1.png","C_Dist_500_LN_1_LD_4_RN_9_RD_12_1.png","C_Dist_500_LN_1_LD_9_RN_11_RD_18_1.png","C_Dist_500_LN_10_LD_24_RN_22_RD_24_1.png","C_Dist_500_LN_2_LD_12_RN_10_RD_15_1.png","C_Dist_500_LN_2_LD_12_RN_12_RD_18_1.png","C_Dist_500_LN_2_LD_12_RN_4_RD_6_1.png","C_Dist_500_LN_2_LD_24_RN_7_RD_12_1.png","C_Dist_500_LN_2_LD_5_RN_18_RD_20_1.png","C_Dist_500_LN_2_LD_5_RN_9_RD_10_1.png","C_Dist_500_LN_2_LD_8_RN_12_RD_16_1.png","C_Dist_500_LN_2_LD_8_RN_21_RD_28_1.png","C_Dist_500_LN_3_LD_10_RN_4_RD_5_1.png","C_Dist_500_LN_3_LD_12_RN_15_RD_20_1.png","C_Dist_500_LN_3_LD_30_RN_6_RD_10_1.png","C_Dist_500_LN_3_LD_8_RN_14_RD_16_1.png","C_Dist_500_LN_4_LD_16_RN_15_RD_20_1.png","C_Dist_500_LN_4_LD_24_RN_12_RD_18_1.png","C_Dist_500_LN_5_LD_14_RN_6_RD_7_1.png","C_Dist_500_LN_7_LD_21_RN_20_RD_24_1.png","C_Dist_500_LN_7_LD_28_RN_12_RD_16_1.png","C_Dist_500_LN_7_LD_28_RN_9_RD_12_1.png","C_Dist_500_LN_9_LD_27_RN_20_RD_24_1.png"]],"dist500_I":[["I_Dist_500_LN_2_LD_3_RN_4_RD_24_0.png","I_Dist_500_LN_5_LD_6_RN_6_RD_18_0.png","I_Dist_500_LN_7_LD_8_RN_9_RD_24_0.png"],["I_Dist_500_LN_7_LD_21_RN_5_RD_6_1.png"]],"dist500_S":[["E_Dist_500_LN_6_LD_8_RN_6_RD_24_0.png"],["E_Dist_500_LN_2_LD_12_RN_2_RD_3_1.png","E_Dist_500_LN_6_LD_24_RN_6_RD_8_1.png"]]}},{"start_time":1551800573310,"click_time":1551800578547,"finger_time":1551800576146,"fix_duration":342.1204969110214,"trial":1,"RT":2836,"MT":2401,"sideResp":1,"stimulus":[],"xmouse":[759,759,759,759,759,759,759,759,759,759,759,759,759,759,759,759,759,759,759,759,759,759,759,759,759,759,759,759,759,759,759,759,759,759,759,759,759,759,759,759,759,759,759,759,759,759,759,759,759,759,759,759,759,759,759,759,759,759,759,759,759,759,759,759,759,759,759,759,759,759,759,759,759,759,759,759,759,759,759,759,759,759,759,759,759,759,759,759,759,759,759,759,759,759,759,759,759,759,759,759,759,759,759,759,759,759,759,759,759,759,759,759,759,759,759,759,759,759,759,759,759,759,759,759,759,759,759,759,759,759,759,759,759,759,759,759,760,757,755,754,751,736,727,723,720,716,708,708,707,707,707,707,707,707,707,707,707,707,707,707,707,707,707,707,707,707,707,707,707,707,707,707,707,707,707,707,707,707,707,707,707,707,707,707,707,707,707,707,707,707,707,707,707,707,707,707,707,707,707,707,707,706,706,705,705,705,703,701,701,701,701,701,700,700,700,700,700,700,700,700,700,700,700,700,700,697,687,681,675,669,667,667,667,669,670,670,672,672,671,670,668,658,648,639,632,624,604,594,587,581,579,574,570,566,561,559,555,543,539,533,526,512],"ymouse":[554,554,554,554,554,554,554,554,554,554,554,554,554,554,554,554,554,554,554,554,554,554,554,554,554,554,554,554,554,554,554,554,554,554,554,554,554,554,554,554,554,554,554,554,554,554,554,554,554,554,554,554,554,554,554,554,554,554,554,554,554,554,554,554,554,554,554,554,554,554,554,554,554,554,554,554,554,554,554,554,554,554,554,554,554,554,554,554,554,554,554,554,554,554,554,554,554,554,554,554,554,554,554,554,554,554,554,554,554,554,554,554,554,554,554,554,554,554,554,554,554,554,554,554,554,554,554,554,554,554,554,554,554,554,554,554,553,549,546,546,544,538,537,537,539,540,540,540,540,540,540,540,540,540,540,540,540,540,540,540,540,540,540,540,540,540,540,540,540,540,540,540,540,540,540,540,540,540,540,540,540,540,540,540,540,540,540,540,540,540,540,540,540,540,540,541,541,541,541,541,541,541,541,540,538,536,533,531,531,530,530,529,528,528,528,528,527,526,525,525,525,525,524,523,520,511,489,475,459,446,437,425,422,418,415,410,398,390,387,382,374,346,324,304,286,268,224,207,197,189,186,176,170,164,159,151,146,132,127,118,108,78],"timestamp_mouse":[17,42,57,76,96,118,136,156,177,198,217,237,257,277,296,317,337,356,376,397,416,436,456,477,496,518,537,557,577,596,617,636,656,676,697,718,736,757,776,796,818,837,856,877,897,917,936,956,977,997,1017,1036,1056,1077,1097,1117,1137,1156,1176,1198,1217,1237,1257,1277,1298,1316,1337,1358,1377,1396,1416,1436,1456,1477,1497,1517,1536,1557,1576,1596,1616,1636,1656,1677,1697,1716,1737,1758,1776,1797,1817,1836,1857,1877,1896,1916,1937,1956,1976,1997,2016,2036,2057,2078,2096,2116,2137,2156,2176,2196,2216,2237,2257,2277,2296,2316,2336,2356,2376,2396,2417,2436,2456,2477,2496,2516,2537,2556,2576,2596,2616,2638,2656,2676,2696,2716,2737,2756,2777,2797,2816,2836,2856,2876,2897,2917,2937,2956,2976,2997,3016,3037,3056,3076,3097,3116,3137,3156,3177,3197,3217,3237,3256,3277,3296,3316,3337,3356,3376,3396,3417,3437,3457,3476,3497,3516,3536,3557,3576,3596,3616,3637,3657,3677,3698,3716,3737,3758,3777,3796,3817,3837,3857,3876,3896,3916,3936,3956,3977,3996,4018,4037,4056,4077,4096,4116,4136,4156,4176,4196,4217,4237,4257,4276,4297,4316,4337,4357,4376,4397,4417,4437,4456,4476,4496,4516,4537,4556,4576,4596,4616,4638,4656,4676,4696,4717,4736,4756,4776,4797,4817,4837,4856,4876,4897,4916,4937,4957,4976,4996,5017,5036,5056,5076,5097,5116,5136,5156,5176,5196,5216,5236],"xSR":741.5,"ySR":469.95,"xT1":424.9,"yT1":0,"xT2":1058.1,"yT2":0,"toosoon":0,"cond_shown":"Congruent","ratio_trial":100,"L_num":11,"L_den":22,"R_num":6,"R_den":15,"correct_side":1,"subjID":"charlottecaicedorestrepo36","gender":"1","school":"6","age":"11"},{"start_time":1551800581759,"click_time":1551800584247,"finger_time":1551800583727,"fix_duration":250,"trial":2,"RT":1968,"MT":520,"sideResp":2,"stimulus":[],"xmouse":[785,785,785,785,785,785,785,785,785,785,785,785,785,785,785,785,785,785,785,785,785,785,785,785,785,785,785,785,785,785,785,785,785,785,785,785,785,785,785,785,785,785,785,785,785,785,785,785,785,785,785,785,785,785,785,785,785,785,785,785,785,785,785,785,785,785,785,785,785,785,785,785,785,785,785,785,785,785,785,785,785,785,785,785,785,785,785,785,785,785,785,785,785,785,785,790,802,815,826,851,864,881,900,913,934,939,943,946,948,953,956,959,964,973,1000,1026,1038,1047,1052,1066,1073,1080,1087,1097,1105],"ymouse":[527,527,527,527,527,527,527,527,527,527,527,527,527,527,527,527,527,527,527,527,527,527,527,527,527,527,527,527,527,527,527,527,527,527,527,527,527,527,527,527,527,527,527,527,527,527,527,527,527,527,527,527,527,527,527,527,527,527,527,527,527,527,527,527,527,527,527,527,527,527,527,527,527,527,527,527,527,527,527,527,527,527,527,527,527,527,527,527,527,527,527,527,527,527,527,519,493,471,452,415,395,372,351,332,298,288,279,269,262,252,247,243,237,228,208,196,191,187,183,169,161,152,141,120,97],"timestamp_mouse":[8,27,49,68,88,107,129,147,167,188,208,227,247,267,287,309,328,349,368,388,407,428,448,468,488,507,527,547,569,587,607,627,647,667,687,708,728,747,769,788,807,827,847,868,887,907,927,947,968,987,1007,1028,1047,1067,1087,1107,1127,1147,1168,1188,1207,1227,1248,1267,1287,1307,1327,1347,1368,1388,1408,1427,1447,1467,1488,1507,1527,1547,1567,1588,1608,1627,1649,1667,1688,1707,1727,1748,1768,1787,1807,1828,1847,1867,1887,1908,1927,1947,1968,1988,2007,2028,2047,2069,2087,2107,2127,2148,2167,2187,2207,2227,2248,2267,2287,2307,2327,2347,2367,2388,2407,2427,2447,2467,2487],"xSR":741.5,"ySR":469.95,"xT1":424.9,"yT1":0,"xT2":1058.1,"yT2":0,"toosoon":0,"cond_shown":"Incongruent","ratio_trial":100,"L_num":11,"L_den":22,"R_num":9,"R_den":15,"correct_side":2,"subjID":"charlottecaicedorestrepo36","gender":"1","school":"6","age":"11"},{"start_time":1551800587040,"click_time":1551800589347,"finger_time":1551800588646,"fix_duration":250,"trial":3,"RT":1606,"MT":701,"sideResp":1,"stimulus":[],"xmouse":[772,772,772,772,772,772,772,772,772,772,772,772,772,772,772,772,772,772,772,772,772,772,772,772,772,772,772,772,772,772,772,772,772,772,772,772,772,772,772,772,772,772,772,772,772,772,772,772,772,772,772,772,772,772,772,772,772,772,772,772,772,772,772,772,772,772,772,772,772,772,772,772,772,772,772,772,770,767,765,761,743,732,717,699,684,665,663,663,663,663,660,656,648,637,623,602,598,597,594,588,584,582,579,578,575,572,569,567,564,562,556,549,543,538,533,523],"ymouse":[528,528,528,528,528,528,528,528,528,528,528,528,528,528,528,528,528,528,528,528,528,528,528,528,528,528,528,528,528,528,528,528,528,528,528,528,528,528,528,528,528,528,528,528,528,528,528,528,528,528,528,528,528,528,528,528,528,528,528,528,528,528,528,528,528,528,528,528,528,528,528,528,528,528,528,525,507,495,487,477,447,431,415,394,376,353,352,352,352,351,348,343,336,323,309,288,285,283,281,270,262,257,252,246,239,227,221,215,208,196,158,142,128,117,104,83],"timestamp_mouse":[8,27,49,66,86,106,127,146,166,186,206,226,248,266,286,307,327,347,366,386,407,428,446,467,486,506,526,547,566,586,606,626,646,666,686,708,727,746,768,786,807,827,847,868,886,907,926,947,967,986,1007,1027,1047,1066,1087,1107,1126,1147,1167,1187,1206,1226,1247,1266,1286,1307,1327,1346,1366,1387,1406,1427,1447,1467,1488,1506,1526,1548,1567,1587,1606,1627,1646,1668,1686,1706,1726,1746,1768,1786,1807,1826,1846,1866,1886,1908,1926,1946,1966,1987,2006,2026,2046,2066,2086,2107,2127,2146,2167,2186,2207,2227,2246,2266,2286,2307],"xSR":741.5,"ySR":469.95,"xT1":424.9,"yT1":0,"xT2":1058.1,"yT2":0,"toosoon":0,"cond_shown":"Incongruent","ratio_trial":300,"L_num":7,"L_den":10,"R_num":8,"R_den":20,"correct_side":1,"subjID":"charlottecaicedorestrepo36","gender":"1","school":"6","age":"11"},{"start_time":1551800592845,"click_time":1551800598866,"finger_time":1551800598428,"fix_duration":1215.2749069581987,"trial":4,"RT":5583,"MT":438,"sideResp":1,"stimulus":[],"xmouse":[748,748,748,748,748,748,748,748,748,748,748,748,748,748,748,748,748,748,748,748,748,748,748,748,748,748,748,748,748,748,748,748,748,748,748,748,748,748,748,748,748,748,748,748,748,748,748,748,748,748,748,748,748,748,748,748,748,748,748,748,748,748,748,748,748,748,748,748,748,748,748,748,748,748,748,748,748,748,748,748,748,748,748,748,748,748,748,748,748,748,748,748,748,748,748,748,748,748,748,748,748,748,748,748,748,748,748,747,747,747,747,747,747,747,747,747,747,747,747,747,747,747,747,747,747,747,747,747,747,747,747,747,747,747,747,747,747,747,747,747,747,747,747,747,747,747,747,747,747,747,747,747,747,747,747,747,747,747,747,747,747,747,747,747,747,747,747,747,747,747,747,747,747,747,747,747,747,747,747,747,747,747,747,747,747,747,747,747,747,747,747,747,747,747,747,747,747,747,747,747,747,747,747,747,747,747,747,747,747,747,747,747,747,747,747,747,747,747,747,747,747,747,747,747,747,747,747,747,747,747,747,747,747,747,747,747,747,747,747,747,747,747,747,747,747,747,747,747,747,747,747,747,747,747,747,747,747,747,747,747,747,747,747,747,747,747,747,747,747,747,747,747,747,747,747,747,747,747,746,738,725,723,720,717,710,695,684,672,661,652,625,615,607,598,592,577,568,560,550,543,535,520],"ymouse":[538,538,538,538,538,538,538,538,538,538,538,538,538,538,538,538,538,538,538,538,538,538,538,538,538,538,538,538,538,538,538,538,538,538,538,538,538,538,538,538,538,538,538,538,538,538,538,538,538,538,538,538,538,538,538,538,538,538,538,538,538,538,538,538,538,538,538,538,538,538,538,538,538,538,538,538,538,538,538,538,538,538,538,538,538,538,538,538,538,538,538,538,538,538,538,538,538,538,538,538,538,538,538,537,535,523,512,511,510,509,509,509,509,509,509,509,509,509,509,509,509,509,509,509,509,509,509,509,509,509,509,509,509,509,509,509,509,509,509,509,509,509,509,509,509,509,509,509,509,509,509,509,509,509,509,509,509,509,509,509,509,509,509,509,509,509,509,509,509,509,509,509,509,509,509,509,509,509,509,509,509,509,509,509,509,509,509,509,509,509,509,509,509,509,509,509,509,509,509,509,509,509,509,509,509,509,509,509,509,509,509,509,509,509,509,509,509,509,509,509,509,509,509,509,509,509,509,509,509,509,509,509,509,509,509,509,509,509,509,509,509,509,509,509,509,509,509,509,509,509,509,509,509,509,509,509,509,509,509,509,509,509,509,509,509,509,509,509,509,509,509,509,509,509,509,509,509,508,506,496,480,477,474,470,461,436,417,396,377,359,307,286,266,246,229,192,172,150,128,110,93,58],"timestamp_mouse":[8,36,41,62,82,102,122,142,161,181,201,222,241,261,281,301,322,341,363,381,401,422,441,461,482,502,521,542,561,581,602,621,641,663,681,702,721,741,762,781,801,822,841,861,881,901,921,941,962,981,1001,1022,1041,1061,1081,1101,1122,1143,1161,1181,1202,1221,1242,1261,1283,1302,1321,1343,1361,1381,1402,1421,1442,1462,1482,1501,1522,1542,1563,1582,1602,1621,1643,1661,1681,1701,1721,1743,1761,1781,1802,1821,1842,1861,1882,1901,1922,1941,1961,1981,2002,2021,2041,2061,2081,2102,2121,2142,2161,2181,2202,2222,2241,2262,2282,2301,2321,2341,2361,2381,2401,2421,2442,2463,2482,2503,2522,2541,2561,2581,2602,2621,2642,2661,2681,2701,2722,2741,2762,2781,2802,2822,2843,2862,2881,2901,2921,2942,2961,2981,3002,3022,3043,3061,3081,3101,3122,3142,3162,3181,3201,3221,3242,3262,3282,3301,3322,3342,3361,3382,3401,3422,3442,3461,3482,3503,3522,3541,3561,3581,3601,3621,3641,3661,3681,3701,3723,3742,3761,3781,3801,3822,3842,3862,3881,3903,3921,3942,3961,3981,4003,4021,4042,4062,4081,4101,4121,4143,4161,4181,4201,4221,4242,4262,4281,4303,4323,4342,4362,4382,4402,4423,4442,4462,4482,4502,4523,4542,4562,4582,4601,4622,4643,4661,4682,4701,4721,4741,4761,4783,4802,4821,4842,4863,4882,4902,4923,4942,4962,4982,5003,5022,5042,5062,5082,5102,5122,5141,5163,5182,5201,5223,5242,5261,5281,5301,5321,5342,5362,5381,5402,5422,5442,5462,5481,5501,5522,5541,5562,5583,5601,5621,5641,5661,5681,5702,5721,5741,5762,5782,5801,5821,5841,5862,5882,5903,5921,5941,5962,5982,6002,6021],"xSR":741.5,"ySR":469.95,"xT1":424.9,"yT1":0,"xT2":1058.1,"yT2":0,"toosoon":0,"cond_shown":"Congruent","ratio_trial":100,"L_num":8,"L_den":16,"R_num":2,"R_den":5,"correct_side":1,"subjID":"charlottecaicedorestrepo36","gender":"1","school":"6","age":"11"},{"start_time":1551800602961,"click_time":1551800606147,"finger_time":1551800605407,"fix_duration":992.967974319866,"trial":5,"RT":2446,"MT":740,"sideResp":1,"stimulus":[],"xmouse":[786,786,786,786,786,786,786,786,786,786,786,786,786,786,786,786,786,786,786,786,786,786,786,786,786,786,786,786,786,786,786,786,786,786,786,786,786,786,786,786,786,786,786,786,786,786,786,786,786,786,786,786,786,786,786,786,786,786,786,786,786,786,786,786,786,786,786,786,786,786,786,786,786,786,786,786,786,786,786,786,786,786,786,786,786,786,786,786,786,786,786,786,786,786,786,786,786,786,786,786,786,786,786,786,786,786,786,786,786,786,786,786,786,786,786,786,786,786,786,774,763,753,743,726,718,705,700,695,690,676,667,659,651,642,624,618,612,606,600,591,588,585,583,578,566,560,553,548,545,542,539,534,531,527,521,520,520,517,510,499],"ymouse":[540,540,540,540,540,540,540,540,540,540,540,540,540,540,540,540,540,540,540,540,540,540,540,540,540,540,540,540,540,540,540,540,540,540,540,540,540,540,540,540,540,540,540,540,540,540,540,540,540,540,540,540,540,540,540,540,540,540,540,540,540,540,540,540,540,540,540,540,540,540,540,540,540,540,540,540,540,540,540,540,540,540,540,540,540,540,540,540,540,540,540,540,540,540,540,540,540,540,540,540,540,540,540,540,540,540,540,540,540,540,540,540,540,540,540,540,540,540,534,509,493,478,465,445,434,418,410,400,390,366,351,337,322,308,271,256,245,233,221,205,200,195,190,184,166,159,153,149,147,145,142,138,134,130,121,120,120,114,100,72],"timestamp_mouse":[8,25,46,66,86,107,126,145,166,185,206,226,246,266,287,305,326,345,365,386,406,426,446,466,486,506,525,545,566,585,607,626,646,667,686,706,727,745,766,785,805,827,846,866,885,905,925,945,966,987,1006,1026,1046,1065,1086,1105,1126,1145,1167,1185,1206,1226,1246,1265,1285,1305,1326,1347,1366,1386,1405,1427,1445,1466,1485,1505,1525,1547,1565,1586,1605,1626,1647,1666,1686,1705,1725,1746,1766,1785,1806,1825,1846,1866,1885,1905,1926,1947,1966,1986,2005,2025,2046,2067,2086,2106,2125,2146,2166,2185,2207,2226,2246,2266,2285,2305,2325,2347,2366,2386,2405,2425,2445,2467,2486,2506,2526,2545,2565,2585,2605,2625,2645,2665,2685,2705,2725,2745,2765,2786,2807,2825,2845,2865,2885,2905,2925,2945,2965,2986,3005,3026,3045,3066,3085,3105,3125,3146,3165,3185],"xSR":741.5,"ySR":469.95,"xT1":424.9,"yT1":0,"xT2":1058.1,"yT2":0,"toosoon":0,"cond_shown":"Congruent","ratio_trial":300,"L_num":1,"L_den":3,"R_num":19,"R_den":30,"correct_side":2,"subjID":"charlottecaicedorestrepo36","gender":"1","school":"6","age":"11"},{"start_time":1551800611298,"click_time":1551800614227,"finger_time":1551800613507,"fix_duration":250,"trial":6,"RT":2209,"MT":720,"sideResp":1,"stimulus":[],"xmouse":[787,787,787,787,787,787,787,787,787,787,787,787,787,787,787,787,787,787,787,787,787,787,787,787,787,787,787,787,787,787,787,787,787,787,787,787,787,787,787,787,787,787,787,787,787,787,787,787,787,787,787,787,787,787,787,787,787,787,787,787,787,787,787,787,787,787,787,787,787,787,787,787,787,787,787,787,787,787,787,787,787,787,787,787,787,787,787,787,787,787,787,787,787,787,787,787,787,787,787,787,787,787,787,787,787,787,787,787,790,790,788,781,752,733,716,701,686,657,653,651,648,643,636,631,625,617,605,596,582,581,579,578,575,570,567,563,559,550,545,543,542,542,535,530,523,517,512],"ymouse":[512,512,512,512,512,512,512,512,512,512,512,512,512,512,512,512,512,512,512,512,512,512,512,512,512,512,512,512,512,512,512,512,512,512,512,512,512,512,512,512,512,512,512,512,512,512,512,512,512,512,512,512,512,512,512,512,512,512,512,512,512,512,512,512,512,512,512,512,512,512,512,512,512,512,512,512,512,512,512,512,512,512,512,512,512,512,512,512,512,512,512,512,512,512,512,512,512,512,512,512,512,512,512,512,512,512,512,512,494,477,464,449,409,390,377,366,357,345,343,342,341,337,332,326,316,300,264,229,184,177,173,169,164,151,145,138,132,122,119,118,117,117,112,109,106,102,97],"timestamp_mouse":[10,36,49,70,89,109,130,148,168,190,209,229,248,268,290,308,328,349,368,388,408,428,448,468,488,508,528,550,569,589,609,628,648,668,688,709,729,748,768,790,810,829,849,868,889,909,928,948,969,988,1009,1029,1048,1068,1088,1109,1128,1149,1168,1188,1209,1228,1249,1269,1288,1309,1329,1348,1370,1389,1408,1428,1448,1469,1489,1508,1528,1549,1569,1590,1609,1628,1649,1669,1689,1708,1728,1748,1768,1788,1809,1828,1848,1869,1889,1909,1928,1948,1970,1989,2008,2028,2050,2068,2089,2108,2128,2148,2169,2189,2209,2228,2248,2268,2289,2308,2328,2349,2368,2390,2408,2428,2448,2468,2488,2508,2529,2549,2569,2588,2608,2628,2648,2668,2688,2708,2728,2749,2769,2788,2808,2828,2848,2868,2888,2908,2929],"xSR":741.5,"ySR":469.95,"xT1":424.9,"yT1":0,"xT2":1058.1,"yT2":0,"toosoon":0,"cond_shown":"Congruent","ratio_trial":300,"L_num":9,"L_den":10,"R_num":3,"R_den":5,"correct_side":1,"subjID":"charlottecaicedorestrepo36","gender":"1","school":"6","age":"11"},{"start_time":1551800617732,"click_time":1551800620446,"finger_time":1551800620146,"fix_duration":644.943455839624,"trial":7,"RT":2414,"MT":300,"sideResp":2,"stimulus":[],"xmouse":[774,774,774,774,774,774,774,774,774,774,774,774,774,774,774,774,774,774,774,774,774,774,774,774,774,774,774,774,774,774,774,774,774,774,774,774,774,774,774,774,774,774,774,774,774,774,774,774,774,774,774,774,774,774,774,774,774,774,774,774,774,774,774,774,774,774,774,774,774,774,774,774,774,774,774,774,774,774,774,774,774,774,774,774,774,774,774,774,774,774,774,774,774,774,774,774,774,774,774,774,774,774,774,774,774,774,774,774,774,774,774,774,774,774,774,774,774,774,777,784,827,848,865,885,897,928,942,957,977,995,1029,1045,1058,1073,1087,1106],"ymouse":[549,549,549,549,549,549,549,549,549,549,549,549,549,549,549,549,549,549,549,549,549,549,549,549,549,549,549,549,549,549,549,549,549,549,549,549,549,549,549,549,549,549,549,549,549,549,549,549,549,549,549,549,549,549,549,549,549,549,549,549,549,549,549,549,549,549,549,549,549,549,549,549,549,549,549,549,549,549,549,549,549,549,549,549,549,549,549,549,549,549,549,549,549,549,549,549,549,549,549,549,549,549,549,549,549,549,549,549,549,549,549,549,549,549,549,549,549,549,538,524,443,406,374,344,322,277,259,241,219,202,172,156,141,122,103,73],"timestamp_mouse":[14,34,55,74,94,114,134,155,174,194,215,234,254,274,295,314,334,354,374,395,414,434,454,475,494,514,534,554,575,594,614,634,654,675,695,714,735,754,774,794,815,834,854,875,895,914,934,954,974,994,1014,1034,1055,1074,1094,1114,1134,1155,1174,1194,1215,1235,1255,1274,1294,1315,1335,1354,1375,1396,1415,1434,1454,1474,1494,1515,1534,1555,1574,1594,1614,1635,1656,1675,1694,1715,1735,1755,1775,1795,1814,1835,1854,1874,1895,1914,1934,1955,1975,1994,2014,2035,2054,2074,2095,2115,2134,2154,2174,2194,2214,2235,2255,2275,2295,2314,2334,2355,2374,2394,2414,2434,2454,2475,2495,2514,2535,2554,2574,2594,2614,2634,2654,2674,2694,2714],"xSR":741.5,"ySR":469.95,"xT1":424.9,"yT1":0,"xT2":1058.1,"yT2":0,"toosoon":0,"cond_shown":"Congruent","ratio_trial":300,"L_num":4,"L_den":20,"R_num":13,"R_den":26,"correct_side":2,"subjID":"charlottecaicedorestrepo36","gender":"1","school":"6","age":"11"},{"start_time":1551800624358,"click_time":1551800626766,"finger_time":1551800626186,"fix_duration":250,"trial":8,"RT":1828,"MT":580,"sideResp":2,"stimulus":[],"xmouse":[798,798,798,798,798,798,798,798,798,798,798,798,798,798,798,798,798,798,798,798,798,798,798,798,798,798,798,798,798,798,798,798,798,798,798,798,798,798,798,798,798,798,798,798,798,798,798,798,798,798,798,798,798,798,798,798,798,798,798,798,798,798,798,798,798,798,798,798,798,798,798,798,798,798,798,798,798,798,798,798,798,798,798,798,798,798,798,798,798,798,798,820,858,895,942,952,959,963,968,975,979,984,988,988,991,996,1000,1003,1006,1015,1022,1032,1044,1049,1053,1062,1070,1083,1092,1098,1105],"ymouse":[532,532,532,532,532,532,532,532,532,532,532,532,532,532,532,532,532,532,532,532,532,532,532,532,532,532,532,532,532,532,532,532,532,532,532,532,532,532,532,532,532,532,532,532,532,532,532,532,532,532,532,532,532,532,532,532,532,532,532,532,532,532,532,532,532,532,532,532,532,532,532,532,532,532,532,532,532,532,532,532,532,532,532,532,532,532,532,532,532,532,519,468,399,337,264,249,239,235,229,221,218,214,211,210,206,202,198,196,193,185,179,171,162,158,156,147,139,127,119,112,99],"timestamp_mouse":[9,28,52,68,88,108,128,148,168,188,208,229,248,268,288,309,329,348,368,388,408,429,448,468,488,508,529,549,568,588,609,629,648,669,689,708,729,748,768,788,809,829,849,869,888,909,929,949,968,988,1009,1028,1048,1069,1088,1109,1129,1148,1168,1188,1208,1229,1248,1268,1288,1308,1328,1348,1368,1389,1408,1428,1448,1468,1488,1508,1528,1548,1569,1588,1608,1628,1648,1668,1690,1709,1728,1749,1768,1788,1808,1828,1848,1868,1889,1909,1928,1948,1968,1988,2008,2028,2049,2069,2088,2108,2128,2149,2168,2188,2208,2228,2249,2268,2288,2308,2329,2348,2368,2388,2408],"xSR":741.5,"ySR":469.95,"xT1":424.9,"yT1":0,"xT2":1058.1,"yT2":0,"toosoon":0,"cond_shown":"Incongruent","ratio_trial":200,"L_num":7,"L_den":15,"R_num":4,"R_den":6,"correct_side":2,"subjID":"charlottecaicedorestrepo36","gender":"1","school":"6","age":"11"},{"start_time":1551800630608,"click_time":1551800633047,"finger_time":1551800632046,"fix_duration":460.322422171643,"trial":9,"RT":1438,"MT":1001,"sideResp":1,"stimulus":[],"xmouse":[821,821,821,821,821,821,821,821,821,821,821,821,821,821,821,821,821,821,821,821,821,821,821,821,821,821,821,821,821,821,821,821,821,821,821,821,821,821,821,821,821,821,821,821,821,821,821,821,821,821,821,821,821,821,821,821,821,821,821,821,821,821,821,821,821,821,821,821,821,821,821,820,807,796,786,779,769,767,765,765,764,764,764,764,763,758,743,731,717,698,681,652,643,637,632,630,623,613,601,588,578,563,553,548,542,533,514,508,503,501,499,496,495,494,494,494,494,494,494,494,494,495],"ymouse":[482,482,482,482,482,482,482,482,482,482,482,482,482,482,482,482,482,482,482,482,482,482,482,482,482,482,482,482,482,482,482,482,482,482,482,482,482,482,482,482,482,482,482,482,482,482,482,482,482,482,482,482,482,482,482,482,482,482,482,482,482,482,482,482,482,482,482,482,482,482,481,449,410,383,362,350,337,333,331,330,329,329,329,329,329,323,310,302,291,281,272,259,255,252,250,249,242,234,225,216,208,195,184,176,167,155,134,129,124,121,119,114,112,111,111,111,111,111,111,111,109,82],"timestamp_mouse":[19,38,59,78,99,118,139,158,178,199,218,238,258,278,298,318,338,358,378,398,418,439,459,479,499,518,538,559,579,599,619,640,659,678,698,719,739,759,779,800,818,838,859,879,898,919,939,958,978,999,1018,1040,1058,1078,1098,1118,1138,1159,1179,1199,1218,1238,1259,1278,1298,1318,1340,1358,1379,1398,1418,1438,1458,1478,1498,1518,1538,1558,1578,1598,1618,1639,1658,1678,1698,1718,1738,1758,1778,1798,1820,1839,1858,1878,1898,1919,1938,1958,1978,1999,2018,2038,2057,2078,2098,2118,2138,2158,2178,2199,2219,2238,2258,2278,2298,2319,2338,2358,2378,2399,2419,2439],"xSR":741.5,"ySR":469.95,"xT1":424.9,"yT1":0,"xT2":1058.1,"yT2":0,"toosoon":0,"cond_shown":"Incongruent","ratio_trial":300,"L_num":8,"L_den":10,"R_num":9,"R_den":18,"correct_side":1,"subjID":"charlottecaicedorestrepo36","gender":"1","school":"6","age":"11"},{"start_time":1551800636634,"click_time":1551800640187,"finger_time":1551800639246,"fix_duration":1406.412835605515,"trial":10,"RT":2612,"MT":941,"sideResp":1,"stimulus":[],"xmouse":[798,798,798,798,798,798,798,798,798,798,798,798,798,798,798,798,798,798,798,798,798,798,798,798,798,798,798,798,798,798,798,798,798,798,798,798,798,798,798,798,798,798,798,798,798,798,798,798,798,798,798,798,798,798,798,798,798,798,798,798,798,798,798,798,798,798,798,798,798,798,798,798,798,798,798,798,798,798,798,798,798,798,798,798,798,798,798,798,798,798,798,798,798,798,798,798,798,798,798,798,798,798,798,798,798,798,798,798,798,798,798,798,798,798,798,798,798,798,798,798,798,798,798,798,798,798,798,798,785,754,737,646,622,608,598,595,593,589,583,568,563,542,539,539,538,534,532,530,527,524,521,519,517,514,512,509,507,505,505,505,505,507,508,509,509,509,509,509,509,509,509,509,509,509,509,509,509,509],"ymouse":[537,537,537,537,537,537,537,537,537,537,537,537,537,537,537,537,537,537,537,537,537,537,537,537,537,537,537,537,537,537,537,537,537,537,537,537,537,537,537,537,537,537,537,537,537,537,537,537,537,537,537,537,537,537,537,537,537,537,537,537,537,537,537,537,537,537,537,537,537,537,537,537,537,537,537,537,537,537,537,537,537,537,537,537,537,537,537,537,537,537,537,537,537,537,537,537,537,537,537,537,537,537,537,537,537,537,537,537,537,537,537,537,537,537,537,537,537,537,537,537,537,537,537,537,537,537,537,537,516,479,459,389,372,364,357,356,355,350,342,321,315,296,294,294,292,284,281,275,271,267,261,255,249,240,229,203,190,180,171,164,143,132,121,111,106,104,104,104,104,104,104,104,104,104,104,104,102,98],"timestamp_mouse":[12,33,61,72,92,113,133,153,172,193,213,232,253,273,292,313,332,353,372,392,412,433,453,473,492,514,532,552,573,592,613,632,653,673,692,713,733,752,773,793,813,833,852,872,893,913,932,952,972,993,1012,1033,1053,1072,1092,1113,1132,1152,1172,1193,1212,1232,1253,1272,1293,1312,1332,1353,1373,1392,1413,1432,1452,1473,1493,1514,1532,1552,1573,1593,1612,1632,1652,1672,1693,1714,1733,1753,1773,1792,1812,1832,1852,1872,1892,1912,1934,1953,1972,1992,2012,2032,2052,2072,2092,2112,2134,2152,2173,2192,2212,2232,2252,2272,2292,2312,2332,2352,2372,2392,2412,2432,2453,2473,2492,2513,2532,2552,2572,2592,2612,2633,2652,2672,2692,2712,2732,2752,2772,2792,2812,2832,2852,2873,2892,2913,2932,2952,2972,2993,3013,3032,3053,3073,3092,3112,3132,3153,3172,3192,3213,3232,3252,3272,3292,3313,3333,3352,3372,3392,3413,3432,3453,3472,3493,3512,3532,3552],"xSR":741.5,"ySR":469.95,"xT1":424.9,"yT1":0,"xT2":1058.1,"yT2":0,"toosoon":0,"cond_shown":"Congruent","ratio_trial":200,"L_num":8,"L_den":15,"R_num":2,"R_den":6,"correct_side":1,"subjID":"charlottecaicedorestrepo36","gender":"1","school":"6","age":"11"},{"start_time":1551800643416,"click_time":1551800645086,"finger_time":1551800644606,"fix_duration":508.6412264090692,"trial":11,"RT":1190,"MT":480,"sideResp":2,"stimulus":[],"xmouse":[792,792,792,792,792,792,792,792,792,792,792,792,792,792,792,792,792,792,792,792,792,792,792,792,792,792,792,792,792,792,792,792,792,792,792,792,792,792,792,792,792,792,792,792,792,792,792,792,792,792,792,792,792,792,792,792,792,793,801,821,845,887,894,901,908,913,925,931,937,940,946,957,962,970,980,990,1011,1022,1033,1041,1047,1069,1082,1099],"ymouse":[538,538,538,538,538,538,538,538,538,538,538,538,538,538,538,538,538,538,538,538,538,538,538,538,538,538,538,538,538,538,538,538,538,538,538,538,538,538,538,538,538,538,538,538,538,538,538,538,538,538,538,538,538,538,538,538,538,534,508,459,410,349,336,321,309,298,276,267,256,249,239,222,215,206,195,184,159,148,140,134,129,112,100,88],"timestamp_mouse":[11,37,50,70,90,110,130,151,170,191,210,230,251,270,292,310,330,351,371,390,411,430,450,470,490,511,531,551,570,591,611,630,651,671,691,710,731,752,771,790,810,830,850,870,890,910,931,950,970,991,1011,1030,1051,1071,1090,1111,1130,1150,1171,1190,1210,1230,1251,1270,1291,1310,1330,1350,1371,1390,1410,1430,1450,1470,1491,1510,1530,1550,1570,1591,1610,1630,1651,1670],"xSR":741.5,"ySR":469.95,"xT1":424.9,"yT1":0,"xT2":1058.1,"yT2":0,"toosoon":0,"cond_shown":"Incongruent","ratio_trial":200,"L_num":7,"L_den":15,"R_num":6,"R_den":9,"correct_side":2,"subjID":"charlottecaicedorestrepo36","gender":"1","school":"6","age":"11"},{"start_time":1551800649357,"click_time":1551800651766,"finger_time":1551800651046,"fix_duration":727.9681304634416,"trial":12,"RT":1689,"MT":720,"sideResp":2,"stimulus":[],"xmouse":[801,801,801,801,801,801,801,801,801,801,801,801,801,801,801,801,801,801,801,801,801,801,801,801,801,801,801,801,801,801,801,801,801,801,801,801,801,801,801,801,801,801,801,801,801,801,801,801,801,801,801,801,801,801,801,801,801,801,801,801,801,801,801,801,801,801,801,801,801,801,801,801,801,801,801,801,801,801,801,801,802,805,813,820,826,827,827,827,828,829,831,834,841,855,885,907,933,954,969,1000,1016,1034,1049,1062,1084,1088,1091,1093,1094,1094,1094,1094,1094,1095,1095,1097,1097,1098,1100,1100,1103],"ymouse":[537,537,537,537,537,537,537,537,537,537,537,537,537,537,537,537,537,537,537,537,537,537,537,537,537,537,537,537,537,537,537,537,537,537,537,537,537,537,537,537,537,537,537,537,537,537,537,537,537,537,537,537,537,537,537,537,537,537,537,537,537,537,537,537,537,537,537,537,537,537,537,537,537,537,537,537,537,537,537,537,533,521,492,471,450,446,444,444,443,439,436,429,419,398,359,333,301,274,257,221,206,192,182,173,152,148,144,142,141,141,141,140,139,138,135,128,124,119,111,104,86],"timestamp_mouse":[10,40,49,69,89,109,130,149,169,189,209,229,249,269,290,310,329,349,369,389,409,430,449,470,490,510,531,549,571,590,609,629,649,669,690,709,729,749,770,789,809,829,849,869,889,909,929,949,970,989,1010,1030,1049,1069,1089,1110,1130,1149,1169,1190,1209,1229,1249,1269,1289,1310,1329,1349,1369,1389,1410,1429,1449,1469,1490,1509,1529,1549,1569,1590,1610,1629,1650,1670,1689,1710,1729,1749,1769,1789,1809,1829,1849,1869,1889,1909,1929,1950,1969,1989,2010,2030,2050,2070,2089,2110,2130,2150,2169,2189,2209,2230,2249,2269,2289,2310,2330,2350,2371,2389,2409],"xSR":741.5,"ySR":469.95,"xT1":424.9,"yT1":0,"xT2":1058.1,"yT2":0,"toosoon":0,"cond_shown":"Incongruent","ratio_trial":100,"L_num":10,"L_den":25,"R_num":8,"R_den":16,"correct_side":2,"subjID":"charlottecaicedorestrepo36","gender":"1","school":"6","age":"11"},{"start_time":1551800655198,"click_time":1551800657726,"finger_time":1551800656626,"fix_duration":250,"trial":13,"RT":1428,"MT":1100,"sideResp":2,"stimulus":[],"xmouse":[830,830,830,830,830,830,830,830,830,830,830,830,830,830,830,830,830,830,830,830,830,830,830,830,830,830,830,830,830,830,830,830,830,830,830,830,830,830,830,830,830,830,830,830,830,830,830,830,830,830,830,830,830,830,830,830,830,830,830,830,830,830,830,830,830,830,830,830,832,835,841,847,858,863,868,874,885,922,946,965,980,1002,1039,1065,1090,1107,1127,1130,1130,1130,1130,1130,1130,1130,1130,1130,1130,1130,1130,1130,1130,1130,1130,1130,1130,1130,1130,1130,1130,1131,1131,1128,1122,1119,1118,1118,1116,1114,1114,1114,1113,1113,1113,1113,1113,1113,1113],"ymouse":[511,511,511,511,511,511,511,511,511,511,511,511,511,511,511,511,511,511,511,511,511,511,511,511,511,511,511,511,511,511,511,511,511,511,511,511,511,511,511,511,511,511,511,511,511,511,511,511,511,511,511,511,511,511,511,511,511,511,511,511,511,511,511,511,511,511,511,511,508,501,490,480,464,457,452,443,430,392,368,350,332,307,267,243,225,214,203,203,203,203,203,203,203,203,203,203,203,203,203,203,203,203,203,203,203,203,203,203,203,202,198,176,154,141,134,126,116,105,102,100,100,100,100,100,100,100,99],"timestamp_mouse":[8,28,48,69,89,109,129,148,168,188,209,228,249,268,289,308,329,348,368,388,408,429,448,469,489,508,528,549,569,588,608,629,648,668,688,708,728,749,768,788,808,828,848,869,889,908,928,949,969,989,1008,1028,1048,1068,1088,1108,1129,1148,1169,1188,1209,1228,1248,1268,1288,1308,1328,1349,1369,1388,1408,1428,1448,1469,1488,1508,1528,1549,1568,1589,1608,1628,1649,1668,1688,1709,1729,1748,1768,1788,1809,1828,1849,1868,1888,1909,1929,1948,1968,1989,2009,2028,2049,2068,2089,2108,2129,2149,2168,2188,2208,2228,2249,2268,2288,2308,2329,2349,2368,2388,2408,2429,2448,2469,2489,2509,2528],"xSR":741.5,"ySR":469.95,"xT1":424.9,"yT1":0,"xT2":1058.1,"yT2":0,"toosoon":0,"cond_shown":"Incongruent","ratio_trial":100,"L_num":13,"L_den":26,"R_num":12,"R_den":20,"correct_side":2,"subjID":"charlottecaicedorestrepo36","gender":"1","school":"6","age":"11"},{"start_time":1551800661649,"click_time":1551800663386,"finger_time":1551800662746,"fix_duration":1442.6694831250006,"trial":14,"RT":1097,"MT":640,"sideResp":2,"stimulus":[],"xmouse":[811,811,811,811,811,811,811,811,811,811,811,811,811,811,811,811,811,811,811,811,811,811,811,811,811,811,811,811,811,811,811,811,811,811,811,811,811,811,811,811,811,811,811,811,811,811,811,811,811,811,816,824,831,836,843,859,871,885,897,930,945,962,978,994,1021,1031,1042,1053,1069,1100,1107,1112,1119,1124,1132,1134,1134,1135,1135,1136,1136,1136,1136,1136,1133,1132,1130],"ymouse":[550,550,550,550,550,550,550,550,550,550,550,550,550,550,550,550,550,550,550,550,550,550,550,550,550,550,550,550,550,550,550,550,550,550,550,550,550,550,550,550,550,550,550,550,550,550,550,550,550,550,540,528,518,509,501,479,465,451,438,407,390,371,353,335,301,285,270,254,236,197,187,176,164,154,135,132,130,128,128,125,123,118,114,111,105,102,98],"timestamp_mouse":[32,37,58,77,98,118,137,158,178,197,217,237,257,278,298,317,339,357,378,397,418,439,458,478,498,517,539,557,577,597,618,637,670,677,697,719,737,757,777,797,817,837,858,878,898,918,937,959,978,998,1018,1037,1057,1077,1097,1117,1137,1158,1177,1197,1218,1237,1257,1277,1297,1317,1337,1357,1377,1397,1418,1437,1457,1477,1497,1517,1537,1558,1578,1597,1617,1638,1657,1678,1697,1717,1737],"xSR":741.5,"ySR":469.95,"xT1":424.9,"yT1":0,"xT2":1058.1,"yT2":0,"toosoon":0,"cond_shown":"Incongruent","ratio_trial":200,"L_num":7,"L_den":15,"R_num":4,"R_den":6,"correct_side":2,"subjID":"charlottecaicedorestrepo36","gender":"1","school":"6","age":"11"},{"start_time":1551800667984,"click_time":1551800670507,"finger_time":1551800670006,"fix_duration":936.1509166318546,"trial":15,"RT":2022,"MT":501,"sideResp":1,"stimulus":[],"xmouse":[811,811,811,811,811,811,811,811,811,811,811,811,811,811,811,811,811,811,811,811,811,811,811,811,811,811,811,811,811,811,811,811,811,811,811,811,811,811,811,811,811,811,811,811,811,811,811,811,811,811,811,811,811,811,811,811,811,811,811,811,811,811,811,811,811,811,811,811,811,811,811,811,811,811,811,811,811,811,811,811,811,811,811,811,811,811,811,811,811,811,811,811,811,811,811,811,811,811,800,787,773,760,746,737,710,696,682,664,629,616,605,598,589,570,560,552,546,542,542,542,542,542,542,541,535,526,517],"ymouse":[534,534,534,534,534,534,534,534,534,534,534,534,534,534,534,534,534,534,534,534,534,534,534,534,534,534,534,534,534,534,534,534,534,534,534,534,534,534,534,534,534,534,534,534,534,534,534,534,534,534,534,534,534,534,534,534,534,534,534,534,534,534,534,534,534,534,534,534,534,534,534,534,534,534,534,534,534,534,534,534,534,534,534,534,534,534,534,534,534,534,534,534,534,534,534,534,534,532,513,499,482,466,450,434,378,341,299,247,163,138,115,96,81,44,31,21,16,14,14,14,14,14,14,14,15,21,23],"timestamp_mouse":[11,22,42,63,82,102,122,142,162,183,202,222,242,263,282,302,322,342,362,384,402,422,442,462,482,503,522,542,562,582,602,622,642,662,683,702,722,743,762,782,802,822,842,862,882,902,923,942,962,983,1002,1022,1043,1063,1084,1102,1122,1142,1163,1182,1203,1223,1243,1264,1283,1302,1322,1342,1362,1383,1402,1422,1442,1462,1482,1502,1522,1542,1562,1582,1603,1622,1642,1663,1683,1702,1723,1742,1762,1782,1803,1822,1843,1863,1883,1902,1923,1942,1962,1983,2003,2022,2042,2062,2082,2102,2122,2142,2162,2182,2202,2222,2242,2262,2282,2302,2323,2342,2363,2383,2403,2423,2442,2462,2483,2501,2522],"xSR":741.5,"ySR":469.95,"xT1":424.9,"yT1":0,"xT2":1058.1,"yT2":0,"toosoon":0,"cond_shown":"Congruent","ratio_trial":100,"L_num":7,"L_den":14,"R_num":9,"R_den":15,"correct_side":2,"subjID":"charlottecaicedorestrepo36","gender":"1","school":"6","age":"11"},{"start_time":1551800673377,"click_time":1551800676807,"finger_time":1551800675846,"fix_duration":250,"trial":16,"RT":2469,"MT":961,"sideResp":2,"stimulus":[],"xmouse":[807,807,807,807,807,807,807,807,807,807,807,807,807,807,807,807,807,807,807,807,807,807,807,807,807,807,807,807,807,807,807,807,807,807,807,807,807,807,807,807,807,807,807,807,807,807,807,807,807,807,807,807,807,807,807,807,807,807,807,807,807,807,807,807,807,807,807,807,807,807,807,807,807,807,807,807,807,807,807,807,807,807,807,807,807,807,807,807,807,807,807,807,807,807,807,807,807,807,807,807,807,807,807,807,807,807,807,807,807,807,807,807,807,807,807,807,807,807,807,807,807,807,814,838,851,871,903,927,965,974,982,989,995,1007,1010,1014,1018,1021,1029,1035,1049,1064,1096,1146,1167,1180,1188,1191,1193,1194,1194,1194,1194,1194,1194,1194,1194,1194,1194,1194,1194,1194,1194,1194,1194,1194,1194,1194,1185,1175,1164,1151],"ymouse":[533,533,533,533,533,533,533,533,533,533,533,533,533,533,533,533,533,533,533,533,533,533,533,533,533,533,533,533,533,533,533,533,533,533,533,533,533,533,533,533,533,533,533,533,533,533,533,533,533,533,533,533,533,533,533,533,533,533,533,533,533,533,533,533,533,533,533,533,533,533,533,533,533,533,533,533,533,533,533,533,533,533,533,533,533,533,533,533,533,533,533,533,533,533,533,533,533,533,533,533,533,533,533,533,533,533,533,533,533,533,533,533,533,533,533,533,533,533,533,533,533,531,509,466,444,410,363,334,289,276,265,255,246,233,228,224,219,215,204,195,181,166,140,107,94,85,81,79,78,77,77,77,77,77,77,77,77,77,77,77,77,77,77,77,77,77,77,77,77,76,75,73],"timestamp_mouse":[9,38,49,70,90,109,129,149,170,190,210,229,250,270,289,309,331,350,370,390,410,429,449,469,489,510,529,550,569,590,610,629,649,670,689,709,729,749,770,789,809,829,849,870,889,909,929,950,969,989,1009,1029,1049,1069,1089,1110,1129,1150,1169,1189,1210,1229,1250,1269,1289,1309,1329,1350,1371,1389,1409,1429,1450,1469,1489,1510,1529,1549,1569,1589,1611,1629,1650,1669,1690,1710,1729,1749,1769,1789,1809,1829,1849,1869,1890,1909,1929,1950,1969,1990,2009,2029,2050,2069,2089,2110,2130,2150,2170,2189,2210,2230,2249,2269,2289,2309,2329,2350,2369,2390,2409,2429,2450,2469,2489,2509,2529,2549,2571,2589,2609,2629,2649,2670,2690,2710,2729,2749,2770,2789,2810,2829,2849,2869,2889,2909,2929,2949,2969,2990,3010,3029,3049,3070,3089,3109,3130,3150,3170,3189,3209,3230,3249,3270,3289,3310,3330,3349,3369,3389,3409,3430],"xSR":741.5,"ySR":469.95,"xT1":424.9,"yT1":0,"xT2":1058.1,"yT2":0,"toosoon":0,"cond_shown":"Congruent","ratio_trial":100,"L_num":15,"L_den":25,"R_num":13,"R_den":26,"correct_side":1,"subjID":"charlottecaicedorestrepo36","gender":"1","school":"6","age":"11"},{"start_time":1551800680580,"click_time":1551800682086,"finger_time":1551800681667,"fix_duration":1431.3793290988588,"trial":17,"RT":1087,"MT":419,"sideResp":2,"stimulus":[],"xmouse":[823,823,823,823,823,823,823,823,823,823,823,823,823,823,823,823,823,823,823,823,823,823,823,823,823,823,823,823,823,823,823,823,823,823,823,823,823,823,823,823,823,823,823,823,823,823,823,823,823,823,823,823,823,823,848,913,965,997,1031,1041,1048,1053,1056,1063,1065,1067,1068,1067,1067,1067,1067,1067,1067,1067,1071,1092],"ymouse":[495,495,495,495,495,495,495,495,495,495,495,495,495,495,495,495,495,495,495,495,495,495,495,495,495,495,495,495,495,495,495,495,495,495,495,495,495,495,495,495,495,495,495,495,495,495,495,495,495,495,495,495,495,495,479,453,427,402,349,323,305,292,281,246,229,211,200,199,196,196,196,196,196,196,141,37],"timestamp_mouse":[8,30,46,67,86,106,126,147,167,186,206,226,247,266,287,306,326,346,367,387,406,426,447,467,486,506,527,546,566,586,606,627,646,666,687,707,726,747,766,786,807,826,846,866,887,906,926,946,966,987,1006,1026,1047,1067,1087,1106,1127,1146,1166,1186,1205,1226,1246,1266,1286,1306,1327,1346,1367,1386,1406,1426,1446,1467,1486,1506],"xSR":741.5,"ySR":469.95,"xT1":424.9,"yT1":0,"xT2":1058.1,"yT2":0,"toosoon":0,"cond_shown":"Incongruent","ratio_trial":200,"L_num":9,"L_den":15,"R_num":8,"R_den":10,"correct_side":2,"subjID":"charlottecaicedorestrepo36","gender":"1","school":"6","age":"11"},{"start_time":1551800685083,"click_time":1551800688447,"finger_time":1551800686646,"fix_duration":636.0548601952072,"trial":18,"RT":1563,"MT":1801,"sideResp":2,"stimulus":[],"xmouse":[762,762,762,762,762,762,762,762,762,762,762,762,762,762,762,762,762,762,762,762,762,762,762,762,762,762,762,762,762,762,762,762,762,762,762,762,762,762,762,762,762,762,762,762,762,762,762,762,762,762,762,762,762,762,762,762,762,762,762,762,762,762,762,762,762,762,762,762,762,762,762,762,762,762,762,762,765,793,906,961,1001,1041,1067,1101,1112,1118,1122,1124,1135,1139,1142,1143,1144,1145,1145,1145,1145,1145,1145,1145,1145,1145,1145,1145,1145,1145,1145,1145,1146,1146,1146,1148,1149,1151,1153,1153,1154,1155,1157,1157,1157,1158,1158,1159,1159,1159,1159,1159,1159,1159,1159,1159,1159,1159,1160,1163,1163,1164,1165,1165,1165,1165,1165,1165,1165,1165,1165,1165,1165,1165,1165,1165,1165,1165,1165,1165,1163,1162,1159,1157,1154,1153,1152,1150,1148,1146,1144,1143,1142],"ymouse":[533,533,533,533,533,533,533,533,533,533,533,533,533,533,533,533,533,533,533,533,533,533,533,533,533,533,533,533,533,533,533,533,533,533,533,533,533,533,533,533,533,533,533,533,533,533,533,533,533,533,533,533,533,533,533,533,533,533,533,533,533,533,533,533,533,533,533,533,533,533,533,533,533,533,533,533,533,525,487,469,455,438,424,402,394,388,383,378,352,343,334,328,323,313,311,309,308,308,308,308,308,308,308,308,308,308,308,308,303,294,285,277,268,256,251,248,245,241,235,232,232,231,231,227,226,226,226,226,226,226,226,226,226,226,224,214,206,201,194,192,190,187,184,180,178,176,174,173,172,172,172,172,171,165,159,152,147,142,132,126,122,119,116,112,108,105,103,101,99],"timestamp_mouse":[8,23,44,63,84,103,123,144,163,183,203,224,244,264,284,303,323,343,364,384,404,423,443,464,484,503,523,544,564,583,604,623,643,663,683,703,723,743,763,783,803,824,843,864,884,903,924,943,963,984,1003,1023,1043,1063,1084,1104,1123,1143,1163,1183,1203,1223,1244,1263,1283,1304,1324,1344,1363,1383,1403,1424,1444,1464,1484,1504,1523,1543,1563,1583,1603,1623,1643,1664,1682,1703,1723,1743,1763,1783,1803,1824,1843,1863,1882,1904,1924,1943,1964,1983,2004,2022,2043,2064,2084,2104,2124,2143,2163,2183,2203,2224,2243,2263,2282,2304,2323,2343,2363,2384,2403,2423,2443,2464,2483,2503,2523,2544,2563,2583,2603,2623,2644,2663,2683,2704,2723,2744,2763,2783,2802,2823,2843,2863,2883,2904,2923,2944,2963,2984,3004,3023,3043,3063,3084,3102,3123,3144,3163,3184,3204,3223,3244,3263,3284,3304,3323,3344,3364],"xSR":741.5,"ySR":469.95,"xT1":424.9,"yT1":0,"xT2":1058.1,"yT2":0,"toosoon":0,"cond_shown":"Congruent","ratio_trial":200,"L_num":6,"L_den":20,"R_num":11,"R_den":22,"correct_side":2,"subjID":"charlottecaicedorestrepo36","gender":"1","school":"6","age":"11"},{"start_time":1551800691589,"click_time":1551800693286,"finger_time":1551800692846,"fix_duration":1261.0610514616856,"trial":19,"RT":1257,"MT":440,"sideResp":2,"stimulus":[],"xmouse":[812,812,812,812,812,812,812,812,812,812,812,812,812,812,812,812,812,812,812,812,812,812,812,812,812,812,812,812,812,812,812,812,812,812,812,812,812,812,812,812,812,812,812,812,812,812,812,812,812,812,812,812,812,812,812,812,812,812,812,812,819,828,887,914,938,957,972,992,1002,1006,1011,1012,1014,1021,1024,1027,1028,1034,1038,1041,1046,1051,1062,1067,1071],"ymouse":[552,552,552,552,552,552,552,552,552,552,552,552,552,552,552,552,552,552,552,552,552,552,552,552,552,552,552,552,552,552,552,552,552,552,552,552,552,552,552,552,552,552,552,552,552,552,552,552,552,552,552,552,552,552,552,552,552,552,552,552,536,521,429,386,352,327,306,269,253,244,237,232,226,212,204,198,192,179,170,161,148,137,110,102,94],"timestamp_mouse":[18,44,57,77,97,118,138,157,177,197,218,237,258,277,298,317,337,357,378,397,417,437,457,478,497,517,538,558,577,598,618,638,658,677,697,717,738,758,777,797,817,837,857,877,897,917,938,957,978,998,1017,1037,1057,1077,1097,1117,1137,1158,1178,1197,1217,1238,1257,1277,1297,1317,1337,1358,1377,1397,1417,1437,1457,1478,1496,1517,1537,1558,1576,1597,1617,1637,1657,1678,1697],"xSR":741.5,"ySR":469.95,"xT1":424.9,"yT1":0,"xT2":1058.1,"yT2":0,"toosoon":0,"cond_shown":"Congruent","ratio_trial":100,"L_num":2,"L_den":5,"R_num":11,"R_den":22,"correct_side":2,"subjID":"charlottecaicedorestrepo36","gender":"1","school":"6","age":"11"},{"start_time":1551800698600,"click_time":1551800701466,"finger_time":1551800700866,"fix_duration":412.6561600967146,"trial":20,"RT":2266,"MT":600,"sideResp":2,"stimulus":[],"xmouse":[834,834,834,834,834,834,834,834,834,834,834,834,834,834,834,834,834,834,834,834,834,834,834,834,834,834,834,834,834,834,834,834,834,834,834,834,834,834,834,834,834,834,834,834,834,834,834,834,834,834,834,834,834,834,834,834,834,834,834,834,834,834,834,834,834,834,834,834,834,834,834,834,834,834,834,834,834,834,834,834,834,834,834,834,834,834,834,834,834,834,834,834,834,834,834,834,834,834,834,834,834,834,834,834,834,834,834,834,834,834,834,834,834,843,884,931,969,993,994,994,994,994,994,994,995,995,995,998,1003,1008,1014,1025,1055,1062,1064,1066,1066,1066,1066,1066,1066,1066,1069,1070],"ymouse":[530,530,530,530,530,530,530,530,530,530,530,530,530,530,530,530,530,530,530,530,530,530,530,530,530,530,530,530,530,530,530,530,530,530,530,530,530,530,530,530,530,530,530,530,530,530,530,530,530,530,530,530,530,530,530,530,530,530,530,530,530,530,530,530,530,530,530,530,530,530,530,530,530,530,530,530,530,530,530,530,530,530,530,530,530,530,530,530,530,530,530,530,530,530,530,530,530,530,530,530,530,530,530,530,530,530,530,530,530,530,530,530,530,511,437,346,280,241,238,238,238,238,238,238,237,237,237,227,217,206,189,170,124,116,112,110,109,108,108,108,108,108,100,94],"timestamp_mouse":[8,41,46,66,86,107,127,146,166,187,206,226,246,266,286,306,327,348,366,387,407,426,446,466,486,506,526,547,566,586,606,626,647,666,687,706,726,746,766,787,807,826,846,866,886,907,927,946,966,986,1007,1026,1046,1066,1087,1106,1126,1147,1166,1187,1206,1226,1246,1266,1286,1306,1326,1346,1367,1387,1407,1426,1447,1466,1486,1507,1526,1546,1566,1587,1606,1627,1646,1668,1687,1706,1726,1746,1766,1786,1806,1826,1847,1866,1887,1906,1926,1947,1966,1987,2007,2026,2046,2066,2087,2106,2126,2147,2166,2187,2206,2226,2246,2266,2286,2306,2326,2346,2366,2387,2406,2427,2446,2467,2486,2506,2525,2546,2566,2586,2606,2626,2646,2666,2686,2706,2726,2747,2767,2786,2806,2827,2846,2866],"xSR":741.5,"ySR":469.95,"xT1":424.9,"yT1":0,"xT2":1058.1,"yT2":0,"toosoon":0,"cond_shown":"Incongruent","ratio_trial":100,"L_num":17,"L_den":30,"R_num":10,"R_den":15,"correct_side":2,"subjID":"charlottecaicedorestrepo36","gender":"1","school":"6","age":"11"},{"start_time":1551800705480,"click_time":1551800707487,"finger_time":1551800706446,"fix_duration":1251.5227497412432,"trial":21,"RT":966,"MT":1041,"sideResp":2,"stimulus":[],"xmouse":[804,804,804,804,804,804,804,804,804,804,804,804,804,804,804,804,804,804,804,804,804,804,804,804,804,804,804,804,804,804,804,804,804,804,804,804,804,804,804,804,804,804,804,804,804,808,815,832,869,878,886,891,895,904,906,907,908,909,913,914,915,917,920,925,942,953,967,984,1004,1039,1052,1062,1069,1077,1079,1079,1079,1079,1079,1079,1081,1081,1083,1083,1083,1083,1083,1084,1085,1086,1086,1087,1087,1092,1095,1097,1098,1099,1101,1102,1103],"ymouse":[557,557,557,557,557,557,557,557,557,557,557,557,557,557,557,557,557,557,557,557,557,557,557,557,557,557,557,557,557,557,557,557,557,557,557,557,557,557,557,557,557,557,557,557,557,553,542,512,460,448,439,431,426,411,407,404,403,399,390,388,387,384,378,370,347,332,312,291,267,220,204,192,185,175,171,170,170,170,170,170,166,162,159,159,159,159,157,154,146,142,140,136,131,120,115,111,110,108,103,101,99],"timestamp_mouse":[11,30,47,66,86,106,127,146,166,186,206,226,246,266,286,306,326,347,367,386,406,427,447,466,486,507,527,547,567,588,606,627,646,667,686,707,726,746,766,787,806,827,847,867,886,906,926,947,966,986,1005,1027,1046,1067,1086,1106,1126,1147,1167,1186,1206,1226,1247,1265,1286,1306,1326,1346,1367,1386,1407,1426,1446,1466,1486,1506,1526,1547,1566,1587,1606,1626,1647,1667,1687,1707,1727,1747,1766,1786,1806,1826,1846,1866,1886,1907,1926,1947,1966,1986,2007],"xSR":741.5,"ySR":469.95,"xT1":424.9,"yT1":0,"xT2":1058.1,"yT2":0,"toosoon":0,"cond_shown":"Incongruent","ratio_trial":200,"L_num":9,"L_den":15,"R_num":8,"R_den":10,"correct_side":2,"subjID":"charlottecaicedorestrepo36","gender":"1","school":"6","age":"11"},{"start_time":1551800711098,"click_time":1551800715526,"finger_time":1551800714886,"fix_duration":250,"trial":22,"RT":3788,"MT":640,"sideResp":2,"stimulus":[],"xmouse":[786,786,786,786,786,786,786,786,786,786,786,786,786,786,786,786,786,786,786,786,786,786,786,786,786,786,786,786,786,786,786,786,786,786,786,786,786,786,786,786,786,786,786,786,786,786,786,786,786,786,786,786,786,786,786,786,786,786,786,786,786,786,786,786,786,786,786,786,786,786,786,786,786,786,786,786,786,786,786,786,786,786,786,786,786,786,786,786,786,786,786,786,786,786,786,786,786,786,786,786,786,786,786,786,786,786,786,786,786,786,786,786,786,786,786,786,786,786,786,786,786,786,786,786,786,786,786,786,786,786,786,786,786,786,786,786,786,786,786,786,786,786,786,786,786,786,786,786,786,786,786,786,786,786,786,786,786,786,786,786,786,786,786,786,786,786,786,786,786,786,786,786,786,786,786,786,786,786,786,786,786,786,786,786,786,786,786,788,832,882,929,953,973,977,979,979,981,996,1006,1020,1031,1042,1059,1068,1075,1080,1085,1095,1097,1099,1100,1101,1101,1101,1101,1101,1101,1102,1104,1107,1109,1115],"ymouse":[556,556,556,556,556,556,556,556,556,556,556,556,556,556,556,556,556,556,556,556,556,556,556,556,556,556,556,556,556,556,556,556,556,556,556,556,556,556,556,556,556,556,556,556,556,556,556,556,556,556,556,556,556,556,556,556,556,556,556,556,556,556,556,556,556,556,556,556,556,556,556,556,556,556,556,556,556,556,556,556,556,556,556,556,556,556,556,556,556,556,556,556,556,556,556,556,556,556,556,556,556,556,556,556,556,556,556,556,556,556,556,556,556,556,556,556,556,556,556,556,556,556,556,556,556,556,556,556,556,556,556,556,556,556,556,556,556,556,556,556,556,556,556,556,556,556,556,556,556,556,556,556,556,556,556,556,556,556,556,556,556,556,556,556,556,556,556,556,556,556,556,556,556,556,556,556,556,556,556,556,556,556,556,556,556,556,556,554,514,477,444,427,414,411,410,410,410,401,393,380,366,351,323,305,285,267,249,214,202,189,180,174,172,171,171,171,171,164,149,134,118,96],"timestamp_mouse":[8,35,49,69,88,108,129,148,168,188,208,229,248,268,288,309,328,349,369,388,408,428,448,469,488,508,529,548,568,588,608,628,648,669,688,709,729,750,769,788,808,828,849,869,888,908,929,948,968,989,1008,1028,1049,1068,1088,1109,1128,1148,1169,1189,1208,1229,1248,1269,1288,1309,1329,1348,1369,1388,1409,1429,1449,1468,1489,1508,1529,1548,1568,1588,1609,1629,1648,1669,1689,1709,1729,1748,1768,1788,1808,1828,1848,1868,1888,1908,1929,1948,1968,1989,2009,2028,2048,2068,2088,2109,2128,2148,2168,2189,2209,2229,2248,2268,2288,2308,2328,2349,2369,2389,2408,2429,2448,2469,2489,2508,2528,2548,2568,2588,2608,2628,2648,2668,2688,2709,2728,2749,2769,2788,2808,2828,2848,2868,2888,2908,2928,2948,2968,2988,3009,3028,3048,3068,3088,3109,3128,3148,3168,3189,3208,3229,3249,3269,3289,3308,3328,3348,3369,3389,3408,3428,3449,3469,3489,3509,3529,3548,3569,3589,3609,3629,3649,3669,3689,3708,3729,3747,3769,3788,3808,3828,3849,3867,3888,3908,3929,3948,3968,3988,4008,4028,4048,4067,4088,4108,4129,4149,4168,4188,4209,4228,4248,4269,4289,4309,4329,4348,4369,4388,4407,4428],"xSR":741.5,"ySR":469.95,"xT1":424.9,"yT1":0,"xT2":1058.1,"yT2":0,"toosoon":0,"cond_shown":"Congruent","ratio_trial":100,"L_num":3,"L_den":20,"R_num":4,"R_den":16,"correct_side":2,"subjID":"charlottecaicedorestrepo36","gender":"1","school":"6","age":"11"},{"start_time":1551800719588,"click_time":1551800721867,"finger_time":1551800721046,"fix_duration":1101.2790391933477,"trial":23,"RT":1458,"MT":821,"sideResp":2,"stimulus":[],"xmouse":[796,796,796,796,796,796,796,796,796,796,796,796,796,796,796,796,796,796,796,796,796,796,796,796,796,796,796,796,796,796,796,796,796,796,796,796,796,796,796,796,796,796,796,796,796,796,796,796,796,796,796,796,796,796,796,796,796,796,796,796,796,796,796,796,796,796,796,797,808,820,827,834,845,847,850,856,866,876,905,924,944,961,983,1017,1024,1032,1038,1050,1055,1063,1070,1077,1090,1094,1097,1101,1102,1103,1104,1105,1107,1107,1109,1109,1109,1110,1110,1112,1112,1112,1112,1112,1112,1112],"ymouse":[540,540,540,540,540,540,540,540,540,540,540,540,540,540,540,540,540,540,540,540,540,540,540,540,540,540,540,540,540,540,540,540,540,540,540,540,540,540,540,540,540,540,540,540,540,540,540,540,540,540,540,540,540,540,540,540,540,540,540,540,540,540,540,540,540,540,540,539,522,504,491,479,463,460,455,447,435,424,397,380,359,338,317,281,271,263,256,244,238,227,215,203,180,170,163,154,151,149,147,143,139,135,126,124,122,117,114,106,104,103,103,103,100,96],"timestamp_mouse":[19,40,58,77,99,118,139,158,178,199,218,238,259,278,298,318,338,358,378,399,419,438,458,479,498,518,538,558,578,598,618,639,659,678,699,718,738,758,778,798,818,838,859,878,898,918,939,958,979,999,1018,1039,1059,1079,1099,1119,1138,1159,1178,1199,1218,1238,1258,1278,1299,1318,1339,1358,1378,1399,1418,1439,1458,1478,1498,1518,1538,1559,1578,1598,1618,1637,1658,1678,1699,1717,1738,1758,1779,1798,1819,1839,1858,1878,1898,1918,1939,1958,1978,1998,2019,2038,2059,2079,2098,2118,2138,2158,2178,2199,2218,2239,2258,2278],"xSR":741.5,"ySR":469.95,"xT1":424.9,"yT1":0,"xT2":1058.1,"yT2":0,"toosoon":0,"cond_shown":"Congruent","ratio_trial":300,"L_num":3,"L_den":12,"R_num":11,"R_den":20,"correct_side":2,"subjID":"charlottecaicedorestrepo36","gender":"1","school":"6","age":"11"},{"start_time":1551800725717,"click_time":1551800727407,"finger_time":1551800726786,"fix_duration":308.00265086484836,"trial":24,"RT":1069,"MT":621,"sideResp":2,"stimulus":[],"xmouse":[789,789,789,789,789,789,789,789,789,789,789,789,789,789,789,789,789,789,789,789,789,789,789,789,789,789,789,789,789,789,789,789,789,789,789,789,789,789,789,789,789,789,789,789,789,789,789,789,789,789,789,796,816,850,877,896,928,940,953,963,970,976,977,978,979,980,988,993,999,1006,1012,1023,1027,1033,1037,1042,1053,1056,1059,1061,1063,1073,1079,1088,1094],"ymouse":[532,532,532,532,532,532,532,532,532,532,532,532,532,532,532,532,532,532,532,532,532,532,532,532,532,532,532,532,532,532,532,532,532,532,532,532,532,532,532,532,532,532,532,532,532,532,532,532,532,532,532,519,500,473,455,441,415,402,388,376,367,361,358,358,356,354,341,332,320,307,294,273,264,252,243,230,205,197,187,178,172,144,123,102,87],"timestamp_mouse":[9,29,63,69,90,109,129,149,170,188,209,229,250,269,290,309,330,349,370,390,409,429,450,469,490,510,529,550,569,589,610,630,650,669,690,710,729,749,770,789,810,829,850,869,890,909,929,949,970,990,1009,1030,1048,1069,1089,1109,1129,1149,1168,1189,1209,1229,1249,1269,1288,1310,1329,1349,1368,1390,1409,1429,1449,1469,1488,1509,1529,1549,1569,1589,1610,1629,1649,1669,1690],"xSR":741.5,"ySR":469.95,"xT1":424.9,"yT1":0,"xT2":1058.1,"yT2":0,"toosoon":0,"cond_shown":"Incongruent","ratio_trial":300,"L_num":13,"L_den":26,"R_num":12,"R_den":15,"correct_side":2,"subjID":"charlottecaicedorestrepo36","gender":"1","school":"6","age":"11"},{"start_time":1551800732542,"click_time":1551800734607,"finger_time":1551800734085,"fix_duration":694.7309332525922,"trial":25,"RT":1543,"MT":522,"sideResp":2,"stimulus":[],"xmouse":[793,793,793,793,793,793,793,793,793,793,793,793,793,793,793,793,793,793,793,793,793,793,793,793,793,793,793,793,793,793,793,793,793,793,793,793,793,793,793,793,793,793,793,793,793,793,793,793,793,793,793,793,793,793,793,793,793,793,793,793,793,793,793,793,793,793,793,793,793,793,793,793,793,793,793,794,821,849,870,896,928,930,930,930,930,930,933,944,958,971,985,991,995,999,1001,1004,1005,1009,1013,1023,1044,1067,1091,1110],"ymouse":[551,551,551,551,551,551,551,551,551,551,551,551,551,551,551,551,551,551,551,551,551,551,551,551,551,551,551,551,551,551,551,551,551,551,551,551,551,551,551,551,551,551,551,551,551,551,551,551,551,551,551,551,551,551,551,551,551,551,551,551,551,551,551,551,551,551,551,551,551,551,551,551,551,551,548,545,516,487,470,448,424,422,422,422,422,422,420,405,385,365,336,323,315,307,301,294,289,281,271,251,206,161,116,84],"timestamp_mouse":[11,37,44,64,85,104,125,145,165,185,205,225,244,264,284,305,324,345,365,384,404,424,444,465,484,505,526,545,564,585,604,624,644,664,684,704,725,743,764,784,804,825,844,865,884,905,924,945,964,984,1004,1024,1044,1065,1084,1104,1124,1144,1164,1184,1204,1224,1244,1264,1284,1303,1325,1345,1364,1384,1404,1425,1445,1464,1483,1504,1524,1543,1564,1584,1604,1624,1644,1664,1684,1705,1725,1744,1764,1784,1804,1824,1844,1864,1884,1905,1924,1944,1964,1984,2004,2024,2044,2064],"xSR":741.5,"ySR":469.95,"xT1":424.9,"yT1":0,"xT2":1058.1,"yT2":0,"toosoon":0,"cond_shown":"Congruent","ratio_trial":300,"L_num":2,"L_den":10,"R_num":12,"R_den":24,"correct_side":2,"subjID":"charlottecaicedorestrepo36","gender":"1","school":"6","age":"11"},{"start_time":1551800739636,"click_time":1551800741967,"finger_time":1551800740666,"fix_duration":1388.4604603284695,"trial":26,"RT":1030,"MT":1301,"sideResp":2,"stimulus":[],"xmouse":[786,786,786,786,786,786,786,786,786,786,786,786,786,786,786,786,786,786,786,786,786,786,786,786,786,786,786,786,786,786,786,786,786,786,786,786,786,786,786,786,786,786,786,786,786,797,808,817,824,831,836,855,865,874,881,898,906,913,919,923,929,930,930,930,931,937,945,952,963,974,998,1004,1009,1010,1012,1012,1012,1014,1016,1021,1032,1036,1040,1045,1048,1052,1054,1058,1066,1076,1091,1097,1100,1103,1105,1108,1108,1108,1108,1108,1108,1108,1108,1108,1108,1108,1108,1108,1108,1108,1108,1108,1108,1108,1108,1108,1108],"ymouse":[559,559,559,559,559,559,559,559,559,559,559,559,559,559,559,559,559,559,559,559,559,559,559,559,559,559,559,559,559,559,559,559,559,559,559,559,559,559,559,559,559,559,559,559,559,545,531,520,512,504,495,469,458,447,439,415,404,395,391,389,387,386,386,386,386,380,371,363,354,345,311,295,286,282,279,277,276,273,268,261,246,242,237,234,232,230,229,226,217,203,180,170,159,148,142,133,131,131,131,131,131,131,131,128,124,117,114,112,109,107,107,105,103,103,103,102,96],"timestamp_mouse":[10,44,50,70,91,110,130,150,170,190,211,231,250,270,290,310,330,351,371,391,411,431,450,471,490,511,531,551,570,591,610,630,651,671,691,711,731,750,770,791,811,831,850,870,890,910,929,952,971,992,1011,1030,1051,1072,1091,1111,1130,1150,1171,1191,1211,1231,1251,1270,1291,1311,1331,1351,1371,1390,1412,1430,1450,1471,1491,1512,1530,1551,1571,1590,1612,1632,1651,1672,1691,1711,1730,1751,1771,1792,1811,1830,1850,1871,1891,1911,1931,1950,1972,1992,2012,2031,2050,2072,2091,2111,2131,2151,2171,2191,2210,2231,2251,2271,2290,2311,2331],"xSR":741.5,"ySR":469.95,"xT1":424.9,"yT1":0,"xT2":1058.1,"yT2":0,"toosoon":0,"cond_shown":"Incongruent","ratio_trial":200,"L_num":9,"L_den":15,"R_num":8,"R_den":10,"correct_side":2,"subjID":"charlottecaicedorestrepo36","gender":"1","school":"6","age":"11"},{"start_time":1551800745311,"click_time":1551800748607,"finger_time":1551800747508,"fix_duration":922.691886630094,"trial":27,"RT":2197,"MT":1099,"sideResp":1,"stimulus":[],"xmouse":[786,786,786,786,786,786,786,786,786,786,786,786,786,786,786,786,786,786,786,786,786,786,786,786,786,786,786,786,786,786,786,786,786,786,786,786,786,786,786,786,786,786,786,786,786,786,786,786,786,786,786,786,786,786,786,786,786,786,786,786,786,786,786,786,786,786,786,786,786,786,786,786,786,786,786,786,786,786,786,786,786,786,786,786,786,786,786,786,786,786,786,786,786,786,786,786,786,786,786,786,786,786,786,786,786,786,786,786,776,763,750,732,729,728,727,725,718,714,712,709,704,696,694,692,691,688,685,682,680,675,672,660,654,651,649,645,636,636,636,636,636,636,636,636,636,636,636,636,636,636,636,627,618,609,601,591,559,545,530,521,520,520,520,519,513],"ymouse":[530,530,530,530,530,530,530,530,530,530,530,530,530,530,530,530,530,530,530,530,530,530,530,530,530,530,530,530,530,530,530,530,530,530,530,530,530,530,530,530,530,530,530,530,530,530,530,530,530,530,530,530,530,530,530,530,530,530,530,530,530,530,530,530,530,530,530,530,530,530,530,530,530,530,530,530,530,530,530,530,530,530,530,530,530,530,530,530,530,530,530,530,530,530,530,530,530,530,530,530,530,530,530,529,529,529,529,522,490,456,429,393,389,385,383,376,352,335,315,292,264,211,194,180,171,165,156,150,144,135,126,108,101,97,95,91,84,84,84,84,84,84,84,84,84,84,84,84,84,84,84,86,90,92,93,93,95,97,101,102,102,102,102,102,99],"timestamp_mouse":[16,36,67,77,96,117,137,157,176,197,216,236,255,276,297,315,336,357,375,396,416,436,456,476,496,515,536,556,576,596,616,636,656,677,696,716,736,756,776,796,816,836,856,875,895,915,935,955,975,995,1015,1035,1055,1075,1095,1115,1135,1156,1176,1196,1217,1237,1256,1276,1296,1316,1337,1356,1377,1396,1416,1436,1457,1477,1497,1517,1535,1557,1576,1597,1617,1637,1655,1676,1695,1717,1737,1755,1776,1796,1816,1837,1855,1876,1897,1915,1937,1957,1976,1997,2016,2037,2056,2076,2096,2117,2136,2156,2175,2197,2216,2236,2255,2276,2296,2316,2336,2355,2376,2397,2416,2436,2456,2476,2496,2516,2536,2555,2576,2596,2615,2637,2655,2676,2696,2717,2736,2755,2775,2797,2817,2836,2857,2877,2896,2917,2936,2955,2975,2996,3015,3036,3056,3076,3096,3115,3137,3156,3176,3195,3216,3236,3256,3276,3296],"xSR":741.5,"ySR":469.95,"xT1":424.9,"yT1":0,"xT2":1058.1,"yT2":0,"toosoon":0,"cond_shown":"Congruent","ratio_trial":100,"L_num":9,"L_den":15,"R_num":8,"R_den":16,"correct_side":1,"subjID":"charlottecaicedorestrepo36","gender":"1","school":"6","age":"11"},{"start_time":1551800750078,"click_time":1551800752728,"finger_time":1551800752347,"fix_duration":250,"trial":28,"RT":2269,"MT":381,"sideResp":1,"stimulus":[],"xmouse":[773,773,773,773,773,773,773,773,773,773,773,773,773,773,773,773,773,773,773,773,773,773,773,773,773,773,773,773,773,773,773,773,773,773,773,773,773,773,773,773,773,773,773,773,773,773,773,773,773,773,773,773,773,773,773,773,773,773,773,773,773,773,773,773,773,773,773,773,773,773,773,773,773,773,773,773,773,773,773,773,773,773,773,773,773,773,773,773,773,773,773,773,773,773,773,773,773,773,773,773,773,773,773,773,773,773,773,773,773,773,773,776,779,780,751,717,683,658,618,606,597,591,586,581,563,554,548,545,542,539,534,527,520],"ymouse":[519,519,519,519,519,519,519,519,519,519,519,519,519,519,519,519,519,519,519,519,519,519,519,519,519,519,519,519,519,519,519,519,519,519,519,519,519,519,519,519,519,519,519,519,519,519,519,519,519,519,519,519,519,519,519,519,519,519,519,519,519,519,519,519,519,519,519,519,519,519,519,519,519,519,519,519,519,519,519,519,519,519,519,519,519,519,519,519,519,519,519,519,519,519,519,519,519,519,519,519,519,519,519,519,519,519,519,519,519,519,519,514,495,448,345,300,271,255,227,217,208,201,195,187,163,152,144,140,135,126,116,106,98],"timestamp_mouse":[8,30,49,69,89,108,129,150,169,188,208,230,249,269,290,308,328,349,370,388,409,429,450,469,488,509,530,549,570,588,608,630,650,669,690,708,730,749,769,789,808,829,849,870,889,909,929,950,968,989,1009,1030,1049,1070,1089,1110,1129,1149,1169,1189,1209,1229,1249,1269,1290,1308,1329,1348,1368,1388,1408,1428,1449,1470,1490,1510,1529,1550,1570,1589,1610,1629,1650,1668,1688,1708,1729,1748,1768,1788,1808,1828,1848,1868,1888,1908,1928,1948,1969,1988,2008,2028,2048,2068,2088,2108,2128,2148,2168,2188,2209,2230,2249,2269,2290,2310,2329,2349,2369,2389,2410,2430,2449,2469,2489,2510,2529,2549,2569,2590,2610,2630,2650],"xSR":741.5,"ySR":469.95,"xT1":424.9,"yT1":0,"xT2":1058.1,"yT2":0,"toosoon":0,"cond_shown":"Incongruent","ratio_trial":100,"L_num":9,"L_den":15,"R_num":14,"R_den":28,"correct_side":1,"subjID":"charlottecaicedorestrepo36","gender":"1","school":"6","age":"11"},{"start_time":1551800756636,"click_time":1551800758607,"finger_time":1551800757906,"fix_duration":1427.2684040430438,"trial":29,"RT":1270,"MT":701,"sideResp":1,"stimulus":[],"xmouse":[812,812,812,812,812,812,812,812,812,812,812,812,812,812,812,812,812,812,812,812,812,812,812,812,812,812,812,812,812,812,812,812,812,812,812,812,812,812,812,812,812,812,812,812,812,812,812,812,812,812,812,812,812,812,812,812,812,812,812,812,812,812,812,807,788,753,743,736,731,727,719,715,708,702,694,684,679,675,671,669,658,650,639,630,624,611,606,600,591,582,573,566,565,565,565,556,547,533,522],"ymouse":[542,542,542,542,542,542,542,542,542,542,542,542,542,542,542,542,542,542,542,542,542,542,542,542,542,542,542,542,542,542,542,542,542,542,542,542,542,542,542,542,542,542,542,542,542,542,542,542,542,542,542,542,542,542,542,542,542,542,542,542,542,527,475,414,351,253,228,210,197,187,157,144,130,115,103,89,86,84,83,82,82,82,82,81,81,81,81,83,86,89,93,96,96,96,96,99,99,99,97],"timestamp_mouse":[11,41,51,71,91,112,132,151,171,192,211,232,250,271,292,312,330,352,371,391,412,432,452,472,490,510,532,551,572,592,611,631,651,670,692,711,731,750,771,791,811,832,850,871,892,912,932,952,971,991,1011,1032,1050,1071,1091,1110,1131,1152,1172,1191,1212,1231,1250,1270,1290,1310,1330,1352,1370,1392,1410,1431,1451,1472,1491,1511,1532,1551,1571,1592,1612,1631,1652,1671,1691,1711,1730,1751,1771,1790,1811,1831,1851,1871,1891,1911,1932,1951,1971],"xSR":741.5,"ySR":469.95,"xT1":424.9,"yT1":0,"xT2":1058.1,"yT2":0,"toosoon":0,"cond_shown":"Incongruent","ratio_trial":100,"L_num":1,"L_den":2,"R_num":8,"R_den":20,"correct_side":1,"subjID":"charlottecaicedorestrepo36","gender":"1","school":"6","age":"11"},{"start_time":1551800765404,"click_time":1551800768867,"finger_time":1551800767927,"fix_duration":1476.2831995143592,"trial":30,"RT":2523,"MT":940,"sideResp":1,"stimulus":[],"xmouse":[810,810,810,810,810,810,810,810,810,810,810,810,810,810,810,810,810,810,810,810,810,810,810,810,810,810,810,810,810,810,810,810,810,810,810,810,810,810,810,810,810,810,810,810,810,810,810,810,810,810,810,810,810,810,810,810,810,810,810,810,810,810,810,810,810,810,810,810,810,810,810,810,810,810,810,810,810,810,810,810,810,810,810,810,810,810,810,810,810,810,810,810,810,810,810,810,810,810,810,810,810,810,810,810,810,810,810,810,810,810,810,810,810,810,810,810,810,810,810,810,810,810,810,806,798,785,771,756,741,737,735,735,735,735,729,715,701,669,653,642,631,621,615,610,608,607,607,607,607,606,603,590,527,501,487,482,481,481,481,479,477,477,477,477,477,477,477,477,476,475,475,475,475,475],"ymouse":[548,548,548,548,548,548,548,548,548,548,548,548,548,548,548,548,548,548,548,548,548,548,548,548,548,548,548,548,548,548,548,548,548,548,548,548,548,548,548,548,548,548,548,548,548,548,548,548,548,548,548,548,548,548,548,548,548,548,548,548,548,548,548,548,548,548,548,548,548,548,548,548,548,548,548,548,548,548,548,548,548,548,548,548,548,548,548,548,548,548,548,548,548,548,548,548,548,548,548,548,548,548,548,548,548,548,548,548,548,548,548,548,548,548,548,548,548,548,548,548,548,548,548,526,501,477,464,459,461,462,463,463,463,463,458,436,412,358,326,299,278,260,249,240,237,237,237,237,237,235,230,211,167,153,148,146,145,145,142,136,133,132,132,132,131,131,129,127,121,119,117,113,107,87],"timestamp_mouse":[9,23,50,63,82,103,123,143,162,182,203,224,242,264,284,303,324,344,364,383,404,422,444,463,482,504,522,543,562,583,603,622,644,664,682,703,723,743,764,782,804,823,843,864,883,902,924,944,963,983,1003,1023,1043,1063,1084,1104,1123,1143,1162,1184,1202,1223,1242,1264,1284,1304,1324,1344,1364,1384,1403,1422,1443,1464,1483,1504,1523,1543,1563,1582,1603,1622,1643,1663,1683,1704,1723,1742,1763,1782,1803,1824,1843,1862,1884,1904,1923,1943,1964,1982,2003,2023,2042,2062,2084,2104,2124,2143,2164,2184,2204,2223,2244,2263,2284,2303,2323,2343,2364,2384,2402,2422,2442,2464,2482,2503,2523,2544,2562,2583,2603,2623,2644,2663,2682,2703,2722,2744,2762,2783,2803,2822,2843,2862,2882,2903,2923,2944,2963,2982,3002,3024,3043,3062,3082,3104,3123,3144,3163,3183,3202,3223,3243,3263,3283,3303,3323,3344,3363,3383,3402,3422,3444,3463],"xSR":741.5,"ySR":469.95,"xT1":424.9,"yT1":0,"xT2":1058.1,"yT2":0,"toosoon":0,"cond_shown":"Congruent","ratio_trial":100,"L_num":4,"L_den":10,"R_num":15,"R_den":30,"correct_side":2,"subjID":"charlottecaicedorestrepo36","gender":"1","school":"6","age":"11"},{"start_time":1551800772439,"click_time":1551800774847,"finger_time":1551800773626,"fix_duration":250,"trial":31,"RT":1187,"MT":1221,"sideResp":1,"stimulus":[],"xmouse":[786,786,786,786,786,786,786,786,786,786,786,786,786,786,786,786,786,786,786,786,786,786,786,786,786,786,786,786,786,786,786,786,786,786,786,786,786,786,786,786,786,786,786,786,786,786,786,786,786,786,786,786,786,786,787,793,797,799,799,798,797,796,796,796,796,796,796,796,796,796,796,796,796,796,796,796,796,796,796,796,796,795,795,789,773,713,672,639,620,606,603,602,602,602,602,599,598,597,597,595,587,578,562,536,511,495,483,481,481,481,480,480,480,480,480,480,480,478,476,475,460],"ymouse":[537,537,537,537,537,537,537,537,537,537,537,537,537,537,537,537,537,537,537,537,537,537,537,537,537,537,537,537,537,537,537,537,537,537,537,537,537,537,537,537,537,537,537,537,537,537,537,537,537,537,537,537,537,537,536,519,500,484,473,467,466,465,465,465,465,465,465,465,465,465,465,465,465,465,465,465,465,465,465,465,465,464,464,464,462,448,436,428,422,419,418,417,417,417,417,414,412,409,406,402,382,359,317,259,224,205,190,187,183,179,174,174,174,174,174,174,171,163,150,135,87],"timestamp_mouse":[9,39,47,68,89,108,128,147,168,189,208,227,248,268,289,307,328,347,368,389,408,428,448,467,489,507,528,548,568,587,607,628,649,669,687,707,728,749,768,788,808,828,848,868,887,908,928,948,968,988,1009,1027,1047,1068,1087,1108,1127,1149,1168,1187,1208,1228,1249,1267,1287,1309,1328,1348,1367,1389,1408,1428,1448,1468,1487,1509,1528,1548,1568,1587,1609,1627,1647,1669,1688,1708,1727,1747,1768,1789,1808,1827,1848,1868,1888,1908,1927,1948,1969,1989,2008,2028,2048,2069,2088,2108,2128,2149,2168,2189,2209,2228,2248,2269,2287,2307,2328,2349,2369,2388,2408],"xSR":741.5,"ySR":469.95,"xT1":424.9,"yT1":0,"xT2":1058.1,"yT2":0,"toosoon":0,"cond_shown":"Incongruent","ratio_trial":200,"L_num":3,"L_den":4,"R_num":11,"R_den":20,"correct_side":1,"subjID":"charlottecaicedorestrepo36","gender":"1","school":"6","age":"11"},{"start_time":1551800777308,"click_time":1551800779806,"finger_time":1551800778988,"fix_duration":339.8710904833876,"trial":32,"RT":1680,"MT":818,"sideResp":2,"stimulus":[],"xmouse":[797,797,797,797,797,797,797,797,797,797,797,797,797,797,797,797,797,797,797,797,797,797,797,797,797,797,797,797,797,797,797,797,797,797,797,797,797,797,797,797,797,797,797,797,797,797,797,797,797,797,797,797,797,797,797,797,797,797,797,797,797,797,797,797,797,797,797,797,797,797,797,797,797,797,797,797,797,797,797,797,797,797,799,826,846,862,879,898,909,921,932,947,984,1008,1037,1062,1083,1116,1122,1125,1127,1129,1134,1136,1137,1138,1138,1138,1138,1138,1138,1138,1138,1138,1138,1138,1138,1138,1138,1138,1135,1134,1133,1131,1126,1122],"ymouse":[529,529,529,529,529,529,529,529,529,529,529,529,529,529,529,529,529,529,529,529,529,529,529,529,529,529,529,529,529,529,529,529,529,529,529,529,529,529,529,529,529,529,529,529,529,529,529,529,529,529,529,529,529,529,529,529,529,529,529,529,529,529,529,529,529,529,529,529,529,529,529,529,529,529,529,529,529,529,529,529,529,529,526,498,482,471,460,444,434,422,412,400,377,364,342,322,304,269,261,254,250,243,227,221,214,209,205,192,189,185,183,181,174,173,173,173,173,168,167,163,154,149,145,125,108,94],"timestamp_mouse":[1,20,39,59,78,100,119,140,160,180,200,218,240,259,278,299,320,340,360,379,400,419,440,459,480,499,519,540,560,578,598,620,640,659,680,699,718,740,760,780,798,819,839,860,880,900,919,938,959,979,1000,1019,1039,1059,1079,1099,1119,1140,1159,1179,1198,1220,1240,1258,1279,1300,1319,1339,1359,1380,1400,1420,1440,1459,1479,1500,1520,1539,1560,1580,1600,1618,1639,1659,1680,1699,1718,1739,1758,1778,1800,1819,1839,1859,1879,1899,1919,1939,1958,1978,2000,2019,2039,2058,2078,2098,2119,2140,2160,2178,2199,2219,2239,2258,2279,2300,2320,2339,2358,2378,2399,2419,2439,2459,2479,2498],"xSR":741.5,"ySR":469.95,"xT1":424.9,"yT1":0,"xT2":1058.1,"yT2":0,"toosoon":0,"cond_shown":"Congruent","ratio_trial":100,"L_num":7,"L_den":14,"R_num":9,"R_den":15,"correct_side":2,"subjID":"charlottecaicedorestrepo36","gender":"1","school":"6","age":"11"},{"start_time":1551800783818,"click_time":1551800786486,"finger_time":1551800785348,"fix_duration":250,"trial":33,"RT":1530,"MT":1138,"sideResp":1,"stimulus":[],"xmouse":[814,814,814,814,814,814,814,814,814,814,814,814,814,814,814,814,814,814,814,814,814,814,814,814,814,814,814,814,814,814,814,814,814,814,814,814,814,814,814,814,814,814,814,814,814,814,814,814,814,814,814,814,814,814,814,814,814,814,814,814,814,814,814,814,814,814,814,814,814,814,814,814,814,814,815,817,821,821,817,815,815,815,815,815,813,802,784,777,771,765,757,730,714,699,685,674,654,644,635,626,615,591,588,583,578,574,565,561,558,556,555,553,544,539,531,521,497,490,487,485,485,485,485,485,485,485,485,485,485,485,485,485,485,485],"ymouse":[504,504,504,504,504,504,504,504,504,504,504,504,504,504,504,504,504,504,504,504,504,504,504,504,504,504,504,504,504,504,504,504,504,504,504,504,504,504,504,504,504,504,504,504,504,504,504,504,504,504,504,504,504,504,504,504,504,504,504,504,504,504,504,504,504,504,504,504,504,504,504,504,504,504,497,487,461,431,424,420,420,420,420,420,419,414,407,403,398,391,382,357,342,329,314,301,275,260,248,239,227,211,208,205,203,202,197,194,191,189,189,187,178,171,159,146,121,114,109,107,105,105,104,104,104,104,104,104,104,104,104,104,101,95],"timestamp_mouse":[9,29,61,69,88,109,129,150,170,189,208,230,250,269,290,309,329,348,369,388,409,428,449,469,490,509,529,550,569,589,609,630,648,669,690,710,730,749,768,789,810,829,848,870,890,910,929,949,969,990,1009,1029,1049,1070,1090,1108,1129,1149,1169,1190,1210,1230,1250,1270,1288,1310,1328,1350,1370,1390,1408,1430,1449,1468,1490,1509,1530,1549,1569,1589,1608,1629,1650,1669,1689,1709,1729,1749,1769,1789,1809,1829,1848,1868,1890,1909,1929,1949,1969,1989,2009,2029,2048,2069,2090,2109,2129,2149,2169,2188,2209,2228,2248,2269,2290,2309,2329,2348,2369,2388,2408,2430,2449,2469,2488,2509,2530,2548,2569,2590,2608,2630,2648,2668],"xSR":741.5,"ySR":469.95,"xT1":424.9,"yT1":0,"xT2":1058.1,"yT2":0,"toosoon":0,"cond_shown":"Incongruent","ratio_trial":100,"L_num":6,"L_den":10,"R_num":11,"R_den":22,"correct_side":1,"subjID":"charlottecaicedorestrepo36","gender":"1","school":"6","age":"11"},{"start_time":1551800790448,"click_time":1551800792288,"finger_time":1551800791307,"fix_duration":460.27052127812107,"trial":34,"RT":859,"MT":981,"sideResp":1,"stimulus":[],"xmouse":[824,824,824,824,824,824,824,824,824,822,822,822,822,822,822,822,822,822,822,822,822,822,822,822,822,822,822,822,822,822,822,822,822,822,822,820,819,815,806,803,793,790,783,775,768,759,756,753,748,745,736,734,731,727,721,690,663,633,595,566,563,562,562,562,562,562,562,562,562,551,543,531,522,513,505,500,496,493,492,492,492,492,492,492,492,492,492,492,492,492,492,491],"ymouse":[531,531,531,531,531,531,528,526,523,514,512,510,509,509,509,509,509,509,509,509,509,509,509,509,509,509,509,509,509,509,509,509,509,509,509,507,507,506,500,498,481,470,452,434,423,409,405,400,393,386,370,365,361,358,353,336,324,312,296,279,277,277,277,277,277,272,264,253,236,184,165,149,137,127,119,116,114,113,113,113,113,113,113,112,107,105,103,102,102,102,100,98],"timestamp_mouse":[18,38,60,79,99,119,139,158,180,199,219,239,259,279,300,319,340,359,379,400,420,439,460,479,498,519,540,558,580,599,620,638,660,678,699,719,740,759,779,798,819,838,859,879,899,918,938,959,979,998,1018,1038,1059,1079,1098,1118,1139,1159,1179,1199,1218,1239,1260,1278,1299,1318,1338,1359,1379,1399,1418,1438,1460,1479,1499,1518,1540,1560,1579,1598,1619,1638,1660,1679,1699,1718,1738,1758,1780,1799,1819,1840],"xSR":741.5,"ySR":469.95,"xT1":424.9,"yT1":0,"xT2":1058.1,"yT2":0,"toosoon":0,"cond_shown":"Congruent","ratio_trial":200,"L_num":20,"L_den":25,"R_num":9,"R_den":15,"correct_side":1,"subjID":"charlottecaicedorestrepo36","gender":"1","school":"6","age":"11"},{"start_time":1551800797216,"click_time":1551800799407,"finger_time":1551800798786,"fix_duration":1187.6561494817352,"trial":35,"RT":1570,"MT":621,"sideResp":1,"stimulus":[],"xmouse":[774,774,774,774,774,774,774,774,774,774,774,774,774,774,774,774,774,774,774,774,774,774,774,774,774,774,774,774,774,774,774,774,774,774,774,774,774,774,774,774,774,774,774,774,774,774,774,774,774,774,774,774,774,774,774,774,774,774,774,774,774,774,774,774,774,774,774,774,774,774,774,774,774,774,774,774,766,749,727,707,675,642,617,591,573,559,519,497,476,459,446,437,436,436,436,439,463,482,495,501,502,503,503,503,503,503,502,482,461,438],"ymouse":[497,497,497,497,497,497,497,497,497,497,497,497,497,497,497,497,497,497,497,497,497,497,497,497,497,497,497,497,497,497,497,497,497,497,497,497,497,497,497,497,497,497,497,497,497,497,497,497,497,497,497,497,497,497,497,497,497,497,497,497,497,497,497,499,499,499,499,499,499,499,499,499,499,499,499,499,500,494,484,472,445,406,371,331,305,289,270,269,269,269,268,265,264,262,252,237,191,167,148,139,135,133,133,133,133,132,131,119,107,97],"timestamp_mouse":[11,30,62,71,92,110,132,151,171,191,212,230,251,270,292,310,330,351,370,392,411,431,451,470,492,511,531,552,570,590,611,632,652,670,692,710,732,751,772,790,812,832,851,871,892,910,930,951,971,991,1011,1032,1052,1071,1091,1111,1131,1151,1171,1191,1210,1231,1250,1272,1292,1311,1331,1352,1370,1392,1410,1431,1452,1470,1491,1510,1531,1550,1570,1591,1611,1631,1651,1670,1691,1711,1731,1751,1771,1791,1811,1831,1852,1871,1892,1912,1931,1950,1971,1990,2011,2032,2052,2071,2091,2110,2130,2151,2171,2191],"xSR":741.5,"ySR":469.95,"xT1":424.9,"yT1":0,"xT2":1058.1,"yT2":0,"toosoon":0,"cond_shown":"Incongruent","ratio_trial":200,"L_num":7,"L_den":10,"R_num":14,"R_den":28,"correct_side":1,"subjID":"charlottecaicedorestrepo36","gender":"1","school":"6","age":"11"},{"start_time":1551800803400,"click_time":1551800805767,"finger_time":1551800804847,"fix_duration":1370.7543966869348,"trial":36,"RT":1447,"MT":920,"sideResp":2,"stimulus":[],"xmouse":[780,780,780,780,780,780,780,780,780,780,780,780,780,780,780,780,780,780,780,780,780,780,780,780,780,780,780,780,780,780,780,780,780,780,780,780,780,780,780,780,780,780,780,780,780,780,780,780,780,780,780,780,780,780,780,780,780,780,780,780,780,780,780,780,780,780,780,780,780,785,809,832,876,880,881,881,883,887,890,892,893,894,901,905,912,923,940,987,1013,1031,1043,1051,1051,1052,1052,1052,1052,1052,1052,1052,1051,1050,1050,1050,1050,1050,1050,1050,1050,1050,1050,1050,1052,1055,1057,1057,1057,1058,1060],"ymouse":[550,550,550,550,550,550,550,550,550,550,550,550,550,550,550,550,550,550,550,550,550,550,550,550,550,550,550,550,550,550,550,550,550,550,550,550,550,550,550,550,550,550,550,550,550,550,550,550,550,550,550,550,550,550,550,550,550,550,550,550,550,550,550,550,550,550,550,550,550,540,529,519,492,488,487,484,479,458,444,430,419,410,381,367,351,331,307,254,233,219,208,200,197,196,196,196,196,191,189,183,174,163,137,126,117,106,100,93,93,93,93,93,93,93,93,93,93,93,92],"timestamp_mouse":[8,32,48,67,86,107,128,148,167,187,208,227,248,268,287,307,328,348,368,387,408,428,448,467,487,508,528,547,567,588,608,628,648,668,688,707,728,748,767,787,807,828,847,868,887,908,928,948,968,988,1007,1027,1048,1068,1087,1108,1128,1147,1167,1188,