[{"start_time":1551801439664,"click_time":1551801442147,"finger_time":1551801441446,"fix_duration":250,"trial":0,"RT":1782,"MT":701,"sideResp":2,"stimulus":"img/750/randomdotsizeEA/L/10_Ratio_750_L_4_R_3.png","xmouse":[800,800,800,800,800,800,800,800,800,800,800,800,800,800,800,800,800,800,800,800,800,800,800,800,800,800,800,800,800,800,800,800,800,800,800,800,800,800,800,800,800,800,800,800,800,800,800,800,800,800,800,800,800,800,800,800,800,800,800,800,800,800,800,800,800,800,800,800,800,800,800,800,800,800,800,800,800,800,800,800,800,800,800,800,800,800,800,800,818,842,882,894,903,912,921,936,944,969,979,1003,1037,1047,1058,1065,1074,1092,1099,1103,1105,1106,1106,1106,1106,1106,1106,1106,1106,1106,1106,1106,1106,1106,1106,1108,1113],"ymouse":[515,515,515,515,515,515,515,515,515,515,515,515,515,515,515,515,515,515,515,515,515,515,515,515,515,515,515,515,515,515,515,515,515,515,515,515,515,515,515,515,515,515,515,515,515,515,515,515,515,515,515,515,515,515,515,515,515,515,515,515,515,515,515,515,515,515,515,515,515,515,515,515,515,515,515,515,515,515,515,515,515,515,515,515,515,515,515,515,488,445,376,359,348,337,329,319,314,303,300,287,264,256,244,235,222,190,177,165,155,147,136,129,125,121,119,118,117,117,117,115,113,112,110,103,94],"timestamp_mouse":[8,30,42,62,81,102,122,141,162,182,202,221,242,263,282,301,323,342,362,382,401,422,441,462,481,501,521,541,561,581,603,622,641,662,682,701,722,742,762,782,801,822,842,862,881,903,921,941,962,983,1002,1022,1042,1062,1082,1102,1122,1143,1162,1182,1202,1222,1242,1263,1281,1301,1322,1342,1362,1382,1402,1423,1441,1461,1481,1501,1521,1542,1562,1582,1602,1621,1642,1661,1682,1703,1722,1743,1762,1782,1802,1821,1841,1861,1881,1902,1921,1942,1963,1982,2002,2021,2041,2061,2081,2101,2121,2142,2161,2181,2201,2221,2242,2261,2281,2301,2321,2342,2362,2381,2401,2421,2441,2463,2482],"xSR":741.5,"ySR":469.95,"xT1":424.9,"yT1":0,"xT2":1058.1,"yT2":0,"toosoon":0,"cond_shown":"randomdotsizeEA","ratio_trial":750,"smaller_num":"3","larger_num":"4","correct_side":1,"subjID":"charlottecaicedorestrepo36","gender":"1","age":"11","school":"6","test":{"fix_dur":[250,1500],"timestim":300,"targets_dim":[100,100],"targets_relative_coord":[0.3,0.7],"size_stim":[880,420],"start_dim":[100,100],"size_start":[300,300],"size_fix":60,"samplingrate":20,"img_types":["equaldotsize","equaldotanddens","randomdotsizeEA"],"ratios":[250,500,750,900],"rep_conds":9,"nTrials":120,"trials_to_rest":500,"Trials_order":[20,71,31,83,21,84,100,78,110,43,90,61,93,75,109,103,6,51,66,115,37,67,48,80,81,39,64,53,25,82,33,42,38,56,69,12,119,117,26,2,70,30,45,72,17,112,13,40,28,22,114,111,18,47,89,0,16,98,99,59,29,105,36,24,15,79,113,44,41,8,46,7,85,3,14,74,60,4,91,55,92,101,10,19,63,107,95,97,73,23,58,35,87,94,49,32,57,88,50,9,77,1,11,68,54,86,34,104,106,102,76,108,5,62,116,118,96,27,52,65],"cond_shown":["randomdotsizeEA","randomdotsizeEA","equaldotanddens","randomdotsizeEA","equaldotsize","equaldotsize","equaldotanddens","equaldotsize","randomdotsizeEA","equaldotanddens","equaldotsize","equaldotanddens","equaldotsize","equaldotsize","equaldotanddens","equaldotanddens","equaldotsize","equaldotsize","equaldotsize","equaldotanddens","equaldotanddens","equaldotanddens","equaldotsize","randomdotsizeEA","equaldotsize","equaldotsize","equaldotanddens","randomdotsizeEA","equaldotanddens","equaldotanddens","equaldotsize","equaldotsize","randomdotsizeEA","randomdotsizeEA","equaldotsize","equaldotsize","randomdotsizeEA","equaldotsize","randomdotsizeEA","randomdotsizeEA","equaldotanddens","equaldotsize","equaldotsize","equaldotsize","randomdotsizeEA","equaldotanddens","equaldotanddens","equaldotanddens","equaldotanddens","equaldotanddens","equaldotsize","equaldotsize","equaldotsize","randomdotsizeEA","randomdotsizeEA","equaldotsize","equaldotanddens","randomdotsizeEA","equaldotsize","randomdotsizeEA","randomdotsizeEA","equaldotsize","equaldotsize","equaldotsize","equaldotsize","equaldotanddens","randomdotsizeEA","randomdotsizeEA","randomdotsizeEA","randomdotsizeEA","equaldotanddens","equaldotanddens","equaldotanddens","equaldotsize","randomdotsizeEA","randomdotsizeEA","equaldotsize","equaldotanddens","equaldotanddens","equaldotanddens","randomdotsizeEA","randomdotsizeEA","equaldotanddens","equaldotanddens","equaldotsize","randomdotsizeEA","randomdotsizeEA","equaldotanddens","equaldotanddens","randomdotsizeEA","equaldotanddens","randomdotsizeEA","equaldotsize","equaldotanddens","equaldotanddens","randomdotsizeEA","equaldotsize","equaldotanddens","randomdotsizeEA","equaldotsize","randomdotsizeEA","equaldotanddens","randomdotsizeEA","randomdotsizeEA","equaldotsize","randomdotsizeEA","equaldotanddens","randomdotsizeEA","equaldotanddens","equaldotsize","equaldotanddens","equaldotsize","randomdotsizeEA","randomdotsizeEA","randomdotsizeEA","equaldotanddens","equaldotsize","equaldotsize","equaldotanddens","randomdotsizeEA"],"ratio_trial":[750,900,750,900,900,250,500,750,250,750,750,250,900,500,250,750,750,500,750,750,250,750,250,750,900,500,500,500,250,900,900,750,250,750,900,250,900,900,250,250,900,750,900,250,500,500,250,500,500,900,750,500,750,900,500,250,500,250,500,900,500,900,250,250,500,750,500,750,500,750,900,750,250,500,250,250,250,500,750,750,750,500,900,750,500,900,900,250,250,900,900,900,500,900,250,750,900,500,250,900,500,250,900,750,750,250,900,750,900,750,500,250,500,250,750,900,250,500,500,500],"smaller_num":["3","9","15","18","18","3","2","12","3","3","15","2","18","5","2","3","15","1","3","15","6","6","2","6","18","6","2","5","2","18","9","15","3","18","18","3","18","18","4","2","18","15","18","6","6","2","3","9","2","18","18","4","6","18","9","3","6","3","5","18","2","18","5","3","6","6","2","3","2","9","18","15","3","3","3","3","1","1","15","6","12","9","18","3","5","18","9","6","4","18","18","9","2","18","5","9","18","5","3","9","9","3","18","3","3","4","18","3","18","3","9","6","2","3","3","9","2","9","2","5"],"larger_num":["4","10","20","20","20","12","4","16","12","4","20","8","20","10","8","4","20","2","4","20","24","8","8","8","20","12","4","10","8","20","10","20","12","24","20","12","20","20","16","8","20","20","20","24","12","4","12","18","4","20","24","8","8","20","18","12","12","12","10","20","4","20","20","12","12","8","4","4","4","12","20","20","12","6","12","12","4","2","20","8","16","18","20","4","10","20","10","24","16","20","20","10","4","20","20","12","20","10","12","10","18","12","20","4","4","16","20","4","20","4","18","24","4","12","4","10","8","18","4","10"],"correct_side":[1,2,2,2,1,1,2,2,1,2,2,1,1,2,1,1,2,2,2,2,1,1,1,1,1,1,2,1,2,1,2,2,2,1,1,1,1,1,1,1,2,2,2,1,1,1,2,2,1,2,1,1,1,1,1,2,1,1,2,1,1,2,2,1,1,1,1,1,1,2,2,2,2,2,1,2,2,2,2,1,2,1,2,2,2,1,2,2,2,1,1,2,1,1,2,2,1,2,2,2,1,1,1,1,1,2,1,1,2,1,1,1,1,2,2,2,1,2,1,1],"img_shown":["img/750/randomdotsizeEA/L/10_Ratio_750_L_4_R_3.png","img/900/randomdotsizeEA/R/5_Ratio_900_L_9_R_10.png","img/750/equaldotanddens/R/4_Ratio_750_L_15_R_20.png","img/900/randomdotsizeEA/R/14_Ratio_900_L_18_R_20.png","img/900/equaldotsize/L/2_Ratio_900_L_20_R_18.png","img/250/equaldotsize/L/14_Ratio_250_L_12_R_3.png","img/500/equaldotanddens/R/9_Ratio_500_L_2_R_4.png","img/750/equaldotsize/R/11_Ratio_750_L_12_R_16.png","img/250/randomdotsizeEA/L/14_Ratio_250_L_12_R_3.png","img/750/equaldotanddens/R/12_Ratio_750_L_3_R_4.png","img/750/equaldotsize/R/3_Ratio_750_L_15_R_20.png","img/250/equaldotanddens/L/7_Ratio_250_L_8_R_2.png","img/900/equaldotsize/L/8_Ratio_900_L_20_R_18.png","img/500/equaldotsize/R/14_Ratio_500_L_5_R_10.png","img/250/equaldotanddens/L/1_Ratio_250_L_8_R_2.png","img/750/equaldotanddens/L/10_Ratio_750_L_4_R_3.png","img/750/equaldotsize/R/5_Ratio_750_L_15_R_20.png","img/500/equaldotsize/R/12_Ratio_500_L_1_R_2.png","img/750/equaldotsize/R/12_Ratio_750_L_3_R_4.png","img/750/equaldotanddens/R/5_Ratio_750_L_15_R_20.png","img/250/equaldotanddens/L/5_Ratio_250_L_24_R_6.png","img/750/equaldotanddens/L/14_Ratio_750_L_8_R_6.png","img/250/equaldotsize/L/7_Ratio_250_L_8_R_2.png","img/750/randomdotsizeEA/L/14_Ratio_750_L_8_R_6.png","img/900/equaldotsize/L/4_Ratio_900_L_20_R_18.png","img/500/equaldotsize/L/13_Ratio_500_L_12_R_6.png","img/500/equaldotanddens/R/9_Ratio_500_L_2_R_4.png","img/500/randomdotsizeEA/L/7_Ratio_500_L_10_R_5.png","img/250/equaldotanddens/R/13_Ratio_250_L_2_R_8.png","img/900/equaldotanddens/L/2_Ratio_900_L_20_R_18.png","img/900/equaldotsize/R/6_Ratio_900_L_9_R_10.png","img/750/equaldotsize/R/4_Ratio_750_L_15_R_20.png","img/250/randomdotsizeEA/R/4_Ratio_250_L_3_R_12.png","img/750/randomdotsizeEA/L/6_Ratio_750_L_24_R_18.png","img/900/equaldotsize/L/8_Ratio_900_L_20_R_18.png","img/250/equaldotsize/L/15_Ratio_250_L_12_R_3.png","img/900/randomdotsizeEA/L/2_Ratio_900_L_20_R_18.png","img/900/equaldotsize/L/2_Ratio_900_L_20_R_18.png","img/250/randomdotsizeEA/L/2_Ratio_250_L_16_R_4.png","img/250/randomdotsizeEA/L/1_Ratio_250_L_8_R_2.png","img/900/equaldotanddens/R/12_Ratio_900_L_18_R_20.png","img/750/equaldotsize/R/5_Ratio_750_L_15_R_20.png","img/900/equaldotsize/R/9_Ratio_900_L_18_R_20.png","img/250/equaldotsize/L/5_Ratio_250_L_24_R_6.png","img/500/randomdotsizeEA/L/13_Ratio_500_L_12_R_6.png","img/500/equaldotanddens/L/5_Ratio_500_L_4_R_2.png","img/250/equaldotanddens/R/4_Ratio_250_L_3_R_12.png","img/500/equaldotanddens/R/1_Ratio_500_L_9_R_18.png","img/500/equaldotanddens/L/5_Ratio_500_L_4_R_2.png","img/900/equaldotanddens/R/9_Ratio_900_L_18_R_20.png","img/750/equaldotsize/L/6_Ratio_750_L_24_R_18.png","img/500/equaldotsize/L/8_Ratio_500_L_8_R_4.png","img/750/equaldotsize/L/14_Ratio_750_L_8_R_6.png","img/900/randomdotsizeEA/L/8_Ratio_900_L_20_R_18.png","img/500/randomdotsizeEA/L/4_Ratio_500_L_18_R_9.png","img/250/equaldotsize/R/11_Ratio_250_L_3_R_12.png","img/500/equaldotanddens/L/13_Ratio_500_L_12_R_6.png","img/250/randomdotsizeEA/L/14_Ratio_250_L_12_R_3.png","img/500/equaldotsize/R/14_Ratio_500_L_5_R_10.png","img/900/randomdotsizeEA/L/10_Ratio_900_L_20_R_18.png","img/500/randomdotsizeEA/L/5_Ratio_500_L_4_R_2.png","img/900/equaldotsize/R/12_Ratio_900_L_18_R_20.png","img/250/equaldotsize/R/12_Ratio_250_L_5_R_20.png","img/250/equaldotsize/L/15_Ratio_250_L_12_R_3.png","img/500/equaldotsize/L/13_Ratio_500_L_12_R_6.png","img/750/equaldotanddens/L/14_Ratio_750_L_8_R_6.png","img/500/randomdotsizeEA/L/10_Ratio_500_L_4_R_2.png","img/750/randomdotsizeEA/L/8_Ratio_750_L_4_R_3.png","img/500/randomdotsizeEA/L/5_Ratio_500_L_4_R_2.png","img/750/randomdotsizeEA/R/15_Ratio_750_L_9_R_12.png","img/900/equaldotanddens/R/9_Ratio_900_L_18_R_20.png","img/750/equaldotanddens/R/3_Ratio_750_L_15_R_20.png","img/250/equaldotanddens/R/4_Ratio_250_L_3_R_12.png","img/500/equaldotsize/R/2_Ratio_500_L_3_R_6.png","img/250/randomdotsizeEA/L/14_Ratio_250_L_12_R_3.png","img/250/randomdotsizeEA/R/4_Ratio_250_L_3_R_12.png","img/250/equaldotsize/R/8_Ratio_250_L_1_R_4.png","img/500/equaldotanddens/R/15_Ratio_500_L_1_R_2.png","img/750/equaldotanddens/R/4_Ratio_750_L_15_R_20.png","img/750/equaldotanddens/L/13_Ratio_750_L_8_R_6.png","img/750/randomdotsizeEA/R/11_Ratio_750_L_12_R_16.png","img/500/randomdotsizeEA/L/4_Ratio_500_L_18_R_9.png","img/900/equaldotanddens/R/14_Ratio_900_L_18_R_20.png","img/750/equaldotanddens/R/7_Ratio_750_L_3_R_4.png","img/500/equaldotsize/R/14_Ratio_500_L_5_R_10.png","img/900/randomdotsizeEA/L/10_Ratio_900_L_20_R_18.png","img/900/randomdotsizeEA/R/6_Ratio_900_L_9_R_10.png","img/250/equaldotanddens/R/6_Ratio_250_L_6_R_24.png","img/250/equaldotanddens/R/10_Ratio_250_L_4_R_16.png","img/900/randomdotsizeEA/L/10_Ratio_900_L_20_R_18.png","img/900/equaldotanddens/L/8_Ratio_900_L_20_R_18.png","img/900/randomdotsizeEA/R/5_Ratio_900_L_9_R_10.png","img/500/equaldotsize/L/10_Ratio_500_L_4_R_2.png","img/900/equaldotanddens/L/4_Ratio_900_L_20_R_18.png","img/250/equaldotanddens/R/12_Ratio_250_L_5_R_20.png","img/750/randomdotsizeEA/R/15_Ratio_750_L_9_R_12.png","img/900/equaldotsize/L/8_Ratio_900_L_20_R_18.png","img/500/equaldotanddens/R/14_Ratio_500_L_5_R_10.png","img/250/randomdotsizeEA/R/4_Ratio_250_L_3_R_12.png","img/900/equaldotsize/R/5_Ratio_900_L_9_R_10.png","img/500/randomdotsizeEA/L/4_Ratio_500_L_18_R_9.png","img/250/equaldotanddens/L/14_Ratio_250_L_12_R_3.png","img/900/randomdotsizeEA/L/4_Ratio_900_L_20_R_18.png","img/750/randomdotsizeEA/L/8_Ratio_750_L_4_R_3.png","img/750/equaldotsize/L/9_Ratio_750_L_4_R_3.png","img/250/randomdotsizeEA/R/10_Ratio_250_L_4_R_16.png","img/900/equaldotanddens/L/10_Ratio_900_L_20_R_18.png","img/750/randomdotsizeEA/L/8_Ratio_750_L_4_R_3.png","img/900/equaldotanddens/R/9_Ratio_900_L_18_R_20.png","img/750/equaldotsize/L/9_Ratio_750_L_4_R_3.png","img/500/equaldotanddens/L/4_Ratio_500_L_18_R_9.png","img/250/equaldotsize/L/5_Ratio_250_L_24_R_6.png","img/500/randomdotsizeEA/L/5_Ratio_500_L_4_R_2.png","img/250/randomdotsizeEA/R/11_Ratio_250_L_3_R_12.png","img/750/randomdotsizeEA/R/7_Ratio_750_L_3_R_4.png","img/900/equaldotanddens/R/15_Ratio_900_L_9_R_10.png","img/250/equaldotsize/L/7_Ratio_250_L_8_R_2.png","img/500/equaldotsize/R/1_Ratio_500_L_9_R_18.png","img/500/equaldotanddens/L/5_Ratio_500_L_4_R_2.png","img/500/randomdotsizeEA/L/7_Ratio_500_L_10_R_5.png"],"Rat0":[["12_Ratio_0_L_9_R_0.png","13_Ratio_0_L_6_R_0.png","5_Ratio_0_L_2_R_0.png","6_Ratio_0_L_4_R_0.png","8_Ratio_0_L_6_R_0.png"],["1_Ratio_0_L_0_R_17.png","10_Ratio_0_L_0_R_22.png","11_Ratio_0_L_0_R_1.png","14_Ratio_0_L_0_R_24.png","15_Ratio_0_L_0_R_4.png","2_Ratio_0_L_0_R_5.png","3_Ratio_0_L_0_R_17.png","4_Ratio_0_L_0_R_7.png","7_Ratio_0_L_0_R_19.png","9_Ratio_0_L_0_R_15.png"]],"Rat250":[["1_Ratio_250_L_8_R_2.png","14_Ratio_250_L_12_R_3.png","15_Ratio_250_L_12_R_3.png","2_Ratio_250_L_16_R_4.png","3_Ratio_250_L_8_R_2.png","5_Ratio_250_L_24_R_6.png","7_Ratio_250_L_8_R_2.png"],["10_Ratio_250_L_4_R_16.png","11_Ratio_250_L_3_R_12.png","12_Ratio_250_L_5_R_20.png","13_Ratio_250_L_2_R_8.png","4_Ratio_250_L_3_R_12.png","6_Ratio_250_L_6_R_24.png","8_Ratio_250_L_1_R_4.png","9_Ratio_250_L_3_R_12.png"]],"Rat500":[["10_Ratio_500_L_4_R_2.png","11_Ratio_500_L_12_R_6.png","13_Ratio_500_L_12_R_6.png","4_Ratio_500_L_18_R_9.png","5_Ratio_500_L_4_R_2.png","7_Ratio_500_L_10_R_5.png","8_Ratio_500_L_8_R_4.png"],["1_Ratio_500_L_9_R_18.png","12_Ratio_500_L_1_R_2.png","14_Ratio_500_L_5_R_10.png","15_Ratio_500_L_1_R_2.png","2_Ratio_500_L_3_R_6.png","3_Ratio_500_L_10_R_20.png","6_Ratio_500_L_9_R_18.png","9_Ratio_500_L_2_R_4.png"]],"Rat750":[["1_Ratio_750_L_20_R_15.png","10_Ratio_750_L_4_R_3.png","13_Ratio_750_L_8_R_6.png","14_Ratio_750_L_8_R_6.png","6_Ratio_750_L_24_R_18.png","8_Ratio_750_L_4_R_3.png","9_Ratio_750_L_4_R_3.png"],["11_Ratio_750_L_12_R_16.png","12_Ratio_750_L_3_R_4.png","15_Ratio_750_L_9_R_12.png","2_Ratio_750_L_6_R_8.png","3_Ratio_750_L_15_R_20.png","4_Ratio_750_L_15_R_20.png","5_Ratio_750_L_15_R_20.png","7_Ratio_750_L_3_R_4.png"]],"Rat900":[["1_Ratio_900_L_10_R_9.png","10_Ratio_900_L_20_R_18.png","2_Ratio_900_L_20_R_18.png","4_Ratio_900_L_20_R_18.png","8_Ratio_900_L_20_R_18.png"],["11_Ratio_900_L_18_R_20.png","12_Ratio_900_L_18_R_20.png","13_Ratio_900_L_18_R_20.png","14_Ratio_900_L_18_R_20.png","15_Ratio_900_L_9_R_10.png","3_Ratio_900_L_9_R_10.png","5_Ratio_900_L_9_R_10.png","6_Ratio_900_L_9_R_10.png","7_Ratio_900_L_9_R_10.png","9_Ratio_900_L_18_R_20.png"]],"Rat1000":[["10_Ratio_1000_L_16_R_16.png","11_Ratio_1000_L_6_R_6.png","12_Ratio_1000_L_14_R_14.png","13_Ratio_1000_L_20_R_20.png","15_Ratio_1000_L_15_R_15.png","2_Ratio_1000_L_17_R_17.png","4_Ratio_1000_L_9_R_9.png","5_Ratio_1000_L_6_R_6.png","6_Ratio_1000_L_19_R_19.png","8_Ratio_1000_L_14_R_14.png","9_Ratio_1000_L_25_R_25.png"],["1_Ratio_1000_L_1_R_1.png","14_Ratio_1000_L_17_R_17.png","3_Ratio_1000_L_17_R_17.png","7_Ratio_1000_L_6_R_6.png"]]}},{"start_time":1551801447356,"click_time":1551801455166,"finger_time":1551801453365,"fix_duration":549.5585090652728,"trial":1,"RT":6009,"MT":1801,"sideResp":1,"stimulus":"img/900/randomdotsizeEA/R/5_Ratio_900_L_9_R_10.png","xmouse":[821,821,821,821,821,821,821,821,821,821,821,821,821,821,821,821,821,821,821,821,821,821,821,821,821,821,821,821,821,821,821,821,821,821,821,821,821,821,821,821,821,821,821,821,821,821,821,821,821,821,821,821,821,821,821,821,821,821,821,821,821,821,821,821,821,821,821,821,821,821,821,821,821,821,821,821,821,821,821,821,821,821,821,821,821,821,821,821,821,821,821,821,821,821,821,821,821,821,821,821,821,821,821,821,821,821,821,821,821,821,821,821,821,821,821,821,821,821,821,821,821,821,821,821,821,821,821,821,821,821,821,821,821,821,821,821,821,821,821,821,821,821,821,821,821,821,821,821,821,821,821,821,821,821,821,821,821,821,821,821,821,821,821,821,821,821,821,821,821,821,821,821,821,821,821,821,821,821,821,821,821,821,821,821,821,821,821,821,821,821,821,821,821,821,821,821,821,821,821,821,821,821,821,821,821,821,821,821,821,821,821,821,821,821,821,821,821,821,821,821,821,821,821,821,821,821,821,821,821,821,821,821,821,821,821,821,821,821,821,821,821,821,821,821,821,821,821,821,821,821,821,821,821,821,821,821,821,821,821,821,821,821,821,821,821,821,821,821,821,821,821,821,821,821,821,821,821,821,821,821,821,821,821,821,821,821,821,821,820,816,803,798,796,795,795,793,792,791,791,790,790,789,787,787,786,786,788,788,788,788,788,788,788,788,788,788,780,758,731,696,672,645,630,609,598,588,587,586,585,580,569,563,559,555,553,551,550,547,543,542,540,539,538,537,535,533,532,531,529,528,528,527,527,527,527,527,527,527,527,526,524,522,521,520,520,518,517,516,516,516,516,516,516,516,516,516,516,516,516,516,516,516,516,516,516,516,516,516,516,516,516],"ymouse":[516,516,516,516,516,516,516,516,516,516,516,516,516,516,516,516,516,516,516,516,516,516,516,516,516,516,516,516,516,516,516,516,516,516,516,516,516,516,516,516,516,516,516,516,516,516,516,516,516,516,516,516,516,516,516,516,516,516,516,516,516,516,516,516,516,516,516,516,516,516,516,516,516,516,516,516,516,516,516,516,516,516,516,516,516,516,516,516,516,516,516,516,516,516,516,516,516,516,516,516,516,516,516,516,516,516,516,516,516,516,516,516,516,516,516,516,516,516,516,516,516,516,516,516,516,516,516,516,516,516,516,516,516,516,516,516,516,516,517,517,517,517,517,517,517,517,517,517,517,517,517,517,517,517,517,517,517,517,517,517,517,517,517,517,517,517,517,517,517,517,517,517,517,517,517,517,517,517,517,517,517,517,517,517,517,517,517,517,517,517,517,517,517,517,517,517,517,517,517,517,517,517,517,517,517,517,517,517,517,517,517,517,517,517,517,517,517,517,517,517,517,517,517,517,517,517,517,517,517,517,517,517,517,517,517,517,517,517,517,517,517,517,517,517,517,517,517,517,517,517,517,517,517,517,517,517,517,517,517,517,517,517,517,517,517,517,517,517,517,517,517,517,517,517,517,517,517,517,517,517,517,517,517,517,517,517,517,517,518,517,514,513,512,512,507,489,482,477,474,472,469,462,448,428,407,376,348,338,333,331,331,331,331,331,331,331,325,315,303,288,279,264,253,236,226,218,218,217,216,214,206,202,198,193,191,185,176,167,159,155,150,146,142,138,134,132,130,129,127,127,125,124,124,124,124,124,124,124,124,123,119,117,115,114,113,112,110,109,109,109,109,109,108,108,105,105,104,104,104,103,103,103,103,103,103,103,101,100,100,100,99],"timestamp_mouse":[9,37,49,70,90,109,129,151,169,190,209,229,249,270,289,310,329,351,369,389,411,429,450,470,490,510,531,549,570,590,609,631,650,671,690,709,729,751,770,791,810,829,851,870,889,909,929,950,970,989,1010,1030,1049,1069,1089,1109,1129,1150,1170,1191,1211,1229,1250,1269,1289,1309,1331,1350,1371,1391,1410,1431,1449,1471,1490,1509,1529,1549,1570,1589,1609,1629,1649,1670,1690,1710,1729,1751,1769,1789,1809,1830,1851,1869,1890,1911,1930,1950,1970,1991,2009,2029,2049,2069,2090,2109,2130,2150,2170,2191,2210,2230,2250,2269,2290,2311,2330,2350,2371,2390,2410,2431,2451,2470,2489,2509,2529,2549,2571,2589,2609,2630,2651,2670,2690,2710,2731,2749,2769,2791,2810,2831,2851,2870,2890,2911,2930,2949,2971,2989,3009,3031,3050,3070,3090,3110,3129,3151,3170,3189,3210,3230,3250,3269,3289,3310,3330,3350,3369,3391,3410,3431,3450,3470,3490,3510,3530,3550,3571,3590,3609,3629,3649,3670,3691,3709,3730,3750,3769,3791,3810,3829,3850,3870,3890,3909,3929,3950,3970,3990,4010,4030,4049,4070,4090,4111,4130,4149,4171,4190,4210,4231,4251,4271,4290,4310,4331,4349,4369,4390,4411,4429,4450,4471,4490,4510,4529,4550,4569,4589,4609,4630,4651,4670,4690,4709,4729,4749,4771,4790,4809,4830,4850,4869,4890,4910,4931,4949,4969,4990,5011,5029,5050,5070,5090,5109,5129,5151,5169,5191,5209,5230,5249,5270,5289,5311,5329,5351,5369,5389,5411,5430,5451,5469,5490,5509,5529,5550,5569,5589,5609,5629,5649,5669,5690,5710,5730,5749,5769,5790,5809,5830,5849,5870,5889,5910,5929,5950,5970,5991,6009,6029,6049,6070,6089,6110,6129,6150,6169,6189,6210,6229,6250,6269,6290,6309,6329,6350,6369,6390,6409,6429,6450,6469,6490,6509,6529,6549,6569,6590,6610,6629,6650,6669,6690,6709,6729,6749,6770,6790,6810,6829,6849,6869,6891,6909,6929,6950,6970,6989,7010,7030,7050,7070,7090,7111,7130,7150,7170,7189,7209,7229,7250,7269,7290,7309,7330,7349,7369,7391,7410,7429,7450,7470,7489,7510,7530,7550,7570,7589,7609,7629,7651,7670,7690,7709,7730,7749,7769,7791,7809],"xSR":741.5,"ySR":469.95,"xT1":424.9,"yT1":0,"xT2":1058.1,"yT2":0,"toosoon":0,"cond_shown":"randomdotsizeEA","ratio_trial":900,"smaller_num":"9","larger_num":"10","correct_side":2,"subjID":"charlottecaicedorestrepo36","gender":"1","age":"11","school":"6"},{"start_time":1551801456938,"click_time":1551801458767,"finger_time":1551801457687,"fix_duration":250,"trial":2,"RT":749,"MT":1080,"sideResp":2,"stimulus":"img/750/equaldotanddens/R/4_Ratio_750_L_15_R_20.png","xmouse":[787,787,787,787,787,787,787,787,787,787,787,787,787,787,787,787,787,787,787,787,787,787,787,787,787,787,787,787,787,787,787,787,787,787,787,787,799,845,896,946,985,1012,1015,1015,1018,1021,1027,1029,1030,1033,1034,1035,1036,1037,1038,1039,1041,1044,1045,1046,1046,1047,1049,1050,1051,1052,1057,1058,1059,1061,1062,1065,1066,1067,1067,1068,1070,1070,1070,1070,1071,1072,1072,1073,1073,1075,1075,1075,1075,1076,1077,1077],"ymouse":[536,536,536,536,536,536,536,536,536,536,536,536,536,536,536,536,536,536,536,536,536,536,536,536,536,536,536,536,536,536,536,536,536,536,536,536,527,478,432,394,365,340,334,328,320,316,306,303,298,292,287,281,279,276,266,257,246,229,223,220,217,216,211,208,207,204,199,196,194,190,186,176,173,168,165,159,152,149,145,143,139,132,127,122,121,115,113,111,107,102,100,98],"timestamp_mouse":[8,29,49,68,88,108,128,149,168,188,208,228,248,269,289,308,328,348,369,390,408,428,448,469,489,508,528,549,569,588,609,628,649,668,688,708,728,749,769,788,808,828,848,869,888,908,928,948,968,988,1009,1028,1048,1068,1088,1108,1129,1148,1168,1189,1208,1229,1249,1268,1288,1309,1329,1348,1368,1388,1409,1428,1448,1468,1488,1508,1528,1548,1568,1589,1608,1629,1648,1668,1688,1708,1729,1748,1768,1788,1808,1828],"xSR":741.5,"ySR":469.95,"xT1":424.9,"yT1":0,"xT2":1058.1,"yT2":0,"toosoon":0,"cond_shown":"equaldotanddens","ratio_trial":750,"smaller_num":"15","larger_num":"20","correct_side":2,"subjID":"charlottecaicedorestrepo36","gender":"1","age":"11","school":"6"},{"start_time":1551801463620,"click_time":1551801465847,"finger_time":1551801464827,"fix_duration":530.9259508328278,"trial":3,"RT":1207,"MT":1020,"sideResp":2,"stimulus":"img/900/randomdotsizeEA/R/14_Ratio_900_L_18_R_20.png","xmouse":[825,825,825,825,825,825,825,825,825,825,825,825,825,825,825,825,825,825,825,825,825,825,825,825,825,825,825,825,825,825,825,825,825,825,825,825,825,825,825,825,825,825,825,825,825,825,825,825,825,825,825,825,825,825,825,825,825,825,825,826,846,873,910,923,930,932,935,947,951,960,969,982,1005,1015,1019,1022,1024,1027,1027,1028,1028,1028,1028,1029,1030,1032,1033,1036,1039,1044,1049,1056,1064,1065,1067,1069,1070,1072,1073,1073,1075,1077,1079,1080,1080,1081,1082,1082,1083,1091,1094,1106],"ymouse":[538,538,538,538,538,538,538,538,538,538,538,538,538,538,538,538,538,538,538,538,538,538,538,538,538,538,538,538,538,538,538,538,538,538,538,538,538,538,538,538,538,538,538,538,538,538,538,538,538,538,538,538,538,538,538,538,538,538,538,536,514,491,452,426,406,394,380,342,328,305,287,270,245,235,231,228,223,212,205,199,193,182,177,165,161,156,153,147,143,139,135,130,126,125,123,120,119,118,117,116,115,113,112,111,110,109,109,108,107,103,102,98],"timestamp_mouse":[8,27,57,66,87,106,126,146,166,186,207,226,246,266,286,306,326,346,367,387,407,427,447,466,486,506,526,546,566,586,606,627,646,666,686,707,726,746,766,787,807,826,846,866,886,906,927,946,966,987,1006,1026,1046,1067,1087,1108,1126,1147,1167,1186,1207,1226,1246,1266,1286,1306,1326,1346,1366,1387,1406,1426,1446,1466,1486,1506,1527,1546,1566,1587,1606,1627,1647,1666,1686,1706,1727,1746,1766,1786,1806,1826,1846,1866,1886,1907,1927,1947,1966,1986,2007,2026,2046,2066,2087,2106,2126,2147,2166,2187,2206,2226],"xSR":741.5,"ySR":469.95,"xT1":424.9,"yT1":0,"xT2":1058.1,"yT2":0,"toosoon":0,"cond_shown":"randomdotsizeEA","ratio_trial":900,"smaller_num":"18","larger_num":"20","correct_side":2,"subjID":"charlottecaicedorestrepo36","gender":"1","age":"11","school":"6"},{"start_time":1551801468718,"click_time":1551801471886,"finger_time":1551801470667,"fix_duration":250,"trial":4,"RT":1949,"MT":1219,"sideResp":2,"stimulus":"img/900/equaldotsize/L/2_Ratio_900_L_20_R_18.png","xmouse":[820,820,820,820,820,820,820,820,820,820,820,820,820,820,820,820,820,820,820,820,820,820,820,820,820,820,820,820,820,820,820,820,820,820,820,820,820,820,820,820,820,820,820,820,820,820,820,820,820,820,820,820,820,820,820,820,820,820,820,820,820,820,820,820,820,820,820,820,820,820,820,820,820,820,820,820,820,820,820,820,820,820,820,820,820,820,820,820,820,820,820,820,822,826,827,827,827,838,851,863,873,880,898,904,906,908,909,911,913,913,913,914,916,916,917,920,923,929,934,942,950,958,975,983,986,987,994,1009,1017,1021,1022,1022,1022,1023,1025,1027,1029,1034,1036,1040,1045,1052,1063,1068,1070,1072,1076,1081,1083,1085,1085,1085,1086,1088,1089,1090,1090,1092,1092],"ymouse":[533,533,533,533,533,533,533,533,533,533,533,533,533,533,533,533,533,533,533,533,533,533,533,533,533,533,533,533,533,533,533,533,533,533,533,533,533,533,533,533,533,533,533,533,533,533,533,533,533,533,533,533,533,533,533,533,533,533,533,533,533,533,533,533,533,533,533,533,533,533,533,533,533,533,533,533,533,533,533,533,533,533,533,533,533,533,533,533,533,533,533,525,499,481,476,475,472,448,432,419,410,403,383,378,376,375,374,371,370,370,369,367,365,364,362,360,358,354,351,345,339,332,319,314,312,309,295,255,241,234,234,234,234,231,227,224,220,211,207,200,191,179,161,153,148,144,138,128,125,122,121,120,117,113,109,108,105,103,99],"timestamp_mouse":[10,36,48,69,88,108,128,148,169,189,208,229,249,268,288,308,328,349,369,389,408,428,448,468,489,508,528,548,568,588,608,628,648,668,689,709,729,748,768,788,808,829,849,868,890,909,928,949,968,988,1008,1028,1048,1068,1089,1109,1128,1148,1168,1189,1208,1228,1249,1268,1288,1308,1329,1348,1369,1389,1408,1428,1448,1469,1489,1509,1528,1548,1569,1589,1609,1629,1649,1669,1689,1708,1728,1749,1768,1789,1808,1828,1848,1869,1889,1908,1928,1949,1968,1988,2008,2028,2049,2068,2089,2108,2128,2148,2168,2189,2208,2228,2248,2267,2288,2308,2329,2348,2368,2389,2408,2429,2449,2468,2488,2508,2528,2548,2568,2589,2610,2628,2648,2669,2689,2708,2728,2748,2768,2788,2808,2829,2849,2868,2889,2909,2928,2948,2968,2988,3009,3029,3049,3068,3088,3109,3128,3148,3168],"xSR":741.5,"ySR":469.95,"xT1":424.9,"yT1":0,"xT2":1058.1,"yT2":0,"toosoon":0,"cond_shown":"equaldotsize","ratio_trial":900,"smaller_num":"18","larger_num":"20","correct_side":1,"subjID":"charlottecaicedorestrepo36","gender":"1","age":"11","school":"6"},{"start_time":1551801479331,"click_time":1551801481007,"finger_time":1551801480227,"fix_duration":1443.5734158255837,"trial":5,"RT":896,"MT":780,"sideResp":1,"stimulus":"img/250/equaldotsize/L/14_Ratio_250_L_12_R_3.png","xmouse":[801,801,801,801,801,801,801,801,801,801,801,801,801,801,801,801,801,801,801,801,801,801,801,801,801,801,801,801,801,801,801,801,801,801,801,801,801,801,801,801,801,801,800,800,795,782,769,671,587,502,439,389,382,379,375,368,357,353,350,349,348,348,349,352,359,365,380,385,389,390,392,393,393,393,393,393,393,397,404,411,416,419,424,425],"ymouse":[514,514,514,514,514,514,514,514,514,514,514,514,514,514,514,514,514,514,514,514,514,514,514,514,514,514,514,514,514,514,514,514,514,514,514,514,514,514,514,514,514,514,513,505,469,444,426,403,392,375,356,333,328,323,315,300,274,261,251,240,228,202,191,181,162,149,124,116,110,108,106,105,105,105,105,105,105,104,102,98,96,94,89,86],"timestamp_mouse":[16,35,56,76,95,116,135,155,176,196,215,235,255,276,296,315,336,356,376,396,415,436,456,476,496,516,536,555,576,596,615,636,655,675,695,716,736,755,776,795,816,836,855,875,896,916,935,955,975,996,1015,1036,1055,1075,1095,1116,1135,1155,1175,1196,1216,1235,1255,1276,1296,1315,1335,1355,1375,1396,1415,1435,1456,1477,1495,1515,1536,1555,1575,1596,1616,1635,1655,1676],"xSR":741.5,"ySR":469.95,"xT1":424.9,"yT1":0,"xT2":1058.1,"yT2":0,"toosoon":0,"cond_shown":"equaldotsize","ratio_trial":250,"smaller_num":"3","larger_num":"12","correct_side":1,"subjID":"charlottecaicedorestrepo36","gender":"1","age":"11","school":"6"},{"start_time":1551801483391,"click_time":1551801484946,"finger_time":1551801484166,"fix_duration":422.24384424679727,"trial":6,"RT":775,"MT":780,"sideResp":2,"stimulus":"img/500/equaldotanddens/R/9_Ratio_500_L_2_R_4.png","xmouse":[778,778,778,778,778,778,778,778,778,778,778,778,778,778,778,778,778,778,778,778,778,778,778,778,778,778,778,778,778,778,778,778,778,779,781,785,789,800,816,828,830,833,838,847,851,855,860,871,910,928,951,957,959,959,963,969,969,969,969,969,969,969,969,969,969,969,969,969,1050,1052,1052,1052,1052,1053,1055,1057,1058,1059],"ymouse":[515,515,515,515,515,515,515,515,515,515,515,515,515,515,515,515,515,515,515,515,515,515,515,515,515,515,515,515,515,515,515,515,515,515,511,505,496,476,458,434,427,420,410,401,398,395,390,379,306,263,198,163,142,95,34,0,0,0,0,0,0,0,0,0,0,0,0,0,5,8,8,8,8,9,10,10,11,11],"timestamp_mouse":[15,36,55,75,95,115,136,156,175,195,216,235,255,276,295,316,335,355,375,396,415,435,455,476,496,516,535,555,575,596,616,635,655,676,695,716,735,755,775,795,815,835,855,875,895,915,935,955,975,995,1015,1036,1055,1076,1095,1115,1135,1155,1176,1195,1215,1235,1255,1275,1296,1316,1336,1356,1375,1395,1415,1436,1456,1476,1495,1515,1536,1555],"xSR":741.5,"ySR":469.95,"xT1":424.9,"yT1":0,"xT2":1058.1,"yT2":0,"toosoon":0,"cond_shown":"equaldotanddens","ratio_trial":500,"smaller_num":"2","larger_num":"4","correct_side":2,"subjID":"charlottecaicedorestrepo36","gender":"1","age":"11","school":"6"},{"start_time":1551801488738,"click_time":1551801490306,"finger_time":1551801489507,"fix_duration":591.8801766601258,"trial":7,"RT":769,"MT":799,"sideResp":2,"stimulus":"img/750/equaldotsize/R/11_Ratio_750_L_12_R_16.png","xmouse":[811,811,811,811,811,811,811,811,811,811,811,811,811,811,811,811,811,811,811,811,811,811,811,811,811,811,811,811,811,811,811,811,811,811,814,819,823,828,840,853,867,877,879,881,887,891,901,907,915,920,923,929,932,934,935,936,940,947,955,967,985,1024,1041,1052,1056,1061,1063,1064,1064,1066,1066,1067,1068,1070,1072,1072,1073,1074,1074],"ymouse":[491,491,491,491,491,491,491,491,491,491,491,491,491,491,491,491,491,491,491,491,491,491,491,491,491,491,491,491,491,491,491,491,491,491,490,488,482,474,461,446,426,396,380,362,336,321,293,277,261,253,244,232,228,224,223,221,212,202,194,186,175,152,143,137,134,131,128,127,124,122,121,119,111,107,102,102,100,100,99],"timestamp_mouse":[16,39,48,69,88,108,128,148,169,188,208,228,248,269,288,308,328,348,369,388,408,428,448,468,488,509,529,548,569,588,608,629,649,668,689,708,728,749,769,789,809,828,848,869,888,909,928,948,968,988,1009,1028,1048,1068,1088,1109,1129,1148,1169,1188,1209,1228,1248,1268,1289,1308,1329,1348,1368,1389,1409,1429,1448,1469,1489,1508,1528,1548,1568],"xSR":741.5,"ySR":469.95,"xT1":424.9,"yT1":0,"xT2":1058.1,"yT2":0,"toosoon":0,"cond_shown":"equaldotsize","ratio_trial":750,"smaller_num":"12","larger_num":"16","correct_side":2,"subjID":"charlottecaicedorestrepo36","gender":"1","age":"11","school":"6"},{"start_time":1551801492955,"click_time":1551801497467,"finger_time":1551801496607,"fix_duration":1326.8644470087997,"trial":8,"RT":3652,"MT":860,"sideResp":2,"stimulus":"img/250/randomdotsizeEA/L/14_Ratio_250_L_12_R_3.png","xmouse":[801,801,801,801,801,801,801,801,801,801,801,801,801,801,801,801,801,801,801,801,801,801,801,801,801,801,801,801,801,801,801,801,801,801,801,801,801,801,801,801,801,801,801,801,801,801,801,801,801,801,801,801,801,801,801,801,801,801,801,801,801,801,801,801,801,801,801,801,801,801,801,801,801,801,801,801,801,801,801,801,801,801,801,801,801,801,801,801,801,801,801,801,801,801,801,801,801,801,801,801,801,801,801,801,801,801,801,801,801,801,801,801,801,800,800,800,800,800,800,800,800,800,800,800,800,800,800,800,800,800,800,800,800,800,800,800,800,800,800,800,800,800,800,800,800,800,800,800,800,800,800,800,800,800,800,800,800,800,800,800,800,800,800,800,800,800,800,800,800,800,800,800,800,800,800,800,800,800,800,803,822,834,845,851,855,861,867,871,874,876,882,885,889,893,898,909,912,921,925,929,931,933,936,938,941,944,951,955,961,967,983,995,1007,1017,1024,1026,1029,1031,1033,1034,1037,1039,1044,1045,1053,1070],"ymouse":[531,531,531,531,531,531,531,531,531,531,531,531,531,531,531,531,531,531,531,531,531,531,531,531,531,531,531,531,531,531,531,531,531,531,531,531,531,531,531,531,531,531,531,531,531,531,531,531,531,531,531,531,531,531,531,531,531,531,531,531,531,531,531,531,531,531,531,531,531,531,531,531,531,531,531,531,531,531,531,531,531,531,531,531,531,531,531,531,531,531,531,531,531,531,531,531,531,531,531,531,531,531,531,531,531,531,531,531,531,531,531,531,531,530,530,530,530,530,530,530,530,530,530,530,530,530,530,530,530,530,530,530,530,530,530,530,530,530,530,530,530,530,530,530,530,530,530,530,530,530,530,530,530,530,530,530,530,530,530,530,530,530,530,530,530,530,530,530,530,530,530,530,530,530,530,530,530,530,529,527,497,481,466,457,450,430,411,395,383,373,350,339,325,309,292,255,242,222,211,206,199,194,188,184,181,174,164,159,154,150,137,128,120,114,110,109,109,107,106,105,104,102,100,98,92,85],"timestamp_mouse":[11,37,51,72,92,112,132,151,171,191,211,231,252,271,291,312,332,351,372,392,412,432,452,472,492,511,532,551,571,591,611,632,653,671,692,711,732,752,772,791,812,831,852,872,892,911,932,951,972,991,1011,1032,1052,1072,1091,1113,1132,1152,1171,1192,1211,1232,1251,1271,1291,1311,1331,1352,1371,1392,1412,1432,1452,1471,1491,1512,1531,1552,1571,1591,1612,1632,1652,1672,1692,1712,1731,1751,1772,1792,1811,1831,1852,1872,1891,1911,1931,1951,1971,1992,2012,2031,2051,2072,2091,2112,2133,2152,2172,2192,2212,2231,2251,2271,2291,2312,2332,2351,2372,2392,2412,2432,2451,2471,2491,2511,2532,2551,2571,2592,2612,2631,2652,2671,2692,2711,2731,2752,2772,2792,2812,2831,2852,2872,2891,2911,2932,2952,2971,2991,3012,3031,3052,3072,3091,3112,3131,3152,3171,3192,3211,3232,3252,3272,3291,3311,3332,3351,3372,3391,3411,3431,3451,3472,3492,3512,3531,3551,3571,3591,3611,3631,3652,3672,3692,3712,3731,3751,3771,3792,3811,3831,3852,3871,3891,3918,3931,3951,3972,3992,4012,4031,4051,4071,4092,4112,4131,4151,4171,4191,4212,4231,4252,4271,4291,4312,4331,4351,4372,4391,4411,4431,4451,4471,4491,4512],"xSR":741.5,"ySR":469.95,"xT1":424.9,"yT1":0,"xT2":1058.1,"yT2":0,"toosoon":0,"cond_shown":"randomdotsizeEA","ratio_trial":250,"smaller_num":"3","larger_num":"12","correct_side":1,"subjID":"charlottecaicedorestrepo36","gender":"1","age":"11","school":"6"},{"start_time":1551801500338,"click_time":1551801501386,"finger_time":1551801501206,"fix_duration":771.8151245173774,"trial":9,"RT":868,"MT":180,"sideResp":2,"stimulus":"img/750/equaldotanddens/R/12_Ratio_750_L_3_R_4.png","xmouse":[777,777,777,777,777,777,777,777,777,777,777,777,777,777,777,777,777,777,777,777,777,777,777,777,777,777,777,777,777,777,777,777,777,777,777,777,777,777,777,777,778,784,803,815,846,860,872,929,978,1018,1045,1071,1076],"ymouse":[512,512,512,512,512,512,512,512,512,512,512,512,512,512,512,512,512,512,512,512,512,512,512,512,512,512,512,512,512,512,512,512,512,512,512,512,512,512,512,512,510,501,471,449,406,387,367,288,225,174,140,108,97],"timestamp_mouse":[9,32,48,69,88,108,128,148,169,189,208,228,249,269,289,308,328,349,369,388,408,429,448,468,488,508,528,548,568,588,608,629,648,668,689,709,729,749,768,788,809,829,848,868,888,908,928,949,968,988,1008,1028,1048],"xSR":741.5,"ySR":469.95,"xT1":424.9,"yT1":0,"xT2":1058.1,"yT2":0,"toosoon":0,"cond_shown":"equaldotanddens","ratio_trial":750,"smaller_num":"3","larger_num":"4","correct_side":2,"subjID":"charlottecaicedorestrepo36","gender":"1","age":"11","school":"6"},{"start_time":1551801503848,"click_time":1551801505667,"finger_time":1551801504586,"fix_duration":380.98170665001584,"trial":10,"RT":738,"MT":1081,"sideResp":2,"stimulus":"img/750/equaldotsize/R/3_Ratio_750_L_15_R_20.png","xmouse":[815,815,815,815,815,815,815,815,815,815,815,815,815,815,815,815,815,815,815,815,815,815,815,815,815,815,815,815,815,815,815,815,815,815,816,840,864,886,908,913,921,925,932,942,954,977,990,998,1000,1001,1001,1001,1001,1001,1001,1001,1001,1002,1007,1011,1018,1018,1018,1018,1018,1018,1019,1021,1036,1045,1051,1051,1051,1051,1051,1051,1051,1051,1051,1051,1051,1051,1051,1051,1051,1051,1051,1052,1053,1057,1060],"ymouse":[554,554,554,554,554,554,554,554,554,554,554,554,554,554,554,554,554,554,554,554,554,554,554,554,554,554,554,554,554,554,554,554,554,554,553,516,483,448,402,382,356,338,311,278,244,162,118,93,84,80,80,80,79,79,79,79,79,78,79,81,84,84,84,84,84,84,84,84,76,71,68,68,68,68,68,68,68,68,68,68,68,68,68,68,68,68,68,68,68,68,70],"timestamp_mouse":[18,38,59,78,98,118,139,158,178,199,218,239,259,278,298,319,339,359,378,398,418,438,458,479,498,519,539,558,578,598,618,639,658,678,698,719,738,758,778,798,818,838,858,878,899,918,938,958,978,998,1018,1039,1058,1079,1099,1119,1138,1159,1178,1199,1218,1238,1258,1278,1298,1319,1338,1358,1378,1398,1419,1438,1459,1479,1498,1518,1538,1558,1578,1598,1619,1638,1658,1678,1699,1719,1739,1758,1778,1798,1819],"xSR":741.5,"ySR":469.95,"xT1":424.9,"yT1":0,"xT2":1058.1,"yT2":0,"toosoon":0,"cond_shown":"equaldotsize","ratio_trial":750,"smaller_num":"15","larger_num":"20","correct_side":2,"subjID":"charlottecaicedorestrepo36","gender":"1","age":"11","school":"6"},{"start_time":1551801507441,"click_time":1551801509086,"finger_time":1551801508407,"fix_duration":512.5756117819494,"trial":11,"RT":966,"MT":679,"sideResp":1,"stimulus":"img/250/equaldotanddens/L/7_Ratio_250_L_8_R_2.png","xmouse":[812,812,812,812,812,812,812,812,812,812,812,812,812,812,812,812,812,812,812,812,812,812,812,812,812,812,812,812,812,812,812,812,812,812,812,812,812,812,812,812,812,812,812,812,812,809,788,759,708,652,590,545,537,529,525,521,515,512,511,509,508,508,508,508,508,508,506,503,500,495,491,486,485,482,482,482,481,481,481,483,483,483,483],"ymouse":[539,539,539,539,539,539,539,539,539,539,539,539,539,539,539,539,539,539,539,539,539,539,539,539,539,539,539,539,539,539,539,539,539,539,539,539,539,539,539,539,539,539,539,539,539,536,514,489,449,413,373,345,337,328,322,314,305,300,294,287,279,256,243,229,216,205,189,181,175,166,161,151,148,143,140,133,113,108,104,102,102,101,98],"timestamp_mouse":[9,25,48,66,85,105,125,145,165,185,205,225,245,265,285,305,326,346,365,385,406,425,446,465,487,505,525,545,566,586,605,626,645,665,685,706,725,746,766,785,806,826,846,865,885,905,926,946,966,986,1006,1026,1045,1065,1086,1105,1125,1145,1165,1185,1205,1225,1245,1267,1285,1305,1325,1345,1365,1385,1406,1425,1445,1465,1485,1505,1525,1545,1566,1586,1606,1625,1645],"xSR":741.5,"ySR":469.95,"xT1":424.9,"yT1":0,"xT2":1058.1,"yT2":0,"toosoon":0,"cond_shown":"equaldotanddens","ratio_trial":250,"smaller_num":"2","larger_num":"8","correct_side":1,"subjID":"charlottecaicedorestrepo36","gender":"1","age":"11","school":"6"},{"start_time":1551801511461,"click_time":1551801512666,"finger_time":1551801512146,"fix_duration":1472.9145037391716,"trial":12,"RT":685,"MT":520,"sideResp":2,"stimulus":"img/900/equaldotsize/L/8_Ratio_900_L_20_R_18.png","xmouse":[750,750,750,750,750,750,750,750,750,750,750,750,750,750,750,750,750,750,750,750,750,750,750,750,750,750,750,750,750,750,750,750,750,760,794,885,906,926,947,955,960,962,966,974,983,995,998,998,1004,1012,1023,1033,1033,1034,1035,1041,1048,1052,1056,1058,1060],"ymouse":[507,507,507,507,507,507,507,507,507,507,507,507,507,507,507,507,507,507,507,507,507,507,507,507,507,507,507,507,507,507,507,507,507,499,469,394,372,350,324,310,285,270,252,229,209,189,185,182,171,156,142,126,125,123,121,110,100,95,88,83,79],"timestamp_mouse":[8,34,45,66,85,105,126,145,165,185,205,225,246,265,285,306,325,346,365,385,406,425,445,465,485,505,525,546,565,585,605,626,645,666,685,705,725,745,765,785,806,825,845,866,885,905,925,945,965,985,1006,1026,1046,1065,1085,1105,1125,1157,1166,1185,1205],"xSR":741.5,"ySR":469.95,"xT1":424.9,"yT1":0,"xT2":1058.1,"yT2":0,"toosoon":0,"cond_shown":"equaldotsize","ratio_trial":900,"smaller_num":"18","larger_num":"20","correct_side":1,"subjID":"charlottecaicedorestrepo36","gender":"1","age":"11","school":"6"},{"start_time":1551801527478,"click_time":1551801528666,"finger_time":1551801528246,"fix_duration":790.4838623584271,"trial":13,"RT":768,"MT":420,"sideResp":2,"stimulus":"img/500/equaldotsize/R/14_Ratio_500_L_5_R_10.png","xmouse":[800,800,800,800,800,800,800,800,800,800,800,800,800,800,800,800,800,800,800,800,800,800,800,800,800,800,800,800,800,800,800,800,800,800,800,800,801,835,885,919,948,955,957,958,976,991,1008,1023,1036,1042,1055,1060,1066,1070,1078,1085,1089,1097,1103,1104],"ymouse":[500,500,500,500,500,500,500,500,500,500,500,500,500,500,500,500,500,500,500,500,500,500,500,500,500,500,500,500,500,500,500,500,500,500,500,500,498,473,433,408,387,382,380,379,359,345,332,323,306,289,243,223,206,194,168,141,133,116,102,99],"timestamp_mouse":[8,28,48,67,88,109,128,149,167,187,207,228,247,268,287,308,327,348,367,388,408,427,447,467,487,507,527,547,567,587,609,627,648,667,687,707,728,748,768,787,807,828,847,867,888,907,927,947,968,987,1007,1027,1047,1067,1088,1107,1127,1147,1167,1188],"xSR":741.5,"ySR":469.95,"xT1":424.9,"yT1":0,"xT2":1058.1,"yT2":0,"toosoon":0,"cond_shown":"equaldotsize","ratio_trial":500,"smaller_num":"5","larger_num":"10","correct_side":2,"subjID":"charlottecaicedorestrepo36","gender":"1","age":"11","school":"6"},{"start_time":1551801530350,"click_time":1551801531645,"finger_time":1551801531085,"fix_duration":383.23156321647355,"trial":14,"RT":735,"MT":560,"sideResp":1,"stimulus":"img/250/equaldotanddens/L/1_Ratio_250_L_8_R_2.png","xmouse":[825,825,825,825,825,825,825,825,825,825,825,825,825,825,825,825,825,825,825,825,825,825,825,825,825,825,825,825,825,825,825,825,825,823,813,797,751,712,670,629,595,591,589,586,580,567,558,553,544,539,533,527,524,519,515,504,501,498,496,496,494,492,489,487,482],"ymouse":[529,529,529,529,529,529,529,529,529,529,529,529,529,529,529,529,529,529,529,529,529,529,529,529,529,529,529,529,529,529,529,529,529,529,516,498,459,432,408,381,352,344,337,331,318,287,268,250,230,211,192,173,169,162,158,144,140,136,133,133,128,124,117,112,90],"timestamp_mouse":[16,35,55,75,95,115,136,155,175,195,216,236,257,275,295,316,336,356,375,395,416,435,455,476,496,515,535,555,575,596,616,636,656,676,696,715,735,755,775,796,816,835,855,875,896,915,935,956,976,995,1015,1036,1055,1075,1096,1116,1135,1156,1175,1196,1215,1235,1256,1277,1295],"xSR":741.5,"ySR":469.95,"xT1":424.9,"yT1":0,"xT2":1058.1,"yT2":0,"toosoon":0,"cond_shown":"equaldotanddens","ratio_trial":250,"smaller_num":"2","larger_num":"8","correct_side":1,"subjID":"charlottecaicedorestrepo36","gender":"1","age":"11","school":"6"},{"start_time":1551801533952,"click_time":1551801537745,"finger_time":1551801537165,"fix_duration":1146.2688475246944,"trial":15,"RT":3213,"MT":580,"sideResp":2,"stimulus":"img/750/equaldotanddens/L/10_Ratio_750_L_4_R_3.png","xmouse":[751,751,751,751,751,751,751,751,751,751,751,751,751,751,751,751,751,751,751,751,751,751,751,751,751,751,751,751,751,751,751,751,751,751,751,751,751,751,751,751,751,751,751,751,751,751,751,751,751,751,751,751,751,751,751,751,751,751,751,751,751,751,751,751,751,751,751,751,751,751,751,751,751,751,751,751,751,751,751,751,751,751,751,751,751,751,751,751,751,751,751,751,751,751,751,751,751,751,751,751,751,751,751,751,751,751,751,751,751,751,751,751,751,751,751,751,751,751,751,751,751,751,751,751,751,751,751,751,751,751,751,751,751,751,751,751,751,751,751,751,751,751,751,751,751,751,751,751,751,751,751,751,751,751,751,751,751,751,751,754,818,861,885,904,952,987,997,1003,1009,1012,1015,1016,1020,1025,1038,1046,1049,1052,1055,1056,1056,1057,1057,1058,1060,1064,1066,1069,1075,1078],"ymouse":[498,498,498,498,498,498,498,498,498,498,498,498,498,498,498,498,498,498,498,498,498,498,498,498,498,498,498,498,498,498,498,498,498,498,498,498,498,498,498,498,498,498,498,498,498,498,498,498,498,498,498,498,498,498,498,498,498,498,498,498,498,498,498,498,498,498,498,498,498,498,498,498,498,498,498,498,498,498,498,498,498,498,498,498,498,498,498,498,498,498,498,498,498,498,498,498,498,498,498,498,498,498,498,498,498,498,498,498,498,498,498,498,498,498,498,498,498,498,498,498,498,498,498,498,498,498,498,498,498,498,498,498,498,498,498,498,498,498,498,498,498,498,498,498,498,498,498,498,498,498,498,498,498,498,498,498,498,498,498,498,430,392,373,354,310,283,273,265,257,252,245,240,224,215,186,168,158,149,142,139,136,134,134,133,130,123,116,111,102,91],"timestamp_mouse":[19,33,53,74,94,113,133,154,173,193,214,233,253,274,294,314,334,353,374,394,413,433,453,473,493,513,533,554,573,593,614,634,653,673,695,713,733,753,774,794,814,834,853,874,893,914,933,955,974,993,1014,1033,1053,1074,1093,1114,1133,1154,1175,1194,1213,1234,1255,1273,1293,1313,1335,1353,1374,1393,1413,1435,1453,1475,1493,1515,1533,1553,1573,1593,1613,1634,1654,1673,1693,1715,1733,1753,1773,1793,1814,1834,1854,1873,1894,1913,1934,1954,1974,1995,2014,2034,2053,2073,2093,2114,2133,2153,2174,2194,2214,2234,2254,2273,2293,2314,2335,2354,2374,2394,2413,2433,2453,2474,2494,2514,2533,2555,2574,2593,2613,2633,2654,2675,2693,2714,2734,2754,2774,2794,2813,2833,2853,2874,2893,2913,2934,2955,2974,2994,3013,3034,3053,3073,3094,3113,3134,3153,3173,3193,3213,3233,3253,3273,3294,3313,3333,3354,3373,3394,3413,3433,3454,3473,3494,3514,3533,3553,3573,3593,3613,3634,3653,3674,3693,3713,3733,3753,3773,3793],"xSR":741.5,"ySR":469.95,"xT1":424.9,"yT1":0,"xT2":1058.1,"yT2":0,"toosoon":0,"cond_shown":"equaldotanddens","ratio_trial":750,"smaller_num":"3","larger_num":"4","correct_side":1,"subjID":"charlottecaicedorestrepo36","gender":"1","age":"11","school":"6"},{"start_time":1551801543271,"click_time":1551801544425,"finger_time":1551801544145,"fix_duration":524.5397228417357,"trial":16,"RT":874,"MT":280,"sideResp":2,"stimulus":"img/750/equaldotsize/R/5_Ratio_750_L_15_R_20.png","xmouse":[798,798,798,798,798,798,798,798,798,798,798,798,798,798,798,798,798,798,798,798,798,798,798,798,798,798,798,798,798,798,798,798,798,798,798,798,798,798,798,800,806,815,832,849,898,919,930,946,966,995,1007,1017,1027,1035,1040,1050,1058,1066],"ymouse":[562,562,563,563,563,563,563,563,563,563,563,563,563,563,563,563,563,563,563,563,563,563,563,563,563,563,563,563,563,563,563,563,563,563,563,563,563,563,563,563,563,553,537,515,441,407,378,342,290,214,184,161,139,122,105,74,58,43],"timestamp_mouse":[14,40,54,75,95,114,136,154,175,195,215,236,254,274,295,316,334,355,375,395,414,435,455,475,495,514,536,555,574,594,614,635,654,674,695,715,735,754,775,795,815,834,854,874,895,914,934,954,975,996,1014,1034,1055,1074,1094,1114,1136,1154],"xSR":741.5,"ySR":469.95,"xT1":424.9,"yT1":0,"xT2":1058.1,"yT2":0,"toosoon":0,"cond_shown":"equaldotsize","ratio_trial":750,"smaller_num":"15","larger_num":"20","correct_side":2,"subjID":"charlottecaicedorestrepo36","gender":"1","age":"11","school":"6"},{"start_time":1551801546368,"click_time":1551801547946,"finger_time":1551801547225,"fix_duration":561.9038581754402,"trial":17,"RT":857,"MT":721,"sideResp":2,"stimulus":"img/500/equaldotsize/R/12_Ratio_500_L_1_R_2.png","xmouse":[803,803,803,803,803,803,803,803,803,803,803,803,803,803,803,803,803,803,803,803,803,803,803,803,803,803,803,803,803,803,803,803,803,803,803,803,803,803,803,803,803,811,847,906,1025,1084,1133,1175,1194,1201,1202,1202,1202,1202,1199,1197,1197,1197,1197,1191,1186,1183,1178,1171,1165,1165,1165,1165,1165,1165,1165,1165,1165,1165,1165,1163,1161,1159,1158],"ymouse":[544,544,544,544,544,544,544,544,544,544,544,544,544,544,544,544,544,544,544,544,544,544,544,544,544,544,544,544,544,544,544,544,544,544,544,544,544,544,544,544,544,536,500,450,344,284,229,181,153,137,115,103,90,80,66,64,64,64,64,62,61,61,61,64,67,67,67,67,67,67,67,67,67,67,67,67,67,68,69],"timestamp_mouse":[28,37,59,78,98,117,137,157,177,197,219,238,258,277,298,317,339,358,378,398,418,438,458,478,498,518,537,557,578,599,618,637,658,677,697,717,738,758,778,798,818,838,857,878,897,917,938,958,979,997,1017,1037,1058,1078,1098,1117,1137,1158,1178,1198,1217,1237,1257,1277,1297,1317,1337,1358,1377,1397,1417,1438,1459,1478,1498,1517,1537,1557,1578],"xSR":741.5,"ySR":469.95,"xT1":424.9,"yT1":0,"xT2":1058.1,"yT2":0,"toosoon":0,"cond_shown":"equaldotsize","ratio_trial":500,"smaller_num":"1","larger_num":"2","correct_side":2,"subjID":"charlottecaicedorestrepo36","gender":"1","age":"11","school":"6"},{"start_time":1551801549957,"click_time":1551801551866,"finger_time":1551801551307,"fix_duration":250,"trial":18,"RT":1350,"MT":559,"sideResp":2,"stimulus":"img/750/equaldotsize/R/12_Ratio_750_L_3_R_4.png","xmouse":[829,829,829,829,829,829,829,829,829,829,829,829,829,829,829,829,829,829,829,829,829,829,829,829,829,829,829,829,829,829,829,829,829,829,829,829,829,829,829,829,829,829,829,829,829,829,829,829,829,829,829,829,829,829,829,829,829,829,829,829,829,829,829,829,829,830,836,844,858,874,889,898,907,918,927,941,982,1000,1013,1023,1028,1030,1035,1041,1043,1046,1046,1046,1046,1046,1046,1049,1051,1057,1064,1073],"ymouse":[545,545,545,545,545,545,545,545,545,545,545,545,545,545,545,545,545,545,545,545,545,545,545,545,545,545,545,545,545,545,545,545,545,545,545,545,545,545,545,545,545,545,545,545,545,545,545,545,545,545,545,545,545,545,545,545,545,545,545,545,545,545,545,545,542,523,501,478,444,414,381,369,355,335,319,302,256,235,219,204,192,187,179,166,159,150,148,147,147,146,139,133,125,113,102,91],"timestamp_mouse":[11,35,48,69,88,109,128,148,168,189,208,229,249,268,288,309,330,349,368,389,409,428,449,468,488,508,529,549,569,589,608,629,648,668,689,708,728,749,769,788,808,829,850,869,888,908,930,949,969,988,1009,1029,1048,1069,1089,1109,1129,1148,1168,1188,1208,1228,1249,1268,1288,1309,1329,1350,1370,1389,1409,1428,1448,1468,1488,1509,1529,1548,1568,1589,1608,1628,1648,1668,1688,1708,1728,1748,1768,1788,1808,1828,1848,1868,1888,1908],"xSR":741.5,"ySR":469.95,"xT1":424.9,"yT1":0,"xT2":1058.1,"yT2":0,"toosoon":0,"cond_shown":"equaldotsize","ratio_trial":750,"smaller_num":"3","larger_num":"4","correct_side":2,"subjID":"charlottecaicedorestrepo36","gender":"1","age":"11","school":"6"},{"start_time":1551801555193,"click_time":1551801557166,"finger_time":1551801556545,"fix_duration":1226.1942959601208,"trial":19,"RT":1352,"MT":621,"sideResp":2,"stimulus":"img/750/equaldotanddens/R/5_Ratio_750_L_15_R_20.png","xmouse":[799,799,799,799,799,799,799,799,799,799,799,799,799,799,799,799,799,799,799,799,799,799,799,799,799,799,799,799,799,799,799,799,799,799,799,799,799,799,799,799,799,799,799,799,799,799,799,799,799,799,799,799,799,799,799,799,799,799,799,799,799,799,799,799,799,802,811,846,885,931,942,949,950,951,954,960,972,986,1021,1030,1035,1039,1041,1045,1046,1046,1046,1046,1046,1046,1046,1046,1048,1054,1056,1057,1059,1062,1067],"ymouse":[554,554,554,554,554,554,554,554,554,554,554,554,554,554,554,554,554,554,554,554,554,554,554,554,554,554,554,554,554,554,554,554,554,554,554,554,554,554,554,554,554,554,554,554,554,554,554,554,554,554,554,554,554,554,554,554,554,554,554,554,554,554,554,554,554,553,538,493,454,418,409,403,402,394,383,366,340,308,240,222,213,201,192,167,160,155,149,147,146,146,146,145,139,123,117,112,108,103,99],"timestamp_mouse":[12,41,53,73,92,113,133,152,172,192,212,232,252,274,292,312,333,352,372,393,413,433,452,473,493,512,534,553,573,592,612,634,652,673,694,713,733,754,773,793,813,833,852,873,892,913,932,952,972,993,1014,1032,1052,1072,1092,1113,1132,1152,1172,1193,1214,1232,1253,1273,1292,1313,1333,1352,1372,1392,1412,1433,1453,1473,1492,1512,1533,1553,1572,1592,1612,1632,1652,1672,1693,1712,1732,1752,1773,1792,1814,1832,1852,1873,1892,1912,1932,1952,1973],"xSR":741.5,"ySR":469.95,"xT1":424.9,"yT1":0,"xT2":1058.1,"yT2":0,"toosoon":0,"cond_shown":"equaldotanddens","ratio_trial":750,"smaller_num":"15","larger_num":"20","correct_side":2,"subjID":"charlottecaicedorestrepo36","gender":"1","age":"11","school":"6"},{"start_time":1551801559994,"click_time":1551801561466,"finger_time":1551801560765,"fix_duration":1446.018786231982,"trial":20,"RT":771,"MT":701,"sideResp":1,"stimulus":"img/250/equaldotanddens/L/5_Ratio_250_L_24_R_6.png","xmouse":[833,833,833,833,833,833,833,833,833,833,833,833,833,833,833,833,833,833,833,833,833,833,833,833,833,833,833,833,833,833,833,833,833,832,817,794,775,761,733,719,706,692,683,673,657,652,647,641,630,624,617,607,598,577,564,553,544,537,526,514,500,482,470,456,454,453,453,453,452,451,451,453,456,472],"ymouse":[553,553,553,553,553,553,553,553,553,553,553,553,553,553,553,553,553,553,553,553,553,553,553,553,553,553,553,553,553,553,553,553,553,553,545,530,520,513,499,493,486,475,458,435,402,394,386,377,349,336,321,302,287,251,237,226,222,219,213,208,203,195,190,182,180,179,179,179,170,162,152,135,125,98],"timestamp_mouse":[11,33,52,71,93,111,131,152,171,191,212,232,253,271,292,312,331,352,371,391,411,433,452,472,492,513,532,551,571,591,612,632,652,672,691,711,731,751,771,791,811,831,851,872,891,912,932,952,971,991,1011,1031,1051,1071,1091,1112,1131,1152,1171,1191,1211,1231,1251,1272,1291,1311,1331,1352,1372,1391,1411,1432,1452,1472],"xSR":741.5,"ySR":469.95,"xT1":424.9,"yT1":0,"xT2":1058.1,"yT2":0,"toosoon":0,"cond_shown":"equaldotanddens","ratio_trial":250,"smaller_num":"6","larger_num":"24","correct_side":1,"subjID":"charlottecaicedorestrepo36","gender":"1","age":"11","school":"6"},{"start_time":1551801565083,"click_time":1551801566666,"finger_time":1551801566085,"fix_duration":915.7681584643439,"trial":21,"RT":1002,"MT":581,"sideResp":1,"stimulus":"img/750/equaldotanddens/L/14_Ratio_750_L_8_R_6.png","xmouse":[768,768,768,768,768,768,768,768,768,768,768,768,768,768,768,768,768,768,768,768,768,768,768,768,768,768,768,768,768,768,768,768,768,768,768,768,768,768,768,768,768,768,768,768,768,768,768,768,768,747,720,695,668,645,611,594,575,553,503,459,452,448,447,444,440,437,430,416,408,404,401,401,399,399,399,399,405,411,420,456],"ymouse":[502,502,502,502,502,502,502,502,502,502,502,502,502,502,502,502,502,502,502,502,502,502,502,502,502,502,502,502,502,502,502,502,502,502,502,502,502,502,502,502,502,502,502,502,502,502,502,502,502,498,487,480,472,462,442,429,415,396,353,313,301,293,288,279,253,239,226,207,199,195,191,189,188,186,181,176,165,154,140,99],"timestamp_mouse":[9,32,43,62,83,103,124,143,163,183,203,222,243,262,282,302,323,342,363,382,403,423,443,463,482,502,522,543,562,583,603,622,643,662,682,703,723,744,763,783,802,822,842,862,883,902,923,942,962,982,1002,1023,1042,1063,1084,1102,1122,1142,1162,1183,1202,1222,1242,1262,1282,1302,1322,1342,1362,1383,1402,1422,1442,1463,1483,1502,1523,1543,1563,1583],"xSR":741.5,"ySR":469.95,"xT1":424.9,"yT1":0,"xT2":1058.1,"yT2":0,"toosoon":0,"cond_shown":"equaldotanddens","ratio_trial":750,"smaller_num":"6","larger_num":"8","correct_side":1,"subjID":"charlottecaicedorestrepo36","gender":"1","age":"11","school":"6"},{"start_time":1551801568798,"click_time":1551801570365,"finger_time":1551801569566,"fix_duration":250,"trial":22,"RT":768,"MT":799,"sideResp":1,"stimulus":"img/250/equaldotsize/L/7_Ratio_250_L_8_R_2.png","xmouse":[750,750,750,750,750,750,750,750,750,750,750,750,750,750,750,750,750,750,750,750,750,750,750,750,750,750,750,750,750,750,750,750,750,750,750,750,750,749,731,713,691,663,647,616,601,587,570,550,515,502,488,484,476,470,468,466,465,463,461,461,461,461,460,460,460,460,460,460,460,460,460,460,460,460,460,460,459,459,459],"ymouse":[500,500,500,500,500,500,500,500,500,500,500,500,500,500,500,500,500,500,500,500,500,500,500,500,500,500,500,500,500,500,500,500,500,500,500,500,500,500,488,473,457,432,418,395,384,372,356,341,315,302,288,282,266,254,250,244,236,226,188,167,135,130,121,116,116,115,115,115,115,115,115,115,115,115,115,114,109,106,98],"timestamp_mouse":[10,33,47,68,87,109,128,148,168,187,208,227,248,267,288,307,329,348,368,387,407,428,448,468,488,507,527,547,567,587,608,627,647,668,688,707,727,748,768,787,809,827,848,867,887,907,928,948,968,987,1007,1028,1048,1068,1087,1107,1129,1148,1168,1187,1207,1228,1248,1267,1287,1307,1328,1347,1367,1389,1408,1428,1447,1468,1487,1507,1527,1547,1567],"xSR":741.5,"ySR":469.95,"xT1":424.9,"yT1":0,"xT2":1058.1,"yT2":0,"toosoon":0,"cond_shown":"equaldotsize","ratio_trial":250,"smaller_num":"2","larger_num":"8","correct_side":1,"subjID":"charlottecaicedorestrepo36","gender":"1","age":"11","school":"6"},{"start_time":1551801572825,"click_time":1551801576025,"finger_time":1551801575365,"fix_duration":1198.0916089850007,"trial":23,"RT":2540,"MT":660,"sideResp":1,"stimulus":"img/750/randomdotsizeEA/L/14_Ratio_750_L_8_R_6.png","xmouse":[760,760,760,760,760,760,760,760,760,760,760,760,760,760,760,760,760,760,760,760,760,760,760,760,760,760,760,760,760,760,760,760,760,760,760,760,760,760,760,760,760,760,760,760,760,760,760,760,760,760,760,760,760,760,760,760,760,760,760,760,760,760,760,760,760,760,760,760,760,760,760,760,760,760,760,760,760,760,760,760,760,760,760,760,760,760,760,760,760,760,760,760,760,760,760,760,760,760,760,760,760,760,760,760,760,760,760,760,760,760,760,760,760,760,760,760,760,760,760,760,760,760,760,759,755,751,745,719,688,636,545,489,440,433,426,416,405,375,360,351,344,344,344,344,347,350,356,365,371,374,375,379,383,383,383,385,391,406,415,424,432],"ymouse":[492,492,492,492,492,492,492,492,492,492,492,492,492,492,492,492,492,492,492,492,492,492,492,492,492,492,492,492,492,492,492,492,492,492,492,492,492,492,492,492,492,492,492,492,492,492,492,492,492,492,492,492,492,492,492,492,492,492,492,492,492,492,492,492,492,492,492,492,492,492,492,492,492,492,492,492,492,492,492,492,492,492,492,492,492,492,492,492,492,492,492,492,492,492,492,492,492,492,492,492,492,492,492,492,492,492,492,492,492,492,492,492,492,492,492,492,492,492,492,492,492,492,492,490,485,481,475,450,418,369,309,281,250,245,240,232,222,193,174,157,131,115,109,107,104,102,99,94,91,88,87,87,87,87,87,87,86,83,80,75,72],"timestamp_mouse":[8,20,41,61,80,101,120,141,162,180,201,221,240,262,280,301,321,341,361,380,401,420,441,460,480,501,520,541,560,582,601,620,641,660,680,701,722,740,761,781,802,820,841,861,880,900,921,940,961,980,1001,1020,1040,1060,1081,1100,1120,1140,1162,1180,1200,1220,1240,1261,1281,1300,1320,1340,1360,1382,1401,1420,1441,1461,1480,1501,1521,1541,1560,1581,1600,1620,1640,1660,1681,1701,1720,1740,1760,1781,1800,1820,1840,1860,1882,1900,1920,1940,1961,1980,2001,2020,2040,2061,2081,2101,2121,2140,2160,2180,2200,2220,2240,2261,2282,2301,2321,2341,2360,2381,2401,2420,2440,2460,2482,2500,2521,2540,2560,2580,2600,2621,2642,2660,2680,2700,2721,2741,2760,2780,2800,2820,2840,2860,2880,2900,2921,2941,2960,2981,3001,3021,3041,3060,3080,3100,3120,3141,3160,3180,3200],"xSR":741.5,"ySR":469.95,"xT1":424.9,"yT1":0,"xT2":1058.1,"yT2":0,"toosoon":0,"cond_shown":"randomdotsizeEA","ratio_trial":750,"smaller_num":"6","larger_num":"8","correct_side":1,"subjID":"charlottecaicedorestrepo36","gender":"1","age":"11","school":"6"},{"start_time":1551801577936,"click_time":1551801581426,"finger_time":1551801579686,"fix_duration":569.979915726705,"trial":24,"RT":1750,"MT":1740,"sideResp":1,"stimulus":"img/900/equaldotsize/L/4_Ratio_900_L_20_R_18.png","xmouse":[774,774,774,774,774,774,774,774,774,774,774,774,774,774,774,774,774,774,774,774,774,774,774,774,774,774,774,774,774,774,774,774,774,774,774,774,774,774,774,774,774,774,774,774,774,774,774,774,774,774,774,774,774,774,774,774,774,774,774,774,774,774,774,774,774,774,774,774,774,774,774,774,774,774,774,774,774,774,774,774,774,774,774,774,774,773,752,722,680,624,566,475,451,436,428,426,422,420,417,413,411,409,409,409,411,413,416,417,417,417,418,420,421,422,422,422,422,422,422,422,422,422,422,422,422,422,422,422,422,422,422,422,422,422,422,422,422,422,422,422,422,422,422,422,422,422,422,422,422,422,422,422,422,422,422,422,422,422,422,422,422,422,422,422,422,422,422,422,422,422,422,422,423,424,425],"ymouse":[511,511,511,511,511,511,511,511,511,511,511,511,511,511,511,511,511,511,511,511,511,511,511,511,511,511,511,511,511,511,511,511,511,511,511,511,511,511,511,511,511,511,511,511,511,511,511,511,511,511,511,511,511,511,511,511,511,511,511,511,511,511,511,511,511,511,511,511,511,511,511,511,511,511,511,511,511,511,511,511,511,511,511,511,511,511,493,474,450,420,385,313,277,242,219,204,192,186,181,174,170,161,156,152,147,141,137,125,116,104,94,86,84,83,83,83,83,83,83,83,83,83,83,83,83,83,83,83,83,83,83,83,83,83,83,83,83,83,83,83,83,83,83,83,83,83,83,83,83,83,83,83,83,83,83,83,83,83,83,83,83,83,83,83,83,83,83,83,83,83,83,83,84,85,87],"timestamp_mouse":[9,29,49,71,90,109,130,149,169,190,209,230,250,270,289,309,330,350,370,390,410,430,450,469,489,509,530,551,570,589,609,630,650,669,689,710,730,750,770,790,809,831,850,870,889,910,929,950,970,989,1009,1029,1050,1069,1089,1109,1129,1150,1170,1190,1210,1230,1250,1271,1289,1310,1330,1349,1370,1390,1409,1429,1449,1470,1490,1510,1529,1550,1570,1591,1611,1630,1649,1670,1690,1709,1730,1750,1770,1789,1810,1830,1849,1869,1889,1909,1930,1949,1969,1989,2010,2031,2049,2069,2090,2109,2129,2149,2170,2190,2209,2231,2249,2269,2289,2309,2330,2349,2369,2390,2410,2429,2449,2470,2491,2509,2531,2550,2571,2590,2610,2630,2650,2669,2690,2709,2729,2749,2770,2790,2809,2830,2850,2869,2889,2909,2930,2951,2969,2989,3009,3030,3050,3069,3089,3109,3129,3151,3170,3190,3210,3230,3249,3269,3289,3309,3330,3349,3370,3389,3409,3430,3449,3469,3490],"xSR":741.5,"ySR":469.95,"xT1":424.9,"yT1":0,"xT2":1058.1,"yT2":0,"toosoon":0,"cond_shown":"equaldotsize","ratio_trial":900,"smaller_num":"18","larger_num":"20","correct_side":1,"subjID":"charlottecaicedorestrepo36","gender":"1","age":"11","school":"6"},{"start_time":1551801584145,"click_time":1551801585446,"finger_time":1551801584925,"fix_duration":878.53632365336,"trial":25,"RT":780,"MT":521,"sideResp":1,"stimulus":"img/500/equaldotsize/L/13_Ratio_500_L_12_R_6.png","xmouse":[756,756,756,756,756,756,756,756,756,756,756,756,756,756,756,756,756,756,756,756,756,756,756,756,756,756,756,756,756,756,756,756,756,756,756,756,756,750,743,733,721,701,691,678,667,653,644,634,629,626,620,609,602,594,589,582,575,558,548,538,527,509,498,486,478,469],"ymouse":[520,520,520,520,520,520,520,520,520,520,520,520,520,520,520,520,520,520,520,520,520,520,520,520,520,520,520,520,520,520,520,520,520,520,520,520,520,511,498,484,472,455,447,434,422,406,395,380,371,362,353,330,316,295,280,269,257,232,219,203,187,158,143,126,113,95],"timestamp_mouse":[8,21,41,60,80,100,131,140,160,185,201,221,242,261,280,301,321,341,360,380,401,420,441,462,480,501,520,541,561,580,600,620,640,660,680,701,720,741,761,780,802,821,840,860,881,900,921,940,960,980,1000,1021,1040,1060,1080,1100,1121,1140,1161,1180,1200,1220,1240,1260,1280,1301],"xSR":741.5,"ySR":469.95,"xT1":424.9,"yT1":0,"xT2":1058.1,"yT2":0,"toosoon":0,"cond_shown":"equaldotsize","ratio_trial":500,"smaller_num":"6","larger_num":"12","correct_side":1,"subjID":"charlottecaicedorestrepo36","gender":"1","age":"11","school":"6"},{"start_time":1551801587091,"click_time":1551801588586,"finger_time":1551801588007,"fix_duration":444.1809203051793,"trial":26,"RT":916,"MT":579,"sideResp":2,"stimulus":"img/500/equaldotanddens/R/9_Ratio_500_L_2_R_4.png","xmouse":[756,756,756,756,756,756,756,756,756,756,756,756,756,756,756,756,756,756,756,756,756,756,756,756,756,756,756,756,756,756,756,756,756,756,756,756,756,756,756,756,756,756,756,756,762,779,812,860,881,906,912,916,921,940,950,963,974,984,989,990,991,995,999,1002,1009,1012,1015,1019,1030,1037,1042,1045,1046,1051,1059],"ymouse":[497,497,497,497,497,497,497,497,497,497,497,497,497,497,497,497,497,497,497,497,497,497,497,497,497,497,497,497,497,497,497,497,497,497,497,497,497,497,497,497,497,497,497,497,490,460,418,374,359,342,336,327,310,269,249,227,208,183,164,157,151,140,133,126,116,113,109,107,101,95,91,89,87,77,65],"timestamp_mouse":[16,35,54,75,94,114,134,156,175,194,214,235,254,274,295,314,334,355,374,395,415,435,457,476,495,517,536,557,575,595,616,637,655,675,697,716,735,756,776,797,816,835,857,876,895,916,935,955,976,995,1015,1036,1055,1076,1096,1115,1136,1155,1177,1195,1215,1236,1256,1275,1295,1315,1335,1357,1376,1395,1416,1435,1456,1477,1495],"xSR":741.5,"ySR":469.95,"xT1":424.9,"yT1":0,"xT2":1058.1,"yT2":0,"toosoon":0,"cond_shown":"equaldotanddens","ratio_trial":500,"smaller_num":"2","larger_num":"4","correct_side":2,"subjID":"charlottecaicedorestrepo36","gender":"1","age":"11","school":"6"},{"start_time":1551801590779,"click_time":1551801593267,"finger_time":1551801592628,"fix_duration":1011.3126840856833,"trial":27,"RT":1849,"MT":639,"sideResp":1,"stimulus":"img/500/randomdotsizeEA/L/7_Ratio_500_L_10_R_5.png","xmouse":[813,813,813,813,813,813,813,813,813,813,813,813,813,813,813,813,813,813,813,813,813,813,813,813,813,813,813,813,813,813,813,813,813,813,813,813,813,813,813,813,813,813,813,813,813,813,813,813,813,813,813,813,813,813,813,813,813,813,813,813,813,813,813,813,813,813,813,813,813,813,813,813,813,813,813,813,813,813,813,813,813,813,813,813,813,813,813,813,813,813,813,796,781,725,637,600,576,563,555,536,526,515,498,490,482,480,478,477,474,468,465,465,465,464,464,464,464,464,464,464,464,464,464,464,466],"ymouse":[481,481,481,481,481,481,481,481,481,481,481,481,481,481,481,481,481,481,481,481,481,481,481,481,481,481,481,481,481,481,481,481,481,481,481,481,481,481,481,481,481,481,481,481,481,481,481,481,481,481,481,481,481,481,481,481,481,481,481,481,481,481,481,481,481,481,481,481,481,481,481,481,481,481,481,481,481,481,481,481,481,481,481,481,481,481,481,481,481,481,481,473,461,428,388,371,359,346,327,290,275,263,246,234,200,187,176,167,157,136,125,122,120,118,117,114,111,110,109,109,109,108,104,102,94],"timestamp_mouse":[9,32,49,67,87,108,128,147,168,189,207,228,249,267,288,307,328,348,368,388,409,428,447,467,488,507,528,549,568,587,608,628,648,668,688,707,728,747,767,788,809,828,847,868,888,908,927,947,968,987,1007,1027,1047,1067,1088,1108,1127,1147,1167,1188,1209,1228,1248,1268,1287,1307,1327,1348,1368,1387,1409,1428,1447,1469,1488,1508,1527,1548,1567,1588,1608,1627,1647,1667,1687,1707,1727,1747,1767,1787,1809,1828,1849,1868,1888,1907,1927,1948,1968,1988,2007,2027,2047,2067,2087,2107,2128,2147,2169,2188,2208,2228,2248,2267,2287,2307,2327,2347,2368,2389,2408,2429,2447,2467,2488],"xSR":741.5,"ySR":469.95,"xT1":424.9,"yT1":0,"xT2":1058.1,"yT2":0,"toosoon":0,"cond_shown":"randomdotsizeEA","ratio_trial":500,"smaller_num":"5","larger_num":"10","correct_side":1,"subjID":"charlottecaicedorestrepo36","gender":"1","age":"11","school":"6"},{"start_time":1551801594818,"click_time":1551801595746,"finger_time":1551801595586,"fix_duration":250,"trial":28,"RT":768,"MT":160,"sideResp":2,"stimulus":"img/250/equaldotanddens/R/13_Ratio_250_L_2_R_8.png","xmouse":[749,749,749,749,749,749,749,749,749,749,749,749,749,749,749,749,749,749,749,749,749,749,749,749,749,749,749,749,749,749,749,749,749,749,749,749,750,758,777,810,878,919,948,984,1002,1031,1074],"ymouse":[513,513,513,513,513,513,513,513,513,513,513,513,513,513,513,513,513,513,513,513,513,513,513,513,513,513,513,513,513,513,513,513,513,513,513,513,513,486,439,380,296,248,213,169,138,90,18],"timestamp_mouse":[9,33,49,69,88,108,128,148,168,189,208,228,248,268,288,308,328,348,369,388,408,428,448,469,488,509,529,549,569,589,609,630,649,669,688,708,728,749,768,788,809,828,848,869,889,908,928],"xSR":741.5,"ySR":469.95,"xT1":424.9,"yT1":0,"xT2":1058.1,"yT2":0,"toosoon":0,"cond_shown":"equaldotanddens","ratio_trial":250,"smaller_num":"2","larger_num":"8","correct_side":2,"subjID":"charlottecaicedorestrepo36","gender":"1","age":"11","school":"6"},{"start_time":1551801598010,"click_time":1551801601827,"finger_time":1551801600028,"fix_duration":1023.0515875696713,"trial":29,"RT":2018,"MT":1799,"sideResp":1,"stimulus":"img/900/equaldotanddens/L/2_Ratio_900_L_20_R_18.png","xmouse":[838,838,838,838,838,838,838,838,838,838,838,838,838,838,838,838,838,838,838,838,838,838,838,838,838,838,838,838,838,838,838,838,838,838,838,838,838,838,838,838,838,838,838,838,838,838,838,838,838,838,838,838,838,838,838,838,838,838,838,838,838,838,838,838,838,838,838,838,838,838,838,838,838,838,838,838,838,838,838,838,838,838,838,838,838,838,838,838,838,838,838,838,838,838,838,838,834,828,799,775,762,753,742,739,733,726,716,701,695,684,678,673,663,655,648,642,637,631,627,622,614,608,599,596,594,591,590,584,582,580,577,575,573,568,566,564,563,561,557,553,545,542,539,538,538,536,535,532,529,528,528,526,523,523,522,521,520,518,518,517,516,516,516,516,515,515,515,515,515,515,515,515,515,515,515,515,514,514,514,514,514,514,514,514,514,514,514,514,514,514,514],"ymouse":[540,540,540,540,540,540,540,540,540,540,540,540,540,540,540,540,540,540,540,540,540,540,540,540,540,540,540,540,540,540,540,540,540,540,540,540,540,540,540,540,540,540,540,540,540,540,540,540,540,540,540,540,540,540,540,540,540,540,540,540,540,540,540,540,540,540,540,540,540,540,540,540,540,540,540,540,540,540,540,540,540,540,540,540,540,540,540,540,540,540,540,540,540,540,540,540,540,535,503,480,468,461,452,449,443,437,427,411,403,391,384,378,363,352,344,334,327,318,313,306,294,286,274,269,266,261,256,242,236,232,226,222,218,211,207,203,200,197,190,183,170,164,159,159,157,156,154,151,147,146,145,143,139,139,137,137,135,130,128,127,125,125,124,123,122,120,119,118,116,114,113,112,110,110,109,109,108,107,107,107,107,107,107,106,105,105,105,103,102,100,99],"timestamp_mouse":[16,36,57,78,97,117,136,157,177,196,217,236,256,277,297,317,338,356,376,396,416,436,456,476,496,516,536,556,577,598,616,637,657,676,697,718,737,757,778,797,816,838,856,877,897,917,936,956,976,997,1016,1036,1057,1077,1096,1116,1138,1157,1177,1198,1217,1236,1256,1276,1298,1317,1336,1357,1378,1397,1416,1436,1456,1477,1497,1517,1536,1556,1576,1597,1616,1636,1656,1678,1696,1716,1736,1756,1777,1796,1817,1838,1856,1877,1897,1916,1937,1956,1977,1998,2018,2037,2057,2076,2096,2117,2137,2157,2176,2196,2216,2236,2256,2276,2296,2316,2336,2357,2376,2396,2416,2436,2457,2476,2498,2517,2536,2556,2577,2596,2616,2636,2656,2677,2696,2716,2737,2756,2776,2797,2816,2837,2856,2876,2897,2916,2936,2956,2977,2997,3017,3036,3057,3077,3097,3117,3137,3156,3176,3196,3216,3236,3257,3276,3297,3317,3337,3356,3376,3396,3416,3436,3457,3477,3496,3516,3536,3557,3576,3597,3617,3636,3657,3677,3696,3718,3736,3758,3776,3797,3816],"xSR":741.5,"ySR":469.95,"xT1":424.9,"yT1":0,"xT2":1058.1,"yT2":0,"toosoon":0,"cond_shown":"equaldotanddens","ratio_trial":900,"smaller_num":"18","larger_num":"20","correct_side":1,"subjID":"charlottecaicedorestrepo36","gender":"1","age":"11","school":"6"},{"start_time":1551801604713,"click_time":1551801606467,"finger_time":1551801605707,"fix_duration":1225.7339988557462,"trial":30,"RT":994,"MT":760,"sideResp":2,"stimulus":"img/900/equaldotsize/R/6_Ratio_900_L_9_R_10.png","xmouse":[775,775,775,775,775,775,775,775,775,775,775,775,775,775,775,775,775,775,775,775,775,775,775,775,775,775,775,775,775,775,775,775,775,775,775,775,775,775,775,775,775,775,775,775,775,775,777,794,807,821,834,844,857,866,878,904,944,1022,1033,1036,1036,1036,1036,1036,1037,1037,1038,1038,1040,1043,1047,1053,1056,1057,1059,1059,1061,1061,1061,1061,1061,1061,1061,1061,1061,1061,1061,1063],"ymouse":[534,534,534,534,534,534,534,534,534,534,534,534,534,534,534,534,534,534,534,534,534,534,534,534,534,534,534,534,534,534,534,534,534,534,534,534,534,534,534,534,534,534,534,534,534,534,531,497,476,456,441,429,411,398,377,332,272,174,159,154,154,154,153,146,142,141,139,137,133,126,119,110,106,103,102,102,100,100,100,100,100,100,100,100,100,100,100,97],"timestamp_mouse":[15,34,53,73,95,114,134,154,173,193,215,233,254,273,294,315,334,353,375,394,414,433,454,474,493,514,533,555,573,593,613,633,654,674,693,713,733,754,774,794,813,834,855,874,893,913,935,954,973,994,1013,1035,1054,1073,1093,1114,1133,1153,1173,1194,1213,1234,1253,1273,1295,1314,1333,1354,1374,1394,1413,1434,1454,1474,1494,1513,1533,1555,1574,1594,1614,1635,1654,1673,1693,1713,1733,1753],"xSR":741.5,"ySR":469.95,"xT1":424.9,"yT1":0,"xT2":1058.1,"yT2":0,"toosoon":0,"cond_shown":"equaldotsize","ratio_trial":900,"smaller_num":"9","larger_num":"10","correct_side":2,"subjID":"charlottecaicedorestrepo36","gender":"1","age":"11","school":"6"},{"start_time":1551801612217,"click_time":1551801613667,"finger_time":1551801613047,"fix_duration":250,"trial":31,"RT":830,"MT":620,"sideResp":2,"stimulus":"img/750/equaldotsize/R/4_Ratio_750_L_15_R_20.png","xmouse":[829,829,829,829,829,829,829,829,829,829,829,829,829,829,829,829,829,829,829,829,829,829,829,829,829,829,829,829,829,829,829,829,829,829,829,829,829,829,829,829,837,870,898,918,932,941,945,952,961,971,991,1025,1039,1039,1039,1038,1037,1037,1035,1035,1035,1035,1035,1037,1040,1043,1044,1045,1046,1047,1050,1056,1059],"ymouse":[494,494,494,494,494,494,494,494,494,494,494,494,494,494,494,494,494,494,494,494,494,494,494,494,494,494,494,494,494,494,494,494,494,494,494,494,494,494,494,492,477,435,402,386,375,369,365,347,329,305,268,210,177,172,166,160,154,150,140,136,134,131,123,116,112,107,106,105,104,102,99,94,90],"timestamp_mouse":[9,36,50,71,90,110,130,150,170,189,209,231,251,269,290,310,329,349,369,389,409,430,450,471,490,510,529,550,569,591,610,630,649,669,689,709,729,750,770,789,810,830,849,869,890,909,930,951,969,990,1010,1029,1050,1069,1090,1109,1129,1149,1170,1191,1210,1229,1251,1269,1289,1309,1330,1349,1370,1389,1409,1430,1450],"xSR":741.5,"ySR":469.95,"xT1":424.9,"yT1":0,"xT2":1058.1,"yT2":0,"toosoon":0,"cond_shown":"equaldotsize","ratio_trial":750,"smaller_num":"15","larger_num":"20","correct_side":2,"subjID":"charlottecaicedorestrepo36","gender":"1","age":"11","school":"6"},{"start_time":1551801616169,"click_time":1551801617826,"finger_time":1551801617167,"fix_duration":899.0716830320907,"trial":32,"RT":998,"MT":659,"sideResp":2,"stimulus":"img/250/randomdotsizeEA/R/4_Ratio_250_L_3_R_12.png","xmouse":[833,833,833,833,833,833,833,833,833,833,833,833,833,833,833,833,833,833,833,833,833,833,833,833,833,833,833,833,833,833,833,833,833,833,833,833,833,833,833,833,833,833,833,833,833,833,833,833,839,853,863,878,890,906,918,923,925,927,928,940,947,956,968,977,1004,1019,1038,1064,1092,1111,1114,1115,1115,1115,1115,1115,1115,1115,1115,1115,1115,1115,1114],"ymouse":[538,538,538,538,538,538,538,538,538,538,538,538,538,538,538,538,538,538,538,538,538,538,538,538,538,538,538,538,538,538,538,538,538,538,538,538,538,538,538,538,538,538,538,538,538,538,538,538,523,498,480,463,450,436,425,418,415,412,410,389,371,352,323,303,260,238,213,177,141,113,107,106,106,106,106,106,106,106,106,106,106,104,99],"timestamp_mouse":[18,38,57,78,97,118,137,157,177,197,217,238,259,277,298,318,337,357,378,398,417,437,457,478,497,518,537,557,578,597,618,637,659,678,697,717,739,757,777,798,818,838,857,878,899,917,939,957,977,998,1017,1037,1057,1078,1098,1117,1138,1158,1177,1197,1217,1237,1257,1277,1297,1317,1337,1357,1378,1398,1417,1437,1458,1478,1497,1518,1537,1558,1577,1598,1618,1638,1657],"xSR":741.5,"ySR":469.95,"xT1":424.9,"yT1":0,"xT2":1058.1,"yT2":0,"toosoon":0,"cond_shown":"randomdotsizeEA","ratio_trial":250,"smaller_num":"3","larger_num":"12","correct_side":2,"subjID":"charlottecaicedorestrepo36","gender":"1","age":"11","school":"6"},{"start_time":1551801620311,"click_time":1551801622447,"finger_time":1551801622088,"fix_duration":1342.8598249444588,"trial":33,"RT":1777,"MT":359,"sideResp":2,"stimulus":"img/750/randomdotsizeEA/L/6_Ratio_750_L_24_R_18.png","xmouse":[822,822,822,822,822,822,822,822,822,822,822,822,822,822,822,822,822,822,822,822,822,822,822,822,822,822,822,822,822,822,822,822,822,822,822,822,822,822,822,822,822,822,822,822,822,822,822,822,822,822,822,822,822,822,822,822,822,822,822,822,822,822,822,822,822,822,822,822,822,822,822,822,822,822,822,822,822,822,822,822,822,822,821,822,826,832,835,841,859,870,876,881,885,890,895,900,903,915,925,935,947,960,974,1016,1038,1057,1079],"ymouse":[532,532,532,532,532,532,532,532,532,532,532,532,532,532,532,532,532,532,532,532,532,532,532,532,532,532,532,532,532,532,532,532,532,532,532,532,532,532,532,532,532,532,532,532,532,532,532,532,532,532,532,532,532,532,532,532,532,532,532,532,532,532,532,532,532,532,532,532,532,532,532,532,532,532,532,532,532,532,532,532,532,532,532,522,512,505,503,499,479,467,453,436,403,382,360,330,312,276,258,240,222,206,189,140,115,92,68],"timestamp_mouse":[17,35,56,75,95,117,136,155,175,196,216,236,256,277,295,316,335,356,376,396,416,437,456,475,495,516,535,555,577,596,616,637,655,676,696,715,736,756,777,795,815,836,857,875,896,916,936,957,976,996,1015,1036,1056,1076,1095,1116,1137,1157,1176,1196,1216,1236,1255,1276,1295,1316,1335,1355,1375,1395,1415,1435,1457,1475,1496,1516,1535,1556,1577,1595,1615,1636,1655,1675,1695,1717,1735,1756,1777,1796,1815,1836,1856,1876,1895,1916,1936,1956,1975,1995,2016,2036,2055,2077,2096,2115,2136],"xSR":741.5,"ySR":469.95,"xT1":424.9,"yT1":0,"xT2":1058.1,"yT2":0,"toosoon":0,"cond_shown":"randomdotsizeEA","ratio_trial":750,"smaller_num":"18","larger_num":"24","correct_side":1,"subjID":"charlottecaicedorestrepo36","gender":"1","age":"11","school":"6"},{"start_time":1551801627042,"click_time":1551801630686,"finger_time":1551801628187,"fix_duration":1132.8371642102986,"trial":34,"RT":1145,"MT":2499,"sideResp":1,"stimulus":"img/900/equaldotsize/L/8_Ratio_900_L_20_R_18.png","xmouse":[817,817,817,817,817,817,817,817,817,817,817,817,817,817,817,817,817,817,817,817,817,817,817,817,817,817,817,817,817,817,817,817,817,817,817,817,817,817,817,817,817,817,817,817,817,817,817,817,817,817,817,817,817,808,792,773,755,724,719,715,714,713,713,713,713,715,740,764,789,809,839,879,899,920,935,950,959,973,978,980,980,983,985,987,990,993,999,1002,1007,1008,1010,1010,1010,1011,1012,1012,1015,1016,1018,1020,1020,1020,1020,1017,1006,991,969,917,884,866,850,800,775,751,734,720,702,697,685,679,657,626,609,597,582,567,536,528,524,519,518,517,516,515,515,515,515,515,515,516,531,561,574,587,595,600,602,607,609,613,622,630,651,662,671,679,689,702,703,703,703,703,703,703,698,678,654,599,579,564,560,552,550,548,547,546,544,543,540,537,531,517,512],"ymouse":[549,549,549,549,549,549,549,549,549,549,549,549,549,549,549,549,549,549,549,549,549,549,549,549,549,549,549,549,549,549,549,549,549,549,549,549,549,549,549,549,549,549,549,549,549,549,549,549,549,549,549,549,549,542,528,515,502,479,475,469,468,468,468,468,467,464,444,431,412,397,376,350,338,325,313,299,287,264,255,249,248,244,239,233,222,210,193,185,178,175,172,171,171,170,168,167,161,157,153,148,147,146,146,146,146,151,160,174,183,185,188,198,204,211,216,220,225,225,225,225,219,208,198,189,178,168,143,136,133,131,130,130,129,129,128,128,128,128,128,128,141,160,165,170,172,173,173,173,173,173,173,173,173,173,173,173,173,172,172,172,172,172,172,172,172,172,172,164,155,145,141,136,134,134,134,133,132,131,129,126,120,104,98],"timestamp_mouse":[8,36,45,64,85,104,126,144,165,184,205,225,245,264,284,304,325,344,364,384,405,425,445,465,484,505,524,546,564,586,605,626,645,665,684,705,725,745,764,784,805,824,845,864,886,906,925,944,965,984,1004,1025,1045,1064,1084,1106,1124,1145,1164,1184,1205,1225,1244,1264,1284,1304,1325,1344,1365,1384,1404,1425,1444,1464,1484,1504,1526,1544,1564,1585,1605,1625,1644,1664,1685,1704,1725,1744,1764,1784,1804,1826,1844,1866,1885,1904,1925,1944,1964,1984,2011,2026,2045,2064,2084,2104,2124,2144,2165,2185,2204,2225,2244,2265,2285,2304,2326,2344,2364,2385,2405,2425,2444,2464,2484,2504,2525,2544,2564,2584,2605,2625,2644,2664,2685,2705,2725,2744,2764,2785,2804,2825,2844,2864,2884,2905,2926,2946,2964,2984,3005,3026,3045,3064,3084,3105,3125,3144,3164,3184,3204,3225,3246,3265,3284,3305,3324,3344,3364,3385,3404,3424,3444,3464,3484,3505,3525,3544,3565,3585,3605,3625,3644],"xSR":741.5,"ySR":469.95,"xT1":424.9,"yT1":0,"xT2":1058.1,"yT2":0,"toosoon":0,"cond_shown":"equaldotsize","ratio_trial":900,"smaller_num":"18","larger_num":"20","correct_side":1,"subjID":"charlottecaicedorestrepo36","gender":"1","age":"11","school":"6"},{"start_time":1551801632921,"click_time":1551801634407,"finger_time":1551801633646,"fix_duration":952.4209268606434,"trial":35,"RT":725,"MT":761,"sideResp":1,"stimulus":"img/250/equaldotsize/L/15_Ratio_250_L_12_R_3.png","xmouse":[798,798,798,798,798,798,798,798,798,798,798,798,798,798,798,798,798,798,798,798,798,798,798,798,798,798,798,798,798,798,798,798,798,798,798,798,789,780,767,762,760,757,747,740,726,718,708,682,662,635,608,580,553,511,500,487,474,463,458,453,446,441,438,437,435,435,435,433,433,432,431,431,431,431,431],"ymouse":[490,490,490,490,490,490,490,490,490,490,490,490,490,490,490,490,490,490,490,490,490,490,490,490,490,490,490,490,490,490,490,490,490,490,490,489,438,404,367,357,351,346,338,334,329,327,325,319,315,312,307,304,299,276,266,254,243,229,220,208,191,174,160,140,135,133,131,124,120,114,109,106,103,100,96],"timestamp_mouse":[9,27,46,67,87,105,126,146,165,187,205,225,245,265,286,306,325,345,365,385,405,425,445,465,485,505,525,545,565,585,607,627,646,665,686,706,725,746,765,785,805,826,846,866,885,905,926,945,967,985,1005,1026,1046,1066,1087,1106,1126,1146,1167,1187,1205,1225,1246,1265,1285,1306,1325,1346,1365,1385,1405,1425,1446,1465,1485],"xSR":741.5,"ySR":469.95,"xT1":424.9,"yT1":0,"xT2":1058.1,"yT2":0,"toosoon":0,"cond_shown":"equaldotsize","ratio_trial":250,"smaller_num":"3","larger_num":"12","correct_side":1,"subjID":"charlottecaicedorestrepo36","gender":"1","age":"11","school":"6"},{"start_time":1551801635859,"click_time":1551801639886,"finger_time":1551801638747,"fix_duration":250,"trial":36,"RT":2888,"MT":1139,"sideResp":1,"stimulus":"img/900/randomdotsizeEA/L/2_Ratio_900_L_20_R_18.png","xmouse":[764,764,764,764,764,764,764,764,764,764,764,764,764,764,764,764,764,764,764,764,764,764,764,764,764,764,764,764,764,764,764,764,764,764,764,764,764,764,764,764,764,764,764,764,764,764,764,764,764,764,764,764,764,764,764,764,764,764,764,764,764,764,764,764,764,764,764,764,764,764,764,764,764,764,764,764,764,764,764,764,764,764,764,764,764,764,764,764,764,764,764,764,764,764,764,764,764,764,764,764,764,764,764,764,764,764,764,764,764,764,764,764,764,764,764,764,764,764,764,764,764,764,764,764,764,764,764,764,764,764,764,764,764,764,764,764,764,764,764,764,764,764,762,749,711,587,525,475,457,445,430,423,416,406,397,387,378,377,377,380,389,397,398,398,398,397,396,396,395,395,395,397,401,405,410,416,417,417,417,417,417,417,417,417,417,418,420,422,423,423,423,423,423,423,423,423,423,423,423,423,428,430],"ymouse":[492,492,492,492,492,492,492,492,492,492,492,492,492,492,492,492,492,492,492,492,492,492,492,492,492,492,492,492,492,492,492,492,492,492,492,492,492,492,492,492,492,492,492,492,492,492,492,492,492,492,492,492,492,492,492,492,492,492,492,492,492,492,492,492,492,492,492,492,492,492,492,492,492,492,492,492,492,492,492,492,492,492,492,492,492,492,492,492,492,492,492,492,492,492,492,492,492,492,492,492,492,492,492,492,492,492,492,492,492,492,492,492,492,492,492,492,492,492,492,492,492,492,492,492,492,492,492,492,492,492,492,492,492,492,492,492,492,492,492,492,492,492,491,482,465,410,384,365,354,346,331,323,313,300,287,274,255,247,227,207,189,166,160,157,156,153,149,146,142,138,135,126,123,120,117,114,114,114,114,114,114,114,114,114,114,113,110,108,107,107,107,107,107,107,107,107,107,107,107,106,100,98],"timestamp_mouse":[8,27,50,67,87,107,127,148,167,187,207,228,248,267,287,307,329,349,367,389,407,429,447,467,488,508,528,549,567,587,608,627,647,668,687,708,727,748,769,788,807,828,848,867,888,908,929,948,967,989,1007,1027,1047,1067,1087,1108,1127,1147,1169,1188,1209,1229,1247,1268,1287,1308,1327,1347,1369,1387,1407,1429,1447,1467,1489,1507,1529,1547,1568,1587,1607,1627,1647,1669,1687,1707,1729,1747,1767,1787,1807,1828,1848,1868,1888,1908,1927,1948,1968,1989,2008,2027,2049,2068,2088,2107,2128,2148,2169,2187,2207,2228,2249,2269,2288,2307,2328,2348,2368,2388,2408,2428,2447,2469,2488,2508,2528,2547,2569,2587,2607,2628,2649,2668,2688,2707,2728,2747,2768,2788,2807,2828,2847,2867,2888,2908,2927,2947,2968,2989,3008,3027,3047,3067,3088,3107,3127,3149,3168,3187,3207,3228,3248,3268,3288,3307,3327,3347,3367,3388,3407,3427,3448,3469,3488,3508,3527,3547,3568,3587,3608,3628,3648,3667,3687,3708,3729,3748,3767,3787,3808,3828,3848,3867,3888,3908,3927,3948,3969,3988,4008,4027],"xSR":741.5,"ySR":469.95,"xT1":424.9,"yT1":0,"xT2":1058.1,"yT2":0,"toosoon":0,"cond_shown":"randomdotsizeEA","ratio_trial":900,"smaller_num":"18","larger_num":"20","correct_side":1,"subjID":"charlottecaicedorestrepo36","gender":"1","age":"11","school":"6"},{"start_time":1551801641951,"click_time":1551801646047,"finger_time":1551801644688,"fix_duration":582.1679056920892,"trial":37,"RT":2737,"MT":1359,"sideResp":2,"stimulus":"img/900/equaldotsize/L/2_Ratio_900_L_20_R_18.png","xmouse":[810,810,810,810,810,810,810,810,810,810,810,810,810,810,810,810,810,810,810,810,810,810,810,810,810,810,810,810,810,810,810,810,810,810,810,810,810,810,810,810,810,810,810,810,810,810,810,810,810,810,810,810,810,810,810,810,810,810,810,810,810,810,810,810,810,810,810,810,810,810,810,810,810,810,810,810,810,810,810,810,810,810,810,810,810,810,810,810,810,810,810,810,810,810,810,810,810,810,810,810,810,810,810,810,810,810,810,810,810,810,810,810,810,810,810,810,810,810,810,811,811,811,811,812,812,812,812,812,812,812,810,803,793,787,769,744,729,718,702,690,655,637,619,592,577,564,546,541,536,531,527,518,516,516,515,515,515,515,515,515,515,517,517,517,517,517,523,525,528,530,535,539,546,551,560,565,567,571,577,589,609,711,747,747,747,747,747,747,747,747,747,747,747,747,747,747,747,747,747,747,747,747,747,1142,1146],"ymouse":[517,517,517,517,517,517,517,517,517,517,517,517,517,517,517,517,517,517,517,517,517,517,517,517,517,517,517,517,517,517,517,517,517,517,517,517,517,517,517,517,517,517,517,517,517,517,517,517,517,517,517,517,517,517,517,517,517,517,517,517,517,517,517,517,517,517,517,517,517,517,517,517,517,517,517,517,517,517,517,517,517,517,517,517,517,517,517,517,517,517,517,517,517,517,517,517,517,517,517,517,517,517,517,517,517,517,517,517,517,517,517,517,517,517,517,517,517,517,517,516,515,513,511,507,504,502,499,499,499,498,497,495,492,491,486,479,475,472,467,464,450,445,438,426,421,416,408,403,398,393,385,360,348,335,330,321,319,318,316,312,304,293,289,288,286,283,263,251,240,235,219,204,182,159,130,111,108,103,96,85,71,18,3,3,3,3,3,3,3,3,3,3,3,3,3,3,3,3,3,3,3,3,3,0,4],"timestamp_mouse":[15,35,56,76,96,116,135,155,176,196,216,235,255,276,295,315,336,356,375,396,415,436,455,475,496,516,535,555,575,596,615,635,657,676,695,716,737,756,775,795,816,835,855,875,895,917,936,956,976,995,1015,1035,1057,1075,1095,1117,1136,1156,1176,1195,1216,1236,1255,1276,1296,1315,1337,1355,1377,1396,1416,1437,1456,1475,1495,1516,1535,1556,1575,1595,1615,1635,1657,1675,1695,1716,1736,1756,1776,1795,1817,1836,1856,1877,1895,1916,1935,1956,1975,1997,2016,2036,2056,2076,2096,2115,2135,2156,2175,2195,2217,2235,2256,2276,2296,2315,2336,2356,2376,2395,2415,2435,2457,2477,2495,2516,2537,2555,2575,2595,2616,2635,2656,2675,2696,2716,2737,2755,2775,2795,2816,2835,2855,2875,2895,2917,2936,2955,2976,2997,3015,3035,3055,3075,3096,3116,3135,3156,3176,3195,3215,3236,3255,3275,3295,3317,3335,3355,3375,3395,3416,3435,3456,3476,3495,3516,3535,3556,3575,3596,3615,3635,3656,3677,3695,3716,3735,3756,3777,3796,3816,3836,3855,3876,3896,3916,3936,3955,3975,3995,4015,4036,4056,4075,4096],"xSR":741.5,"ySR":469.95,"xT1":424.9,"yT1":0,"xT2":1058.1,"yT2":0,"toosoon":0,"cond_shown":"equaldotsize","ratio_trial":900,"smaller_num":"18","larger_num":"20","correct_side":1,"subjID":"charlottecaicedorestrepo36","gender":"1","age":"11","school":"6"},{"start_time":1551801650007,"click_time":1551801651647,"finger_time":1551801650888,"fix_duration":1199.39384469762,"trial":38,"RT":881,"MT":759,"sideResp":1,"stimulus":"img/250/randomdotsizeEA/L/2_Ratio_250_L_16_R_4.png","xmouse":[759,759,759,759,759,759,759,759,759,759,759,759,759,759,759,759,759,759,759,759,759,759,759,759,759,759,759,759,759,759,759,759,759,759,759,759,759,759,759,759,759,758,754,703,636,555,479,420,366,348,328,320,315,315,314,314,314,325,332,339,351,359,379,390,402,411,417,418,421,422,422,422,422,422,422,422,422,422,422,422,423,425],"ymouse":[505,505,505,505,505,505,505,505,505,505,505,505,505,505,505,505,505,505,505,505,505,505,505,505,505,505,505,505,505,505,505,505,505,505,505,505,505,505,505,505,505,504,503,491,475,453,432,419,403,395,380,366,328,309,296,283,275,253,241,228,207,193,146,122,101,85,73,66,55,51,51,51,51,51,51,51,51,51,51,51,51,51],"timestamp_mouse":[20,40,61,81,99,120,140,159,180,200,221,239,260,281,299,320,340,359,380,399,420,439,461,480,499,520,539,561,581,601,620,640,661,680,701,721,741,760,780,801,820,840,860,881,901,920,939,961,980,999,1020,1040,1061,1080,1100,1120,1139,1160,1180,1199,1220,1240,1260,1279,1299,1320,1340,1361,1380,1400,1419,1440,1461,1481,1499,1519,1539,1560,1579,1600,1620,1640],"xSR":741.5,"ySR":469.95,"xT1":424.9,"yT1":0,"xT2":1058.1,"yT2":0,"toosoon":0,"cond_shown":"randomdotsizeEA","ratio_trial":250,"smaller_num":"4","larger_num":"16","correct_side":1,"subjID":"charlottecaicedorestrepo36","gender":"1","age":"11","school":"6"},{"start_time":1551801653870,"click_time":1551801655027,"finger_time":1551801654686,"fix_duration":601.9150232842193,"trial":39,"RT":816,"MT":341,"sideResp":1,"stimulus":"img/250/randomdotsizeEA/L/1_Ratio_250_L_8_R_2.png","xmouse":[761,761,761,761,761,761,761,761,761,761,761,761,761,761,761,761,761,761,761,761,761,761,761,761,761,761,761,761,761,761,761,761,761,761,761,761,761,761,761,758,726,708,692,678,652,644,638,634,626,617,611,604,596,585,573,534,518,504],"ymouse":[506,506,506,506,506,506,506,506,506,506,506,506,506,506,506,506,506,506,506,506,506,506,506,506,506,506,506,506,506,506,506,506,506,506,506,506,506,506,506,505,481,467,453,438,406,397,391,389,382,366,356,344,329,310,281,172,115,65],"timestamp_mouse":[16,37,57,78,98,116,136,157,177,197,217,236,257,276,296,317,338,358,377,397,418,437,458,477,496,517,537,558,577,598,616,638,657,677,697,717,737,757,777,796,816,837,858,878,897,917,937,958,977,997,1016,1037,1057,1077,1097,1117,1137,1157],"xSR":741.5,"ySR":469.95,"xT1":424.9,"yT1":0,"xT2":1058.1,"yT2":0,"toosoon":0,"cond_shown":"randomdotsizeEA","ratio_trial":250,"smaller_num":"2","larger_num":"8","correct_side":1,"subjID":"charlottecaicedorestrepo36","gender":"1","age":"11","school":"6"},{"start_time":1551801657543,"click_time":1551801659367,"finger_time":1551801658687,"fix_duration":1234.1423877458062,"trial":40,"RT":1144,"MT":680,"sideResp":1,"stimulus":"img/900/equaldotanddens/R/12_Ratio_900_L_18_R_20.png","xmouse":[756,756,756,756,756,756,756,756,756,756,756,756,756,756,756,756,756,756,756,756,756,756,756,756,756,756,756,756,756,756,756,756,756,756,756,756,756,756,756,756,756,756,756,756,756,756,756,756,756,756,756,756,756,756,756,756,749,739,726,710,685,659,627,619,615,609,598,588,580,570,559,524,506,491,474,466,454,451,450,448,448,445,443,442,443,444,444,444,445,451,459,469],"ymouse":[527,527,527,527,527,527,527,527,527,527,527,527,527,527,527,527,527,527,527,527,527,527,527,527,527,527,527,527,527,527,527,527,527,527,527,527,527,527,527,527,527,527,527,527,527,527,527,527,527,527,527,527,527,527,527,527,519,511,500,486,462,441,411,406,402,397,388,381,374,364,352,312,290,276,261,250,235,229,227,224,221,211,206,200,194,191,191,191,184,161,133,94],"timestamp_mouse":[11,25,45,76,84,104,124,145,165,183,205,223,245,265,285,303,324,345,364,384,403,424,444,463,485,504,523,544,565,585,604,624,645,664,683,705,724,745,764,784,803,825,844,864,884,904,924,945,964,983,1005,1024,1044,1063,1085,1103,1124,1144,1164,1185,1205,1224,1245,1264,1284,1303,1325,1343,1364,1385,1405,1424,1443,1464,1484,1504,1525,1543,1564,1584,1604,1624,1644,1663,1683,1703,1725,1744,1765,1784,1804,1824],"xSR":741.5,"ySR":469.95,"xT1":424.9,"yT1":0,"xT2":1058.1,"yT2":0,"toosoon":0,"cond_shown":"equaldotanddens","ratio_trial":900,"smaller_num":"18","larger_num":"20","correct_side":2,"subjID":"charlottecaicedorestrepo36","gender":"1","age":"11","school":"6"},{"start_time":1551801666557,"click_time":1551801667727,"finger_time":1551801667328,"fix_duration":589.3929146427868,"trial":41,"RT":771,"MT":399,"sideResp":2,"stimulus":"img/750/equaldotsize/R/5_Ratio_750_L_15_R_20.png","xmouse":[776,776,776,776,776,776,776,776,776,776,776,776,776,776,776,776,776,776,776,776,776,776,776,776,776,776,776,776,776,776,776,776,776,776,776,784,789,796,804,813,837,850,864,873,881,889,890,891,891,892,896,900,906,926,943,990,1021,1050,1070],"ymouse":[555,555,555,555,555,555,555,555,555,555,555,555,555,555,555,555,555,555,555,555,555,555,555,555,555,555,555,555,555,555,555,555,555,554,551,519,500,477,452,426,352,305,259,218,181,154,150,148,146,145,140,135,129,119,112,94,84,76,68],"timestamp_mouse":[9,38,50,69,91,109,130,150,169,191,209,230,249,270,290,310,331,349,369,390,409,430,450,471,490,511,531,550,571,590,610,631,651,669,690,710,730,750,771,791,810,829,851,869,890,910,929,949,971,990,1010,1029,1049,1070,1090,1110,1130,1150,1169],"xSR":741.5,"ySR":469.95,"xT1":424.9,"yT1":0,"xT2":1058.1,"yT2":0,"toosoon":0,"cond_shown":"equaldotsize","ratio_trial":750,"smaller_num":"15","larger_num":"20","correct_side":2,"subjID":"charlottecaicedorestrepo36","gender":"1","age":"11","school":"6"},{"start_time":1551801670259,"click_time":1551801672128,"finger_time":1551801671367,"fix_duration":250,"trial":42,"RT":1108,"MT":761,"sideResp":2,"stimulus":"img/900/equaldotsize/R/9_Ratio_900_L_18_R_20.png","xmouse":[792,792,792,792,792,792,792,792,792,792,792,792,792,792,792,792,792,792,792,792,792,792,792,792,792,792,792,792,792,792,792,792,792,792,792,792,792,792,792,792,792,792,792,792,792,792,792,792,792,792,792,792,797,805,820,847,858,867,879,886,897,903,909,914,918,919,923,924,928,934,953,962,972,982,993,1025,1041,1052,1055,1055,1055,1055,1055,1055,1055,1055,1055,1055,1055,1055,1055,1056,1057,1061],"ymouse":[557,557,557,557,557,557,557,557,557,557,557,557,557,557,557,557,557,557,557,557,557,557,557,557,557,557,557,557,557,557,557,557,557,557,557,557,557,557,557,557,557,557,557,557,557,557,557,557,557,557,557,557,529,506,476,429,405,386,358,341,304,285,270,260,252,245,233,229,221,213,191,180,168,155,141,110,97,88,86,86,86,86,86,86,86,86,86,86,86,86,86,85,83,78],"timestamp_mouse":[9,38,48,67,87,108,129,148,168,188,209,229,249,268,288,308,328,348,367,388,408,427,449,468,489,508,529,549,568,589,609,628,647,667,688,707,727,748,767,788,807,827,847,868,887,907,927,949,968,988,1009,1027,1047,1069,1087,1108,1128,1148,1167,1188,1209,1227,1248,1267,1288,1307,1328,1348,1368,1389,1408,1427,1447,1468,1489,1508,1527,1548,1569,1588,1609,1628,1647,1668,1688,1709,1727,1748,1768,1788,1809,1828,1848,1869],"xSR":741.5,"ySR":469.95,"xT1":424.9,"yT1":0,"xT2":1058.1,"yT2":0,"toosoon":0,"cond_shown":"equaldotsize","ratio_trial":900,"smaller_num":"18","larger_num":"20","correct_side":2,"subjID":"charlottecaicedorestrepo36","gender":"1","age":"11","school":"6"},{"start_time":1551801673919,"click_time":1551801675548,"finger_time":1551801674627,"fix_duration":250,"trial":43,"RT":708,"MT":921,"sideResp":1,"stimulus":"img/250/equaldotsize/L/5_Ratio_250_L_24_R_6.png","xmouse":[791,791,791,791,791,791,791,791,791,791,791,791,791,791,791,791,791,791,791,791,791,791,791,791,791,791,791,791,791,791,791,791,787,768,745,717,701,687,666,661,657,652,635,624,616,605,599,587,581,576,573,569,562,559,553,547,531,515,509,504,495,486,472,466,461,456,455,455,455,455,455,455,455,455,455,455,455,455,455,454,451,448],"ymouse":[557,557,557,557,557,557,557,557,557,557,557,557,557,557,557,557,557,557,557,557,557,557,557,557,557,557,557,557,557,557,557,557,551,521,490,458,440,429,417,416,414,411,401,394,388,379,373,353,343,333,327,319,303,295,282,271,247,212,198,186,174,162,141,131,123,114,111,111,111,111,111,111,111,111,111,111,111,111,111,110,100,78],"timestamp_mouse":[10,33,48,68,88,107,128,147,169,187,207,229,248,268,289,308,327,348,369,389,407,427,449,467,488,507,527,548,569,587,609,628,649,668,689,708,728,748,768,788,808,829,849,868,889,909,927,949,967,988,1009,1028,1048,1067,1088,1107,1127,1149,1168,1189,1208,1228,1248,1268,1288,1308,1328,1348,1367,1388,1408,1428,1449,1469,1487,1507,1528,1549,1567,1587,1608,1629],"xSR":741.5,"ySR":469.95,"xT1":424.9,"yT1":0,"xT2":1058.1,"yT2":0,"toosoon":0,"cond_shown":"equaldotsize","ratio_trial":250,"smaller_num":"6","larger_num":"24","correct_side":1,"subjID":"charlottecaicedorestrepo36","gender":"1","age":"11","school":"6"},{"start_time":1551801682669,"click_time":1551801684168,"finger_time":1551801683466,"fix_duration":1320.02105629931,"trial":44,"RT":797,"MT":702,"sideResp":1,"stimulus":"img/500/randomdotsizeEA/L/13_Ratio_500_L_12_R_6.png","xmouse":[802,802,802,802,802,802,802,802,802,802,802,802,802,802,802,802,802,802,802,802,802,802,802,802,802,802,802,802,802,802,802,802,802,802,802,802,802,791,770,741,675,649,621,599,572,563,557,551,539,529,506,483,454,434,411,399,387,376,371,369,367,367,367,367,368,372,375,381,386,393,405,411,417,422,426],"ymouse":[541,541,541,541,541,541,541,541,541,541,541,541,541,541,541,541,541,541,541,541,541,541,541,541,541,541,541,541,541,541,541,541,541,541,541,541,541,539,533,526,514,509,501,492,476,470,464,456,441,425,390,363,326,296,245,216,189,160,146,137,126,121,118,116,110,106,103,101,100,98,96,96,95,94,94],"timestamp_mouse":[27,38,59,79,99,118,138,157,177,198,217,239,259,277,298,319,338,358,379,397,418,437,459,477,498,519,539,558,577,598,617,637,659,679,697,718,739,758,779,797,817,837,858,878,898,917,937,957,979,999,1018,1038,1057,1078,1098,1118,1138,1158,1178,1199,1218,1238,1258,1278,1298,1317,1337,1358,1378,1399,1419,1438,1457,1477,1499],"xSR":741.5,"ySR":469.95,"xT1":424.9,"yT1":0,"xT2":1058.1,"yT2":0,"toosoon":0,"cond_shown":"randomdotsizeEA","ratio_trial":500,"smaller_num":"6","larger_num":"12","correct_side":1,"subjID":"charlottecaicedorestrepo36","gender":"1","age":"11","school":"6"},{"start_time":1551801686440,"click_time":1551801687788,"finger_time":1551801687147,"fix_duration":1071.703337329009,"trial":45,"RT":707,"MT":641,"sideResp":1,"stimulus":"img/500/equaldotanddens/L/5_Ratio_500_L_4_R_2.png","xmouse":[777,777,777,777,777,777,777,777,777,777,777,777,777,777,777,777,777,777,777,777,777,777,777,777,777,777,777,777,777,777,777,777,777,777,762,750,591,476,367,367,367,367,367,367,367,367,367,367,367,367,265,282,290,300,315,329,356,368,373,374,374,374,374,376,382,392,403,428],"ymouse":[497,497,497,497,497,497,497,497,497,497,497,497,497,497,497,497,497,497,497,497,497,497,497,497,497,497,497,497,497,497,497,497,497,497,482,468,285,146,17,17,17,17,17,17,17,17,17,17,17,17,0,13,18,24,30,36,46,47,47,47,47,47,47,47,48,51,55,64],"timestamp_mouse":[8,31,46,66,88,106,128,148,167,188,207,228,248,267,288,307,328,347,367,386,407,426,447,466,486,507,527,548,566,588,607,626,648,667,687,707,727,746,767,786,807,828,847,867,888,907,927,948,968,987,1006,1028,1047,1067,1087,1107,1128,1147,1168,1188,1206,1226,1246,1267,1287,1307,1327,1348],"xSR":741.5,"ySR":469.95,"xT1":424.9,"yT1":0,"xT2":1058.1,"yT2":0,"toosoon":0,"cond_shown":"equaldotanddens","ratio_trial":500,"smaller_num":"2","larger_num":"4","correct_side":1,"subjID":"charlottecaicedorestrepo36","gender":"1","age":"11","school":"6"},{"start_time":1551801690526,"click_time":1551801691947,"finger_time":1551801691207,"fix_duration":1457.6880964973693,"trial":46,"RT":681,"MT":740,"sideResp":2,"stimulus":"img/250/equaldotanddens/R/4_Ratio_250_L_3_R_12.png","xmouse":[753,753,753,753,753,753,753,753,753,753,753,753,753,753,753,753,753,753,753,753,753,753,753,753,753,753,753,753,753,753,753,753,755,811,959,1056,1147,1270,1296,1307,1307,1307,1307,1307,1307,1307,1307,1307,1307,1307,1307,1307,1290,1270,1247,1214,1197,11