[{"start_time":1551800559938,"click_time":1551800562760,"finger_time":1551800559946,"fix_duration":754.7067280038772,"trial":0,"RT":8,"MT":2814,"sideResp":2,"stimulus":[],"xmouse":[799,799,799,799,799,799,799,799,799,799,799,799,799,799,799,799,799,799,799,799,799,799,799,799,799,799,799,799,799,799,799,799,799,799,799,799,799,799,799,799,799,799,799,799,799,799,799,799,799,799,799,799,799,799,799,800,801,802,804,805,805,805,805,805,805,805,805,805,805,805,805,805,805,805,805,805,805,805,805,805,805,805,805,805,805,805,805,805,805,805,805,805,805,805,806,807,807,807,807,807,805,799,797,796,795,795,794,794,794,793,789,783,776,767,737,726,721,721,723,737,746,758,779,799,828,834,840,845,857,893,954,982,994,999,1005,1016,1023,1030,1040,1049,1072,1078],"ymouse":[573,573,573,573,573,573,573,573,573,573,573,573,573,573,573,573,573,573,573,573,573,573,573,573,573,573,573,573,573,573,573,573,573,573,571,570,569,569,569,569,568,566,562,560,554,551,549,547,546,546,546,546,546,545,542,540,537,535,534,532,532,532,532,532,532,532,532,531,530,528,527,526,526,526,526,526,526,526,526,526,526,526,526,526,524,523,521,520,517,512,508,506,504,503,500,498,497,495,494,489,467,448,440,437,433,431,430,428,426,421,410,401,390,376,350,341,330,316,305,284,278,276,271,267,255,250,246,243,240,234,216,203,195,191,186,179,175,171,163,151,111,96],"timestamp_mouse":[7,22,41,61,82,102,121,142,161,181,202,222,241,261,282,301,321,341,362,381,403,423,442,463,481,501,522,541,561,582,601,621,642,662,681,702,722,742,761,782,802,822,841,861,881,901,921,942,963,981,1002,1022,1043,1062,1082,1103,1121,1141,1163,1183,1202,1222,1242,1263,1282,1301,1321,1341,1362,1383,1403,1422,1443,1461,1482,1502,1523,1542,1563,1583,1602,1622,1642,1661,1683,1701,1723,1742,1762,1781,1803,1821,1841,1861,1882,1902,1923,1941,1962,1981,2003,2021,2042,2061,2081,2101,2123,2141,2162,2181,2202,2221,2243,2262,2282,2302,2321,2341,2361,2381,2401,2421,2442,2462,2481,2501,2522,2542,2561,2581,2601,2621,2641,2661,2681,2701,2722,2742,2761,2781,2802,2821],"xSR":741.5,"ySR":501.8,"xT1":424.9,"yT1":0,"xT2":1058.1,"yT2":0,"toosoon":0,"cond_shown":"Congruent","ratio_trial":200,"L_num":5,"L_den":10,"R_num":14,"R_den":20,"correct_side":2,"subjID":"cristianandresmancerabaez19","gender":"0","age":"12","school":"6","test":{"fix_dur":[250,1500],"timestim":1000,"targets_dim":[100,100],"targets_relative_coord":[0.3,0.7],"size_stim":[880,420],"start_dim":[100,100],"size_start":[300,300],"size_fix":60,"samplingrate":20,"img_types":["Congruent","Incongruent"],"ratios":[100,200,300],"rep_conds":19,"nTrials":120,"trials_to_rest":500,"Trials_order":[32,73,1,39,83,84,72,58,89,111,90,110,95,16,107,116,37,13,113,64,36,76,117,74,14,101,38,67,22,42,19,9,63,105,99,112,55,31,66,100,96,3,35,115,59,87,17,118,48,82,61,33,8,47,23,6,4,20,45,93,18,94,49,81,106,69,104,119,68,27,70,65,103,41,108,79,30,51,34,2,53,10,92,85,7,46,44,54,91,60,114,43,50,5,77,98,78,62,24,15,71,0,11,75,102,88,86,25,52,109,40,29,80,21,57,28,12,56,97,26],"cond_shown":["Congruent","Incongruent","Incongruent","Incongruent","Incongruent","Congruent","Congruent","Congruent","Incongruent","Incongruent","Congruent","Congruent","Incongruent","Congruent","Incongruent","Congruent","Incongruent","Incongruent","Incongruent","Congruent","Congruent","Congruent","Incongruent","Congruent","Congruent","Incongruent","Congruent","Incongruent","Congruent","Congruent","Incongruent","Incongruent","Incongruent","Incongruent","Incongruent","Congruent","Incongruent","Incongruent","Congruent","Congruent","Congruent","Incongruent","Incongruent","Incongruent","Incongruent","Incongruent","Incongruent","Congruent","Congruent","Congruent","Incongruent","Incongruent","Congruent","Incongruent","Incongruent","Congruent","Congruent","Congruent","Incongruent","Incongruent","Congruent","Congruent","Incongruent","Incongruent","Congruent","Incongruent","Congruent","Incongruent","Congruent","Incongruent","Congruent","Incongruent","Incongruent","Incongruent","Congruent","Incongruent","Congruent","Incongruent","Congruent","Congruent","Incongruent","Congruent","Congruent","Incongruent","Incongruent","Congruent","Congruent","Congruent","Incongruent","Congruent","Congruent","Incongruent","Congruent","Incongruent","Incongruent","Congruent","Congruent","Congruent","Congruent","Incongruent","Incongruent","Congruent","Incongruent","Incongruent","Congruent","Congruent","Congruent","Incongruent","Congruent","Incongruent","Congruent","Incongruent","Congruent","Incongruent","Incongruent","Congruent","Congruent","Congruent","Incongruent","Congruent"],"ratio_trial":[200,100,100,200,300,100,100,300,300,200,100,200,300,300,300,200,100,100,300,300,100,300,200,200,200,300,200,100,300,100,100,200,200,200,200,300,100,100,100,300,100,200,300,100,300,200,300,300,100,300,100,200,200,300,300,100,300,200,200,200,100,300,100,200,300,200,200,300,200,200,300,300,100,300,100,100,100,200,300,200,300,300,200,100,100,300,200,100,100,100,100,100,200,300,300,200,100,200,100,200,300,100,300,200,100,300,200,100,300,100,300,300,200,200,200,300,100,200,100,200],"left_num":[5,2,3,4,1,7,7,1,8,6,11,12,2,3,1,8,12,12,13,7,1,18,11,9,7,2,3,13,1,9,10,14,1,7,11,4,17,10,10,1,12,14,4,11,4,3,4,1,4,20,9,9,4,4,4,7,11,6,1,3,11,20,12,1,11,4,6,4,14,7,5,1,6,4,1,2,12,11,1,8,4,5,3,10,3,7,8,11,3,3,12,10,20,8,13,13,15,11,11,7,8,2,4,3,11,18,16,11,8,8,20,4,8,9,1,2,1,20,2,3],"right_num":[14,8,11,1,3,9,15,3,9,3,4,6,6,4,2,7,9,2,12,20,3,9,3,13,2,6,14,12,7,8,8,6,3,6,3,2,10,9,3,6,13,6,6,9,2,11,2,11,15,5,6,8,3,8,2,9,4,3,3,11,4,5,9,3,4,14,11,2,6,8,6,3,13,8,3,8,13,3,11,3,2,6,7,8,8,20,2,6,7,4,13,8,9,9,12,14,13,3,6,4,14,6,6,1,4,9,9,9,10,1,13,2,3,8,3,12,18,9,8,11],"left_den":[10,4,5,30,2,14,14,5,10,20,22,20,4,6,2,15,24,30,26,14,2,20,20,30,21,4,10,26,20,15,25,30,2,15,20,5,30,25,25,5,30,30,5,22,20,4,20,5,10,25,18,15,10,5,20,14,22,15,2,4,22,25,24,2,22,6,20,20,28,10,25,2,10,5,2,4,30,20,5,15,20,25,10,25,5,14,15,22,9,20,30,25,25,10,26,26,25,22,22,15,10,5,5,10,22,20,30,22,15,20,25,20,15,15,2,10,2,25,4,10],"right_den":[20,20,22,3,15,15,25,6,18,6,10,15,30,5,10,21,15,4,15,25,5,15,4,26,15,30,28,20,20,16,16,9,10,9,4,4,15,18,10,12,26,9,12,15,4,20,4,22,30,10,10,10,15,16,4,15,20,15,10,20,10,10,15,10,20,30,22,4,20,16,12,15,26,16,5,20,26,4,22,9,4,12,14,16,16,25,6,15,30,16,26,16,15,18,15,20,26,10,15,6,28,12,12,2,10,15,27,15,12,2,26,4,9,10,10,24,30,15,20,22],"correct_side":[2,1,1,2,1,2,2,2,1,2,1,1,1,2,1,1,2,2,2,2,2,1,2,2,1,1,2,2,2,1,2,2,1,2,2,1,2,2,1,2,2,2,1,2,2,1,2,2,2,1,2,2,1,1,2,2,1,1,1,1,1,1,2,1,1,1,2,2,1,1,2,1,1,1,2,1,2,2,2,1,2,2,2,2,1,2,1,1,1,2,2,2,1,1,2,2,1,1,1,2,1,2,1,2,1,1,1,2,2,2,1,2,1,2,1,2,2,1,1,2],"img_shown":["img2/200/Congruent/R/C_Dist_200_LN_5_LD_10_RN_14_RD_20_1.png","img2/100/Incongruent/L/I_Dist_100_LN_2_LD_4_RN_8_RD_20_0.png","img2/100/Incongruent/L/I_Dist_100_LN_3_LD_5_RN_11_RD_22_0.png","img2/200/Incongruent/R/I_Dist_200_LN_4_LD_30_RN_1_RD_3_1.png","img2/300/Incongruent/L/I_Dist_300_LN_1_LD_2_RN_3_RD_15_0.png","img2/100/Congruent/R/C_Dist_100_LN_7_LD_14_RN_9_RD_15_1.png","img2/100/Congruent/R/C_Dist_100_LN_7_LD_14_RN_15_RD_25_1.png","img2/300/Congruent/R/C_Dist_300_LN_1_LD_5_RN_3_RD_6_1.png","img2/300/Incongruent/L/I_Dist_300_LN_8_LD_10_RN_9_RD_18_0.png","img2/200/Incongruent/R/I_Dist_200_LN_6_LD_20_RN_3_RD_6_1.png","img2/100/Congruent/L/C_Dist_100_LN_11_LD_22_RN_4_RD_10_0.png","img2/200/Congruent/L/C_Dist_200_LN_12_LD_20_RN_6_RD_15_0.png","img2/300/Incongruent/L/I_Dist_300_LN_2_LD_4_RN_6_RD_30_0.png","img2/300/Congruent/R/C_Dist_300_LN_3_LD_6_RN_4_RD_5_1.png","img2/300/Incongruent/L/I_Dist_300_LN_1_LD_2_RN_2_RD_10_0.png","img2/200/Congruent/L/C_Dist_200_LN_8_LD_15_RN_7_RD_21_0.png","img2/100/Incongruent/R/I_Dist_100_LN_12_LD_24_RN_9_RD_15_1.png","img2/100/Incongruent/R/I_Dist_100_LN_12_LD_30_RN_2_RD_4_1.png","img2/300/Incongruent/R/I_Dist_300_LN_13_LD_26_RN_12_RD_15_1.png","img2/300/Congruent/R/C_Dist_300_LN_7_LD_14_RN_20_RD_25_1.png","img2/100/Congruent/R/C_Dist_100_LN_1_LD_2_RN_3_RD_5_1.png","img2/300/Congruent/L/C_Dist_300_LN_18_LD_20_RN_9_RD_15_0.png","img2/200/Incongruent/R/I_Dist_200_LN_11_LD_20_RN_3_RD_4_1.png","img2/200/Congruent/R/C_Dist_200_LN_9_LD_30_RN_13_RD_26_1.png","img2/200/Congruent/L/C_Dist_200_LN_7_LD_21_RN_2_RD_15_0.png","img2/300/Incongruent/L/I_Dist_300_LN_2_LD_4_RN_6_RD_30_0.png","img2/200/Congruent/R/C_Dist_200_LN_3_LD_10_RN_14_RD_28_1.png","img2/100/Incongruent/R/I_Dist_100_LN_13_LD_26_RN_12_RD_20_1.png","img2/300/Congruent/R/C_Dist_300_LN_1_LD_20_RN_7_RD_20_1.png","img2/100/Congruent/L/C_Dist_100_LN_9_LD_15_RN_8_RD_16_0.png","img2/100/Incongruent/R/I_Dist_100_LN_10_LD_25_RN_8_RD_16_1.png","img2/200/Incongruent/R/I_Dist_200_LN_14_LD_30_RN_6_RD_9_1.png","img2/200/Incongruent/L/I_Dist_200_LN_1_LD_2_RN_3_RD_10_0.png","img2/200/Incongruent/R/I_Dist_200_LN_7_LD_15_RN_6_RD_9_1.png","img2/200/Incongruent/R/I_Dist_200_LN_11_LD_20_RN_3_RD_4_1.png","img2/300/Congruent/L/C_Dist_300_LN_4_LD_5_RN_2_RD_4_0.png","img2/100/Incongruent/R/I_Dist_100_LN_17_LD_30_RN_10_RD_15_1.png","img2/100/Incongruent/R/I_Dist_100_LN_10_LD_25_RN_9_RD_18_1.png","img2/100/Congruent/L/C_Dist_100_LN_10_LD_25_RN_3_RD_10_0.png","img2/300/Congruent/R/C_Dist_300_LN_1_LD_5_RN_6_RD_12_1.png","img2/100/Congruent/R/C_Dist_100_LN_12_LD_30_RN_13_RD_26_1.png","img2/200/Incongruent/R/I_Dist_200_LN_14_LD_30_RN_6_RD_9_1.png","img2/300/Incongruent/L/I_Dist_300_LN_4_LD_5_RN_6_RD_12_0.png","img2/100/Incongruent/R/I_Dist_100_LN_11_LD_22_RN_9_RD_15_1.png","img2/300/Incongruent/R/I_Dist_300_LN_4_LD_20_RN_2_RD_4_1.png","img2/200/Incongruent/L/I_Dist_200_LN_3_LD_4_RN_11_RD_20_0.png","img2/300/Incongruent/R/I_Dist_300_LN_4_LD_20_RN_2_RD_4_1.png","img2/300/Congruent/R/C_Dist_300_LN_1_LD_5_RN_11_RD_22_1.png","img2/100/Congruent/R/C_Dist_100_LN_4_LD_10_RN_15_RD_30_1.png","img2/300/Congruent/L/C_Dist_300_LN_20_LD_25_RN_5_RD_10_0.png","img2/100/Incongruent/R/I_Dist_100_LN_9_LD_18_RN_6_RD_10_1.png","img2/200/Incongruent/R/I_Dist_200_LN_9_LD_15_RN_8_RD_10_1.png","img2/200/Congruent/L/C_Dist_200_LN_4_LD_10_RN_3_RD_15_0.png","img2/300/Incongruent/L/I_Dist_300_LN_4_LD_5_RN_8_RD_16_0.png","img2/300/Incongruent/R/I_Dist_300_LN_4_LD_20_RN_2_RD_4_1.png","img2/100/Congruent/R/C_Dist_100_LN_7_LD_14_RN_9_RD_15_1.png","img2/300/Congruent/L/C_Dist_300_LN_11_LD_22_RN_4_RD_20_0.png","img2/200/Congruent/L/C_Dist_200_LN_6_LD_15_RN_3_RD_15_0.png","img2/200/Incongruent/L/I_Dist_200_LN_1_LD_2_RN_3_RD_10_0.png","img2/200/Incongruent/L/I_Dist_200_LN_3_LD_4_RN_11_RD_20_0.png","img2/100/Congruent/L/C_Dist_100_LN_11_LD_22_RN_4_RD_10_0.png","img2/300/Congruent/L/C_Dist_300_LN_20_LD_25_RN_5_RD_10_0.png","img2/100/Incongruent/R/I_Dist_100_LN_12_LD_24_RN_9_RD_15_1.png","img2/200/Incongruent/L/I_Dist_200_LN_1_LD_2_RN_3_RD_10_0.png","img2/300/Congruent/L/C_Dist_300_LN_11_LD_22_RN_4_RD_20_0.png","img2/200/Incongruent/L/I_Dist_200_LN_4_LD_6_RN_14_RD_30_0.png","img2/200/Congruent/R/C_Dist_200_LN_6_LD_20_RN_11_RD_22_1.png","img2/300/Incongruent/R/I_Dist_300_LN_4_LD_20_RN_2_RD_4_1.png","img2/200/Congruent/L/C_Dist_200_LN_14_LD_28_RN_6_RD_20_0.png","img2/200/Incongruent/L/I_Dist_200_LN_7_LD_10_RN_8_RD_16_0.png","img2/300/Congruent/R/C_Dist_300_LN_5_LD_25_RN_6_RD_12_1.png","img2/300/Incongruent/L/I_Dist_300_LN_1_LD_2_RN_3_RD_15_0.png","img2/100/Incongruent/L/I_Dist_100_LN_6_LD_10_RN_13_RD_26_0.png","img2/300/Incongruent/L/I_Dist_300_LN_4_LD_5_RN_8_RD_16_0.png","img2/100/Congruent/R/C_Dist_100_LN_1_LD_2_RN_3_RD_5_1.png","img2/100/Incongruent/L/I_Dist_100_LN_2_LD_4_RN_8_RD_20_0.png","img2/100/Congruent/R/C_Dist_100_LN_12_LD_30_RN_13_RD_26_1.png","img2/200/Incongruent/R/I_Dist_200_LN_11_LD_20_RN_3_RD_4_1.png","img2/300/Congruent/R/C_Dist_300_LN_1_LD_5_RN_11_RD_22_1.png","img2/200/Congruent/L/C_Dist_200_LN_8_LD_15_RN_3_RD_9_0.png","img2/300/Incongruent/R/I_Dist_300_LN_4_LD_20_RN_2_RD_4_1.png","img2/300/Congruent/R/C_Dist_300_LN_5_LD_25_RN_6_RD_12_1.png","img2/200/Congruent/R/C_Dist_200_LN_3_LD_10_RN_7_RD_14_1.png","img2/100/Incongruent/R/I_Dist_100_LN_10_LD_25_RN_8_RD_16_1.png","img2/100/Incongruent/L/I_Dist_100_LN_3_LD_5_RN_8_RD_16_0.png","img2/300/Congruent/R/C_Dist_300_LN_7_LD_14_RN_20_RD_25_1.png","img2/200/Congruent/L/C_Dist_200_LN_8_LD_15_RN_2_RD_6_0.png","img2/100/Congruent/L/C_Dist_100_LN_11_LD_22_RN_6_RD_15_0.png","img2/100/Incongruent/L/I_Dist_100_LN_3_LD_9_RN_7_RD_30_0.png","img2/100/Congruent/R/C_Dist_100_LN_3_LD_20_RN_4_RD_16_1.png","img2/100/Congruent/R/C_Dist_100_LN_12_LD_30_RN_13_RD_26_1.png","img2/100/Incongruent/R/I_Dist_100_LN_10_LD_25_RN_8_RD_16_1.png","img2/200/Congruent/L/C_Dist_200_LN_20_LD_25_RN_9_RD_15_0.png","img2/300/Incongruent/L/I_Dist_300_LN_8_LD_10_RN_9_RD_18_0.png","img2/300/Incongruent/R/I_Dist_300_LN_13_LD_26_RN_12_RD_15_1.png","img2/200/Congruent/R/C_Dist_200_LN_13_LD_26_RN_14_RD_20_1.png","img2/100/Congruent/L/C_Dist_100_LN_15_LD_25_RN_13_RD_26_0.png","img2/200/Congruent/L/C_Dist_200_LN_11_LD_22_RN_3_RD_10_0.png","img2/100/Congruent/L/C_Dist_100_LN_11_LD_22_RN_6_RD_15_0.png","img2/200/Incongruent/R/I_Dist_200_LN_7_LD_15_RN_4_RD_6_1.png","img2/300/Incongruent/L/I_Dist_300_LN_8_LD_10_RN_14_RD_28_0.png","img2/100/Congruent/R/C_Dist_100_LN_2_LD_5_RN_6_RD_12_1.png","img2/300/Incongruent/L/I_Dist_300_LN_4_LD_5_RN_6_RD_12_0.png","img2/200/Incongruent/R/I_Dist_200_LN_3_LD_10_RN_1_RD_2_1.png","img2/100/Congruent/L/C_Dist_100_LN_11_LD_22_RN_4_RD_10_0.png","img2/300/Congruent/L/C_Dist_300_LN_18_LD_20_RN_9_RD_15_0.png","img2/200/Congruent/L/C_Dist_200_LN_16_LD_30_RN_9_RD_27_0.png","img2/100/Incongruent/R/I_Dist_100_LN_11_LD_22_RN_9_RD_15_1.png","img2/300/Congruent/R/C_Dist_300_LN_8_LD_15_RN_10_RD_12_1.png","img2/100/Incongruent/R/I_Dist_100_LN_8_LD_20_RN_1_RD_2_1.png","img2/300/Congruent/L/C_Dist_300_LN_20_LD_25_RN_13_RD_26_0.png","img2/300/Incongruent/R/I_Dist_300_LN_4_LD_20_RN_2_RD_4_1.png","img2/200/Congruent/L/C_Dist_200_LN_8_LD_15_RN_3_RD_9_0.png","img2/200/Incongruent/R/I_Dist_200_LN_9_LD_15_RN_8_RD_10_1.png","img2/200/Incongruent/L/I_Dist_200_LN_1_LD_2_RN_3_RD_10_0.png","img2/300/Congruent/R/C_Dist_300_LN_2_LD_10_RN_12_RD_24_1.png","img2/100/Congruent/R/C_Dist_100_LN_1_LD_2_RN_18_RD_30_1.png","img2/200/Congruent/L/C_Dist_200_LN_20_LD_25_RN_9_RD_15_0.png","img2/100/Incongruent/L/I_Dist_100_LN_2_LD_4_RN_8_RD_20_0.png","img2/200/Congruent/R/C_Dist_200_LN_3_LD_10_RN_11_RD_22_1.png"],"dist100_C":[["C_Dist_100_LN_10_LD_25_RN_3_RD_10_0.png","C_Dist_100_LN_11_LD_22_RN_4_RD_10_0.png","C_Dist_100_LN_11_LD_22_RN_6_RD_15_0.png","C_Dist_100_LN_15_LD_25_RN_13_RD_26_0.png","C_Dist_100_LN_3_LD_6_RN_2_RD_5_0.png","C_Dist_100_LN_6_LD_20_RN_5_RD_25_0.png","C_Dist_100_LN_8_LD_16_RN_2_RD_5_0.png","C_Dist_100_LN_9_LD_15_RN_8_RD_16_0.png"],["C_Dist_100_LN_1_LD_2_RN_18_RD_30_1.png","C_Dist_100_LN_1_LD_2_RN_3_RD_5_1.png","C_Dist_100_LN_12_LD_30_RN_13_RD_26_1.png","C_Dist_100_LN_2_LD_5_RN_11_RD_22_1.png","C_Dist_100_LN_2_LD_5_RN_6_RD_12_1.png","C_Dist_100_LN_3_LD_20_RN_4_RD_16_1.png","C_Dist_100_LN_4_LD_10_RN_15_RD_30_1.png","C_Dist_100_LN_4_LD_8_RN_6_RD_10_1.png","C_Dist_100_LN_6_LD_12_RN_15_RD_25_1.png","C_Dist_100_LN_7_LD_14_RN_15_RD_25_1.png","C_Dist_100_LN_7_LD_14_RN_9_RD_15_1.png"]],"dist100_I":[["I_Dist_100_LN_1_LD_2_RN_8_RD_20_0.png","I_Dist_100_LN_2_LD_4_RN_6_RD_15_0.png","I_Dist_100_LN_2_LD_4_RN_8_RD_20_0.png","I_Dist_100_LN_3_LD_5_RN_11_RD_22_0.png","I_Dist_100_LN_3_LD_5_RN_8_RD_16_0.png","I_Dist_100_LN_3_LD_6_RN_4_RD_10_0.png","I_Dist_100_LN_3_LD_9_RN_7_RD_30_0.png","I_Dist_100_LN_4_LD_8_RN_8_RD_20_0.png","I_Dist_100_LN_6_LD_10_RN_11_RD_22_0.png","I_Dist_100_LN_6_LD_10_RN_13_RD_26_0.png","I_Dist_100_LN_6_LD_10_RN_7_RD_14_0.png","I_Dist_100_LN_9_LD_10_RN_20_RD_25_0.png","I_Dist_100_LN_9_LD_15_RN_13_RD_26_0.png","I_Dist_100_LN_9_LD_15_RN_14_RD_28_0.png"],["I_Dist_100_LN_10_LD_25_RN_8_RD_16_1.png","I_Dist_100_LN_10_LD_25_RN_9_RD_18_1.png","I_Dist_100_LN_11_LD_22_RN_9_RD_15_1.png","I_Dist_100_LN_12_LD_24_RN_9_RD_15_1.png","I_Dist_100_LN_12_LD_30_RN_2_RD_4_1.png","I_Dist_100_LN_13_LD_26_RN_12_RD_20_1.png","I_Dist_100_LN_13_LD_26_RN_6_RD_10_1.png","I_Dist_100_LN_17_LD_30_RN_10_RD_15_1.png","I_Dist_100_LN_6_LD_12_RN_3_RD_5_1.png","I_Dist_100_LN_8_LD_16_RN_6_RD_10_1.png","I_Dist_100_LN_8_LD_20_RN_1_RD_2_1.png","I_Dist_100_LN_9_LD_18_RN_6_RD_10_1.png"]],"dist100_S":[["E_Dist_100_LN_2_LD_12_RN_2_RD_30_0.png","E_Dist_100_LN_6_LD_10_RN_6_RD_12_0.png"],["E_Dist_100_LN_6_LD_12_RN_6_RD_10_1.png"]],"dist200_C":[["C_Dist_200_LN_11_LD_22_RN_3_RD_10_0.png","C_Dist_200_LN_12_LD_15_RN_6_RD_10_0.png","C_Dist_200_LN_12_LD_20_RN_6_RD_15_0.png","C_Dist_200_LN_14_LD_28_RN_6_RD_20_0.png","C_Dist_200_LN_15_LD_25_RN_4_RD_10_0.png","C_Dist_200_LN_16_LD_20_RN_12_RD_20_0.png","C_Dist_200_LN_16_LD_30_RN_9_RD_27_0.png","C_Dist_200_LN_20_LD_25_RN_9_RD_15_0.png","C_Dist_200_LN_21_LD_30_RN_2_RD_4_0.png","C_Dist_200_LN_4_LD_10_RN_3_RD_15_0.png","C_Dist_200_LN_4_LD_8_RN_3_RD_10_0.png","C_Dist_200_LN_6_LD_15_RN_3_RD_15_0.png","C_Dist_200_LN_7_LD_21_RN_2_RD_15_0.png","C_Dist_200_LN_8_LD_15_RN_2_RD_6_0.png","C_Dist_200_LN_8_LD_15_RN_3_RD_9_0.png","C_Dist_200_LN_8_LD_15_RN_7_RD_21_0.png","C_Dist_200_LN_9_LD_20_RN_4_RD_16_0.png"],["C_Dist_200_LN_1_LD_2_RN_21_RD_30_1.png","C_Dist_200_LN_13_LD_26_RN_14_RD_20_1.png","C_Dist_200_LN_3_LD_10_RN_11_RD_22_1.png","C_Dist_200_LN_3_LD_10_RN_14_RD_28_1.png","C_Dist_200_LN_3_LD_10_RN_7_RD_14_1.png","C_Dist_200_LN_3_LD_12_RN_9_RD_20_1.png","C_Dist_200_LN_3_LD_6_RN_14_RD_20_1.png","C_Dist_200_LN_5_LD_10_RN_14_RD_20_1.png","C_Dist_200_LN_6_LD_12_RN_7_RD_10_1.png","C_Dist_200_LN_6_LD_20_RN_11_RD_22_1.png","C_Dist_200_LN_7_LD_15_RN_18_RD_27_1.png","C_Dist_200_LN_9_LD_30_RN_13_RD_26_1.png"]],"dist200_I":[["I_Dist_200_LN_1_LD_2_RN_3_RD_10_0.png","I_Dist_200_LN_1_LD_3_RN_2_RD_15_0.png","I_Dist_200_LN_3_LD_4_RN_11_RD_20_0.png","I_Dist_200_LN_4_LD_5_RN_6_RD_10_0.png","I_Dist_200_LN_4_LD_6_RN_14_RD_30_0.png","I_Dist_200_LN_7_LD_10_RN_12_RD_24_0.png","I_Dist_200_LN_7_LD_10_RN_14_RD_28_0.png","I_Dist_200_LN_7_LD_10_RN_8_RD_16_0.png"],["I_Dist_200_LN_11_LD_20_RN_3_RD_4_1.png","I_Dist_200_LN_14_LD_30_RN_12_RD_18_1.png","I_Dist_200_LN_14_LD_30_RN_6_RD_9_1.png","I_Dist_200_LN_3_LD_10_RN_1_RD_2_1.png","I_Dist_200_LN_4_LD_30_RN_1_RD_3_1.png","I_Dist_200_LN_6_LD_20_RN_3_RD_6_1.png","I_Dist_200_LN_7_LD_15_RN_4_RD_6_1.png","I_Dist_200_LN_7_LD_15_RN_6_RD_9_1.png","I_Dist_200_LN_9_LD_15_RN_8_RD_10_1.png"]],"dist200_S":[["E_Dist_200_LN_3_LD_6_RN_3_RD_10_0.png"],["E_Dist_200_LN_3_LD_10_RN_3_RD_6_1.png"]],"dist300_C":[["C_Dist_300_LN_11_LD_22_RN_1_RD_5_0.png","C_Dist_300_LN_11_LD_22_RN_2_RD_10_0.png","C_Dist_300_LN_11_LD_22_RN_4_RD_20_0.png","C_Dist_300_LN_12_LD_24_RN_2_RD_10_0.png","C_Dist_300_LN_18_LD_20_RN_9_RD_15_0.png","C_Dist_300_LN_20_LD_25_RN_13_RD_26_0.png","C_Dist_300_LN_20_LD_25_RN_14_RD_28_0.png","C_Dist_300_LN_20_LD_25_RN_5_RD_10_0.png","C_Dist_300_LN_20_LD_25_RN_8_RD_16_0.png","C_Dist_300_LN_20_LD_25_RN_9_RD_18_0.png","C_Dist_300_LN_24_LD_30_RN_2_RD_4_0.png","C_Dist_300_LN_24_LD_30_RN_8_RD_16_0.png","C_Dist_300_LN_3_LD_6_RN_2_RD_10_0.png","C_Dist_300_LN_4_LD_10_RN_1_RD_10_0.png","C_Dist_300_LN_4_LD_5_RN_2_RD_4_0.png","C_Dist_300_LN_8_LD_16_RN_1_RD_5_0.png","C_Dist_300_LN_9_LD_10_RN_3_RD_5_0.png"],["C_Dist_300_LN_1_LD_20_RN_7_RD_20_1.png","C_Dist_300_LN_1_LD_3_RN_19_RD_30_1.png","C_Dist_300_LN_1_LD_30_RN_8_RD_24_1.png","C_Dist_300_LN_1_LD_5_RN_11_RD_22_1.png","C_Dist_300_LN_1_LD_5_RN_3_RD_6_1.png","C_Dist_300_LN_1_LD_5_RN_6_RD_12_1.png","C_Dist_300_LN_2_LD_10_RN_12_RD_24_1.png","C_Dist_300_LN_2_LD_20_RN_10_RD_25_1.png","C_Dist_300_LN_3_LD_12_RN_11_RD_20_1.png","C_Dist_300_LN_3_LD_6_RN_4_RD_5_1.png","C_Dist_300_LN_4_LD_20_RN_13_RD_26_1.png","C_Dist_300_LN_5_LD_25_RN_6_RD_12_1.png","C_Dist_300_LN_5_LD_25_RN_7_RD_14_1.png","C_Dist_300_LN_7_LD_14_RN_20_RD_25_1.png","C_Dist_300_LN_8_LD_15_RN_10_RD_12_1.png"]],"dist300_I":[["I_Dist_300_LN_1_LD_2_RN_2_RD_10_0.png","I_Dist_300_LN_1_LD_2_RN_3_RD_15_0.png","I_Dist_300_LN_2_LD_4_RN_6_RD_30_0.png","I_Dist_300_LN_3_LD_6_RN_4_RD_20_0.png","I_Dist_300_LN_4_LD_5_RN_6_RD_12_0.png","I_Dist_300_LN_4_LD_5_RN_8_RD_16_0.png","I_Dist_300_LN_7_LD_10_RN_8_RD_20_0.png","I_Dist_300_LN_8_LD_10_RN_14_RD_28_0.png","I_Dist_300_LN_8_LD_10_RN_9_RD_18_0.png"],["I_Dist_300_LN_13_LD_26_RN_12_RD_15_1.png","I_Dist_300_LN_4_LD_20_RN_2_RD_4_1.png"]],"dist300_S":[["E_Dist_300_LN_9_LD_12_RN_9_RD_20_0.png"],["E_Dist_300_LN_18_LD_30_RN_18_RD_20_1.png","E_Dist_300_LN_3_LD_10_RN_3_RD_5_1.png","E_Dist_300_LN_9_LD_20_RN_9_RD_12_1.png"]],"dist500_C":[["C_Dist_500_LN_10_LD_13_RN_7_RD_26_0.png","C_Dist_500_LN_10_LD_15_RN_4_RD_24_0.png","C_Dist_500_LN_12_LD_16_RN_3_RD_12_0.png","C_Dist_500_LN_12_LD_18_RN_4_RD_24_0.png","C_Dist_500_LN_15_LD_18_RN_5_RD_15_0.png","C_Dist_500_LN_15_LD_20_RN_1_RD_4_0.png","C_Dist_500_LN_18_LD_27_RN_1_RD_6_0.png","C_Dist_500_LN_20_LD_24_RN_1_RD_3_0.png","C_Dist_500_LN_20_LD_24_RN_3_RD_9_0.png","C_Dist_500_LN_20_LD_24_RN_7_RD_21_0.png","C_Dist_500_LN_20_LD_28_RN_3_RD_14_0.png","C_Dist_500_LN_21_LD_28_RN_6_RD_24_0.png","C_Dist_500_LN_22_LD_28_RN_2_RD_7_0.png","C_Dist_500_LN_25_LD_30_RN_9_RD_27_0.png","C_Dist_500_LN_4_LD_6_RN_1_RD_6_0.png","C_Dist_500_LN_5_LD_6_RN_2_RD_6_0.png","C_Dist_500_LN_6_LD_9_RN_1_RD_6_0.png","C_Dist_500_LN_7_LD_10_RN_1_RD_5_0.png","C_Dist_500_LN_8_LD_12_RN_1_RD_6_0.png","C_Dist_500_LN_8_LD_12_RN_4_RD_24_0.png"],["C_Dist_500_LN_1_LD_4_RN_12_RD_16_1.png","C_Dist_500_LN_1_LD_4_RN_9_RD_12_1.png","C_Dist_500_LN_1_LD_9_RN_11_RD_18_1.png","C_Dist_500_LN_10_LD_24_RN_22_RD_24_1.png","C_Dist_500_LN_2_LD_12_RN_10_RD_15_1.png","C_Dist_500_LN_2_LD_12_RN_12_RD_18_1.png","C_Dist_500_LN_2_LD_12_RN_4_RD_6_1.png","C_Dist_500_LN_2_LD_24_RN_7_RD_12_1.png","C_Dist_500_LN_2_LD_5_RN_18_RD_20_1.png","C_Dist_500_LN_2_LD_5_RN_9_RD_10_1.png","C_Dist_500_LN_2_LD_8_RN_12_RD_16_1.png","C_Dist_500_LN_2_LD_8_RN_21_RD_28_1.png","C_Dist_500_LN_3_LD_10_RN_4_RD_5_1.png","C_Dist_500_LN_3_LD_12_RN_15_RD_20_1.png","C_Dist_500_LN_3_LD_30_RN_6_RD_10_1.png","C_Dist_500_LN_3_LD_8_RN_14_RD_16_1.png","C_Dist_500_LN_4_LD_16_RN_15_RD_20_1.png","C_Dist_500_LN_4_LD_24_RN_12_RD_18_1.png","C_Dist_500_LN_5_LD_14_RN_6_RD_7_1.png","C_Dist_500_LN_7_LD_21_RN_20_RD_24_1.png","C_Dist_500_LN_7_LD_28_RN_12_RD_16_1.png","C_Dist_500_LN_7_LD_28_RN_9_RD_12_1.png","C_Dist_500_LN_9_LD_27_RN_20_RD_24_1.png"]],"dist500_I":[["I_Dist_500_LN_2_LD_3_RN_4_RD_24_0.png","I_Dist_500_LN_5_LD_6_RN_6_RD_18_0.png","I_Dist_500_LN_7_LD_8_RN_9_RD_24_0.png"],["I_Dist_500_LN_7_LD_21_RN_5_RD_6_1.png"]],"dist500_S":[["E_Dist_500_LN_6_LD_8_RN_6_RD_24_0.png"],["E_Dist_500_LN_2_LD_12_RN_2_RD_3_1.png","E_Dist_500_LN_6_LD_24_RN_6_RD_8_1.png"]]}},{"start_time":1551800565202,"click_time":1551800568340,"finger_time":1551800567619,"fix_duration":1381.1633972348714,"trial":1,"RT":2417,"MT":721,"sideResp":2,"stimulus":[],"xmouse":[788,788,788,788,788,788,788,788,788,788,788,788,788,788,788,788,788,788,788,788,788,788,788,788,788,788,788,788,788,788,788,788,788,788,788,788,788,788,788,788,788,788,788,788,788,788,788,788,788,788,788,788,788,788,788,788,788,788,788,788,788,788,788,788,788,788,788,788,788,788,788,788,788,788,788,788,788,788,788,788,788,788,788,788,788,788,788,788,788,788,788,788,788,788,788,788,788,788,788,788,788,788,788,788,788,788,788,788,788,788,788,788,788,788,788,788,788,787,776,742,718,708,706,706,706,706,706,706,706,707,714,752,790,867,895,951,980,983,993,1000,1003,1006,1007,1007,1009,1009,1012,1015,1017,1019,1024,1028,1033,1038,1045,1050,1062],"ymouse":[525,525,525,525,525,525,525,525,525,525,525,525,525,525,525,525,525,525,525,525,525,525,525,525,525,525,525,525,525,525,525,525,525,525,525,525,525,525,525,525,525,525,525,525,525,525,525,525,525,525,525,525,525,525,525,525,525,525,525,525,525,525,525,525,525,525,525,525,525,525,525,525,525,525,525,525,525,525,525,525,525,525,525,525,525,525,525,525,525,525,525,525,525,525,525,525,525,525,525,525,525,525,525,525,525,525,525,525,525,525,525,525,525,525,525,525,525,523,520,517,517,517,515,515,515,514,514,514,514,510,503,478,454,409,389,337,258,228,205,185,168,144,136,131,126,125,123,123,123,121,118,116,113,109,103,98,88],"timestamp_mouse":[33,38,59,78,98,117,138,159,179,198,219,238,259,279,298,317,339,359,379,398,418,438,459,478,497,517,537,557,577,599,618,637,659,678,697,719,737,758,779,797,817,838,859,878,897,917,937,957,978,997,1017,1039,1057,1079,1098,1118,1138,1157,1177,1199,1219,1239,1258,1278,1297,1317,1339,1357,1377,1397,1417,1439,1457,1479,1497,1518,1537,1557,1577,1597,1618,1637,1657,1678,1698,1719,1739,1757,1777,1797,1817,1838,1859,1878,1898,1918,1937,1957,1979,1999,2017,2038,2058,2078,2098,2117,2137,2157,2177,2197,2217,2237,2257,2277,2297,2318,2337,2357,2379,2398,2417,2437,2458,2479,2498,2518,2539,2558,2577,2597,2618,2637,2657,2678,2697,2717,2737,2759,2778,2798,2818,2837,2858,2878,2899,2917,2938,2958,2978,2999,3019,3038,3058,3077,3097,3117,3138],"xSR":741.5,"ySR":469.95,"xT1":424.9,"yT1":0,"xT2":1058.1,"yT2":0,"toosoon":0,"cond_shown":"Incongruent","ratio_trial":100,"L_num":2,"L_den":4,"R_num":8,"R_den":20,"correct_side":1,"subjID":"cristianandresmancerabaez19","gender":"0","school":"6","age":"12"},{"start_time":1551800569802,"click_time":1551800571701,"finger_time":1551800571339,"fix_duration":341.29899456623616,"trial":2,"RT":1537,"MT":362,"sideResp":1,"stimulus":[],"xmouse":[774,774,774,774,774,774,774,774,776,777,777,777,777,777,777,777,777,777,777,777,777,779,780,782,783,784,784,784,784,784,784,784,784,784,784,784,784,784,784,784,784,784,784,784,784,784,784,784,784,784,784,784,784,784,784,784,784,784,784,784,784,784,784,784,784,784,784,784,784,784,784,783,781,778,772,762,711,682,649,616,587,555,547,547,547,547,547,547,547,547,547,547,547,547,500],"ymouse":[510,510,510,511,511,511,511,516,526,536,541,542,542,542,542,542,542,542,542,542,538,533,525,522,518,516,516,516,516,516,516,516,516,516,516,516,516,516,516,516,516,516,516,516,516,516,516,516,516,516,516,516,515,514,513,513,513,513,512,512,512,512,512,512,512,512,512,512,512,512,511,510,509,506,499,484,398,331,256,177,105,23,2,2,2,2,2,2,2,2,2,2,2,2,5],"timestamp_mouse":[18,37,58,77,98,117,137,158,177,198,217,237,259,279,297,318,338,358,378,398,418,438,458,478,498,518,539,559,578,599,619,639,658,678,698,718,738,759,778,798,818,838,858,878,898,918,939,959,977,997,1017,1038,1057,1078,1097,1117,1137,1157,1179,1198,1217,1239,1258,1278,1298,1318,1337,1358,1379,1398,1417,1438,1457,1477,1497,1518,1537,1557,1578,1597,1619,1637,1657,1677,1698,1717,1737,1757,1778,1798,1818,1838,1858,1878,1899],"xSR":741.5,"ySR":469.95,"xT1":424.9,"yT1":0,"xT2":1058.1,"yT2":0,"toosoon":0,"cond_shown":"Incongruent","ratio_trial":100,"L_num":3,"L_den":5,"R_num":11,"R_den":22,"correct_side":1,"subjID":"cristianandresmancerabaez19","gender":"0","school":"6","age":"12"},{"start_time":1551800572991,"click_time":1551800574740,"finger_time":1551800574440,"fix_duration":250,"trial":3,"RT":1449,"MT":300,"sideResp":2,"stimulus":[],"xmouse":[791,791,791,791,791,791,791,791,791,791,791,792,794,795,796,797,798,800,801,802,802,802,802,802,802,802,802,802,802,802,802,802,802,802,802,802,802,802,802,802,802,802,802,802,802,802,802,802,802,802,802,802,802,802,802,802,802,802,802,802,802,802,802,802,802,802,802,802,802,804,808,831,940,1007,1067,1114,1142,1159,1165,1165,1165,1165,1165,1163,1162,1160,1160,1158],"ymouse":[557,557,557,557,557,557,557,557,557,557,556,554,551,551,549,548,547,544,543,542,541,541,540,540,540,540,540,539,539,539,539,539,539,539,539,539,539,539,539,539,539,539,539,539,539,539,539,539,539,539,539,539,539,539,539,539,539,539,539,539,539,539,539,539,539,539,539,539,539,536,530,500,379,308,247,172,124,94,70,65,60,53,46,34,32,31,31,31],"timestamp_mouse":[13,29,49,70,89,108,129,148,168,189,209,229,248,268,288,308,328,348,369,389,408,428,448,468,488,508,528,548,568,588,608,629,648,669,690,710,730,749,770,790,809,829,849,870,889,909,928,948,969,989,1009,1029,1049,1069,1088,1108,1128,1149,1168,1188,1208,1228,1250,1269,1288,1308,1330,1349,1368,1390,1408,1429,1449,1469,1488,1509,1530,1549,1570,1590,1609,1629,1648,1670,1688,1709,1728,1749],"xSR":741.5,"ySR":469.95,"xT1":424.9,"yT1":0,"xT2":1058.1,"yT2":0,"toosoon":0,"cond_shown":"Incongruent","ratio_trial":200,"L_num":4,"L_den":30,"R_num":1,"R_den":3,"correct_side":2,"subjID":"cristianandresmancerabaez19","gender":"0","school":"6","age":"12"},{"start_time":1551800576110,"click_time":1551800578800,"finger_time":1551800577741,"fix_duration":250,"trial":4,"RT":1631,"MT":1059,"sideResp":1,"stimulus":[],"xmouse":[754,754,754,754,754,754,754,754,754,754,754,754,754,754,754,754,754,754,754,754,754,754,754,754,754,754,754,754,754,754,754,754,754,754,754,754,754,754,754,754,754,754,754,754,754,754,754,754,754,754,754,754,754,754,754,754,754,754,754,754,754,754,754,754,754,755,755,755,755,755,755,755,755,755,755,755,755,750,746,745,743,739,732,732,731,731,731,731,731,731,731,731,731,730,729,728,728,728,727,727,727,727,727,727,727,727,727,727,727,727,727,727,738,752,773,776,776,776,776,776,776,776,776,776,776,777,777,764,751,735,713,697,628,562,487],"ymouse":[509,509,509,509,509,509,509,509,509,509,509,509,509,509,509,509,509,509,509,509,509,509,509,509,509,509,509,509,509,509,509,509,509,509,509,509,509,509,509,509,509,509,509,509,509,509,509,509,509,509,509,509,509,509,509,509,509,509,509,509,509,509,509,509,509,509,509,509,509,509,509,509,509,509,509,509,508,508,508,507,506,504,501,501,501,501,501,501,501,501,501,501,501,500,500,498,498,498,497,497,497,497,497,497,497,497,497,497,497,497,497,496,494,492,485,483,483,483,483,483,483,483,483,483,483,482,481,467,452,429,390,359,252,93,1],"timestamp_mouse":[10,30,50,70,90,110,130,150,169,190,209,231,251,270,289,309,329,349,369,389,410,429,449,470,489,511,531,550,571,590,610,629,651,671,691,709,731,750,769,789,811,831,849,869,891,910,930,949,969,989,1010,1030,1050,1069,1091,1109,1130,1149,1169,1191,1211,1230,1249,1269,1290,1310,1330,1349,1369,1389,1409,1429,1449,1469,1489,1510,1530,1549,1570,1589,1609,1631,1651,1669,1691,1711,1730,1750,1770,1790,1810,1830,1850,1871,1890,1910,1931,1951,1971,1990,2011,2031,2050,2071,2090,2110,2130,2150,2171,2190,2211,2231,2250,2270,2290,2310,2329,2351,2371,2390,2410,2433,2451,2470,2490,2510,2530,2550,2569,2590,2610,2630,2650,2670,2690],"xSR":741.5,"ySR":469.95,"xT1":424.9,"yT1":0,"xT2":1058.1,"yT2":0,"toosoon":0,"cond_shown":"Incongruent","ratio_trial":300,"L_num":1,"L_den":2,"R_num":3,"R_den":15,"correct_side":1,"subjID":"cristianandresmancerabaez19","gender":"0","school":"6","age":"12"},{"start_time":1551800580150,"click_time":1551800584400,"finger_time":1551800581960,"fix_duration":328.62089156636665,"trial":5,"RT":1810,"MT":2440,"sideResp":2,"stimulus":[],"xmouse":[797,797,797,797,797,797,797,797,797,797,797,797,797,797,797,797,797,797,797,797,797,797,797,797,797,797,797,797,797,797,797,797,797,797,797,797,797,797,797,797,797,797,797,797,797,797,797,797,797,797,797,797,797,797,797,797,797,797,797,797,797,797,797,797,797,797,797,797,797,797,797,797,797,797,797,797,797,797,797,797,797,797,797,797,797,797,797,797,790,784,751,727,712,702,694,689,687,687,685,680,675,656,645,634,625,610,603,598,594,591,587,584,580,574,569,551,544,536,530,524,514,513,513,513,513,520,528,535,542,548,550,550,550,550,550,550,550,550,550,551,551,551,550,550,550,550,550,550,550,549,549,547,546,544,540,535,534,533,533,533,532,532,532,532,532,532,532,532,534,536,542,579,609,653,706,739,780,788,793,798,809,843,866,890,908,921,923,930,944,964,1003,1011,1014,1015,1015,1016,1023,1030,1036,1043,1062,1071,1076,1080,1083,1087,1090,1091,1092,1093,1093,1094,1095],"ymouse":[500,500,500,500,500,500,500,500,500,500,500,500,500,500,500,500,500,500,500,500,500,500,500,500,500,500,500,500,500,500,500,500,500,500,500,500,500,500,500,500,500,500,500,500,500,500,500,500,500,500,500,500,500,500,500,500,500,500,500,500,500,500,500,500,500,500,500,500,500,500,500,500,500,500,500,500,500,500,500,500,500,500,500,500,500,500,500,500,494,487,456,427,409,394,382,366,362,360,358,356,354,345,340,336,331,321,316,310,305,299,286,271,253,239,227,198,185,174,165,158,151,150,150,150,150,150,150,150,150,150,150,150,150,150,150,150,150,150,150,150,150,137,135,135,134,130,127,125,124,122,121,119,117,114,111,105,104,102,102,102,101,101,101,101,101,101,101,101,101,101,104,128,139,152,163,168,173,173,173,173,173,173,173,173,173,173,173,172,169,166,161,159,158,157,157,156,152,148,144,139,128,123,120,117,114,110,107,105,104,104,102,100,98],"timestamp_mouse":[10,30,50,70,89,111,129,151,169,189,211,231,250,270,290,310,330,350,370,389,409,429,449,469,489,509,529,549,569,589,609,629,651,670,689,709,730,749,770,791,810,829,851,870,890,910,930,949,969,989,1009,1030,1050,1070,1091,1110,1131,1149,1169,1191,1209,1229,1249,1270,1289,1310,1330,1349,1370,1390,1411,1431,1451,1471,1491,1510,1530,1549,1571,1591,1609,1631,1650,1669,1689,1709,1730,1751,1769,1789,1810,1829,1849,1869,1890,1909,1929,1949,1969,1989,2009,2030,2050,2070,2090,2110,2129,2149,2171,2190,2210,2230,2249,2270,2289,2310,2329,2350,2370,2389,2410,2429,2449,2470,2490,2510,2530,2549,2569,2590,2610,2630,2650,2669,2690,2711,2730,2749,2769,2791,2810,2830,2850,2870,2890,2910,2929,2949,2970,2990,3010,3030,3049,3069,3090,3111,3130,3150,3170,3190,3210,3231,3251,3270,3291,3311,3329,3350,3370,3389,3409,3429,3449,3471,3490,3509,3529,3551,3571,3590,3610,3630,3650,3670,3690,3711,3729,3750,3771,3790,3811,3829,3850,3871,3889,3909,3929,3951,3971,3991,4011,4030,4050,4070,4091,4111,4130,4149,4170,4189,4209,4229,4250],"xSR":741.5,"ySR":469.95,"xT1":424.9,"yT1":0,"xT2":1058.1,"yT2":0,"toosoon":0,"cond_shown":"Congruent","ratio_trial":100,"L_num":7,"L_den":14,"R_num":9,"R_den":15,"correct_side":2,"subjID":"cristianandresmancerabaez19","gender":"0","school":"6","age":"12"},{"start_time":1551800585672,"click_time":1551800589241,"finger_time":1551800587120,"fix_duration":250,"trial":6,"RT":1448,"MT":2121,"sideResp":1,"stimulus":[],"xmouse":[821,821,821,821,821,821,818,816,816,816,816,816,816,816,816,816,816,816,816,816,816,816,816,816,816,816,816,816,816,816,816,816,816,816,816,816,816,816,816,816,816,816,816,816,816,816,816,816,816,816,816,816,816,816,816,816,816,816,816,816,816,816,816,816,816,816,816,816,815,818,831,841,850,869,888,923,933,935,935,935,935,935,935,935,935,936,938,938,939,939,938,938,938,938,941,953,959,967,974,982,996,998,1001,1002,1002,1002,1002,1002,1002,1002,1002,1002,1002,1002,1003,1004,1005,1005,1005,1005,1005,1005,1005,1005,1005,1005,1005,1005,1005,1003,981,948,928,915,902,890,888,885,879,867,816,806,779,763,747,717,699,679,659,643,625,622,620,618,613,602,595,590,584,576,565,562,560,558,553,533,530,529,529,529,529,529,529,529,528,527,526,525,523],"ymouse":[527,527,527,527,527,528,529,530,530,530,530,530,530,530,530,530,530,530,530,530,530,530,530,530,530,530,530,530,530,530,530,530,530,530,530,530,530,530,530,530,530,530,530,530,530,530,530,530,530,530,530,530,530,530,530,530,530,530,530,530,530,530,530,530,530,530,530,530,526,520,492,479,467,445,429,408,401,399,398,397,396,396,396,395,394,390,386,384,380,378,364,357,353,347,337,309,293,276,252,225,172,155,135,128,125,121,119,119,118,117,117,117,117,117,116,116,116,116,116,116,116,116,116,116,116,116,116,116,116,116,119,123,128,130,131,133,133,134,134,134,134,134,134,134,134,134,134,134,134,134,134,134,134,133,131,125,119,112,105,100,97,96,96,96,95,95,95,95,95,95,95,95,95,95,95,95,95,94,91],"timestamp_mouse":[8,39,48,69,88,109,128,148,167,188,208,227,248,268,288,308,329,348,367,389,409,429,448,467,487,508,528,548,568,588,609,627,649,668,689,708,728,749,768,788,809,827,847,868,889,908,929,948,967,989,1008,1028,1048,1068,1088,1109,1128,1147,1168,1188,1207,1228,1248,1267,1288,1308,1328,1347,1368,1389,1407,1427,1448,1469,1488,1508,1528,1547,1568,1588,1608,1629,1648,1668,1687,1707,1727,1747,1767,1787,1807,1827,1848,1868,1887,1907,1927,1947,1968,1988,2007,2028,2048,2068,2087,2108,2129,2148,2167,2188,2208,2228,2249,2268,2288,2308,2328,2349,2368,2387,2408,2428,2448,2468,2487,2508,2529,2547,2567,2588,2608,2627,2647,2668,2688,2707,2727,2748,2767,2788,2809,2828,2848,2868,2888,2908,2927,2947,2968,2988,3007,3028,3048,3068,3088,3109,3128,3148,3168,3188,3208,3228,3248,3268,3289,3309,3327,3347,3368,3389,3409,3429,3448,3468,3487,3508,3528,3548,3569],"xSR":741.5,"ySR":469.95,"xT1":424.9,"yT1":0,"xT2":1058.1,"yT2":0,"toosoon":0,"cond_shown":"Congruent","ratio_trial":100,"L_num":7,"L_den":14,"R_num":15,"R_den":25,"correct_side":2,"subjID":"cristianandresmancerabaez19","gender":"0","school":"6","age":"12"},{"start_time":1551800592995,"click_time":1551800595181,"finger_time":1551800594661,"fix_duration":914.8803184759846,"trial":7,"RT":1666,"MT":520,"sideResp":2,"stimulus":[],"xmouse":[805,805,805,805,805,805,805,805,805,805,805,805,805,805,805,805,805,805,805,805,805,805,805,805,804,803,801,800,800,799,798,798,797,797,797,797,797,797,797,797,797,797,797,797,797,797,797,797,797,797,797,797,797,797,797,797,797,797,797,797,797,797,797,797,797,797,797,797,797,797,797,797,797,797,797,797,797,797,797,797,796,816,835,858,891,977,1008,1017,1022,1024,1024,1024,1022,1021,1019,1018,1018,1018,1018,1018,1018,1019,1022,1026,1030,1043,1047,1049,1053,1059],"ymouse":[512,515,515,518,518,518,518,518,518,518,518,518,518,518,518,518,518,518,518,518,518,518,518,518,518,518,518,518,519,519,519,519,519,519,519,519,519,519,519,519,519,519,519,519,519,519,519,519,519,519,519,519,519,519,519,519,519,519,519,519,519,519,519,519,519,519,519,519,519,519,519,519,519,519,519,519,519,519,519,519,518,502,487,470,437,298,230,149,119,104,86,80,77,72,68,66,66,66,66,66,66,66,66,67,68,68,68,68,68,68],"timestamp_mouse":[13,37,45,65,85,105,124,144,164,184,205,224,244,264,285,305,324,345,364,384,404,425,444,465,485,505,526,546,566,585,605,624,644,666,685,705,724,744,764,785,806,826,844,865,885,904,924,944,965,985,1005,1024,1044,1065,1085,1106,1126,1145,1165,1185,1204,1224,1245,1264,1285,1304,1324,1344,1365,1386,1406,1426,1444,1465,1485,1505,1524,1545,1565,1586,1604,1625,1645,1666,1686,1704,1724,1744,1765,1785,1804,1824,1844,1865,1884,1904,1925,1946,1965,1984,2004,2025,2044,2064,2085,2105,2124,2145,2165,2185],"xSR":741.5,"ySR":469.95,"xT1":424.9,"yT1":0,"xT2":1058.1,"yT2":0,"toosoon":0,"cond_shown":"Congruent","ratio_trial":300,"L_num":1,"L_den":5,"R_num":3,"R_den":6,"correct_side":2,"subjID":"cristianandresmancerabaez19","gender":"0","school":"6","age":"12"},{"start_time":1551800599469,"click_time":1551800601941,"finger_time":1551800601020,"fix_duration":1269.2712001482257,"trial":8,"RT":1551,"MT":921,"sideResp":1,"stimulus":[],"xmouse":[813,813,813,813,813,813,813,813,813,813,813,813,813,813,813,813,813,813,813,813,813,813,813,813,813,813,813,813,813,813,813,813,813,813,813,813,813,813,813,813,813,813,813,813,813,813,813,813,813,813,813,813,813,813,813,813,813,813,813,813,813,813,813,813,813,813,813,813,813,813,813,813,809,796,770,758,751,740,737,736,736,736,736,736,736,735,735,734,734,728,720,703,680,669,655,641,622,609,602,593,589,583,582,581,579,574,561,557,555,551,550,546,540,540,540,540,540,536,532,531,531,531,528,512],"ymouse":[506,506,506,506,506,506,506,506,506,506,506,506,504,504,503,503,503,503,503,503,503,503,503,503,503,503,503,503,503,503,503,503,503,503,503,503,503,503,503,503,503,503,503,503,503,503,503,503,503,503,503,503,503,503,503,503,503,503,503,503,503,503,503,503,503,503,503,503,503,503,503,503,503,503,504,505,506,508,509,509,509,509,509,509,509,507,507,496,481,457,417,349,295,266,220,168,103,79,69,61,56,53,53,53,53,53,56,59,60,64,65,68,72,72,72,72,72,73,74,74,75,75,75,76],"timestamp_mouse":[11,30,50,70,91,112,130,151,172,190,211,232,251,270,290,311,331,350,370,390,411,430,451,470,490,511,531,552,571,591,610,630,651,670,692,711,731,751,771,791,811,830,852,871,891,912,932,952,970,991,1011,1032,1050,1070,1091,1110,1131,1151,1171,1191,1211,1231,1251,1271,1291,1310,1331,1351,1371,1392,1412,1431,1451,1471,1491,1511,1531,1551,1570,1591,1612,1632,1651,1671,1691,1712,1731,1752,1771,1792,1811,1831,1851,1870,1891,1911,1930,1952,1971,1990,2010,2030,2050,2072,2090,2111,2132,2150,2171,2191,2212,2231,2251,2271,2290,2310,2331,2350,2371,2390,2410,2432,2450,2472],"xSR":741.5,"ySR":469.95,"xT1":424.9,"yT1":0,"xT2":1058.1,"yT2":0,"toosoon":0,"cond_shown":"Incongruent","ratio_trial":300,"L_num":8,"L_den":10,"R_num":9,"R_den":18,"correct_side":1,"subjID":"cristianandresmancerabaez19","gender":"0","school":"6","age":"12"},{"start_time":1551800603351,"click_time":1551800604859,"finger_time":1551800604299,"fix_duration":250,"trial":9,"RT":948,"MT":560,"sideResp":2,"stimulus":[],"xmouse":[778,778,778,778,778,778,778,778,778,778,778,778,778,778,778,778,778,778,778,778,778,778,778,778,778,778,778,778,778,778,778,778,778,778,778,778,778,778,778,778,778,778,778,780,785,793,802,812,830,835,847,858,870,891,899,904,911,918,933,937,942,945,952,970,982,994,1001,1005,1010,1014,1024,1034,1041,1054,1060,1067],"ymouse":[526,526,526,526,526,526,526,526,526,526,526,526,526,526,526,526,526,526,526,526,526,526,526,526,526,526,526,526,526,526,526,526,526,526,526,526,526,526,526,526,526,526,526,526,518,504,489,469,429,410,383,365,343,313,302,294,286,276,255,248,236,229,219,197,188,177,172,169,163,158,147,138,131,115,107,99],"timestamp_mouse":[10,28,48,69,88,109,129,149,168,188,208,229,248,270,289,308,330,350,369,388,410,428,450,468,489,510,529,548,568,588,609,628,649,668,690,710,729,749,768,788,809,828,849,868,888,908,929,948,968,989,1008,1029,1049,1068,1088,1108,1128,1150,1168,1189,1208,1228,1248,1269,1288,1308,1330,1349,1368,1389,1409,1429,1449,1469,1488,1508],"xSR":741.5,"ySR":469.95,"xT1":424.9,"yT1":0,"xT2":1058.1,"yT2":0,"toosoon":0,"cond_shown":"Incongruent","ratio_trial":200,"L_num":6,"L_den":20,"R_num":3,"R_den":6,"correct_side":2,"subjID":"cristianandresmancerabaez19","gender":"0","school":"6","age":"12"},{"start_time":1551800606632,"click_time":1551800608500,"finger_time":1551800608040,"fix_duration":532.2260022638378,"trial":10,"RT":1408,"MT":460,"sideResp":1,"stimulus":[],"xmouse":[775,775,775,775,775,775,775,775,775,775,775,775,775,775,775,775,775,775,775,775,775,775,775,775,775,775,775,775,775,775,775,775,775,775,775,775,775,775,775,775,775,775,775,775,775,775,775,775,775,775,775,775,775,775,775,775,775,775,775,775,775,775,775,775,775,775,775,773,771,764,764,764,762,759,748,734,726,726,723,708,703,697,694,690,682,679,676,674,669,609,569,543,525,510],"ymouse":[524,524,524,524,524,524,524,524,524,524,524,524,524,524,524,524,524,524,524,524,524,524,524,524,524,524,524,524,524,524,524,524,524,524,524,524,524,524,524,524,524,524,524,524,524,524,524,524,524,524,524,524,524,524,524,524,524,524,524,524,524,524,524,524,524,524,524,516,509,473,454,438,425,414,392,379,375,375,373,372,370,365,360,350,327,321,313,303,288,176,119,87,71,58],"timestamp_mouse":[11,28,47,67,89,108,129,148,167,187,207,229,248,268,288,308,328,348,368,389,407,427,447,468,488,507,528,549,567,589,608,627,647,668,688,708,728,749,769,788,808,828,847,869,889,908,929,948,967,989,1007,1028,1049,1067,1089,1109,1129,1148,1169,1187,1207,1227,1248,1268,1289,1307,1327,1349,1368,1388,1408,1428,1447,1467,1489,1507,1527,1547,1569,1588,1607,1628,1647,1667,1688,1707,1728,1747,1769,1788,1808,1828,1847,1868],"xSR":741.5,"ySR":469.95,"xT1":424.9,"yT1":0,"xT2":1058.1,"yT2":0,"toosoon":0,"cond_shown":"Congruent","ratio_trial":100,"L_num":11,"L_den":22,"R_num":4,"R_den":10,"correct_side":1,"subjID":"cristianandresmancerabaez19","gender":"0","school":"6","age":"12"},{"start_time":1551800610349,"click_time":1551800612540,"finger_time":1551800611940,"fix_duration":428.13690269233075,"trial":11,"RT":1591,"MT":600,"sideResp":2,"stimulus":[],"xmouse":[775,775,775,775,775,775,775,775,775,775,775,775,775,775,775,775,775,775,775,775,775,775,773,769,749,744,742,742,742,742,742,742,742,742,742,742,742,742,742,742,742,745,746,751,770,778,784,787,789,789,789,789,789,789,789,789,789,789,789,789,789,789,789,789,789,789,789,789,789,789,789,789,789,789,789,789,790,794,806,877,915,946,967,979,994,1000,1005,1011,1013,1018,1019,1020,1022,1023,1026,1027,1029,1033,1038,1047,1049,1051,1052,1053,1055,1057,1058,1058,1058,1060],"ymouse":[540,540,540,540,540,540,540,540,540,540,540,540,540,540,540,540,540,540,540,540,540,540,541,542,545,545,545,545,545,545,545,545,545,545,545,545,545,545,545,545,545,545,544,543,537,536,533,532,532,532,532,532,532,532,532,532,532,532,532,532,532,532,532,532,532,532,532,532,532,532,532,532,532,532,532,532,531,527,513,433,379,335,306,287,256,242,232,217,211,199,193,184,177,165,144,135,124,105,95,78,74,70,68,67,61,60,59,58,58,57],"timestamp_mouse":[11,40,50,70,91,111,131,150,171,192,211,231,250,270,291,311,331,350,370,390,410,430,450,472,491,510,531,551,570,590,612,632,650,671,691,711,732,751,772,792,811,831,851,871,891,911,932,952,972,992,1011,1032,1051,1073,1092,1111,1132,1151,1172,1192,1212,1232,1251,1271,1292,1311,1331,1352,1371,1391,1411,1432,1451,1471,1492,1512,1531,1552,1571,1591,1612,1631,1651,1671,1691,1711,1732,1751,1771,1791,1811,1831,1852,1872,1891,1911,1931,1952,1972,1992,2011,2032,2052,2071,2091,2111,2131,2152,2171,2191],"xSR":741.5,"ySR":469.95,"xT1":424.9,"yT1":0,"xT2":1058.1,"yT2":0,"toosoon":0,"cond_shown":"Congruent","ratio_trial":200,"L_num":12,"L_den":20,"R_num":6,"R_den":15,"correct_side":1,"subjID":"cristianandresmancerabaez19","gender":"0","school":"6","age":"12"},{"start_time":1551800615790,"click_time":1551800617701,"finger_time":1551800616260,"fix_duration":828.4691408276782,"trial":12,"RT":470,"MT":1441,"sideResp":1,"stimulus":[],"xmouse":[772,772,772,772,772,771,771,771,771,771,771,770,770,770,770,770,770,770,769,768,766,765,764,764,765,769,774,782,783,783,783,783,786,787,788,788,788,788,788,788,788,788,790,791,792,793,795,798,798,798,798,798,798,798,798,798,798,798,788,774,745,703,645,634,634,634,634,634,634,633,633,629,626,615,611,607,602,593,584,576,567,560,558,559,559,559,559,557,555,553,552,550,543,538,531,521],"ymouse":[512,514,516,517,517,518,518,520,520,522,523,524,527,528,529,529,529,530,531,535,540,545,561,581,595,612,627,646,647,647,647,647,642,638,634,631,628,626,624,622,619,615,605,599,591,582,571,553,546,541,537,534,527,522,519,514,512,508,498,488,478,460,398,383,383,382,382,382,382,381,381,379,377,367,361,356,346,321,299,279,257,242,227,218,216,214,212,208,206,202,197,191,157,125,78,18],"timestamp_mouse":[12,39,50,71,90,111,130,150,170,190,211,231,250,271,290,310,330,350,370,392,411,430,450,470,490,510,530,551,571,590,610,631,650,670,690,710,731,750,770,790,811,830,851,870,890,910,931,950,970,990,1011,1031,1051,1070,1090,1110,1130,1150,1170,1191,1210,1230,1250,1270,1290,1310,1331,1351,1371,1391,1410,1431,1450,1470,1490,1510,1530,1551,1570,1590,1611,1631,1650,1671,1691,1710,1730,1751,1770,1790,1810,1830,1851,1870,1890,1911],"xSR":741.5,"ySR":469.95,"xT1":424.9,"yT1":0,"xT2":1058.1,"yT2":0,"toosoon":0,"cond_shown":"Incongruent","ratio_trial":300,"L_num":2,"L_den":4,"R_num":6,"R_den":30,"correct_side":1,"subjID":"cristianandresmancerabaez19","gender":"0","school":"6","age":"12"},{"start_time":1551800619882,"click_time":1551800621062,"finger_time":1551800620660,"fix_duration":560.5683033855554,"trial":13,"RT":778,"MT":402,"sideResp":2,"stimulus":[],"xmouse":[782,782,782,782,782,782,782,782,782,782,782,782,782,782,782,782,782,782,782,782,782,782,782,783,785,792,802,804,804,804,804,804,804,804,804,806,812,824,869,893,911,931,951,989,1013,1042,1073,1087,1100,1101,1101,1101,1101,1093,1089,1087,1078,1076,1076],"ymouse":[537,537,537,537,537,537,537,537,537,537,537,537,537,537,537,537,537,537,537,537,537,537,537,537,537,536,535,534,534,534,534,534,534,534,534,533,529,520,492,476,466,455,442,419,404,388,368,348,293,273,256,238,222,193,179,156,123,110,99],"timestamp_mouse":[19,39,58,78,98,119,138,158,178,198,218,239,259,278,298,318,339,358,379,399,418,438,459,478,498,518,538,559,578,598,619,638,659,678,698,718,738,759,778,798,819,839,858,879,899,918,938,959,978,998,1018,1038,1058,1078,1099,1118,1138,1159,1179],"xSR":741.5,"ySR":469.95,"xT1":424.9,"yT1":0,"xT2":1058.1,"yT2":0,"toosoon":0,"cond_shown":"Congruent","ratio_trial":300,"L_num":3,"L_den":6,"R_num":4,"R_den":5,"correct_side":2,"subjID":"cristianandresmancerabaez19","gender":"0","school":"6","age":"12"},{"start_time":1551800622899,"click_time":1551800625221,"finger_time":1551800624840,"fix_duration":478.05181379714776,"trial":14,"RT":1941,"MT":381,"sideResp":1,"stimulus":[],"xmouse":[790,790,790,790,790,790,790,790,790,790,790,790,790,790,790,790,790,790,790,790,790,790,790,790,790,790,790,790,790,790,790,790,790,790,790,790,790,790,790,790,790,790,790,790,790,790,790,790,790,790,790,790,790,790,790,790,790,790,790,790,790,790,790,790,790,790,790,790,790,790,790,790,790,790,790,790,790,790,790,790,790,790,790,790,790,790,790,790,790,790,790,790,790,790,788,782,772,761,736,728,725,722,721,715,706,698,688,675,664,642,629,614,599,585,546,531,521],"ymouse":[535,535,535,535,535,535,535,535,535,535,535,535,535,535,535,535,535,535,535,535,535,535,535,535,535,535,535,535,535,535,535,535,535,535,535,535,535,535,535,535,535,535,535,535,535,535,535,535,535,535,535,535,535,535,535,535,535,535,535,535,535,535,535,535,535,535,535,535,535,535,535,535,535,535,535,535,535,535,535,535,535,535,535,535,535,535,535,535,535,535,535,535,535,535,523,504,471,427,359,333,321,309,301,280,261,253,242,232,223,204,193,183,171,153,109,91,80],"timestamp_mouse":[4,21,42,61,82,101,122,141,163,181,201,222,242,261,281,301,322,342,361,382,401,422,441,461,482,502,522,541,563,581,602,622,642,661,682,701,722,742,761,782,801,822,841,861,881,903,921,942,961,981,1001,1022,1041,1061,1081,1102,1121,1142,1161,1181,1202,1221,1241,1261,1282,1302,1323,1342,1361,1381,1402,1421,1442,1461,1482,1502,1521,1541,1561,1581,1601,1621,1641,1661,1682,1701,1721,1741,1762,1782,1801,1822,1841,1861,1882,1901,1922,1941,1961,1981,2001,2022,2041,2062,2081,2101,2122,2142,2162,2181,2201,2221,2241,2262,2282,2301,2322],"xSR":741.5,"ySR":469.95,"xT1":424.9,"yT1":0,"xT2":1058.1,"yT2":0,"toosoon":0,"cond_shown":"Incongruent","ratio_trial":300,"L_num":1,"L_den":2,"R_num":2,"R_den":10,"correct_side":1,"subjID":"cristianandresmancerabaez19","gender":"0","school":"6","age":"12"},{"start_time":1551800627720,"click_time":1551800639240,"finger_time":1551800638080,"fix_duration":1477.3317478440233,"trial":15,"RT":10360,"MT":1160,"sideResp":1,"stimulus":[],"xmouse":[803,803,803,803,803,803,803,803,803,803,803,803,803,803,803,803,803,803,803,803,803,803,803,803,803,803,803,803,803,803,803,803,803,803,803,803,803,803,803,803,803,803,803,803,803,803,803,803,803,803,803,803,803,803,803,803,803,803,803,803,803,803,803,803,803,802,802,802,796,796,796,796,796,796,796,796,796,796,796,796,796,796,796,796,796,796,796,796,796,796,796,796,796,796,796,796,796,796,796,796,796,796,796,796,796,796,796,796,796,796,796,796,796,796,796,796,796,796,796,796,796,796,796,796,796,796,796,796,796,796,796,796,796,796,796,796,796,796,796,796,796,796,796,796,796,796,796,796,796,796,796,796,796,796,796,796,796,796,796,796,796,796,796,796,796,796,796,796,796,796,796,796,796,796,796,796,796,796,796,796,796,796,796,796,796,796,796,796,796,796,796,796,796,796,796,796,796,796,796,796,796,796,796,796,796,796,796,796,796,796,796,796,796,796,796,796,796,796,796,796,796,796,796,796,796,796,796,796,796,796,796,796,796,796,796,796,796,796,796,796,796,796,796,796,796,796,796,796,796,796,796,796,796,796,796,796,796,796,796,796,796,796,796,796,796,796,796,796,796,796,796,796,796,796,796,796,796,796,796,796,796,796,796,796,796,796,796,796,796,796,796,796,796,796,796,796,796,796,796,796,796,796,796,796,796,796,796,796,796,796,796,796,796,796,796,796,796,796,796,796,796,796,796,796,796,796,796,796,796,796,796,796,796,796,796,796,796,796,796,796,796,796,796,796,796,796,796,796,796,796,796,796,796,796,796,796,796,796,796,796,796,796,796,796,796,796,796,796,796,796,796,796,796,796,796,796,796,796,796,796,796,796,796,796,796,796,796,796,796,796,796,796,796,796,796,796,796,796,796,796,796,796,796,796,796,796,796,796,796,796,796,796,796,796,796,796,796,796,796,796,796,796,796,796,796,796,796,796,796,796,796,796,796,796,796,796,796,796,796,796,796,796,796,796,796,796,796,796,796,796,796,796,796,796,796,796,796,796,796,796,796,796,796,796,796,796,796,796,796,796,796,796,796,796,796,796,796,796,796,796,796,796,796,796,796,796,796,796,796,796,796,796,796,796,796,796,796,796,796,796,796,796,796,796,796,796,794,793,793,792,790,790,790,790,790,790,790,790,790,790,790,787,786,782,776,770,765,748,733,687,659,624,572,512,336,262,233,223,223,223,223,222,226,239,294,321,336,344,346,346,346,348,352,356,363,371,372,377,384,413,434,451,461,463,463,464,465,468,469,469,469,470,472,474,480,483,488],"ymouse":[532,532,532,532,532,532,532,532,532,532,532,532,532,532,532,532,532,532,532,532,532,532,532,532,532,532,532,532,532,532,532,532,532,532,532,532,532,532,532,532,532,532,532,532,532,532,532,532,532,532,532,532,532,532,532,532,532,532,532,532,532,532,532,532,532,532,532,532,532,532,532,532,532,532,532,532,532,532,532,532,532,532,532,532,532,532,532,532,532,532,532,532,532,532,532,532,532,532,532,532,532,532,532,532,532,532,532,532,532,532,532,532,532,532,532,532,532,532,532,532,532,532,532,532,532,532,532,532,532,532,532,532,532,532,532,532,532,532,532,532,532,532,532,532,532,532,532,532,532,532,532,532,532,532,532,532,532,532,532,532,532,532,532,532,532,532,532,532,532,532,532,532,532,532,532,532,532,532,532,532,532,532,532,532,532,532,532,532,532,532,532,532,532,532,532,532,532,532,532,532,532,532,532,532,532,532,532,532,532,532,532,532,532,532,532,532,532,532,532,532,532,532,532,532,532,532,532,532,532,532,532,532,532,532,532,532,532,532,532,532,532,532,532,532,532,532,532,532,532,532,532,532,532,532,532,532,532,532,532,532,532,532,532,532,532,532,532,532,532,532,532,532,532,532,532,532,532,532,532,532,532,532,532,532,532,532,532,532,532,532,532,532,532,532,532,532,532,532,532,532,532,532,532,532,532,532,532,532,532,532,532,532,532,532,532,532,532,532,532,532,532,532,532,532,532,532,532,532,532,532,532,532,532,532,532,532,532,532,532,532,532,532,532,532,532,532,532,532,532,532,532,532,532,532,532,532,532,532,532,532,532,532,532,532,532,532,532,532,532,532,532,532,532,532,532,532,532,532,532,532,532,532,532,532,532,532,532,532,532,532,532,532,532,532,532,532,532,532,532,532,532,532,532,532,532,532,532,532,532,532,532,532,532,532,532,532,532,532,532,532,532,532,532,532,532,532,532,532,532,532,532,532,532,532,532,532,532,532,532,532,532,532,532,532,532,532,532,532,532,532,532,532,532,532,532,532,532,532,532,532,532,532,532,532,532,532,532,532,532,532,532,532,532,532,532,532,532,532,532,532,532,532,532,532,532,532,532,532,532,532,532,532,532,532,532,532,532,532,532,532,532,532,532,532,532,532,532,532,530,527,526,525,524,518,513,507,499,488,463,424,407,394,387,379,370,364,359,345,338,325,320,315,307,291,223,184,167,159,159,159,159,157,153,146,130,122,116,115,115,114,114,114,114,114,114,114,114,114,113,113,112,111,109,109,109,109,108,108,108,107,107,107,106,105,101,100,98],"timestamp_mouse":[8,20,41,60,80,101,122,140,160,181,200,220,240,260,280,300,320,340,360,380,400,421,440,460,480,501,520,541,561,580,601,620,641,660,680,701,721,740,760,782,801,820,841,860,880,900,921,940,961,980,1000,1021,1041,1060,1080,1100,1120,1140,1160,1180,1200,1220,1240,1261,1281,1301,1321,1340,1360,1381,1400,1421,1440,1460,1480,1500,1521,1540,1560,1581,1601,1621,1640,1661,1681,1700,1720,1740,1760,1780,1800,1824,1840,1861,1880,1900,1920,1940,1960,1981,2000,2020,2041,2061,2080,2100,2120,2141,2160,2180,2201,2220,2240,2260,2280,2300,2320,2340,2360,2380,2400,2421,2441,2460,2480,2500,2520,2540,2561,2580,2601,2621,2640,2661,2681,2700,2720,2741,2760,2781,2800,2820,2841,2861,2881,2900,2920,2940,2960,2980,3001,3020,3041,3061,3080,3101,3121,3140,3160,3180,3200,3220,3240,3260,3280,3301,3321,3341,3360,3380,3401,3420,3441,3460,3481,3501,3520,3541,3561,3580,3600,3621,3640,3660,3680,3700,3720,3741,3760,3781,3801,3820,3840,3860,3881,3900,3920,3941,3961,3980,4000,4021,4041,4060,4079,4101,4119,4139,4160,4180,4200,4221,4240,4260,4281,4300,4321,4340,4360,4380,4400,4419,4440,4460,4480,4500,4520,4540,4560,4581,4601,4621,4640,4660,4680,4700,4720,4741,4760,4780,4800,4820,4841,4860,4880,4900,4920,4940,4961,4980,5000,5019,5040,5060,5080,5100,5119,5140,5160,5180,5201,5220,5240,5260,5280,5301,5320,5340,5361,5380,5400,5421,5441,5461,5480,5499,5521,5540,5560,5580,5600,5620,5640,5660,5680,5700,5720,5740,5760,5780,5801,5821,5841,5861,5881,5901,5921,5940,5961,5980,6001,6020,6041,6060,6080,6100,6120,6140,6160,6180,6200,6221,6241,6261,6280,6300,6321,6340,6361,6380,6400,6420,6441,6460,6480,6499,6521,6541,6560,6580,6600,6621,6640,6660,6680,6701,6720,6740,6760,6780,6801,6821,6841,6861,6880,6900,6920,6940,6961,6981,7000,7021,7041,7060,7080,7100,7120,7141,7161,7180,7201,7221,7240,7260,7281,7301,7320,7341,7360,7380,7400,7420,7441,7460,7480,7501,7520,7540,7560,7580,7601,7621,7641,7661,7680,7702,7720,7741,7760,7780,7800,7820,7841,7860,7880,7900,7921,7941,7960,7980,8001,8020,8041,8060,8080,8101,8120,8141,8160,8181,8200,8220,8241,8260,8280,8301,8320,8340,8361,8380,8402,8421,8441,8460,8481,8501,8520,8541,8561,8581,8601,8621,8640,8660,8681,8701,8721,8740,8761,8780,8800,8820,8840,8861,8881,8900,8921,8941,8961,8981,9000,9020,9040,9061,9080,9100,9121,9141,9160,9180,9201,9220,9240,9260,9280,9300,9320,9340,9361,9380,9400,9420,9440,9460,9480,9501,9521,9541,9560,9579,9601,9620,9640,9661,9681,9700,9721,9740,9760,9780,9801,9820,9840,9860,9880,9900,9921,9940,9961,9980,10001,10020,10040,10060,10080,10100,10120,10141,10160,10181,10200,10220,10241,10261,10280,10300,10320,10341,10360,10380,10400,10420,10441,10461,10480,10501,10521,10540,10560,10580,10600,10620,10640,10661,10680,10700,10721,10740,10761,10781,10800,10820,10840,10860,10880,10900,10921,10941,10961,10980,11000,11020,11041,11060,11080,11100,11120,11140,11161,11181,11200,11220,11240,11262,11281,11300,11320,11341,11361,11380,11400,11421,11440,11461,11480,11501,11520],"xSR":741.5,"ySR":469.95,"xT1":424.9,"yT1":0,"xT2":1058.1,"yT2":0,"toosoon":0,"cond_shown":"Congruent","ratio_trial":200,"L_num":8,"L_den":15,"R_num":7,"R_den":21,"correct_side":1,"subjID":"cristianandresmancerabaez19","gender":"0","school":"6","age":"12"},{"start_time":1551800640752,"click_time":1551800642381,"finger_time":1551800641100,"fix_duration":250,"trial":16,"RT":348,"MT":1281,"sideResp":2,"stimulus":[],"xmouse":[796,797,799,801,801,801,801,801,801,801,802,803,803,803,803,803,803,804,805,805,805,805,805,805,805,805,805,805,805,805,805,805,805,805,805,805,805,805,806,806,806,807,809,810,811,812,813,815,815,816,817,817,817,819,824,831,846,877,893,916,929,936,940,940,940,942,942,943,950,964,980,1001,1026,1033,1037,1043,1051,1066,1069,1071,1071,1070],"ymouse":[561,561,561,562,562,562,562,562,562,562,564,564,564,564,564,565,566,570,572,572,572,572,573,573,573,573,575,579,582,584,585,585,585,585,585,585,581,576,564,560,554,551,544,541,538,534,532,528,520,516,514,512,507,504,498,492,485,463,445,413,399,391,366,357,354,352,350,341,332,317,300,284,254,234,221,207,191,157,134,118,106,97],"timestamp_mouse":[8,35,48,69,89,109,128,148,169,189,209,229,248,268,288,308,329,348,368,388,409,429,449,468,488,508,528,548,568,588,608,628,649,669,688,708,729,748,768,788,809,828,848,868,888,909,928,948,968,989,1009,1028,1049,1068,1088,1108,1128,1149,1168,1188,1209,1229,1248,1268,1288,1309,1328,1348,1368,1388,1408,1429,1448,1468,1488,1509,1528,1548,1568,1588,1609,1628],"xSR":741.5,"ySR":469.95,"xT1":424.9,"yT1":0,"xT2":1058.1,"yT2":0,"toosoon":0,"cond_shown":"Incongruent","ratio_trial":100,"L_num":12,"L_den":24,"R_num":9,"R_den":15,"correct_side":2,"subjID":"cristianandresmancerabaez19","gender":"0","school":"6","age":"12"},{"start_time":1551800645713,"click_time":1551800647861,"finger_time":1551800647180,"fix_duration":711.7490874275676,"trial":17,"RT":1467,"MT":681,"sideResp":2,"stimulus":[],"xmouse":[787,787,787,787,787,787,787,787,787,787,787,787,787,787,787,787,787,787,787,787,787,787,787,787,787,787,787,787,787,787,787,787,787,787,787,787,787,787,787,787,787,787,787,787,787,787,787,787,787,787,787,787,787,787,787,787,787,787,787,787,787,787,787,787,787,787,787,787,787,787,787,796,816,840,854,868,876,887,898,905,916,917,917,915,915,915,915,915,915,915,915,920,926,943,959,990,1004,1016,1027,1035,1043,1046,1048,1049,1051,1055,1058,1061],"ymouse":[537,537,537,537,537,537,537,537,537,537,537,537,537,537,537,537,537,537,537,537,537,537,537,537,537,537,537,537,537,537,537,537,537,537,537,537,537,537,537,537,537,537,537,537,537,537,537,537,537,537,537,537,537,537,537,537,537,537,537,537,537,537,537,537,537,537,537,537,537,537,537,517,477,425,392,359,347,337,325,312,281,253,230,203,191,180,175,170,164,158,153,141,134,123,117,107,103,101,98,97,94,92,92,90,88,82,79,75],"timestamp_mouse":[22,42,47,68,87,107,128,147,167,187,207,227,247,268,288,307,327,347,368,387,407,429,447,467,488,507,528,548,567,588,608,627,648,668,688,709,728,748,767,787,808,827,847,867,888,908,927,948,967,988,1007,1028,1048,1069,1087,1107,1127,1147,1167,1187,1208,1227,1248,1267,1288,1308,1327,1348,1367,1387,1407,1428,1447,1467,1487,1508,1528,1547,1568,1589,1607,1628,1647,1667,1688,1707,1727,1747,1767,1788,1807,1828,1847,1867,1888,1907,1927,1947,1967,1987,2008,2027,2047,2067,2088,2107,2127,2148],"xSR":741.5,"ySR":469.95,"xT1":424.9,"yT1":0,"xT2":1058.1,"yT2":0,"toosoon":0,"cond_shown":"Incongruent","ratio_trial":100,"L_num":12,"L_den":30,"R_num":2,"R_den":4,"correct_side":2,"subjID":"cristianandresmancerabaez19","gender":"0","school":"6","age":"12"},{"start_time":1551800649818,"click_time":1551800651960,"finger_time":1551800651300,"fix_duration":916.4803272006404,"trial":18,"RT":1482,"MT":660,"sideResp":2,"stimulus":[],"xmouse":[783,783,783,783,783,783,783,783,783,783,783,783,783,783,783,783,783,783,783,783,783,783,783,783,783,783,783,783,783,783,783,783,783,783,783,783,783,783,783,783,783,783,783,783,783,783,783,783,783,783,783,783,783,783,783,783,783,783,783,783,783,783,783,783,783,783,783,783,783,783,783,785,797,828,864,910,916,916,916,916,919,921,923,923,924,927,944,952,957,961,974,982,994,1008,1024,1043,1045,1047,1051,1054,1058,1062,1065,1067,1071,1077,1079,1080],"ymouse":[543,543,543,543,543,543,543,543,543,543,543,543,543,543,543,543,543,543,543,543,543,543,543,543,543,543,543,543,543,543,543,543,543,543,543,543,543,543,543,543,543,543,543,543,543,543,543,543,543,543,543,543,543,543,543,543,543,543,543,543,543,543,543,543,543,543,543,543,543,543,543,540,532,516,499,462,418,395,377,362,336,321,302,283,262,244,207,197,192,186,171,162,153,143,131,116,116,114,113,112,110,107,106,105,103,100,100,99],"timestamp_mouse":[9,33,42,63,82,102,122,143,162,182,202,222,242,262,282,302,322,342,362,382,402,422,442,462,483,503,522,542,562,582,603,622,642,663,682,702,722,742,762,783,802,823,842,863,883,902,922,942,963,982,1002,1022,1042,1063,1082,1102,1122,1144,1163,1184,1202,1222,1243,1262,1282,1302,1322,1343,1362,1382,1403,1422,1442,1462,1482,1503,1522,1542,1562,1582,1603,1622,1642,1663,1682,1702,1722,1742,1763,1782,1803,1822,1843,1863,1882,1903,1922,1942,1962,1983,2002,2022,2042,2062,2083,2103,2122,2142],"xSR":741.5,"ySR":469.95,"xT1":424.9,"yT1":0,"xT2":1058.1,"yT2":0,"toosoon":0,"cond_shown":"Incongruent","ratio_trial":300,"L_num":13,"L_den":26,"R_num":12,"R_den":15,"correct_side":2,"subjID":"cristianandresmancerabaez19","gender":"0","school":"6","age":"12"},{"start_time":1551800654353,"click_time":1551800655920,"finger_time":1551800655540,"fix_duration":770.3208446513764,"trial":19,"RT":1187,"MT":380,"sideResp":2,"stimulus":[],"xmouse":[807,807,807,807,807,807,807,807,807,807,807,807,807,807,807,807,807,806,806,806,806,806,806,806,806,806,806,806,806,806,806,806,806,806,806,806,806,806,806,806,806,806,806,806,806,801,788,779,777,777,776,775,774,774,774,774,774,783,800,840,856,863,867,874,888,899,904,910,912,918,921,925,929,931,945,964,988,1047,1083],"ymouse":[548,548,548,548,548,548,549,549,550,553,555,555,555,555,555,555,555,557,557,557,557,557,557,557,557,557,557,557,557,557,557,557,557,557,557,557,557,557,557,557,557,557,557,557,557,549,527,518,517,517,517,517,517,517,517,517,515,505,491,461,445,432,414,391,329,295,270,241,222,187,177,165,156,151,141,132,121,99,90],"timestamp_mouse":[13,36,47,68,87,108,127,148,167,187,207,227,248,267,287,307,327,348,367,388,407,427,447,469,488,507,528,547,568,587,607,627,647,668,688,707,727,747,768,788,807,828,847,867,889,907,927,947,967,988,1007,1028,1047,1067,1089,1108,1127,1147,1168,1187,1207,1227,1248,1268,1287,1307,1328,1347,1367,1388,1407,1427,1447,1467,1487,1508,1527,1547,1567],"xSR":741.5,"ySR":469.95,"xT1":424.9,"yT1":0,"xT2":1058.1,"yT2":0,"toosoon":0,"cond_shown":"Congruent","ratio_trial":300,"L_num":7,"L_den":14,"R_num":20,"R_den":25,"correct_side":2,"subjID":"cristianandresmancerabaez19","gender":"0","school":"6","age":"12"},{"start_time":1551800658393,"click_time":1551800660842,"finger_time":1551800660300,"fix_duration":1310.1814541863569,"trial":20,"RT":1907,"MT":542,"sideResp":2,"stimulus":[],"xmouse":[777,777,777,777,777,777,777,777,777,777,777,777,777,777,777,777,777,777,777,777,777,777,777,777,777,777,777,777,777,777,777,777,777,777,777,777,777,777,777,777,777,777,777,777,777,777,777,777,777,777,777,777,777,777,777,777,777,777,777,777,777,777,777,777,777,777,777,777,777,777,777,777,777,777,777,777,777,777,777,777,777,779,798,810,822,832,838,839,839,839,839,839,839,839,840,845,853,870,880,895,912,926,943,947,947,948,949,952,966,968,971,975,981,1003,1011,1016,1021,1026,1035,1041,1050,1057,1071],"ymouse":[512,512,512,512,512,512,512,512,512,512,512,512,512,512,512,512,512,512,512,512,512,512,512,512,512,512,512,512,512,512,512,512,512,512,512,512,512,512,512,512,512,512,512,512,512,512,512,512,512,512,512,512,512,512,512,512,512,512,512,512,512,512,512,512,512,512,512,512,512,512,512,512,512,512,512,512,512,512,512,512,512,511,504,500,497,494,492,491,491,491,491,491,491,491,490,483,474,452,435,408,368,328,201,153,131,119,112,106,95,93,91,89,87,84,83,82,81,81,79,78,78,75,72],"timestamp_mouse":[8,31,48,67,87,107,127,147,168,188,207,227,247,267,287,307,328,348,367,387,407,427,447,468,488,507,528,548,567,587,607,627,647,667,687,707,727,747,768,787,807,828,847,867,887,907,928,947,967,987,1008,1027,1047,1067,1087,1107,1127,1147,1167,1187,1207,1227,1247,1267,1287,1307,1327,1347,1367,1387,1408,1427,1447,1467,1487,1507,1527,1548,1567,1587,1607,1627,1648,1667,1687,1707,1727,1748,1768,1788,1807,1827,1847,1867,1887,1907,1927,1947,1967,1987,2008,2027,2047,2067,2087,2108,2127,2147,2167,2187,2207,2227,2247,2268,2287,2308,2327,2348,2367,2387,2408,2427,2449],"xSR":741.5,"ySR":469.95,"xT1":424.9,"yT1":0,"xT2":1058.1,"yT2":0,"toosoon":0,"cond_shown":"Congruent","ratio_trial":100,"L_num":1,"L_den":2,"R_num":3,"R_den":5,"correct_side":2,"subjID":"cristianandresmancerabaez19","gender":"0","school":"6","age":"12"},{"start_time":1551800662649,"click_time":1551800665401,"finger_time":1551800664780,"fix_duration":508.1598830854094,"trial":21,"RT":2131,"MT":621,"sideResp":1,"stimulus":[],"xmouse":[808,808,808,808,808,808,808,808,808,808,808,808,808,808,808,808,808,808,808,808,808,808,808,808,808,808,808,808,808,808,808,808,808,808,808,808,808,808,808,808,808,808,808,808,808,808,808,808,808,808,808,808,808,808,808,808,808,808,808,808,808,808,808,808,808,808,808,808,808,808,808,808,808,808,809,808,803,799,792,787,787,787,787,787,787,787,787,787,787,787,787,787,787,787,787,787,787,787,787,787,787,787,786,784,771,744,731,708,535,380,206,195,192,192,192,192,192,192,192,192,193,197,210,228,244,270,279,289,293,295,297,297,297,300,305,328,410,492],"ymouse":[535,535,535,535,535,535,535,535,535,535,535,535,535,535,535,535,535,535,535,535,535,535,535,535,535,535,535,535,535,535,535,535,535,535,535,535,535,535,535,535,535,535,535,535,535,535,535,535,535,535,535,535,535,535,535,535,535,535,535,535,535,535,535,535,535,535,535,535,535,535,535,535,535,535,535,535,534,534,534,534,534,534,534,534,534,534,534,534,534,534,534,534,534,534,534,534,534,534,534,534,534,534,534,531,515,495,483,453,248,129,41,35,33,33,32,29,28,26,23,23,21,20,18,17,17,25,30,35,37,38,39,39,39,39,40,43,57,68],"timestamp_mouse":[12,42,51,71,91,111,131,151,172,192,212,232,252,272,292,311,332,352,372,391,412,432,452,471,492,511,532,552,571,592,611,632,651,671,692,712,731,752,772,792,812,831,851,872,891,912,932,951,971,992,1011,1031,1051,1071,1091,1112,1131,1151,1171,1191,1212,1231,1251,1271,1291,1312,1332,1352,1371,1392,1412,1432,1452,1471,1491,1511,1531,1551,1571,1591,1611,1631,1652,1671,1692,1712,1731,1751,1771,1792,1811,1832,1852,1871,1892,1912,1931,1952,1971,1991,2012,2032,2052,2071,2092,2111,2131,2151,2172,2192,2211,2231,2251,2271,2291,2311,2332,2351,2371,2391,2411,2432,2451,2472,2492,2511,2532,2551,2572,2591,2611,2631,2651,2671,2692,2711,2732,2752],"xSR":741.5,"ySR":469.95,"xT1":424.9,"yT1":0,"xT2":1058.1,"yT2":0,"toosoon":0,"cond_shown":"Congruent","ratio_trial":300,"L_num":18,"L_den":20,"R_num":9,"R_den":15,"correct_side":1,"subjID":"cristianandresmancerabaez19","gender":"0","school":"6","age":"12"},{"start_time":1551800666802,"click_time":1551800669180,"finger_time":1551800668480,"fix_duration":321.01352506940805,"trial":22,"RT":1678,"MT":700,"sideResp":2,"stimulus":[],"xmouse":[766,766,766,766,766,766,766,766,766,766,766,766,766,766,765,765,765,764,764,764,764,764,764,764,764,764,764,764,764,764,764,764,764,764,764,764,764,764,764,764,764,764,764,764,764,764,764,764,764,764,764,764,764,764,764,764,764,764,764,764,764,764,764,764,764,764,764,764,764,764,764,764,764,764,764,766,768,770,770,770,770,771,772,777,780,785,792,833,862,888,914,927,932,940,947,956,967,990,993,998,1005,1012,1023,1039,1044,1048,1054,1062,1076,1079,1081,1081,1083,1084,1086,1088,1099,1102,1114],"ymouse":[520,520,520,520,520,520,520,520,520,520,519,519,519,519,519,519,519,520,520,520,520,520,520,520,517,517,517,517,517,517,517,517,517,517,517,516,515,513,507,505,504,504,504,504,504,504,504,504,504,504,504,504,504,504,504,504,504,504,504,504,504,504,504,504,504,504,504,504,504,504,504,504,504,503,499,494,489,486,485,484,482,478,474,464,459,452,443,395,356,324,285,248,231,204,191,179,168,157,156,155,152,149,143,137,136,134,132,128,121,119,118,118,118,118,117,115,107,105,96],"timestamp_mouse":[18,38,58,78,98,119,138,158,178,198,218,238,258,278,298,318,338,358,378,398,418,438,458,478,499,518,538,558,578,598,618,638,658,678,698,718,739,758,778,798,819,838,859,878,898,919,939,959,978,998,1018,1039,1058,1079,1099,1119,1139,1158,1179,1198,1219,1239,1259,1278,1299,1319,1339,1359,1380,1398,1418,1439,1459,1478,1498,1518,1538,1558,1579,1598,1618,1638,1658,1678,1699,1719,1738,1759,1778,1799,1818,1838,1858,1878,1899,1918,1938,1960,1978,1998,2018,2039,2058,2078,2098,2118,2138,2159,2179,2198,2219,2239,2259,2278,2298,2318,2339,2359,2378],"xSR":741.5,"ySR":469.95,"xT1":424.9,"yT1":0,"xT2":1058.1,"yT2":0,"toosoon":0,"cond_shown":"Incongruent","ratio_trial":200,"L_num":11,"L_den":20,"R_num":3,"R_den":4,"correct_side":2,"subjID":"cristianandresmancerabaez19","gender":"0","school":"6","age":"12"},{"start_time":1551800670373,"click_time":1551800675180,"finger_time":1551800672020,"fix_duration":250,"trial":23,"RT":1647,"MT":3160,"sideResp":2,"stimulus":[],"xmouse":[809,809,809,809,809,809,809,809,809,809,809,809,810,810,810,810,810,810,810,810,812,814,816,817,820,821,821,821,821,821,821,821,821,821,821,821,821,821,821,821,821,821,821,821,821,821,821,821,821,821,821,821,821,821,821,821,821,821,821,821,821,821,821,821,821,821,821,821,821,821,821,821,821,821,821,821,821,821,822,823,832,839,845,847,851,854,856,856,857,857,858,858,858,858,858,858,858,858,860,862,870,876,881,884,887,893,896,899,900,904,908,910,912,912,913,913,913,913,913,913,914,914,916,917,920,937,947,957,970,976,994,1007,1026,1042,1058,1076,1080,1080,1080,1080,1080,1080,1080,1080,1080,1080,1080,1080,1080,1080,1080,1081,1082,1084,1089,1095,1095,1095,1095,1095,1095,1095,1095,1095,1095,1096,1098,1099,1101,1101,1101,1101,1101,1101,1101,1098,1096,1094,1089,1086,1085,1084,1083,1082,1082,1081,1081,1080,1079,1078,1078,1078,1078,1078,1078,1083,1084,1085,1085,1085,1085,1085,1085,1085,1086,1086,1086,1086,1086,1086,1086,1086,1086,1086,1086,1086,1086,1086,1086,1086,1086,1086,1086,1085,1084,1081,1080,1079,1079,1079,1078,1077,1077,1077,1077,1074,1074,1074,1074,1074,1075],"ymouse":[524,524,524,524,524,524,524,524,524,524,524,523,523,523,523,523,523,523,523,523,523,524,524,525,525,525,525,525,525,525,525,525,525,525,525,525,525,525,525,525,525,525,525,525,525,525,525,525,525,525,525,525,525,525,525,525,525,525,525,525,525,525,525,525,525,525,525,525,525,525,525,525,525,525,525,525,525,525,525,525,519,515,510,504,498,491,488,484,479,473,464,462,460,460,460,458,457,454,450,446,433,424,419,415,410,403,399,396,393,390,385,383,382,382,381,380,380,380,380,380,378,377,375,374,372,364,358,351,341,324,286,259,227,199,170,138,132,130,130,130,130,130,130,130,130,130,130,130,130,130,130,129,127,126,124,122,122,122,122,122,122,122,122,122,122,122,121,120,118,118,118,118,118,118,118,117,117,116,116,115,115,115,115,115,115,115,115,115,114,114,114,114,114,113,113,107,106,106,106,106,106,106,105,105,105,105,105,104,104,104,104,104,104,104,104,104,104,104,104,104,104,104,104,103,103,103,103,103,103,103,103,102,102,102,102,102,101,101,101,101,99],"timestamp_mouse":[9,40,48,67,87,107,127,147,167,188,208,227,247,268,287,308,327,347,368,387,407,427,447,468,488,507,527,547,567,587,607,627,648,667,687,707,727,746,767,787,807,827,847,868,887,907,928,947,968,987,1008,1027,1047,1067,1087,1107,1127,1147,1167,1188,1207,1227,1247,1267,1287,1307,1327,1346,1367,1387,1407,1427,1447,1467,1488,1507,1527,1547,1567,1588,1607,1627,1647,1666,1687,1707,1727,1747,1768,1787,1808,1827,1847,1867,1886,1906,1928,1947,1967,1988,2007,2027,2047,2068,2088,2106,2127,2147,2166,2187,2208,2227,2247,2267,2287,2308,2326,2347,2367,2388,2407,2427,2448,2468,2488,2507,2527,2547,2568,2588,2606,2627,2647,2668,2687,2707,2727,2748,2768,2788,2808,2828,2847,2867,2887,2907,2927,2947,2967,2986,3008,3028,3047,3068,3088,3107,3127,3148,3167,3187,3208,3227,3247,3267,3287,3307,3328,3347,3368,3388,3407,3426,3447,3468,3486,3507,3527,3547,3567,3587,3608,3627,3647,3667,3687,3707,3727,3747,3767,3787,3807,3827,3848,3867,3887,3907,3927,3947,3967,3987,4008,4027,4047,4067,4087,4108,4127,4148,4167,4187,4207,4227,4248,4267,4288,4307,4327,4346,4366,4387,4408,4427,4448,4467,4488,4507,4527,4546,4568,4587,4607,4628,4647,4667,4687,4708,4726,4747,4767,4787,4807],"xSR":741.5,"ySR":469.95,"xT1":424.9,"yT1":0,"xT2":1058.1,"yT2":0,"toosoon":0,"cond_shown":"Congruent","ratio_trial":200,"L_num":9,"L_den":30,"R_num":13,"R_den":26,"correct_side":2,"subjID":"cristianandresmancerabaez19","gender":"0","school":"6","age":"12"},{"start_time":1551800677405,"click_time":1551800680560,"finger_time":1551800679120,"fix_duration":1283.7363467101045,"trial":24,"RT":1715,"MT":1440,"sideResp":1,"stimulus":[],"xmouse":[775,775,775,775,775,775,775,775,775,775,775,775,775,775,775,775,775,775,775,775,775,775,775,775,775,775,775,775,775,775,775,775,775,775,775,775,775,775,775,775,775,775,775,775,775,775,775,775,775,775,775,775,775,775,775,775,775,775,775,775,775,775,775,775,775,775,775,775,775,775,775,775,775,775,774,774,774,774,774,772,770,769,768,768,764,752,735,708,680,640,627,615,603,584,558,550,545,544,543,543,541,541,540,539,537,537,534,532,528,513,509,507,506,504,502,502,502,502,502,502,501,501,501,501,501,501,500,500,500,500,500,500,500,500,500,500,500,500,500,500,500,500,500,500,500,500,500,500,500,505,508,511,514,516,519,522,523,523],"ymouse":[519,519,519,519,519,519,519,519,519,519,519,519,519,519,519,519,519,519,519,519,519,519,519,519,519,519,519,519,519,519,519,519,519,519,519,519,519,519,519,519,519,519,519,519,519,519,519,519,519,519,519,519,519,519,519,519,519,519,519,519,519,519,519,519,519,519,519,519,519,519,519,516,506,496,493,493,493,493,493,490,488,487,486,485,476,460,441,418,398,369,358,345,334,316,284,274,266,264,262,257,254,250,246,242,234,231,226,221,210,182,174,169,165,160,155,155,154,154,154,154,153,152,152,152,151,150,149,149,149,149,149,149,149,149,149,149,149,149,149,149,149,149,149,149,148,148,146,145,141,134,130,126,121,116,109,104,101,98],"timestamp_mouse":[15,39,55,76,96,116,134,155,176,195,215,235,255,276,295,316,335,356,375,395,416,436,456,476,495,514,536,554,575,595,614,635,656,674,695,715,735,754,776,795,814,836,855,875,895,915,935,956,975,996,1015,1035,1055,1075,1096,1115,1135,1156,1175,1195,1215,1235,1254,1276,1295,1314,1336,1355,1375,1396,1416,1434,1455,1475,1496,1515,1534,1555,1575,1595,1615,1636,1654,1675,1696,1715,1736,1755,1775,1795,1815,1835,1855,1875,1895,1915,1935,1955,1976,1995,2015,2035,2055,2074,2096,2115,2135,2155,2175,2195,2214,2236,2255,2275,2296,2314,2335,2355,2376,2395,2416,2435,2455,2475,2495,2516,2536,2554,2576,2596,2614,2636,2655,2676,2695,2716,2735,2755,2775,2795,2815,2835,2856,2875,2894,2915,2935,2955,2976,2995,3015,3036,3056,3074,3095,3115,3135,3155],"xSR":741.5,"ySR":469.95,"xT1":424.9,"yT1":0,"xT2":1058.1,"yT2":0,"toosoon":0,"cond_shown":"Congruent","ratio_trial":200,"L_num":7,"L_den":21,"R_num":2,"R_den":15,"correct_side":1,"subjID":"cristianandresmancerabaez19","gender":"0","school":"6","age":"12"},{"start_time":1551800683823,"click_time":1551800685820,"finger_time":1551800685300,"fix_duration":862.7566512375213,"trial":25,"RT":1477,"MT":520,"sideResp":1,"stimulus":[],"xmouse":[778,778,778,778,778,778,778,778,778,778,778,778,778,778,778,778,778,778,778,778,778,778,778,778,778,778,778,778,778,778,778,778,778,778,778,778,778,778,778,778,778,778,778,778,778,778,778,778,778,778,778,778,778,778,778,778,778,778,778,778,778,778,778,778,778,778,778,778,778,775,767,757,745,719,705,690,680,669,646,624,604,584,562,540,530,517,503,491,466,460,452,448,443,439,436,436,436,436,436,439],"ymouse":[518,518,518,518,518,518,518,518,518,518,518,518,518,518,518,518,518,518,518,518,518,518,518,518,518,518,518,518,518,518,518,518,518,518,518,518,518,518,518,518,518,518,518,518,518,518,518,518,518,518,518,518,518,518,518,518,518,518,518,518,518,518,518,518,518,518,518,518,518,515,504,493,480,456,444,433,426,418,400,383,361,339,318,288,275,256,238,218,170,160,146,135,123,114,107,104,103,101,100,99],"timestamp_mouse":[22,38,58,77,97,117,138,158,176,196,217,237,258,277,298,318,337,356,377,398,417,437,456,477,498,518,538,557,577,598,617,637,657,677,697,718,737,757,777,798,818,836,857,876,898,917,937,958,977,998,1018,1038,1057,1077,1097,1117,1136,1157,1177,1197,1216,1237,1257,1277,1297,1316,1337,1356,1377,1397,1417,1437,1458,1477,1497,1517,1538,1557,1578,1597,1617,1638,1658,1677,1697,1717,1737,1757,1778,1798,1817,1837,1856,1878,1897,1917,1937,1958,1978,1997],"xSR":741.5,"ySR":469.95,"xT1":424.9,"yT1":0,"xT2":1058.1,"yT2":0,"toosoon":0,"cond_shown":"Incongruent","ratio_trial":300,"L_num":2,"L_den":4,"R_num":6,"R_den":30,"correct_side":1,"subjID":"cristianandresmancerabaez19","gender":"0","school":"6","age":"12"},{"start_time":1551800690420,"click_time":1551800693220,"finger_time":1551800691920,"fix_duration":900.1424410903676,"trial":26,"RT":1500,"MT":1300,"sideResp":1,"stimulus":[],"xmouse":[777,777,777,777,777,777,777,777,777,777,777,777,777,777,777,777,777,777,777,777,777,777,777,775,775,775,775,775,775,774,774,773,773,773,772,771,771,770,770,770,770,770,770,770,770,770,770,770,770,770,770,770,770,770,770,770,770,770,770,770,770,770,770,770,770,770,770,770,770,770,770,774,793,819,871,880,884,884,885,887,888,889,890,890,891,892,893,893,893,894,894,894,895,895,895,893,890,884,875,854,844,834,825,811,779,758,711,695,676,664,661,660,660,660,660,660,660,659,657,650,644,635,624,614,605,601,592,584,577,560,554,549,541,534,512,495,486,482,479,476],"ymouse":[519,519,519,519,519,519,519,519,519,519,519,519,519,519,519,519,519,519,519,519,519,519,519,519,519,519,519,519,519,519,519,519,519,519,519,519,519,519,519,519,519,519,519,519,519,519,519,519,519,519,519,519,519,519,519,519,519,519,519,519,519,519,519,519,519,519,519,519,519,519,519,515,505,497,484,480,478,478,477,475,474,471,470,469,467,466,463,463,461,456,455,452,447,443,439,435,432,430,427,418,414,411,408,402,387,357,289,244,203,174,171,169,169,169,169,169,169,169,169,169,169,169,169,169,168,167,166,165,163,160,157,155,152,147,130,118,111,108,104,99],"timestamp_mouse":[32,40,60,80,100,120,140,160,180,201,220,240,260,280,300,321,341,360,380,401,421,440,460,481,500,520,539,560,580,600,619,640,660,681,701,720,740,761,780,801,820,839,861,881,900,920,939,961,980,1001,1020,1040,1060,1081,1101,1121,1141,1160,1181,1201,1220,1241,1261,1280,1300,1321,1339,1360,1380,1400,1420,1440,1460,1480,1500,1520,1540,1560,1580,1600,1620,1640,1660,1679,1699,1719,1740,1760,1781,1800,1819,1840,1860,1880,1900,1921,1940,1960,1981,2001,2020,2039,2061,2081,2100,2121,2141,2161,2180,2200,2221,2240,2261,2280,2301,2321,2340,2361,2381,2400,2421,2440,2461,2480,2500,2520,2539,2560,2581,2600,2619,2640,2660,2680,2700,2719,2740,2761,2780,2800],"xSR":741.5,"ySR":469.95,"xT1":424.9,"yT1":0,"xT2":1058.1,"yT2":0,"toosoon":0,"cond_shown":"Congruent","ratio_trial":200,"L_num":3,"L_den":10,"R_num":14,"R_den":28,"correct_side":2,"subjID":"cristianandresmancerabaez19","gender":"0","school":"6","age":"12"},{"start_time":1551800695098,"click_time":1551800696880,"finger_time":1551800696281,"fix_duration":395.5376212315151,"trial":27,"RT":1183,"MT":599,"sideResp":2,"stimulus":[],"xmouse":[826,822,803,803,788,785,783,781,781,780,778,776,776,776,776,776,774,773,773,772,772,772,772,772,772,771,770,762,758,756,755,755,755,755,755,755,755,755,755,755,755,755,754,754,754,757,758,761,763,766,769,773,780,783,785,792,811,827,839,846,854,882,877,874,876,876,876,878,883,890,894,896,908,916,926,932,941,944,949,954,959,979,982,986,989,993,999,1015,1029,1094],"ymouse":[544,544,544,544,544,544,544,544,544,544,544,544,544,544,544,544,543,542,542,541,541,541,541,541,541,541,541,540,540,539,538,538,538,538,538,538,538,538,538,538,538,538,538,536,534,531,529,522,518,514,510,506,503,500,498,495,485,477,470,462,446,379,233,191,175,160,144,134,129,122,119,118,113,109,107,105,104,104,104,104,101,87,83,80,76,72,67,57,50,37],"timestamp_mouse":[2,23,56,63,83,101,122,142,162,182,202,223,241,262,282,302,323,342,361,382,403,422,443,463,483,502,521,542,563,582,602,622,642,662,681,702,722,741,762,782,802,822,842,862,882,902,922,942,963,982,1002,1022,1042,1062,1082,1103,1123,1142,1163,1183,1203,1223,1242,1262,1282,1303,1322,1342,1362,1383,1402,1422,1441,1462,1483,1502,1523,1542,1562,1582,1603,1623,1642,1662,1683,1701,1722,1742,1762,1782],"xSR":741.5,"ySR":469.95,"xT1":424.9,"yT1":0,"xT2":1058.1,"yT2":0,"toosoon":0,"cond_shown":"Incongruent","ratio_trial":100,"L_num":13,"L_den":26,"R_num":12,"R_den":20,"correct_side":2,"subjID":"cristianandresmancerabaez19","gender":"0","school":"6","age":"12"},{"start_time":1551800698436,"click_time":1551800701359,"finger_time":1551800700021,"fix_duration":654.0145949711282,"trial":28,"RT":1585,"MT":1338,"sideResp":2,"stimulus":[],"xmouse":[792,792,792,792,792,792,792,792,792,792,792,792,792,792,792,792,792,792,792,792,792,792,792,792,792,792,792,792,792,792,792,792,792,792,792,792,792,792,792,792,792,792,792,792,792,792,792,792,792,792,792,792,792,792,792,792,792,792,792,792,792,792,792,787,784,784,784,784,784,784,784,784,783,784,788,802,811,822,832,843,860,868,873,877,880,886,888,891,894,897,905,909,914,919,926,939,949,958,962,967,973,976,982,986,989,994,996,998,1000,1003,1006,1010,1010,1010,1010,1010,1010,1010,1010,1010,1010,1010,1014,1024,1033,1045,1065,1069,1074,1076,1077,1079,1081,1082,1084,1086,1088,1090,1091,1093,1100,1104,1111,1114,1117,1118,1120],"ymouse":[513,513,513,513,513,513,513,513,513,513,513,513,513,513,513,513,513,513,513,513,513,513,513,513,513,513,513,513,513,513,513,513,513,513,513,513,513,513,513,513,513,513,513,513,513,513,513,513,513,513,513,513,513,513,513,513,513,513,513,513,513,513,513,514,514,514,514,514,514,514,514,514,514,512,508,497,492,486,482,477,467,463,459,456,453,448,446,444,440,437,428,423,416,409,401,383,371,361,353,345,335,330,321,315,311,302,298,295,291,286,269,259,240,231,221,207,204,202,201,200,199,198,193,188,180,171,155,151,148,147,146,146,145,144,143,141,141,139,138,137,132,128,123,120,109,103,89],"timestamp_mouse":[9,33,45,64,84,104,124,144,163,184,203,224,243,264,284,303,324,345,364,385,405,423,444,464,484,505,524,545,564,584,605,624,644,664,684,705,725,744,763,785,804,825,845,864,885,904,925,944,963,985,1004,1024,1044,1064,1085,1104,1125,1143,1164,1183,1205,1223,1244,1264,1285,1304,1324,1345,1364,1384,1403,1425,1444,1464,1485,1504,1524,1544,1564,1585,1604,1624,1644,1665,1684,1704,1724,1745,1764,1784,1804,1824,1844,1864,1884,1904,1924,1944,1964,1984,2004,2024,2044,2064,2085,2104,2124,2144,2164,2184,2204,2224,2244,2265,2284,2304,2323,2344,2365,2383,2404,2424,2444,2463,2485,2504,2524,2544,2565,2584,2603,2624,2644,2664,2684,2704,2724,2744,2764,2784,2803,2824,2844,2863,2884,2903,2923],"xSR":741.5,"ySR":469.95,"xT1":424.9,"yT1":0,"xT2":1058.1,"yT2":0,"toosoon":0,"cond_shown":"Congruent","ratio_trial":300,"L_num":1,"L_den":20,"R_num":7,"R_den":20,"correct_side":2,"subjID":"cristianandresmancerabaez19","gender":"0","school":"6","age":"12"},{"start_time":1551800703473,"click_time":1551800705560,"finger_time":1551800704960,"fix_duration":250,"trial":29,"RT":1487,"MT":600,"sideResp":2,"stimulus":[],"xmouse":[803,803,803,803,803,803,803,803,803,802,802,802,802,802,802,801,801,801,801,801,801,801,801,801,801,801,801,801,801,801,801,801,801,801,801,801,801,801,801,801,801,801,801,801,801,801,801,801,801,801,801,801,801,801,801,801,801,801,801,801,801,801,801,801,801,801,801,801,801,801,801,807,814,826,865,889,910,922,932,937,938,939,940,943,945,949,953,961,968,990,1000,1008,1014,1026,1028,1030,1033,1033,1038,1043,1048,1053,1057,1060,1063],"ymouse":[546,547,547,548,548,548,548,549,549,549,549,549,549,549,550,551,551,551,551,551,551,551,551,551,551,551,551,551,551,551,551,551,551,551,551,551,551,551,551,551,551,551,551,551,551,551,551,551,551,551,551,551,551,551,551,551,551,551,551,551,551,551,551,551,551,551,551,551,550,543,538,530,520,506,460,426,396,370,341,310,302,296,290,279,273,267,261,254,247,220,208,197,189,173,169,165,162,160,151,146,140,131,122,110,92],"timestamp_mouse":[8,34,47,66,88,107,127,148,168,186,208,228,247,268,287,308,327,346,367,387,407,427,447,468,488,507,527,546,567,586,607,628,647,668,687,708,728,748,767,787,807,827,848,867,887,906,927,947,968,986,1007,1028,1047,1067,1087,1107,1127,1147,1167,1186,1208,1226,1247,1267,1287,1307,1327,1347,1367,1387,1407,1427,1447,1467,1487,1506,1528,1547,1567,1588,1607,1627,1647,1668,1687,1706,1728,1747,1767,1787,1808,1827,1847,1868,1887,1907,1927,1947,1968,1987,2007,2027,2048,2067,2087],"xSR":741.5,"ySR":469.95,"xT1":424.9,"yT1":0,"xT2":1058.1,"yT2":0,"toosoon":0,"cond_shown":"Congruent","ratio_trial":100,"L_num":9,"L_den":15,"R_num":8,"R_den":16,"correct_side":1,"subjID":"cristianandresmancerabaez19","gender":"0","school":"6","age":"12"},{"start_time":1551800707051,"click_time":1551800708480,"finger_time":1551800708260,"fix_duration":289.0826497020401,"trial":30,"RT":1209,"MT":220,"sideResp":2,"stimulus":[],"xmouse":[776,779,781,785,786,787,787,787,787,787,787,787,787,789,789,789,789,789,789,789,789,789,789,789,789,789,789,789,789,789,789,789,789,789,789,789,789,789,789,789,789,789,789,789,789,789,789,789,789,789,789,789,789,789,789,789,789,789,791,796,813,829,855,894,945,999,1008,1021,1026,1032,1052,1063],"ymouse":[537,529,524,516,513,510,510,510,509,509,509,509,509,508,508,508,508,508,508,508,508,508,508,508,508,508,508,508,508,508,508,508,508,508,508,508,508,508,508,508,508,508,508,508,508,508,508,508,508,508,508,508,508,508,508,508,508,508,506,497,453,393,334,272,215,128,99,72,58,42,18,5],"timestamp_mouse":[16,39,49,68,89,109,129,150,169,190,208,229,250,269,289,309,329,350,368,390,409,429,449,469,489,509,530,549,569,589,608,629,649,669,689,709,730,749,769,789,810,829,850,869,890,910,929,950,968,989,1009,1030,1048,1070,1088,1110,1130,1149,1170,1189,1209,1229,1248,1269,1290,1309,1329,1349,1369,1389,1409,1429],"xSR":741.5,"ySR":469.95,"xT1":424.9,"yT1":0,"xT2":1058.1,"yT2":0,"toosoon":0,"cond_shown":"Incongruent","ratio_trial":100,"L_num":10,"L_den":25,"R_num":8,"R_den":16,"correct_side":2,"subjID":"cristianandresmancerabaez19","gender":"0","school":"6","age":"12"},{"start_time":1551800709751,"click_time":1551800711961,"finger_time":1551800711441,"fix_duration":250,"trial":31,"RT":1690,"MT":520,"sideResp":2,"stimulus":[],"xmouse":[780,781,781,783,783,784,784,784,784,785,785,785,785,785,785,785,785,785,785,785,785,785,785,785,785,785,785,785,785,785,785,785,785,785,785,785,785,785,785,785,785,785,785,785,785,785,785,785,785,785,785,785,785,785,785,785,785,785,785,786,786,786,786,786,786,786,786,786,786,786,786,786,786,786,786,789,789,789,789,789,792,794,797,810,824,843,888,909,930,947,975,989,1004,1023,1041,1062,1063,1063,1063,1060,1056,1044,1038,1035,1034,1033,1033,1033,1033,1037,1075],"ymouse":[524,525,525,526,527,530,532,532,532,533,533,533,533,533,533,533,533,533,533,533,533,533,533,533,533,533,533,533,533,533,533,533,533,533,533,533,533,533,533,533,533,533,533,533,533,533,533,533,533,533,533,533,533,533,533,533,533,533,533,534,534,534,534,534,534,534,534,534,534,534,534,534,534,533,532,522,518,516,515,514,508,500,493,474,457,442,416,406,395,386,369,359,349,335,319,280,257,233,214,198,183,151,140,135,131,121,118,116,113,110,97],"timestamp_mouse":[8,43,49,69,89,109,129,149,169,189,209,230,250,269,289,309,331,349,369,389,409,429,449,469,488,509,529,549,569,590,609,629,648,670,689,709,729,749,769,789,809,828,849,869,889,910,929,950,970,989,1008,1030,1049,1069,1090,1109,1128,1150,1169,1190,1210,1230,1249,1270,1290,1310,1330,1349,1369,1390,1408,1430,1450,1470,1489,1510,1529,1550,1570,1590,1609,1628,1649,1670,1690,1709,1729,1749,1769,1788,1810,1829,1849,1870,1889,1910,1928,1950,1969,1989,2010,2029,2049,2070,2089,2109,2129,2149,2170,2189,2210],"xSR":741.5,"ySR":469.95,"xT1":424.9,"yT1":0,"xT2":1058.1,"yT2":0,"toosoon":0,"cond_shown":"Incongruent","ratio_trial":200,"L_num":14,"L_den":30,"R_num":6,"R_den":9,"correct_side":2,"subjID":"cristianandresmancerabaez19","gender":"0","school":"6","age":"12"},{"start_time":1551800714280,"click_time":1551800716501,"finger_time":1551800715880,"fix_duration":1038.8487949428459,"trial":32,"RT":1600,"MT":621,"sideResp":1,"stimulus":[],"xmouse":[807,809,809,809,809,809,809,809,809,809,809,809,809,809,809,809,809,809,809,809,809,809,809,809,809,809,809,809,809,809,809,809,809,809,809,809,809,809,809,809,809,809,809,809,809,809,809,809,809,809,809,809,809,809,809,809,809,809,809,809,809,809,809,809,809,809,809,809,809,809,809,809,809,809,809,809,805,798,795,788,764,746,720,667,643,584,538,488,444,419,411,411,410,408,404,401,401,402,402,402,402,402,402,402,402,402,402,402,402,403,422,436],"ymouse":[527,526,526,525,525,525,525,525,525,525,525,525,525,525,525,525,525,525,525,525,525,525,525,525,525,525,525,525,525,525,525,525,525,525,525,525,525,525,525,525,525,525,525,525,525,525,525,525,525,525,525,525,525,525,525,525,525,525,525,525,525,525,525,525,525,525,525,525,525,525,525,525,525,525,525,524,517,508,500,487,455,433,403,356,334,280,239,199,167,152,137,130,123,108,96,73,65,63,63,63,63,63,63,63,63,63,63,63,63,62,59,57],"timestamp_mouse":[1,35,41,60,79,100,120,140,161,180,201,221,240,260,281,301,320,340,359,381,401,419,441,460,480,501,520,540,560,581,600,620,639,661,680,701,720,739,760,780,800,821,840,860,880,899,921,940,961,980,1001,1021,1041,1060,1081,1101,1120,1140,1160,1180,1201,1219,1240,1260,1280,1301,1319,1340,1360,1380,1401,1419,1440,1461,1480,1501,1520,1541,1561,1580,1600,1621,1641,1660,1681,1701,1720,1740,1761,1780,1800,1821,1840,1860,1880,1900,1920,1941,1961,1981,2001,2020,2041,2059,2079,2101,2120,2141,2160,2180,2199,2220],"xSR":741.5,"ySR":469.95,"xT1":424.9,"yT1":0,"xT2":1058.1,"yT2":0,"toosoon":0,"cond_shown":"Incongruent","ratio_trial":200,"L_num":1,"L_den":2,"R_num":3,"R_den":10,"correct_side":1,"subjID":"cristianandresmancerabaez19","gender":"0","school":"6","age":"12"},{"start_time":1551800718877,"click_time":1551800721181,"finger_time":1551800720381,"fix_duration":1215.8307649103535,"trial":33,"RT":1504,"MT":800,"sideResp":2,"stimulus":[],"xmouse":[792,792,792,790,789,787,787,786,784,783,783,783,782,782,782,782,782,782,781,781,781,781,781,781,781,781,781,781,780,779,778,776,775,775,775,775,775,775,775,775,775,775,775,775,775,775,775,775,775,775,775,775,775,775,775,775,775,775,774,774,766,766,766,766,765,765,765,765,765,763,758,758,758,758,785,853,884,908,926,934,975,998,1009,981,971,971,971,971,971,971,971,971,971,971,971,971,971,971,971,971,971,971,971,971,971,971,971,971,1036,1043,1052,1052,1053,1054,1055,1059],"ymouse":[537,537,537,538,539,539,539,539,539,539,540,540,540,540,540,540,540,540,540,540,540,540,540,540,540,540,540,540,540,540,540,540,540,540,540,540,540,540,540,540,540,540,540,540,540,540,540,540,540,540,540,540,540,540,540,540,540,540,540,540,540,540,540,540,541,541,541,541,541,541,541,541,541,541,534,508,491,476,460,446,385,335,183,67,7,7,7,7,7,7,7,7,7,7,7,7,7,7,7,7,7,7,7,7,7,7,7,7,8,16,26,26,27,28,29,34],"timestamp_mouse":[8,22,44,63,83,103,123,144,163,182,203,224,243,263,282,303,323,343,363,383,403,423,443,463,484,502,524,543,563,584,603,623,644,663,682,704,723,742,763,783,803,823,844,863,884,903,922,944,963,984,1003,1022,1043,1063,1082,1103,1123,1143,1163,1183,1204,1224,1243,1264,1283,1303,1324,1343,1363,1383,1404,1423,1444,1463,1483,1504,1523,1544,1563,1583,1604,1622,1643,1664,1683,1703,1723,1742,1762,1784,1803,1822,1843,1863,1883,1903,1923,1943,1964,1983,2004,2022,2044,2063,2083,2103,2124,2144,2163,2183,2203,2222,2243,2263,2283,2304],"xSR":741.5,"ySR":469.95,"xT1":424.9,"yT1":0,"xT2":1058.1,"yT2":0,"toosoon":0,"cond_shown":"Incongruent","ratio_trial":200,"L_num":7,"L_den":15,"R_num":6,"R_den":9,"correct_side":2,"subjID":"cristianandresmancerabaez19","gender":"0","school":"6","age":"12"},{"start_time":1551800722392,"click_time":1551800723901,"finger_time":1551800723821,"fix_duration":250,"trial":34,"RT":1429,"MT":80,"sideResp":2,"stimulus":[],"xmouse":[803,803,803,803,803,803,803,803,803,803,803,803,803,803,803,803,803,803,803,803,803,803,803,803,803,803,803,803,803,803,803,803,803,803,803,803,803,803,803,803,803,803,803,803,803,803,803,803,803,803,803,803,803,803,803,803,803,803,803,803,803,803,803,803,803,803,803,803,803,811,840,880,929,967,1033,1100],"ymouse":[522,522,522,522,522,522,522,522,522,522,522,522,522,522,522,522,522,522,522,522,522,522,522,522,522,522,522,522,522,522,522,522,522,522,522,522,522,522,522,522,522,522,522,522,522,522,522,522,522,522,522,522,522,522,522,522,522,522,522,522,522,522,522,522,522,522,522,522,522,519,497,465,421,362,210,27],"timestamp_mouse":[9,37,49,69,87,109,128,147,168,189,209,229,249,268,289,308,329,348,369,388,409,428,448,468,489,508,528,548,568,588,609,628,649,667,688,709,728,749,768,788,809,828,849,868,888,909,929,948,968,988,1009,1029,1048,1069,1089,1107,1128,1149,1167,1188,1208,1228,1248,1268,1288,1308,1328,1348,1368,1389,1408,1429,1448,1468,1487,1508],"xSR":741.5,"ySR":469.95,"xT1":424.9,"yT1":0,"xT2":1058.1,"yT2":0,"toosoon":0,"cond_shown":"Incongruent","ratio_trial":200,"L_num":11,"L_den":20,"R_num":3,"R_den":4,"correct_side":2,"subjID":"cristianandresmancerabaez19","gender":"0","school":"6","age":"12"},{"start_time":1551800726466,"click_time":1551800728000,"finger_time":1551800727640,"fix_duration":1245.3627339883092,"trial":35,"RT":1174,"MT":360,"sideResp":1,"stimulus":[],"xmouse":[816,816,816,816,816,816,816,816,816,816,815,813,813,812,811,811,810,810,810,810,810,810,810,810,810,810,810,810,810,810,810,810,810,810,810,810,810,810,810,810,810,810,810,810,810,810,810,810,810,810,810,810,810,810,810,810,793,745,642,601,574,550,541,533,523,513,497,486,478,474,468,467,467,469,469,470,459],"ymouse":[507,507,507,507,507,507,507,507,507,507,507,508,508,509,509,510,511,511,511,511,511,511,511,511,511,511,511,511,511,511,511,511,511,511,511,511,511,511,511,511,511,511,511,511,511,511,511,511,511,511,511,511,511,511,511,511,504,483,455,443,431,418,411,403,395,382,353,329,307,289,271,238,220,196,173,139,85],"timestamp_mouse":[14,34,54,74,95,113,134,154,173,194,214,235,254,275,294,314,335,354,373,395,415,434,454,474,495,515,534,555,573,594,615,634,653,674,694,715,734,754,774,793,814,834,855,875,895,914,934,955,974,994,1014,1035,1055,1074,1093,1115,1134,1154,1174,1195,1214,1234,1254,1274,1294,1313,1334,1354,1374,1394,1414,1434,1453,1474,1494,1514,1534],"xSR":741.5,"ySR":469.95,"xT1":424.9,"yT1":0,"xT2":1058.1,"yT2":0,"toosoon":0,"cond_shown":"Congruent","ratio_trial":300,"L_num":4,"L_den":5,"R_num":2,"R_den":4,"correct_side":1,"subjID":"cristianandresmancerabaez19","gender":"0","school":"6","age":"12"},{"start_time":1551800731931,"click_time":1551800733580,"finger_time":1551800733240,"fix_duration":1367.5948335403036,"trial":36,"RT":1309,"MT":340,"sideResp":2,"stimulus":[],"xmouse":[797,797,797,797,782,776,775,775,775,775,775,775,775,775,775,775,775,775,775,775,775,775,775,775,775,775,775,775,775,775,775,775,775,775,775,775,775,775,775,775,775,775,775,775,775,775,775,775,775,775,775,775,775,775,775,775,775,775,775,775,775,775,776,779,810,855,891,927,952,990,1008,1030,1058,1073,1091,1097,1100,1101,1102,1103,1105,1107,1109],"ymouse":[517,517,517,517,517,517,517,517,517,517,517,517,517,517,517,517,517,517,517,517,517,517,517,517,517,517,517,517,517,517,517,517,517,517,517,517,517,517,517,518,518,518,518,518,518,518,518,518,518,518,518,518,518,518,518,518,518,518,518,518,518,518,518,514,480,444,412,375,346,304,287,269,245,232,190,178,170,164,158,142,131,117,98],"timestamp_mouse":[9,35,50,69,89,109,130,150,169,189,209,229,249,269,289,310,330,349,370,388,409,429,449,469,490,509,530,549,569,590,609,630,649,669,689,709,730,749,769,789,809,830,849,869,890,909,930,949,969,989,1009,1030,1050,1070,1089,1109,1130,1149,1169,1190,1208,1230,1249,1269,1289,1309,1329,1350,1370,1390,1410,1429,1450,1469,1489,1509,1529,1549,1570,1589,1609,1629,1649],"xSR":741.5,"ySR":469.95,"xT1":424.9,"yT1":0,"xT2":1058.1,"yT2":0,"toosoon":0,"cond_shown":"Incongruent","ratio_trial":100,"L_num":17,"L_den":30,"R_num":10,"R_den":15,"correct_side":2,"subjID":"cristianandresmancerabaez19","gender":"0","school":"6","age":"12"},{"start_time":1551800735407,"click_time":1551800737600,"finger_time":1551800737040,"fix_duration":925.3733624703616,"trial":37,"RT":1633,"MT":560,"sideResp":2,"stimulus":[],"xmouse":[796,796,796,796,796,796,796,796,796,796,796,796,796,796,796,796,796,796,796,796,796,796,796,796,796,796,796,796,796,796,796,796,796,796,796,796,796,796,796,796,796,796,796,796,796,796,796,796,796,796,796,796,796,796,796,796,796,796,796,796,796,796,796,796,796,796,796,796,796,796,796,796,796,796,796,796,796,796,796,796,802,835,886,954,1000,1022,1024,1027,1033,1042,1052,1061,1062,1062,1062,1039,1030,1022,1018,1018,1019,1025,1033,1040,1041,1045,1050,1056,1057,1059],"ymouse":[527,527,527,527,527,527,527,527,527,527,527,527,527,527,527,527,527,527,527,527,527,526,526,525,525,525,524,524,524,524,524,524,524,524,524,524,524,524,524,524,524,524,524,524,524,524,524,524,524,524,524,524,524,524,524,524,524,524,524,524,524,524,524,524,524,524,524,524,524,524,524,524,524,524,524,524,524,524,522,518,502,461,428,396,376,361,359,355,347,336,321,294,279,259,236,140,116,96,83,76,68,63,59,57,56,56,56,56,56,57],"timestamp_mouse":[14,34,53,74,93,113,132,153,174,194,213,233,253,274,294,313,333,354,374,394,413,433,454,474,493,513,532,554,574,594,614,634,654,673,694,713,733,754,773,793,813,834,854,874,893,913,934,954,974,994,1013,1034,1053,1073,1094,1113,1133,1153,1173,1194,1213,1234,1253,1274,1294,1314,1333,1353,1374,1394,1413,1434,1453,1474,1492,1513,1533,1554,1574,1593,1613,1633,1654,1674,1693,1713,1732,1753,1772,1792,1813,1833,1853,1872,1893,1914,1933,1953,1974,1992,2014,2033,2053,2074,2093,2114,2132,2154,2173,2193],"xSR":741.5,"ySR":469.95,"xT1":424.9,"yT1":0,"xT2":1058.1,"yT2":0,"toosoon":0,"cond_shown":"Incongruent","ratio_trial":100,"L_num":10,"L_den":25,"R_num":9,"R_den":18,"correct_side":2,"subjID":"cristianandresmancerabaez19","gender":"0","school":"6","age":"12"},{"start_time":1551800739135,"click_time":1551800740960,"finger_time":1551800740541,"fix_duration":553.7458355775651,"trial":38,"RT":1406,"MT":419,"sideResp":1,"stimulus":[],"xmouse":[784,784,784,784,784,784,784,784,784,784,784,784,784,784,784,784,784,784,784,784,784,784,784,784,784,784,784,784,784,784,784,784,784,784,784,784,784,784,784,784,784,784,784,784,784,784,784,784,784,784,784,784,784,784,784,784,784,784,784,784,784,784,784,784,784,783,776,772,770,761,761,763,759,751,740,708,687,668,649,631,570,549,538,528,523,515,512,510,507,506,512,518],"ymouse":[520,520,520,520,520,520,520,520,520,520,520,520,520,520,520,520,520,520,520,520,520,520,520,520,520,520,520,520,520,520,520,52