[{"start_time":1551801213480,"click_time":1551801216266,"finger_time":1551801213490,"fix_duration":250,"trial":0,"RT":10,"MT":2776,"sideResp":2,"stimulus":"img/250/equaldotanddens/R/9_Ratio_250_L_3_R_12.png","xmouse":[794,794,794,794,794,794,794,794,794,794,794,794,794,794,794,794,794,794,794,794,794,794,794,794,794,794,794,794,794,794,794,794,794,796,798,798,798,798,798,798,798,798,798,798,798,798,798,798,798,798,798,798,798,798,798,798,798,797,796,793,789,781,777,776,775,775,792,812,850,890,918,956,966,969,971,971,977,981,984,986,988,991,993,995,999,1000,1002,1002,1002,1002,1002,1007,1008,1008,1008,1008,1008,1008,1008,1008,1008,1008,1008,1008,1008,1008,1008,1008,1008,1008,1008,1008,1002,995,983,966,916,889,870,856,846,841,838,838,838,838,838,838,838,838,838,837,864,892,921,960,1002,1084,1111,1128],"ymouse":[592,592,592,592,592,592,592,592,592,592,592,592,592,592,592,592,592,592,592,592,592,592,592,592,592,592,592,592,592,592,592,592,582,575,569,562,553,551,549,549,549,549,549,549,549,549,549,549,549,549,549,549,549,549,546,545,540,536,531,524,512,447,435,428,421,416,387,363,328,294,271,243,239,237,237,237,232,229,224,220,218,213,211,209,207,206,205,205,205,205,205,193,185,181,180,180,180,180,180,180,180,180,180,180,180,180,180,180,180,180,180,180,180,180,180,180,180,179,176,174,171,169,168,168,168,168,168,168,168,168,168,164,153,145,136,125,117,105,100,98],"timestamp_mouse":[10,24,45,66,84,104,125,145,165,185,204,225,244,264,284,305,325,345,365,385,404,425,444,466,486,506,525,545,564,585,604,624,644,664,685,704,724,745,764,785,805,826,844,866,886,904,924,944,965,985,1005,1025,1045,1065,1084,1104,1124,1144,1165,1185,1204,1224,1244,1264,1285,1304,1324,1344,1364,1385,1404,1424,1445,1465,1485,1504,1524,1544,1565,1585,1606,1625,1644,1665,1684,1704,1724,1745,1764,1784,1805,1824,1844,1864,1886,1906,1925,1945,1965,1984,2004,2025,2044,2065,2084,2104,2124,2145,2165,2185,2206,2225,2244,2265,2284,2305,2324,2344,2365,2386,2406,2424,2445,2464,2485,2504,2525,2544,2565,2585,2605,2624,2644,2665,2685,2704,2724,2744,2765,2786],"xSR":741.5,"ySR":501.8,"xT1":424.9,"yT1":0,"xT2":1058.1,"yT2":0,"toosoon":0,"cond_shown":"equaldotanddens","ratio_trial":250,"smaller_num":"3","larger_num":"12","correct_side":2,"subjID":"CRISTIANANDRESMANCERABAEZ19","gender":"0","age":"12","school":"6","test":{"fix_dur":[250,1500],"timestim":300,"targets_dim":[100,100],"targets_relative_coord":[0.3,0.7],"size_stim":[880,420],"start_dim":[100,100],"size_start":[300,300],"size_fix":60,"samplingrate":20,"img_types":["equaldotsize","equaldotanddens","randomdotsizeEA"],"ratios":[250,500,750,900],"rep_conds":9,"nTrials":120,"trials_to_rest":500,"Trials_order":[1,108,23,13,59,88,116,78,99,114,46,55,109,91,84,89,90,5,4,25,61,2,43,106,69,87,102,83,94,110,98,54,63,76,73,60,31,27,19,35,21,0,48,93,95,113,7,49,79,64,70,52,39,96,34,47,30,22,14,80,118,51,17,119,12,72,104,18,11,57,100,38,65,117,66,44,71,3,9,56,15,107,10,20,101,6,36,32,92,77,115,37,82,97,28,53,112,81,29,75,8,40,45,58,62,74,85,41,16,68,86,50,111,24,103,67,26,33,105,42],"cond_shown":["equaldotanddens","equaldotsize","randomdotsizeEA","equaldotanddens","randomdotsizeEA","equaldotanddens","randomdotsizeEA","equaldotsize","equaldotsize","equaldotsize","equaldotanddens","equaldotanddens","equaldotanddens","equaldotanddens","equaldotsize","randomdotsizeEA","equaldotsize","randomdotsizeEA","equaldotanddens","equaldotanddens","equaldotanddens","randomdotsizeEA","equaldotanddens","equaldotanddens","equaldotsize","equaldotsize","equaldotsize","randomdotsizeEA","equaldotanddens","randomdotsizeEA","randomdotsizeEA","equaldotsize","equaldotsize","equaldotanddens","equaldotanddens","equaldotsize","equaldotanddens","equaldotsize","equaldotanddens","randomdotsizeEA","equaldotsize","equaldotsize","equaldotsize","equaldotsize","randomdotsizeEA","randomdotsizeEA","equaldotanddens","equaldotanddens","equaldotanddens","equaldotanddens","equaldotanddens","equaldotanddens","equaldotsize","equaldotsize","equaldotanddens","randomdotsizeEA","equaldotsize","equaldotanddens","randomdotsizeEA","randomdotsizeEA","equaldotanddens","equaldotsize","randomdotsizeEA","randomdotsizeEA","equaldotsize","equaldotsize","randomdotsizeEA","equaldotsize","randomdotsizeEA","equaldotsize","equaldotanddens","randomdotsizeEA","randomdotsizeEA","equaldotsize","equaldotsize","randomdotsizeEA","randomdotsizeEA","equaldotsize","equaldotsize","randomdotsizeEA","equaldotsize","randomdotsizeEA","equaldotanddens","randomdotsizeEA","randomdotsizeEA","equaldotsize","equaldotsize","randomdotsizeEA","randomdotsizeEA","randomdotsizeEA","equaldotanddens","equaldotanddens","equaldotanddens","equaldotanddens","equaldotanddens","randomdotsizeEA","equaldotanddens","equaldotsize","randomdotsizeEA","equaldotsize","randomdotsizeEA","equaldotanddens","equaldotsize","equaldotanddens","randomdotsizeEA","randomdotsizeEA","equaldotanddens","randomdotsizeEA","equaldotanddens","randomdotsizeEA","randomdotsizeEA","randomdotsizeEA","equaldotsize","equaldotsize","equaldotanddens","equaldotanddens","randomdotsizeEA","equaldotsize","equaldotsize","equaldotsize"],"ratio_trial":[250,250,900,250,900,500,750,750,500,750,900,750,250,750,250,500,750,500,500,250,250,250,750,900,900,500,750,900,900,250,250,750,500,500,250,250,750,500,750,900,900,250,250,900,900,500,750,250,750,500,900,500,500,250,900,900,750,900,250,750,900,500,500,900,250,250,750,750,900,900,500,250,500,900,750,750,900,500,900,750,500,900,900,750,500,750,250,750,750,500,750,250,900,250,500,500,500,900,500,500,750,500,900,900,250,250,250,500,500,750,250,250,500,250,750,750,250,900,900,750],"smaller_num":["3","3","9","3","18","6","3","12","1","12","9","6","4","3","5","6","3","5","6","3","4","2","3","18","18","1","3","18","9","4","5","6","1","3","6","3","15","5","12","18","18","6","4","18","18","10","12","6","9","2","18","9","2","5","18","9","9","18","2","3","9","2","3","9","2","1","12","3","9","18","2","2","10","18","3","6","9","10","18","15","2","9","18","18","6","3","6","12","12","9","15","2","18","4","6","5","1","18","2","2","3","9","9","18","4","5","1","5","2","15","2","2","6","2","9","3","3","18","18","3"],"larger_num":["12","12","10","12","20","12","4","16","2","16","10","8","16","4","20","12","4","10","12","12","16","8","4","20","20","2","4","20","10","16","20","8","2","6","24","12","20","10","16","20","20","24","16","20","20","20","16","24","12","4","20","18","4","20","20","10","12","20","8","4","10","4","6","10","8","4","16","4","10","20","4","8","20","20","4","8","10","20","20","20","4","10","20","24","12","4","24","16","16","18","20","8","20","16","12","10","2","20","4","4","4","18","10","20","16","20","4","10","4","20","8","8","12","8","12","4","12","20","20","4"],"correct_side":[2,2,2,2,1,1,2,2,2,2,2,1,2,1,2,1,2,2,1,2,2,1,1,1,1,2,2,1,2,2,2,1,2,2,1,2,2,2,2,2,1,1,2,2,2,2,2,2,2,1,2,2,1,2,2,2,2,1,1,1,2,1,2,2,1,2,2,1,1,1,2,1,2,1,2,1,2,2,1,1,1,2,1,1,1,2,1,2,2,2,1,1,1,1,1,2,2,1,1,2,2,1,1,1,1,2,2,1,1,1,1,1,1,1,2,2,1,1,1,2],"img_shown":["img/250/equaldotanddens/R/9_Ratio_250_L_3_R_12.png","img/250/equaldotsize/R/11_Ratio_250_L_3_R_12.png","img/900/randomdotsizeEA/R/3_Ratio_900_L_9_R_10.png","img/250/equaldotanddens/R/11_Ratio_250_L_3_R_12.png","img/900/randomdotsizeEA/L/2_Ratio_900_L_20_R_18.png","img/500/equaldotanddens/L/13_Ratio_500_L_12_R_6.png","img/750/randomdotsizeEA/R/12_Ratio_750_L_3_R_4.png","img/750/equaldotsize/R/11_Ratio_750_L_12_R_16.png","img/500/equaldotsize/R/12_Ratio_500_L_1_R_2.png","img/750/equaldotsize/R/11_Ratio_750_L_12_R_16.png","img/900/equaldotanddens/R/3_Ratio_900_L_9_R_10.png","img/750/equaldotanddens/L/13_Ratio_750_L_8_R_6.png","img/250/equaldotanddens/R/10_Ratio_250_L_4_R_16.png","img/750/equaldotanddens/L/9_Ratio_750_L_4_R_3.png","img/250/equaldotsize/R/12_Ratio_250_L_5_R_20.png","img/500/randomdotsizeEA/L/13_Ratio_500_L_12_R_6.png","img/750/equaldotsize/R/12_Ratio_750_L_3_R_4.png","img/500/randomdotsizeEA/R/14_Ratio_500_L_5_R_10.png","img/500/equaldotanddens/L/11_Ratio_500_L_12_R_6.png","img/250/equaldotanddens/R/11_Ratio_250_L_3_R_12.png","img/250/equaldotanddens/R/10_Ratio_250_L_4_R_16.png","img/250/randomdotsizeEA/L/1_Ratio_250_L_8_R_2.png","img/750/equaldotanddens/L/10_Ratio_750_L_4_R_3.png","img/900/equaldotanddens/L/2_Ratio_900_L_20_R_18.png","img/900/equaldotsize/L/2_Ratio_900_L_20_R_18.png","img/500/equaldotsize/R/15_Ratio_500_L_1_R_2.png","img/750/equaldotsize/R/12_Ratio_750_L_3_R_4.png","img/900/randomdotsizeEA/L/4_Ratio_900_L_20_R_18.png","img/900/equaldotanddens/R/7_Ratio_900_L_9_R_10.png","img/250/randomdotsizeEA/R/10_Ratio_250_L_4_R_16.png","img/250/randomdotsizeEA/R/12_Ratio_250_L_5_R_20.png","img/750/equaldotsize/L/14_Ratio_750_L_8_R_6.png","img/500/equaldotsize/R/12_Ratio_500_L_1_R_2.png","img/500/equaldotanddens/R/2_Ratio_500_L_3_R_6.png","img/250/equaldotanddens/L/5_Ratio_250_L_24_R_6.png","img/250/equaldotsize/R/4_Ratio_250_L_3_R_12.png","img/750/equaldotanddens/R/4_Ratio_750_L_15_R_20.png","img/500/equaldotsize/R/14_Ratio_500_L_5_R_10.png","img/750/equaldotanddens/R/11_Ratio_750_L_12_R_16.png","img/900/randomdotsizeEA/R/9_Ratio_900_L_18_R_20.png","img/900/equaldotsize/L/4_Ratio_900_L_20_R_18.png","img/250/equaldotsize/L/5_Ratio_250_L_24_R_6.png","img/250/equaldotsize/R/10_Ratio_250_L_4_R_16.png","img/900/equaldotsize/R/13_Ratio_900_L_18_R_20.png","img/900/randomdotsizeEA/R/13_Ratio_900_L_18_R_20.png","img/500/randomdotsizeEA/R/3_Ratio_500_L_10_R_20.png","img/750/equaldotanddens/R/11_Ratio_750_L_12_R_16.png","img/250/equaldotanddens/R/6_Ratio_250_L_6_R_24.png","img/750/equaldotanddens/R/15_Ratio_750_L_9_R_12.png","img/500/equaldotanddens/L/5_Ratio_500_L_4_R_2.png","img/900/equaldotanddens/R/14_Ratio_900_L_18_R_20.png","img/500/equaldotanddens/R/1_Ratio_500_L_9_R_18.png","img/500/equaldotsize/L/10_Ratio_500_L_4_R_2.png","img/250/equaldotsize/R/12_Ratio_250_L_5_R_20.png","img/900/equaldotanddens/R/11_Ratio_900_L_18_R_20.png","img/900/randomdotsizeEA/R/6_Ratio_900_L_9_R_10.png","img/750/equaldotsize/R/15_Ratio_750_L_9_R_12.png","img/900/equaldotanddens/L/10_Ratio_900_L_20_R_18.png","img/250/randomdotsizeEA/L/7_Ratio_250_L_8_R_2.png","img/750/randomdotsizeEA/L/8_Ratio_750_L_4_R_3.png","img/900/equaldotanddens/R/6_Ratio_900_L_9_R_10.png","img/500/equaldotsize/L/10_Ratio_500_L_4_R_2.png","img/500/randomdotsizeEA/R/2_Ratio_500_L_3_R_6.png","img/900/randomdotsizeEA/R/7_Ratio_900_L_9_R_10.png","img/250/equaldotsize/L/3_Ratio_250_L_8_R_2.png","img/250/equaldotsize/R/8_Ratio_250_L_1_R_4.png","img/750/randomdotsizeEA/R/11_Ratio_750_L_12_R_16.png","img/750/equaldotsize/L/8_Ratio_750_L_4_R_3.png","img/900/randomdotsizeEA/L/1_Ratio_900_L_10_R_9.png","img/900/equaldotsize/L/8_Ratio_900_L_20_R_18.png","img/500/equaldotanddens/R/9_Ratio_500_L_2_R_4.png","img/250/randomdotsizeEA/L/1_Ratio_250_L_8_R_2.png","img/500/randomdotsizeEA/R/3_Ratio_500_L_10_R_20.png","img/900/equaldotsize/L/4_Ratio_900_L_20_R_18.png","img/750/equaldotsize/R/12_Ratio_750_L_3_R_4.png","img/750/randomdotsizeEA/L/14_Ratio_750_L_8_R_6.png","img/900/randomdotsizeEA/R/15_Ratio_900_L_9_R_10.png","img/500/equaldotsize/R/3_Ratio_500_L_10_R_20.png","img/900/equaldotsize/L/10_Ratio_900_L_20_R_18.png","img/750/randomdotsizeEA/L/1_Ratio_750_L_20_R_15.png","img/500/equaldotsize/L/5_Ratio_500_L_4_R_2.png","img/900/randomdotsizeEA/R/7_Ratio_900_L_9_R_10.png","img/900/equaldotanddens/L/10_Ratio_900_L_20_R_18.png","img/750/randomdotsizeEA/L/6_Ratio_750_L_24_R_18.png","img/500/randomdotsizeEA/L/13_Ratio_500_L_12_R_6.png","img/750/equaldotsize/R/7_Ratio_750_L_3_R_4.png","img/250/equaldotsize/L/5_Ratio_250_L_24_R_6.png","img/750/randomdotsizeEA/R/11_Ratio_750_L_12_R_16.png","img/750/randomdotsizeEA/R/11_Ratio_750_L_12_R_16.png","img/500/randomdotsizeEA/R/6_Ratio_500_L_9_R_18.png","img/750/equaldotanddens/L/1_Ratio_750_L_20_R_15.png","img/250/equaldotanddens/L/7_Ratio_250_L_8_R_2.png","img/900/equaldotanddens/L/2_Ratio_900_L_20_R_18.png","img/250/equaldotanddens/L/2_Ratio_250_L_16_R_4.png","img/500/equaldotanddens/L/11_Ratio_500_L_12_R_6.png","img/500/randomdotsizeEA/R/14_Ratio_500_L_5_R_10.png","img/500/equaldotanddens/R/12_Ratio_500_L_1_R_2.png","img/900/equaldotsize/L/10_Ratio_900_L_20_R_18.png","img/500/randomdotsizeEA/L/5_Ratio_500_L_4_R_2.png","img/500/equaldotsize/R/9_Ratio_500_L_2_R_4.png","img/750/randomdotsizeEA/R/7_Ratio_750_L_3_R_4.png","img/500/equaldotanddens/L/4_Ratio_500_L_18_R_9.png","img/900/equaldotsize/L/1_Ratio_900_L_10_R_9.png","img/900/equaldotanddens/L/4_Ratio_900_L_20_R_18.png","img/250/randomdotsizeEA/L/2_Ratio_250_L_16_R_4.png","img/250/randomdotsizeEA/R/12_Ratio_250_L_5_R_20.png","img/250/equaldotanddens/R/8_Ratio_250_L_1_R_4.png","img/500/randomdotsizeEA/L/7_Ratio_500_L_10_R_5.png","img/500/equaldotanddens/L/10_Ratio_500_L_4_R_2.png","img/750/randomdotsizeEA/L/1_Ratio_750_L_20_R_15.png","img/250/randomdotsizeEA/L/3_Ratio_250_L_8_R_2.png","img/250/randomdotsizeEA/L/1_Ratio_250_L_8_R_2.png","img/500/equaldotsize/L/11_Ratio_500_L_12_R_6.png","img/250/equaldotsize/L/3_Ratio_250_L_8_R_2.png","img/750/equaldotanddens/R/15_Ratio_750_L_9_R_12.png","img/750/equaldotanddens/R/7_Ratio_750_L_3_R_4.png","img/250/randomdotsizeEA/L/14_Ratio_250_L_12_R_3.png","img/900/equaldotsize/L/8_Ratio_900_L_20_R_18.png","img/900/equaldotsize/L/10_Ratio_900_L_20_R_18.png","img/750/equaldotsize/R/12_Ratio_750_L_3_R_4.png"],"Rat0":[["12_Ratio_0_L_9_R_0.png","13_Ratio_0_L_6_R_0.png","5_Ratio_0_L_2_R_0.png","6_Ratio_0_L_4_R_0.png","8_Ratio_0_L_6_R_0.png"],["1_Ratio_0_L_0_R_17.png","10_Ratio_0_L_0_R_22.png","11_Ratio_0_L_0_R_1.png","14_Ratio_0_L_0_R_24.png","15_Ratio_0_L_0_R_4.png","2_Ratio_0_L_0_R_5.png","3_Ratio_0_L_0_R_17.png","4_Ratio_0_L_0_R_7.png","7_Ratio_0_L_0_R_19.png","9_Ratio_0_L_0_R_15.png"]],"Rat250":[["1_Ratio_250_L_8_R_2.png","14_Ratio_250_L_12_R_3.png","15_Ratio_250_L_12_R_3.png","2_Ratio_250_L_16_R_4.png","3_Ratio_250_L_8_R_2.png","5_Ratio_250_L_24_R_6.png","7_Ratio_250_L_8_R_2.png"],["10_Ratio_250_L_4_R_16.png","11_Ratio_250_L_3_R_12.png","12_Ratio_250_L_5_R_20.png","13_Ratio_250_L_2_R_8.png","4_Ratio_250_L_3_R_12.png","6_Ratio_250_L_6_R_24.png","8_Ratio_250_L_1_R_4.png","9_Ratio_250_L_3_R_12.png"]],"Rat500":[["10_Ratio_500_L_4_R_2.png","11_Ratio_500_L_12_R_6.png","13_Ratio_500_L_12_R_6.png","4_Ratio_500_L_18_R_9.png","5_Ratio_500_L_4_R_2.png","7_Ratio_500_L_10_R_5.png","8_Ratio_500_L_8_R_4.png"],["1_Ratio_500_L_9_R_18.png","12_Ratio_500_L_1_R_2.png","14_Ratio_500_L_5_R_10.png","15_Ratio_500_L_1_R_2.png","2_Ratio_500_L_3_R_6.png","3_Ratio_500_L_10_R_20.png","6_Ratio_500_L_9_R_18.png","9_Ratio_500_L_2_R_4.png"]],"Rat750":[["1_Ratio_750_L_20_R_15.png","10_Ratio_750_L_4_R_3.png","13_Ratio_750_L_8_R_6.png","14_Ratio_750_L_8_R_6.png","6_Ratio_750_L_24_R_18.png","8_Ratio_750_L_4_R_3.png","9_Ratio_750_L_4_R_3.png"],["11_Ratio_750_L_12_R_16.png","12_Ratio_750_L_3_R_4.png","15_Ratio_750_L_9_R_12.png","2_Ratio_750_L_6_R_8.png","3_Ratio_750_L_15_R_20.png","4_Ratio_750_L_15_R_20.png","5_Ratio_750_L_15_R_20.png","7_Ratio_750_L_3_R_4.png"]],"Rat900":[["1_Ratio_900_L_10_R_9.png","10_Ratio_900_L_20_R_18.png","2_Ratio_900_L_20_R_18.png","4_Ratio_900_L_20_R_18.png","8_Ratio_900_L_20_R_18.png"],["11_Ratio_900_L_18_R_20.png","12_Ratio_900_L_18_R_20.png","13_Ratio_900_L_18_R_20.png","14_Ratio_900_L_18_R_20.png","15_Ratio_900_L_9_R_10.png","3_Ratio_900_L_9_R_10.png","5_Ratio_900_L_9_R_10.png","6_Ratio_900_L_9_R_10.png","7_Ratio_900_L_9_R_10.png","9_Ratio_900_L_18_R_20.png"]],"Rat1000":[["10_Ratio_1000_L_16_R_16.png","11_Ratio_1000_L_6_R_6.png","12_Ratio_1000_L_14_R_14.png","13_Ratio_1000_L_20_R_20.png","15_Ratio_1000_L_15_R_15.png","2_Ratio_1000_L_17_R_17.png","4_Ratio_1000_L_9_R_9.png","5_Ratio_1000_L_6_R_6.png","6_Ratio_1000_L_19_R_19.png","8_Ratio_1000_L_14_R_14.png","9_Ratio_1000_L_25_R_25.png"],["1_Ratio_1000_L_1_R_1.png","14_Ratio_1000_L_17_R_17.png","3_Ratio_1000_L_17_R_17.png","7_Ratio_1000_L_6_R_6.png"]]}},{"start_time":1551801218346,"click_time":1551801220725,"finger_time":1551801219745,"fix_duration":1118.218408139249,"trial":1,"RT":1399,"MT":980,"sideResp":2,"stimulus":"img/250/equaldotsize/R/11_Ratio_250_L_3_R_12.png","xmouse":[821,821,821,821,821,821,821,821,821,821,821,821,821,821,821,821,821,821,821,821,821,821,821,821,821,821,821,821,821,821,821,821,821,821,821,821,821,821,821,821,821,821,821,821,821,821,821,821,821,821,821,821,821,821,821,821,821,821,821,821,821,821,821,821,821,821,821,822,839,860,875,888,904,941,947,960,971,976,989,998,1004,1012,1019,1029,1035,1039,1042,1044,1047,1047,1047,1047,1047,1048,1048,1049,1051,1052,1055,1058,1060,1062,1064,1070,1077,1079,1081,1082,1083,1083,1083,1083,1083,1083,1083,1084,1085,1087,1094],"ymouse":[515,515,515,515,515,515,515,515,515,515,515,515,515,515,515,515,515,515,515,515,515,515,515,515,515,515,515,515,515,515,515,515,515,515,515,515,515,515,515,515,515,515,515,515,515,515,515,515,515,515,515,515,514,512,512,511,511,511,511,511,511,511,511,511,511,511,509,505,472,442,422,406,386,354,350,342,337,334,326,320,314,303,293,269,250,235,221,212,202,196,195,194,194,193,193,191,190,188,186,183,181,178,174,157,140,132,122,116,109,109,109,109,109,109,109,108,106,104,95],"timestamp_mouse":[1,19,59,80,98,119,138,158,180,199,218,240,258,278,299,318,340,360,380,399,419,439,459,479,499,519,539,559,579,598,619,639,658,679,698,718,738,759,779,798,820,839,859,880,900,918,938,959,979,998,1019,1038,1058,1078,1098,1119,1138,1158,1178,1198,1218,1240,1258,1279,1299,1318,1338,1359,1379,1399,1419,1438,1459,1479,1498,1518,1539,1559,1579,1599,1619,1640,1659,1679,1699,1718,1738,1759,1778,1798,1818,1840,1860,1880,1899,1919,1938,1959,1980,2000,2019,2039,2059,2080,2098,2119,2140,2158,2178,2199,2219,2238,2259,2279,2299,2318,2338,2358,2378],"xSR":741.5,"ySR":469.95,"xT1":424.9,"yT1":0,"xT2":1058.1,"yT2":0,"toosoon":0,"cond_shown":"equaldotsize","ratio_trial":250,"smaller_num":"3","larger_num":"12","correct_side":2,"subjID":"CRISTIANANDRESMANCERABAEZ19","gender":"0","age":"12","school":"6"},{"start_time":1551801223273,"click_time":1551801224866,"finger_time":1551801224325,"fix_duration":1466.456348490064,"trial":2,"RT":1052,"MT":541,"sideResp":2,"stimulus":"img/900/randomdotsizeEA/R/3_Ratio_900_L_9_R_10.png","xmouse":[759,759,759,759,759,759,759,759,759,759,759,759,759,759,759,759,759,759,759,759,759,759,759,759,759,759,759,759,759,759,759,759,759,759,759,759,759,759,759,759,759,759,759,759,759,759,759,759,759,759,759,759,773,779,787,794,806,870,896,920,941,964,1004,1022,1045,1076,1084,1094,1094,1094,1094,1093,1086,1085,1084,1083,1083,1089,1099,1107],"ymouse":[509,509,509,509,509,509,509,509,509,509,509,509,509,509,509,509,509,509,509,509,509,509,509,509,509,509,509,509,509,509,509,509,509,509,509,509,509,509,509,509,509,509,509,509,509,509,509,509,509,506,503,496,461,444,426,409,390,332,312,297,283,269,240,228,213,193,186,174,173,172,171,169,165,163,160,155,149,126,111,95],"timestamp_mouse":[16,38,52,71,93,111,132,152,171,192,211,233,252,271,293,312,331,352,372,392,412,432,451,471,491,512,532,552,571,591,613,631,651,672,692,711,732,751,772,792,811,832,852,871,892,913,931,952,971,991,1012,1031,1052,1073,1091,1111,1131,1152,1171,1192,1211,1231,1252,1272,1291,1311,1331,1351,1371,1391,1412,1431,1451,1472,1491,1512,1532,1552,1572,1593],"xSR":741.5,"ySR":469.95,"xT1":424.9,"yT1":0,"xT2":1058.1,"yT2":0,"toosoon":0,"cond_shown":"randomdotsizeEA","ratio_trial":900,"smaller_num":"9","larger_num":"10","correct_side":2,"subjID":"CRISTIANANDRESMANCERABAEZ19","gender":"0","age":"12","school":"6"},{"start_time":1551801227844,"click_time":1551801230106,"finger_time":1551801228844,"fix_duration":718.4176080987945,"trial":3,"RT":1000,"MT":1262,"sideResp":2,"stimulus":"img/250/equaldotanddens/R/11_Ratio_250_L_3_R_12.png","xmouse":[792,792,792,792,792,792,792,792,792,792,792,792,792,792,791,790,790,790,790,790,790,790,790,790,790,790,790,790,790,790,790,790,789,788,788,788,788,788,788,788,788,788,788,788,788,788,788,788,788,787,795,805,815,827,839,858,864,867,867,867,868,872,878,885,889,902,907,915,919,924,929,931,931,935,937,940,940,940,940,940,940,940,940,940,940,943,945,946,947,949,953,955,957,958,960,974,980,987,989,993,997,997,997,998,999,1003,1005,1008,1011,1014,1028,1036,1048,1062],"ymouse":[483,483,483,483,483,483,483,483,483,483,483,483,483,483,483,483,483,483,483,483,483,483,483,483,483,483,483,483,483,483,483,483,483,483,483,483,483,483,483,483,483,483,483,483,483,483,483,483,483,482,465,453,439,423,404,344,319,290,279,273,267,261,241,233,224,207,201,191,187,180,172,169,165,160,153,146,145,145,145,145,145,145,145,145,144,142,139,138,136,134,129,127,125,123,122,118,116,114,113,112,111,111,111,111,111,110,109,109,108,106,105,103,100,96],"timestamp_mouse":[1,34,41,61,81,100,121,142,160,182,202,220,240,261,281,300,320,341,360,381,402,420,440,461,480,501,520,540,560,580,602,621,641,661,680,702,720,740,760,781,802,821,841,861,882,901,921,941,960,980,1000,1022,1040,1061,1081,1101,1121,1140,1160,1180,1200,1222,1240,1260,1280,1300,1322,1341,1360,1380,1400,1420,1442,1462,1481,1500,1521,1541,1560,1581,1602,1621,1641,1661,1681,1700,1722,1742,1760,1782,1801,1821,1840,1860,1880,1900,1921,1941,1962,1980,2000,2020,2041,2060,2081,2101,2121,2140,2160,2180,2201,2221,2241,2262],"xSR":741.5,"ySR":469.95,"xT1":424.9,"yT1":0,"xT2":1058.1,"yT2":0,"toosoon":0,"cond_shown":"equaldotanddens","ratio_trial":250,"smaller_num":"3","larger_num":"12","correct_side":2,"subjID":"CRISTIANANDRESMANCERABAEZ19","gender":"0","age":"12","school":"6"},{"start_time":1551801232048,"click_time":1551801233624,"finger_time":1551801232845,"fix_duration":821.2292796608048,"trial":4,"RT":797,"MT":779,"sideResp":2,"stimulus":"img/900/randomdotsizeEA/L/2_Ratio_900_L_20_R_18.png","xmouse":[791,791,791,791,791,791,791,791,791,791,791,791,791,791,791,791,791,791,791,791,791,791,791,791,791,791,791,791,791,791,791,791,791,791,791,791,791,791,796,820,835,848,857,863,900,920,931,933,935,942,945,950,955,958,960,961,963,966,970,982,988,993,998,1007,1017,1028,1031,1032,1033,1034,1036,1038,1040,1041,1044,1055,1057,1058,1059],"ymouse":[520,520,520,520,520,520,520,520,520,520,520,520,520,520,520,520,520,520,520,520,520,520,520,520,520,520,520,520,520,520,520,520,520,520,520,520,517,514,501,464,440,415,387,364,320,304,292,286,279,253,229,212,201,190,177,173,166,161,153,137,130,124,118,113,106,98,95,93,92,90,88,86,85,84,82,78,77,76,76],"timestamp_mouse":[16,37,58,77,96,118,136,157,176,196,216,238,256,278,297,316,337,356,378,396,417,437,456,476,496,516,536,556,578,597,617,637,657,677,696,717,737,757,776,797,816,836,857,877,896,916,936,957,976,996,1016,1037,1056,1076,1096,1117,1137,1157,1176,1197,1216,1237,1257,1278,1296,1317,1336,1358,1376,1396,1416,1437,1457,1477,1497,1516,1537,1556,1576],"xSR":741.5,"ySR":469.95,"xT1":424.9,"yT1":0,"xT2":1058.1,"yT2":0,"toosoon":0,"cond_shown":"randomdotsizeEA","ratio_trial":900,"smaller_num":"18","larger_num":"20","correct_side":1,"subjID":"CRISTIANANDRESMANCERABAEZ19","gender":"0","age":"12","school":"6"},{"start_time":1551801238072,"click_time":1551801239245,"finger_time":1551801238845,"fix_duration":346.7861553071679,"trial":5,"RT":773,"MT":400,"sideResp":1,"stimulus":"img/500/equaldotanddens/L/13_Ratio_500_L_12_R_6.png","xmouse":[780,780,780,781,781,781,781,781,781,781,781,781,781,781,781,781,781,781,781,781,781,781,781,781,781,781,781,781,781,781,781,781,781,781,781,776,768,760,752,738,733,726,715,704,650,633,627,621,620,620,620,620,619,615,604,596,579,553,522],"ymouse":[533,533,533,533,533,533,533,533,533,533,533,533,533,533,533,533,533,533,533,533,533,533,533,533,533,533,533,533,533,533,533,533,533,533,527,510,488,471,458,441,435,427,415,402,301,276,249,208,189,170,167,166,164,161,153,146,135,120,97],"timestamp_mouse":[13,40,53,72,93,113,132,152,173,193,212,232,253,273,293,312,332,353,373,393,412,433,453,474,493,512,533,553,572,592,613,632,653,673,694,712,733,752,773,792,813,832,853,873,892,913,932,952,972,992,1013,1034,1053,1072,1093,1112,1132,1153,1173],"xSR":741.5,"ySR":469.95,"xT1":424.9,"yT1":0,"xT2":1058.1,"yT2":0,"toosoon":0,"cond_shown":"equaldotanddens","ratio_trial":500,"smaller_num":"6","larger_num":"12","correct_side":1,"subjID":"CRISTIANANDRESMANCERABAEZ19","gender":"0","age":"12","school":"6"},{"start_time":1551801242098,"click_time":1551801243425,"finger_time":1551801242905,"fix_duration":632.3956643455912,"trial":6,"RT":807,"MT":520,"sideResp":1,"stimulus":"img/750/randomdotsizeEA/R/12_Ratio_750_L_3_R_4.png","xmouse":[807,807,807,807,807,807,807,807,807,807,807,807,807,807,807,807,807,807,807,807,807,807,807,807,807,807,806,805,804,803,803,803,803,803,803,802,802,802,801,801,790,770,749,694,682,676,673,672,669,666,663,659,656,647,642,638,634,631,627,627,619,613,606,598,569,546,521],"ymouse":[534,534,534,534,534,534,534,534,534,534,534,534,534,534,534,534,534,534,534,534,534,534,534,534,534,534,534,534,534,534,534,534,534,534,534,534,534,534,523,476,449,423,399,338,331,329,328,327,326,325,323,319,315,299,286,277,264,254,238,213,202,191,178,159,112,95,80],"timestamp_mouse":[8,26,46,67,87,108,127,148,167,187,206,228,246,266,287,307,326,348,367,387,408,426,447,466,488,507,527,547,566,586,607,626,646,666,686,706,726,748,766,787,807,828,847,867,886,907,926,946,967,986,1006,1028,1047,1067,1086,1106,1126,1147,1166,1186,1206,1228,1248,1266,1287,1307,1327],"xSR":741.5,"ySR":469.95,"xT1":424.9,"yT1":0,"xT2":1058.1,"yT2":0,"toosoon":0,"cond_shown":"randomdotsizeEA","ratio_trial":750,"smaller_num":"3","larger_num":"4","correct_side":2,"subjID":"CRISTIANANDRESMANCERABAEZ19","gender":"0","age":"12","school":"6"},{"start_time":1551801245788,"click_time":1551801246786,"finger_time":1551801246284,"fix_duration":1300.8236344785419,"trial":7,"RT":496,"MT":502,"sideResp":2,"stimulus":"img/750/equaldotsize/R/11_Ratio_750_L_12_R_16.png","xmouse":[780,784,784,784,784,786,786,786,786,786,786,786,786,786,786,786,786,788,788,788,790,793,799,813,863,892,911,932,946,960,974,984,995,1003,1009,1010,1015,1021,1028,1034,1035,1040,1045,1047,1049,1050,1051,1054,1058,1064],"ymouse":[534,544,544,544,545,546,546,546,546,546,546,546,546,546,546,546,546,545,544,539,534,525,511,487,415,374,339,305,270,223,157,130,108,91,70,61,51,40,32,25,25,24,23,22,22,22,22,22,21,21],"timestamp_mouse":[19,45,57,76,97,116,136,156,177,198,217,236,256,277,297,318,337,357,377,396,417,436,457,476,496,516,537,556,577,596,616,637,657,677,697,718,737,756,776,796,817,837,857,877,897,917,937,956,977,997],"xSR":741.5,"ySR":469.95,"xT1":424.9,"yT1":0,"xT2":1058.1,"yT2":0,"toosoon":0,"cond_shown":"equaldotsize","ratio_trial":750,"smaller_num":"12","larger_num":"16","correct_side":2,"subjID":"CRISTIANANDRESMANCERABAEZ19","gender":"0","age":"12","school":"6"},{"start_time":1551801248579,"click_time":1551801249685,"finger_time":1551801249325,"fix_duration":733.2647653182099,"trial":8,"RT":746,"MT":360,"sideResp":1,"stimulus":"img/500/equaldotsize/R/12_Ratio_500_L_1_R_2.png","xmouse":[810,810,810,810,810,810,810,810,810,810,810,810,810,810,810,810,811,811,811,811,811,811,811,811,811,811,811,811,811,811,811,811,811,811,811,807,800,792,784,774,750,739,728,716,701,650,619,596,582,574,563,553,545,536,528,522],"ymouse":[531,531,531,531,531,531,531,531,531,531,531,531,531,531,531,531,531,531,531,531,531,531,531,531,531,531,531,531,531,531,531,531,531,531,527,510,486,460,432,407,358,342,330,315,302,259,228,201,182,169,148,131,120,109,100,90],"timestamp_mouse":[9,37,46,65,86,106,126,146,166,185,207,225,247,265,286,306,325,345,367,386,407,425,445,466,485,506,525,546,567,586,606,625,646,665,686,705,726,746,765,785,806,826,845,865,885,905,925,945,965,985,1005,1025,1045,1066,1085,1105],"xSR":741.5,"ySR":469.95,"xT1":424.9,"yT1":0,"xT2":1058.1,"yT2":0,"toosoon":0,"cond_shown":"equaldotsize","ratio_trial":500,"smaller_num":"1","larger_num":"2","correct_side":2,"subjID":"CRISTIANANDRESMANCERABAEZ19","gender":"0","age":"12","school":"6"},{"start_time":1551801251628,"click_time":1551801252784,"finger_time":1551801252544,"fix_duration":1082.7017621268537,"trial":9,"RT":916,"MT":240,"sideResp":2,"stimulus":"img/750/equaldotsize/R/11_Ratio_750_L_12_R_16.png","xmouse":[785,783,782,778,778,778,778,778,778,778,778,778,778,778,778,778,778,778,778,778,778,778,778,778,778,778,778,778,778,778,778,778,778,776,775,772,770,770,770,770,769,769,769,771,795,848,994,1160,1180,1190,1193,1193,1185,1182,1178,1173,1162,1155],"ymouse":[492,493,494,496,496,496,496,496,498,501,504,507,509,509,509,509,509,509,509,509,509,509,509,509,509,509,509,509,509,509,509,509,509,512,513,517,518,518,518,518,518,518,518,511,479,427,312,195,172,155,136,120,92,78,64,53,37,29],"timestamp_mouse":[17,37,58,77,96,116,136,157,178,197,218,236,257,278,296,316,336,357,378,397,416,437,456,478,497,517,537,556,578,598,617,638,657,677,697,716,737,758,776,796,817,836,857,877,896,916,937,958,976,996,1017,1036,1057,1076,1097,1117,1137,1156],"xSR":741.5,"ySR":469.95,"xT1":424.9,"yT1":0,"xT2":1058.1,"yT2":0,"toosoon":0,"cond_shown":"equaldotsize","ratio_trial":750,"smaller_num":"12","larger_num":"16","correct_side":2,"subjID":"CRISTIANANDRESMANCERABAEZ19","gender":"0","age":"12","school":"6"},{"start_time":1551801254503,"click_time":1551801256486,"finger_time":1551801255324,"fix_duration":736.411879049442,"trial":10,"RT":821,"MT":1162,"sideResp":2,"stimulus":"img/900/equaldotanddens/R/3_Ratio_900_L_9_R_10.png","xmouse":[818,818,818,818,818,818,818,818,818,818,818,818,818,818,818,818,818,818,818,818,818,818,818,818,818,818,818,818,818,818,818,818,818,818,818,818,818,818,818,820,836,845,850,853,855,860,865,872,877,884,893,896,900,906,915,936,944,947,950,953,963,975,981,984,986,989,992,994,996,999,1000,1001,1004,1005,1007,1012,1014,1016,1017,1019,1020,1020,1020,1021,1023,1034,1038,1041,1042,1044,1049,1051,1051,1051,1051,1052,1053,1055,1057,1060],"ymouse":[535,535,535,535,535,535,535,535,535,535,535,535,535,535,535,535,535,535,535,535,535,535,535,535,535,535,535,535,535,535,535,535,535,535,535,535,535,535,533,529,502,487,478,469,460,435,420,403,391,382,369,365,360,352,341,316,303,294,284,270,227,184,138,116,98,75,67,61,56,53,52,51,49,49,49,48,47,47,47,46,46,46,46,46,46,46,46,46,46,46,45,45,45,45,45,44,44,44,44,44],"timestamp_mouse":[11,22,41,63,82,101,122,143,161,182,201,223,242,263,281,301,323,341,362,383,402,422,441,462,481,502,521,542,561,582,602,622,641,661,683,703,721,743,762,782,801,821,842,862,882,901,922,941,962,981,1001,1022,1041,1061,1081,1102,1122,1142,1162,1183,1201,1222,1241,1262,1281,1301,1321,1342,1361,1382,1401,1421,1443,1462,1481,1502,1521,1541,1562,1581,1603,1623,1642,1662,1681,1701,1722,1742,1762,1781,1801,1821,1842,1861,1882,1901,1921,1942,1961,1983],"xSR":741.5,"ySR":469.95,"xT1":424.9,"yT1":0,"xT2":1058.1,"yT2":0,"toosoon":0,"cond_shown":"equaldotanddens","ratio_trial":900,"smaller_num":"9","larger_num":"10","correct_side":2,"subjID":"CRISTIANANDRESMANCERABAEZ19","gender":"0","age":"12","school":"6"},{"start_time":1551801258305,"click_time":1551801259725,"finger_time":1551801259104,"fix_duration":799.1649450644982,"trial":11,"RT":799,"MT":621,"sideResp":2,"stimulus":"img/750/equaldotanddens/L/13_Ratio_750_L_8_R_6.png","xmouse":[790,790,790,790,790,790,790,790,790,790,790,790,790,790,790,790,790,790,790,790,790,790,790,790,790,790,790,793,794,796,796,796,796,796,796,796,796,798,799,800,846,893,935,968,991,1010,1014,1016,1017,1018,1020,1024,1025,1025,1026,1027,1030,1031,1034,1038,1049,1056,1064,1072,1083,1098,1101,1105,1107,1109,1111,1114],"ymouse":[518,518,518,518,518,518,518,518,518,518,518,518,518,518,518,518,518,518,518,518,518,518,518,518,518,518,518,518,518,517,517,517,517,517,517,517,517,517,516,513,468,433,402,378,360,338,331,322,316,310,301,285,280,275,272,268,259,254,246,238,214,202,189,177,163,139,130,123,116,110,103,94],"timestamp_mouse":[8,19,41,59,80,100,120,139,159,179,199,220,239,260,280,300,320,340,360,379,399,420,439,460,479,501,519,540,560,581,600,620,639,659,679,699,720,740,759,779,799,819,840,860,879,900,920,940,960,979,999,1019,1040,1060,1081,1099,1119,1140,1159,1180,1199,1219,1239,1260,1279,1300,1319,1339,1360,1379,1399,1419],"xSR":741.5,"ySR":469.95,"xT1":424.9,"yT1":0,"xT2":1058.1,"yT2":0,"toosoon":0,"cond_shown":"equaldotanddens","ratio_trial":750,"smaller_num":"6","larger_num":"8","correct_side":1,"subjID":"CRISTIANANDRESMANCERABAEZ19","gender":"0","age":"12","school":"6"},{"start_time":1551801265977,"click_time":1551801267344,"finger_time":1551801266744,"fix_duration":250,"trial":12,"RT":767,"MT":600,"sideResp":1,"stimulus":"img/250/equaldotanddens/R/10_Ratio_250_L_4_R_16.png","xmouse":[814,814,814,814,814,814,814,814,814,814,814,814,814,814,814,814,814,814,814,814,814,814,814,814,814,814,814,814,814,814,814,814,814,814,813,802,789,778,742,722,702,684,645,626,609,593,575,561,555,543,527,518,493,482,475,471,469,469,469,469,469,469,469,469,469,469,469,470,471],"ymouse":[521,521,521,521,521,521,521,521,521,521,521,521,521,521,521,521,521,521,521,521,521,521,521,521,521,521,521,521,521,521,521,521,521,521,521,509,495,481,442,420,399,386,365,351,339,321,295,265,252,222,192,179,143,132,122,117,114,113,113,113,113,113,113,113,113,112,109,102,98],"timestamp_mouse":[9,39,48,67,87,108,127,147,167,187,208,227,247,267,287,309,328,347,367,388,408,427,449,468,487,507,528,547,567,587,607,627,648,669,687,708,727,747,767,788,808,827,847,867,887,908,927,948,968,987,1007,1028,1048,1067,1087,1108,1128,1149,1167,1187,1207,1228,1247,1268,1288,1308,1328,1347,1367],"xSR":741.5,"ySR":469.95,"xT1":424.9,"yT1":0,"xT2":1058.1,"yT2":0,"toosoon":0,"cond_shown":"equaldotanddens","ratio_trial":250,"smaller_num":"4","larger_num":"16","correct_side":2,"subjID":"CRISTIANANDRESMANCERABAEZ19","gender":"0","age":"12","school":"6"},{"start_time":1551801269142,"click_time":1551801270204,"finger_time":1551801269745,"fix_duration":795.9821840579709,"trial":13,"RT":603,"MT":459,"sideResp":2,"stimulus":"img/750/equaldotanddens/L/9_Ratio_750_L_4_R_3.png","xmouse":[819,822,824,827,827,827,827,827,827,827,827,827,827,827,827,827,823,821,821,821,821,821,821,821,820,820,820,822,824,831,832,836,841,873,898,929,934,938,940,944,956,964,975,982,987,989,994,1001,1013,1024,1041,1047,1052,1060],"ymouse":[551,544,540,536,535,535,535,535,535,535,535,535,535,535,535,535,535,535,535,535,535,535,535,535,535,534,532,527,522,488,457,427,401,334,239,131,92,64,47,37,21,16,11,7,6,6,6,6,5,4,2,2,1,1],"timestamp_mouse":[8,23,47,63,82,103,124,143,162,183,202,224,242,262,282,302,322,342,363,384,402,422,443,463,483,503,523,543,562,583,603,623,642,662,683,703,722,743,763,783,803,822,842,864,884,902,923,943,962,983,1002,1023,1042,1062],"xSR":741.5,"ySR":469.95,"xT1":424.9,"yT1":0,"xT2":1058.1,"yT2":0,"toosoon":0,"cond_shown":"equaldotanddens","ratio_trial":750,"smaller_num":"3","larger_num":"4","correct_side":1,"subjID":"CRISTIANANDRESMANCERABAEZ19","gender":"0","age":"12","school":"6"},{"start_time":1551801272220,"click_time":1551801273543,"finger_time":1551801272803,"fix_duration":834.6931026876983,"trial":14,"RT":583,"MT":740,"sideResp":2,"stimulus":"img/250/equaldotsize/R/12_Ratio_250_L_5_R_20.png","xmouse":[764,764,764,764,764,764,764,764,764,764,764,764,764,764,764,764,764,764,764,764,763,753,745,742,742,742,742,742,742,741,741,741,741,739,739,738,737,737,747,751,758,771,779,787,797,810,827,845,862,883,903,1030,1109,1183,1235,1257,1257,1257,1257,1255,1246,1220,1205,1190,1176,1167,1152],"ymouse":[530,530,530,530,530,530,530,530,530,530,530,531,532,532,532,532,532,532,532,532,532,531,530,529,529,529,529,529,529,529,529,529,529,528,525,521,503,492,463,414,373,280,254,236,221,206,191,180,172,163,155,129,118,106,98,95,95,95,93,89,85,75,73,71,70,70,70],"timestamp_mouse":[10,38,44,64,83,104,123,143,165,183,203,223,244,264,284,303,324,344,364,383,404,423,444,463,483,504,524,543,563,583,604,624,645,663,683,705,723,743,764,784,803,825,844,863,884,903,923,944,963,985,1004,1023,1044,1063,1084,1104,1124,1143,1163,1184,1203,1224,1243,1264,1284,1303,1323],"xSR":741.5,"ySR":469.95,"xT1":424.9,"yT1":0,"xT2":1058.1,"yT2":0,"toosoon":0,"cond_shown":"equaldotsize","ratio_trial":250,"smaller_num":"5","larger_num":"20","correct_side":2,"subjID":"CRISTIANANDRESMANCERABAEZ19","gender":"0","age":"12","school":"6"},{"start_time":1551801275154,"click_time":1551801277344,"finger_time":1551801276104,"fix_duration":250,"trial":15,"RT":950,"MT":1240,"sideResp":1,"stimulus":"img/500/randomdotsizeEA/L/13_Ratio_500_L_12_R_6.png","xmouse":[766,766,766,766,766,766,766,766,766,766,766,766,766,766,766,766,766,766,766,766,766,766,766,766,766,766,766,766,766,766,766,766,766,766,766,766,766,766,766,766,766,766,765,765,765,765,765,765,765,759,753,748,741,731,709,698,689,679,670,645,637,632,624,616,605,602,599,596,593,576,569,558,547,538,527,519,516,515,515,512,512,511,510,510,508,508,507,506,506,508,514,514,514,514,514,514,514,514,514,514,514,514,514,514,514,514,512,509,508,506],"ymouse":[531,531,531,531,531,531,531,531,531,531,531,531,531,531,531,531,531,531,531,531,531,531,531,531,531,531,531,531,531,531,531,531,531,531,531,531,531,531,531,531,531,531,523,517,498,489,477,461,444,411,403,396,391,386,380,376,374,371,368,359,354,351,344,336,317,311,304,297,293,265,253,241,229,223,218,214,213,212,212,211,210,209,208,208,207,205,204,201,198,192,177,168,158,150,137,133,132,130,130,130,129,128,128,126,121,116,112,105,104,99],"timestamp_mouse":[9,29,50,69,90,111,130,150,170,190,209,231,249,269,289,310,330,349,369,389,410,431,450,469,491,509,530,549,569,590,610,631,649,669,689,711,730,750,769,790,810,829,849,869,890,909,930,950,970,991,1009,1029,1050,1070,1090,1109,1129,1150,1170,1190,1209,1230,1250,1270,1290,1309,1330,1349,1370,1389,1409,1430,1449,1469,1490,1509,1529,1551,1571,1590,1609,1629,1650,1670,1690,1709,1730,1749,1769,1789,1811,1829,1849,1869,1890,1909,1929,1950,1970,1989,2009,2029,2051,2069,2091,2109,2129,2149,2170,2190],"xSR":741.5,"ySR":469.95,"xT1":424.9,"yT1":0,"xT2":1058.1,"yT2":0,"toosoon":0,"cond_shown":"randomdotsizeEA","ratio_trial":500,"smaller_num":"6","larger_num":"12","correct_side":1,"subjID":"CRISTIANANDRESMANCERABAEZ19","gender":"0","age":"12","school":"6"},{"start_time":1551801278790,"click_time":1551801280845,"finger_time":1551801279805,"fix_duration":285.91536511009843,"trial":16,"RT":1015,"MT":1040,"sideResp":1,"stimulus":"img/750/equaldotsize/R/12_Ratio_750_L_3_R_4.png","xmouse":[773,773,773,773,773,773,773,773,773,773,773,773,773,773,773,773,773,773,773,773,773,773,773,773,773,773,773,773,773,773,773,773,773,773,773,773,773,773,774,775,775,773,766,763,760,757,756,754,748,744,739,729,708,629,530,424,266,266,266,266,266,266,266,266,266,266,266,266,266,266,266,266,266,266,266,266,266,224,248,262,272,292,301,309,316,325,333,341,359,370,380,387,392,398,398,398,398,398,402,406,413,420,425],"ymouse":[530,530,530,530,530,530,530,530,530,530,530,530,530,530,530,530,530,530,530,530,530,530,530,530,530,530,530,530,530,530,530,530,530,530,530,530,530,530,527,517,512,509,499,494,490,486,485,482,475,472,467,459,451,424,362,215,19,19,19,19,19,19,19,19,19,19,19,19,19,19,19,19,19,19,19,19,19,4,29,37,43,56,59,61,61,61,61,58,52,47,45,43,42,41,41,41,41,41,41,43,44,46,48],"timestamp_mouse":[14,39,54,74,94,113,133,154,175,194,214,233,254,274,293,313,334,353,373,394,413,434,454,473,493,513,534,553,573,594,614,634,655,673,693,714,733,753,773,794,813,833,855,873,894,914,934,954,974,994,1015,1033,1053,1073,1093,1113,1135,1153,1174,1193,1215,1233,1254,1275,1294,1313,1333,1353,1374,1394,1414,1433,1453,1473,1494,1513,1533,1555,1574,1593,1613,1633,1654,1673,1694,1713,1733,1754,1773,1793,1814,1834,1855,1875,1894,1913,1933,1953,1973,1993,2013,2033,2055],"xSR":741.5,"ySR":469.95,"xT1":424.9,"yT1":0,"xT2":1058.1,"yT2":0,"toosoon":0,"cond_shown":"equaldotsize","ratio_trial":750,"smaller_num":"3","larger_num":"4","correct_side":2,"subjID":"CRISTIANANDRESMANCERABAEZ19","gender":"0","age":"12","school":"6"},{"start_time":1551801283836,"click_time":1551801285183,"finger_time":1551801284063,"fix_duration":250,"trial":17,"RT":227,"MT":1120,"sideResp":2,"stimulus":"img/500/randomdotsizeEA/R/14_Ratio_500_L_5_R_10.png","xmouse":[820,821,821,822,822,822,823,824,824,824,824,824,825,826,829,832,836,836,836,836,836,836,836,836,836,836,836,836,836,836,836,836,836,836,836,837,845,860,874,885,892,901,908,910,911,912,915,917,920,923,930,940,963,980,1001,1025,1075,1092,1105,1115,1123,1125,1125,1127,1129,1130,1131,1131],"ymouse":[545,543,543,543,543,543,542,537,530,520,507,460,442,423,410,399,389,389,389,389,389,389,389,389,389,389,389,389,389,389,389,389,389,389,389,388,383,375,361,343,325,303,284,278,275,271,263,258,254,248,242,234,219,210,198,184,156,145,136,130,126,124,124,123,119,113,100,94],"timestamp_mouse":[8,41,48,68,87,108,128,148,169,188,208,227,247,267,287,308,327,349,367,387,407,428,447,467,489,508,528,548,567,588,608,629,648,668,688,707,727,747,769,788,807,827,848,867,888,908,927,948,968,988,1009,1028,1047,1067,1088,1109,1127,1147,1168,1188,1207,1228,1247,1267,1287,1307,1328,1347],"xSR":741.5,"ySR":469.95,"xT1":424.9,"yT1":0,"xT2":1058.1,"yT2":0,"toosoon":0,"cond_shown":"randomdotsizeEA","ratio_trial":500,"smaller_num":"5","larger_num":"10","correct_side":2,"subjID":"CRISTIANANDRESMANCERABAEZ19","gender":"0","age":"12","school":"6"},{"start_time":1551801290048,"click_time":1551801294924,"finger_time":1551801291225,"fix_duration":462.0607220435977,"trial":18,"RT":1177,"MT":3699,"sideResp":2,"stimulus":"img/500/equaldotanddens/L/11_Ratio_500_L_12_R_6.png","xmouse":[795,795,795,795,795,795,796,796,796,797,797,797,797,798,798,798,798,798,798,799,799,799,799,799,799,799,799,799,799,799,799,799,799,799,800,800,800,800,800,800,800,800,800,800,800,800,800,800,800,800,800,799,799,799,799,799,795,793,792,791,791,791,791,791,791,791,791,791,791,791,791,791,791,791,791,791,791,791,791,791,791,791,791,791,791,791,791,791,791,791,791,791,791,791,791,791,791,791,791,791,791,791,791,791,791,791,791,791,791,791,791,791,791,791,791,791,790,790,790,790,790,790,790,790,790,790,790,790,790,790,790,790,790,790,790,790,790,790,790,790,790,790,790,790,790,790,790,790,790,790,790,790,790,790,790,790,790,790,790,790,790,790,790,790,790,790,790,790,790,790,790,790,790,790,790,790,790,790,790,790,790,790,790,790,790,790,790,790,790,790,790,790,790,790,790,790,790,790,789,788,788,788,787,787,785,785,785,785,785,785,788,795,815,820,823,825,825,823,823,823,823,823,822,822,815,805,793,787,783,783,782,782,782,782,782,782,782,796,813,851,902,1005,1055,1094],"ymouse":[526,526,526,526,526,526,526,529,530,534,537,538,541,542,542,542,544,544,545,546,547,547,547,547,547,547,547,547,547,547,547,547,547,549,550,551,551,551,551,551,551,551,551,551,551,553,560,561,561,561,561,561,561,561,561,561,566,569,572,573,573,574,574,574,574,574,574,574,574,574,574,574,574,574,574,574,574,574,574,574,574,574,574,574,574,574,574,574,574,574,574,574,574,574,574,574,574,574,574,574,574,574,574,574,574,574,574,574,574,574,574,574,574,574,574,574,574,574,574,574,574,574,574,574,574,574,574,574,574,574,574,574,574,574,574,574,574,574,574,574,574,574,574,574,574,574,574,574,574,574,574,574,574,574,574,574,574,574,574,574,574,574,574,574,574,574,574,574,574,574,574,574,574,574,574,574,574,574,574,574,574,574,574,574,574,574,574,574,574,574,574,574,574,574,574,574,574,574,574,576,576,576,576,575,572,572,572,572,572,570,570,567,555,549,540,527,504,485,482,481,481,481,481,481,481,488,499,514,521,524,526,526,526,526,526,526,521,486,455,386,298,144,75,23],"timestamp_mouse":[16,42,55,75,97,115,136,156,175,195,215,235,255,277,296,315,337,356,375,395,416,435,457,475,496,516,535,556,577,595,617,635,656,676,696,715,736,756,777,795,816,836,855,877,895,916,935,956,976,995,1015,1036,1056,1075,1095,1115,1135,1156,1177,1195,1216,1236,1255,1275,1297,1316,1336,1355,1375,1396,1416,1436,1455,1475,1496,1516,1535,1555,1575,1596,1617,1636,1655,1675,1696,1715,1735,1755,1776,1796,1816,1836,1855,1876,1895,1916,1936,1955,1976,1996,2017,2036,2055,2075,2095,2115,2136,2156,2177,2196,2215,2235,2255,2276,2295,2315,2336,2357,2376,2395,2415,2435,2456,2476,2496,2515,2536,2556,2575,2596,2615,2637,2656,2676,2696,2716,2735,2755,2775,2796,2816,2836,2856,2875,2895,2915,2937,2957,2976,2996,3015,3037,3056,3076,3096,3116,3135,3156,3176,3197,3216,3236,3255,3275,3296,3315,3336,3355,3375,3397,3416,3436,3456,3475,3495,3517,3537,3555,3575,3597,3615,3636,3655,3676,3696,3715,3735,3755,3776,3797,3815,3835,3855,3875,3896,3916,3935,3956,3975,3997,4016,4036,4055,4077,4095,4116,4136,4156,4175,4195,4215,4236,4255,4276,4295,4315,4335,4357,4375,4396,4417,4437,4455,4475,4495,4515,4535,4555,4575,4595,4615,4636,4655,4675,4695,4716,4736,4756,4775,4796,4816,4836,4855,4876],"xSR":741.5,"ySR":469.95,"xT1":424.9,"yT1":0,"xT2":1058.1,"yT2":0,"toosoon":0,"cond_shown":"equaldotanddens","ratio_trial":500,"smaller_num":"6","larger_num":"12","correct_side":1,"subjID":"CRISTIANANDRESMANCERABAEZ19","gender":"0","age":"12","school":"6"},{"start_time":1551801299627,"click_time":1551801301543,"finger_time":1551801300303,"fix_duration":1321.5644749656697,"trial":19,"RT":676,"MT":1240,"sideResp":1,"stimulus":"img/250/equaldotanddens/R/11_Ratio_250_L_3_R_12.png","xmouse":[771,771,771,770,770,770,770,770,770,770,770,770,770,770,770,770,770,770,770,770,770,770,770,769,769,769,769,769,769,769,768,765,759,645,571,503,437,321,40,0,0,0,0,11,18,18,18,18,18,18,18,18,18,18,18,18,18,132,145,148,148,148,149,153,153,153,155,162,186,200,213,224,233,256,266,275,283,291,297,307,309,316,324,361,374,389,401,405,408,408,410,411,412,415,424,429],"ymouse":[497,497,492,486,486,486,486,486,486,486,486,486,486,486,486,486,486,486,486,486,486,485,485,483,483,483,483,483,483,482,481,480,479,451,425,397,359,281,150,96,64,39,23,7,1,1,1,1,1,1,1,1,1,1,1,1,1,1,21,25,25,26,30,36,36,38,39,43,53,57,60,62,63,63,63,61,61,60,58,57,57,55,55,51,51,51,51,50,50,50,50,49,49,48,45,44],"timestamp_mouse":[30,36,58,76,97,116,136,156,177,197,218,236,256,276,297,317,336,356,377,396,417,436,456,478,497,516,538,556,576,596,618,636,657,676,696,717,736,757,778,796,816,836,856,876,897,916,936,956,977,996,1017,1037,1056,1077,1098,1116,1137,1157,1177,1198,1217,1237,1257,1276,1296,1316,1336,1356,1376,1396,1416,1436,1457,1477,1497,1516,1536,1556,1576,1596,1617,1637,1656,1676,1696,1716,1737,1756,1776,1796,1817,1837,1858,1877,1896,1916],"xSR":741.5,"ySR":469.95,"xT1":424.9,"yT1":0,"xT2":1058.1,"yT2":0,"toosoon":0,"cond_shown":"equaldotanddens","ratio_trial":250,"smaller_num":"3","larger_num":"12","correct_side":2,"subjID":"CRISTIANANDRESMANCERABAEZ19","gender":"0","age":"12","school":"6"},{"start_time":1551801309497,"click_time":1551801310663,"finger_time":1551801310283,"fix_duration":250,"trial":20,"RT":786,"MT":380,"sideResp":2,"stimulus":"img/250/equaldotanddens/R/10_Ratio_250_L_4_R_16.png","xmouse":[796,796,796,796,796,796,797,797,797,797,797,797,797,797,797,797,797,797,797,797,797,797,797,797,797,797,797,797,796,796,796,796,796,796,796,796,804,815,831,854,872,894,903,903,903,903,903,903,903,903,903,917,929,944,961,987,1044,1056,1061],"ymouse":[511,511,511,512,512,512,513,513,513,513,513,513,513,513,513,513,513,513,513,513,513,513,513,513,513,513,513,515,515,515,515,515,515,515,515,515,509,495,481,465,453,426,400,365,331,305,235,208,185,163,146,118,106,98,89,82,66,61,59],"timestamp_mouse":[21,42,48,66,87,107,126,147,166,187,208,227,247,266,288,306,326,347,366,388,406,427,447,467,488,506,526,547,566,587,608,627,647,666,686,706,727,748,767,786,807,827,846,868,886,906,926,946,966,986,1007,1027,1046,1066,1086,1107,1126,1146,1166],"xSR":741.5,"ySR":469.95,"xT1":424.9,"yT1":0,"xT2":1058.1,"yT2":0,"toosoon":0,"cond_shown":"equaldotanddens","ratio_trial":250,"smaller_num":"4","larger_num":"16","correct_side":2,"subjID":"CRISTIANANDRESMANCERABAEZ19","gender":"0","age":"12","school":"6"},{"start_time":1551801312857,"click_time":1551801315963,"finger_time":1551801315603,"fix_duration":1211.955268481309,"trial":21,"RT":2746,"MT":360,"sideResp":1,"stimulus":"img/250/randomdotsizeEA/L/1_Ratio_250_L_8_R_2.png","xmouse":[813,813,813,813,813,813,813,813,813,813,813,813,813,813,813,813,813,813,813,813,813,813,813,813,813,813,813,813,813,813,813,813,813,813,813,813,813,813,813,813,813,813,813,813,813,813,813,813,813,813,813,813,813,813,813,813,813,813,813,813,813,813,813,813,813,813,813,813,813,813,813,813,813,813,813,813,813,813,813,813,813,813,813,813,813,813,813,813,813,813,813,813,813,813,813,813,813,813,813,813,813,813,813,813,813,813,813,813,813,813,813,813,813,813,813,813,813,813,813,813,813,813,813,813,813,813,813,813,813,813,813,813,813,811,799,784,767,735,707,642,618,602,592,586,575,563,559,555,551,545,542,540,535,529,506,496],"ymouse":[519,519,519,519,519,519,519,519,519,519,519,519,519,519,519,519,519,519,519,519,519,519,519,519,519,519,519,519,519,519,519,519,519,519,519,519,519,519,519,519,519,519,519,519,519,519,519,519,519,519,519,519,519,519,519,519,519,519,519,519,519,519,519,519,519,519,519,519,519,519,519,519,519,519,519,519,519,519,519,519,519,519,519,519,519,519,519,519,519,519,519,519,519,519,519,519,519,519,519,519,519,519,519,519,519,519,519,519,519,519,519,519,519,519,519,519,519,519,519,519,519,519,519,519,519,519,519,519,519,519,519,519,519,515,505,492,476,441,413,355,335,322,313,308,296,284,278,271,261,236,220,201,182,160,115,98],"timestamp_mouse":[8,31,46,67,87,106,127,146,166,188,207,227,246,268,287,307,328,346,366,387,406,428,448,467,487,506,526,547,567,587,607,626,647,667,687,708,726,746,768,786,806,827,846,867,886,907,926,948,966,987,1007,1027,1046,1066,1086,1107,1127,1148,1166,1187,1207,1226,1246,1267,1288,1306,1326,1347,1368,1387,1407,1427,1447,1466,1487,1507,1527,1546,1567,1588,1608,1627,1646,1666,1688,1707,1727,1746,1768,1787,1807,1827,1848,1867,1887,1908,1927,1946,1968,1987,2006,2026,2046,2068,2087,2107,2128,2146,2167,2188,2207,2226,2246,2267,2288,2306,2326,2346,2367,2386,2407,2427,2447,2467,2488,2506,2527,2546,2566,2587,2608,2627,2646,2667,2687,2706,2726,2746,2767,2786,2806,2826,2847,2866,2886,2907,2926,2947,2967,2987,3006,3027,3047,3067,3087,3106],"xSR":741.5,"ySR":469.95,"xT1":424.9,"yT1":0,"xT2":1058.1,"yT2":0,"toosoon":0,"cond_shown":"randomdotsizeEA","ratio_trial":250,"smaller_num":"2","larger_num":"8","correct_side":1,"subjID":"CRISTIANANDRESMANCERABAEZ19","gender":"0","age":"12","school":"6"},{"start_time":1551801320027,"click_time":1551801321444,"finger_time":1551801320803,"fix_duration":1340.1654806990257,"trial":22,"RT":776,"MT":641,"sideResp":1,"stimulus":"img/750/equaldotanddens/L/10_Ratio_750_L_4_R_3.png","xmouse":[769,769,769,769,769,769,769,769,769,769,769,769,769,769,769,769,769,769,769,769,769,769,769,769,769,769,769,769,769,769,769,769,769,769,769,769,772,774,774,775,779,781,785,798,815,831,859,869,875,878,880,880,880,879,872,838,807,765,723,683,631,614,600,593,581,576,562,554,543,531,521],"ymouse":[500,500,500,500,500,500,500,500,500,500,500,500,500,500,500,500,500,500,500,500,500,500,500,500,500,500,500,500,500,500,500,500,500,500,498,492,473,470,467,464,452,447,434,403,378,352,312,298,288,284,277,274,269,257,242,205,183,154,127,106,74,64,57,54,51,51,51,51,51,51,51],"timestamp_mouse":[33,38,56,76,96,116,137,158,176,197,218,236,257,278,297,317,337,358,377,396,417,437,457,477,497,517,536,557,576,596,616,636,657,677,696,716,736,757,776,796,818,836,856,876,897,916,937,956,976,996,1017,1036,1056,1077,1097,1117,1136,1157,1176,1196,1218,1236,1257,1276,1296,1316,1336,1356,1377,1397,1417],"xSR":741.5,"ySR":469.95,"xT1":424.9,"yT1":0,"xT2":1058.1,"yT2":0,"toosoon":0,"cond_shown":"equaldotanddens","ratio_trial":750,"smaller_num":"3","larger_num":"4","correct_side":1,"subjID":"CRISTIANANDRESMANCERABAEZ19","gender":"0","age":"12","school":"6"},{"start_time":1551801324633,"click_time":1551801325845,"finger_time":1551801325443,"fix_duration":987.0276833948814,"trial":23,"RT":810,"MT":402,"sideResp":1,"stimulus":"img/900/equaldotanddens/L/2_Ratio_900_L_20_R_18.png","xmouse":[750,750,750,752,753,754,754,754,754,754,754,754,754,754,754,754,754,754,754,754,754,754,754,754,754,754,754,754,754,754,754,754,754,754,754,754,754,754,750,745,736,709,694,668,639,608,561,548,539,535,534,532,529,527,524,523,521,520,520,519,518],"ymouse":[518,518,522,525,527,528,528,528,528,528,528,528,528,528,528,528,528,528,528,528,528,528,528,528,528,528,528,528,528,528,528,528,528,528,528,528,528,529,518,510,490,442,392,328,273,222,152,136,125,120,118,116,112,110,107,106,103,102,102,100,99],"timestamp_mouse":[10,33,50,71,90,110,130,150,170,191,211,230,251,271,291,311,331,351,371,391,410,430,450,471,490,510,531,552,571,591,612,630,650,672,691,710,730,751,770,791,810,830,850,870,892,911,930,950,970,991,1010,1030,1050,1070,1091,1110,1131,1150,1171,1190,1211],"xSR":741.5,"ySR":469.95,"xT1":424.9,"yT1":0,"xT2":1058.1,"yT2":0,"toosoon":0,"cond_shown":"equaldotanddens","ratio_trial":900,"smaller_num":"18","larger_num":"20","correct_side":1,"subjID":"CRISTIANANDRESMANCERABAEZ19","gender":"0","age":"12","school":"6"},{"start_time":1551801327575,"click_time":1551801328804,"finger_time":1551801328503,"fix_duration":811.6093682544158,"trial":24,"RT":928,"MT":301,"sideResp":2,"stimulus":"img/900/equaldotsize/L/2_Ratio_900_L_20_R_18.png","xmouse":[802,802,802,802,802,802,802,802,802,802,802,802,802,802,802,802,802,802,802,802,802,802,802,802,802,802,802,802,802,802,802,802,802,802,802,802,802,802,802,802,802,802,802,802,802,816,837,855,867,875,891,902,916,932,956,982,994,1008,1022,1041,1081,1094],"ymouse":[498,498,498,498,498,498,498,498,498,498,498,498,498,498,498,498,498,498,498,498,498,498,498,498,498,498,498,498,498,498,498,498,498,498,498,498,498,498,498,498,498,498,498,498,498,478,452,418,390,366,325,307,291,273,253,226,213,196,176,154,114,99],"timestamp_mouse":[8,28,49,69,89,109,129,148,169,188,210,229,248,268,290,309,328,350,368,388,408,428,449,469,488,508,528,549,568,588,608,628,649,669,689,708,730,748,770,788,809,829,849,870,889,909,928,949,968,989,1009,1029,1048,1068,1088,1108,1128,1149,1168,1190,1209,1228],"xSR":741.5,"ySR":469.95,"xT1":424.9,"yT1":0,"xT2":1058.1,"yT2":0,"toosoon":0,"cond_shown":"equaldotsize","ratio_trial":900,"smaller_num":"18","larger_num":"20","correct_side":1,"subjID":"CRISTIANANDRESMANCERABAEZ19","gender":"0","age":"12","school":"6"},{"start_time":1551801335839,"click_time":1551801337244,"finger_time":1551801336205,"fix_duration":1050.8469340991164,"trial":25,"RT":366,"MT":1039,"sideResp":2,"stimulus":"img/500/equaldotsize/R/15_Ratio_500_L_1_R_2.png","xmouse":[793,793,793,793,793,793,793,793,793,793,793,793,792,792,792,792,791,786,771,754,731,699,663,620,613,612,612,612,612,612,611,608,589,580,569,560,550,541,535,534,534,534,534,534,534,534,534,534,534,543,569,616,797,876,893,893,893,899,904,906,909,912,916,950,999,1043,1067,1073,1073,1073,1078],"ymouse":[499,499,499,499,499,499,499,499,499,499,499,499,499,499,499,499,495,482,440,409,378,339,298,253,246,243,243,243,243,243,243,239,222,210,195,178,160,139,122,119,118,118,118,118,118,118,118,118,117,119,125,131,131,130,125,125,125,118,115,113,111,109,108,102,102,102,102,101,101,101,99],"timestamp_mouse":[8,26,58,65,84,106,124,144,166,185,206,224,245,266,284,305,325,344,366,384,405,425,445,464,485,504,526,545,565,585,604,624,644,666,686,704,724,745,765,785,804,824,845,864,886,904,924,946,965,984,1006,1025,1045,1064,1085,1104,1124,1145,1164,1186,1205,1225,1245,1265,1284,1304,1325,1346,1365,1384,1405],"xSR":741.5,"ySR":469.95,"xT1":424.9,"yT1":0,"xT2":1058.1,"yT2":0,"toosoon":0,"cond_shown":"equaldotsize","ratio_trial":500,"smaller_num":"1","larger_num":"2","correct_side":2,"subjID":"CRISTIANANDRESMANCERABAEZ19","gender":"0","age":"12","school":"6"},{"start_time":1551801340484,"click_time":1551801341683,"finger_time":1551801341304,"fix_duration":757.5100773801405,"trial":26,"RT":820,"MT":379,"sideResp":2,"stimulus":"img/750/equaldotsize/R/12_Ratio_750_L_3_R_4.png","xmouse":[779,779,779,779,779,779,779,779,779,779,779,779,779,779,779,779,779,779,779,779,779,779,779,779,779,779,779,779,779,779,779,779,779,779,779,779,779,779,780,784,795,859,885,952,981,1004,1036,1041,1042,1042,1042,1042,1042,1042,1042,1042,1042,1044,1053,1072,1090],"ymouse":[541,541,541,541,541,541,541,541,541,541,541,541,541,541,541,541,541,541,541,541,541,541,541,541,541,541,541,541,541,541,541,541,541,541,541,541,541,541,541,537,526,481,447,350,297,255,191,174,166,159,155,149,145,135,131,127,121,117,109,100,93],"timestamp_mouse":[2,35,39,60,80,101,119,139,160,179,200,220,241,260,279,299,319,340,360,380,401,419,441,459,479,500,520,540,561,579,600,619,641,661,680,700,721,740,760,779,799,820,840,859,880,900,921,941,960,979,1000,1019,1041,1060,1079,1101,1120,1140,1160,1180,1199],"xSR":741.5,"ySR":469.95,"xT1":424.9,"yT1":0,"xT2":1058.1,"yT2":0,"toosoon":0,"cond_shown":"equaldotsize","ratio_trial":750,"smaller_num":"3","larger_num":"4","correct_side":2,"subjID":"CRISTIANANDRESMANCERABAEZ19","gender":"0","age":"12","school":"6"},{"start_time":1551801344892,"click_time":1551801347324,"finger_time":1551801345624,"fix_duration":787.9292198753019,"trial":27,"RT":732,"MT":1700,"sideResp":1,"stimulus":"img/900/randomdotsizeEA/L/4_Ratio_900_L_20_R_18.png","xmouse":[820,820,820,820,820,820,820,820,820,820,820,820,820,820,820,820,820,820,820,820,820,820,820,820,820,820,820,820,820,820,820,820,820,820,814,792,769,741,709,682,630,567,550,540,535,533,533,532,532,532,532,532,530,529,527,524,514,510,507,507,505,505,505,505,505,505,505,505,505,505,505,505,506,507,509,511,513,513,513,513,513,513,513,513,513,513,513,513,512,512,512,512,512,512,512,512,511,511,511,511,511,511,511,511,511,512,512,512,512,512,512,512,512,512,512,512,512,512,512,512,512,513],"ymouse":[540,540,540,540,540,540,540,540,540,540,540,540,540,540,540,540,540,540,540,540,540,540,540,540,540,540,540,540,540,540,540,540,540,540,537,507,463,424,377,343,308,274,267,261,259,256,256,254,252,248,236,226,223,217,211,201,176,162,151,146,143,143,143,143,143,143,143,143,143,143,143,143,142,142,140,137,134,132,132,132,132,132,131,131,131,131,130,130,129,129,129,129,129,129,128,128,126,125,123,119,117,112,110,109,107,105,105,105,105,105,105,104,103,102,101,100,100,100,100,100,100,99],"timestamp_mouse":[12,31,59,72,92,113,131,151,172,193,211,233,252,272,293,312,332,353,372,391,413,431,453,472,491,513,531,552,571,591,611,632,651,672,692,712,732,752,772,793,811,832,851,872,891,913,931,951,971,992,1012,1032,1051,1072,1092,1111,1131,1151,1172,1193,1213,1231,1252,1272,1292,1312,1332,1352,1371,1392,1412,1431,1451,1472,1492,1513,1531,1551,1571,1591,1611,1632,1652,1672,1692,1712,1732,1752,1772,1792,1812,1831,1851,1871,1891,1912,1931,1952,1972,1993,2012,2033,2051,2072,2092,2113,2131,2151,2172,2193,2211,2231,2251,2271,2292,2312,2331,2352,2372,2391,2411,2432],"xSR":741.5,"ySR":469.95,"xT1":424.9,"yT1":0,"xT2":1058.1,"yT2":0,"toosoon":0,"cond_shown":"randomdotsizeEA","ratio_trial":900,"smaller_num":"18","larger_num":"20","correct_side":1,"subjID":"CRISTIANANDRESMANCERABAEZ19","gender":"0","age":"12","school":"6"},{"start_time":1551801351187,"click_time":1551801352924,"finger_time":1551801351983,"fix_duration":1282.3483105203522,"trial":28,"RT":796,"MT":941,"sideResp":1,"stimulus":"img/900/equaldotanddens/R/7_Ratio_900_L_9_R_10.png","xmouse":[791,790,790,790,790,790,790,790,790,790,790,790,790,790,790,790,790,790,790,790,790,790,790,790,790,790,790,790,790,790,790,790,790,790,790,790,802,817,834,851,863,842,824,799,775,757,734,727,722,719,716,704,693,686,678,666,651,648,648,648,648,647,637,628,613,595,579,561,555,551,545,530,524,520,517,513,510,503,501,500,499,499,499,499,499,499,501],"ymouse":[538,539,539,539,539,539,539,539,539,539,539,539,539,539,539,539,539,539,539,539,539,539,539,539,539,539,539,539,539,539,539,539,539,539,539,532,511,492,473,452,432,345,328,316,307,302,292,287,282,278,273,252,240,229,220,211,204,203,203,203,203,202,198,193,185,175,166,157,155,152,150,145,143,140,138,136,133,126,119,114,109,103,101,101,100,100,96],"timestamp_mouse":[18,52,57,78,96,116,138,156,176,197,218,237,256,277,297,316,336,358,376,397,416,438,456,477,496,517,536,557,578,596,617,637,656,677,697,717,736,757,776,796,816,837,858,876,897,917,938,956,976,996,1016,1037,1057,1076,1097,1116,1138,1158,1176,1196,1217,1236,1257,1276,1298,1317,1337,1356,1377,1397,1417,1437,1458,1476,1496,1516,1536,1556,1578,1597,1617,1636,1656,1676,1697,1716,1736],"xSR":741.5,"ySR":469.95,"xT1":424.9,"yT1":0,"xT2":1058.1,"yT2":0,"toosoon":0,"cond_shown":"equaldotanddens","ratio_trial":900,"smaller_num":"9","larger_num":"10","correct_side":2,"subjID":"CRISTIANANDRESMANCERABAEZ19","gender":"0","age":"12","school":"6"},{"start_time":1551801356735,"click_time":1551801358265,"finger_time":1551801357484,"fix_duration":250,"trial":29,"RT":749,"MT":781,"sideResp":2,"stimulus":"img/250/randomdotsizeEA/R/10_Ratio_250_L_4_R_16.png","xmouse":[756,756,756,756,756,756,756,756,756,756,756,756,756,756,756,756,756,756,756,756,756,756,756,756,756,757,757,757,758,760,771,775,777,780,782,805,824,845,875,918,1073,1103,1163,1190,1210,1250,1275,1294,1310,1318,1331,1334,1334,1334,1332,1316,1307,1299,1287,1275,1239,1219,1190,1169,1153,1130,1125,1123,1122,1122,1121,1120,1120,1120,1122,1135,1140],"ymouse":[551,551,551,551,551,551,551,551,551,551,551,551,551,551,551,551,551,551,552,553,557,558,558,558,558,559,559,559,558,557,543,536,534,530,528,511,498,482,462,434,342,319,272,249,232,210,200,188,175,160,131,115,109,106,103,101,101,101,101,102,107,109,112,114,114,114,114,115,116,116,115,113,113,112,110,102,98],"timestamp_mouse":[9,39,49,69,88,110,130,148,169,190,208,229,250,270,288,309,329,349,369,388,408,428,449,469,488,510,528,549,569,590,608,629,648,670,689,709,729,749,768,789,808,829,848,869,889,910,929,949,969,990,1008,1030,1048,1068,1088,1109,1128,1149,1169,1189,1208,1229,1249,1269,1289,1308,1330,1349,1369,1389,1408,1429,1449,1468,1489,1510,1530],"xSR":741.5,"ySR":469.95,"xT1":424.9,"yT1":0,"xT2":1058.1,"yT2":0,"toosoon":0,"cond_shown":"randomdotsizeEA","ratio_trial":250,"smaller_num":"4","larger_num":"16","correct_side":2,"subjID":"CRISTIANANDRESMANCERABAEZ19","gender":"0","age":"12","school":"6"},{"start_time":1551801370034,"click_time":1551801371264,"finger_time":1551801370784,"fix_duration":1249.147248330392,"trial":30,"RT":750,"MT":480,"sideResp":2,"stimulus":"img/250/randomdotsizeEA/R/12_Ratio_250_L_5_R_20.png","xmouse":[770,770,770,770,770,770,770,770,770,770,770,770,770,770,770,770,770,770,770,770,770,770,770,770,770,770,770,770,770,770,770,770,773,783,795,808,818,836,842,845,848,867,894,920,936,964,976,981,984,988,990,991,991,991,993,994,997,998,1005,1021,1045,1122],"ymouse":[509,509,509,509,509,509,509,509,509,509,509,509,509,509,509,509,509,509,509,509,509,509,509,509,509,509,509,509,509,509,509,509,507,500,492,482,471,436,410,390,378,354,337,317,301,241,93,75,61,49,39,22,17,12,10,9,9,9,10,19,32,73],"timestamp_mouse":[9,34,49,69,89,110,130,150,169,191,209,230,249,270,291,310,330,350,371,390,410,430,449,471,489,509,529,550,570,590,609,629,651,669,689,710,729,750,770,790,809,830,849,870,890,910,930,949,969,990,1009,1030,1049,1070,1090,1109,1130,1150,1171,1190,1209,1229],"xSR":741.5,"ySR":469.95,"xT1":424.9,"yT1":0,"xT2":1058.1,"yT2":0,"toosoon":0,"cond_shown":"randomdotsizeEA","ratio_trial":250,"smaller_num":"5","larger_num":"20","correct_side":2,"subjID":"CRISTIANANDRESMANCERABAEZ19","gender":"0","age":"12","school":"6"},{"start_time":1551801373856,"click_time":1551801374784,"finger_time":1551801374485,"fix_duration":250,"trial":31,"RT":629,"MT":299,"sideResp":1,"stimulus":"img/750/equaldotsize/L/14_Ratio_750_L_8_R_6.png","xmouse":[790,790,790,790,790,790,790,790,790,790,790,790,790,790,790,790,790,790,790,790,790,790,790,790,790,790,790,790,790,790,790,767,744,718,688,624,584,517,445,417,405,401,401,410,422,438,466],"ymouse":[529,529,529,529,529,529,529,529,529,529,529,529,529,529,529,529,529,529,529,529,529,529,529,529,529,529,529,529,529,527,508,463,443,423,402,359,332,280,235,216,206,186,174,158,141,122,93],"timestamp_mouse":[9,40,48,69,87,107,128,149,168,189,208,229,248,269,288,308,328,348,369,387,407,429,448,469,488,509,527,548,568,588,607,629,648,668,687,709,727,747,767,788,808,828,847,867,888,909,928],"xSR":741.5,"ySR":469.95,"xT1":424.9,"yT1":0,"xT2":1058.1,"yT2":0,"toosoon":0,"cond_shown":"equaldotsize","ratio_trial":750,"smaller_num":"6","larger_num":"8","correct_side":1,"subjID":"CRISTIANANDRESMANCERABAEZ19","gender":"0","age":"12","school":"6"},{"start_time":1551801376148,"click_time":1551801376984,"finger_time":1551801376864,"fix_duration":463.52735023637194,"trial":32,"RT":716,"MT":120,"sideResp":2,"stimulus":"img/500/equaldotsize/R/12_Ratio_500_L_1_R_2.png","xmouse":[828,828,826,826,825,825,825,825,825,825,825,825,825,825,825,825,825,825,825,825,825,825,825,825,825,825,825,825,825,825,825,825,825,825,839,886,1018,1076,1113,1135,1143,1145],"ymouse":[555,555,549,538,532,527,525,525,525,525,525,525,525,525,525,525,525,525,525,525,525,525,525,525,525,525,525,525,525,525,525,525,525,520,496,442,279,212,171,126,100,75],"timestamp_mouse":[16,36,56,76,97,116,135,155,176,195,215,237,255,277,296,317,336,356,377,397,416,435,456,476,495,517,536,555,577,595,615,636,655,676,696,716,737,756,775,795,817,836],"xSR":741.5,"ySR":469.95,"xT1":424.9,"yT1":0,"xT2":1058.1,"yT2":0,"toosoon":0,"cond_shown":"equaldotsize","ratio_trial":500,"smaller_num":"1","larger_num":"2","correct_side":2,"subjID":"CRISTIANANDRESMANCERABAEZ19","gender":"0","age":"12","school":"6"},{"start_time":1551801378993,"click_time":1551801380104,"finger_time":1551801379703,"fix_duration":1009.501566073124,"trial":33,"RT":710,"MT":401,"sideResp":2,"stimulus":"img/500/equaldotanddens/R/2_Ratio_500_L_3_R_6.png","xmouse":[777,777,777,777,777,777,777,777,777,777,777,777,777,777,777,777,778,779,779,779,779,779,779,779,779,779,779,779,779,779,779,779,783,786,824,897,986,1070,1119,1148,1167,1173,1179,1184,1189,1189,1189,1189,1189,1189,1189,1189,1189,1189,1189,1089],"ymouse":[513,513,512,512,512,512,512,512,512,512,512,512,512,512,512,512,512,512,512,512,512,512,512,512,512,512,512,512,512,512,512,512,510,506,470,419,364,309,264,225,174,154,112,83,55,2,2,2,2,2,2,2,2,2,2,9],"timestamp_mouse":[11,37,51,72,91,110,131,152,171,192,211,231,251,271,291,311,330,350,372,391,410,431,451,471,491,511,530,551,570,591,612,631,651,671,691,710,731,751,771,790,810,831,852,871,891,910,931,950,970,991,1012,1031,1051,1071,1091,1111],"xSR":741.5,"ySR":469.95,"xT1":424.9,"yT1":0,"xT2":1058.1,"yT2":0,"toosoon":0,"cond_shown":"equaldotanddens","ratio_trial":500,"smaller_num":"3","larger_num":"6","correct_side":2,"subjID":"CRISTIANANDRESMANCERABAEZ19","gender":"0","age":"12","school":"6"},{"start_time":1551801382272,"click_time":1551801383143,"finger_time":1551801382885,"fix_duration":826.6720946040326,"trial":34,"RT":613,"MT":258,"sideResp":1,"stimulus":"img/250/equaldotanddens/L/5_Ratio_250_L_24_R_6.png","xmouse":[807,807,807,807,807,807,807,807,807,807,807,807,807,807,807,807,807,809,810,811,812,813,814,814,814,814,814,814,814,814,793,770,740,691,618,581,552,546,540,533,514,508,502,498],"ymouse":[506,507,507,507,507,507,507,507,507,507,507,507,507,507,507,507,507,507,503,500,497,495,493,493,493,493,493,491,490,486,462,445,416,362,275,229,183,167,153,140,120,113,104,97],"timestamp_mouse":[12,44,53,72,92,113,132,151,172,191,213,231,251,272,291,311,333,351,372,392,411,431,453,472,491,513,532,551,573,592,613,631,651,671,692,711,731,752,772,792,813,831,852,871],"xSR":741.5,"ySR":469.95,"xT1":424.9,"yT1":0,"xT2":1058.1,"yT2":0,"toosoon":0,"cond_shown":"equaldotanddens","ratio_trial":250,"smaller_num":"6","larger_num":"24","correct_side":1,"subjID":"CRISTIANANDRESMANCERABAEZ19","gender":"0","age":"12","school":"6"},{"start_time":1551801384657,"click_time":1551801385664,"finger_time":1551801385263,"fix_duration":853.7086292174452,"trial":35,"RT":606,"MT":401,"sideResp":2,"stimulus":"img/250/equaldotsize/R/4_Ratio_250_L_3_R_12.png","xmouse":[782,782,782,782,782,782,782,782,782,782,782,782,782,782,782,782,782,782,782,782,782,782,782,782,782,782,785,792,797,802,810,817,858,912,942,956,962,967,968,971,974,979,998,1011,1014,1017,1022,1040,1052,1058,1060],"ymouse":[504,504,504,504,504,504,504,504,504,504,504,504,504,504,504,504,504,504,504,504,504,504,504,504,504,504,504,495,488,480,463,406,265,174,135,116,107,97,96,92,88,84,78,75,75,74,73,71,70,69,68],"timestamp_mouse":[9,35,47,68,87,108,127,146,168,187,208,226,246,267,287,306,326,348,366,386,407,428,446,467,487,507,527,547,566,586,606,627,646,668,686,707,727,746,766,787,807,826,846,867,886,908,926,946,966,987,1007],"xSR":741.5,"ySR":469.95,"xT1":424.9,"yT1":0,"xT2":1058.1,"yT2":0,"toosoon":0,"cond_shown":"equaldotsize","ratio_trial":250,"smaller_num":"3","larger_num":"12","correct_side":2,"subjID":"CRISTIANANDRESMANCERABAEZ19","gender":"0","age":"12","school":"6"},{"start_time":1551801387615,"click_time":1551801389285,"finger_time":1551801388644,"fix_duration":1130.8069576211087,"trial":36,"RT":1029,"MT":641,"sideResp":2,"stimulus":"img/750/equaldotanddens/R/4_Ratio_750_L_15_R_20.png","xmouse":[808,808,808,808,807,806,805,803,802,802,801,800,799,799,799,799,799,799,799,799,799,799,799,799,799,799,799,799,799,799,799,799,799,799,799,799,799,799,799,798,798,798,798,798,798,798,798,798,798,800,814,826,836,847,874,881,890,899,910,938,952,965,984,1008,1039,1056,1059,1061,1061,1065,1065,1066,1067,1067,1068,1069,1070,1071,1073,1073,1073,1075,1075,1077],"ymouse":[497,497,497,497,497,498,498,499,500,500,500,501,501,501,501,501,501,501,501,501,501,501,501,501,501,501,501,501,501,501,501,501,501,501,501,501,501,501,501,501,501,501,501,501,501,501,501,501,497,494,473,459,444,428,381,367,354,342,328,298,284,266,246,224,201,185,180,176,173,164,160,155,147,144,129,123,117,112,107,104,102,101,101,99],"timestamp_mouse":[8,43,50,68,89,109,128,149,169,189,209,230,249,269,289,309,328,350,368,390,408,429,449,468,489,510,528,548,569,589,608,630,648,669,688,710,728,748,768,790,810,828,848,870,889,909,930,948,968,988,1008,1029,1049,1069,1089,1109,1128,1149,1169,1189,1209,1228,1248,1268,1289,1310,1328,1348,1368,1389,1408,1428,1449,1469,1489,1509,1529,1548,1568,1589,1608,1630,1649,1670],"xSR":741.5,"ySR":469.95,"xT1":424.9,"yT1":0,"xT2":1058.1,"yT2":0,"toosoon":0,"cond_shown":"equaldotanddens","ratio_trial":750,"smaller_num":"15","larger_num":"20","correct_side":2,"subjID":"CRISTIANANDRESMANCERABAEZ19","gender":"0","age":"12","school":"6"},{"start_time":1551801391345,"click_time":1551801392823,"finger_time":1551801392063,"fix_duration":1120.1593156784522,"trial":37,"RT":718,"MT":760,"sideResp":2,"stimulus":"img/500/equaldotsize/R/14_Ratio_500_L_5_R_10.png","xmouse":[816,816,816,816,816,816,816,816,816,816,816,816,816,816,816,816,816,816,816,816,816,816,816,816,816,816,816,816,816,816,816,818,821,826,838,861,881,903,926,931,935,938,941,947,948,956,963,969,982,997,1013,1038,1074,1129,1136,1141,1143,1146,1146,1146,1146,1146,1144,1142,1138,1137,1134,1132,1130,1129,1128,1128,1128,1128],"ymouse":[509,509,509,509,509,509,509,509,509,509,509,509,509,509,509,509,509,509,509,509,509,509,509,509,509,509,509,509,509,509,509,509,506,497,478,444,416,383,342,328,317,305,295,268,264,248,238,230,217,211,204,196,186,161,156,147,144,140,135,132,128,124,122,120,118,117,114,113,110,109,106,104,102,98],"timestamp_mouse":[18,41,59,79,98,119,138,159,179,199,219,238,259,279,299,320,339,358,380,399,418,438,459,480,498,518,539,559,578,598,619,639,660,678,698,718,738,759,778,799,818,838,858,879,900,919,938,958,978,999,1019,1039,1058,1078,1099,1119,1139,1160,1179,1199,1219,1239,1259,1278,1299,1318,1339,1359,1379,1400,1419,1438,1460,1478],"xSR":741.5,"ySR":469.95,"xT1":424.9,"yT1":0,"xT2":1058.1,"yT2":0,"toosoon":0,"cond_shown":"equaldotsize","ratio_trial":500,"smaller_num":"5","larger_num":"10","correct_side":2,"subjID":"CRISTIANANDRESMANCERABAEZ19","gender":"0","age":"12","school":"6"},{"start_time":1551801393696,"click_time":1551801394763,"finger_time":1551801394445,"fix_duration":250,"trial":38,"RT":749,"MT":318,"sideResp":2,"stimulus":"img/750/equaldotanddens/R/11_Ratio_750_L_12_R_16.png","xmouse":[769,769,771,771,771,771,771,771,771,771,771,771,771,771,771,771,771,771,771,771,771,771,771,771,771,771,766,765,765,765,765,765,765,765,765,765,775,793,805,824,843,861,862,862,862,862,865,871,878,894,915,976,1030,1096],"ymouse":[568,568,567,567,567,567,567,566,566,566,566,566,566,566,566,566,566,566,566,566,566,566,560,554,543,532,511,508,508,508,508,508,508,508,505,500,479,451,426,386,333,275,261,253,242,231,198,177,161,142,127,101,85,73],"timestamp_mouse":[8,30,47,68,89,107,128,147,167,187,208,227,248,267,288,307,328,347,367,388,407,428,448,468,488,507,528,548,567,588,608,627,649,667,688,707,727,749,767,788,807,828,847,868,888,907,927,947,967,988,1007,1027,1047,1067],"xSR":741.5,"ySR":469.95,"xT1":424.9,"yT1":0,"xT2":1058.1,"yT2":0,"toosoon":0,"cond_shown":"equaldotanddens","ratio_trial":750,"smaller_num":"12","larger_num":"16","correct_side":2,"subjID":"CRISTIANANDRESMANCERABAEZ19","gender":"0","age":"12","school":"6"},{"start_time":1551801396074,"click_time":1551801398044,"finger_time":1551801396963,"fix_duration":250,"trial":39,"RT":889,"MT":1081,"sideResp":2,"stimulus":"img/900/randomdotsizeEA/R/9_Ratio_900_L_18_R_20.png","xmouse":[776,776,776,776,776,776,776,776,776,776,776,776,776,776,776,777,778,778,778,778,778,778,778,778,778,778,778,778,778,778,778,778,778,778,778,778,778,778,778,778,778,780,781,784,787,787,787,798,815,834,859,882,902,932,945,957,967,982,996,998,999,1000,1001,1003,1007,1012,1019,1026,1044,1051,1055,1060,1070,1074,1078,1081,1082,1082,1083,1083,1084,1086,1088,1088,1088,1089,1090,1097,1099,1101,1101,1101,1101,1101,1101,1101,1102,1102,1103],"ymouse":[518,518,518,518,518,518,518,518,518,518,518,518,518,518,518,518,518,518,518,518,518,518,518,518,518,518,518,518,518,518,518,518,518,518,518,518,518,518,518,518,518,517,506,489,464,437,412,350,327,307,289,272,258,241,234,227,220,212,202,200,199,198,194,190,186,181,176,170,157,152,149,145,136,132,128,126,124,124,123,122,120,118,116,116,116,115,114,112,112,111,111,111,111,111,111,111,110,110,97],"timestamp_mouse":[11,37,49,71,90,110,130,149,169,189,210,231,249,271,289,309,329,350,370,391,409,429,449,469,490,509,530,549,569,590,609,629,649,669,689,709,730,749,770,789,809,830,850,869,889,910,929,950,969,989,1009,1029,1050,1069,1090,1109,1131,1149,1169,1190,1210,1229,1249,1269,1290,1310,1330,1349,1369,1389,1411,1431,1451,1469,1490,1510,1530,1549,1569,1589,1610,1629,1650,1669,1689,1710,1730,1749,1769,1790,1809,1829,1850,1870,1891,1910,1930,1949,1970],"xSR":741.5,"ySR":469.95,"xT1":424.9,"yT1":0,"xT2":1058.1,"yT2":0,"toosoon":0,"cond_shown":"randomdotsizeEA","ratio_trial":900,"smaller_num":"18","larger_num":"20","correct_side":2,"subjID":"CRISTIANANDRESMANCERABAEZ19","gender":"0","age":"12","school":"6"},{"start_time":1551801401799,"click_time":1551801402903,"finger_time":1551801402743,"fix_duration":1434.7084234848048,"trial":40,"RT":944,"MT":160,"sideResp":1,"stimulus":"img/900/equaldotsize/L/4_Ratio_900_L_20_R_18.png","xmouse":[791,791,791,791,791,791,791,791,791,791,791,791,791,791,791,791,791,791,791,791,791,791,791,791,791,791,791,791,791,791,791,791,791,791,791,791,791,791,791,791,791,791,791,790,788,785,780,769,759,750,742,726,653,613,533,470],"ymouse":[500,500,500,500,500,500,500,500,500,500,500,500,500,500,500,500,500,500,500,500,500,500,500,500,500,500,500,500,500,500,500,500,500,500,500,500,500,500,500,500,500,500,500,496,495,492,485,467,446,426,406,380,288,244,150,87],"timestamp_mouse":[9,25,44,65,85,104,124,145,165,184,204,226,244,264,285,304,325,344,364,385,404,425,445,465,486,504,524,546,565,586,605,624,646,664,685,705,725,745,764,785,804,826,844,864,884,905,925,944,965,984,1005,1025,1044,1064,1085,1104],"xSR":741.5,"ySR":469.95,"xT1":424.9,"yT1":0,"xT2":1058.1,"yT2":0,"toosoon":0,"cond_shown":"equaldotsize","ratio_trial":900,"smaller_num":"18","larger_num":"20","correct_side":1,"subjID":"CRISTIANANDRESMANCERABAEZ19","gender":"0","age":"12","school":"6"},{"start_time":1551801404199,"click_time":1551801406344,"finger_time":1551801405063,"fix_duration":250,"trial":41,"RT":864,"MT":1281,"sideResp":1,"stimulus":"img/250/equaldotsize/L/5_Ratio_250_L_24_R_6.png","xmouse":[747,747,747,747,747,747,747,747,747,747,747,747,747,747,747,748,749,750,750,750,750,750,750,750,750,750,750,750,750,750,750,750,750,750,750,750,750,750,750,750,750,750,745,738,727,713,699,686,680,679,676,672,664,659,654,645,634,611,605,598,591,584,574,545,534,523,513,502,499,496,496,495,494,494,492,490,486,479,472,461,461,460,458,457,457,457,457,457,457,457,457,457,459,460,462,465,468,474,476,477,478,480,482,484,486,488,489,492],"ymouse":[533,533,533,533,533,533,533,533,533,533,533,533,533,533,533,533,533,533,532,532,532,532,532,532,532,532,532,532,532,532,532,532,532,532,532,532,532,532,532,532,532,532,516,504,483,464,445,430,416,411,407,401,389,383,376,366,357,342,339,334,328,322,316,295,286,275,265,247,242,238,233,231,225,221,217,210,202,183,175,161,161,160,151,147,144,143,143,143,142,141,140,138,135,133,130,127,124,118,115,113,112,110,107,105,103,101,100,97],"timestamp_mouse":[8,24,45,65,86,105,124,144,164,185,204,225,246,265,284,304,325,345,364,385,404,425,445,464,484,505,524,545,565,585,610,624,646,664,684,704,724,745,764,784,804,824,844,864,884,905,925,944,964,984,1005,1024,1044,1064,1085,1104,1124,1144,1164,1184,1204,1224,1244,1264,1284,1304,1324,1344,1364,1384,1404,1425,1445,1464,1484,1505,1524,1545,1564,1585,1605,1624,1644,1664,1685,1704,1724,1744,1765,1784,1804,1825,1845,1864,1885,1905,1925,1945,1964,1984,2005,2025,2045,2064,2084,2104,2126,2145],"xSR":741.5,"ySR":469.95,"xT1":424.9,"yT1":0,"xT2":1058.1,"yT2":0,"toosoon":0,"cond_shown":"equaldotsize","ratio_trial":250,"smaller_num":"6","larger_num":"24","correct_side":1,"subjID":"CRISTIANANDRESMANCERABAEZ19","gender":"0","age":"12","school":"6"},{"start_time":1551801407941,"click_time":1551801409144,"finger_time":1551801408744,"fix_duration":657.0569076885281,"trial":42,"RT":803,"MT":400,"sideResp":2,"stimulus":"img/250/equaldotsize/R/10_Ratio_250_L_4_R_16.png","xmouse":[779,779,779,779,779,779,779,779,779,779,779,779,780,780,781,782,782,782,783,783,785,787,788,788,789,795,800,801,801,801,801,801,801,801,801,802,802,804,811,820,835,893,933,966,998,1012,1022,1022,1022,1018,1015,1012,1013,1017,1020,1023,1041,1069,1080,1109,1117],"ymouse":[513,513,513,513,513,513,513,513,513,513,513,513,512,512,512,513,513,513,514,514,516,516,517,517,517,518,521,521,521,521,521,521,521,521,521,521,521,514,501,487,465,405,371,343,309,287,253,242,231,212,201,176,166,157,152,149,136,124,119,104,98],"timestamp_mouse":[3,30,43,62,82,104,122,142,162,182,203,224,243,262,282,302,323,344,362,382,402,423,442,462,482,502,522,542,562,583,602,622,644,662,682,702,723,743,763,782,803,823,842,862,883,903,922,943,963,982,1003,1022,1044,1063,1083,1103,1122,1144,1162,1182,1203],"xSR":741.5,"ySR":469.95,"xT1":424.9,"yT1":0,"xT2":1058.1,"yT2":0,"toosoon":0,"cond_shown":"equaldotsize","ratio_trial":250,"smaller_num":"4","larger_num":"16","correct_side":2,"subjID":"CRISTIANANDRESMANCERABAEZ19","gender":"0","age":"12","school":"6"},{"start_time":1551801410106,"click_time":1551801411264,"finger_time":1551801410804,"fix_duration":261.2845904294276,"trial":43,"RT":698,"MT":460,"sideResp":1,"stimulus":"img/900/equaldotsize/R/13_Ratio_900_L_18_R_20.png","xmouse":[818,818,818,818,818,818,818,818,818,818,818,818,818,818,818,818,818,818,818,818,818,818,818,818,818,818,818,818,818,818,813,804,776,757,738,720,704,671,627,585,531,491,456,451,448,447,447,446,445,445,448,453,469,476,481,485,485,460],"ymouse":[509,509,509,509,509,509,509,509,509,509,509,509,509,509,509,509,509,509,509,509,509,509,509,509,509,509,509,509,509,509,509,506,494,486,478,470,462,444,418,394,361,329,291,282,276,273,271,265,256,245,233,222,195,177,154,127,101,32],"timestamp_mouse":[17,38,58,79,98,118,137,158,177,197,219,237,257,279,297,318,337,357,379,399,417,439,457,477,497,517,537,557,577,597,617,638,658,677,698,717,739,757,778,798,817,837,857,877,897,917,939,957,978,997,1018,1037,1057,1078,1098,1118,1138,1158],"xSR":741.5,"ySR":469.95,"xT1":424.9,"yT1":0,"xT2":1058.1,"yT2":0,"toosoon":0,"cond_shown":"equaldotsize","ratio_trial":900,"smaller_num":"18","larger_num":"20","correct_side":2,"subjID":"CRISTIANANDRESMANCERABAEZ19","gender":"0","age":"12","school":"6"},{"start_time":1551801417907,"click_time":1551801419344,"finger_time":1551801418663,"fix_duration":323.99704262410745,"trial":44,"RT":756,"MT":681,"sideResp":2,"stimulus":"img/900/randomdotsizeEA/R/13_Ratio_900_L_18_R_20.png","xmouse":[801,801,801,801,802,803,803,803,803,803,803,803,803,803,803,803,803,803,803,803,803,803,803,803,803,803,803,802,802,802,802,802,802,802,802,810,829,862,957,989,1005,1008,1021,1126,1238,1293,1326,1345,1358,1360,1361,1361,1361,1355,1347,1341,1333,1324,1303,1291,1280,1271,1262,1239,1216,1204,1191,1184,1180,1178,1169,1157],"ymouse":[557,557,557,557,557,557,557,557,557,557,557,557,557,557,557,557,557,557,557,557,557,557,557,557,557,557,557,557,557,557,557,557,557,557,555,549,538,524,479,452,430,418,399,336,286,261,244,232,218,216,213,210,204,186,175,166,158,148,129,119,110,103,96,81,73,70,68,67,67,69,74,79],"timestamp_mouse":[28,36,56,76,97,117,136,158,177,197,218,236,256,278,297,317,337,357,378,396,418,438,456,477,497,517,536,556,576,597,617,637,656,677,697,716,738,756,776,797,817,836,856,876,896,916,937,956,977,996,1017,1036,1057,1076,1096,1118,1137,1156,1177,1197,1216,1237,1257,1276,1296,1316,1336,1356,1377,1396,1416,1437],"xSR":741.5,"ySR":469.95,"xT1":424.9,"yT1":0,"xT2":1058.1,"yT2":0,"toosoon":0,"cond_shown":"randomdotsizeEA","ratio_trial":900,"smaller_num":"18","larger_num":"20","correct_side":2,"subjID":"CRISTIANANDRESMANCERABAEZ19","gender":"0","age":"12","school":"6"},{"start_time":1551801420356,"click_time":1551801421564,"finger_time":1551801421043,"fix_duration":250,"trial":45,"RT":687,"MT":521,"sideResp":2,"stimulus":"img/500/randomdotsizeEA/R/3_Ratio_500_L_10_R_20.png","xmouse":[770,770,770,770,770,770,770,770,770,770,770,770,770,770,770,770,770,770,770,770,770,770,770,770,770,770,770,770,770,770,770,770,770,770,784,807,864,891,908,926,940,972,1002,1032,1061,1085,1111,1114,1115,1115,1115,1127,1132,1135,1137,1138,1138,1138,1138,1138,1136],"ymouse":[507,507,507,507,507,507,507,507,507,507,507,507,507,507,507,507,507,507,507,507,507,507,507,507,507,507,507,507,507,507,507,507,507,503,467,423,353,332,316,298,281,245,222,206,189,179,163,160,157,154,152,138,133,129,125,121,116,114,110,106,99],"timestamp_mouse":[8,38,47,69,88,107,127,149,167,187,209,228,248,268,287,307,327,348,368,387,407,427,448,467,487,509,527,547,567,587,608,627,647,667,687,707,729,747,767,787,809,827,847,867,887,908,927,947,967,987,1007,1027,1047,1067,1088,1107,1127,1147,1167,1188,1208],"xSR":741.5,"ySR":469.95,"xT1":424.9,"yT1":0,"xT2":1058.1,"yT2":0,"toosoon":0,"cond_shown":"randomdotsizeEA","ratio_trial":500,"smaller_num":"10","larger_num":"20","correct_side":2,"subjID":"CRISTIANANDRESMANCERABAEZ19","gender":"0","age":"12","school":"6"},{"start_time":1551801422643,"click_time":1551801423844,"finger_time":1551801423404,"fix_duration":258.4301445249787,"trial":46,"RT":761,"MT":440,"sideResp":2,"stimulus":"img/750/equaldotanddens/R/11_Ratio_750_L_12_R_16.png","xmouse":[790,790,790,790,790,790,790,790,790,790,790,790,790,790,790,790,790,790,790,790,790,790,790,790,790,790,790,790,790,790,790,790,790,790,790,790,791,809,819,846,926,1011,1060,1072,1086,1100,1108,1113,1115,1116,1117,1118,1121,1122,1124,1125,1128,1131,1139,1142,1146],"ymouse":[494,494,494,494,494,494,494,494,494,494,494,494,494,494,494,494,494,494,494,494,494,494,494,494,494,494,494,494,494,494,494,494,494,494,494,494,490,470,460,441,393,335,275,258,237,217,202,189,185,181,177,173,162,157,152,144,138,127,110,102,93],"timestamp_mouse":[9,20,40,60,80,101,121,141,161,181,201,221,240,260,281,301,321,340,362,380,400,420,441,461,480,501,521,541,561,580,601,621,641,660,680,700,721,741,761,780,800,822,842,860,881,901,920,941,960,981,1000,1020,1041,1060,1081,1100,1120,1140,1161,1181,1201],"xSR":741.5,"ySR":469.95,"xT1":424.9,"yT1":0,"xT2":1058.1,"yT2":0,"toosoon":0,"cond_shown":"equaldotanddens","ratio_trial":750,"smaller_num":"12","larger_num":"16","correct_side":2,"subjID":"CRISTIANANDRESMANCERABAEZ19","gender":"0","age":"12","school":"6"},{"start_time":1551801425970,"click_time":1551801427304,"finger_time":1551801426523,"fix_duration":1266.3713590247874,"trial":47,"RT":553,"MT":781,"sideResp":2,"stimulus":"img/250/equaldotanddens/R/6_Ratio_250_L_6_R_24.png","xmouse":[789,789,789,789,789,789,789,789,789,789,789,789,789,789,789,789,789,789,789,789,789,789,789,789,789,789,789,789,797,814,859,1020,1097,1140,1156,1158,1158,1158,1158,1160,1162,1163,1163,1163,1163,1163,1163,1163,1162,1161,1161,1159,1158,1157,1154,1153,1151,1151,1151,1150,1149,1148,1147,1147,1147,1147,1146],"ymouse":[496,496,496,496,496,496,496,496,496,496,496,496,496,496,496,496,496,496,496,496,496,496,496,496,496,496,495,469,448,422,362,215,168,142,130,129,129,129,128,126,123,121,121,121,120,120,117,116,113,110,110,109,107,107,105,104,102,102,102,101,101,101,100,100,100,100,99],"timestamp_mouse":[19,41,53,73,94,114,133,153,173,193,213,234,254,273,294,315,334,354,373,393,413,434,453,474,493,515,533,553,573,595,614,633,653,673,695,713,734,753,773,793,813,834,854,874,893,914,934,954,973,993,1013,1033,1053,1074,1095,1115,1134,1153,1173,1194,1214,1234,1253,1274,1294,1314,1333],"xSR":741.5,"ySR":469.95,"xT1":424.9,"yT1":0,"xT2":1058.1,"yT2":0,"toosoon":0,"cond_shown":"equaldotanddens","ratio_trial":250,"smaller_num":"6","larger_num":"24","correct_side":2,"subjID":"CRISTIANANDRESMANCERABAEZ19","gender":"0","age":"12","school":"6"},{"start_time":1551801429482,"click_time":1551801430723,"finger_time":1551801430084,"fix_duration":1316.190733998246,"trial":48,"RT":602,"MT":639,"sideResp":2,"stimulus":"img/750/equaldotanddens/R/15_Ratio_750_L_9_R_12.png","xmouse":[752,752,752,752,752,752,752,752,752,752,752,752,752,752,752,752,752,752,752,752,752,752,752,752,752,752,757,759,761,762,762,762,763,764,764,764,764,764,764,764,764,764,765,773,793,839,964,1015,1049,1060,1067,1070,1074,1075,1076,1077,1077,1078,1079,1079,1080,1084,1085],"ymouse":[520,520,520,520,520,520,520,520,520,520,520,520,520,520,520,520,520,520,520,520,520,520,520,520,516,511,491,481,474,471,469,466,462,461,461,461,459,458,457,457,457,455,452,443,425,398,322,280,242,219,195,175,152,149,145,143,137,133,128,124,118,104,99],"timestamp_mouse":[8,22,45,62,81,102,121,141,161,182,201,222,243,262,282,302,321,341,361,381,401,421,441,461,481,502,521,541,562,581,602,621,642,661,681,701,721,743,761,781,802,822,841,862,882,901,922,941,962,982,1003,1022,1043,1061,1081,1102,1121,1142,1161,1182,1203,1222,1241],"xSR":741.5,"ySR":469.95,"xT1":424.9,"yT1":0,"xT2":1058.1,"yT2":0,"toosoon":0,"cond_shown":"equaldotanddens","ratio_trial":750,"smaller_num":"9","larger_num":"12","correct_side":2,"subjID":"CRISTIANANDRESMANCERABAEZ19","gender":"0","age":"12","school":"6"},{"start_time":1551801431827,"click_time":1551801433044,"finger_time":1551801432384,"fix_duration":300.9384953419203,"trial":49,"RT":557,"MT":660,"sideResp":1,"stimulus":"img/500/equaldotanddens/L/5_Ratio_500_L_4_R_2.png","xmouse":[773,773,773,773,773,773,773,773,773,773,773,773,773,773,773,773,773,773,773,773,772,769,767,763,755,753,745,736,729,724,724,724,723,722,720,715,713,713,712,712,712,712,706,675,646,617,588,568,545,508,492,479,474,470,469,468,468,468,468,474,476],"ymouse":[526,526,526,526,526,526,526,526,526,526,526,526,526,526,526,526,526,526,526,528,529,529,529,529,529,529,527,520,515,511,511,510,508,504,498,482,464,438,408,341,300,274,249,207,189,179,168,160,153,142,136,130,129,126,124,120,117,113,108,101,98],"timestamp_mouse":[16,37,57,76,96,116,136,156,176,196,216,236,256,277,297,316,336,356,377,397,417,437,457,477,497,516,537,557,577,598,617,636,656,677,697,717,737,757,777,796,816,836,857,877,896,916,937,957,978,996,1017,1037,1058,1078,1097,1117,1136,1157,1176,1196,1217],"xSR":741.5,"ySR":469.95,"xT1":424.9,"yT1":0,"xT2":1058.1,"yT2":0,"toosoon":0,"cond_shown":"equaldotanddens","ratio_trial":500,"smaller_num":"2","larger_num":"4","correct_side":1,"subjID":"CRISTIANANDRESMANCERABAEZ19","gender":"0","age":"12","school":"6"},{"start_time":1551801435216,"click_time":1551801436223,"finger_time":1551801436084,"fix_duration":1231.041492352529,"trial":50,"RT":868,"MT":139,"sideResp":2,"stimulus":"img/900/equaldotanddens/R/14_Ratio_900_L_18_R_20.png","xmouse":[796,796,796,796,796,796,796,796,796,796,796,796,796,796,796,796,796,797,797,797,797,797,797,797,797,797,797,797,797,797,797,797,797,797,797,797,797,797,797,798,804,808,829,856,880,908,920,947,980,1023,1073],"ymouse":[536,536,536,536,536,536,536,536,536,536,536,536,536,536,536,536,536,536,536,536,536,536,536,536,536,536,536,536,536,536,536,536,536,536,536,536,536,536,533,531,518,511,490,465,436,384,353,284,209,146,73],"timestamp_mouse":[8,39,48,68,87,108,127,148,167,187,207,229,248,268,288,307,328,347,367,387,409,428,448,467,487,508,527,547,567,588,608,629,648,667,687,708,727,748,767,788,807,829,847,868,887,907,929,947,967,987,1007],"xSR":741.5,"ySR":469.95,"xT1":424.9,"yT1":0,"xT2":1058.1,"yT2":0,"toosoon":0,"cond_shown":"equaldotanddens","ratio_trial":900,"smaller_num":"18","larger_num":"20","correct_side":2,"subjID":"CRISTIANANDRESMANCERABAEZ19","gender":"0","age":"12","school":"6"},{"start_time":1551801438286,"click_time":1551801439623,"finger_time":1551801438904,"fix_duration":1121.1528839121195,"trial":51,"RT":618,"MT":719,"sideResp":2,"stimulus":"img/500/equaldotanddens/R/1_Ratio_500_L_9_R_18.png","xmouse":[783,783,783,783,783,783,783,783,783,783,783,783,783,783,783,783,783,783,783,783,783,783,783,783,783,783,783,783,783,777,761,747,748,758,772,785,812,826,834,843,851,886,916,963,1021,1083,1177,1192,1193,1194,1195,1196,1197,1197,1198,1198,1198,1197,1194,1189,1182,1172,1169,1166,1162,1159,1152],"ymouse":[509,509,509,509,509,509,509,509,509,509,509,509,509,509,509,509,509,509,509,509,509,509,509,509,509,509,509,509,509,484,432,368,345,326,310,293,261,242,231,220,210,189,176,158,138,112,76,67,66,66,64,59,57,54,51,50,45,44,43,43,43,46,48,50,53,57,62],"timestamp_mouse":[18,37,57,78,99,117,138,157,177,197,218,237,257,278,298,319,338,358,377,398,418,439,457,478,497,518,538,559,577,597,618,638,658,677,698,717,737,757,777,798,817,837,857,878,898,917,937,958,977,997,1017,1037,1057,1077,1097,1117,1137,1157,1177,1198,1217,1238,1257,1278,1298,1317,1337],"xSR":741.5,"ySR":469.95,"xT1":424.9,"yT1":0,"xT2":1058.1,"yT2":0,"toosoon":0,"cond_shown":"equaldotanddens","ratio_trial":500,"smaller_num":"9","larger_num":"18","correct_side":2,"subjID":"CRISTIANANDRESMANCERABAEZ19","gender":"0","age":"12","school":"6"},{"start_time":1551801441739,"click_time":1551801442904,"finger_time":1551801442484,"fix_duration":1213.625306100121,"trial":52,"RT":745,"MT":420,"sideResp":1,"stimulus":"img/500/equaldotsize/L/10_Ratio_500_L_4_R_2.png","xmouse":[809,809,809,809,809,809,809,809,809,809,809,809,809,809,809,809,809,809,809,809,809,809,809,809,809,809,809,809,809,809,809,809,809,809,808,808,814,826,830,831,826,814,792,760,672,572,549,531,515,499,468,458,455,453,453,453,453,453,453],"ymouse":[518,518,518,518,518,518,518,518,518,518,518,518,518,518,518,518,518,518,518,518,518,518,518,518,518,518,518,518,518,518,518,518,518,518,518,501,471,425,380,345,302,283,255,229,175,132,126,122,120,119,113,110,108,106,106,106,106,102,98],"timestamp_mouse":[8,40,48,64,85,105,125,145,164,184,205,224,245,264,284,304,325,345,365,384,404,424,444,464,485,505,526,544,565,584,604,624,645,664,685,704,724,745,764,785,804,825,844,865,884,905,924,945,965,985,1004,1024,1044,1065,1085,1105,1124,1144,1164],"xSR":741.5,"ySR":469.95,"xT1":424.9,"yT1":0,"xT2":1058.1,"yT2":0,"toosoon":0,"cond_shown":"equaldotsize","ratio_trial":500,"smaller_num":"2","larger_num":"4","correct_side":1,"subjID":"CRISTIANANDRESMANCERABAEZ19","gender":"0","age":"12","school":"6"},{"start_time":1551801444801,"click_time":1551801445743,"finger_time":1551801445463,"fix_duration":937.7145435389484,"trial":53,"RT":662,"MT":280,"sideResp":2,"stimulus":"img/250/equaldotsize/R/12_Ratio_250_L_5_R_20.png","xmouse":[777,777,778,779,780,780,780,780,780,780,780,780,780,780,780,780,780,780,780,780,780,780,780,780,780,781,781,781,783,787,793,806,828,842,860,873,883,896,914,964,1002,1017,1029,1035,1039,1045,1058,1071],"ymouse":[538,538,538,538,538,538,538,538,538,538,538,538,538,538,538,538,538,538,538,538,538,538,538,538,538,538,538,538,538,535,532,526,514,504,486,467,450,417,391,312,224,149,72,52,42,35,29,24],"timestamp_mouse":[3,29,43,62,83,102,123,143,163,184,202,222,242,262,282,302,324,342,362,382,402,423,444,462,483,502,522,542,563,582,602,622,642,662,683,703,722,742,762,782,803,823,842,862,883,903,922,942],"xSR":741.5,"ySR":469.95,"xT1":424.9,"yT1":0,"xT2":1058.1,"yT2":0,"toosoon":0,"cond_shown":"equaldotsize","ratio_trial":250,"smaller_num":"5","larger_num":"20","correct_side":2,"subjID":"CRISTIANANDRESMANCERABAEZ19","gender":"0","age":"12","school":"6"},{"start_time":1551801447606,"click_time":1551801449044,"finger_time":1551801448804,"fix_duration":1101.2216504980217,"trial":54,"RT":1198,"MT":240,"sideResp":2,"stimulus":"img/900/equaldotanddens/R/11_Ratio_900_L_18_R_20.png","xmouse":[808,808,808,808,808,808,808,808,808,808,808,808,808,808,808,808,808,808,808,808,808,808,808,808,808,808,808,808,808,808,808,808,808,808,808,808,808,808,808,808,808,808,808,808,808,808,808,808,808,808,808,808,808,809,810,811,814,822,832,845,866,927,960,990,1017,1046,1067,1075,1081,1086,1090,1095],"ymouse":[552,552,552,552,552,552,552,552,552,552,552,552,552,552,552,552,552,552,552,552,552,552,552,552,552,552,552,552,552,552,552,552,552,552,552,552,552,552,552,552,552,552,552,552,552,552,552,552,552,552,552,552,552,551,550,549,544,533,513,486,449,364,326,293,252,213,173,157,142,129,117,97],"timestamp_mouse":[18,38,57,78,97,117,138,158,177,197,217,237,257,277,297,318,337,357,378,397,419,438,457,477,498,518,538,558,577,597,617,638,658,677,697,717,737,759,778,797,817,837,858,877,897,918,938,958,977,997,1017,1037,1057,1077,1097,1117,1138,1157,1177,1198,1218,1238,1257,1277,1298,1317,1338,1357,1377,1398,1417,1438],"xSR":741.5,"ySR":469.95,"xT1":424.9,"yT1":0,"xT2":1058.1,"yT2":0,"toosoon":0,"cond_shown":"equaldotanddens","ratio_trial":900,"smaller_num":"18","larger_num":"20","correct_side":2,"subjID":"CRISTIANANDRESMANCERABAEZ19","gender":"0","age":"12","school":"6"},{"start_time":1551801450412,"click_time":1551801452003,"finger_time":1551801451323,"fix_duration":647.5155578068608,"trial":55,"RT":911,"MT":680,"sideResp":2,"stimulus":"img/900/randomdotsizeEA/R/6_Ratio_900_L_9_R_10.png","xmouse":[760,760,760,762,763,763,763,763,763,763,763,763,763,763,763,763,763,763,763,763,763,763,763,763,763,763,763,763,763,763,763,763,763,763,763,763,763,763,763,763,763,764,764,759,752,734,716,663,647,642,638,635,634,632,631,628,625,617,613,611,609,609,609,609,612,644,676,745,770,787,800,811,828,838,851,873,908,1006,1049,1085],"ymouse":[544,544,544,544,544,544,544,544,544,544,544,544,544,544,544,544,544,544,544,544,544,544,544,544,544,544,544,544,544,544,544,544,544,544,544,544,544,544,544,544,544,542,537,529,520,501,484,454,446,442,439,436,434,429,428,419,412,397,389,383,378,376,373,373,370,361,353,332,322,309,294,275,234,213,183,155,127,70,51,34],"timestamp_mouse":[11,32,51,71,91,111,131,151,171,191,211,231,251,271,291,312,333,351,371,393,413,433,453,472,493,513,533,551,571,592,613,631,652,673,691,711,731,753,771,791,812,833,851,871,891,911,931,951,972,992,1011,1032,1051,1071,1091,1112,1132,1152,1171,1191,1211,1232,1251,1272,1291,1312,1332,1352,1371,1391,1411,1432,1451,1472,1491,1512,1532,1551,1571,1591],"xSR":741.5,"ySR":469.95,"xT1":424.9,"yT1":0,"xT2":1058.1,"yT2":0,"toosoon":0,"cond_shown":"randomdotsizeEA","ratio_trial":900,"smaller_num":"9","larger_num":"10","correct_side":2,"subjID":"CRISTIANANDRESMANCERABAEZ19","gender":"0","age":"12","school":"6"},{"start_time":1551801454350,"click_time":1551801455202,"finger_time":1551801455124,"fix_duration":1165.6986015183338,"trial":56,"RT":774,"MT":78,"sideResp":2,"stimulus":"img/750/equaldotsize/R/15_Ratio_750_L_9_R_12.png","xmouse":[749,749,749,749,749,749,749,749,749,749,749,749,749,749,749,749,749,749,749,749,749,749,749,749,749,749,749,749,750,750,750,750,750,750,750,752,782,819,862,895,989,1035,1066],"ymouse":[530,530,530,530,530,530,530,530,530,530,530,530,530,530,530,530,530,530,530,530,530,530,530,530,530,530,530,530,530,530,530,530,530,530,530,526,506,476,434,371,232,132,65],"timestamp_mouse":[13,40,53,73,93,114,134,153,173,193,213,233,254,272,292,313,333,353,372,392,414,433,454,473,493,514,533,552,573,592,614,633,654,673,693,712,732,752,774,793,813,832,852],"xSR":741.5,"ySR":469.95,"xT1":424.9,"yT1":0,"xT2":1058.1,"yT2":0,"toosoon":0,"cond_shown":"equaldotsize","ratio_trial":750,"smaller_num":"9","larger_num":"12","correct_side":2,"subjID":"CRISTIANANDRESMANCERABAEZ19","gender":"0","age":"12","school":"6"},{"start_time":1551801458645,"click_time":1551801460324,"finger_time":1551801459902,"fix_duration":1198.757765065472,"trial":57,"RT":1257,"MT":422,"sideResp":1,"stimulus":"img/900/equaldotanddens/L/10_Ratio_900_L_20_R_18.png","xmouse":[807,807,810,810,812,812,812,812,812,812,812,812,812,812,812,812,812,812,812,812,812,812,812,812,812,812,812,812,812,812,812,812,812,812,812,812,812,812,812,812,812,812,804,800,797,796,794,794,794,794,794,794,794,794,794,794,794,794,794,794,794,794,791,774,747,705,619,586,564,549,531,524,513,507,505,501,498,492,490,488,485,483,478,476,474],"ymouse":[531,531,528,528,525,524,524,524,524,524,524,524,524,524,524,524,524,524,524,524,524,524,524,524,524,524,524,524,524,524,524,524,524,524,524,524,524,524,524,524,524,522,509,507,505,504,503,503,503,503,503,503,503,503,503,503,503,503,503,503,503,503,492,459,425,383,321,299,284,271,255,244,227,217,211,201,194,173,162,151,134,124,108,102,98],"timestamp_mouse":[1,18,50,58,77,97,119,139,158,178,198,218,239,258,278,299,319,338,358,378,397,419,437,459,478,499,518,537,557,579,599,619,639,658,677,699,719,739,758,778,798,818,837,857,878,897,919,939,957,978,999,1019,1038,1058,1079,1098,1118,1138,1158,1177,1198,1218,1239,1257,1279,1298,1319,1337,1357,1378,1398,1418,1438,1458,1478,1498,1518,1539,1558,1578,1598,1618,1637,1657,1679],"xSR":741.5,"ySR":469.95,"xT1":424.9,"yT1":0,"xT2":1058.1,"yT2":0,"toosoon":0,"cond_shown":"equaldotanddens","ratio_trial":900,"smaller_num":"18","larger_num":"20","correct_side":1,"subjID":"CRISTIANANDRESMANCERABAEZ19","gender":"0","age":"12","school":"6"},{"start_time":1551801462291,"click_time":1551801464083,"finger_time":1551801463102,"fix_duration":1068.378233282017,"trial":58,"RT":811,"MT":981,"sideResp":1,"stimulus":"img/250/randomdotsizeEA/L/7_Ratio_250_L_8_R_2.png","xmouse":[817,817,817,818,818,818,818,818,818,819,819,819,819,819,819,819,819,819,819,819,819,819,819,819,819,819,819,819,819,819,819,819,819,818,815,813,810,805,798,769,749,729,713,707,705,704,703,699,697,690,688,683,679,671,635,594,575,557,549,538,536,532,529,526,523,522,522,522,522,522,521,521,521,519,519,518,517,515,515,509,508,506,505,502,500,500,499,499,498,498],"ymouse":[522,522,522,523,523,523,523,523,522,520,520,520,520,520,520,520,520,520,520,520,520,520,520,520,520,518,518,518,518,518,518,518,517,516,513,511,507,500,493,470,461,453,448,445,441,439,433,427,421,410,405,397,390,380,337,288,262,238,223,193,182,173,164,156,148,145,145,145,144,143,141,139,137,134,130,127,125,122,121,115,113,112,110,109,108,107,107,106,106,99],"timestamp_mouse":[11,41,52,72,92,113,132,153,172,192,211,233,252,271,293,313,333,351,373,393,412,432,451,472,493,512,532,553,572,593,611,633,651,673,692,711,732,752,771,792,811,831,852,873,892,912,931,952,972,992,1011,1032,1052,1072,1092,1111,1131,1151,1172,1192,1212,1232,1251,1272,1292,1313,1332,1351,1371,1393,1411,1432,1451,1472,1492,1512,1531,1552,1571,1592,1613,1632,1651,1673,1691,1711,1731,1753,1771,1792],"xSR":741.5,"ySR":469.95,"xT1":424.9,"yT1":0,"xT2":1058.1,"yT2":0,"toosoon":0,"cond_shown":"randomdotsizeEA","ratio_trial":250,"smaller_num":"2","larger_num":"8","correct_side":1,"subjID":"CRISTIANANDRESMANCERABAEZ19","gender":"0","age":"12","school":"6"},{"start_time":1551801465374,"click_time":1551801467324,"finger_time":1551801466382,"fix_duration":250,"trial":59,"RT":1008,"MT":942,"sideResp":1,"stimulus":"img/750/randomdotsizeEA/L/8_Ratio_750_L_4_R_3.png","xmouse":[780,780,780,780,780,780,780,780,780,780,780,780,780,780,780,780,780,780,780,780,780,780,780,780,780,780,780,780,780,780,780,780,780,780,780,780,780,780,780,780,780,780,780,778,772,764,762,761,759,758,756,754,753,751,748