[{"start_time":1551881766309,"click_time":1551881777310,"finger_time":1551881768510,"fix_duration":1394.3851527330207,"trial":0,"RT":2201,"MT":8800,"sideResp":2,"stimulus":[],"xmouse":[806,806,806,806,806,806,806,806,806,806,806,806,806,806,806,806,806,806,806,806,806,806,806,806,806,806,806,806,806,806,806,806,806,806,806,806,806,806,806,806,806,806,806,806,806,806,806,806,806,806,806,806,806,806,806,806,806,806,806,806,806,806,806,806,806,806,806,806,806,806,806,806,806,806,806,806,806,806,806,806,806,806,806,806,806,806,806,806,806,806,806,806,806,806,806,806,806,806,806,806,806,806,806,806,806,806,806,806,806,817,877,900,912,919,922,919,909,898,892,892,893,896,897,899,900,901,891,884,876,876,883,888,888,889,890,891,892,893,893,894,895,896,896,897,897,898,900,900,900,900,900,900,900,900,900,900,900,900,900,900,900,900,900,900,900,900,900,900,900,900,900,900,900,900,900,900,900,900,900,900,900,900,900,900,900,900,900,900,900,900,900,900,900,900,900,900,900,900,900,900,900,900,900,900,900,900,900,900,900,900,900,900,900,900,900,900,900,900,900,900,900,900,900,900,900,900,900,900,900,900,900,900,900,900,900,900,900,900,900,900,900,900,900,900,900,900,900,900,900,900,900,900,900,900,900,900,900,900,900,900,900,900,900,900,900,900,900,900,900,900,900,900,900,900,900,900,900,900,900,900,900,900,900,900,900,900,900,900,900,900,900,900,900,900,900,900,900,900,900,900,900,900,900,900,900,900,900,900,900,900,900,900,900,900,900,900,900,900,900,900,900,900,900,900,900,900,900,900,900,900,900,900,900,900,900,900,900,900,900,900,900,900,900,900,900,900,900,900,900,900,900,900,900,900,900,900,900,900,900,900,900,900,900,900,900,900,900,900,900,900,900,900,900,900,900,900,900,900,900,900,900,900,900,900,900,900,900,900,900,900,900,900,900,900,900,900,900,900,900,900,900,900,900,900,900,900,900,900,900,900,900,900,900,900,900,900,900,900,900,900,900,900,900,900,900,900,900,900,900,900,900,900,900,900,900,900,900,900,900,900,900,900,900,900,900,900,900,900,900,900,900,900,900,900,900,900,900,900,900,900,900,900,900,900,900,900,900,900,900,900,900,900,900,900,900,900,900,900,900,900,900,900,899,895,894,894,896,899,899,899,899,899,899,899,899,899,899,899,899,899,899,899,903,907,910,916,917,917,917,916,910,903,901,901,901,901,901,901,901,901,901,901,901,901,900,900,900,900,900,902,951,1018,1089,1151,1211,1276,1286,1293,1297,1306,1330,1340,1344,1345,1345,1345,1343,1336,1305,1272,1147],"ymouse":[503,503,503,503,503,503,503,503,503,503,503,503,503,503,503,503,503,503,503,503,503,503,503,503,503,503,503,503,503,503,503,503,503,503,503,503,503,503,503,503,503,503,503,503,503,503,503,503,503,503,503,503,503,503,503,503,503,503,503,503,503,503,503,503,503,503,503,503,503,503,503,503,503,503,503,503,503,503,503,503,503,503,503,503,503,503,503,503,503,503,503,503,503,503,503,503,503,503,503,503,503,503,503,503,503,503,503,503,503,500,475,472,467,460,451,428,407,389,379,378,377,376,376,376,376,373,351,325,307,298,272,265,264,262,260,258,259,263,266,267,269,269,269,269,269,270,270,270,270,270,270,270,270,270,270,270,270,270,270,270,270,270,270,270,270,270,270,270,270,270,270,270,270,270,270,270,270,270,270,270,270,270,270,270,270,270,270,270,270,270,270,270,270,270,270,270,270,270,270,270,270,270,270,270,270,270,270,270,270,270,270,270,270,270,270,270,270,270,270,270,270,270,270,270,270,270,270,270,270,270,270,270,270,270,270,270,270,270,270,270,270,270,270,270,270,270,270,270,270,270,270,270,270,270,270,270,270,270,270,270,270,270,270,270,270,270,270,270,270,270,270,270,270,270,270,270,270,270,270,270,270,270,270,270,270,270,270,270,270,270,270,270,270,270,270,270,270,270,270,270,270,270,270,270,270,270,270,270,270,270,270,270,270,270,270,270,270,270,270,270,270,270,270,270,270,270,270,270,270,270,270,270,270,270,270,270,270,270,270,270,270,270,270,270,270,270,270,270,270,270,270,270,270,270,270,270,270,270,270,270,270,270,270,270,270,270,270,270,270,270,270,270,270,270,270,270,270,270,270,270,270,270,270,270,270,270,270,270,270,270,270,270,270,270,270,270,270,270,270,270,270,270,270,270,270,270,270,270,270,270,270,270,270,270,270,270,270,270,270,270,270,270,270,270,270,270,270,270,270,270,270,270,270,270,270,270,270,270,270,270,270,270,270,270,270,270,270,270,270,270,270,270,270,270,270,270,270,270,270,270,270,270,270,270,270,270,270,270,270,270,270,270,270,270,270,270,270,270,270,270,270,270,271,272,272,272,273,273,273,273,273,273,273,273,273,273,273,273,273,273,273,273,270,266,264,258,258,258,257,256,254,251,249,249,249,249,249,249,249,249,249,249,249,249,248,247,245,242,239,237,212,195,185,177,158,138,133,125,121,114,96,89,85,84,84,81,80,80,79,79,52],"timestamp_mouse":[8,37,41,61,80,101,121,141,161,180,201,222,242,262,281,301,320,342,361,381,401,421,441,462,481,502,522,542,562,582,601,621,640,661,681,700,722,740,761,780,801,821,841,862,882,901,921,940,962,982,1001,1021,1041,1062,1081,1101,1122,1141,1161,1181,1201,1222,1242,1261,1280,1300,1321,1341,1360,1381,1401,1420,1442,1460,1480,1501,1521,1542,1560,1581,1601,1620,1642,1662,1680,1701,1721,1740,1761,1781,1801,1821,1841,1861,1881,1902,1922,1942,1962,1980,2001,2021,2041,2062,2081,2101,2122,2140,2160,2181,2201,2221,2242,2261,2281,2301,2322,2341,2361,2382,2401,2421,2440,2461,2481,2501,2521,2542,2561,2581,2601,2622,2641,2661,2681,2701,2721,2741,2760,2780,2801,2821,2840,2861,2881,2901,2920,2940,2961,2981,3001,3021,3041,3061,3080,3101,3121,3141,3162,3181,3201,3220,3242,3261,3282,3301,3321,3342,3361,3382,3401,3420,3442,3460,3480,3501,3522,3541,3561,3581,3601,3621,3641,3661,3681,3701,3721,3740,3761,3781,3801,3821,3841,3862,3882,3901,3921,3941,3961,3981,4000,4020,4041,4062,4082,4101,4120,4141,4162,4181,4201,4221,4242,4260,4281,4300,4321,4342,4361,4380,4400,4421,4441,4461,4481,4501,4520,4542,4561,4581,4601,4621,4642,4661,4681,4701,4721,4741,4762,4782,4801,4820,4842,4861,4880,4900,4921,4941,4962,4982,5001,5021,5040,5061,5082,5101,5122,5142,5161,5181,5201,5222,5242,5261,5282,5301,5322,5341,5361,5381,5401,5421,5440,5461,5482,5501,5521,5541,5561,5581,5601,5620,5641,5661,5681,5701,5720,5741,5761,5781,5801,5820,5841,5861,5881,5901,5921,5942,5960,5982,6001,6022,6042,6061,6082,6101,6121,6141,6161,6181,6201,6220,6241,6261,6281,6301,6322,6341,6362,6381,6401,6421,6442,6462,6481,6501,6521,6541,6560,6580,6601,6621,6642,6662,6680,6700,6721,6742,6761,6780,6801,6821,6841,6862,6881,6901,6921,6941,6961,6980,7001,7021,7041,7061,7080,7101,7121,7142,7161,7181,7201,7222,7242,7261,7282,7301,7321,7340,7361,7382,7401,7420,7441,7461,7481,7501,7521,7540,7562,7582,7601,7620,7641,7661,7681,7701,7720,7740,7762,7782,7801,7822,7842,7861,7881,7901,7921,7941,7961,7981,8001,8021,8041,8060,8081,8101,8120,8141,8161,8181,8201,8220,8241,8260,8282,8301,8321,8341,8361,8382,8401,8422,8441,8461,8482,8501,8522,8541,8561,8582,8601,8621,8641,8661,8681,8701,8721,8741,8761,8780,8800,8821,8841,8861,8881,8901,8920,8941,8961,8982,9000,9020,9042,9061,9082,9101,9121,9141,9161,9180,9200,9222,9242,9262,9282,9300,9321,9341,9361,9381,9401,9421,9441,9460,9482,9501,9521,9540,9561,9582,9601,9621,9641,9661,9682,9701,9721,9741,9761,9782,9801,9820,9841,9862,9882,9901,9920,9941,9961,9981,10001,10020,10041,10061,10081,10101,10122,10141,10161,10181,10201,10221,10242,10261,10281,10301,10321,10341,10360,10382,10401,10422,10440,10461,10482,10500,10522,10541,10562,10581,10601,10621,10641,10661,10680,10701,10722,10741,10761,10781,10801,10821,10841,10862,10882,10901,10921,10941,10961,10981,11001],"xSR":741.5,"ySR":449.15000000000003,"xT1":424.9,"yT1":0,"xT2":1058.1,"yT2":0,"toosoon":0,"cond_shown":"Incongruent","ratio_trial":100,"L_num":11,"L_den":22,"R_num":9,"R_den":15,"correct_side":2,"subjID":"CristianSantiagoChaparro5","gender":"0","age":"11","school":"6","test":{"fix_dur":[250,1500],"timestim":1000,"targets_dim":[100,100],"targets_relative_coord":[0.3,0.7],"size_stim":[880,420],"start_dim":[100,100],"size_start":[300,300],"size_fix":60,"samplingrate":20,"img_types":["Congruent","Incongruent"],"ratios":[100,200,300],"rep_conds":19,"nTrials":120,"trials_to_rest":500,"Trials_order":[13,72,52,34,48,65,87,55,40,68,105,117,101,0,118,2,111,57,85,70,54,4,64,45,98,92,44,26,81,47,106,17,73,22,59,29,41,32,119,115,100,113,84,104,86,51,78,15,107,99,7,95,14,110,46,66,63,76,5,50,58,49,31,71,3,30,60,114,9,20,79,1,103,109,53,102,56,16,38,36,43,69,112,96,23,42,97,35,25,94,19,61,37,12,27,39,89,91,18,8,74,10,28,11,82,21,93,75,33,67,77,88,24,6,83,62,108,90,80,116],"cond_shown":["Incongruent","Congruent","Congruent","Congruent","Congruent","Incongruent","Incongruent","Incongruent","Congruent","Congruent","Incongruent","Incongruent","Incongruent","Congruent","Congruent","Congruent","Incongruent","Incongruent","Incongruent","Congruent","Congruent","Congruent","Congruent","Incongruent","Congruent","Congruent","Congruent","Congruent","Incongruent","Incongruent","Congruent","Incongruent","Incongruent","Congruent","Incongruent","Incongruent","Incongruent","Congruent","Incongruent","Incongruent","Congruent","Incongruent","Congruent","Congruent","Congruent","Incongruent","Congruent","Incongruent","Incongruent","Incongruent","Incongruent","Incongruent","Congruent","Congruent","Congruent","Congruent","Incongruent","Congruent","Incongruent","Congruent","Congruent","Incongruent","Incongruent","Incongruent","Incongruent","Congruent","Congruent","Congruent","Incongruent","Congruent","Incongruent","Incongruent","Incongruent","Incongruent","Incongruent","Congruent","Congruent","Congruent","Congruent","Congruent","Incongruent","Incongruent","Congruent","Congruent","Incongruent","Congruent","Incongruent","Incongruent","Incongruent","Congruent","Incongruent","Incongruent","Incongruent","Congruent","Incongruent","Incongruent","Incongruent","Incongruent","Congruent","Congruent","Congruent","Congruent","Congruent","Incongruent","Congruent","Incongruent","Incongruent","Incongruent","Incongruent","Incongruent","Incongruent","Congruent","Congruent","Congruent","Incongruent","Congruent","Congruent","Congruent","Congruent","Congruent"],"ratio_trial":[100,100,300,300,100,300,200,100,300,200,200,200,300,100,300,200,200,200,100,300,100,300,300,200,200,200,200,200,200,300,300,300,100,300,300,300,300,200,300,100,300,300,100,200,200,200,100,200,300,200,100,300,200,200,300,100,200,300,300,200,300,100,100,300,200,100,100,100,200,200,100,100,100,100,300,100,200,300,200,100,100,200,300,100,300,100,100,300,100,300,100,100,100,100,200,200,300,100,100,200,200,300,300,300,300,200,200,200,200,100,300,300,100,100,300,200,100,100,200,200],"left_num":[11,1,20,1,2,4,1,3,18,8,1,1,8,15,5,15,7,1,8,7,11,1,7,4,3,8,12,3,4,1,2,1,12,1,4,13,13,6,8,10,7,4,12,15,3,4,8,9,1,7,13,13,3,3,3,7,3,1,4,3,4,12,13,13,1,7,2,6,4,6,9,9,13,4,4,2,7,4,15,1,9,9,7,6,4,2,6,4,3,1,3,12,9,12,4,9,13,6,7,13,8,8,3,4,1,14,3,7,14,4,13,24,12,10,4,3,3,10,3,7],"right_num":[9,18,14,19,6,2,2,8,9,3,2,2,9,13,6,4,14,2,6,20,4,19,20,14,7,3,6,7,6,2,10,3,2,11,2,12,12,11,14,8,20,2,13,4,7,6,2,8,2,14,6,12,14,14,11,9,11,11,2,14,2,2,12,12,3,9,11,5,14,3,14,20,6,8,2,11,18,13,4,3,20,8,20,5,2,11,3,2,4,3,8,9,6,13,14,8,12,13,15,14,3,1,4,2,6,12,1,6,6,8,12,8,13,3,2,14,2,3,14,2],"left_den":[22,2,25,3,5,20,3,5,20,15,3,3,10,25,25,25,10,3,16,14,22,3,14,6,10,15,15,10,5,2,20,2,30,5,20,26,26,20,10,25,14,20,30,25,10,5,16,15,2,10,26,26,6,6,12,14,4,5,20,6,5,30,26,26,2,14,5,20,6,15,15,10,26,8,20,5,15,20,25,2,10,15,14,20,20,5,12,20,6,5,5,24,18,30,6,15,26,10,14,26,15,16,6,20,5,30,10,15,30,8,26,30,30,25,20,6,6,25,10,21],"right_den":[15,30,28,30,12,4,15,16,15,9,15,15,18,26,12,10,28,15,10,25,10,30,25,30,14,9,10,14,10,10,25,15,4,22,4,15,15,22,28,16,25,4,26,10,14,10,5,10,10,28,10,15,20,20,20,15,20,22,4,20,4,4,20,15,10,15,22,25,30,15,28,25,10,20,4,22,27,26,10,5,25,10,25,25,4,22,5,4,10,6,16,15,10,26,30,10,15,26,25,20,9,5,5,4,12,18,2,9,9,20,15,16,26,10,4,20,5,10,28,15],"correct_side":[2,2,1,2,2,2,1,1,1,1,1,1,1,1,2,1,1,1,2,2,1,2,2,1,2,1,1,2,1,1,2,1,2,2,2,2,2,2,1,2,2,2,2,1,2,1,1,2,1,1,2,2,2,2,2,2,1,2,2,2,1,2,2,2,1,2,2,1,1,1,1,1,2,1,2,2,2,2,1,2,1,2,2,1,2,2,2,2,1,2,1,2,2,2,1,2,2,1,2,2,1,1,2,2,2,2,2,2,2,1,2,1,2,1,2,2,1,1,2,1],"img_shown":["img2/100/Incongruent/R/I_Dist_100_LN_11_LD_22_RN_9_RD_15_1.png","img2/100/Congruent/R/C_Dist_100_LN_1_LD_2_RN_18_RD_30_1.png","img2/300/Congruent/L/C_Dist_300_LN_20_LD_25_RN_14_RD_28_0.png","img2/300/Congruent/R/C_Dist_300_LN_1_LD_3_RN_19_RD_30_1.png","img2/100/Congruent/R/C_Dist_100_LN_2_LD_5_RN_6_RD_12_1.png","img2/300/Incongruent/R/I_Dist_300_LN_4_LD_20_RN_2_RD_4_1.png","img2/200/Incongruent/L/I_Dist_200_LN_1_LD_3_RN_2_RD_15_0.png","img2/100/Incongruent/L/I_Dist_100_LN_3_LD_5_RN_8_RD_16_0.png","img2/300/Congruent/L/C_Dist_300_LN_18_LD_20_RN_9_RD_15_0.png","img2/200/Congruent/L/C_Dist_200_LN_8_LD_15_RN_3_RD_9_0.png","img2/200/Incongruent/L/I_Dist_200_LN_1_LD_3_RN_2_RD_15_0.png","img2/200/Incongruent/L/I_Dist_200_LN_1_LD_3_RN_2_RD_15_0.png","img2/300/Incongruent/L/I_Dist_300_LN_8_LD_10_RN_9_RD_18_0.png","img2/100/Congruent/L/C_Dist_100_LN_15_LD_25_RN_13_RD_26_0.png","img2/300/Congruent/R/C_Dist_300_LN_5_LD_25_RN_6_RD_12_1.png","img2/200/Congruent/L/C_Dist_200_LN_15_LD_25_RN_4_RD_10_0.png","img2/200/Incongruent/L/I_Dist_200_LN_7_LD_10_RN_14_RD_28_0.png","img2/200/Incongruent/L/I_Dist_200_LN_1_LD_3_RN_2_RD_15_0.png","img2/100/Incongruent/R/I_Dist_100_LN_8_LD_16_RN_6_RD_10_1.png","img2/300/Congruent/R/C_Dist_300_LN_7_LD_14_RN_20_RD_25_1.png","img2/100/Congruent/L/C_Dist_100_LN_11_LD_22_RN_4_RD_10_0.png","img2/300/Congruent/R/C_Dist_300_LN_1_LD_3_RN_19_RD_30_1.png","img2/300/Congruent/R/C_Dist_300_LN_7_LD_14_RN_20_RD_25_1.png","img2/200/Incongruent/L/I_Dist_200_LN_4_LD_6_RN_14_RD_30_0.png","img2/200/Congruent/R/C_Dist_200_LN_3_LD_10_RN_7_RD_14_1.png","img2/200/Congruent/L/C_Dist_200_LN_8_LD_15_RN_3_RD_9_0.png","img2/200/Congruent/L/C_Dist_200_LN_12_LD_15_RN_6_RD_10_0.png","img2/200/Congruent/R/C_Dist_200_LN_3_LD_10_RN_7_RD_14_1.png","img2/200/Incongruent/L/I_Dist_200_LN_4_LD_5_RN_6_RD_10_0.png","img2/300/Incongruent/L/I_Dist_300_LN_1_LD_2_RN_2_RD_10_0.png","img2/300/Congruent/R/C_Dist_300_LN_2_LD_20_RN_10_RD_25_1.png","img2/300/Incongruent/L/I_Dist_300_LN_1_LD_2_RN_3_RD_15_0.png","img2/100/Incongruent/R/I_Dist_100_LN_12_LD_30_RN_2_RD_4_1.png","img2/300/Congruent/R/C_Dist_300_LN_1_LD_5_RN_11_RD_22_1.png","img2/300/Incongruent/R/I_Dist_300_LN_4_LD_20_RN_2_RD_4_1.png","img2/300/Incongruent/R/I_Dist_300_LN_13_LD_26_RN_12_RD_15_1.png","img2/300/Incongruent/R/I_Dist_300_LN_13_LD_26_RN_12_RD_15_1.png","img2/200/Congruent/R/C_Dist_200_LN_6_LD_20_RN_11_RD_22_1.png","img2/300/Incongruent/L/I_Dist_300_LN_8_LD_10_RN_14_RD_28_0.png","img2/100/Incongruent/R/I_Dist_100_LN_10_LD_25_RN_8_RD_16_1.png","img2/300/Congruent/R/C_Dist_300_LN_7_LD_14_RN_20_RD_25_1.png","img2/300/Incongruent/R/I_Dist_300_LN_4_LD_20_RN_2_RD_4_1.png","img2/100/Congruent/R/C_Dist_100_LN_12_LD_30_RN_13_RD_26_1.png","img2/200/Congruent/L/C_Dist_200_LN_15_LD_25_RN_4_RD_10_0.png","img2/200/Congruent/R/C_Dist_200_LN_3_LD_10_RN_7_RD_14_1.png","img2/200/Incongruent/L/I_Dist_200_LN_4_LD_5_RN_6_RD_10_0.png","img2/100/Congruent/L/C_Dist_100_LN_8_LD_16_RN_2_RD_5_0.png","img2/200/Incongruent/R/I_Dist_200_LN_9_LD_15_RN_8_RD_10_1.png","img2/300/Incongruent/L/I_Dist_300_LN_1_LD_2_RN_2_RD_10_0.png","img2/200/Incongruent/L/I_Dist_200_LN_7_LD_10_RN_14_RD_28_0.png","img2/100/Incongruent/R/I_Dist_100_LN_13_LD_26_RN_6_RD_10_1.png","img2/300/Incongruent/R/I_Dist_300_LN_13_LD_26_RN_12_RD_15_1.png","img2/200/Congruent/R/C_Dist_200_LN_3_LD_6_RN_14_RD_20_1.png","img2/200/Congruent/R/C_Dist_200_LN_3_LD_6_RN_14_RD_20_1.png","img2/300/Congruent/R/C_Dist_300_LN_3_LD_12_RN_11_RD_20_1.png","img2/100/Congruent/R/C_Dist_100_LN_7_LD_14_RN_9_RD_15_1.png","img2/200/Incongruent/L/I_Dist_200_LN_3_LD_4_RN_11_RD_20_0.png","img2/300/Congruent/R/C_Dist_300_LN_1_LD_5_RN_11_RD_22_1.png","img2/300/Incongruent/R/I_Dist_300_LN_4_LD_20_RN_2_RD_4_1.png","img2/200/Congruent/R/C_Dist_200_LN_3_LD_6_RN_14_RD_20_1.png","img2/300/Congruent/L/C_Dist_300_LN_4_LD_5_RN_2_RD_4_0.png","img2/100/Incongruent/R/I_Dist_100_LN_12_LD_30_RN_2_RD_4_1.png","img2/100/Incongruent/R/I_Dist_100_LN_13_LD_26_RN_12_RD_20_1.png","img2/300/Incongruent/R/I_Dist_300_LN_13_LD_26_RN_12_RD_15_1.png","img2/200/Incongruent/L/I_Dist_200_LN_1_LD_2_RN_3_RD_10_0.png","img2/100/Congruent/R/C_Dist_100_LN_7_LD_14_RN_9_RD_15_1.png","img2/100/Congruent/R/C_Dist_100_LN_2_LD_5_RN_11_RD_22_1.png","img2/100/Congruent/L/C_Dist_100_LN_6_LD_20_RN_5_RD_25_0.png","img2/200/Incongruent/L/I_Dist_200_LN_4_LD_6_RN_14_RD_30_0.png","img2/200/Congruent/L/C_Dist_200_LN_6_LD_15_RN_3_RD_15_0.png","img2/100/Incongruent/L/I_Dist_100_LN_9_LD_15_RN_14_RD_28_0.png","img2/100/Incongruent/L/I_Dist_100_LN_9_LD_10_RN_20_RD_25_0.png","img2/100/Incongruent/R/I_Dist_100_LN_13_LD_26_RN_6_RD_10_1.png","img2/100/Incongruent/L/I_Dist_100_LN_4_LD_8_RN_8_RD_20_0.png","img2/300/Incongruent/R/I_Dist_300_LN_4_LD_20_RN_2_RD_4_1.png","img2/100/Congruent/R/C_Dist_100_LN_2_LD_5_RN_11_RD_22_1.png","img2/200/Congruent/R/C_Dist_200_LN_7_LD_15_RN_18_RD_27_1.png","img2/300/Congruent/R/C_Dist_300_LN_4_LD_20_RN_13_RD_26_1.png","img2/200/Congruent/L/C_Dist_200_LN_15_LD_25_RN_4_RD_10_0.png","img2/100/Congruent/R/C_Dist_100_LN_1_LD_2_RN_3_RD_5_1.png","img2/100/Incongruent/L/I_Dist_100_LN_9_LD_10_RN_20_RD_25_0.png","img2/200/Incongruent/R/I_Dist_200_LN_9_LD_15_RN_8_RD_10_1.png","img2/300/Congruent/R/C_Dist_300_LN_7_LD_14_RN_20_RD_25_1.png","img2/100/Congruent/L/C_Dist_100_LN_6_LD_20_RN_5_RD_25_0.png","img2/300/Incongruent/R/I_Dist_300_LN_4_LD_20_RN_2_RD_4_1.png","img2/100/Congruent/R/C_Dist_100_LN_2_LD_5_RN_11_RD_22_1.png","img2/100/Incongruent/R/I_Dist_100_LN_6_LD_12_RN_3_RD_5_1.png","img2/300/Incongruent/R/I_Dist_300_LN_4_LD_20_RN_2_RD_4_1.png","img2/100/Incongruent/L/I_Dist_100_LN_3_LD_6_RN_4_RD_10_0.png","img2/300/Congruent/R/C_Dist_300_LN_1_LD_5_RN_3_RD_6_1.png","img2/100/Incongruent/L/I_Dist_100_LN_3_LD_5_RN_8_RD_16_0.png","img2/100/Incongruent/R/I_Dist_100_LN_12_LD_24_RN_9_RD_15_1.png","img2/100/Incongruent/R/I_Dist_100_LN_9_LD_18_RN_6_RD_10_1.png","img2/100/Congruent/R/C_Dist_100_LN_12_LD_30_RN_13_RD_26_1.png","img2/200/Incongruent/L/I_Dist_200_LN_4_LD_6_RN_14_RD_30_0.png","img2/200/Incongruent/R/I_Dist_200_LN_9_LD_15_RN_8_RD_10_1.png","img2/300/Incongruent/R/I_Dist_300_LN_13_LD_26_RN_12_RD_15_1.png","img2/100/Incongruent/L/I_Dist_100_LN_6_LD_10_RN_13_RD_26_0.png","img2/100/Congruent/R/C_Dist_100_LN_7_LD_14_RN_15_RD_25_1.png","img2/200/Congruent/R/C_Dist_200_LN_13_LD_26_RN_14_RD_20_1.png","img2/200/Congruent/L/C_Dist_200_LN_8_LD_15_RN_3_RD_9_0.png","img2/300/Congruent/L/C_Dist_300_LN_8_LD_16_RN_1_RD_5_0.png","img2/300/Congruent/R/C_Dist_300_LN_3_LD_6_RN_4_RD_5_1.png","img2/300/Incongruent/R/I_Dist_300_LN_4_LD_20_RN_2_RD_4_1.png","img2/300/Congruent/R/C_Dist_300_LN_1_LD_5_RN_6_RD_12_1.png","img2/200/Incongruent/R/I_Dist_200_LN_14_LD_30_RN_12_RD_18_1.png","img2/200/Incongruent/R/I_Dist_200_LN_3_LD_10_RN_1_RD_2_1.png","img2/200/Incongruent/R/I_Dist_200_LN_7_LD_15_RN_6_RD_9_1.png","img2/200/Incongruent/R/I_Dist_200_LN_14_LD_30_RN_6_RD_9_1.png","img2/100/Incongruent/L/I_Dist_100_LN_4_LD_8_RN_8_RD_20_0.png","img2/300/Incongruent/R/I_Dist_300_LN_13_LD_26_RN_12_RD_15_1.png","img2/300/Congruent/L/C_Dist_300_LN_24_LD_30_RN_8_RD_16_0.png","img2/100/Congruent/R/C_Dist_100_LN_12_LD_30_RN_13_RD_26_1.png","img2/100/Congruent/L/C_Dist_100_LN_10_LD_25_RN_3_RD_10_0.png","img2/300/Incongruent/R/I_Dist_300_LN_4_LD_20_RN_2_RD_4_1.png","img2/200/Congruent/R/C_Dist_200_LN_3_LD_6_RN_14_RD_20_1.png","img2/100/Congruent/L/C_Dist_100_LN_3_LD_6_RN_2_RD_5_0.png","img2/100/Congruent/L/C_Dist_100_LN_10_LD_25_RN_3_RD_10_0.png","img2/200/Congruent/R/C_Dist_200_LN_3_LD_10_RN_14_RD_28_1.png","img2/200/Congruent/L/C_Dist_200_LN_7_LD_21_RN_2_RD_15_0.png"],"dist100_C":[["C_Dist_100_LN_10_LD_25_RN_3_RD_10_0.png","C_Dist_100_LN_11_LD_22_RN_4_RD_10_0.png","C_Dist_100_LN_11_LD_22_RN_6_RD_15_0.png","C_Dist_100_LN_15_LD_25_RN_13_RD_26_0.png","C_Dist_100_LN_3_LD_6_RN_2_RD_5_0.png","C_Dist_100_LN_6_LD_20_RN_5_RD_25_0.png","C_Dist_100_LN_8_LD_16_RN_2_RD_5_0.png","C_Dist_100_LN_9_LD_15_RN_8_RD_16_0.png"],["C_Dist_100_LN_1_LD_2_RN_18_RD_30_1.png","C_Dist_100_LN_1_LD_2_RN_3_RD_5_1.png","C_Dist_100_LN_12_LD_30_RN_13_RD_26_1.png","C_Dist_100_LN_2_LD_5_RN_11_RD_22_1.png","C_Dist_100_LN_2_LD_5_RN_6_RD_12_1.png","C_Dist_100_LN_3_LD_20_RN_4_RD_16_1.png","C_Dist_100_LN_4_LD_10_RN_15_RD_30_1.png","C_Dist_100_LN_4_LD_8_RN_6_RD_10_1.png","C_Dist_100_LN_6_LD_12_RN_15_RD_25_1.png","C_Dist_100_LN_7_LD_14_RN_15_RD_25_1.png","C_Dist_100_LN_7_LD_14_RN_9_RD_15_1.png"]],"dist100_I":[["I_Dist_100_LN_1_LD_2_RN_8_RD_20_0.png","I_Dist_100_LN_2_LD_4_RN_6_RD_15_0.png","I_Dist_100_LN_2_LD_4_RN_8_RD_20_0.png","I_Dist_100_LN_3_LD_5_RN_11_RD_22_0.png","I_Dist_100_LN_3_LD_5_RN_8_RD_16_0.png","I_Dist_100_LN_3_LD_6_RN_4_RD_10_0.png","I_Dist_100_LN_3_LD_9_RN_7_RD_30_0.png","I_Dist_100_LN_4_LD_8_RN_8_RD_20_0.png","I_Dist_100_LN_6_LD_10_RN_11_RD_22_0.png","I_Dist_100_LN_6_LD_10_RN_13_RD_26_0.png","I_Dist_100_LN_6_LD_10_RN_7_RD_14_0.png","I_Dist_100_LN_9_LD_10_RN_20_RD_25_0.png","I_Dist_100_LN_9_LD_15_RN_13_RD_26_0.png","I_Dist_100_LN_9_LD_15_RN_14_RD_28_0.png"],["I_Dist_100_LN_10_LD_25_RN_8_RD_16_1.png","I_Dist_100_LN_10_LD_25_RN_9_RD_18_1.png","I_Dist_100_LN_11_LD_22_RN_9_RD_15_1.png","I_Dist_100_LN_12_LD_24_RN_9_RD_15_1.png","I_Dist_100_LN_12_LD_30_RN_2_RD_4_1.png","I_Dist_100_LN_13_LD_26_RN_12_RD_20_1.png","I_Dist_100_LN_13_LD_26_RN_6_RD_10_1.png","I_Dist_100_LN_17_LD_30_RN_10_RD_15_1.png","I_Dist_100_LN_6_LD_12_RN_3_RD_5_1.png","I_Dist_100_LN_8_LD_16_RN_6_RD_10_1.png","I_Dist_100_LN_8_LD_20_RN_1_RD_2_1.png","I_Dist_100_LN_9_LD_18_RN_6_RD_10_1.png"]],"dist100_S":[["E_Dist_100_LN_2_LD_12_RN_2_RD_30_0.png","E_Dist_100_LN_6_LD_10_RN_6_RD_12_0.png"],["E_Dist_100_LN_6_LD_12_RN_6_RD_10_1.png"]],"dist200_C":[["C_Dist_200_LN_11_LD_22_RN_3_RD_10_0.png","C_Dist_200_LN_12_LD_15_RN_6_RD_10_0.png","C_Dist_200_LN_12_LD_20_RN_6_RD_15_0.png","C_Dist_200_LN_14_LD_28_RN_6_RD_20_0.png","C_Dist_200_LN_15_LD_25_RN_4_RD_10_0.png","C_Dist_200_LN_16_LD_20_RN_12_RD_20_0.png","C_Dist_200_LN_16_LD_30_RN_9_RD_27_0.png","C_Dist_200_LN_20_LD_25_RN_9_RD_15_0.png","C_Dist_200_LN_21_LD_30_RN_2_RD_4_0.png","C_Dist_200_LN_4_LD_10_RN_3_RD_15_0.png","C_Dist_200_LN_4_LD_8_RN_3_RD_10_0.png","C_Dist_200_LN_6_LD_15_RN_3_RD_15_0.png","C_Dist_200_LN_7_LD_21_RN_2_RD_15_0.png","C_Dist_200_LN_8_LD_15_RN_2_RD_6_0.png","C_Dist_200_LN_8_LD_15_RN_3_RD_9_0.png","C_Dist_200_LN_8_LD_15_RN_7_RD_21_0.png","C_Dist_200_LN_9_LD_20_RN_4_RD_16_0.png"],["C_Dist_200_LN_1_LD_2_RN_21_RD_30_1.png","C_Dist_200_LN_13_LD_26_RN_14_RD_20_1.png","C_Dist_200_LN_3_LD_10_RN_11_RD_22_1.png","C_Dist_200_LN_3_LD_10_RN_14_RD_28_1.png","C_Dist_200_LN_3_LD_10_RN_7_RD_14_1.png","C_Dist_200_LN_3_LD_12_RN_9_RD_20_1.png","C_Dist_200_LN_3_LD_6_RN_14_RD_20_1.png","C_Dist_200_LN_5_LD_10_RN_14_RD_20_1.png","C_Dist_200_LN_6_LD_12_RN_7_RD_10_1.png","C_Dist_200_LN_6_LD_20_RN_11_RD_22_1.png","C_Dist_200_LN_7_LD_15_RN_18_RD_27_1.png","C_Dist_200_LN_9_LD_30_RN_13_RD_26_1.png"]],"dist200_I":[["I_Dist_200_LN_1_LD_2_RN_3_RD_10_0.png","I_Dist_200_LN_1_LD_3_RN_2_RD_15_0.png","I_Dist_200_LN_3_LD_4_RN_11_RD_20_0.png","I_Dist_200_LN_4_LD_5_RN_6_RD_10_0.png","I_Dist_200_LN_4_LD_6_RN_14_RD_30_0.png","I_Dist_200_LN_7_LD_10_RN_12_RD_24_0.png","I_Dist_200_LN_7_LD_10_RN_14_RD_28_0.png","I_Dist_200_LN_7_LD_10_RN_8_RD_16_0.png"],["I_Dist_200_LN_11_LD_20_RN_3_RD_4_1.png","I_Dist_200_LN_14_LD_30_RN_12_RD_18_1.png","I_Dist_200_LN_14_LD_30_RN_6_RD_9_1.png","I_Dist_200_LN_3_LD_10_RN_1_RD_2_1.png","I_Dist_200_LN_4_LD_30_RN_1_RD_3_1.png","I_Dist_200_LN_6_LD_20_RN_3_RD_6_1.png","I_Dist_200_LN_7_LD_15_RN_4_RD_6_1.png","I_Dist_200_LN_7_LD_15_RN_6_RD_9_1.png","I_Dist_200_LN_9_LD_15_RN_8_RD_10_1.png"]],"dist200_S":[["E_Dist_200_LN_3_LD_6_RN_3_RD_10_0.png"],["E_Dist_200_LN_3_LD_10_RN_3_RD_6_1.png"]],"dist300_C":[["C_Dist_300_LN_11_LD_22_RN_1_RD_5_0.png","C_Dist_300_LN_11_LD_22_RN_2_RD_10_0.png","C_Dist_300_LN_11_LD_22_RN_4_RD_20_0.png","C_Dist_300_LN_12_LD_24_RN_2_RD_10_0.png","C_Dist_300_LN_18_LD_20_RN_9_RD_15_0.png","C_Dist_300_LN_20_LD_25_RN_13_RD_26_0.png","C_Dist_300_LN_20_LD_25_RN_14_RD_28_0.png","C_Dist_300_LN_20_LD_25_RN_5_RD_10_0.png","C_Dist_300_LN_20_LD_25_RN_8_RD_16_0.png","C_Dist_300_LN_20_LD_25_RN_9_RD_18_0.png","C_Dist_300_LN_24_LD_30_RN_2_RD_4_0.png","C_Dist_300_LN_24_LD_30_RN_8_RD_16_0.png","C_Dist_300_LN_3_LD_6_RN_2_RD_10_0.png","C_Dist_300_LN_4_LD_10_RN_1_RD_10_0.png","C_Dist_300_LN_4_LD_5_RN_2_RD_4_0.png","C_Dist_300_LN_8_LD_16_RN_1_RD_5_0.png","C_Dist_300_LN_9_LD_10_RN_3_RD_5_0.png"],["C_Dist_300_LN_1_LD_20_RN_7_RD_20_1.png","C_Dist_300_LN_1_LD_3_RN_19_RD_30_1.png","C_Dist_300_LN_1_LD_30_RN_8_RD_24_1.png","C_Dist_300_LN_1_LD_5_RN_11_RD_22_1.png","C_Dist_300_LN_1_LD_5_RN_3_RD_6_1.png","C_Dist_300_LN_1_LD_5_RN_6_RD_12_1.png","C_Dist_300_LN_2_LD_10_RN_12_RD_24_1.png","C_Dist_300_LN_2_LD_20_RN_10_RD_25_1.png","C_Dist_300_LN_3_LD_12_RN_11_RD_20_1.png","C_Dist_300_LN_3_LD_6_RN_4_RD_5_1.png","C_Dist_300_LN_4_LD_20_RN_13_RD_26_1.png","C_Dist_300_LN_5_LD_25_RN_6_RD_12_1.png","C_Dist_300_LN_5_LD_25_RN_7_RD_14_1.png","C_Dist_300_LN_7_LD_14_RN_20_RD_25_1.png","C_Dist_300_LN_8_LD_15_RN_10_RD_12_1.png"]],"dist300_I":[["I_Dist_300_LN_1_LD_2_RN_2_RD_10_0.png","I_Dist_300_LN_1_LD_2_RN_3_RD_15_0.png","I_Dist_300_LN_2_LD_4_RN_6_RD_30_0.png","I_Dist_300_LN_3_LD_6_RN_4_RD_20_0.png","I_Dist_300_LN_4_LD_5_RN_6_RD_12_0.png","I_Dist_300_LN_4_LD_5_RN_8_RD_16_0.png","I_Dist_300_LN_7_LD_10_RN_8_RD_20_0.png","I_Dist_300_LN_8_LD_10_RN_14_RD_28_0.png","I_Dist_300_LN_8_LD_10_RN_9_RD_18_0.png"],["I_Dist_300_LN_13_LD_26_RN_12_RD_15_1.png","I_Dist_300_LN_4_LD_20_RN_2_RD_4_1.png"]],"dist300_S":[["E_Dist_300_LN_9_LD_12_RN_9_RD_20_0.png"],["E_Dist_300_LN_18_LD_30_RN_18_RD_20_1.png","E_Dist_300_LN_3_LD_10_RN_3_RD_5_1.png","E_Dist_300_LN_9_LD_20_RN_9_RD_12_1.png"]],"dist500_C":[["C_Dist_500_LN_10_LD_13_RN_7_RD_26_0.png","C_Dist_500_LN_10_LD_15_RN_4_RD_24_0.png","C_Dist_500_LN_12_LD_16_RN_3_RD_12_0.png","C_Dist_500_LN_12_LD_18_RN_4_RD_24_0.png","C_Dist_500_LN_15_LD_18_RN_5_RD_15_0.png","C_Dist_500_LN_15_LD_20_RN_1_RD_4_0.png","C_Dist_500_LN_18_LD_27_RN_1_RD_6_0.png","C_Dist_500_LN_20_LD_24_RN_1_RD_3_0.png","C_Dist_500_LN_20_LD_24_RN_3_RD_9_0.png","C_Dist_500_LN_20_LD_24_RN_7_RD_21_0.png","C_Dist_500_LN_20_LD_28_RN_3_RD_14_0.png","C_Dist_500_LN_21_LD_28_RN_6_RD_24_0.png","C_Dist_500_LN_22_LD_28_RN_2_RD_7_0.png","C_Dist_500_LN_25_LD_30_RN_9_RD_27_0.png","C_Dist_500_LN_4_LD_6_RN_1_RD_6_0.png","C_Dist_500_LN_5_LD_6_RN_2_RD_6_0.png","C_Dist_500_LN_6_LD_9_RN_1_RD_6_0.png","C_Dist_500_LN_7_LD_10_RN_1_RD_5_0.png","C_Dist_500_LN_8_LD_12_RN_1_RD_6_0.png","C_Dist_500_LN_8_LD_12_RN_4_RD_24_0.png"],["C_Dist_500_LN_1_LD_4_RN_12_RD_16_1.png","C_Dist_500_LN_1_LD_4_RN_9_RD_12_1.png","C_Dist_500_LN_1_LD_9_RN_11_RD_18_1.png","C_Dist_500_LN_10_LD_24_RN_22_RD_24_1.png","C_Dist_500_LN_2_LD_12_RN_10_RD_15_1.png","C_Dist_500_LN_2_LD_12_RN_12_RD_18_1.png","C_Dist_500_LN_2_LD_12_RN_4_RD_6_1.png","C_Dist_500_LN_2_LD_24_RN_7_RD_12_1.png","C_Dist_500_LN_2_LD_5_RN_18_RD_20_1.png","C_Dist_500_LN_2_LD_5_RN_9_RD_10_1.png","C_Dist_500_LN_2_LD_8_RN_12_RD_16_1.png","C_Dist_500_LN_2_LD_8_RN_21_RD_28_1.png","C_Dist_500_LN_3_LD_10_RN_4_RD_5_1.png","C_Dist_500_LN_3_LD_12_RN_15_RD_20_1.png","C_Dist_500_LN_3_LD_30_RN_6_RD_10_1.png","C_Dist_500_LN_3_LD_8_RN_14_RD_16_1.png","C_Dist_500_LN_4_LD_16_RN_15_RD_20_1.png","C_Dist_500_LN_4_LD_24_RN_12_RD_18_1.png","C_Dist_500_LN_5_LD_14_RN_6_RD_7_1.png","C_Dist_500_LN_7_LD_21_RN_20_RD_24_1.png","C_Dist_500_LN_7_LD_28_RN_12_RD_16_1.png","C_Dist_500_LN_7_LD_28_RN_9_RD_12_1.png","C_Dist_500_LN_9_LD_27_RN_20_RD_24_1.png"]],"dist500_I":[["I_Dist_500_LN_2_LD_3_RN_4_RD_24_0.png","I_Dist_500_LN_5_LD_6_RN_6_RD_18_0.png","I_Dist_500_LN_7_LD_8_RN_9_RD_24_0.png"],["I_Dist_500_LN_7_LD_21_RN_5_RD_6_1.png"]],"dist500_S":[["E_Dist_500_LN_6_LD_8_RN_6_RD_24_0.png"],["E_Dist_500_LN_2_LD_12_RN_2_RD_3_1.png","E_Dist_500_LN_6_LD_24_RN_6_RD_8_1.png"]]}},{"start_time":1551881779668,"click_time":1551881781410,"finger_time":1551881780869,"fix_duration":876.3010320764031,"trial":1,"RT":1201,"MT":541,"sideResp":2,"stimulus":[],"xmouse":[815,815,815,816,816,816,816,816,816,816,816,816,816,816,816,816,816,816,816,816,816,816,816,816,816,816,816,816,816,816,816,816,816,816,816,816,816,816,816,816,816,816,816,816,816,816,816,816,816,816,816,816,818,818,819,819,819,816,803,795,771,756,731,729,729,730,732,745,756,764,779,787,813,825,832,836,840,859,877,897,937,993,1064,1082,1093,1100,1108,1132],"ymouse":[509,509,509,509,509,509,509,509,509,509,509,509,509,509,509,509,509,509,509,509,509,509,509,509,509,509,509,509,509,509,509,509,509,509,509,509,509,509,509,509,509,509,509,509,509,509,509,509,509,509,509,509,507,505,502,499,497,482,461,451,421,402,368,359,356,354,352,337,328,320,296,289,276,270,265,262,259,251,246,241,224,203,174,162,153,140,121,74],"timestamp_mouse":[8,22,42,61,82,102,122,143,162,182,202,222,242,262,282,302,322,341,363,382,403,423,443,462,483,502,522,543,563,582,602,622,642,662,681,703,723,742,761,783,801,822,842,862,882,901,922,941,962,981,1002,1022,1042,1062,1082,1102,1123,1142,1163,1182,1201,1222,1243,1261,1283,1303,1323,1342,1362,1383,1402,1422,1442,1462,1482,1501,1522,1542,1562,1582,1601,1621,1642,1662,1682,1703,1723,1742],"xSR":741.5,"ySR":449.15000000000003,"xT1":424.9,"yT1":0,"xT2":1058.1,"yT2":0,"toosoon":0,"cond_shown":"Congruent","ratio_trial":100,"L_num":1,"L_den":2,"R_num":18,"R_den":30,"correct_side":2,"subjID":"CristianSantiagoChaparro5","gender":"0","school":"6","age":"11"},{"start_time":1551881783346,"click_time":1551881784630,"finger_time":1551881783610,"fix_duration":773.9183281443312,"trial":2,"RT":264,"MT":1020,"sideResp":1,"stimulus":[],"xmouse":[744,744,744,744,744,744,744,744,744,744,744,744,744,741,739,735,732,729,728,728,728,728,728,728,728,728,728,728,728,728,728,728,728,728,728,727,726,725,719,716,714,713,713,713,713,714,715,716,720,722,724,726,727,726,722,705,690,676,652,640,628,612,590,533,509],"ymouse":[496,496,496,496,496,496,496,496,496,496,496,496,496,499,504,508,513,517,518,518,518,518,518,518,518,518,518,518,518,518,518,518,518,518,516,511,502,492,456,436,419,400,381,347,335,325,307,296,271,259,247,236,229,220,216,201,192,185,171,162,154,145,131,104,90],"timestamp_mouse":[8,24,45,64,85,104,125,143,163,184,204,224,244,264,284,304,324,344,364,383,404,424,445,464,483,504,524,544,564,584,604,624,643,664,684,703,724,745,764,784,804,824,845,863,884,904,925,944,964,984,1004,1024,1044,1064,1084,1103,1125,1144,1164,1184,1204,1224,1245,1263,1284],"xSR":741.5,"ySR":449.15000000000003,"xT1":424.9,"yT1":0,"xT2":1058.1,"yT2":0,"toosoon":0,"cond_shown":"Congruent","ratio_trial":300,"L_num":20,"L_den":25,"R_num":14,"R_den":28,"correct_side":1,"subjID":"CristianSantiagoChaparro5","gender":"0","school":"6","age":"11"},{"start_time":1551881790206,"click_time":1551881792110,"finger_time":1551881791430,"fix_duration":1473.45986071841,"trial":3,"RT":1224,"MT":680,"sideResp":2,"stimulus":[],"xmouse":[778,778,778,778,779,780,780,780,780,780,780,780,780,780,780,780,782,786,788,789,791,792,792,793,793,793,793,793,793,793,793,793,793,793,793,793,794,794,794,794,794,794,794,794,794,794,794,794,794,794,794,794,794,794,794,794,794,794,796,800,839,861,882,916,948,1006,1031,1050,1065,1074,1084,1090,1098,1106,1109,1111,1111,1111,1111,1111,1111,1111,1111,1111,1109,1097,1092,1090,1090,1090,1090,1090,1091,1091,1091,1109],"ymouse":[502,502,502,500,499,498,498,498,498,498,498,498,498,498,498,498,496,493,492,490,488,487,485,484,484,484,484,484,484,484,484,484,484,484,484,484,483,483,483,483,483,483,483,483,483,483,483,483,483,483,483,483,483,483,483,483,483,483,482,479,455,442,429,400,367,297,268,244,220,201,188,181,171,159,153,149,149,149,149,149,149,148,146,140,139,131,123,116,111,108,107,105,103,103,103,39],"timestamp_mouse":[7,24,46,65,84,104,123,145,164,184,205,224,245,265,284,303,324,344,364,385,404,424,444,464,484,504,525,544,564,584,603,624,644,664,684,703,724,744,763,785,804,824,844,865,883,905,924,943,964,983,1004,1025,1044,1064,1085,1103,1124,1145,1164,1183,1203,1224,1244,1264,1284,1303,1323,1344,1364,1384,1404,1424,1444,1463,1484,1504,1524,1545,1564,1584,1604,1625,1644,1664,1685,1704,1724,1744,1764,1784,1804,1824,1844,1865,1884,1903],"xSR":741.5,"ySR":449.15000000000003,"xT1":424.9,"yT1":0,"xT2":1058.1,"yT2":0,"toosoon":0,"cond_shown":"Congruent","ratio_trial":300,"L_num":1,"L_den":3,"R_num":19,"R_den":30,"correct_side":2,"subjID":"CristianSantiagoChaparro5","gender":"0","school":"6","age":"11"},{"start_time":1551881796587,"click_time":1551881798470,"finger_time":1551881797471,"fix_duration":256.99379619510654,"trial":4,"RT":884,"MT":999,"sideResp":2,"stimulus":[],"xmouse":[791,791,791,791,792,792,792,792,792,792,792,792,792,792,792,792,792,792,792,792,792,792,792,792,792,792,792,792,793,793,793,793,793,793,792,792,792,792,792,792,793,800,808,830,854,883,926,945,968,985,1004,1031,1039,1039,1039,1039,1039,1039,1039,1039,1039,1039,1039,1039,1039,1039,1039,1039,1039,1039,1039,1039,1039,992,997,1001,1006,1009,1014,1018,1022,1030,1034,1038,1041,1042,1045,1045,1046,1047,1048,1050,1053,1058,1062],"ymouse":[505,504,504,503,502,502,502,502,502,502,502,501,500,500,500,500,500,500,500,500,500,500,500,500,500,500,500,500,499,499,499,499,498,494,492,491,491,491,490,489,487,481,476,461,445,421,372,340,296,256,212,143,100,59,7,7,7,7,7,7,7,7,7,7,7,7,7,7,7,7,7,7,7,1,16,20,21,22,23,24,25,27,27,26,25,24,24,24,24,24,24,23,23,23,23],"timestamp_mouse":[8,22,50,63,83,104,124,144,164,184,202,224,243,263,283,304,324,343,363,384,404,424,443,462,482,504,523,544,563,584,603,623,644,663,683,703,724,743,764,783,803,823,844,862,884,903,923,943,964,982,1004,1023,1044,1063,1083,1103,1123,1143,1164,1183,1204,1223,1243,1264,1282,1304,1323,1343,1363,1383,1403,1423,1443,1463,1482,1503,1523,1542,1562,1583,1602,1622,1643,1662,1683,1703,1724,1744,1764,1782,1803,1823,1844,1862,1882],"xSR":741.5,"ySR":449.15000000000003,"xT1":424.9,"yT1":0,"xT2":1058.1,"yT2":0,"toosoon":0,"cond_shown":"Congruent","ratio_trial":100,"L_num":2,"L_den":5,"R_num":6,"R_den":12,"correct_side":2,"subjID":"CristianSantiagoChaparro5","gender":"0","school":"6","age":"11"},{"start_time":1551881799904,"click_time":1551881800971,"finger_time":1551881800310,"fix_duration":250,"trial":5,"RT":406,"MT":661,"sideResp":1,"stimulus":[],"xmouse":[805,805,805,804,804,804,804,804,804,804,803,803,802,801,800,800,799,797,792,789,782,774,764,757,753,752,751,748,745,737,707,694,688,683,676,646,628,592,567,551,546,546,546,552,558,567,567,567,557,549,536,532,527,523],"ymouse":[508,508,508,508,507,506,506,506,505,504,502,499,497,493,489,480,475,469,460,456,449,443,434,426,420,416,412,404,394,364,293,258,239,224,208,149,113,61,32,14,7,7,12,24,33,46,50,55,66,74,87,90,92,92],"timestamp_mouse":[7,27,47,66,87,107,126,145,167,186,206,226,246,266,287,306,326,347,366,387,406,426,446,466,485,506,526,546,566,586,606,626,646,666,685,706,726,746,766,787,805,826,847,866,886,906,926,946,966,987,1007,1026,1046,1066],"xSR":741.5,"ySR":449.15000000000003,"xT1":424.9,"yT1":0,"xT2":1058.1,"yT2":0,"toosoon":0,"cond_shown":"Incongruent","ratio_trial":300,"L_num":4,"L_den":20,"R_num":2,"R_den":4,"correct_side":2,"subjID":"CristianSantiagoChaparro5","gender":"0","school":"6","age":"11"},{"start_time":1551881802709,"click_time":1551881804870,"finger_time":1551881803970,"fix_duration":798.4261616974601,"trial":6,"RT":1261,"MT":900,"sideResp":1,"stimulus":[],"xmouse":[799,797,794,792,790,790,790,790,790,790,790,790,790,790,790,790,790,790,790,790,790,790,790,790,790,790,790,790,790,790,790,790,790,790,790,791,791,791,793,795,801,808,812,815,817,817,817,817,817,817,817,817,817,817,817,817,817,817,817,819,824,828,835,848,865,908,928,947,973,987,1019,1030,1038,1046,1050,1054,1055,1055,1056,1056,1037,1018,1001,991,988,988,988,988,990,994,997,997,997,996,993,988,986,986,986,985,975,958,934,902,848,685,612,552,522],"ymouse":[486,486,487,487,488,488,488,488,488,488,488,488,488,488,488,488,488,488,488,488,488,488,488,488,488,488,488,488,488,488,488,488,488,488,488,488,488,488,487,486,481,477,475,473,472,472,472,472,472,472,472,472,472,472,472,472,472,472,472,470,468,465,460,451,442,410,394,373,334,313,280,273,271,268,267,266,266,266,266,266,268,271,271,272,272,272,272,270,262,253,238,231,228,226,223,222,221,221,221,221,218,213,206,198,182,136,114,98,90],"timestamp_mouse":[9,21,46,62,81,101,122,141,160,182,201,221,240,262,281,301,321,341,361,381,400,421,441,461,482,501,522,541,560,580,601,621,640,661,681,701,721,740,762,781,801,821,840,861,880,901,921,941,960,981,1001,1021,1041,1061,1081,1101,1121,1141,1161,1181,1201,1221,1242,1260,1281,1301,1321,1341,1360,1382,1401,1420,1442,1461,1481,1501,1521,1541,1561,1581,1601,1620,1642,1661,1681,1701,1721,1741,1761,1782,1801,1821,1841,1862,1882,1900,1921,1941,1960,1980,2001,2021,2041,2061,2082,2101,2122,2141,2161],"xSR":741.5,"ySR":449.15000000000003,"xT1":424.9,"yT1":0,"xT2":1058.1,"yT2":0,"toosoon":0,"cond_shown":"Incongruent","ratio_trial":200,"L_num":1,"L_den":3,"R_num":2,"R_den":15,"correct_side":1,"subjID":"CristianSantiagoChaparro5","gender":"0","school":"6","age":"11"},{"start_time":1551881807642,"click_time":1551881809410,"finger_time":1551881808470,"fix_duration":470.90624414038484,"trial":7,"RT":828,"MT":940,"sideResp":2,"stimulus":[],"xmouse":[798,798,798,798,798,798,798,798,798,798,798,798,798,798,798,798,797,797,797,796,796,796,796,796,796,796,796,796,795,793,788,784,780,778,778,778,778,778,775,774,774,781,801,850,871,893,913,934,970,970,970,970,970,970,970,970,970,970,970,970,970,970,970,970,970,970,970,970,970,970,970,970,1036,1036,1035,1035,1035,1035,1035,1035,1035,1036,1039,1042,1044,1048,1051,1053,1060],"ymouse":[485,482,479,479,479,479,479,479,479,479,479,479,479,479,478,478,478,478,478,479,479,479,479,479,479,479,479,479,480,482,485,489,493,495,495,495,495,495,493,489,474,425,367,271,229,187,144,88,8,8,8,8,8,8,8,8,8,8,8,8,8,8,8,8,8,8,8,8,8,8,8,8,4,15,18,21,23,23,24,24,24,24,24,24,24,24,24,24,24],"timestamp_mouse":[8,28,49,68,88,108,128,148,168,188,208,229,249,269,289,307,329,348,369,388,408,427,449,469,488,508,529,548,568,589,608,629,649,668,688,709,729,748,768,788,808,828,848,868,888,908,928,949,968,988,1009,1028,1049,1068,1088,1109,1129,1148,1168,1188,1209,1229,1249,1269,1287,1308,1329,1349,1368,1388,1409,1429,1449,1468,1488,1509,1529,1548,1568,1588,1608,1629,1648,1669,1688,1708,1729,1749,1768],"xSR":741.5,"ySR":449.15000000000003,"xT1":424.9,"yT1":0,"xT2":1058.1,"yT2":0,"toosoon":0,"cond_shown":"Incongruent","ratio_trial":100,"L_num":3,"L_den":5,"R_num":8,"R_den":16,"correct_side":1,"subjID":"CristianSantiagoChaparro5","gender":"0","school":"6","age":"11"},{"start_time":1551881813426,"click_time":1551881815450,"finger_time":1551881814790,"fix_duration":1134.3386677201108,"trial":8,"RT":1364,"MT":660,"sideResp":2,"stimulus":[],"xmouse":[767,768,768,768,768,768,768,768,768,768,768,768,768,768,768,768,768,768,768,768,768,768,768,768,769,769,769,769,769,769,769,769,769,769,769,769,769,769,769,769,769,769,769,769,769,770,770,770,770,770,770,770,770,770,770,770,771,772,772,772,772,773,774,775,780,786,798,815,846,963,1022,1066,1124,1143,1152,1154,1158,1162,1170,1185,1202,1206,1217,1218,1214,1209,1206,1203,1200,1194,1192,1192,1192,1192,1192,1192,1192,1192,1188,1176,1161,1144],"ymouse":[488,488,488,488,488,488,488,488,488,488,488,488,488,488,488,488,488,488,488,488,488,488,488,488,488,488,488,488,488,488,488,488,488,488,488,488,488,488,488,488,488,488,488,488,488,488,488,488,488,488,488,488,488,488,488,488,487,486,486,486,486,485,485,484,480,475,467,457,439,373,337,304,248,216,200,200,198,195,190,178,168,166,158,153,141,138,137,136,135,128,123,123,123,122,122,122,122,122,119,108,95,84],"timestamp_mouse":[4,24,48,65,85,104,125,144,165,184,205,224,245,264,285,304,324,344,365,385,404,424,445,464,484,504,525,545,564,584,603,624,645,663,684,705,724,744,765,784,804,824,844,864,884,904,924,944,965,984,1004,1024,1045,1065,1084,1103,1124,1145,1165,1184,1205,1224,1244,1264,1284,1304,1325,1345,1364,1384,1405,1424,1444,1464,1484,1504,1525,1545,1565,1584,1605,1625,1645,1665,1684,1704,1725,1744,1764,1784,1804,1824,1845,1864,1884,1904,1924,1944,1964,1984,2004,2024],"xSR":741.5,"ySR":449.15000000000003,"xT1":424.9,"yT1":0,"xT2":1058.1,"yT2":0,"toosoon":0,"cond_shown":"Congruent","ratio_trial":300,"L_num":18,"L_den":20,"R_num":9,"R_den":15,"correct_side":1,"subjID":"CristianSantiagoChaparro5","gender":"0","school":"6","age":"11"},{"start_time":1551881817737,"click_time":1551881820850,"finger_time":1551881819330,"fix_duration":743.7316243028268,"trial":9,"RT":1593,"MT":1520,"sideResp":2,"stimulus":[],"xmouse":[808,808,808,808,808,808,808,808,808,808,808,808,808,808,808,808,808,808,808,808,808,808,808,808,808,808,808,808,808,808,808,808,808,808,808,808,808,808,808,808,808,808,808,808,808,808,808,808,808,808,808,808,808,808,808,808,808,808,808,808,808,808,808,808,808,808,808,808,808,808,808,808,808,808,808,808,805,804,803,803,800,796,788,754,729,703,688,676,659,647,636,624,611,601,600,600,599,598,597,597,597,597,597,597,597,597,597,597,597,597,597,596,590,578,571,570,570,570,570,570,570,570,570,578,603,671,749,844,1029,1111,1173,1221,1243,1263,1270,1277,1283,1288,1292,1292,1292,1289,1276,1243,1228,1214,1198,1192,1184,1181,1179,1175,1170,1164,1161,1158],"ymouse":[500,500,500,500,500,500,500,500,500,500,500,500,500,500,500,500,500,500,500,500,500,500,500,500,500,500,500,500,500,500,500,500,500,500,500,500,500,500,500,500,500,500,500,500,500,500,500,500,500,500,500,500,500,500,500,500,500,500,500,500,500,500,500,500,500,500,500,500,500,500,500,500,500,500,500,494,489,482,464,449,433,415,396,338,304,267,246,227,188,169,154,141,130,118,114,112,108,105,104,104,104,104,104,104,104,104,104,104,104,104,104,104,104,101,100,99,99,99,99,99,99,99,99,99,99,99,99,111,153,181,207,228,236,239,238,233,228,223,215,211,208,202,195,179,172,162,150,144,133,127,124,119,114,105,101,97],"timestamp_mouse":[13,34,54,73,94,114,134,153,173,194,213,233,254,274,293,314,334,353,374,394,413,433,453,474,493,513,533,554,573,593,614,633,653,673,694,714,734,753,773,793,814,834,853,873,894,914,934,954,973,993,1013,1033,1054,1074,1094,1113,1133,1153,1173,1193,1214,1234,1253,1273,1294,1313,1334,1352,1373,1393,1413,1434,1453,1473,1494,1513,1534,1553,1573,1593,1613,1634,1654,1673,1694,1713,1734,1753,1773,1793,1813,1834,1854,1873,1894,1913,1933,1953,1973,1993,2013,2033,2054,2073,2094,2113,2133,2154,2173,2193,2214,2233,2253,2273,2293,2313,2333,2353,2373,2393,2414,2433,2454,2473,2494,2513,2533,2554,2574,2593,2613,2634,2653,2673,2694,2713,2733,2754,2773,2793,2813,2834,2854,2873,2892,2914,2933,2953,2973,2993,3014,3033,3054,3073,3093,3113],"xSR":741.5,"ySR":449.15000000000003,"xT1":424.9,"yT1":0,"xT2":1058.1,"yT2":0,"toosoon":0,"cond_shown":"Congruent","ratio_trial":200,"L_num":8,"L_den":15,"R_num":3,"R_den":9,"correct_side":1,"subjID":"CristianSantiagoChaparro5","gender":"0","school":"6","age":"11"},{"start_time":1551881822541,"click_time":1551881825710,"finger_time":1551881823010,"fix_duration":250,"trial":10,"RT":469,"MT":2700,"sideResp":1,"stimulus":[],"xmouse":[780,780,780,780,780,780,780,780,780,780,780,780,780,782,783,783,783,783,783,783,783,783,783,783,781,780,779,778,778,778,778,778,779,786,789,791,792,792,792,792,792,792,792,792,792,792,792,792,792,792,792,792,792,791,789,785,782,778,770,767,766,765,765,765,765,765,765,764,763,762,762,762,762,761,760,760,759,758,757,757,757,757,757,757,757,757,757,757,757,750,738,721,700,648,607,593,567,562,562,562,562,562,562,568,572,577,583,584,585,585,585,585,585,585,585,585,585,585,585,585,585,585,585,585,585,585,585,585,585,585,585,585,585,585,592,622,643,668,705,718,730,738,743,747,747,747,747,747,745,743,740,738,734,719,689,673,611,556,474],"ymouse":[471,471,471,471,471,471,471,471,471,471,471,471,471,469,467,467,467,467,467,467,464,459,454,447,444,441,438,437,437,437,435,433,429,418,412,407,403,403,403,403,403,403,403,403,403,403,403,403,403,403,403,403,403,404,406,411,415,420,428,431,432,433,433,433,433,433,433,434,436,437,438,439,439,442,443,445,448,449,451,451,451,451,451,451,451,451,451,451,451,449,440,427,408,335,273,251,209,196,191,191,191,191,191,191,191,191,192,192,192,192,192,192,192,192,192,192,192,192,192,192,192,192,192,192,192,192,192,192,192,192,192,192,192,192,192,180,174,170,166,164,162,160,158,157,157,157,157,157,158,159,160,160,160,160,151,148,131,115,76],"timestamp_mouse":[9,32,49,69,89,110,129,149,169,190,209,229,249,269,289,309,329,349,369,389,409,429,450,469,489,509,530,549,569,589,609,629,649,669,689,709,730,749,769,790,809,830,849,869,890,910,929,949,970,989,1008,1030,1050,1070,1090,1109,1130,1149,1169,1189,1210,1230,1249,1270,1290,1310,1330,1349,1370,1389,1410,1429,1449,1468,1489,1509,1530,1549,1568,1589,1610,1631,1649,1669,1689,1709,1730,1750,1769,1789,1809,1829,1849,1869,1890,1909,1929,1950,1969,1989,2010,2030,2049,2069,2090,2109,2130,2149,2169,2189,2209,2229,2249,2269,2289,2309,2329,2349,2369,2389,2409,2429,2449,2469,2489,2509,2529,2549,2569,2589,2610,2629,2649,2669,2689,2709,2729,2750,2769,2789,2809,2829,2849,2869,2889,2909,2929,2949,2970,2989,3009,3030,3049,3069,3090,3110,3129,3149,3169],"xSR":741.5,"ySR":449.15000000000003,"xT1":424.9,"yT1":0,"xT2":1058.1,"yT2":0,"toosoon":0,"cond_shown":"Incongruent","ratio_trial":200,"L_num":1,"L_den":3,"R_num":2,"R_den":15,"correct_side":1,"subjID":"CristianSantiagoChaparro5","gender":"0","school":"6","age":"11"},{"start_time":1551881827626,"click_time":1551881830051,"finger_time":1551881829910,"fix_duration":734.9322706647167,"trial":11,"RT":2284,"MT":141,"sideResp":1,"stimulus":[],"xmouse":[764,764,766,767,767,767,767,767,767,767,767,767,767,767,767,767,767,767,767,767,767,767,767,767,767,767,767,767,767,767,767,767,767,767,767,767,767,767,767,767,767,767,767,767,767,767,767,767,767,767,767,767,767,767,767,767,767,767,767,767,767,767,767,767,767,767,767,767,767,767,767,767,767,767,767,767,765,762,760,754,751,747,746,746,746,746,746,746,746,746,746,747,748,750,752,752,752,752,752,752,752,752,752,752,753,754,755,755,755,755,755,755,755,756,751,745,729,709,678,586,525,455],"ymouse":[493,495,498,500,500,500,500,500,500,500,500,500,500,500,500,500,500,500,500,500,500,500,500,500,500,500,500,500,500,500,500,500,500,500,500,500,500,500,500,500,500,500,500,500,500,500,500,500,500,500,500,500,500,500,500,500,500,500,500,500,500,500,500,500,500,500,500,500,500,500,500,500,500,500,500,500,497,493,487,477,473,469,467,466,465,464,464,464,464,464,464,464,464,464,464,464,464,464,464,464,464,464,464,464,464,464,464,464,464,464,464,464,464,464,446,429,401,369,323,206,145,85],"timestamp_mouse":[4,24,45,63,84,104,124,145,164,184,205,224,244,265,284,305,325,345,364,384,404,423,445,464,484,504,524,545,564,585,604,625,645,664,684,704,724,744,764,784,804,824,844,864,884,904,924,945,964,984,1004,1024,1045,1064,1084,1105,1124,1145,1164,1184,1204,1225,1244,1264,1283,1303,1324,1344,1364,1384,1405,1425,1445,1464,1484,1504,1524,1545,1565,1584,1604,1625,1645,1664,1684,1704,1723,1744,1765,1784,1804,1824,1844,1864,1884,1904,1924,1945,1964,1984,2004,2025,2045,2064,2084,2105,2124,2144,2164,2184,2204,2225,2243,2264,2284,2303,2324,2344,2364,2384,2405,2425],"xSR":741.5,"ySR":449.15000000000003,"xT1":424.9,"yT1":0,"xT2":1058.1,"yT2":0,"toosoon":0,"cond_shown":"Incongruent","ratio_trial":200,"L_num":1,"L_den":3,"R_num":2,"R_den":15,"correct_side":1,"subjID":"CristianSantiagoChaparro5","gender":"0","school":"6","age":"11"},{"start_time":1551881832006,"click_time":1551881833970,"finger_time":1551881833410,"fix_duration":595.2009985402711,"trial":12,"RT":1404,"MT":560,"sideResp":1,"stimulus":[],"xmouse":[799,799,799,799,799,799,799,799,799,799,799,799,799,799,799,799,799,799,799,799,799,799,799,799,799,799,799,799,799,799,799,799,799,799,799,799,799,799,799,799,799,799,799,799,799,799,799,799,799,799,799,799,799,799,799,799,799,799,799,799,799,799,799,799,799,799,799,793,785,764,724,706,695,684,676,651,631,614,602,595,589,589,589,589,589,598,616,629,636,638,633,633,633,633,633,633,633,534,518],"ymouse":[477,477,477,477,477,477,477,477,477,477,477,477,477,477,477,477,477,477,477,477,477,477,477,477,477,477,477,477,477,477,477,477,477,477,477,477,477,477,477,477,477,477,477,477,477,477,477,477,477,477,477,477,477,477,477,477,477,477,477,477,477,477,477,477,477,477,477,475,471,455,420,400,379,352,334,303,290,279,272,266,257,252,247,229,210,160,123,89,59,31,1,1,1,1,1,1,1,12,17],"timestamp_mouse":[9,35,45,65,85,104,124,144,164,184,204,224,244,264,285,304,324,344,364,384,404,425,444,464,484,504,524,544,564,584,604,624,644,665,684,704,724,744,764,785,804,824,844,864,885,904,925,944,964,985,1004,1025,1044,1065,1085,1104,1124,1143,1164,1184,1204,1224,1245,1265,1284,1304,1325,1345,1364,1385,1404,1424,1445,1464,1484,1504,1524,1545,1565,1585,1604,1625,1645,1664,1684,1704,1724,1744,1764,1785,1804,1825,1844,1864,1884,1904,1924,1944,1963],"xSR":741.5,"ySR":449.15000000000003,"xT1":424.9,"yT1":0,"xT2":1058.1,"yT2":0,"toosoon":0,"cond_shown":"Incongruent","ratio_trial":300,"L_num":8,"L_den":10,"R_num":9,"R_den":18,"correct_side":1,"subjID":"CristianSantiagoChaparro5","gender":"0","school":"6","age":"11"},{"start_time":1551881836099,"click_time":1551881838310,"finger_time":1551881837530,"fix_duration":846.6053962634268,"trial":13,"RT":1431,"MT":780,"sideResp":1,"stimulus":[],"xmouse":[818,818,818,818,818,818,818,818,818,818,818,818,818,818,817,815,814,814,814,813,813,813,813,813,813,813,813,813,813,813,813,813,813,813,813,813,813,813,813,813,813,813,813,813,813,813,813,813,813,814,815,816,817,817,817,817,817,817,817,817,817,817,817,817,817,817,817,817,817,818,823,827,830,833,833,830,824,820,818,818,824,825,825,822,814,801,799,795,794,791,778,767,752,740,725,695,682,676,675,675,675,675,674,674,669,647,632,608,566,542,500],"ymouse":[479,479,479,479,479,479,479,479,479,479,479,478,478,477,477,477,476,476,476,475,475,475,475,475,475,475,475,475,475,475,475,475,475,475,475,475,475,475,475,475,475,475,475,475,475,475,475,475,475,475,475,475,475,475,475,475,475,475,475,475,475,475,475,475,475,475,475,475,474,473,457,441,420,401,381,337,315,282,263,245,209,192,180,170,160,152,151,150,150,150,150,151,151,151,151,148,144,142,142,142,142,142,142,142,142,137,132,121,106,95,67],"timestamp_mouse":[12,31,52,72,91,112,131,152,171,192,211,232,251,271,292,311,330,352,371,391,412,431,452,472,491,512,531,551,571,592,611,631,651,671,692,711,731,751,772,791,811,831,852,872,891,911,931,951,972,992,1011,1031,1051,1071,1091,1111,1132,1151,1171,1191,1211,1232,1252,1271,1291,1312,1331,1351,1371,1392,1411,1431,1450,1471,1491,1511,1531,1550,1571,1591,1611,1631,1651,1671,1692,1711,1731,1751,1772,1791,1811,1831,1851,1871,1891,1911,1932,1951,1971,1991,2012,2031,2051,2071,2090,2111,2131,2151,2171,2192,2211],"xSR":741.5,"ySR":449.15000000000003,"xT1":424.9,"yT1":0,"xT2":1058.1,"yT2":0,"toosoon":0,"cond_shown":"Congruent","ratio_trial":100,"L_num":15,"L_den":25,"R_num":13,"R_den":26,"correct_side":1,"subjID":"CristianSantiagoChaparro5","gender":"0","school":"6","age":"11"},{"start_time":1551881839910,"click_time":1551881842530,"finger_time":1551881840670,"fix_duration":477.6375250120524,"trial":14,"RT":760,"MT":1860,"sideResp":1,"stimulus":[],"xmouse":[793,793,793,793,794,797,797,797,797,797,797,797,797,797,797,797,797,797,797,797,797,797,797,797,797,797,797,797,797,797,797,797,797,797,797,797,788,764,707,660,600,591,587,587,588,594,602,609,621,632,663,675,682,690,691,691,691,691,691,691,691,691,691,693,696,703,707,711,720,724,729,731,734,736,738,742,742,743,743,744,752,758,761,763,766,771,774,780,787,796,812,817,820,821,821,821,821,821,821,821,821,821,821,822,822,821,817,814,801,787,735,705,679,662,648,613,576,568,560,560,560,560,560,560,560,560,560,560,551,544,526,518],"ymouse":[499,499,499,499,495,487,485,484,483,483,483,483,483,483,483,483,484,486,486,486,487,487,487,487,487,487,487,487,487,487,487,487,487,487,487,487,485,480,473,459,439,433,430,430,428,426,426,426,426,426,426,426,426,428,428,428,428,428,428,428,428,428,428,428,428,428,428,428,428,428,427,426,424,423,423,422,422,422,422,422,427,431,433,436,439,445,450,456,461,467,476,479,480,481,481,481,481,481,481,481,481,481,482,482,484,485,486,486,483,477,443,416,382,342,296,173,74,44,2,2,2,2,2,2,2,2,2,2,1,12,34,41],"timestamp_mouse":[1,21,40,60,80,100,120,140,161,180,201,220,240,260,280,300,321,340,360,381,400,420,440,460,481,500,520,541,560,580,600,620,640,660,680,700,720,740,759,780,800,820,840,860,880,900,921,940,961,980,1000,1020,1040,1060,1080,1100,1121,1141,1160,1180,1201,1220,1240,1260,1281,1300,1321,1340,1360,1380,1400,1420,1440,1460,1481,1500,1521,1541,1561,1580,1600,1620,1640,1661,1680,1699,1721,1739,1760,1781,1801,1821,1840,1860,1879,1899,1920,1940,1960,1980,2000,2020,2041,2060,2080,2100,2121,2140,2161,2180,2200,2220,2240,2260,2281,2300,2321,2341,2360,2380,2400,2420,2440,2460,2480,2501,2521,2540,2560,2581,2601,2619],"xSR":741.5,"ySR":449.15000000000003,"xT1":424.9,"yT1":0,"xT2":1058.1,"yT2":0,"toosoon":0,"cond_shown":"Congruent","ratio_trial":300,"L_num":5,"L_den":25,"R_num":6,"R_den":12,"correct_side":2,"subjID":"CristianSantiagoChaparro5","gender":"0","school":"6","age":"11"},{"start_time":1551881849581,"click_time":1551881851830,"finger_time":1551881850570,"fix_duration":250,"trial":15,"RT":989,"MT":1260,"sideResp":2,"stimulus":[],"xmouse":[800,800,800,800,800,800,800,800,800,800,800,800,800,800,800,800,800,800,800,800,800,800,800,800,800,800,800,800,800,800,800,800,800,800,800,800,800,800,800,800,800,800,800,800,800,799,791,787,784,780,777,773,770,768,764,761,759,757,755,755,755,755,755,755,755,763,811,869,957,1073,1186,1369,1438,1456,1458,1460,1466,1470,1473,1473,1473,1468,1455,1434,1384,1319,1224,1224,1224,1224,1224,1224,1224,1224,1224,1224,1224,1224,1224,1224,1224,1224,1224,1224,1224,1224,1224,1224,1224,1224,1224,1224,1118],"ymouse":[486,486,486,486,486,486,486,486,486,486,486,486,486,486,486,486,486,486,486,486,486,486,486,486,486,486,486,486,486,486,486,486,486,486,486,486,486,486,486,486,486,486,486,486,482,477,463,456,451,445,440,430,424,421,414,408,401,396,394,393,393,393,393,392,388,383,360,329,295,247,200,122,94,88,87,87,84,81,75,74,73,70,68,65,58,39,1,1,1,1,1,1,1,1,1,1,1,1,1,1,1,1,1,1,1,1,1,1,1,1,1,1,8],"timestamp_mouse":[9,29,59,69,89,110,129,149,169,189,210,229,249,269,290,309,329,349,369,389,409,430,449,470,489,509,530,548,569,589,609,629,649,669,689,709,729,749,769,789,809,829,848,869,889,909,929,949,970,989,1010,1029,1050,1070,1090,1110,1130,1149,1170,1189,1210,1229,1250,1268,1289,1309,1330,1349,1370,1390,1409,1429,1449,1470,1490,1509,1529,1549,1569,1589,1609,1629,1650,1670,1689,1710,1729,1749,1769,1789,1810,1829,1849,1869,1890,1910,1929,1949,1970,1990,2008,2029,2049,2070,2089,2110,2129,2149,2170,2189,2210,2229,2249],"xSR":741.5,"ySR":449.15000000000003,"xT1":424.9,"yT1":0,"xT2":1058.1,"yT2":0,"toosoon":0,"cond_shown":"Congruent","ratio_trial":200,"L_num":15,"L_den":25,"R_num":4,"R_den":10,"correct_side":1,"subjID":"CristianSantiagoChaparro5","gender":"0","school":"6","age":"11"},{"start_time":1551881853418,"click_time":1551881855430,"finger_time":1551881855050,"fix_duration":447.95490405694983,"trial":16,"RT":1632,"MT":380,"sideResp":1,"stimulus":[],"xmouse":[805,805,805,805,805,805,805,805,805,805,805,805,805,805,805,805,805,805,805,805,805,805,805,805,805,805,805,805,805,805,805,805,805,805,805,805,809,811,813,817,819,819,819,819,819,819,819,819,819,819,819,819,819,819,819,819,819,819,818,818,818,818,818,818,818,818,818,818,818,818,820,822,823,823,823,823,823,823,823,824,824,824,824,824,822,819,816,812,806,780,761,737,687,650,597,597,597,567,554,528,517],"ymouse":[478,478,478,478,478,478,478,478,478,478,478,478,478,478,478,478,478,478,478,478,478,478,478,478,478,478,478,478,478,478,478,478,478,478,478,478,478,475,473,470,470,469,469,469,469,469,469,469,469,469,469,469,469,469,469,469,470,472,473,473,473,473,473,473,473,473,473,473,473,472,469,464,460,459,458,458,458,458,457,454,450,441,430,418,388,367,345,320,285,202,159,119,57,25,0,0,0,5,12,32,42],"timestamp_mouse":[12,39,52,73,92,113,132,152,172,192,213,233,252,273,292,312,333,352,373,392,412,433,452,473,492,513,533,552,573,593,612,632,652,672,693,712,732,752,772,792,812,832,851,873,893,913,932,953,973,993,1012,1033,1052,1072,1092,1112,1133,1152,1172,1193,1212,1233,1252,1272,1292,1312,1332,1353,1372,1392,1413,1432,1451,1473,1492,1513,1531,1553,1572,1592,1613,1632,1652,1673,1693,1712,1732,1753,1773,1791,1812,1832,1852,1872,1892,1911,1932,1952,1972,1992,2012],"xSR":741.5,"ySR":449.15000000000003,"xT1":424.9,"yT1":0,"xT2":1058.1,"yT2":0,"toosoon":0,"cond_shown":"Incongruent","ratio_trial":200,"L_num":7,"L_den":10,"R_num":14,"R_den":28,"correct_side":1,"subjID":"CristianSantiagoChaparro5","gender":"0","school":"6","age":"11"},{"start_time":1551881857649,"click_time":1551881859130,"finger_time":1551881858090,"fix_duration":1217.3519614247227,"trial":17,"RT":441,"MT":1040,"sideResp":1,"stimulus":[],"xmouse":[747,747,747,747,747,747,747,747,750,750,750,750,750,750,750,750,750,750,750,750,750,742,735,732,732,732,732,732,732,732,732,732,732,732,732,732,732,732,732,732,732,732,732,732,732,730,724,716,686,668,659,654,653,653,653,653,652,645,622,618,605,593,576,498,451,424,414,414,414,414,419,423,430,447,456],"ymouse":[454,454,454,454,454,454,458,460,467,468,468,468,468,468,468,468,468,468,468,468,468,465,462,461,461,461,461,461,461,461,461,461,461,461,461,461,461,461,461,461,461,461,461,461,461,458,449,435,395,364,346,329,318,305,299,291,280,266,226,217,199,188,177,153,140,127,123,122,122,121,115,112,107,101,98],"timestamp_mouse":[7,22,41,61,81,102,121,141,161,182,201,222,241,261,281,302,321,341,361,382,401,422,441,460,481,502,521,541,561,582,601,621,642,661,681,701,721,741,761,781,800,822,841,861,881,902,921,942,961,981,1001,1021,1042,1062,1081,1102,1121,1142,1161,1181,1201,1221,1242,1262,1281,1301,1322,1341,1361,1381,1401,1421,1442,1461,1480],"xSR":741.5,"ySR":449.15000000000003,"xT1":424.9,"yT1":0,"xT2":1058.1,"yT2":0,"toosoon":0,"cond_shown":"Incongruent","ratio_trial":200,"L_num":1,"L_den":3,"R_num":2,"R_den":15,"correct_side":1,"subjID":"CristianSantiagoChaparro5","gender":"0","school":"6","age":"11"},{"start_time":1551881860597,"click_time":1551881862230,"finger_time":1551881861450,"fix_duration":746.299801116641,"trial":18,"RT":853,"MT":780,"sideResp":2,"stimulus":[],"xmouse":[802,802,802,802,802,802,802,802,802,802,802,802,802,802,802,802,802,802,802,802,801,799,798,798,798,798,798,798,798,798,797,797,797,797,797,797,797,799,805,812,828,835,838,838,838,838,838,838,838,838,834,829,820,817,817,817,818,827,846,874,989,1052,1089,1127,1142,1160,1165,1169,1172,1175,1181,1187,1191,1200,1208,1211,1211,1208,1201,1189,1164,1157],"ymouse":[497,497,497,497,497,497,497,497,497,497,497,497,497,497,497,497,497,497,497,497,497,497,497,497,497,497,497,497,497,497,496,496,496,496,496,495,494,491,484,478,461,450,444,444,444,444,444,444,444,443,443,443,443,443,443,443,440,433,421,405,323,278,249,218,203,182,178,173,170,168,160,151,143,122,106,76,66,58,53,49,45,45],"timestamp_mouse":[13,34,54,74,94,113,134,153,173,193,213,233,254,273,294,313,334,353,373,393,413,434,453,473,494,513,533,553,574,594,613,632,654,673,694,713,733,754,773,794,813,833,853,873,894,913,933,953,974,993,1014,1034,1053,1073,1094,1113,1133,1153,1173,1194,1213,1233,1254,1272,1294,1313,1333,1354,1374,1394,1413,1433,1452,1473,1494,1513,1533,1553,1573,1593,1613,1633],"xSR":741.5,"ySR":449.15000000000003,"xT1":424.9,"yT1":0,"xT2":1058.1,"yT2":0,"toosoon":0,"cond_shown":"Incongruent","ratio_trial":100,"L_num":8,"L_den":16,"R_num":6,"R_den":10,"correct_side":2,"subjID":"CristianSantiagoChaparro5","gender":"0","school":"6","age":"11"},{"start_time":1551881863392,"click_time":1551881864270,"finger_time":1551881863830,"fix_duration":340.3688444798497,"trial":19,"RT":438,"MT":440,"sideResp":1,"stimulus":[],"xmouse":[802,802,802,802,802,802,802,802,802,802,802,802,802,802,802,802,803,803,802,801,797,796,795,795,794,793,789,787,785,783,783,783,783,782,779,766,750,728,706,670,590,543,532,513],"ymouse":[486,486,486,486,486,486,486,486,486,486,486,486,486,486,486,486,485,483,479,475,459,449,440,434,430,430,430,432,433,434,434,434,434,434,434,429,419,403,381,338,223,132,106,52],"timestamp_mouse":[18,38,65,79,98,118,138,159,179,199,219,239,259,278,299,318,338,359,378,398,418,438,458,479,499,518,538,558,578,599,618,638,658,679,698,718,738,758,778,799,818,839,859,878],"xSR":741.5,"ySR":449.15000000000003,"xT1":424.9,"yT1":0,"xT2":1058.1,"yT2":0,"toosoon":0,"cond_shown":"Congruent","ratio_trial":300,"L_num":7,"L_den":14,"R_num":20,"R_den":25,"correct_side":2,"subjID":"CristianSantiagoChaparro5","gender":"0","school":"6","age":"11"},{"start_time":1551881865847,"click_time":1551881867309,"finger_time":1551881866711,"fix_duration":776.294545180467,"trial":20,"RT":864,"MT":598,"sideResp":2,"stimulus":[],"xmouse":[804,805,806,807,807,808,808,808,808,808,808,808,808,808,809,809,810,811,812,814,817,820,821,825,826,827,827,827,827,827,827,827,827,827,827,827,827,827,827,827,828,831,836,853,870,894,926,964,1032,1057,1092,1109,1121,1134,1135,1135,1135,1135,1135,1135,1129,1117,1102,1069,1050,1030,1014,994,979,979,979,1004,1028,1063],"ymouse":[517,516,516,514,514,513,513,513,513,513,513,513,513,513,513,513,512,511,509,506,504,498,495,488,486,486,486,486,486,486,486,486,486,486,486,486,486,486,486,485,485,484,481,468,454,436,409,381,324,298,253,227,205,176,169,167,167,167,167,167,162,157,147,127,116,105,98,92,89,89,89,89,89,89],"timestamp_mouse":[2,22,44,62,82,103,123,143,163,182,204,222,243,264,283,304,323,343,362,383,403,424,443,462,482,502,523,543,562,584,602,622,642,663,682,702,723,742,764,783,802,822,843,864,882,902,923,942,962,983,1002,1022,1043,1062,1082,1104,1122,1142,1162,1182,1202,1223,1243,1264,1282,1302,1323,1343,1362,1382,1402,1423,1442,1462],"xSR":741.5,"ySR":449.15000000000003,"xT1":424.9,"yT1":0,"xT2":1058.1,"yT2":0,"toosoon":0,"cond_shown":"Congruent","ratio_trial":100,"L_num":11,"L_den":22,"R_num":4,"R_den":10,"correct_side":1,"subjID":"CristianSantiagoChaparro5","gender":"0","school":"6","age":"11"},{"start_time":1551881868660,"click_time":1551881870310,"finger_time":1551881869529,"fix_duration":250,"trial":21,"RT":869,"MT":781,"sideResp":1,"stimulus":[],"xmouse":[777,777,777,777,777,777,777,777,777,777,777,777,777,777,777,777,777,777,777,777,777,777,777,777,777,777,777,777,777,777,777,777,777,777,777,777,777,777,777,777,777,777,771,763,755,743,732,710,703,700,697,695,684,678,671,668,664,657,656,656,656,656,656,658,658,657,650,637,633,630,626,624,623,622,621,619,618,615,609,596,564,541,509],"ymouse":[474,474,474,474,474,474,474,474,474,474,474,474,474,474,474,474,474,474,474,474,474,474,474,474,474,474,474,474,474,474,474,474,474,474,474,474,474,474,474,474,471,468,455,446,436,422,407,368,345,321,286,269,238,228,221,217,215,214,213,213,213,213,208,201,190,175,155,110,91,77,67,63,62,60,59,57,57,57,60,67,79,85,91],"timestamp_mouse":[10,29,50,70,91,109,130,150,169,189,210,230,249,269,290,309,329,350,371,389,410,430,450,470,489,511,530,550,571,590,610,630,650,670,689,710,730,750,770,789,809,830,849,869,890,910,929,949,969,990,1009,1029,1049,1069,1089,1109,1130,1149,1169,1189,1210,1229,1249,1269,1289,1310,1330,1349,1370,1389,1410,1429,1449,1469,1489,1509,1530,1549,1569,1589,1610,1630,1650],"xSR":741.5,"ySR":449.15000000000003,"xT1":424.9,"yT1":0,"xT2":1058.1,"yT2":0,"toosoon":0,"cond_shown":"Congruent","ratio_trial":300,"L_num":1,"L_den":3,"R_num":19,"R_den":30,"correct_side":2,"subjID":"CristianSantiagoChaparro5","gender":"0","school":"6","age":"11"},{"start_time":1551881872466,"click_time":1551881874530,"finger_time":1551881873850,"fix_duration":1173.1074348873408,"trial":22,"RT":1384,"MT":680,"sideResp":1,"stimulus":[],"xmouse":[794,784,769,766,765,765,765,765,765,765,765,765,765,765,765,765,765,765,765,765,765,765,765,765,765,765,765,765,765,765,765,765,765,765,765,765,765,765,765,765,765,765,765,765,765,765,766,766,766,766,766,766,766,766,766,766,766,766,766,766,766,766,766,766,766,766,766,764,758,749,727,705,653,625,597,572,572,572,572,572,572,572,572,572,572,572,572,527,526,526,526,526,526,526,526,526,526,526,526,526,526,526,525,524],"ymouse":[486,486,486,486,486,486,486,486,486,486,487,487,487,487,487,487,487,487,487,487,487,487,487,487,487,487,487,487,487,487,487,487,487,487,487,487,487,487,487,487,487,487,487,487,487,487,487,487,488,488,488,488,488,488,488,488,488,488,488,488,488,488,488,488,488,488,488,484,467,447,397,348,222,157,93,8,8,8,8,8,8,8,8,8,8,8,8,7,12,19,32,40,50,50,50,50,50,50,50,50,50,50,52,53],"timestamp_mouse":[3,29,43,63,83,104,124,143,163,183,204,224,244,263,284,304,323,344,364,384,405,425,444,463,483,503,524,544,563,583,604,623,643,663,684,703,724,743,764,784,803,824,844,863,885,903,924,943,964,983,1005,1024,1044,1064,1083,1104,1123,1143,1164,1184,1203,1223,1244,1264,1283,1305,1323,1343,1363,1384,1403,1423,1443,1463,1484,1504,1523,1543,1563,1583,1604,1624,1644,1663,1684,1703,1724,1743,1764,1784,1804,1825,1844,1863,1884,1904,1924,1943,1964,1984,2004,2025,2045,2064],"xSR":741.5,"ySR":449.15000000000003,"xT1":424.9,"yT1":0,"xT2":1058.1,"yT2":0,"toosoon":0,"cond_shown":"Congruent","ratio_trial":300,"L_num":7,"L_den":14,"R_num":20,"R_den":25,"correct_side":2,"subjID":"CristianSantiagoChaparro5","gender":"0","school":"6","age":"11"},{"start_time":1551881877051,"click_time":1551881879109,"finger_time":1551881878409,"fix_duration":1140.6065227951174,"trial":23,"RT":1358,"MT":700,"sideResp":2,"stimulus":[],"xmouse":[820,820,820,820,820,820,820,820,820,820,820,820,820,820,820,820,820,820,820,820,820,820,820,820,820,820,820,820,820,820,820,820,820,820,820,820,820,820,820,820,820,820,820,820,820,820,820,820,820,820,820,820,820,820,820,820,820,820,820,820,820,820,820,820,822,827,835,862,886,898,932,950,975,988,1002,1017,1031,1054,1064,1074,1077,1084,1089,1091,1093,1094,1095,1097,1098,1100,1104,1115,1135,1145,1154,1160,1164,1168,1168,1168,1168,1164,1154],"ymouse":[502,502,502,502,502,502,502,502,502,502,502,502,502,502,502,502,502,502,502,502,502,502,502,502,502,502,502,502,502,502,502,502,502,502,502,502,502,502,502,502,502,502,502,502,502,502,502,502,502,502,502,502,502,502,502,502,502,502,502,502,502,502,502,502,502,502,502,494,482,474,441,421,390,375,359,343,327,300,287,274,271,258,249,245,243,240,238,235,232,228,222,209,185,173,157,147,135,118,104,96,90,81,68],"timestamp_mouse":[18,38,59,79,100,119,138,158,179,198,220,238,259,279,298,319,339,360,379,398,419,440,458,478,499,519,538,558,579,598,620,638,658,679,699,718,738,758,778,798,820,838,858,880,898,918,938,959,979,998,1018,1038,1060,1078,1099,1119,1138,1158,1178,1198,1219,1238,1258,1278,1298,1318,1338,1358,1380,1399,1418,1438,1458,1479,1499,1519,1539,1558,1580,1598,1620,1639,1658,1678,1699,1718,1738,1758,1779,1799,1819,1838,1858,1878,1898,1918,1939,1959,1978,1998,2019,2039,2058],"xSR":741.5,"ySR":449.15000000000003,"xT1":424.9,"yT1":0,"xT2":1058.1,"yT2":0,"toosoon":0,"cond_shown":"Incongruent","ratio_trial":200,"L_num":4,"L_den":6,"R_num":14,"R_den":30,"correct_side":1,"subjID":"CristianSantiagoChaparro5","gender":"0","school":"6","age":"11"},{"start_time":1551881884854,"click_time":1551881886090,"finger_time":1551881885210,"fix_duration":1383.3324397692018,"trial":24,"RT":356,"MT":880,"sideResp":2,"stimulus":[],"xmouse":[813,813,813,813,813,813,813,813,813,813,813,813,813,813,813,813,813,865,936,1013,1125,1168,1187,1187,1187,1187,1187,1187,1187,1187,1180,1155,1084,1054,1035,1022,1016,1009,1007,1003,993,981,958,950,944,941,939,933,930,926,919,916,908,903,900,899,899,924,948,983,1058,1147],"ymouse":[536,536,536,536,536,536,536,536,536,536,536,536,536,536,536,538,539,556,567,572,572,578,580,580,580,580,580,580,580,580,575,566,552,547,542,539,538,538,538,537,535,534,530,529,529,529,529,529,529,529,528,528,525,521,517,508,489,390,317,238,117,9],"timestamp_mouse":[16,46,55,75,95,115,136,156,175,196,215,235,257,275,296,315,336,356,376,396,416,436,456,475,495,516,536,555,575,595,616,635,655,676,696,716,735,755,775,796,817,836,855,875,895,915,936,956,976,996,1016,1036,1055,1075,1095,1116,1137,1155,1175,1195,1217,1236],"xSR":741.5,"ySR":449.15000000000003,"xT1":424.9,"yT1":0,"xT2":1058.1,"yT2":0,"toosoon":0,"cond_shown":"Congruent","ratio_trial":200,"L_num":3,"L_den":10,"R_num":7,"R_den":14,"correct_side":2,"subjID":"CristianSantiagoChaparro5","gender":"0","school":"6","age":"11"},{"start_time":1551881888006,"click_time":1551881889589,"finger_time":1551881889010,"fix_duration":694.8596855968416,"trial":25,"RT":1004,"MT":579,"sideResp":2,"stimulus":[],"xmouse":[786,786,785,784,783,782,781,779,779,779,779,779,779,779,778,777,776,775,775,774,774,774,774,774,774,774,774,774,774,774,774,774,774,774,774,774,774,774,774,774,774,774,774,774,775,780,781,783,784,788,799,807,815,819,825,837,841,843,843,844,861,878,893,907,914,933,941,957,975,989,1019,1029,1034,1034,1034,1034,1035,1040,1052,1062],"ymouse":[505,505,505,505,505,505,505,505,505,505,505,505,505,505,505,505,505,505,505,505,505,505,505,505,505,505,505,505,505,505,505,505,505,505,505,505,505,505,505,505,505,505,503,502,499,492,489,483,476,467,440,419,388,366,345,305,289,278,271,264,226,206,186,165,157,143,139,134,127,123,110,105,102,102,102,102,102,99,91,83],"timestamp_mouse":[11,33,43,64,83,103,123,144,165,184,203,224,243,263,284,303,323,343,363,383,404,423,445,463,484,504,523,543,563,583,605,624,643,663,684,703,724,744,764,784,803,824,843,863,883,904,923,943,963,984,1004,1024,1043,1064,1084,1103,1123,1144,1164,1184,1203,1223,1244,1265,1284,1304,1323,1345,1364,1384,1403,1425,1445,1463,1483,1503,1523,1543,1563,1583],"xSR":741.5,"ySR":449.15000000000003,"xT1":424.9,"yT1":0,"xT2":1058.1,"yT2":0,"toosoon":0,"cond_shown":"Congruent","ratio_trial":200,"L_num":8,"L_den":15,"R_num":3,"R_den":9,"correct_side":1,"subjID":"CristianSantiagoChaparro5","gender":"0","school":"6","age":"11"},{"start_time":1551881891756,"click_time":1551881892909,"finger_time":1551881892170,"fix_duration":1085.211778788254,"trial":26,"RT":414,"MT":739,"sideResp":1,"stimulus":[],"xmouse":[796,796,796,796,796,796,796,796,796,796,795,794,793,791,786,781,774,761,754,748,744,742,742,742,742,741,739,736,734,734,734,734,734,734,734,734,734,734,734,727,709,669,517,439,376,336,334,335,338,340,341,341,344,349,354,375,396,470],"ymouse":[516,515,515,513,513,511,510,509,509,508,506,506,505,503,498,494,489,477,469,458,443,424,390,375,365,350,343,329,324,324,324,324,324,324,324,324,324,324,324,318,307,286,217,186,150,121,113,98,94,92,90,89,86,83,78,63,52,35],"timestamp_mouse":[15,33,53,73,93,114,133,153,173,193,213,233,253,275,293,315,334,353,373,393,414,433,453,473,494,514,534,553,573,593,614,634,654,674,693,714,734,754,773,794,813,834,853,874,894,914,934,954,973,994,1013,1034,1054,1074,1094,1114,1135,1153],"xSR":741.5,"ySR":449.15000000000003,"xT1":424.9,"yT1":0,"xT2":1058.1,"yT2":0,"toosoon":0,"cond_shown":"Congruent","ratio_trial":200,"L_num":12,"L_den":15,"R_num":6,"R_den":10,"correct_side":1,"subjID":"CristianSantiagoChaparro5","gender":"0","school":"6","age":"11"},{"start_time":1551881898760,"click_time":1551881901390,"finger_time":1551881901249,"fix_duration":250,"trial":27,"RT":2489,"MT":141,"sideResp":2,"stimulus":[],"xmouse":[784,784,784,784,784,784,784,784,784,784,784,784,784,784,784,785,785,785,785,785,785,785,785,785,785,786,786,786,786,786,786,786,787,787,787,787,787,787,787,787,787,787,787,787,787,787,787,787,787,787,787,787,787,787,787,787,787,787,787,787,787,787,787,787,787,787,787,787,787,787,787,787,787,787,787,787,787,787,787,787,785,781,769,766,761,760,760,761,761,763,763,763,763,765,766,766,766,766,766,766,766,766,766,766,766,766,766,766,766,765,765,764,764,763,763,763,763,763,763,763,763,763,765,773,788,801,816,881,930,978,1031,1071],"ymouse":[512,512,512,512,512,512,512,512,512,512,512,512,512,512,512,512,512,512,512,512,512,511,511,511,511,511,511,511,511,510,510,510,510,510,510,510,510,510,510,510,510,510,510,510,510,510,510,510,510,510,510,510,510,510,510,510,510,510,510,510,510,510,510,510,510,510,510,510,510,510,510,510,510,510,510,510,510,510,510,507,505,501,493,489,480,473,465,458,455,453,453,453,453,453,453,453,453,453,453,453,453,453,454,454,454,454,454,455,456,457,459,460,460,461,461,461,461,461,461,461,461,461,460,455,442,427,401,289,214,143,72,12],"timestamp_mouse":[10,29,50,70,89,109,129,151,170,190,211,229,251,269,289,311,330,349,370,391,409,429,450,470,490,510,529,549,570,590,609,630,649,670,690,711,729,749,769,789,811,831,849,870,890,910,930,949,970,991,1010,1030,1051,1069,1089,1111,1129,1150,1169,1189,1211,1230,1249,1270,1289,1310,1329,1350,1371,1389,1411,1430,1450,1469,1489,1511,1529,1549,1569,1590,1609,1630,1649,1670,1689,1710,1729,1749,1769,1791,1809,1830,1849,1870,1890,1910,1929,1951,1969,1989,2010,2030,2049,2069,2089,2110,2129,2149,2171,2189,2209,2229,2249,2271,2289,2309,2329,2349,2369,2390,2410,2430,2449,2469,2489,2509,2529,2549,2569,2589,2609,2630],"xSR":741.5,"ySR":449.15000000000003,"xT1":424.9,"yT1":0,"xT2":1058.1,"yT2":0,"toosoon":0,"cond_shown":"Congruent","ratio_trial":200,"L_num":3,"L_den":10,"R_num":7,"R_den":14,"correct_side":2,"subjID":"CristianSantiagoChaparro5","gender":"0","school":"6","age":"11"},{"start_time":1551881905774,"click_time":1551881908009,"finger_time":1551881907509,"fix_duration":1322.5548306221035,"trial":28,"RT":1735,"MT":500,"sideResp":2,"stimulus":[],"xmouse":[783,783,783,783,783,783,783,783,783,783,783,783,783,783,783,783,783,783,783,783,783,783,783,783,783,785,785,785,785,785,785,785,785,785,785,785,785,785,785,785,785,785,785,785,785,785,785,785,785,785,785,785,785,785,785,785,785,785,785,785,785,785,785,785,785,785,785,785,785,787,787,789,789,789,789,789,789,789,789,789,789,789,789,790,800,818,879,919,956,989,1021,1062,1079,1097,1119,1140,1203,1250,1284,1303,1303,1303,1303,1303,1303,1295,1268,1250,1227,1195,1159,1107],"ymouse":[517,517,517,517,517,517,517,517,517,517,517,517,517,517,517,517,517,517,517,517,517,517,517,517,517,517,517,517,517,517,517,517,517,517,517,517,517,517,517,517,517,517,517,517,517,517,517,517,517,517,517,517,517,517,517,517,517,517,517,517,517,517,517,517,517,517,517,517,517,514,513,508,508,508,508,508,508,508,508,508,508,508,508,506,501,490,447,414,381,346,312,266,249,230,206,188,128,74,37,0,0,0,0,0,0,8,35,43,49,59,70,94],"timestamp_mouse":[15,35,55,76,95,115,136,156,177,195,217,235,256,275,295,316,336,356,376,395,415,437,456,476,495,516,536,557,575,595,616,636,655,676,695,715,735,757,775,796,816,835,856,876,897,916,935,957,977,995,1015,1036,1057,1075,1095,1115,1136,1155,1177,1197,1215,1236,1255,1277,1295,1316,1337,1356,1376,1395,1415,1436,1455,1475,1496,1515,1535,1555,1575,1595,1615,1635,1657,1675,1695,1716,1735,1755,1776,1795,1816,1835,1857,1875,1895,1916,1936,1955,1976,1996,2017,2036,2056,2075,2095,2116,2137,2155,2175,2195,2215,2235],"xSR":741.5,"ySR":449.15000000000003,"xT1":424.9,"yT1":0,"xT2":1058.1,"yT2":0,"toosoon":0,"cond_shown":"Incongruent","ratio_trial":200,"L_num":4,"L_den":5,"R_num":6,"R_den":10,"correct_side":1,"subjID":"CristianSantiagoChaparro5","gender":"0","school":"6","age":"11"},{"start_time":1551881909499,"click_time":1551881911949,"finger_time":1551881911109,"fix_duration":288.2555070541839,"trial":29,"RT":1610,"MT":840,"sideResp":1,"stimulus":[],"xmouse":[773,773,773,773,773,773,773,773,773,773,773,773,773,773,773,773,773,773,773,773,773,773,773,773,773,773,772,772,772,771,771,771,771,771,771,771,771,771,771,771,771,771,771,771,771,771,771,771,771,771,771,771,771,771,771,771,771,771,771,771,771,771,771,771,771,771,771,771,771,771,771,772,772,772,772,772,772,772,772,768,751,739,727,714,697,626,582,531,481,460,445,445,444,444,440,415,406,406,426,451,476,480,481,482,485,487,487,470,432,377,259,213,185,168,156,147,147,147,147,159,269,373,495],"ymouse":[506,506,506,506,506,506,505,505,505,505,505,504,504,504,504,504,504,504,504,504,504,504,504,504,504,504,504,504,504,504,503,503,503,503,503,503,503,503,503,503,503,503,503,503,503,503,503,503,503,503,503,503,503,503,503,503,503,503,503,503,503,503,503,503,503,503,503,503,503,503,503,503,503,503,503,503,498,495,482,465,426,409,393,378,366,340,329,314,307,303,299,299,298,297,293,279,272,267,247,231,197,175,155,139,130,127,126,126,126,126,128,128,128,126,124,123,123,123,122,115,82,58,40],"timestamp_mouse":[10,39,50,71,90,112,132,151,171,192,212,230,252,271,292,310,330,351,372,391,411,432,450,472,490,511,531,552,571,590,611,632,650,670,691,710,732,751,771,791,812,830,851,870,891,911,932,951,970,990,1010,1031,1050,1071,1090,1110,1131,1151,1170,1190,1211,1230,1252,1271,1290,1310,1330,1350,1370,1391,1411,1430,1451,1471,1491,1511,1530,1550,1571,1591,1610,1630,1650,1671,1691,1710,1730,1750,1770,1790,1811,1831,1850,1871,1891,1910,1931,1951,1970,1990,2011,2031,2050,2070,2091,2111,2132,2150,2170,2191,2211,2230,2250,2270,2291,2310,2330,2350,2371,2390,2410,2431,2450],"xSR":741.5,"ySR":449.15000000000003,"xT1":424.9,"yT1":0,"xT2":1058.1,"yT2":0,"toosoon":0,"cond_shown":"Incongruent","ratio_trial":300,"L_num":1,"L_den":2,"R_num":2,"R_den":10,"correct_side":1,"subjID":"CristianSantiagoChaparro5","gender":"0","school":"6","age":"11"},{"start_time":1551881914159,"click_time":1551881915869,"finger_time":1551881915550,"fix_duration":806.0022618481729,"trial":30,"RT":1391,"MT":319,"sideResp":2,"stimulus":[],"xmouse":[785,785,785,785,785,785,785,785,785,785,785,785,785,785,785,785,785,785,785,785,785,785,785,785,785,785,785,784,784,784,784,784,784,784,784,784,784,784,784,784,784,784,784,784,784,784,784,784,784,784,784,784,784,784,784,784,784,784,784,784,784,784,784,784,784,784,784,785,792,802,816,845,915,933,942,945,945,937,935,933,933,934,953,971,1002,1083],"ymouse":[493,493,493,493,493,493,493,493,493,493,493,493,493,493,493,493,493,493,493,493,493,493,493,493,493,493,493,493,493,493,493,493,493,493,493,493,493,493,493,493,493,493,493,493,493,493,493,493,493,493,493,493,493,493,493,492,491,486,483,479,477,476,476,475,475,475,473,463,453,440,421,390,309,281,258,229,213,194,188,183,176,168,137,115,86,34],"timestamp_mouse":[11,44,52,70,90,111,130,151,171,190,212,230,250,272,292,310,330,350,371,392,410,430,450,471,490,510,530,550,572,592,611,631,650,671,691,710,731,750,770,792,812,830,850,872,890,910,931,950,970,992,1011,1030,1051,1071,1092,1110,1131,1150,1170,1190,1210,1232,1250,1271,1291,1311,1331,1351,1370,1391,1411,1430,1450,1471,1490,1511,1531,1551,1570,1591,1610,1630,1651,1671,1690,1710],"xSR":741.5,"ySR":449.15000000000003,"xT1":424.9,"yT1":0,"xT2":1058.1,"yT2":0,"toosoon":0,"cond_shown":"Congruent","ratio_trial":300,"L_num":2,"L_den":20,"R_num":10,"R_den":25,"correct_side":2,"subjID":"CristianSantiagoChaparro5","gender":"0","school":"6","age":"11"},{"start_time":1551881917238,"click_time":1551881919270,"finger_time":1551881918709,"fix_duration":347.46954120503517,"trial":31,"RT":1471,"MT":561,"sideResp":1,"stimulus":[],"xmouse":[776,776,776,776,776,776,776,776,776,776,776,776,776,776,776,776,776,776,776,776,776,776,776,776,776,777,777,777,779,779,780,780,780,780,780,781,782,783,783,783,783,783,783,783,783,783,783,783,783,783,783,783,783,783,783,783,783,783,783,783,783,783,783,783,783,783,783,782,782,781,779,776,772,766,766,766,766,766,765,762,759,755,753,745,732,715,692,666,611,590,568,526,480,378,342,328,325,331,376,409,416,428],"ymouse":[520,520,520,519,519,519,519,519,519,519,519,519,519,519,519,519,519,519,519,518,518,518,517,516,514,513,512,511,507,506,505,503,502,501,499,498,497,496,495,495,495,495,495,495,495,495,495,495,495,495,495,495,495,495,495,495,495,495,494,493,491,490,490,490,490,490,490,488,488,487,482,476,460,403,367,326,293,262,216,198,186,180,178,181,186,194,201,208,215,215,214,202,181,120,94,76,63,47,28,18,15,9],"timestamp_mouse":[12,37,52,71,91,113,131,152,173,193,212,231,252,271,292,312,332,353,373,392,411,432,451,472,492,511,531,551,571,591,612,632,651,672,692,711,731,751,771,791,812,833,851,871,893,911,932,953,971,994,1012,1032,1051,1072,1091,1112,1131,1152,1171,1191,1211,1233,1251,1271,1292,1312,1331,1352,1372,1393,1411,1431,1452,1471,1491,1511,1532,1551,1572,1592,1612,1631,1651,1671,1692,1713,1732,1753,1771,1791,1812,1831,1851,1871,1892,1912,1931,1953,1971,1992,2012,2032],"xSR":741.5,"ySR":449.15000000000003,"xT1":424.9,"yT1":0,"xT2":1058.1,"yT2":0,"toosoon":0,"cond_shown":"Incongruent","ratio_trial":300,"L_num":1,"L_den":2,"R_num":3,"R_den":15,"correct_side":1,"subjID":"CristianSantiagoChaparro5","gender":"0","school":"6","age":"11"},{"start_time":1551881921028,"click_time":1551881922710,"finger_time":1551881921870,"fix_duration":718.5106485072405,"trial":32,"RT":842,"MT":840,"sideResp":2,"stimulus":[],"xmouse":[785,785,785,785,785,785,785,785,785,785,785,785,785,785,785,785,784,784,784,784,784,784,784,784,784,784,784,784,784,784,784,784,784,784,783,783,783,783,783,784,787,794,813,831,864,876,887,898,909,926,928,932,937,940,945,948,951,953,958,970,976,983,999,1011,1015,1017,1023,1034,1045,1045,1045,1045,1045,1045,1045,1045,1045,1045,1045,1045,1045,1045,1045,1045,1091],"ymouse":[482,482,482,482,482,482,482,482,482,482,482,482,482,482,482,482,482,482,482,482,482,482,482,482,482,482,482,482,482,482,482,482,482,482,481,480,479,478,476,472,466,457,439,425,398,387,376,365,356,344,342,338,332,328,314,303,289,273,252,210,192,167,130,104,59,41,25,10,0,0,0,0,0,0,0,0,0,0,0,0,0,0,0,0,17],"timestamp_mouse":[8,21,42,63,82,102,121,143,162,182,201,223,242,261,281,302,323,341,361,381,403,421,441,461,483,501,521,542,561,582,602,621,641,661,681,701,721,742,761,781,801,822,842,861,882,901,922,942,961,982,1002,1022,1042,1061,1082,1101,1121,1143,1162,1181,1203,1221,1242,1263,1281,1301,1322,1341,1361,1381,1401,1421,1441,1461,1482,1503,1522,1543,1562,1582,1602,1621,1641,1662,1682],"xSR":741.5,"ySR":449.15000000000003,"xT1":424.9,"yT1":0,"xT2":1058.1,"yT2":0,"toosoon":0,"cond_shown":"Incongruent","ratio_trial":100,"L_num":12,"L_den":30,"R_num":2,"R_den":4,"correct_side":2,"subjID":"CristianSantiagoChaparro5","gender":"0","school":"6","age":"11"},{"start_time":1551881924282,"click_time":1551881926210,"finger_time":1551881925150,"fix_duration":250,"trial":33,"RT":868,"MT":1060,"sideResp":2,"stimulus":[],"xmouse":[798,798,798,798,798,798,798,798,798,798,798,798,798,798,798,798,798,798,798,798,798,798,798,798,798,798,798,798,798,798,798,798,797,797,797,797,796,794,792,788,779,758,747,737,720,700,629,592,569,547,530,506,500,498,497,496,494,494,493,490,489,485,483,481,479,477,475,475,475,475,475,475,475,475,475,475,475,475,475,475,475,476,483,497,521,553,670,744,836,883,914,965,988,1014,1038,1061,1102],"ymouse":[517,517,517,517,517,517,517,517,517,517,517,517,517,517,517,517,517,517,517,517,517,517,517,517,517,517,517,517,517,517,517,517,517,516,516,515,512,509,508,504,492,468,453,439,421,399,317,274,241,211,194,178,175,175,174,174,174,173,173,171,170,167,165,164,161,158,156,156,156,156,156,156,156,156,156,156,156,156,156,156,156,156,156,156,156,156,156,156,156,156,156,148,142,130,120,109,86],"timestamp_mouse":[7,40,49,67,88,107,128,148,169,189,207,228,247,269,288,307,327,347,368,388,407,427,449,468,489,507,528,547,568,587,607,627,648,668,688,707,727,747,768,788,808,827,847,868,887,907,927,948,967,987,1008,1027,1047,1069,1087,1107,1127,1147,1167,1187,1207,1227,1247,1268,1288,1307,1327,1347,1368,1388,1407,1428,1449,1467,1489,1507,1528,1547,1568,1588,1609,1630,1648,1669,1689,1709,1728,1749,1768,1790,1810,1828,1848,1868,1888,1909,1928],"xSR":741.5,"ySR":449.15000000000003,"xT1":424.9,"yT1":0,"xT2":1058.1,"yT2":0,"toosoon":0,"cond_shown":"Congruent","ratio_trial":300,"L_num":1,"L_den":5,"R_num":11,"R_den":22,"correct_side":2,"subjID":"CristianSantiagoChaparro5","gender":"0","school":"6","age":"11"},{"start_time":1551881928739,"click_time":1551881930110,"finger_time":1551881929510,"fix_duration":1407.8862682662711,"trial":34,"RT":771,"MT":600,"sideResp":2,"stimulus":[],"xmouse":[793,793,793,793,793,793,793,793,793,793,793,793,793,793,793,793,793,793,793,793,793,793,793,793,794,794,794,795,795,795,795,795,795,796,796,799,800,803,807,808,809,810,810,812,814,816,823,827,836,842,851,861,871,892,902,908,912,912,912,912,912,913,915,926,936,958,984,1028,1135],"ymouse":[482,482,482,482,482,482,482,482,482,482,482,482,482,482,482,482,482,482,482,481,480,478,477,476,474,474,473,472,470,469,468,468,468,465,464,459,456,451,443,440,437,433,430,425,422,417,404,396,365,346,323,299,275,233,218,206,196,194,194,194,194,194,191,179,169,150,137,116,64],"timestamp_mouse":[14,40,51,71,91,112,131,152,171,191,212,231,252,271,291,311,332,351,371,391,411,431,451,472,492,511,531,552,571,592,612,633,652,671,691,711,732,752,771,791,812,831,852,871,892,911,932,952,972,991,1012,1032,1052,1071,1092,1112,1131,1152,1171,1191,1211,1231,1252,1271,1292,1311,1332,1351,1371],"xSR":741.5,"ySR":449.15000000000003,"xT1":424.9,"yT1":0,"xT2":1058.1,"yT2":0,"toosoon":0,"cond_shown":"Incongruent","ratio_trial":300,"L_num":4,"L_den":20,"R_num":2,"R_den":4,"correct_side":2,"subjID":"CristianSantiagoChaparro5","gender":"0","school":"6","age":"11"},{"start_time":1551881931157,"click_time":1551881932730,"finger_time":1551881931930,"fix_duration":264.8169962699086,"trial":35,"RT":773,"MT":800,"sideResp":2,"stimulus":[],"xmouse":[836,836,836,836,836,836,836,836,836,836,836,836,836,836,836,835,835,835,835,835,835,835,835,835,835,835,835,835,835,835,835,835,835,835,835,836,836,837,837,837,834,831,830,830,830,831,831,832,832,832,832,832,832,832,833,838,844,864,876,889,901,915,935,940,942,943,943,943,944,945,947,951,962,971,990,1006,1021,1057,1078],"ymouse":[492,492,492,492,492,492,492,493,493,495,495,495,495,495,495,495,495,495,495,495,495,495,495,495,495,495,495,495,495,495,495,495,493,491,486,479,473,455,446,439,428,417,395,389,383,376,374,373,373,373,373,373,373,372,370,362,354,326,307,286,265,242,196,179,165,150,146,144,144,142,140,136,127,122,113,107,101,90,84],"timestamp_mouse":[14,44,53,74,94,114,134,153,174,193,213,233,253,274,293,314,333,353,375,393,413,433,453,473,493,513,533,553,573,593,614,633,653,674,694,713,734,754,773,793,813,834,853,874,893,913,933,953,973,993,1013,1035,1054,1073,1093,1114,1134,1154,1173,1194,1214,1233,1254,1274,1293,1313,1334,1353,1373,1394,1413,1433,1453,1473,1493,1514,1534,1553,1573],"xSR":741.5,"ySR":449.15000000000003,"xT1":424.9,"yT1":0,"xT2":1058.1,"yT2":0,"toosoon":0,"cond_shown":"Incongruent","ratio_trial":300,"L_num":13,"L_den":26,"R_num":12,"R_den":15,"correct_side":2,"subjID":"CristianSantiagoChaparro5","gender":"0","school":"6","age":"11"},{"start_time":1551881935211,"click_time":1551881937550,"finger_time":1551881936090,"fix_duration":1319.6729842796385,"trial":36,"RT":879,"MT":1460,"sideResp":1,"stimulus":[],"xmouse":[821,820,818,817,814,814,813,813,813,813,813,812,812,812,812,812,812,812,810,810,809,808,807,807,806,806,806,806,806,806,806,806,806,806,806,806,806,806,806,806,806,806,810,814,834,848,860,868,873,882,885,889,889,891,897,903,911,922,931,956,965,973,978,978,978,978,978,978,978,978,978,978,977,976,975,975,975,975,975,982,991,1001,1010,1011,1011,1011,1011,1010,1006,978,962,943,908,877,803,760,731,707,688,662,652,643,638,636,634,632,626,613,598,564,555,549,541,540,534,526,517],"ymouse":[509,508,508,507,506,506,505,505,505,505,505,505,505,505,505,505,505,505,505,505,505,506,506,507,508,508,508,508,508,508,508,508,508,508,508,508,508,508,508,504,496,479,465,443,384,352,320,292,270,238,232,225,223,222,215,211,204,195,186,167,159,154,151,151,151,151,151,151,151,151,151,151,152,153,153,153,153,153,151,147,142,135,128,127,127,127,127,126,126,129,132,136,140,145,155,161,165,169,172,176,177,178,178,178,178,178,174,164,149,93,70,52,39,38,40,44,48],"timestamp_mouse":[19,39,60,80,99,119,140,160,179,200,219,239,260,281,300,320,340,359,379,399,420,439,459,479,500,519,540,559,579,599,619,641,661,679,699,720,739,760,780,799,819,839,859,879,900,919,939,959,980,999,1020,1039,1059,1079,1100,1119,1140,1160,1179,1199,1220,1240,1259,1280,1300,1319,1340,1359,1379,1399,1420,1440,1459,1479,1499,1519,1540,1559,1579,1599,1620,1640,1659,1680,1700,1720,1739,1759,1779,1799,1820,1839,1860,1880,1899,1919,1940,1959,1980,1999,2019,2039,2060,2079,2099,2119,2140,2160,2179,2199,2220,2239,2260,2279,2299,2319,2339],"xSR":741.5,"ySR":449.15000000000003,"xT1":424.9,"yT1":0,"xT2":1058.1,"yT2":0,"toosoon":0,"cond_shown":"Incongruent","ratio_trial":300,"L_num":13,"L_den":26,"R_num":12,"R_den":15,"correct_side":2,"subjID":"CristianSantiagoChaparro5","gender":"0","school":"6","age":"11"},{"start_time":1551881939581,"click_time":1551881941271,"finger_time":1551881940910,"fix_duration":990.8443799257981,"trial":37,"RT":1329,"MT":361,"sideResp":2,"stimulus":[],"xmouse":[795,798,800,801,802,802,803,804,805,806,807,808,809,810,810,811,812,812,812,812,812,812,812,812,812,812,812,812,812,812,811,807,805,804,801,801,800,800,800,800,800,800,800,800,800,800,800,800,800,802,803,807,809,809,809,809,809,809,809,809,809,809,809,809,809,809,829,848,873,902,928,958,961,962,962,962,962,962,964,966,968,980,993,1017,1094],"ymouse":[480,477,477,475,474,474,473,473,472,470,469,468,466,465,464,463,462,461,461,461,461,461,461,461,461,461,461,461,461,461,462,465,467,468,469,470,470,470,470,470,470,470,470,470,470,470,470,470,470,470,469,465,463,463,463,463,463,463,463,463,463,463,463,463,463,462,444,425,396,348,283,180,160,155,155,154,154,154,153,151,147,133,120,107,73],"timestamp_mouse":[11,30,57,70,91,110,129,149,169,189,209,229,249,269,289,310,329,349,369,389,410,429,450,469,491,509,531,549,569,590,610,629,649,670,690,709,729,749,769,789,809,831,849,870,890,910,929,949,971,989,1010,1029,1050,1069,1090,1109,1129,1150,1171,1189,1210,1230,1249,1269,1289,1309,1329,1349,1371,1390,1410,1429,1450,1470,1490,1510,1529,1549,1569,1589,1609,1629,1650,1670,1690],"xSR":741.5,"ySR":449.15000000000003,"xT1":424.9,"yT1":0,"xT2":1058.1,"yT2":0,"toosoon":0,"cond_shown":"Congruent","ratio_trial":200,"L_num":6,"L_den":20,"R_num":11,"R_den":22,"correct_side":2,"subjID":"CristianSantiagoChaparro5","gender":"0","school":"6","age":"11"},{"start_time":1551881943780,"click_time":1551881948231,"finger_time":1551881945710,"fix_duration":1208.4620339666703,"trial":38,"RT":1930,"MT":2521,"sideResp":1,"stimulus":[],"xmouse":[780,780,780,780,779,779,779,779,779,779,779,779,779,779,779,779,779,779,779,779,779,779,779,779,779,778,778,778,778,778,778,778,778,778,778,778,778,778,778,778,778,778,778,778,778,778,778,778,778,778,778,778,778,778,778,778,778,778,778,778,778,778,778,778,778,778,778,778,778,778,778,778,778,778,778,778,778,778,778,778,777,777,777,777,777,777,777,777,777,777,777,777,778,778,778,778,778,778,777,775,773,765,759,755,751,747,740,738,734,729,721,698,691,683,672,666,657,654,651,650,648,641,637,632,625,618,607,602,591,581,581,581,581,581,581,581,581,581,581,581,581,581,581,581,581,581,581,581,581,581,581,581,581,581,581,581,581,581,588,600,609,627,636,646,652,657,663,666,668,671,675,688,692,697,699,700,702,702,703,703,704,706,707,707,707,700,659,613,545,506,506,506,506,506,506,506,506,506,506,506,506,506,506,506,506,506,506,506,506,506,506,506,506,506,506,506,506,506,506,506,506,506,505],"ymouse":[493,493,492,491,490,489,486,485,485,485,485,485,485,485,485,485,484,484,484,484,484,484,484,484,484,483,483,483,483,483,483,483,483,483,483,483,483,483,483,483,483,483,483,483,483,483,483,483,483,483,483,483,483,483,483,483,483,483,483,483,483,483,483,483,483,483,483,483,483,483,483,483,483,483,483,483,483,483,483,483,482,479,476,475,473,472,469,468,467,466,465,462,461,459,458,456,448,444,439,431,426,408,397,389,378,371,355,350,342,333,318,280,266,249,224,210,188,181,177,173,171,164,159,153,145,137,122,116,111,108,108,108,108,108,108,108,108,108,108,108,108,108,108,108,108,108,108,108,108,108,108,108,108,108,108,108,108,108,116,130,142,159,166,169,172,174,175,175,175,175,175,177,178,178,178,179,180,180,180,180,180,178,172,169,151,132,79,47,18,0,0,0,0,0,0,0,0,0,0,0,0,0,0,0,0,0,0,0,0,0,0,0,0,0,0,0,0,0,0,0,0,0,6],"timestamp_mouse":[10,39,50,71,91,110,130,150,170,190,210,231,252,270,291,310,331,350,370,390,411,432,450,471,491,511,530,550,570,590,610,630,651,670,690,711,731,751,770,791,811,830,850,870,892,910,930,951,970,990,1010,1030,1051,1070,1090,1110,1131,1150,1171,1190,1211,1232,1251,1271,1291,1310,1330,1351,1372,1390,1412,1431,1450,1470,1492,1510,1530,1551,1570,1590,1612,1630,1650,1670,1691,1711,1730,1750,1770,1790,1811,1830,1851,1870,1890,1910,1930,1950,1970,1991,2012,2030,2051,2070,2091,2110,2130,2150,2170,2191,2211,2230,2251,2270,2290,2310,2331,2350,2371,2391,2411,2431,2450,2470,2491,2511,2530,2550,2570,2590,2611,2631,2651,2670,2690,2711,2730,2750,2770,2791,2810,2830,2850,2871,2890,2912,2930,2951,2972,2990,3011,3031,3050,3070,3091,3111,3130,3150,3170,3190,3212,3231,3251,3270,3291,3310,3330,3350,3370,3391,3411,3430,3451,3470,3490,3510,3530,3550,3571,3590,3611,3630,3650,3671,3691,3711,3730,3750,3770,3790,3810,3831,3851,3870,3890,3910,3930,3951,3972,3990,4011,4030,4050,4070,4090,4111,4130,4151,4172,4190,4210,4230,4251,4271,4290,4311,4331,4350,4370,4390,4411,4430,4451],"xSR":741.5,"ySR":449.15000000000003,"xT1":424.9,"yT1":0,"xT2":1058.1,"yT2":0,"toosoon":0,"cond_shown":"Incongruent","ratio_trial":300,"L_num":8,"L_den":10,"R_num":14,"R_den":28,"correct_side":1,"subjID":"CristianSantiagoChaparro5","gender":"0","school":"6","age":"11"},{"start_time":1551881953423,"click_time":1551881954611,"finger_time":1551881954251,"fix_duration":1370.2891871602617,"trial":39,"RT":828,"MT":360,"sideResp":2,"stimulus":[],"xmouse":[800,800,800,799,799,799,799,799,799,799,799,799,799,799,799,799,799,798,798,797,797,797,797,797,797,797,797,795,795,792,791,787,784,782,782,782,782,781,783,808,826,847,908,953,1019,1019,1019,1019,1019,1019,1019,1019,1019,1019,1019,1019,1019,1019,1019,1153],"ymouse":[491,491,491,491,491,491,491,491,491,491,491,491,491,491,491,491,491,491,491,491,491,491,491,491,491,491,491,491,492,494,495,496,497,498,498,498,498,497,493,468,452,430,359,266,52,52,52,52,52,52,52,52,52,52,52,52,52,52,52,7],"timestamp_mouse":[7,27,47,68,89,108,127,147,167,187,207,228,247,268,289,308,327,347,368,388,407,428,448,467,488,508,527,547,568,587,607,628,648,667,688,708,727,747,767,787,807,828,847,868,887,907,927,947,969,987,1007,1028,1047,1067,1087,1108,1128,1148,1168,1187],"xSR":741.5,"ySR":449.15000000000003,"xT1":424.9,"yT1":0,"xT2":1058.1,"yT2":0,"toosoon":0,"cond_shown":"Incongruent","ratio_trial":100,"L_num":10,"L_den":25,"R_num":8,"R_den":16,"correct_side":2,"subjID":"CristianSantiagoChaparro5","gender":"0","school":"6","age":"11"},{"start_time":1551881957220,"click_time":1551881959451,"finger_time":1551881958910,"fix_duration":269.6717419343718,"trial":40,"RT":1690,"MT":541,"sideResp":1,"stimulus":[],"xmouse":[767,767,767,767,767,767,767,767,767,767,767,762,753,745,742,742,742,742,742,742,742,742,743,744,747,747,748,748,749,751,752,754,755,756,758,758,758,758,758,758,758,758,758,758,758,758,758,758,758,758,758,758,758,758,758,758,758,758,758,758,758,758,758,758,758,758,758,758,758,758,763,769,782,792,800,802,802,802,802,802,802,802,802,802,796,783,766,746,721,678,663,663,663,663,663,663,663,663,663,663,663,663,663,663,663,663,663,663,663,663,375,439],"ymouse":[469,469,469,469,469,469,469,469,469,469,469,470,474,477,478,478,478,478,478,478,478,479,479,479,478,478,478,478,477,476,475,474,473,472,471,471,471,471,471,471,471,471,471,471,471,471,471,471,471,471,471,471,471,471,471,471,471,471,471,471,471,471,471,471,471,471,471,471,471,471,469,467,461,455,451,450,450,450,450,450,450,450,450,450,437,420,397,351,292,114,30,30,30,30,30,30,30,30,30,30,30,30,30,30,30,30,30,30,30,30,1,7],"timestamp_mouse":[10,36,50,72,91,111,130,150,172,190,210,230,251,270,290,310,330,350,370,390,410,431,450,470,490,510,531,550,570,590,610,630,650,670,690,711,731,751,771,790,810,830,850,872,890,912,931,950,970,990,1011,1031,1051,1070,1090,1110,1131,1150,1170,1190,1211,1230,1250,1271,1290,1311,1330,1352,1371,1390,1411,1430,1451,1471,1490,1510,1532,1551,1570,1591,1610,1631,1651,1670,1690,1710,1730,1751,1770,1790,1812,1830,1850,1871,1891,1911,1931,1950,1970,1990,2010,2030,2050,2070,2090,2111,2131,2152,2171,2190,2210,2231],"xSR":741.5,"ySR":449.15000000000003,"xT1":424.9,"yT1":0,"xT2":1058.1,"yT2":0,"toosoon":0,"cond_shown":"Congruent","ratio_trial":300,"L_num":7,"L_den":14,"R_num":20,"R_den":25,"correct_side":2,"subjID":"CristianSantiagoChaparro5","gender":"0","school":"6","age":"11"},{"start_time":1551881962903,"click_time":1551881964410,"finger_time":1551881963911,"fix_duration":950.7173892957989,"trial":41,"RT":1008,"MT":499,"sideResp":2,"stimulus":[],"xmouse":[821,821,821,821,821,821,821,821,821,821,821,821,821,821,821,821,821,821,821,821,821,821,821,821,821,821,821,821,821,821,821,821,821,821,821,821,821,821,821,821,821,821,821,821,821,821,821,821,823,828,849,884,933,967,995,1054,1081,1088,1093,1094,1094,1094,1094,1094,1097,1114,1131,1148,1169,1180,1183,1183,1183,1179,1163,1114],"ymouse":[469,469,469,469,469,469,469,469,469,469,469,469,469,469,469,469,469,469,469,469,469,469,469,469,469,469,469,469,469,469,469,469,469,469,469,469,469,469,469,469,469,469,469,469,469,469,469,469,465,458,436,411,378,351,326,264,227,222,215,214,214,214,214,213,211,184,160,135,102,84,72,72,72,71,67,54],"timestamp_mouse":[9,35,48,67,87,107,127,147,168,187,207,229,247,267,287,307,329,348,367,387,407,427,448,467,488,508,528,547,567,587,607,627,647,669,688,707,727,747,768,788,807,828,848,868,888,907,928,949,968,987,1008,1027,1048,1068,1088,1108,1127,1148,1167,1189,1207,1228,1247,1268,1287,1307,1327,1348,1368,1388,1408,1427,1448,1467,1488,1507],"xSR":741.5,"ySR":449.15000000000003,"xT1":424.9,"yT1":0,"xT2":1058.1,"yT2":0,"toosoon":0,"cond_shown":"Incongruent","ratio_trial":300,"L_num":4,"L_den":20,"R_num":2,"R_den":4,"correct_side":2,"subjID":"CristianSantiagoChaparro5","gender":"0","school":"6","age":"11"},{"start_time":1551881965857,"click_time":1551881967410,"finger_time":1551881966951,"fix_duration":325.1992282915577,"trial":42,"RT":1094,"MT":459,"sideResp":2,"stimulus":[],"xmouse":[754,754,754,754,754,754,754,754,754,754,754,754,754,754,754,754,754,754,754,754,754,754,754,754,754,754,754,754,754,754,754,755,755,755,755,755,755,755,755,755,755,755,755,755,755,755,755,755,755,755,755,759,786,805,824,853,891,990,1030,1060,1110,1142,1195,1211,1218,1218,1218,1218,1218,1218,1218,1218,1218,1218,1212,1193,1165,1063],"ymouse":[505,505,505,505,505,505,505,505,505,505,505,505,505,505,505,505,505,505,505,505,505,505,505,505,505,505,505,505,505,504,502,502,500,500,500,500,500,500,500,500,500,500,500,500,500,500,500,500,500,500,500,496,475,458,439,411,376,294,260,233,173,124,40,14,6,6,6,6,6,6,6,6,6,6,10,19,28,35],"timestamp_mouse":[13,36,54,74,94,113,133,153,173,193,214,233,253,273,293,315,334,355,374,393,413,434,453,473,494,514,533,553,573,593,615,633,653,674,694,715,735,753,774,795,813,833,853,875,895,913,933,953,973,993,1014,1033,1053,1073,1094,1113,1134,1153,1173,1193,1214,1234,1253,1273,1294,1313,1335,1354,1373,1393,1413,1434,1453,1473,1493,1513,1533,1553],"xSR":741.5,"ySR":449.15000000000003,"xT1":424.9,"yT1":0,"xT2":1058.1,"yT2":0,"toosoon":0,"cond_shown":"Congruent","ratio_trial":100,"L_num":12,"L_den":30,"R_num":13,"R_den":26,"correct_side":2,"subjID":"CristianSantiagoChaparro5","gender":"0","school":"6","age":"11"},{"start_time":1551881969516,"click_time":1551881970990,"finger_time":1551881970072,"fix_duration":1264.890120914931,"trial":43,"RT":556,"MT":918,"sideResp":2,"stimulus":[],"xmouse":[813,813,813,813,813,813,813,813,813,813,813,813,813,813,813,813,813,813,813,813,813,813,813,813,813,813,821,845,878,945,972,994,1009,1021,1044,1061,1082,1116,1143,1166,1167,1167,1167,1167,1167,1167,1167,1170,1173,1181,1181,1181,1181,1181,1181,1181,949,930,926,925,925,925,925,925,940,945,953,976,991,1014,1020,1029,1044,1063],"ymouse":[501,501,501,501,501,501,501,501,501,501,501,501,501,501,501,501,501,501,501,501,501,501,501,501,501,501,480,437,388,299,263,238,222,213,198,189,178,162,151,135,134,134,134,134,134,134,133,127,118,42,23,23,23,23,23,23,5,34,45,50,50,50,50,50,50,50,50,50,50,50,50,49,47,46],"timestamp_mouse":[14,39,54,74,94,114,134,155,174,194,216,235,254,275,295,315,336,355,374,394,416,435,455,475,494,514,534,556,575,594,614,634,655,675,694,715,734,756,775,794,815,835,856,875,894,914,934,955,974,994,1015,1034,1054,1074,1094,1116,1135,1154,1174,1194,1215,1235,1254,1274,1294,1314,1335,1355,1374,1395,1414,1435,1455,1474],"xSR":741.5,"ySR":449.15000000000003,"xT1":424.9,"yT1":0,"xT2":1058.1,"yT2":0,"toosoon":0,"cond_shown":"Congruent","ratio_trial":200,"L_num":15,"L_den":25,"R_num":4,"R_den":10,"correct_side":1,"subjID":"CristianSantiagoChaparro5","gender":"0","school":"6","age":"11"},{"start_time":1551881972