[{"start_time":1551882627296,"click_time":1551882629143,"finger_time":1551882627307,"fix_duration":250,"trial":0,"RT":11,"MT":1836,"sideResp":2,"stimulus":"img/900/equaldotanddens/L/4_Ratio_900_L_20_R_18.png","xmouse":[792,792,792,792,792,792,792,792,792,792,792,792,792,792,794,796,797,798,798,798,798,798,798,798,798,798,798,798,798,798,798,798,798,798,799,797,796,794,788,788,788,788,788,788,788,788,788,788,787,787,786,786,786,786,786,786,786,786,786,786,786,786,786,786,786,786,786,786,786,786,786,786,786,786,786,786,793,799,838,852,868,884,905,945,967,985,995,1006,1056,1084,1102,1119,1137],"ymouse":[572,572,572,572,572,572,572,572,572,572,572,572,572,572,570,568,567,566,565,565,565,565,565,565,565,565,565,565,565,565,565,565,565,565,564,560,556,546,508,498,493,493,493,493,493,493,493,493,493,493,494,494,494,494,494,494,494,494,494,494,494,494,494,494,494,494,494,494,494,494,494,494,494,494,494,495,495,495,476,461,441,423,406,376,359,338,319,300,226,183,149,118,70],"timestamp_mouse":[11,38,45,65,87,106,125,145,167,187,206,226,245,265,285,306,326,346,367,385,405,426,446,467,486,506,527,545,566,585,605,626,646,665,686,706,725,746,767,785,805,826,846,866,886,906,925,945,967,986,1005,1026,1046,1065,1086,1105,1127,1145,1166,1186,1206,1225,1246,1265,1286,1306,1326,1345,1365,1386,1407,1425,1447,1466,1486,1505,1525,1546,1565,1585,1607,1626,1645,1665,1685,1706,1726,1747,1765,1785,1806,1825,1846],"xSR":741.5,"ySR":481,"xT1":424.9,"yT1":0,"xT2":1058.1,"yT2":0,"toosoon":0,"cond_shown":"equaldotanddens","ratio_trial":900,"smaller_num":"18","larger_num":"20","correct_side":1,"subjID":"CristianChaparro5","gender":"0","age":"11","school":"6","test":{"fix_dur":[250,1500],"timestim":300,"targets_dim":[100,100],"targets_relative_coord":[0.3,0.7],"size_stim":[880,420],"start_dim":[100,100],"size_start":[300,300],"size_fix":60,"samplingrate":20,"img_types":["equaldotsize","equaldotanddens","randomdotsizeEA"],"ratios":[250,500,750,900],"rep_conds":9,"nTrials":120,"trials_to_rest":500,"Trials_order":[106,80,71,76,10,82,74,24,11,73,118,79,30,97,32,89,53,48,59,117,114,29,108,35,92,31,28,109,116,15,49,78,94,42,86,81,90,51,91,112,72,21,4,40,62,19,111,104,69,77,95,107,56,8,9,96,54,58,39,47,63,110,93,83,100,101,98,55,46,50,25,1,68,36,6,67,17,113,3,99,38,84,44,119,20,2,23,22,60,45,12,33,34,14,70,7,102,65,61,87,105,88,64,27,26,66,5,0,75,85,52,16,18,103,13,115,43,41,57,37],"cond_shown":["equaldotanddens","randomdotsizeEA","randomdotsizeEA","equaldotanddens","equaldotanddens","equaldotanddens","randomdotsizeEA","equaldotsize","randomdotsizeEA","equaldotanddens","equaldotanddens","equaldotanddens","equaldotsize","equaldotanddens","randomdotsizeEA","randomdotsizeEA","randomdotsizeEA","equaldotsize","randomdotsizeEA","equaldotsize","equaldotsize","randomdotsizeEA","equaldotsize","randomdotsizeEA","randomdotsizeEA","equaldotanddens","equaldotanddens","equaldotanddens","randomdotsizeEA","equaldotsize","equaldotanddens","equaldotsize","equaldotanddens","equaldotsize","randomdotsizeEA","equaldotsize","equaldotsize","equaldotsize","equaldotanddens","equaldotanddens","equaldotsize","equaldotsize","equaldotanddens","equaldotanddens","randomdotsizeEA","equaldotanddens","equaldotsize","randomdotsizeEA","equaldotsize","randomdotsizeEA","randomdotsizeEA","randomdotsizeEA","randomdotsizeEA","randomdotsizeEA","equaldotsize","equaldotsize","equaldotsize","equaldotanddens","equaldotsize","randomdotsizeEA","equaldotsize","randomdotsizeEA","equaldotsize","randomdotsizeEA","equaldotanddens","randomdotsizeEA","randomdotsizeEA","equaldotanddens","equaldotanddens","randomdotsizeEA","equaldotanddens","equaldotanddens","randomdotsizeEA","equaldotsize","equaldotsize","equaldotanddens","randomdotsizeEA","randomdotsizeEA","equaldotsize","equaldotsize","randomdotsizeEA","equaldotsize","randomdotsizeEA","randomdotsizeEA","randomdotsizeEA","randomdotsizeEA","randomdotsizeEA","equaldotanddens","equaldotsize","equaldotsize","equaldotsize","equaldotsize","equaldotanddens","randomdotsizeEA","equaldotanddens","equaldotanddens","equaldotsize","randomdotsizeEA","equaldotanddens","equaldotsize","equaldotsize","equaldotanddens","equaldotanddens","equaldotsize","randomdotsizeEA","equaldotsize","randomdotsizeEA","equaldotsize","equaldotsize","equaldotanddens","equaldotanddens","equaldotanddens","equaldotsize","equaldotanddens","equaldotanddens","equaldotanddens","equaldotanddens","randomdotsizeEA","equaldotsize","equaldotanddens"],"ratio_trial":[900,750,900,500,900,900,250,250,900,250,900,750,750,250,750,500,500,250,900,900,750,500,250,900,750,750,500,250,750,500,250,750,900,750,250,900,750,500,750,500,250,900,500,500,250,750,500,750,900,500,900,900,750,750,900,250,750,900,500,900,500,250,900,900,500,500,250,750,900,250,250,250,750,250,750,750,500,500,500,500,250,250,750,900,750,250,900,900,250,900,250,900,900,250,900,750,750,500,250,500,900,500,500,500,250,750,500,250,500,250,500,500,750,750,250,750,750,500,900,250],"smaller_num":["18","15","18","10","18","18","4","2","9","4","18","6","12","3","6","6","9","2","9","18","6","4","1","9","15","15","1","3","6","5","3","15","9","3","3","18","3","5","15","2","3","9","9","4","1","15","6","12","18","9","18","18","3","3","18","2","15","9","2","9","1","6","9","9","6","6","4","6","9","2","5","3","3","5","15","12","2","2","9","2","4","5","9","18","9","6","18","18","2","9","5","18","9","2","18","3","15","2","2","1","9","6","5","4","4","15","9","3","1","4","2","6","15","3","1","6","3","4","18","1"],"larger_num":["20","20","20","20","20","20","16","8","10","16","20","8","16","12","8","12","18","8","10","20","8","8","4","10","20","20","2","12","8","10","12","20","10","4","12","20","4","10","20","4","12","10","18","8","4","20","12","16","20","18","20","20","4","4","20","8","20","10","4","10","2","24","10","10","12","12","16","8","10","8","20","12","4","20","20","16","4","4","18","4","16","20","12","20","12","24","20","20","8","10","20","20","10","8","20","4","20","4","8","2","10","12","10","8","16","20","18","12","2","16","4","12","20","4","4","8","4","8","20","4"],"correct_side":[1,2,1,2,1,1,1,1,2,1,1,1,2,2,1,1,2,1,1,1,1,1,2,1,1,2,2,2,1,1,2,2,1,1,1,2,1,2,2,1,1,1,2,1,2,2,1,2,1,1,2,1,2,2,2,1,2,2,1,2,2,1,2,2,1,1,2,2,2,2,2,2,1,2,1,2,2,2,2,1,1,2,2,2,2,2,2,2,1,2,2,2,2,1,1,1,2,1,1,2,2,1,2,1,2,2,1,1,2,1,2,1,2,1,2,1,2,1,1,2],"img_shown":["img/900/equaldotanddens/L/4_Ratio_900_L_20_R_18.png","img/750/randomdotsizeEA/R/3_Ratio_750_L_15_R_20.png","img/900/randomdotsizeEA/L/10_Ratio_900_L_20_R_18.png","img/500/equaldotanddens/R/3_Ratio_500_L_10_R_20.png","img/900/equaldotanddens/L/4_Ratio_900_L_20_R_18.png","img/900/equaldotanddens/L/4_Ratio_900_L_20_R_18.png","img/250/randomdotsizeEA/L/2_Ratio_250_L_16_R_4.png","img/250/equaldotsize/L/3_Ratio_250_L_8_R_2.png","img/900/randomdotsizeEA/R/6_Ratio_900_L_9_R_10.png","img/250/equaldotanddens/L/2_Ratio_250_L_16_R_4.png","img/900/equaldotanddens/L/10_Ratio_900_L_20_R_18.png","img/750/equaldotanddens/L/13_Ratio_750_L_8_R_6.png","img/750/equaldotsize/R/11_Ratio_750_L_12_R_16.png","img/250/equaldotanddens/R/9_Ratio_250_L_3_R_12.png","img/750/randomdotsizeEA/L/13_Ratio_750_L_8_R_6.png","img/500/randomdotsizeEA/L/13_Ratio_500_L_12_R_6.png","img/500/randomdotsizeEA/R/1_Ratio_500_L_9_R_18.png","img/250/equaldotsize/L/3_Ratio_250_L_8_R_2.png","img/900/randomdotsizeEA/L/1_Ratio_900_L_10_R_9.png","img/900/equaldotsize/L/2_Ratio_900_L_20_R_18.png","img/750/equaldotsize/L/14_Ratio_750_L_8_R_6.png","img/500/randomdotsizeEA/L/8_Ratio_500_L_8_R_4.png","img/250/equaldotsize/R/8_Ratio_250_L_1_R_4.png","img/900/randomdotsizeEA/L/1_Ratio_900_L_10_R_9.png","img/750/randomdotsizeEA/L/1_Ratio_750_L_20_R_15.png","img/750/equaldotanddens/R/5_Ratio_750_L_15_R_20.png","img/500/equaldotanddens/R/15_Ratio_500_L_1_R_2.png","img/250/equaldotanddens/R/4_Ratio_250_L_3_R_12.png","img/750/randomdotsizeEA/L/13_Ratio_750_L_8_R_6.png","img/500/equaldotsize/L/7_Ratio_500_L_10_R_5.png","img/250/equaldotanddens/R/11_Ratio_250_L_3_R_12.png","img/750/equaldotsize/R/4_Ratio_750_L_15_R_20.png","img/900/equaldotanddens/L/1_Ratio_900_L_10_R_9.png","img/750/equaldotsize/L/8_Ratio_750_L_4_R_3.png","img/250/randomdotsizeEA/L/14_Ratio_250_L_12_R_3.png","img/900/equaldotsize/R/14_Ratio_900_L_18_R_20.png","img/750/equaldotsize/L/10_Ratio_750_L_4_R_3.png","img/500/equaldotsize/R/14_Ratio_500_L_5_R_10.png","img/750/equaldotanddens/R/4_Ratio_750_L_15_R_20.png","img/500/equaldotanddens/L/10_Ratio_500_L_4_R_2.png","img/250/equaldotsize/L/15_Ratio_250_L_12_R_3.png","img/900/equaldotsize/L/1_Ratio_900_L_10_R_9.png","img/500/equaldotanddens/R/6_Ratio_500_L_9_R_18.png","img/500/equaldotanddens/L/8_Ratio_500_L_8_R_4.png","img/250/randomdotsizeEA/R/8_Ratio_250_L_1_R_4.png","img/750/equaldotanddens/R/3_Ratio_750_L_15_R_20.png","img/500/equaldotsize/L/13_Ratio_500_L_12_R_6.png","img/750/randomdotsizeEA/R/11_Ratio_750_L_12_R_16.png","img/900/equaldotsize/L/8_Ratio_900_L_20_R_18.png","img/500/randomdotsizeEA/L/4_Ratio_500_L_18_R_9.png","img/900/randomdotsizeEA/R/12_Ratio_900_L_18_R_20.png","img/900/randomdotsizeEA/L/10_Ratio_900_L_20_R_18.png","img/750/randomdotsizeEA/R/7_Ratio_750_L_3_R_4.png","img/750/randomdotsizeEA/R/7_Ratio_750_L_3_R_4.png","img/900/equaldotsize/R/9_Ratio_900_L_18_R_20.png","img/250/equaldotsize/L/7_Ratio_250_L_8_R_2.png","img/750/equaldotsize/R/5_Ratio_750_L_15_R_20.png","img/900/equaldotanddens/R/7_Ratio_900_L_9_R_10.png","img/500/equaldotsize/L/10_Ratio_500_L_4_R_2.png","img/900/randomdotsizeEA/R/5_Ratio_900_L_9_R_10.png","img/500/equaldotsize/R/12_Ratio_500_L_1_R_2.png","img/250/randomdotsizeEA/L/5_Ratio_250_L_24_R_6.png","img/900/equaldotsize/R/3_Ratio_900_L_9_R_10.png","img/900/randomdotsizeEA/R/7_Ratio_900_L_9_R_10.png","img/500/equaldotanddens/L/11_Ratio_500_L_12_R_6.png","img/500/randomdotsizeEA/L/13_Ratio_500_L_12_R_6.png","img/250/randomdotsizeEA/R/10_Ratio_250_L_4_R_16.png","img/750/equaldotanddens/R/2_Ratio_750_L_6_R_8.png","img/900/equaldotanddens/R/7_Ratio_900_L_9_R_10.png","img/250/randomdotsizeEA/R/13_Ratio_250_L_2_R_8.png","img/250/equaldotanddens/R/12_Ratio_250_L_5_R_20.png","img/250/equaldotanddens/R/11_Ratio_250_L_3_R_12.png","img/750/randomdotsizeEA/L/9_Ratio_750_L_4_R_3.png","img/250/equaldotsize/R/12_Ratio_250_L_5_R_20.png","img/750/equaldotsize/L/1_Ratio_750_L_20_R_15.png","img/750/equaldotanddens/R/11_Ratio_750_L_12_R_16.png","img/500/randomdotsizeEA/R/9_Ratio_500_L_2_R_4.png","img/500/randomdotsizeEA/R/9_Ratio_500_L_2_R_4.png","img/500/equaldotsize/R/6_Ratio_500_L_9_R_18.png","img/500/equaldotsize/L/5_Ratio_500_L_4_R_2.png","img/250/randomdotsizeEA/L/2_Ratio_250_L_16_R_4.png","img/250/equaldotsize/R/12_Ratio_250_L_5_R_20.png","img/750/randomdotsizeEA/R/15_Ratio_750_L_9_R_12.png","img/900/randomdotsizeEA/R/14_Ratio_900_L_18_R_20.png","img/750/randomdotsizeEA/R/15_Ratio_750_L_9_R_12.png","img/250/randomdotsizeEA/R/6_Ratio_250_L_6_R_24.png","img/900/randomdotsizeEA/R/12_Ratio_900_L_18_R_20.png","img/900/equaldotanddens/R/14_Ratio_900_L_18_R_20.png","img/250/equaldotsize/L/3_Ratio_250_L_8_R_2.png","img/900/equaldotsize/R/7_Ratio_900_L_9_R_10.png","img/250/equaldotsize/R/12_Ratio_250_L_5_R_20.png","img/900/equaldotsize/R/11_Ratio_900_L_18_R_20.png","img/900/equaldotanddens/R/6_Ratio_900_L_9_R_10.png","img/250/randomdotsizeEA/L/3_Ratio_250_L_8_R_2.png","img/900/equaldotanddens/L/8_Ratio_900_L_20_R_18.png","img/750/equaldotanddens/L/8_Ratio_750_L_4_R_3.png","img/750/equaldotsize/R/5_Ratio_750_L_15_R_20.png","img/500/randomdotsizeEA/L/5_Ratio_500_L_4_R_2.png","img/250/equaldotanddens/L/7_Ratio_250_L_8_R_2.png","img/500/equaldotsize/R/12_Ratio_500_L_1_R_2.png","img/900/equaldotsize/R/7_Ratio_900_L_9_R_10.png","img/500/equaldotanddens/L/13_Ratio_500_L_12_R_6.png","img/500/equaldotanddens/R/14_Ratio_500_L_5_R_10.png","img/500/equaldotsize/L/8_Ratio_500_L_8_R_4.png","img/250/randomdotsizeEA/R/10_Ratio_250_L_4_R_16.png","img/750/equaldotsize/R/4_Ratio_750_L_15_R_20.png","img/500/randomdotsizeEA/L/4_Ratio_500_L_18_R_9.png","img/250/equaldotsize/L/14_Ratio_250_L_12_R_3.png","img/500/equaldotsize/R/12_Ratio_500_L_1_R_2.png","img/250/equaldotanddens/L/2_Ratio_250_L_16_R_4.png","img/500/equaldotanddens/R/9_Ratio_500_L_2_R_4.png","img/500/equaldotanddens/L/11_Ratio_500_L_12_R_6.png","img/750/equaldotsize/R/3_Ratio_750_L_15_R_20.png","img/750/equaldotanddens/L/10_Ratio_750_L_4_R_3.png","img/250/equaldotanddens/R/8_Ratio_250_L_1_R_4.png","img/750/equaldotanddens/L/13_Ratio_750_L_8_R_6.png","img/750/equaldotanddens/R/12_Ratio_750_L_3_R_4.png","img/500/randomdotsizeEA/L/8_Ratio_500_L_8_R_4.png","img/900/equaldotsize/L/4_Ratio_900_L_20_R_18.png","img/250/equaldotanddens/R/8_Ratio_250_L_1_R_4.png"],"Rat0":[["12_Ratio_0_L_9_R_0.png","13_Ratio_0_L_6_R_0.png","5_Ratio_0_L_2_R_0.png","6_Ratio_0_L_4_R_0.png","8_Ratio_0_L_6_R_0.png"],["1_Ratio_0_L_0_R_17.png","10_Ratio_0_L_0_R_22.png","11_Ratio_0_L_0_R_1.png","14_Ratio_0_L_0_R_24.png","15_Ratio_0_L_0_R_4.png","2_Ratio_0_L_0_R_5.png","3_Ratio_0_L_0_R_17.png","4_Ratio_0_L_0_R_7.png","7_Ratio_0_L_0_R_19.png","9_Ratio_0_L_0_R_15.png"]],"Rat250":[["1_Ratio_250_L_8_R_2.png","14_Ratio_250_L_12_R_3.png","15_Ratio_250_L_12_R_3.png","2_Ratio_250_L_16_R_4.png","3_Ratio_250_L_8_R_2.png","5_Ratio_250_L_24_R_6.png","7_Ratio_250_L_8_R_2.png"],["10_Ratio_250_L_4_R_16.png","11_Ratio_250_L_3_R_12.png","12_Ratio_250_L_5_R_20.png","13_Ratio_250_L_2_R_8.png","4_Ratio_250_L_3_R_12.png","6_Ratio_250_L_6_R_24.png","8_Ratio_250_L_1_R_4.png","9_Ratio_250_L_3_R_12.png"]],"Rat500":[["10_Ratio_500_L_4_R_2.png","11_Ratio_500_L_12_R_6.png","13_Ratio_500_L_12_R_6.png","4_Ratio_500_L_18_R_9.png","5_Ratio_500_L_4_R_2.png","7_Ratio_500_L_10_R_5.png","8_Ratio_500_L_8_R_4.png"],["1_Ratio_500_L_9_R_18.png","12_Ratio_500_L_1_R_2.png","14_Ratio_500_L_5_R_10.png","15_Ratio_500_L_1_R_2.png","2_Ratio_500_L_3_R_6.png","3_Ratio_500_L_10_R_20.png","6_Ratio_500_L_9_R_18.png","9_Ratio_500_L_2_R_4.png"]],"Rat750":[["1_Ratio_750_L_20_R_15.png","10_Ratio_750_L_4_R_3.png","13_Ratio_750_L_8_R_6.png","14_Ratio_750_L_8_R_6.png","6_Ratio_750_L_24_R_18.png","8_Ratio_750_L_4_R_3.png","9_Ratio_750_L_4_R_3.png"],["11_Ratio_750_L_12_R_16.png","12_Ratio_750_L_3_R_4.png","15_Ratio_750_L_9_R_12.png","2_Ratio_750_L_6_R_8.png","3_Ratio_750_L_15_R_20.png","4_Ratio_750_L_15_R_20.png","5_Ratio_750_L_15_R_20.png","7_Ratio_750_L_3_R_4.png"]],"Rat900":[["1_Ratio_900_L_10_R_9.png","10_Ratio_900_L_20_R_18.png","2_Ratio_900_L_20_R_18.png","4_Ratio_900_L_20_R_18.png","8_Ratio_900_L_20_R_18.png"],["11_Ratio_900_L_18_R_20.png","12_Ratio_900_L_18_R_20.png","13_Ratio_900_L_18_R_20.png","14_Ratio_900_L_18_R_20.png","15_Ratio_900_L_9_R_10.png","3_Ratio_900_L_9_R_10.png","5_Ratio_900_L_9_R_10.png","6_Ratio_900_L_9_R_10.png","7_Ratio_900_L_9_R_10.png","9_Ratio_900_L_18_R_20.png"]],"Rat1000":[["10_Ratio_1000_L_16_R_16.png","11_Ratio_1000_L_6_R_6.png","12_Ratio_1000_L_14_R_14.png","13_Ratio_1000_L_20_R_20.png","15_Ratio_1000_L_15_R_15.png","2_Ratio_1000_L_17_R_17.png","4_Ratio_1000_L_9_R_9.png","5_Ratio_1000_L_6_R_6.png","6_Ratio_1000_L_19_R_19.png","8_Ratio_1000_L_14_R_14.png","9_Ratio_1000_L_25_R_25.png"],["1_Ratio_1000_L_1_R_1.png","14_Ratio_1000_L_17_R_17.png","3_Ratio_1000_L_17_R_17.png","7_Ratio_1000_L_6_R_6.png"]]}},{"start_time":1551882630528,"click_time":1551882632682,"finger_time":1551882632261,"fix_duration":283.564202276404,"trial":1,"RT":1733,"MT":421,"sideResp":2,"stimulus":"img/750/randomdotsizeEA/R/3_Ratio_750_L_15_R_20.png","xmouse":[798,798,798,798,798,798,798,798,798,798,798,798,798,798,798,798,798,798,798,798,798,798,798,798,798,798,798,798,798,798,798,798,798,798,798,798,797,795,794,791,788,787,787,787,787,787,787,787,787,787,787,785,784,783,781,780,779,779,779,779,779,779,778,778,778,777,776,776,776,775,775,775,775,775,775,775,775,775,775,775,775,775,775,776,782,784,807,820,840,862,903,919,932,944,953,963,977,980,982,983,983,984,985,988,995,1006,1048,1067],"ymouse":[509,509,509,509,509,509,509,509,509,509,509,509,509,505,500,500,500,500,500,500,500,500,500,500,500,500,500,500,500,500,500,500,500,500,500,500,499,494,488,480,473,472,472,472,472,472,471,471,471,471,471,471,471,471,471,471,472,473,473,473,473,473,473,473,474,474,475,475,475,476,476,477,477,477,477,477,477,477,477,477,477,477,477,474,465,463,428,410,378,345,276,253,236,220,208,197,180,175,173,170,169,168,165,162,155,146,95,67],"timestamp_mouse":[14,33,54,74,95,113,133,154,174,193,215,233,253,273,293,315,333,353,375,393,413,433,453,474,495,513,534,553,575,593,613,635,653,675,693,713,735,753,774,795,814,834,854,874,893,914,933,953,975,993,1013,1033,1055,1074,1094,1113,1133,1154,1174,1193,1215,1233,1253,1275,1293,1313,1334,1355,1374,1394,1414,1434,1453,1475,1495,1513,1535,1555,1574,1595,1613,1635,1653,1673,1694,1715,1733,1753,1774,1795,1814,1833,1853,1873,1895,1915,1934,1954,1974,1993,2013,2033,2054,2074,2093,2113,2133,2153],"xSR":741.5,"ySR":449.15000000000003,"xT1":424.9,"yT1":0,"xT2":1058.1,"yT2":0,"toosoon":0,"cond_shown":"randomdotsizeEA","ratio_trial":750,"smaller_num":"15","larger_num":"20","correct_side":2,"subjID":"CristianChaparro5","gender":"0","age":"11","school":"6"},{"start_time":1551882636294,"click_time":1551882637943,"finger_time":1551882637081,"fix_duration":250,"trial":2,"RT":787,"MT":862,"sideResp":1,"stimulus":"img/900/randomdotsizeEA/L/10_Ratio_900_L_20_R_18.png","xmouse":[828,828,828,828,828,828,828,828,828,828,828,828,828,828,828,828,828,828,828,828,828,828,828,828,828,828,828,828,828,828,828,828,828,828,828,828,827,827,841,849,853,856,856,856,856,855,852,847,837,832,828,824,822,820,818,816,815,813,813,813,813,813,815,823,825,825,825,806,799,793,791,791,791,791,791,676,667,650,620,601,577,555,508],"ymouse":[626,626,626,626,626,626,626,626,626,626,626,626,626,626,626,626,626,626,626,626,626,626,626,626,626,626,626,626,626,626,626,626,626,626,626,626,625,619,589,569,555,545,543,543,543,543,543,546,551,554,557,560,562,567,569,572,574,576,576,576,573,565,504,436,357,284,226,128,110,102,97,97,97,97,97,42,36,28,17,17,17,17,17],"timestamp_mouse":[9,38,48,67,88,108,127,148,168,188,208,228,249,267,288,309,328,347,369,387,407,428,447,468,487,508,529,547,568,588,607,629,647,667,687,709,728,747,768,787,807,828,849,868,889,907,928,948,968,988,1007,1028,1047,1067,1088,1107,1127,1149,1169,1188,1208,1228,1248,1268,1288,1308,1327,1348,1367,1387,1409,1428,1447,1468,1487,1507,1527,1548,1568,1588,1608,1628,1649],"xSR":741.5,"ySR":573.95,"xT1":424.9,"yT1":0,"xT2":1058.1,"yT2":0,"toosoon":0,"cond_shown":"randomdotsizeEA","ratio_trial":900,"smaller_num":"18","larger_num":"20","correct_side":1,"subjID":"CristianChaparro5","gender":"0","age":"11","school":"6"},{"start_time":1551882639395,"click_time":1551882640322,"finger_time":1551882640041,"fix_duration":250,"trial":3,"RT":646,"MT":281,"sideResp":2,"stimulus":"img/500/equaldotanddens/R/3_Ratio_500_L_10_R_20.png","xmouse":[798,798,798,798,798,798,798,798,798,798,798,798,798,798,798,798,798,798,798,798,798,798,798,798,798,798,798,798,799,799,802,806,816,841,865,901,936,971,1058,1075,1084,1091,1093,1102,1105,1110,1113],"ymouse":[601,601,601,601,601,601,601,601,601,601,601,601,601,601,601,601,601,601,601,601,601,601,601,601,601,601,601,601,599,597,592,583,565,534,511,479,448,396,261,234,212,190,169,129,117,106,93],"timestamp_mouse":[8,35,47,67,86,108,126,146,167,186,208,226,248,266,288,306,326,346,367,387,406,426,447,467,487,507,527,548,566,587,607,626,646,667,687,706,726,746,766,786,806,828,847,867,887,907,926],"xSR":741.5,"ySR":573.95,"xT1":424.9,"yT1":0,"xT2":1058.1,"yT2":0,"toosoon":0,"cond_shown":"equaldotanddens","ratio_trial":500,"smaller_num":"10","larger_num":"20","correct_side":2,"subjID":"CristianChaparro5","gender":"0","age":"11","school":"6"},{"start_time":1551882643529,"click_time":1551882644722,"finger_time":1551882644242,"fix_duration":1105.5413359254997,"trial":4,"RT":713,"MT":480,"sideResp":1,"stimulus":"img/900/equaldotanddens/L/4_Ratio_900_L_20_R_18.png","xmouse":[776,776,776,776,776,776,776,776,776,776,776,776,776,776,776,776,776,776,776,776,776,776,776,776,776,776,776,776,776,776,776,776,778,778,779,780,779,764,741,701,626,608,599,593,582,449,380,346,337,337,344,348,354,360,367,397,406,416,422,428],"ymouse":[623,623,623,623,623,623,623,623,623,623,623,623,623,623,623,623,623,623,623,623,623,623,623,623,623,623,623,623,623,623,623,620,609,599,582,533,506,471,427,360,248,219,204,196,188,133,93,69,61,58,54,53,52,52,52,52,52,52,52,52],"timestamp_mouse":[13,33,53,73,94,113,132,153,173,194,212,233,254,274,292,314,334,352,373,394,412,433,454,472,493,513,533,553,573,593,613,633,652,672,693,713,732,753,774,793,813,832,854,873,893,913,932,952,973,993,1013,1032,1054,1073,1092,1113,1132,1152,1172,1193],"xSR":741.5,"ySR":573.95,"xT1":424.9,"yT1":0,"xT2":1058.1,"yT2":0,"toosoon":0,"cond_shown":"equaldotanddens","ratio_trial":900,"smaller_num":"18","larger_num":"20","correct_side":1,"subjID":"CristianChaparro5","gender":"0","age":"11","school":"6"},{"start_time":1551882646892,"click_time":1551882648123,"finger_time":1551882647561,"fix_duration":1308.290829165228,"trial":5,"RT":669,"MT":562,"sideResp":2,"stimulus":"img/900/equaldotanddens/L/4_Ratio_900_L_20_R_18.png","xmouse":[748,748,748,748,748,748,748,748,751,754,762,772,778,778,778,778,778,778,778,778,778,778,778,778,778,778,778,778,778,778,779,782,803,821,839,858,888,963,986,1010,1022,1031,1046,1050,1055,1061,1064,1069,1074,1075,1075,1076,1076,1077,1078,1081,1082,1084,1087,1090,1105,1150],"ymouse":[602,602,602,602,602,602,602,602,600,599,599,599,599,599,599,599,599,599,599,599,599,599,599,599,599,599,599,599,599,599,599,599,586,573,556,538,503,409,376,342,321,306,267,253,238,223,214,201,189,184,181,179,178,175,166,158,153,149,143,139,119,63],"timestamp_mouse":[11,30,49,71,90,110,129,149,170,189,210,229,249,270,289,310,329,349,370,391,410,430,449,470,489,510,530,549,569,589,610,629,650,669,691,710,729,751,769,789,809,829,850,869,890,910,930,949,970,990,1010,1030,1050,1070,1091,1110,1130,1150,1170,1190,1209,1230],"xSR":741.5,"ySR":573.95,"xT1":424.9,"yT1":0,"xT2":1058.1,"yT2":0,"toosoon":0,"cond_shown":"equaldotanddens","ratio_trial":900,"smaller_num":"18","larger_num":"20","correct_side":1,"subjID":"CristianChaparro5","gender":"0","age":"11","school":"6"},{"start_time":1551882651212,"click_time":1551882652222,"finger_time":1551882652062,"fix_duration":250,"trial":6,"RT":850,"MT":160,"sideResp":1,"stimulus":"img/250/randomdotsizeEA/L/2_Ratio_250_L_16_R_4.png","xmouse":[782,782,782,782,782,782,782,782,782,782,782,782,782,782,782,782,782,782,782,782,782,782,782,782,782,782,782,782,782,782,782,782,782,782,782,782,782,782,782,782,783,783,783,783,781,768,706,644,572,515,502],"ymouse":[630,630,630,630,630,630,630,630,630,630,630,630,630,630,630,630,630,630,630,630,630,630,630,630,630,630,630,630,630,630,630,630,630,630,630,630,630,630,631,631,623,612,571,542,506,457,331,249,166,105,75],"timestamp_mouse":[10,30,50,69,89,109,129,150,169,189,209,229,250,271,289,309,331,350,370,389,411,430,449,470,490,510,529,550,570,591,609,629,650,669,689,709,729,750,769,790,809,829,850,870,891,910,930,949,969,990,1010],"xSR":741.5,"ySR":573.95,"xT1":424.9,"yT1":0,"xT2":1058.1,"yT2":0,"toosoon":0,"cond_shown":"randomdotsizeEA","ratio_trial":250,"smaller_num":"4","larger_num":"16","correct_side":1,"subjID":"CristianChaparro5","gender":"0","age":"11","school":"6"},{"start_time":1551882654195,"click_time":1551882655561,"finger_time":1551882655222,"fix_duration":931.5319358674592,"trial":7,"RT":1027,"MT":339,"sideResp":1,"stimulus":"img/250/equaldotsize/L/3_Ratio_250_L_8_R_2.png","xmouse":[754,754,754,754,754,754,754,754,754,754,754,754,754,754,754,754,754,754,754,754,754,754,754,754,754,754,754,754,754,754,754,754,754,754,754,754,754,754,754,754,754,755,755,755,755,755,755,755,755,753,751,747,729,705,693,687,685,686,689,689,689,684,678,634,617,608,596,529,490],"ymouse":[615,616,616,616,616,616,616,616,616,616,616,616,616,616,616,616,616,616,616,616,616,616,616,616,616,616,616,616,616,616,616,616,616,616,616,616,616,616,616,616,616,615,613,610,608,605,604,603,598,593,585,571,530,470,422,373,334,280,262,245,228,207,184,85,62,57,56,52,45],"timestamp_mouse":[8,28,46,67,87,106,126,146,167,186,206,227,247,267,286,306,327,346,367,386,406,426,446,468,486,507,527,547,566,586,606,628,646,668,688,706,726,748,767,787,806,827,847,866,887,908,926,947,967,986,1007,1027,1047,1066,1087,1107,1127,1147,1166,1187,1207,1226,1246,1266,1287,1308,1327,1347,1366],"xSR":741.5,"ySR":573.95,"xT1":424.9,"yT1":0,"xT2":1058.1,"yT2":0,"toosoon":0,"cond_shown":"equaldotsize","ratio_trial":250,"smaller_num":"2","larger_num":"8","correct_side":1,"subjID":"CristianChaparro5","gender":"0","age":"11","school":"6"},{"start_time":1551882656888,"click_time":1551882658341,"finger_time":1551882657603,"fix_duration":645.8714474837938,"trial":8,"RT":715,"MT":738,"sideResp":2,"stimulus":"img/900/randomdotsizeEA/R/6_Ratio_900_L_9_R_10.png","xmouse":[820,820,820,820,820,820,820,820,820,820,820,820,820,820,820,820,820,820,820,820,820,820,820,820,820,820,820,820,820,820,820,820,822,822,823,825,827,830,844,849,855,861,871,875,882,890,902,933,963,981,998,1014,1030,1055,1067,1079,1101,1124,1165,1173,1173,1174,1174,1174,1172,1171,1170,1170,1170,1170,1168,1162,1154],"ymouse":[618,618,618,618,618,618,618,618,618,618,618,618,618,618,618,618,618,618,618,618,618,618,618,618,618,618,618,618,618,618,615,609,592,582,575,570,564,558,527,513,500,486,464,455,443,431,415,385,357,335,314,296,274,239,223,207,175,150,108,99,98,98,98,98,98,99,99,99,99,99,99,99,99],"timestamp_mouse":[14,33,55,73,94,115,135,154,174,194,215,235,253,273,293,313,333,354,373,394,414,435,453,474,493,514,534,555,573,593,613,635,654,673,693,714,735,754,774,793,813,834,855,874,893,914,933,954,973,994,1014,1033,1053,1073,1095,1114,1135,1153,1174,1193,1214,1235,1255,1273,1293,1314,1334,1354,1374,1394,1415,1434,1453],"xSR":741.5,"ySR":573.95,"xT1":424.9,"yT1":0,"xT2":1058.1,"yT2":0,"toosoon":0,"cond_shown":"randomdotsizeEA","ratio_trial":900,"smaller_num":"9","larger_num":"10","correct_side":2,"subjID":"CristianChaparro5","gender":"0","age":"11","school":"6"},{"start_time":1551882661195,"click_time":1551882662122,"finger_time":1551882661842,"fix_duration":292.384367299506,"trial":9,"RT":647,"MT":280,"sideResp":1,"stimulus":"img/250/equaldotanddens/L/2_Ratio_250_L_16_R_4.png","xmouse":[766,766,766,766,766,766,766,766,766,766,766,766,766,766,766,766,766,766,766,766,768,769,769,769,769,767,767,767,767,767,766,761,705,641,588,579,583,586,586,586,586,586,580,573,563,544,524],"ymouse":[633,633,633,633,633,633,633,633,633,633,633,633,633,633,633,633,633,633,633,633,633,633,633,633,633,634,634,634,634,633,628,611,480,385,297,235,189,139,128,125,125,124,118,111,102,89,74],"timestamp_mouse":[7,26,47,67,87,108,127,146,167,187,208,227,246,268,287,307,326,346,367,386,406,428,446,467,487,506,527,546,566,587,606,628,647,666,687,707,726,747,766,786,808,826,847,867,887,908,927],"xSR":741.5,"ySR":573.95,"xT1":424.9,"yT1":0,"xT2":1058.1,"yT2":0,"toosoon":0,"cond_shown":"equaldotanddens","ratio_trial":250,"smaller_num":"4","larger_num":"16","correct_side":1,"subjID":"CristianChaparro5","gender":"0","age":"11","school":"6"},{"start_time":1551882664245,"click_time":1551882665541,"finger_time":1551882665042,"fix_duration":922.0047152556064,"trial":10,"RT":797,"MT":499,"sideResp":1,"stimulus":"img/900/equaldotanddens/L/10_Ratio_900_L_20_R_18.png","xmouse":[786,786,786,786,786,786,786,786,786,786,786,786,785,784,784,784,784,784,784,784,784,784,784,784,784,784,784,784,784,785,785,786,786,788,789,792,796,804,814,831,835,840,841,841,841,822,796,758,697,564,497,472,452,438,429,427,426,426,426,424,414,412,412,416,425],"ymouse":[618,618,618,618,618,618,618,618,618,618,618,618,619,619,619,619,619,619,619,619,619,619,619,619,619,619,619,619,619,619,619,619,619,618,617,614,606,594,581,547,532,515,497,477,454,379,317,243,146,0,0,0,0,0,0,0,0,0,0,0,18,32,45,59,73],"timestamp_mouse":[16,36,56,77,96,118,136,156,177,196,216,236,257,277,296,318,337,357,377,398,418,438,457,477,497,517,537,557,577,597,617,638,657,677,698,717,738,756,776,797,816,836,857,877,897,917,937,957,976,997,1016,1036,1057,1078,1097,1116,1138,1157,1177,1197,1217,1236,1258,1276,1296],"xSR":741.5,"ySR":573.95,"xT1":424.9,"yT1":0,"xT2":1058.1,"yT2":0,"toosoon":0,"cond_shown":"equaldotanddens","ratio_trial":900,"smaller_num":"18","larger_num":"20","correct_side":1,"subjID":"CristianChaparro5","gender":"0","age":"11","school":"6"},{"start_time":1551882667678,"click_time":1551882668661,"finger_time":1551882668242,"fix_duration":915.48195889613,"trial":11,"RT":564,"MT":419,"sideResp":1,"stimulus":"img/750/equaldotanddens/L/13_Ratio_750_L_8_R_6.png","xmouse":[792,792,792,792,792,792,792,792,792,792,792,792,792,792,792,792,792,792,792,792,792,792,792,792,792,792,792,792,785,778,770,758,736,663,628,600,587,580,579,579,579,579,579,579,579,576,572,565,545,512],"ymouse":[599,599,599,599,599,599,599,599,599,599,599,599,599,599,599,599,599,599,599,599,599,599,599,599,599,599,599,592,559,534,505,469,420,302,253,207,180,164,153,152,152,152,149,144,124,115,107,98,80,62],"timestamp_mouse":[8,24,43,64,83,104,124,145,164,184,205,223,243,265,283,303,324,343,365,385,403,424,445,463,483,504,523,544,564,583,603,623,644,664,683,703,723,745,764,783,804,823,844,863,884,905,924,944,963,983],"xSR":741.5,"ySR":573.95,"xT1":424.9,"yT1":0,"xT2":1058.1,"yT2":0,"toosoon":0,"cond_shown":"equaldotanddens","ratio_trial":750,"smaller_num":"6","larger_num":"8","correct_side":1,"subjID":"CristianChaparro5","gender":"0","age":"11","school":"6"},{"start_time":1551882670373,"click_time":1551882671341,"finger_time":1551882670981,"fix_duration":1011.5671775449133,"trial":12,"RT":608,"MT":360,"sideResp":2,"stimulus":"img/750/equaldotsize/R/11_Ratio_750_L_12_R_16.png","xmouse":[809,805,803,802,802,802,802,802,802,802,802,802,802,802,802,802,802,802,802,802,802,802,802,802,802,802,802,802,806,824,838,855,877,919,988,1025,1061,1092,1116,1151,1164,1169,1173,1176,1179,1179,1175,1163,1149],"ymouse":[632,632,632,632,632,632,632,632,632,632,632,632,632,632,632,632,632,632,632,632,632,632,632,632,631,629,625,620,610,579,553,522,489,446,398,377,351,326,306,248,216,194,180,170,151,135,118,100,83],"timestamp_mouse":[11,29,48,69,88,109,129,150,169,189,208,230,250,268,288,308,330,349,369,389,410,429,449,468,489,508,529,549,568,589,608,628,649,669,689,709,729,748,769,788,809,829,848,868,890,908,929,949,968],"xSR":741.5,"ySR":573.95,"xT1":424.9,"yT1":0,"xT2":1058.1,"yT2":0,"toosoon":0,"cond_shown":"equaldotsize","ratio_trial":750,"smaller_num":"12","larger_num":"16","correct_side":2,"subjID":"CristianChaparro5","gender":"0","age":"11","school":"6"},{"start_time":1551882673002,"click_time":1551882673922,"finger_time":1551882673502,"fix_duration":758.277957759861,"trial":13,"RT":500,"MT":420,"sideResp":2,"stimulus":"img/250/equaldotanddens/R/9_Ratio_250_L_3_R_12.png","xmouse":[773,774,776,777,777,777,777,777,777,777,777,777,777,777,777,777,777,777,777,779,781,783,790,804,816,832,853,890,975,1013,1047,1080,1120,1155,1180,1206,1225,1241,1264,1265,1265,1265,1265,1242,1214,1186,1140],"ymouse":[633,633,633,634,634,634,634,634,634,634,634,634,634,634,634,634,634,634,635,635,634,632,626,605,588,566,539,501,423,385,348,303,216,166,132,96,77,57,26,25,25,25,25,19,15,13,13],"timestamp_mouse":[1,19,54,60,80,99,121,139,159,181,199,219,240,260,279,300,321,339,360,380,401,421,439,460,479,500,519,539,559,579,599,621,640,659,680,700,720,740,760,780,800,820,839,859,880,900,920],"xSR":741.5,"ySR":573.95,"xT1":424.9,"yT1":0,"xT2":1058.1,"yT2":0,"toosoon":0,"cond_shown":"equaldotanddens","ratio_trial":250,"smaller_num":"3","larger_num":"12","correct_side":2,"subjID":"CristianChaparro5","gender":"0","age":"11","school":"6"},{"start_time":1551882676034,"click_time":1551882676742,"finger_time":1551882676442,"fix_duration":1350.0609032181935,"trial":14,"RT":408,"MT":300,"sideResp":1,"stimulus":"img/750/randomdotsizeEA/L/13_Ratio_750_L_8_R_6.png","xmouse":[773,773,773,773,773,773,773,773,773,773,773,773,773,776,778,788,794,802,809,817,834,839,839,832,818,772,746,722,699,679,631,590,555,517,486,466],"ymouse":[632,632,632,632,632,632,632,632,632,632,632,632,632,632,632,628,623,614,607,591,559,525,500,470,440,378,346,321,297,276,236,201,170,139,107,82],"timestamp_mouse":[10,36,47,68,89,109,128,147,169,188,209,228,248,269,288,309,327,347,367,388,408,427,448,467,487,508,527,547,568,589,608,627,648,668,687,708],"xSR":741.5,"ySR":573.95,"xT1":424.9,"yT1":0,"xT2":1058.1,"yT2":0,"toosoon":0,"cond_shown":"randomdotsizeEA","ratio_trial":750,"smaller_num":"6","larger_num":"8","correct_side":1,"subjID":"CristianChaparro5","gender":"0","age":"11","school":"6"},{"start_time":1551882680074,"click_time":1551882681022,"finger_time":1551882680681,"fix_duration":1209.7619318182217,"trial":15,"RT":607,"MT":341,"sideResp":1,"stimulus":"img/500/randomdotsizeEA/L/13_Ratio_500_L_12_R_6.png","xmouse":[764,764,764,764,764,764,764,765,765,765,765,765,765,766,766,767,768,768,768,768,768,769,769,770,770,770,770,770,769,762,755,751,747,740,724,713,676,622,549,542,542,543,543,543,541,526,502,477],"ymouse":[634,633,633,633,632,632,632,632,632,632,632,632,632,632,632,631,631,631,631,631,631,630,630,628,628,626,625,623,618,592,573,548,517,473,354,275,184,90,0,0,0,0,0,0,0,0,0,5],"timestamp_mouse":[7,29,49,68,88,107,127,148,168,187,209,228,249,269,287,307,328,348,368,387,408,428,447,467,487,508,527,547,567,588,607,628,647,668,687,708,728,747,768,787,808,828,847,868,887,907,928,948],"xSR":741.5,"ySR":573.95,"xT1":424.9,"yT1":0,"xT2":1058.1,"yT2":0,"toosoon":0,"cond_shown":"randomdotsizeEA","ratio_trial":500,"smaller_num":"6","larger_num":"12","correct_side":1,"subjID":"CristianChaparro5","gender":"0","age":"11","school":"6"},{"start_time":1551882683195,"click_time":1551882684262,"finger_time":1551882683622,"fix_duration":1490.3733817088741,"trial":16,"RT":427,"MT":640,"sideResp":1,"stimulus":"img/500/randomdotsizeEA/R/1_Ratio_500_L_9_R_18.png","xmouse":[800,800,800,800,800,801,801,802,802,802,802,802,802,802,802,802,803,805,809,821,838,862,873,877,880,882,885,889,903,918,939,958,1009,1020,1025,1025,1022,1005,902,831,757,684,591,540,531,529,529,529,529,529,529,529,527,523],"ymouse":[659,659,659,659,659,659,659,659,659,659,659,659,659,659,659,659,659,656,651,638,623,593,561,548,539,529,518,505,468,437,402,368,296,273,254,238,223,209,169,146,125,103,75,53,47,44,43,42,42,40,39,39,38,39],"timestamp_mouse":[8,29,47,68,87,107,127,147,167,187,208,228,248,267,288,306,327,348,367,387,408,427,448,466,487,508,528,547,567,587,607,628,648,666,687,708,727,747,767,786,807,827,847,867,887,908,926,948,968,987,1007,1028,1047,1067],"xSR":741.5,"ySR":573.95,"xT1":424.9,"yT1":0,"xT2":1058.1,"yT2":0,"toosoon":0,"cond_shown":"randomdotsizeEA","ratio_trial":500,"smaller_num":"9","larger_num":"18","correct_side":2,"subjID":"CristianChaparro5","gender":"0","age":"11","school":"6"},{"start_time":1551882685640,"click_time":1551882686602,"finger_time":1551882686062,"fix_duration":556.1405598003057,"trial":17,"RT":422,"MT":540,"sideResp":1,"stimulus":"img/250/equaldotsize/L/3_Ratio_250_L_8_R_2.png","xmouse":[768,768,768,768,768,768,768,769,769,769,770,771,772,776,777,784,788,793,797,800,808,817,822,826,829,831,833,833,833,833,833,827,818,809,792,780,771,771,771,771,771,754,739,721,703,650,607,562,515],"ymouse":[610,610,610,610,610,610,610,610,610,610,610,609,608,606,605,600,597,593,589,586,579,568,563,558,552,549,546,545,545,544,544,527,503,471,423,384,334,321,316,309,304,269,248,228,209,170,144,119,95],"timestamp_mouse":[8,32,42,62,81,101,122,142,162,183,201,223,242,262,282,303,322,342,362,382,402,422,442,462,483,502,522,542,561,583,601,622,641,663,683,702,722,742,762,783,802,822,841,862,882,902,921,943,962],"xSR":741.5,"ySR":573.95,"xT1":424.9,"yT1":0,"xT2":1058.1,"yT2":0,"toosoon":0,"cond_shown":"equaldotsize","ratio_trial":250,"smaller_num":"2","larger_num":"8","correct_side":1,"subjID":"CristianChaparro5","gender":"0","age":"11","school":"6"},{"start_time":1551882689389,"click_time":1551882690443,"finger_time":1551882690122,"fix_duration":506.9520539727467,"trial":18,"RT":733,"MT":321,"sideResp":1,"stimulus":"img/900/randomdotsizeEA/L/1_Ratio_900_L_10_R_9.png","xmouse":[783,783,784,784,784,784,784,784,784,784,784,784,785,786,786,786,786,786,786,786,786,786,786,786,786,786,786,786,786,786,786,786,786,793,798,801,799,697,637,598,580,576,588,592,593,593,585,562,551,544,537,531,521],"ymouse":[647,647,647,647,647,647,647,647,647,647,647,647,648,648,648,648,648,648,648,648,648,648,648,648,648,648,648,648,648,648,648,648,648,638,621,598,557,393,301,218,160,128,87,78,71,62,52,30,19,10,3,0,1],"timestamp_mouse":[14,35,53,73,94,113,132,153,172,193,212,234,253,273,292,313,333,352,374,393,413,433,453,473,493,512,533,554,573,593,613,634,653,673,693,714,733,753,773,793,813,834,853,873,893,913,933,953,973,994,1014,1034,1054],"xSR":741.5,"ySR":573.95,"xT1":424.9,"yT1":0,"xT2":1058.1,"yT2":0,"toosoon":0,"cond_shown":"randomdotsizeEA","ratio_trial":900,"smaller_num":"9","larger_num":"10","correct_side":1,"subjID":"CristianChaparro5","gender":"0","age":"11","school":"6"},{"start_time":1551882692743,"click_time":1551882693802,"finger_time":1551882693403,"fix_duration":1358.1136370101044,"trial":19,"RT":660,"MT":399,"sideResp":2,"stimulus":"img/900/equaldotsize/L/2_Ratio_900_L_20_R_18.png","xmouse":[790,790,790,790,790,790,790,790,790,790,790,790,790,790,790,790,790,790,790,790,791,792,793,793,793,793,795,795,796,797,801,808,818,837,864,905,1080,1138,1179,1200,1208,1209,1209,1209,1209,1209,1209,1205,1197,1179,1136,1121,1112,1098],"ymouse":[621,621,621,621,621,621,621,621,621,621,621,621,621,621,621,621,621,621,621,621,621,621,620,620,620,620,620,619,618,617,608,597,581,558,511,436,209,127,55,11,0,0,0,0,0,0,0,0,0,0,0,0,0,6],"timestamp_mouse":[1,19,40,60,80,100,119,140,160,180,198,219,240,258,279,299,319,339,360,379,400,419,439,459,478,499,519,539,560,580,599,619,639,660,679,699,719,739,759,779,800,819,840,859,879,900,919,938,959,980,1000,1019,1039,1059],"xSR":741.5,"ySR":573.95,"xT1":424.9,"yT1":0,"xT2":1058.1,"yT2":0,"toosoon":0,"cond_shown":"equaldotsize","ratio_trial":900,"smaller_num":"18","larger_num":"20","correct_side":1,"subjID":"CristianChaparro5","gender":"0","age":"11","school":"6"},{"start_time":1551882695169,"click_time":1551882695943,"finger_time":1551882695762,"fix_duration":326.9769296762076,"trial":20,"RT":593,"MT":181,"sideResp":1,"stimulus":"img/750/equaldotsize/L/14_Ratio_750_L_8_R_6.png","xmouse":[826,829,831,832,832,832,832,832,832,832,832,832,832,832,830,828,828,827,827,826,825,825,824,824,824,824,822,819,807,726,670,625,599,561,554,550,544,537,513],"ymouse":[610,609,608,608,608,608,608,608,608,608,608,608,608,608,609,610,610,611,611,611,611,612,612,612,612,612,611,604,582,465,394,331,288,215,193,177,157,137,91],"timestamp_mouse":[14,36,54,73,93,112,133,153,173,194,214,234,252,273,294,313,333,353,374,392,413,433,453,473,493,512,534,553,573,593,614,634,653,674,692,713,733,754,774],"xSR":741.5,"ySR":573.95,"xT1":424.9,"yT1":0,"xT2":1058.1,"yT2":0,"toosoon":0,"cond_shown":"equaldotsize","ratio_trial":750,"smaller_num":"6","larger_num":"8","correct_side":1,"subjID":"CristianChaparro5","gender":"0","age":"11","school":"6"},{"start_time":1551882698385,"click_time":1551882699702,"finger_time":1551882699443,"fix_duration":1421.2846997554248,"trial":21,"RT":1058,"MT":259,"sideResp":2,"stimulus":"img/500/randomdotsizeEA/L/8_Ratio_500_L_8_R_4.png","xmouse":[763,763,767,770,772,773,773,773,773,773,773,773,773,774,774,774,775,776,777,777,777,777,778,780,780,780,781,782,783,783,783,783,783,783,783,783,783,783,783,783,783,783,783,784,784,784,785,786,789,792,800,808,858,884,911,932,954,997,1019,1039,1058,1077,1098,1134,1141,1143],"ymouse":[633,634,636,637,638,638,638,638,638,638,638,638,638,639,639,639,639,639,638,638,638,638,638,638,638,638,638,638,637,637,637,637,637,637,637,637,637,637,637,637,637,637,637,636,635,634,631,628,625,621,612,601,553,533,510,491,466,398,359,320,276,238,203,132,111,96],"timestamp_mouse":[17,37,57,78,97,116,138,157,177,198,216,236,258,277,298,317,337,356,378,397,417,437,457,478,498,517,537,557,577,597,618,637,658,678,698,716,737,758,777,798,817,837,857,877,896,918,937,958,977,997,1017,1037,1058,1077,1097,1117,1138,1158,1177,1196,1217,1238,1257,1278,1297,1317],"xSR":741.5,"ySR":573.95,"xT1":424.9,"yT1":0,"xT2":1058.1,"yT2":0,"toosoon":0,"cond_shown":"randomdotsizeEA","ratio_trial":500,"smaller_num":"4","larger_num":"8","correct_side":1,"subjID":"CristianChaparro5","gender":"0","age":"11","school":"6"},{"start_time":1551882701248,"click_time":1551882702662,"finger_time":1551882702243,"fix_duration":543.7886595550293,"trial":22,"RT":995,"MT":419,"sideResp":2,"stimulus":"img/250/equaldotsize/R/8_Ratio_250_L_1_R_4.png","xmouse":[787,785,785,785,785,784,784,784,784,784,784,784,784,784,784,784,784,784,784,784,784,784,784,784,784,784,784,784,784,784,784,784,784,784,784,784,784,784,785,787,789,790,792,794,796,802,806,811,819,865,891,916,937,959,985,1053,1100,1145,1206,1252,1257,1258,1256,1253,1251,1234,1220,1202,1189,1164,1147],"ymouse":[622,623,623,623,625,625,625,625,625,625,626,626,626,626,626,626,626,626,626,626,626,626,626,626,626,626,626,626,626,626,626,626,626,626,626,626,626,626,626,625,625,625,624,622,621,616,613,606,594,550,528,501,464,424,372,280,227,173,102,41,28,23,18,17,17,16,13,8,4,2,2],"timestamp_mouse":[14,39,54,75,95,114,134,155,174,194,214,234,255,274,294,314,334,355,374,394,413,434,455,475,494,515,534,554,575,593,614,634,653,674,694,714,735,753,775,795,814,834,854,874,894,914,934,954,974,995,1015,1034,1055,1074,1094,1114,1134,1154,1175,1195,1213,1234,1254,1274,1294,1314,1335,1353,1374,1395,1414],"xSR":741.5,"ySR":573.95,"xT1":424.9,"yT1":0,"xT2":1058.1,"yT2":0,"toosoon":0,"cond_shown":"equaldotsize","ratio_trial":250,"smaller_num":"1","larger_num":"4","correct_side":2,"subjID":"CristianChaparro5","gender":"0","age":"11","school":"6"},{"start_time":1551882705241,"click_time":1551882706162,"finger_time":1551882705762,"fix_duration":1057.2225634387898,"trial":23,"RT":521,"MT":400,"sideResp":1,"stimulus":"img/900/randomdotsizeEA/L/1_Ratio_900_L_10_R_9.png","xmouse":[786,786,786,786,786,786,786,786,786,786,786,786,786,786,786,786,786,786,786,786,786,786,786,786,786,786,779,778,777,776,773,769,765,759,752,743,728,718,706,694,676,615,593,569,537,505,465],"ymouse":[598,598,598,598,598,599,601,602,604,605,606,606,606,607,607,607,607,607,607,607,607,605,598,592,586,580,563,556,549,543,534,510,498,483,465,443,395,371,342,315,284,200,178,156,134,116,97],"timestamp_mouse":[10,32,41,62,81,102,121,142,161,180,201,221,241,261,282,301,322,342,361,381,402,422,441,461,481,501,521,542,561,581,601,621,641,662,681,701,721,742,761,782,801,821,841,862,881,901,921],"xSR":741.5,"ySR":573.95,"xT1":424.9,"yT1":0,"xT2":1058.1,"yT2":0,"toosoon":0,"cond_shown":"randomdotsizeEA","ratio_trial":900,"smaller_num":"9","larger_num":"10","correct_side":1,"subjID":"CristianChaparro5","gender":"0","age":"11","school":"6"},{"start_time":1551882710513,"click_time":1551882712202,"finger_time":1551882711182,"fix_duration":508.1907670248915,"trial":24,"RT":669,"MT":1020,"sideResp":1,"stimulus":"img/750/randomdotsizeEA/L/1_Ratio_750_L_20_R_15.png","xmouse":[781,781,781,781,781,781,781,781,781,781,781,781,781,781,781,781,781,781,781,781,781,781,781,781,781,781,779,777,775,775,775,775,774,771,766,757,749,739,738,738,738,738,737,737,734,730,708,686,651,609,567,523,517,516,515,512,510,474,429,398,384,382,382,381,380,379,378,379,382,389,398,408,429,436,440,442,442,442,442,443,443,443,450,455,459],"ymouse":[664,664,664,664,664,664,664,664,664,664,664,664,664,664,664,664,664,664,664,664,664,664,664,664,663,661,648,631,620,611,602,595,580,570,557,542,528,511,510,510,510,510,509,505,499,486,408,337,261,177,97,0,0,0,0,0,0,0,0,0,0,0,0,0,2,8,19,41,51,63,74,85,102,107,108,109,109,109,109,109,109,109,106,102,99],"timestamp_mouse":[9,34,50,69,88,109,130,150,169,188,210,230,248,269,289,310,330,348,370,389,409,429,449,470,488,509,529,549,569,589,609,629,649,669,689,710,729,749,769,789,809,830,849,870,888,909,930,948,969,988,1010,1030,1049,1069,1089,1110,1130,1149,1169,1189,1208,1229,1250,1269,1289,1309,1329,1349,1369,1390,1409,1429,1449,1470,1490,1510,1529,1549,1569,1589,1609,1629,1649,1669,1689],"xSR":741.5,"ySR":573.95,"xT1":424.9,"yT1":0,"xT2":1058.1,"yT2":0,"toosoon":0,"cond_shown":"randomdotsizeEA","ratio_trial":750,"smaller_num":"15","larger_num":"20","correct_side":1,"subjID":"CristianChaparro5","gender":"0","age":"11","school":"6"},{"start_time":1551882716277,"click_time":1551882717443,"finger_time":1551882717022,"fix_duration":1374.70927533443,"trial":25,"RT":745,"MT":421,"sideResp":2,"stimulus":"img/750/equaldotanddens/R/5_Ratio_750_L_15_R_20.png","xmouse":[778,778,778,778,778,778,778,778,778,778,778,778,778,778,778,778,778,778,778,778,778,778,778,778,777,778,780,780,780,780,780,780,780,781,782,785,792,805,818,812,831,877,921,945,971,983,991,999,1032,1048,1060,1069,1075,1077,1078,1079,1080,1082,1095],"ymouse":[637,637,637,637,637,637,637,637,637,637,637,637,637,637,637,637,637,637,637,637,637,637,637,638,652,660,664,664,664,664,664,664,664,663,648,626,594,551,492,321,250,177,95,36,0,0,0,0,0,0,0,0,0,0,0,0,0,0,15],"timestamp_mouse":[8,25,46,65,85,105,125,145,165,185,204,225,245,265,286,304,326,346,366,385,405,426,445,465,485,505,525,544,565,585,605,626,645,666,685,706,726,745,766,785,805,826,845,865,885,906,925,946,965,985,1005,1025,1045,1066,1085,1106,1125,1145,1166],"xSR":741.5,"ySR":573.95,"xT1":424.9,"yT1":0,"xT2":1058.1,"yT2":0,"toosoon":0,"cond_shown":"equaldotanddens","ratio_trial":750,"smaller_num":"15","larger_num":"20","correct_side":2,"subjID":"CristianChaparro5","gender":"0","age":"11","school":"6"},{"start_time":1551882720014,"click_time":1551882721762,"finger_time":1551882720643,"fix_duration":1470.8473985456978,"trial":26,"RT":629,"MT":1119,"sideResp":2,"stimulus":"img/500/equaldotanddens/R/15_Ratio_500_L_1_R_2.png","xmouse":[824,824,824,824,824,824,824,824,824,824,824,824,824,824,824,824,824,824,824,824,824,824,824,824,824,824,824,824,824,826,830,842,850,857,864,871,878,893,901,906,913,928,933,934,935,935,935,935,938,946,960,981,1015,1029,1038,1042,1045,1049,1050,1050,1050,1050,1050,1050,1050,1050,1050,1050,1050,1049,1049,1048,1047,1046,1046,1046,1046,1046,1046,1047,1047,1047,1049,1052,1054,1055,1058,1060],"ymouse":[624,624,624,624,624,624,624,624,624,624,624,624,624,624,624,624,624,624,624,624,624,624,624,624,624,624,624,624,619,615,605,560,535,509,485,456,430,380,352,330,311,286,280,277,277,276,276,276,274,265,256,238,209,195,183,177,172,159,152,147,140,134,123,118,113,109,108,108,105,101,97,92,87,84,82,80,78,73,71,69,69,69,67,66,65,64,64,63],"timestamp_mouse":[8,27,57,69,89,109,129,149,169,188,208,228,248,268,288,308,329,348,368,389,408,429,448,469,488,509,529,548,569,588,608,629,648,668,688,708,728,748,769,787,809,828,848,868,889,909,928,948,968,988,1008,1028,1048,1068,1089,1109,1127,1148,1169,1188,1208,1227,1248,1268,1288,1309,1329,1348,1368,1388,1407,1428,1447,1468,1489,1509,1528,1548,1569,1588,1608,1628,1648,1668,1688,1708,1728,1748],"xSR":741.5,"ySR":573.95,"xT1":424.9,"yT1":0,"xT2":1058.1,"yT2":0,"toosoon":0,"cond_shown":"equaldotanddens","ratio_trial":500,"smaller_num":"1","larger_num":"2","correct_side":2,"subjID":"CristianChaparro5","gender":"0","age":"11","school":"6"},{"start_time":1551882723114,"click_time":1551882723943,"finger_time":1551882723743,"fix_duration":250,"trial":27,"RT":629,"MT":200,"sideResp":2,"stimulus":"img/250/equaldotanddens/R/4_Ratio_250_L_3_R_12.png","xmouse":[774,774,774,774,774,774,774,774,774,774,774,774,774,774,774,774,775,775,776,776,778,780,780,781,782,783,787,789,791,793,797,807,814,826,847,881,976,1011,1047,1079,1099,1112],"ymouse":[643,643,643,643,643,643,643,643,643,643,643,643,643,643,642,642,641,640,640,638,636,631,630,628,627,625,615,609,606,599,593,568,550,527,494,457,343,282,215,159,125,98],"timestamp_mouse":[8,27,47,69,89,109,131,148,168,188,209,243,248,268,288,308,328,349,368,388,408,429,448,469,489,508,528,548,568,588,608,629,647,669,688,708,728,747,768,789,807,829],"xSR":741.5,"ySR":573.95,"xT1":424.9,"yT1":0,"xT2":1058.1,"yT2":0,"toosoon":0,"cond_shown":"equaldotanddens","ratio_trial":250,"smaller_num":"3","larger_num":"12","correct_side":2,"subjID":"CristianChaparro5","gender":"0","age":"11","school":"6"},{"start_time":1551882725174,"click_time":1551882726262,"finger_time":1551882725962,"fix_duration":390.52635874108245,"trial":28,"RT":788,"MT":300,"sideResp":1,"stimulus":"img/750/randomdotsizeEA/L/13_Ratio_750_L_8_R_6.png","xmouse":[830,830,830,830,830,830,830,830,830,830,830,830,830,830,830,830,830,830,829,829,829,829,830,831,832,832,832,832,832,832,832,832,832,832,832,832,831,830,828,821,814,806,801,735,692,653,613,590,581,580,579,579,564,557,500],"ymouse":[624,624,624,624,624,624,624,624,624,624,624,624,624,624,624,624,624,624,624,623,620,616,613,608,605,605,605,605,605,605,605,605,604,603,600,597,592,590,586,573,557,539,520,370,295,223,166,135,123,119,118,117,102,95,38],"timestamp_mouse":[10,30,49,68,88,109,128,147,169,188,207,229,249,268,288,309,328,347,369,388,409,428,448,468,488,508,528,548,568,588,609,628,649,668,688,708,728,748,768,788,808,828,849,868,888,908,928,947,968,989,1008,1029,1048,1068,1088],"xSR":741.5,"ySR":573.95,"xT1":424.9,"yT1":0,"xT2":1058.1,"yT2":0,"toosoon":0,"cond_shown":"randomdotsizeEA","ratio_trial":750,"smaller_num":"6","larger_num":"8","correct_side":1,"subjID":"CristianChaparro5","gender":"0","age":"11","school":"6"},{"start_time":1551882728527,"click_time":1551882729543,"finger_time":1551882729141,"fix_duration":1344.4243106931328,"trial":29,"RT":614,"MT":402,"sideResp":1,"stimulus":"img/500/equaldotsize/L/7_Ratio_500_L_10_R_5.png","xmouse":[788,791,792,792,792,792,792,792,792,792,792,792,792,792,792,792,792,792,792,792,792,792,792,792,792,792,792,792,792,780,710,453,355,306,286,281,289,294,298,305,333,343,350,353,354,355,357,366,388,409,437],"ymouse":[626,625,624,624,624,624,624,624,624,624,624,624,624,624,624,624,624,624,624,624,624,624,624,624,624,624,624,619,611,596,556,370,278,208,157,130,102,96,93,88,74,68,63,59,57,56,56,55,52,46,33],"timestamp_mouse":[23,45,56,75,96,115,134,155,174,196,216,234,256,275,296,316,336,355,375,395,414,436,454,476,494,515,535,555,576,595,614,634,655,675,695,715,735,755,775,795,815,835,855,875,895,916,935,955,975,994,1016],"xSR":741.5,"ySR":573.95,"xT1":424.9,"yT1":0,"xT2":1058.1,"yT2":0,"toosoon":0,"cond_shown":"equaldotsize","ratio_trial":500,"smaller_num":"5","larger_num":"10","correct_side":1,"subjID":"CristianChaparro5","gender":"0","age":"11","school":"6"},{"start_time":1551882730754,"click_time":1551882731622,"finger_time":1551882731221,"fix_duration":250,"trial":30,"RT":467,"MT":401,"sideResp":2,"stimulus":"img/250/equaldotanddens/R/11_Ratio_250_L_3_R_12.png","xmouse":[826,826,826,826,826,826,826,826,826,826,826,826,826,828,829,829,829,829,829,829,829,832,837,847,895,918,941,955,961,970,972,976,981,986,993,998,1000,1001,1002,1005,1009,1018,1037,1060],"ymouse":[590,590,590,590,590,590,590,590,590,590,590,590,590,590,590,590,590,590,590,590,590,588,575,553,438,381,325,279,242,186,173,165,157,150,141,136,131,129,127,124,119,113,104,92],"timestamp_mouse":[7,33,48,67,88,108,128,148,168,188,208,229,248,268,288,309,329,349,368,388,408,428,448,467,489,508,528,549,568,588,607,629,648,668,688,707,728,748,768,788,808,828,847,868],"xSR":741.5,"ySR":573.95,"xT1":424.9,"yT1":0,"xT2":1058.1,"yT2":0,"toosoon":0,"cond_shown":"equaldotanddens","ratio_trial":250,"smaller_num":"3","larger_num":"12","correct_side":2,"subjID":"CristianChaparro5","gender":"0","age":"11","school":"6"},{"start_time":1551882733970,"click_time":1551882734982,"finger_time":1551882734463,"fix_duration":1027.9981438577884,"trial":31,"RT":493,"MT":519,"sideResp":2,"stimulus":"img/750/equaldotsize/R/4_Ratio_750_L_15_R_20.png","xmouse":[809,809,809,809,809,809,809,809,809,809,809,809,809,809,809,809,809,809,809,809,809,809,812,819,857,879,902,923,944,972,982,994,999,1006,1018,1026,1035,1042,1049,1052,1054,1055,1058,1061,1061,1061,1061,1061,1061,1061,1061],"ymouse":[640,640,640,640,640,640,640,640,640,640,640,640,640,640,640,640,640,640,640,640,640,640,635,624,555,508,452,401,343,237,199,153,115,78,6,0,0,0,0,0,0,0,0,0,0,0,0,0,0,0,1],"timestamp_mouse":[11,36,51,72,91,113,133,151,172,191,213,232,252,272,293,313,333,352,372,393,412,432,453,472,493,512,533,552,572,592,613,632,653,672,693,712,732,753,773,792,811,833,852,873,892,912,932,951,973,993,1012],"xSR":741.5,"ySR":573.95,"xT1":424.9,"yT1":0,"xT2":1058.1,"yT2":0,"toosoon":0,"cond_shown":"equaldotsize","ratio_trial":750,"smaller_num":"15","larger_num":"20","correct_side":2,"subjID":"CristianChaparro5","gender":"0","age":"11","school":"6"},{"start_time":1551882736304,"click_time":1551882737962,"finger_time":1551882737103,"fix_duration":480.49360100072425,"trial":32,"RT":799,"MT":859,"sideResp":2,"stimulus":"img/900/equaldotanddens/L/1_Ratio_900_L_10_R_9.png","xmouse":[787,787,787,787,787,787,787,787,787,787,787,787,787,787,787,787,787,787,789,790,791,792,792,793,793,794,795,795,795,796,796,796,796,796,796,798,798,798,798,795,790,786,770,763,753,741,731,708,696,683,669,645,634,627,623,621,621,621,621,621,622,636,686,727,784,834,889,1038,1092,1147,1192,1223,1244,1244,1244,1244,1243,1241,1238,1232,1224,1204,1130],"ymouse":[661,661,661,661,661,661,661,661,661,661,661,661,661,661,661,661,661,661,661,661,660,659,657,655,653,650,649,646,644,642,641,639,637,636,634,627,619,595,580,565,548,533,494,471,446,421,396,342,321,304,289,266,257,251,247,246,245,245,245,245,244,241,235,231,229,228,226,221,213,197,179,164,144,140,136,134,126,122,117,113,109,103,83],"timestamp_mouse":[17,42,58,78,98,118,139,158,178,198,217,238,258,278,298,317,338,359,377,397,418,438,458,479,498,518,538,559,578,599,618,637,658,678,699,719,738,758,778,799,818,839,858,879,898,918,938,958,978,998,1018,1038,1058,1078,1098,1118,1138,1158,1177,1198,1218,1239,1258,1278,1298,1319,1338,1357,1378,1399,1419,1438,1458,1479,1498,1518,1538,1557,1578,1599,1618,1638,1658],"xSR":741.5,"ySR":573.95,"xT1":424.9,"yT1":0,"xT2":1058.1,"yT2":0,"toosoon":0,"cond_shown":"equaldotanddens","ratio_trial":900,"smaller_num":"9","larger_num":"10","correct_side":1,"subjID":"CristianChaparro5","gender":"0","age":"11","school":"6"},{"start_time":1551882741113,"click_time":1551882745022,"finger_time":1551882742642,"fix_duration":848.9833515545998,"trial":33,"RT":1529,"MT":2380,"sideResp":2,"stimulus":"img/750/equaldotsize/L/8_Ratio_750_L_4_R_3.png","xmouse":[804,804,804,804,804,804,804,804,804,804,804,804,804,804,804,804,804,804,804,804,804,804,804,804,804,804,804,804,804,804,804,804,804,804,804,804,804,804,804,804,804,804,804,804,804,804,804,804,804,804,804,804,804,804,804,804,804,804,804,804,804,804,804,804,804,804,804,804,804,804,804,804,804,807,812,813,813,812,812,811,809,789,780,775,774,774,774,774,774,774,774,774,774,774,774,774,773,771,771,771,774,803,815,823,825,825,825,825,824,823,822,822,821,819,819,819,819,818,818,817,816,816,816,816,816,816,816,816,816,813,810,804,800,800,799,799,800,802,802,802,802,802,802,802,802,802,802,802,802,802,802,802,802,802,799,797,793,792,792,792,792,792,792,791,791,790,790,790,790,790,790,790,790,789,789,791,815,833,845,864,886,918,927,935,943,955,964,996,1012,1031,1045,1063,1066,1067,1069,1077],"ymouse":[639,639,639,639,639,639,639,639,639,639,639,639,639,639,639,639,639,639,639,639,639,639,639,639,639,639,639,639,639,639,639,639,639,639,639,639,639,639,639,639,639,639,639,639,639,639,639,639,639,639,639,639,639,639,639,639,639,639,639,639,639,639,639,639,639,639,639,639,639,639,639,639,639,626,605,585,571,564,564,563,563,578,586,592,595,595,595,595,595,596,596,596,596,596,596,596,615,627,629,630,630,606,596,588,586,585,585,593,603,606,607,608,609,610,611,611,611,612,612,615,616,618,619,619,619,619,619,619,619,622,626,633,639,639,640,640,632,620,620,620,620,620,620,620,620,620,620,620,620,620,620,620,620,620,619,619,619,619,619,619,619,619,618,616,615,614,614,614,614,614,614,614,607,580,537,471,300,179,118,75,46,25,20,15,10,3,0,0,0,0,0,0,0,0,0,2],"timestamp_mouse":[10,39,49,68,89,109,128,148,169,190,210,229,249,269,290,308,330,350,369,389,409,429,450,468,489,509,529,549,570,589,610,629,649,668,689,709,730,749,768,789,810,828,849,870,888,910,929,948,970,990,1008,1030,1050,1069,1089,1110,1128,1149,1169,1189,1210,1228,1248,1270,1289,1310,1328,1349,1368,1389,1408,1428,1449,1469,1489,1510,1529,1549,1570,1588,1609,1629,1649,1669,1690,1709,1728,1749,1769,1789,1809,1829,1849,1868,1889,1909,1930,1949,1969,1989,2009,2029,2049,2070,2089,2109,2129,2149,2169,2190,2209,2229,2249,2269,2290,2310,2329,2349,2369,2390,2409,2429,2449,2469,2489,2510,2529,2549,2569,2589,2609,2630,2649,2669,2690,2709,2729,2749,2769,2790,2810,2830,2849,2869,2889,2909,2930,2949,2969,2989,3009,3029,3049,3069,3089,3109,3129,3150,3169,3189,3209,3229,3249,3269,3289,3310,3329,3350,3370,3389,3410,3430,3449,3469,3490,3509,3529,3549,3569,3589,3609,3630,3649,3669,3689,3709,3729,3749,3769,3789,3809,3831,3849,3870,3889,3909],"xSR":741.5,"ySR":573.95,"xT1":424.9,"yT1":0,"xT2":1058.1,"yT2":0,"toosoon":0,"cond_shown":"equaldotsize","ratio_trial":750,"smaller_num":"3","larger_num":"4","correct_side":1,"subjID":"CristianChaparro5","gender":"0","age":"11","school":"6"},{"start_time":1551882746314,"click_time":1551882747102,"finger_time":1551882746843,"fix_duration":250,"trial":34,"RT":529,"MT":259,"sideResp":1,"stimulus":"img/250/randomdotsizeEA/L/14_Ratio_250_L_12_R_3.png","xmouse":[820,820,820,820,820,820,820,820,820,820,820,820,820,820,820,820,820,820,820,820,819,816,814,811,808,806,800,796,793,788,779,762,742,716,692,670,649,586,551,524],"ymouse":[653,653,653,653,653,653,653,653,653,653,653,653,653,653,653,653,653,649,647,645,642,632,625,616,605,593,545,521,498,470,439,382,342,300,257,218,183,110,89,75],"timestamp_mouse":[8,37,48,68,88,108,128,148,168,188,208,229,248,268,289,309,328,348,368,389,409,429,448,468,489,508,529,548,568,588,608,629,648,669,688,709,728,749,768,788],"xSR":741.5,"ySR":573.95,"xT1":424.9,"yT1":0,"xT2":1058.1,"yT2":0,"toosoon":0,"cond_shown":"randomdotsizeEA","ratio_trial":250,"smaller_num":"3","larger_num":"12","correct_side":1,"subjID":"CristianChaparro5","gender":"0","age":"11","school":"6"},{"start_time":1551882749069,"click_time":1551882752643,"finger_time":1551882752123,"fix_duration":925.7310151582653,"trial":35,"RT":3054,"MT":520,"sideResp":2,"stimulus":"img/900/equaldotsize/R/14_Ratio_900_L_18_R_20.png","xmouse":[779,779,779,779,779,779,779,779,779,779,779,779,779,779,779,779,779,779,779,779,779,779,779,779,779,779,779,779,779,779,779,779,779,779,779,779,779,779,779,779,779,779,779,779,779,779,779,779,779,779,779,779,779,779,779,779,779,779,779,779,779,779,779,779,779,779,779,779,779,779,779,779,779,779,779,779,779,779,779,779,779,779,779,779,779,779,779,779,779,779,779,779,779,779,779,779,779,779,779,779,779,779,779,779,779,779,779,779,779,791,800,808,815,821,821,821,821,821,821,821,821,821,821,821,821,821,821,821,821,821,821,821,821,821,821,821,819,818,816,816,815,814,813,812,812,812,812,812,812,812,812,812,814,831,851,874,896,927,974,1021,1041,1061,1084,1120,1223,1262,1293,1312,1331,1331,1331,1331,1331,1331,1331,1319,1284,1214,1138],"ymouse":[635,635,635,635,635,635,635,635,635,635,635,635,635,635,635,635,635,635,635,635,635,635,635,635,635,635,635,635,635,635,635,635,635,635,635,635,635,635,635,635,635,635,635,635,635,635,635,635,635,635,635,635,635,635,635,635,635,635,635,635,635,635,635,635,635,635,635,635,635,635,635,635,635,635,635,635,635,635,635,635,635,635,635,635,635,635,635,635,635,635,635,635,635,635,635,635,635,635,635,635,635,635,635,635,635,635,635,635,636,641,641,640,635,631,631,631,631,631,631,631,631,631,631,631,631,631,631,631,631,631,631,631,631,631,631,631,631,631,632,632,632,629,625,622,622,622,622,622,622,613,595,575,556,501,457,398,349,301,235,179,157,139,127,115,96,94,94,92,80,79,79,79,79,79,79,79,79,73,61],"timestamp_mouse":[17,39,54,74,94,113,134,154,173,193,213,233,254,274,294,313,333,354,373,393,414,433,453,474,493,515,534,553,573,593,613,633,653,673,693,714,733,753,773,793,813,834,853,873,893,913,933,953,974,993,1013,1033,1053,1074,1094,1114,1133,1154,1173,1193,1213,1234,1254,1274,1293,1313,1333,1353,1373,1393,1413,1433,1453,1473,1494,1514,1534,1553,1574,1593,1614,1633,1653,1674,1693,1713,1733,1753,1774,1794,1813,1833,1854,1873,1893,1914,1933,1954,1973,1993,2013,2034,2053,2073,2093,2113,2134,2153,2173,2193,2213,2233,2254,2274,2294,2313,2335,2353,2373,2394,2413,2433,2453,2473,2493,2513,2533,2554,2574,2593,2614,2634,2653,2674,2693,2713,2733,2753,2773,2793,2813,2833,2854,2873,2893,2913,2933,2953,2973,2993,3013,3034,3054,3074,3093,3113,3133,3153,3173,3194,3213,3234,3253,3273,3293,3313,3333,3353,3374,3393,3413,3435,3453,3473,3493,3514,3534,3553,3574],"xSR":741.5,"ySR":573.95,"xT1":424.9,"yT1":0,"xT2":1058.1,"yT2":0,"toosoon":0,"cond_shown":"equaldotsize","ratio_trial":900,"smaller_num":"18","larger_num":"20","correct_side":2,"subjID":"CristianChaparro5","gender":"0","age":"11","school":"6"},{"start_time":1551882756129,"click_time":1551882756864,"finger_time":1551882756562,"fix_duration":485.7100590217517,"trial":36,"RT":433,"MT":302,"sideResp":1,"stimulus":"img/750/equaldotsize/L/10_Ratio_750_L_4_R_3.png","xmouse":[755,755,755,755,755,755,755,755,755,755,755,755,755,755,755,755,755,755,755,757,754,740,728,718,718,718,718,718,718,717,676,635,593,562,542,527,516],"ymouse":[606,606,606,606,606,606,606,606,606,606,606,606,606,606,606,606,606,606,606,604,592,577,554,528,503,484,450,433,410,381,280,212,148,99,65,45,31],"timestamp_mouse":[14,39,53,73,93,113,134,154,174,193,213,233,253,274,293,313,333,353,374,393,414,433,453,473,493,513,533,553,573,593,614,633,653,673,693,713,734],"xSR":741.5,"ySR":573.95,"xT1":424.9,"yT1":0,"xT2":1058.1,"yT2":0,"toosoon":0,"cond_shown":"equaldotsize","ratio_trial":750,"smaller_num":"3","larger_num":"4","correct_side":1,"subjID":"CristianChaparro5","gender":"0","age":"11","school":"6"},{"start_time":1551882760253,"click_time":1551882762002,"finger_time":1551882761042,"fix_duration":767.7425576154967,"trial":37,"RT":789,"MT":960,"sideResp":2,"stimulus":"img/500/equaldotsize/R/14_Ratio_500_L_5_R_10.png","xmouse":[794,794,794,794,794,794,794,794,794,794,794,794,794,796,799,800,801,802,803,803,803,803,803,803,803,803,803,803,803,803,803,803,803,803,803,804,812,820,831,850,864,864,865,868,868,862,856,854,850,845,844,844,844,844,844,844,844,844,845,854,858,859,859,859,859,859,859,859,861,886,892,894,898,904,943,960,974,981,985,988,993,995,997,1000,1015,1034,1058,1082],"ymouse":[666,666,666,666,666,666,666,666,666,666,666,666,666,663,660,659,659,658,658,658,658,658,658,658,658,658,658,658,658,658,658,658,658,658,658,657,648,634,615,563,501,466,426,394,305,258,214,177,147,113,111,111,111,111,111,103,95,77,54,10,0,0,0,0,0,0,0,0,0,0,0,0,0,0,0,0,0,0,0,0,0,0,0,0,0,0,2,9],"timestamp_mouse":[9,35,49,69,89,109,129,149,169,189,209,229,249,269,289,308,330,349,369,389,409,429,450,469,489,509,530,549,569,589,610,630,649,670,689,709,729,749,769,789,809,829,850,870,889,909,929,949,969,989,1009,1029,1049,1070,1090,1109,1129,1149,1169,1189,1209,1229,1250,1271,1289,1310,1330,1349,1369,1390,1409,1429,1450,1469,1490,1509,1529,1549,1570,1589,1609,1629,1649,1669,1690,1709,1729,1749],"xSR":741.5,"ySR":573.95,"xT1":424.9,"yT1":0,"xT2":1058.1,"yT2":0,"toosoon":0,"cond_shown":"equaldotsize","ratio_trial":500,"smaller_num":"5","larger_num":"10","correct_side":2,"subjID":"CristianChaparro5","gender":"0","age":"11","school":"6"},{"start_time":1551882763956,"click_time":1551882765182,"finger_time":1551882764582,"fix_duration":832.8297087881234,"trial":38,"RT":626,"MT":600,"sideResp":2,"stimulus":"img/750/equaldotanddens/R/4_Ratio_750_L_15_R_20.png","xmouse":[830,830,830,830,830,830,830,830,830,830,830,830,830,830,830,830,830,830,830,830,830,830,830,830,830,830,830,830,830,830,834,844,853,863,866,870,870,870,870,870,871,875,882,890,902,934,951,959,975,977,978,979,982,985,995,997,999,1003,1014,1058,1096,1124],"ymouse":[616,616,616,616,616,616,616,616,616,616,616,616,616,616,616,616,616,616,616,616,616,616,616,616,616,616,616,616,616,616,602,579,553,525,498,455,440,426,412,378,358,334,305,260,217,73,25,10,0,0,0,0,0,0,0,0,0,0,0,0,0,3],"timestamp_mouse":[10,37,46,66,86,106,126,146,166,186,206,227,247,267,286,307,327,347,366,386,406,427,446,466,487,506,527,546,566,587,606,626,646,666,686,706,727,747,767,787,806,826,846,866,886,906,926,947,966,987,1007,1027,1046,1067,1088,1106,1126,1147,1166,1187,1206,1226],"xSR":741.5,"ySR":573.95,"xT1":424.9,"yT1":0,"xT2":1058.1,"yT2":0,"toosoon":0,"cond_shown":"equaldotanddens","ratio_trial":750,"smaller_num":"15","larger_num":"20","correct_side":2,"subjID":"CristianChaparro5","gender":"0","age":"11","school":"6"},{"start_time":1551882766615,"click_time":1551882767522,"finger_time":1551882767143,"fix_duration":250,"trial":39,"RT":528,"MT":379,"sideResp":1,"stimulus":"img/500/equaldotanddens/L/10_Ratio_500_L_4_R_2.png","xmouse":[779,779,779,779,779,779,779,779,779,779,779,780,780,781,781,781,781,781,781,781,781,781,781,781,781,781,781,780,773,762,733,649,472,391,338,324,319,342,359,367,371,372,385,400,423,446],"ymouse":[599,599,599,599,599,599,599,599,599,599,599,604,605,605,606,607,607,607,607,607,607,607,607,607,591,584,573,551,530,498,450,359,188,101,37,15,0,0,0,0,0,0,2,8,18,23],"timestamp_mouse":[7,32,47,68,88,107,127,148,167,188,207,228,248,267,288,307,327,347,367,388,407,427,447,467,487,508,528,547,567,588,607,627,647,667,687,707,728,747,767,787,808,828,847,867,888,907],"xSR":741.5,"ySR":573.95,"xT1":424.9,"yT1":0,"xT2":1058.1,"yT2":0,"toosoon":0,"cond_shown":"equaldotanddens","ratio_trial":500,"smaller_num":"2","larger_num":"4","correct_side":1,"subjID":"CristianChaparro5","gender":"0","age":"11","school":"6"},{"start_time":1551882771354,"click_time":1551882772243,"finger_time":1551882771782,"fix_duration":250,"trial":40,"RT":428,"MT":461,"sideResp":1,"stimulus":"img/250/equaldotsize/L/15_Ratio_250_L_12_R_3.png","xmouse":[813,813,813,813,813,813,813,813,813,813,813,813,813,813,813,815,815,815,815,815,815,808,801,797,791,785,780,772,762,737,720,705,689,672,650,635,616,600,585,570,535,527,522,517,500],"ymouse":[635,635,635,635,635,635,635,635,635,635,635,635,635,635,634,617,611,607,605,599,588,564,541,523,490,458,439,418,397,355,338,320,303,285,265,254,244,236,226,216,190,179,165,146,84],"timestamp_mouse":[8,40,48,68,89,108,128,148,168,188,208,229,248,268,288,308,328,348,368,389,408,428,448,469,488,508,528,548,568,589,608,628,649,668,688,707,728,748,768,789,808,828,848,869,889],"xSR":741.5,"ySR":573.95,"xT1":424.9,"yT1":0,"xT2":1058.1,"yT2":0,"toosoon":0,"cond_shown":"equaldotsize","ratio_trial":250,"smaller_num":"3","larger_num":"12","correct_side":1,"subjID":"CristianChaparro5","gender":"0","age":"11","school":"6"},{"start_time":1551882773370,"click_time":1551882774062,"finger_time":1551882773703,"fix_duration":307.3010799224929,"trial":41,"RT":333,"MT":359,"sideResp":2,"stimulus":"img/900/equaldotsize/L/1_Ratio_900_L_10_R_9.png","xmouse":[777,777,777,777,777,777,777,777,777,777,777,777,778,783,790,795,799,803,820,833,845,857,865,886,897,909,920,934,959,971,983,994,1007,1043,1066],"ymouse":[603,604,605,605,605,605,605,605,605,605,605,605,605,605,593,582,569,551,502,477,449,422,400,351,326,302,280,256,208,187,166,145,124,77,51],"timestamp_mouse":[13,36,52,73,92,113,133,152,173,193,212,232,252,272,292,312,333,352,373,392,412,433,452,473,492,512,532,553,573,591,612,632,653,672,692],"xSR":741.5,"ySR":573.95,"xT1":424.9,"yT1":0,"xT2":1058.1,"yT2":0,"toosoon":0,"cond_shown":"equaldotsize","ratio_trial":900,"smaller_num":"9","larger_num":"10","correct_side":1,"subjID":"CristianChaparro5","gender":"0","age":"11","school":"6"},{"start_time":1551882776313,"click_time":1551882776943,"finger_time":1551882776822,"fix_duration":1247.1456133018542,"trial":42,"RT":509,"MT":121,"sideResp":2,"stimulus":"img/500/equaldotanddens/R/6_Ratio_500_L_9_R_18.png","xmouse":[772,772,772,772,772,772,772,772,772,772,772,772,772,772,772,772,772,775,777,778,778,778,778,780,786,801,870,894,917,954,1006,1107],"ymouse":[635,635,635,635,635,635,635,635,635,635,635,635,635,635,635,635,635,631,628,625,624,624,624,617,592,545,402,355,315,258,189,43],"timestamp_mouse":[9,41,50,70,89,110,130,149,170,189,210,230,249,270,289,310,329,349,369,390,409,429,449,470,489,509,530,550,569,589,610,630],"xSR":741.5,"ySR":573.95,"xT1":424.9,"yT1":0,"xT2":1058.1,"yT2":0,"toosoon":0,"cond_shown":"equaldotanddens","ratio_trial":500,"smaller_num":"9","larger_num":"18","correct_side":2,"subjID":"CristianChaparro5","gender":"0","age":"11","school":"6"},{"start_time":1551882778526,"click_time":1551882779122,"finger_time":1551882778882,"fix_duration":762.7405616398798,"trial":43,"RT":356,"MT":240,"sideResp":1,"stimulus":"img/500/equaldotanddens/L/8_Ratio_500_L_8_R_4.png","xmouse":[769,769,769,769,769,769,769,769,769,769,769,769,769,769,770,771,780,781,778,762,740,685,662,633,594,540,497,482,471,460],"ymouse":[621,621,621,621,621,621,621,621,621,621,621,621,621,621,621,621,587,558,522,468,412,309,271,237,195,155,121,111,103,92],"timestamp_mouse":[16,39,56,76,96,117,137,157,177,197,217,236,256,276,297,316,337,356,376,396,416,436,457,476,497,516,536,556,576,596],"xSR":741.5,"ySR":573.95,"xT1":424.9,"yT1":0,"xT2":1058.1,"yT2":0,"toosoon":0,"cond_shown":"equaldotanddens","ratio_trial":500,"smaller_num":"4","larger_num":"8","correct_side":1,"subjID":"CristianChaparro5","gender":"0","age":"11","school":"6"},{"start_time":1551882781669,"click_time":1551882782542,"finger_time":1551882782362,"fix_duration":406.37653973264145,"trial":44,"RT":693,"MT":180,"sideResp":2,"stimulus":"img/250/randomdotsizeEA/R/8_Ratio_250_L_1_R_4.png","xmouse":[780,780,780,780,780,780,780,780,780,780,780,780,780,780,780,780,780,780,780,780,780,780,780,780,780,780,780,780,780,780,780,780,781,785,802,818,829,836,856,889,925,979,1044,1093],"ymouse":[633,633,633,633,633,633,633,633,633,633,633,633,633,633,633,633,633,633,633,633,633,633,633,633,633,633,633,633,633,633,633,632,626,610,565,529,491,447,364,292,235,175,118,74],"timestamp_mouse":[13,35,53,73,94,113,133,153,173,193,213,233,253,274,293,314,333,354,373,393,414,433,454,473,493,513,534,554,573,593,613,633,653,674,693,713,733,754,773,793,813,833,854,873],"xSR":741.5,"ySR":573.95,"xT1":424.9,"yT1":0,"xT2":1058.1,"yT2":0,"toosoon":0,"cond_shown":"randomdotsizeEA","ratio_trial":250,"smaller_num":"1","larger_num":"4","correct_side":2,"subjID":"CristianChaparro5","gender":"0","age":"11","school":"6"},{"start_time":1551882784859,"click_time":1551882785562,"finger_time":1551882785362,"fix_duration":1314.664938336445,"trial":45,"RT":503,"MT":200,"sideResp":2,"stimulus":"img/750/equaldotanddens/R/3_Ratio_750_L_15_R_20.png","xmouse":[794,794,794,794,794,794,794,794,794,794,794,794,794,794,794,794,794,794,794,794,794,794,794,793,789,789,789,796,802,829,853,888,929,970,1009,1097],"ymouse":[634,634,634,634,634,634,634,634,634,634,634,634,634,634,634,634,634,634,634,634,625,614,603,593,578,571,560,539,515,431,379,318,263,217,171,81],"timestamp_mouse":[8,24,43,64,84,104,123,143,163,184,203,223,243,263,283,303,323,343,363,383,404,423,443,464,484,503,523,543,564,584,603,623,643,663,683,703],"xSR":741.5,"ySR":573.95,"xT1":424.9,"yT1":0,"xT2":1058.1,"yT2":0,"toosoon":0,"cond_shown":"equaldotanddens","ratio_trial":750,"smaller_num":"15","larger_num":"20","correct_side":2,"subjID":"CristianChaparro5","gender":"0","age":"11","school":"6"},{"start_time":1551882787641,"click_time":1551882788262,"finger_time":1551882788082,"fix_duration":1036.4803228602175,"trial":46,"RT":441,"MT":180,"sideResp":1,"stimulus":"img/500/equaldotsize/L/13_Ratio_500_L_12_R_6.png","xmouse":[784,784,784,784,785,785,785,785,786,786,786,787,787,788,788,789,789,789,790,792,794,794,794,788,774,729,707,685,651,609,535,484],"ymouse":[652,652,652,652,652,652,652,652,652,652,652,652,652,651,651,650,650,650,649,647,623,602,573,531,474,350,296,247,193,143,81,43],"timestamp_mouse":[7,31,41,61,81,101,121,141,162,181,201,221,242,263,282,302,321,342,361,381,402,422,441,462,481,502,521,541,562,581,601,621],"xSR":741.5,"ySR":573.95,"xT1":424.9,"yT1":0,"xT2":1058.1,"yT2":0,"toosoon":0,"cond_shown":"equaldotsize","ratio_trial":500,"smaller_num":"6","larger_num":"12","correct_side":1,"subjID":"CristianChaparro5","gender":"0","age":"11","school":"6"},{"start_time":1551882792440,"click_time":1551882793083,"finger_time":1551882792942,"fix_duration":1075.8499061324094,"trial":47,"RT":502,"MT":141,"sideResp":2,"stimulus":"img/750/randomdotsizeEA/R/11_Ratio_750_L_12_R_16.png","xmouse":[801,801,801,801,801,801,801,801,801,801,801,801,801,801,801,801,801,801,801,801,801,801,802,808,817,825,842,851,867,895,1013,1067,1117],"ymouse":[591,591,591,591,591,591,591,591,591,591,591,591,591,591,591,591,591,591,591,591,591,591,591,589,580,573,550,531,505,461,273,179,79],"timestamp_mouse":[7,33,42,62,83,102,122,142,162,183,203,222,242,262,283,302,322,342,362,382,402,423,442,463,483,502,522,542,562,584,603,622,643],"xSR":741.5,"ySR":573.95,"xT1":424.9,"yT1":0,"xT2":1058.1,"yT2":0,"toosoon":0,"cond_shown":"randomdotsizeEA","ratio_trial":750,"smaller_num":"12","larger_num":"16","correct_side":2,"subjID":"CristianChaparro5","gender":"0","age":"11","school":"6"},{"start_time":1551882794331,"click_time":1551882795944,"finger_time":1551882794922,"fix_duration":487.5594624995142,"trial":48,"RT":591,"MT":1022,"sideResp":2,"stimulus":"img/900/equaldotsize/L/8_Ratio_900_L_20_R_18.png","xmouse":[819,819,819,819,819,820,820,820,820,821,821,821,821,821,821,821,821,821,821,821,821,821,821,821,821,821,820,817,813,801,789,766,756,745,726,682,643,585,528,480,454,447,447,447,449,461,485,503,527,567,605,642,645,645,645,645,645,645,645,647,662,794,914,1030,1126,1205,1287,1326,1356,1370,1379,1386,1389,1393,1397,1397,1353,1288,1207,1142,1082],"ymouse":[651,651,651,652,653,655,657,657,657,658,658,658,658,658,658,658,658,658,658,658,658,658,658,658,658,655,642,623,596,565,541,503,486,467,439,403,383,352,327,300,285,279,279,279,276,272,268,266,266,266,266,266,266,266,266,266,266,266,266,266,259,225,203,185,168,136,92,69,53,41,34,25,19,12,3,0,0,0,0,0,7],"timestamp_mouse":[11,31,51,71,91,112,131,151,172,191,211,232,251,271,291,311,331,352,372,391,411,432,451,471,491,511,532,551,572,591,611,631,652,671,692,712,731,751,772,791,811,831,851,872,891,911,931,951,972,992,1012,1031,1052,1071,1092,1112,1132,1152,1171,1192,1212,1231,1251,1272,1293,1311,1331,1351,1371,1392,1411,1431,1452,1471,1492,1511,1531,1551,1571,1592,1613],"xSR":741.5,"ySR":573.95,"xT1":424.9,"yT1":0,"xT2":1058.1,"yT2":0,"toosoon":0,"cond_shown":"equaldotsize","ratio_trial":900,"smaller_num":"18","larger_num":"20","correct_side":1,"subjID":"CristianChaparro5","gender":"0","age":"11","school":"6"},{"start_time":1551882798329,"click_time":1551882799862,"finger_time":1551882799082,"fix_duration":1466.2274335860102,"trial":49,"RT":753,"MT":780,"sideResp":1,"stimulus":"img/500/randomdotsizeEA/L/4_Ratio_500_L_18_R_9.png","xmouse":[825,825,825,825,825,825,825,825,825,825,825,825,825,825,825,825,825,825,825,825,825,825,825,825,825,825,825,825,825,825,825,825,825,825,824,822,810,802,788,773,768,767,767,767,763,745,739,734,729,723,680,638,597,562,540,532,525,521,511,489,410,375,363,361,367,373,380,380,380,380,380,383,389,401,410,419,429],"ymouse":[642,642,642,642,642,642,642,642,642,642,642,642,642,642,642,642,642,642,642,642,642,642,642,642,642,642,642,642,642,642,642,642,642,642,637,630,581,553,514,481,464,450,440,431,417,371,355,344,333,324,296,270,243,222,209,203,196,187,176,156,94,57,32,18,5,1,0,0,0,0,0,12,26,42,53,63,66],"timestamp_mouse":[14,35,53,74,93,113,133,153,173,193,213,233,253,273,294,313,334,354,374,394,413,433,454,475,493,514,533,554,573,593,614,633,653,673,693,713,733,753,774,794,813,833,853,873,893,914,933,953,974,994,1014,1033,1053,1073,1093,1113,1133,1153,1174,1193,1214,1233,1253,1273,1293,1313,1333,1353,1373,1394,1413,1433,1453,1473,1493,1513,1533],"xSR":741.5,"ySR":573.95,"xT1":424.9,"yT1":0,"xT2":1058.1,"yT2":0,"toosoon":0,"cond_shown":"randomdotsizeEA","ratio_trial":500,"smaller_num":"9","larger_num":"18","correct_side":1,"subjID":"CristianChaparro5","gender":"0","age":"11","school":"6"},{"start_time":1551882802495,"click_time":1551882803962,"finger_time":1551882803602,"fix_duration":250,"trial":50,"RT":1107,"MT":360,"sideResp":2,"stimulus":"img/900/randomdotsizeEA/R/12_Ratio_900_L_18_R_20.png","xmouse":[750,750,750,750,750,750,750,750,750,750,750,750,750,750,750,750,750,750,767,781,794,806,810,813,814,814,814,814,814,814,814,814,814,814,814,814,814,814,814,814,814,814,814,814,814,814,814,814,814,814,814,814,814,814,819,835,891,1001,1173,1202,1262,1283,1300,1322,1327,1331,1333,1334,1334,1334,1333,1317,1217,1157],"ymouse":[621,621,621,621,621,621,621,621,621,621,621,621,621,621,621,621,621,621,614,609,604,598,596,594,594,594,594,594,594,594,594,594,594,594,593,593,593,593,593,593,593,593,593,593,593,593,593,593,593,593,593,593,593,593,584,558,466,307,73,22,0,0,0,0,0,0,0,0,0,0,0,3,21,31],"timestamp_mouse":[10,32,47,67,87,107,127,148,167,187,207,227,247,268,287,308,327,347,368,387,408,428,447,468,488,507,527,547,567,587,607,627,647,667,687,708,727,747,767,787,808,828,847,867,887,907,927,947,967,987,1007,1027,1047,1067,1087,1107,1127,1148,1167,1187,1207,1227,1247,1267,1287,1307,1327,1347,1368,1387,1407,1428,1448,1467],"xSR":741.5,"ySR":573.95,"xT1":424.9,"yT1":0,"xT2":1058.1,"yT2":0,"toosoon":0,"cond_shown":"randomdotsizeEA","ratio_trial":900,"smaller_num":"18","larger_num":"20","correct_side":2,"subjID":"CristianChaparro5","gender":"0","age":"11","school":"6"},{"start_time":1551882806061,"click_time":1551882807244,"finger_time":1551882806822,"fix_duration":1158.571770573367,"trial":51,"RT":761,"MT":422,"sideResp":2,"stimulus":"img/900/randomdotsizeEA/L/10_Ratio_900_L_20_R_18.png","xmouse":[825,825,825,826,827,827,827,827,827,827,827,827,827,827,827,827,827,827,827,827,827,827,827,827,827,827,827,827,827,827,827,827,827,827,827,827,827,827,827,831,837,843,858,881,913,968,991,1019,1043,1063,1101,1113,1121,1128,1135,1139,1140,1140,1140,1140],"ymouse":[648,647,647,646,645,645,645,645,645,645,645,645,642,640,639,639,639,639,639,639,639,639,639,639,639,639,639,639,639,639,639,639,637,632,623,604,593,580,571,541,520,495,460,404,326,170,113,63,21,0,0,0,0,0,0,0,0,0,0,9],"timestamp_mouse":[1,36,42,61,81,101,121,141,161,181,201,222,241,262,282,301,322,341,361,381,401,421,442,462,481,501,522,541,561,582,601,621,642,662,681,701,722,742,761,782,801,821,841,862,881,901,921,942,961,982,1002,1021,1041,1061,1081,1101,1121,1141,1161,1183],"xSR":741.5,"ySR":573.95,"xT1":424.9,"yT1":0,"xT2":1058.1,"yT2":0,"toosoon":0,"cond_shown":"randomdotsizeEA","ratio_trial":900,"smaller_num":"18","larger_num":"20","correct_side":1,"subjID":"CristianChaparro5","gender":"0","age":"11","school":"6"},{"start_time":1551882808213,"click_time":1551882809302,"finger_time":1551882808582,"fix_duration":250,"trial":52,"RT":369,"MT":720,"sideResp":2,"stimulus":"img/750/randomdotsizeEA/R/7_Ratio_750_L_3_R_4.png","xmouse":[786,786,786,786,786,786,786,786,786,786,787,787,792,797,801,803,806,808,808,808,808,808,808,808,813,816,804,797,794,794,794,792,792,792,792,792,792,792,792,791,791,791,791,792,793,796,799,807,812,817,819,832,928,1022,1137],"ymouse":[626,626,626,626,626,627,628,628,628,628,629,629,625,621,617,611,600,579,573,570,567,563,539,520,484,439,387,377,373,372,372,372,372,372,372,372,372,372,372,371,370,366,356,354,347,340,333,309,293,277,260,230,151,93,26],"timestamp_mouse":[9,33,49,69,89,109,130,149,170,188,209,229,248,269,289,309,330,349,369,389,410,429,450,469,489,509,530,549,569,589,610,629,649,669,690,710,729,750,770,789,809,829,850,869,889,909,929,949,969,990,1010,1029,1050,1069,1089],"xSR":741.5,"ySR":573.95,"xT1":424.9,"yT1":0,"xT2":1058.1,"yT2":0,"toosoon":0,"cond_shown":"randomdotsizeEA","ratio_trial":750,"smaller_num":"3","larger_num":"4","correct_side":2,"subjID":"CristianChaparro5","gender":"0","age":"11","school":"6"},{"start_time":1551882810655,"click_time":1551882811282,"finger_time":1551882811142,"fix_duration":250,"trial":53,"RT":487,"MT":140,"sideResp":1,"stimulus":"img/750/randomdotsizeEA/R/7_Ratio_750_L_3_R_4.png","xmouse":[799,799,799,799,799,799,799,799,799,799,799,799,799,799,799,799,799,799,799,799,799,802,807,810,810,810,810,809,791,672,590,501],"ymouse":[631,631,631,631,631,631,631,631,631,631,631,631,631,631,631,631,631,631,631,631,631,622,599,579,559,508,470,415,355,190,136,98],"timestamp_mouse":[7,27,48,67,88,107,127,148,168,187,207,227,248,268,288,307,327,347,368,387,408,427,448,467,487,507,528,547,567,587,607,627],"xSR":741.5,"ySR":573.95,"xT1":424.9,"yT1":0,"xT2":1058.1,"yT2":0,"toosoon":0,"cond_shown":"randomdotsizeEA","ratio_trial":750,"smaller_num":"3","larger_num":"4","correct_side":2,"subjID":"CristianChaparro5","gender":"0","age":"11","school":"6"},{"start_time":1551882812936,"click_time":1551882814303,"finger_time":1551882813543,"fix_duration":932.3189670898377,"trial":54,"RT":607,"MT":760,"sideResp":1,"stimulus":"img/900/equaldotsize/R/9_Ratio_900_L_18_R_20.png","xmouse":[762,762,762,762,762,762,762,762,762,762,762,762,762,762,762,762,762,762,762,762,762,762,762,762,762,762,762,762,769,773,789,858,907,970,1045,1198,1224,1230,1230,1230,1230,1228,1223,1215,1201,1191,1164,1145,1129,1111,1079,1062,1046,1028,1008,949,923,893,870,852,844,827,803,757,686,553,446,435,425],"ymouse":[598,598,598,598,598,598,598,598,598,598,598,598,598,598,598,598,598,598,598,598,598,598,598,598,598,598,598,598,588,577,542,422,334,237,131,0,0,0,0,0,0,8,16,28,47,61,92,107,122,138,168,183,198,217,237,296,315,333,342,348,348,335,294,209,78,0,0,0,6],"timestamp_mouse":[12,27,48,66,86,106,126,147,166,186,206,226,246,266,286,306,326,346,366,387,406,427,446,466,486,507,526,546,567,586,607,626,646,666,687,707,726,746,766,787,807,826,846,866,886,906,926,946,966,986,1007,1026,1047,1066,1086,1107,1125,1146,1166,1187,1207,1226,1247,1266,1286,1306,1326,1346,1367],"xSR":741.5,"ySR":573.95,"xT1":424.9,"yT1":0,"xT2":1058.1,"yT2":0,"toosoon":0,"cond_shown":"equaldotsize","ratio_trial":900,"smaller_num":"18","larger_num":"20","correct_side":2,"subjID":"CristianChaparro5","gender":"0","age":"11","school":"6"},{"start_time":1551882815354,"click_time":1551882816582,"finger_time":1551882816423,"fix_duration":250,"trial":55,"RT":1069,"MT":159,"sideResp":1,"stimulus":"img/250/equaldotsize/L/7_Ratio_250_L_8_R_2.png","xmouse":[761,761,761,761,761,761,761,761,761,761,761,761,761,761,761,761,761,761,762,762,764,766,768,768,768,768,768,768,768,768,768,768,768,768,768,768,768,768,768,768,768,768,768,768,768,768,768,768,768,768,768,768,768,768,768,747,730,712,681,605,550,480],"ymouse":[629,630,631,632,632,632,632,632,632,632,632,632,632,632,632,632,632,632,633,633,631,626,620,615,615,615,615,615,615,615,615,615,615,615,615,615,615,615,615,615,615,615,615,615,615,615,615,615,615,615,615,614,607,551,521,347,287,236,201,145,115,87],"timestamp_mouse":[8,28,51,68,88,108,128,148,169,188,208,228,248,268,288,308,328,349,370,388,408,428,449,469,488,509,528,548,568,588,608,628,648,668,689,708,729,748,769,788,809,829,848,869,888,908,928,948,969,988,1008,1029,1048,1069,1089,1109,1128,1149,1168,1189,1208,1228],"xSR":741.5,"ySR":573.95,"xT1":424.9,"yT1":0,"xT2":1058.1,"yT2":0,"toosoon":0,"cond_shown":"equaldotsize","ratio_trial":250,"smaller_num":"2","larger_num":"8","correct_side":1,"subjID":"CristianChaparro5","gender":"0","age":"11","school":"6"},{"start_time":1551882820285,"click_time":1551882820923,"finger_time":1551882820783,"fix_duration":621.4036894224221,"trial":56,"RT":498,"MT":140,"sideResp":2,"stimulus":"img/750/equaldotsize/R/5_Ratio_750_L_15_R_20.png","xmouse":[747,747,747,747,747,747,747,747,747,747,747,747,747,747,747,747,747,747,747,747,747,747,751,769,793,826,884,907,999,1028,1050,1064],"ymouse":[611,611,611,611,611,611,611,611,611,611,611,611,611,611,611,611,611,611,611,611,611,611,603,575,539,479,377,337,151,91,47,22],"timestamp_mouse":[17,38,57,77,97,117,137,157,178,198,217,237,257,278,299,318,338,357,377,397,418,437,457,477,498,517,538,557,578,597,617,638],"xSR":741.5,"ySR":573.95,"xT1":424.9,"yT1":0,"xT2":1058.1,"yT2":0,"toosoon":0,"cond_shown":"equaldotsize","ratio_trial":750,"smaller_num":"15","larger_num":"20","correct_side":2,"subjID":"CristianChaparro5","gender":"0","age":"11","school":"6"},{"start_time":1551882822095,"click_time":1551882823002,"finger_time":1551882822662,"fix_duration":250,"trial":57,"RT":567,"MT":340,"sideResp":2,"stimulus":"img/900/equaldotanddens/R/7_Ratio_900_L_9_R_10.png","xmouse":[784,784,784,784,784,784,784,784,784,784,784,784,784,784,784,784,784,784,784,784,784,784,784,784,786,789,801,806,829,838,844,847,850,852,852,854,855,869,880,891,912,935,985,1018,1054,1100],"ymouse":[626,626,626,626,626,626,626,626,626,626,626,626,626,626,626,626,626,626,626,626,626,626,626,626,622,617,595,587,544,528,517,508,501,493,492,490,487,462,444,419,380,340,250,189,118,38],"timestamp_mouse":[8,27,48,67,89,108,127,147,168,188,208,227,248,267,287,308,327,348,367,387,408,428,447,467,488,507,527,547,567,587,608,628,647,667,687,707,728,748,767,787,807,828,848,867,887,907],"xSR":741.5,"ySR":573.95,"xT1":424.9,"yT1":0,"xT2":1058.1,"yT2":0,"toosoon":0,"cond_shown":"equaldotanddens","ratio_trial":900,"smaller_num":"9","larger_num":"10","correct_side":2,"subjID":"CristianChaparro5","gender":"0","age":"11","school":"6"},{"start_time":1551882825643,"click_time":1551882826723,"finger_time":1551882826162,"fix_duration":1499.977222707177,"trial":58,"RT":519,"MT":561,"sideResp":1,"stimulus":"img/500/equaldotsize/L/10_Ratio_500_L_4_R_2.png","xmouse":[783,783,783,783,783,783,783,783,783,783,783,783,783,783,785,788,789,789,789,790,790,792,799,811,824,853,860,860,860,860,860,837,775,671,555,348,280,254,243,241,241,241,241,241,242,255,266,283,302,324,382,399,420,440],"ymouse":[634,634,634,634,634,634,634,634,634,634,634,634,634,634,633,632,632,632,632,632,632,631,627,621,613,588,564,517,435,411,296,249,206,168,142,117,117,117,117,119,120,120,123,124,128,139,144,148,148,148,125,109,89,65],"timestamp_mouse":[20,40,59,79,100,119,139,159,179,199,220,239,259,279,299,319,339,359,380,399,420,439,460,479,499,519,539,559,580,599,620,639,660,679,699,719,739,759,779,799,819,839,860,880,899,919,939,959,979,999,1020,1039,1059,1080],"xSR":741.5,"ySR":573.95,"xT1":424.9,"yT1":0,"xT2":1058.1,"yT2":0,"toosoon":0,"cond_shown":"equaldotsize","ratio_trial":500,"smaller_num":"2","larger_num":"4","correct_side":1,"subjID":"CristianChaparro5","gender":"0","age":"11","school":"6"},{"start_time":1551882827809,"click_time":1551882829122,"finger_time":1551882828542,"fix_duration":325.2219133784323,"trial":59,"RT":733,"MT":580,"sideResp":1,"stimulus":"img/900/randomdotsizeEA/R/5_Ratio_900_L_9_R_10.png","xmouse":[791,791,791,791,791,791,791,791,791,791,791,791,791,791,791,791,791,791,791,791,791,791,791,791,791,791,791,791,791,791,790,783,778,777,777,777,778,791,802,818,831,830,822,809,793,775,744,648,560,435,311,148,140,140,140,140,139,139,139,143,163,267,323,369,420,476],"ymouse":[607,607,607,607,607,607,607,607,607,607,607,607,607,607,607,607,607,607,607,607,607,607,607,607,607,607,607,607,607,607,605,600,595,592,587,580,568,522,489,435,384,302,269,248,230,218,205,192,185,185,183,163,162,162,162,162,162,162,160,158,149,104,82,63,40,20],"timestamp_mouse":[15,33,54,74,94,114,134,154,173,194,214,233,255,273,293,314,333,353,374,393,414,433,454,474,494,513,533,554,574,593,613,634,653,673,694,713,733,753,774,794,814,833,853,873,893,914,934,953,973,993,1014,1034,1053,1073,1093,1113,1133,1153,1173,1193,1213,1234,1253,1273,1293,1313],"xSR":741.5,"ySR":573.95,"xT1":424.9,"yT1":0,"xT2":1058.1,"yT2":0,"toosoon":0,"cond_shown":"randomdotsizeEA","ratio_trial":900,"smaller_num":"9","larger_num":"10","correct_side":2,"subjID":"CristianChaparro5","gender":"0","age":"11","school":"6"},{"start_time":1551882830975,"click_time":1551882831642,"finger_time":1551882831463,"fix_duration":1130.3302705673977,"trial":60,"RT":488,"MT":179,"sideResp":2,"stimulus":"img/500/equaldotsize/R/12_Ratio_500_L_1_R_2.png","xmouse":[757,757,757,757,757,757,757,757,757,757,757,757,757,757,757,757,757,757,757,757,759,765,771,782,820,840,860,880,930,955,978,1008,1042,1099],"ymouse":[640,640,640,640,640,640,640,640,640,640,640,640,640,640,640,640,640,640,640,640,638,630,620,600,501,455,409,361,266,224,175,138,105,65],"timestamp_mouse":[8,35,47,68,87,107,127,147,167,188,208,228,247,267,287,307,327,347,368,387,407,427,448,467,488,507,527,548,568,587,608,628,647,667],"xSR":741.5,"ySR":573.95,"xT1":424.9,"yT1":0,"xT2":1058.1,"yT2":0,"toosoon":0,"cond_shown":"equaldotsize","ratio_trial":500,"smaller_num":"1","larger_num":"2","correct_side":2,"subjID":"CristianChaparro5","gender":"0","age":"11","school":"6"},{"start_time":1551882833786,"click_time":1551882834722,"finger_time":1551882834542,"fix_duration":1201.6935161067831,"trial":61,"RT":756,"MT":180,"sideResp":1,"stimulus":"img/250/randomdotsizeEA/L/5_Ratio_250_L_24_R_6.png","xmouse":[797,797,798,799,799,799,799,799,799,799,799,799,799,799,799,799,799,799,799,799,799,799,799,799,799,799,799,799,799,799,799,799,799,800,802,804,811,830,915,949,965,964,875,746,656,556,437],"ymouse":[600,603,610,611,612,612,612,612,612,612,612,612,612,612,612,612,612,612,612,612,612,612,612,612,612,612,612,612,612,612,612,612,612,610,602,595,579,530,321,207,104,14,0,0,0,0,1],"timestamp_mouse":[17,36,57,76,96,116,136,157,177,196,216,236,256,276,297,316,336,357,376,396,416,437,456,477,496,517,537,556,577,597,616,637,656,677,696,716,736,756,776,797,816,837,856,876,896,917,936],"xSR":741.5,"ySR":573.95,"xT1":424.9,"yT1":0,"xT2":1058.1,"yT2":0,"toosoon":0,"cond_shown":"randomdotsizeEA","ratio_trial":250,"smaller_num":"6","larger_num":"24","correct_side":1,"subjID":"CristianChaparro5","gender":"0","age":"11","school":"6"},{"start_time":1551882836786,"click_time":1551882838044,"finger_time":1551882837383,"fix_duration":1042.6949383968044,"trial":62,"RT":597,"MT":661,"sideResp":2,"stimulus":"img/900/equaldotsize/R/3_Ratio_900_L_9_R_10.png","xmouse":[787,787,787,787,787,787,787,787,787,787,787,787,787,787,787,787,787,787,787,787,787,787,787,787,787,787,787,789,791,795,795,795,797,820,838,868,914,1134,1262,1357,1387,1387,1387,1373,1358,1332,1297,1260,1179,1151,1136,1123,1111,1077,1060,1042,1025,1026,1048,1071,1085,1087,1090],"ymouse":[613,613,613,613,613,613,613,613,613,613,613,613,613,613,613,613,613,613,613,613,613,613,613,613,613,613,613,611,590,560,522,483,439,313,258,193,123,0,0,0,0,0,2,35,60,94,139,178,248,266,271,273,264,223,192,149,99,0,0,0,0,0,12],"timestamp_mouse":[16,37,56,76,96,116,137,156,177,196,216,237,256,276,297,317,337,356,377,397,416,436,456,477,497,517,537,556,576,597,616,636,656,677,696,716,736,757,777,796,816,837,856,876,896,916,936,956,976,996,1017,1037,1056,1077,1096,1117,1137,1157,1176,1196,1217,1236,1257],"xSR":741.5,"ySR":573.95,"xT1":424.9,"yT1":0,"xT2":1058.1,"yT2":0,"toosoon":0,"cond_shown":"equaldotsize","ratio_trial":900,"smaller_num":"9","larger_num":"10","correct_side":2,"subjID":"CristianChaparro5","gender":"0","age":"11","school":"6"},{"start_time":1551882840615,"click_time":1551882842162,"finger_time":1551882841762,"fix_duration":251.93349921389108,"trial":63,"RT":1147,"MT":400,"sideResp":1,"stimulus":"img/900/randomdotsizeEA/R/7_Ratio_900_L_9_R_10.png","xmouse":[770,770,770,770,770,770,770,770,770,770,770,770,770,770,770,770,770,771,772,773,774,774,774,774,774,774,774,774,774,774,774,774,774,774,774,774,774,774,774,774,774,774,774,774,774,774,774,774,774,774,774,774,777,780,784,789,798,802,807,809,809,754,521,376,248,154,98,75,75,74,74,76,114,149,208,272,339,447],"ymouse":[628,628,628,628,628,628,628,628,628,628,628,628,628,628,628,630,631,634,635,637,639,639,639,639,639,639,639,639,639,639,639,639,639,639,639,639,639,639,639,639,639,639,639,639,639,639,639,639,639,639,639,639,637,630,622,610,580,566,544,522,498,451,339,282,236,209,198,194,194,194,191,186,151,132,108,80,54,17],"timestamp_mouse":[9,36,47,67,88,108,128,147,168,187,208,227,248,268,288,308,328,348,367,387,407,427,447,468,487,508,527,547,567,587,607,628,647,667,688,708,728,747,768,788,807,827,847,867,888,908,928,948,968,988,1007,1027,1047,1067,1088,1107,1128,1147,1167,1187,1207,1227,1248,1267,1287,1308,1327,1347,1368,1388,1408,1427,1447,1467,1487,1507,1528,1547],"xSR":741.5,"ySR":573.95,"xT1":424.9,"yT1":0,"xT2":1058.1,"yT2":0,"toosoon":0,"cond_shown":"randomdotsizeEA","ratio_trial":900,"smaller_num":"9","larger_num":"10","correct_side":2,"subjID":"CristianChaparro5","gender":"0","age":"11","school":"6"},{"start_time":1551882843516,"click_time":1551882844942,"finger_time":1551882844022,"fix_duration":251.51711357255869,"trial":64,"RT":506,"MT":920,"sideResp":1,"stimulus":"img/500/equaldotanddens/L/11_Ratio_500_L_12_R_6.png","xmouse":[772,772,772,772,772,772,772,772,772,772,772,772,772,772,772,772,772,772,772,775,776,784,788,791,795,797,799,800,801,802,802,804,805,805,807,808,815,815,815,815,803,777,698,637,553,455,312,199,175,163,156,154,154,154,156,160,187,203,219,236,248,261,304,338,372,397,422,424,424,424,424,428],"ymouse":[633,633,633,633,633,633,633,633,633,633,633,633,633,633,633,633,633,633,633,626,623,604,595,584,574,568,561,556,554,550,548,545,536,529,515,496,375,305,226,142,75,32,0,0,0,0,0,5,12,17,21,25,27,30,34,40,67,77,82,84,84,80,57,36,19,5,0,0,0,0,0,2],"timestamp_mouse":[7,36,46,67,86,107,127,146,167,187,206,226,247,266,287,306,326,346,366,386,406,427,446,467,486,506,526,546,566,586,606,626,646,666,686,706,726,746,766,787,806,826,847,867,887,906,926,946,966,986,1006,1027,1046,1066,1086,1107,1128,1146,1166,1187,1207,1226,1246,1267,1286,1305,1326,1346,1367,1387,1406,1426],"xSR":741.5,"ySR":573.95,"xT1":424.9,"yT1":0,"xT2":1058.1,"yT2":0,"toosoon":0,"cond_shown":"equaldotanddens","ratio_trial":500,"smaller_num":"6","larger_num":"12","correct_side":1,"subjID":"CristianChaparro5","gender":"0","age":"11","school":"6"},{"start_time":1551882849099,"click_time":1551882850282,"finger_time":1551882849662,"fix_duration":1434.5122733418293,"trial":65,"RT":563,"MT":620,"sideResp":1,"stimulus":"img/500/randomdotsizeEA/L/13_Ratio_500_L_12_R_6.png","xmouse":[769,769,769,769,769,769,769,769,769,769,769,769,769,769,769,769,769,769,769,769,769,769,769,769,769,770,773,787,793,796,798,798,795,783,767,750,728,663,640,620,601,576,525,383,315,265,237,212,214,223,237,256,280,341,364,381,391,394,417,436],"ymouse":[624,624,624,624,624,624,624,624,624,624,624,624,624,624,624,624,624,624,624,624,624,624,624,624,624,623,619,579,556,532,504,479,423,396,373,354,341,323,319,313,307,296,274,216,186,159,138,112,102,90,77,60,41,3,0,0,0,0,9,17],"timestamp_mouse":[9,26,43,64,84,103,123,144,164,183,203,223,243,263,283,303,323,343,363,385,403,423,443,463,483,503,524,544,563,583,603,624,644,663,683,703,724,744,762,783,804,823,843,863,883,903,924,943,963,983,1004,1023,1044,1063,1083,1103,1123,1143,1164,1183],"xSR":741.5,"ySR":573.95,"xT1":424.9,"yT1":0,"xT2":1058.1,"yT2":0,"toosoon":0,"cond_shown":"randomdotsizeEA","ratio_trial":500,"smaller_num":"6","larger_num":"12","correct_side":1,"subjID":"CristianChaparro5","gender":"0","age":"11","school":"6"},{"start_time":1551882851499,"click_time":1551882853162,"finger_time":1551882852902,"fix_duration":415.5191443267577,"trial":66,"RT":1403,"MT":260,"sideResp":2,"stimulus":"img/250/randomdotsizeEA/R/10_Ratio_250_L_4_R_16.png","xmouse":[796,796,796,796,796,796,796,796,796,796,796,796,796,796,796,796,796,796,796,796,796,796,796,796,796,796,796,796,796,796,796,796,796,796,796,796,796,796,796,796,796,796,796,796,796,796,796,796,796,796,796,796,796,796,796,796,796,796,796,796,796,796,796,796,796,796,796,796,796,800,813,830,851,907,948,984,1019,1044,1083,1091,1096,1101,1115,1152],"ymouse":[590,590,590,590,590,590,590,590,590,590,590,590,590,590,590,590,590,590,590,590,590,590,590,590,590,590,590,590,590,590,590,590,590,590,590,590,590,590,590,590,590,590,590,590,590,590,590,590,590,590,590,590,590,590,590,590,590,590,590,590,590,590,590,590,590,590,590,590,590,574,533,468,397,248,176,110,46,0,0,0,0,0,0,15],"timestamp_mouse":[7,31,44,64,84,103,123,143,163,183,203,223,243,263,283,303,324,343,364,383,403,423,443,463,484,503,523,544,564,584,604,624,644,663,683,704,723,744,764,785,803,823,843,863,883,904,924,943,963,984,1004,1023,1043,1063,1083,1103,1123,1143,1163,1183,1203,1224,1243,1263,1284,1303,1324,1343,1363,1383,1403,1423,1443,1463,1483,1503,1523,1543,1564,1583,1603,1624,1644,1663],"xSR":741.5,"ySR":573.95,"xT1":424.9,"yT1":0,"xT2":1058.1,"yT2":0,"toosoon":0,"cond_shown":"randomdotsizeEA","ratio_trial":250,"smaller_num":"4","larger_num":"16","correct_side":2,"subjID":"CristianChaparro5","gender":"0","age":"11","school":"6"},{"start_time":1551882854562,"click_time":1551882855382,"finger_time":1551882855122,"fix_duration":538.5694944925845,"trial":67,"RT":560,"MT":260,"sideResp":2,"stimulus":"img/750/equaldotanddens/R/2_Ratio_750_L_6_R_8.png","xmouse":[787,787,787,787,787,787,787,787,787,787,787,787,787,787,787,787,787,787,787,787,787,787,787,788,791,803,813,824,834,850,861,875,891,911,967,986,1000,1012,1023,1043,1052,1061],"ymouse":[634,634,634,634,634,634,634,634,634,634,634,634,634,634,634,634,634,634,634,634,634,634,634,632,628,609,593,574,552,502,462,408,354,308,199,167,141,120,101,70,58,46],"timestamp_mouse":[8,20,41,61,80,100,120,141,160,181,200,221,240,260,280,301,321,341,360,380,400,420,440,461,480,500,520,541,560,581,600,620,640,660,680,700,720,740,760,781,800,820],"xSR":741.5,"ySR":573.95,"xT1":424.9,"yT1":0,"xT2":1058.1,"yT2":0,"toosoon":0,"cond_shown":"equaldotanddens","ratio_trial":750,"smaller_num":"6","larger_num":"8","correct_side":2,"subjID":"CristianChaparro5","gender":"0","age":"11","school":"6"},{"start_time":1551882857521,"click_time":1551882858362,"finger_time":1551882857962,"fix_duration":1257.6038733096113,"trial":68,"RT":441,"MT":400,"sideResp":1,"stimulus":"img/900/equaldotanddens/R/7_Ratio_900_L_9_R_10.png","xmouse":[824,823,823,823,823,823,823,823,823,823,823,823,823,823,823,823,823,823,823,823,825,829,832,830,820,811,797,773,756,735,712,688,656,643,629,610,599,581,571,564,554,525,514],"ymouse":[628,628,628,628,628,628,628,628,628,628,628,628,628,628,628,628,628,628,628,622,607,585,536,509,481,456,424,383,363,345,330,314,290,281,272,258,249,234,225,211,187,102,61],"timestamp_mouse":[1,21,41,61,81,101,121,141,161,181,202,221,241,261,281,301,322,342,361,381,402,422,441,461,481,501,521,541,561,581,602,622,641,661,681,701,721,741,761,781,801,821,841],"xSR":741.5,"ySR":573.95,"xT1":424.9,"yT1":0,"xT2":1058.1,"yT2":0,"toosoon":0,"cond_shown":"equaldotanddens","ratio_trial":900,"smaller_num":"9","larger_num":"10","correct_side":2,"subjID":"CristianChaparro5","gender":"0","age":"11","school":"6"},{"start_time":1551882859756,"click_time":1551882860702,"finger_time":1551882860162,"fix_duration":250,"trial":69,"RT":406,"MT":540,"sideResp":2,"stimulus":"img/250/randomdotsizeEA/R/13_Ratio_250_L_2_R_8.png","xmouse":[753,753,753,753,753,753,753,753,753,753,753,753,753,753,753,753,753,753,753,757,767,779,799,831,899,993,1091,1139,1181,1230,1248,1269,1287,1298,1304,1304,1304,1305,1302,1297,1281,1275,1271,1268,1264,1231,1188,1134],"ymouse":[641,641,641,641,641,641,641,641,641,641,641,641,641,641,641,641,636,630,619,578,545,499,439,361,209,35,0,0,0,0,0,0,0,0,0,0,0,0,9,21,49,57,62,65,67,71,78,92],"timestamp_mouse":[11,32,46,66,86,108,126,146,167,186,206,226,246,266,286,306,326,346,366,387,406,426,447,467,486,506,526,546,566,587,606,626,647,667,687,707,727,747,766,786,806,826,846,865,886,906,926,946],"xSR":741.5,"ySR":573.95,"xT1":424.9,"yT1":0,"xT2":1058.1,"yT2":0,"toosoon":0,"cond_shown":"randomdotsizeEA","ratio_trial":250,"smaller_num":"2","larger_num":"8","correct_side":2,"subjID":"CristianChaparro5","gender":"0","age":"11","school":"6"},{"start_time":1551882863603,"click_time":1551882864822,"finger_time":1551882863901,"fix_duration":1459.6735321678266,"trial":70,"RT":298,"MT":921,"sideResp":2,"stimulus":"img/250/equaldotanddens/R/12_Ratio_250_L_5_R_20.png","xmouse":[793,793,793,793,793,793,793,793,793,793,789,787,773,761,745,728,709,684,680,677,673,670,668,668,670,680,708,759,895,951,1002,1054,1096,1162,1173,1176,1179,1180,1183,1185,1185,1185,1185,1189,1192,1192,1192,1188,1183,1182,1181,1181,1181,1177,1176,1175,1173,1171,1170,1169,1166,1143],"ymouse":[640,640,