[{"start_time":1551794869244,"click_time":1551794870989,"finger_time":1551794870529,"fix_duration":990.5130817951637,"trial":0,"RT":1285,"MT":460,"sideResp":1,"stimulus":"img/500/equaldotanddens/L/7_Ratio_500_L_10_R_5.png","xmouse":[804,804,804,804,804,804,804,804,804,804,804,804,804,804,804,804,804,804,804,804,804,804,804,804,804,804,804,804,804,804,804,804,804,804,804,804,804,804,804,804,804,804,804,804,804,804,804,804,804,804,804,804,804,804,804,804,804,804,804,804,804,804,802,798,766,743,711,676,642,588,582,581,579,578,577,577,577,577,576,572,566,562,559,553,540,533,527,524],"ymouse":[511,511,511,511,511,511,511,511,511,511,511,511,511,511,511,511,511,511,511,511,511,511,511,511,511,511,511,511,511,511,511,511,511,511,511,511,511,511,511,511,511,511,511,511,511,511,511,511,511,511,511,511,511,511,511,511,511,511,511,511,511,511,507,500,444,409,370,331,298,236,226,224,219,218,215,214,214,213,210,201,188,178,164,146,100,82,69,64],"timestamp_mouse":[9,44,44,64,84,106,124,144,164,185,204,226,246,264,284,304,325,345,365,384,404,425,445,466,485,504,524,545,564,585,605,625,644,665,685,704,724,745,766,784,806,825,845,865,886,905,925,946,965,986,1005,1025,1045,1065,1085,1104,1124,1144,1165,1184,1204,1225,1244,1265,1285,1305,1324,1346,1366,1385,1405,1424,1445,1465,1486,1504,1524,1546,1565,1584,1605,1624,1644,1664,1684,1705,1724,1744],"xSR":741.5,"ySR":469.95,"xT1":424.9,"yT1":0,"xT2":1058.1,"yT2":0,"toosoon":0,"cond_shown":"equaldotanddens","ratio_trial":500,"smaller_num":"5","larger_num":"10","correct_side":1,"subjID":"Cristianforero22","gender":"0","age":"11","school":"6","test":{"fix_dur":[250,1500],"timestim":300,"targets_dim":[100,100],"targets_relative_coord":[0.3,0.7],"size_stim":[880,420],"start_dim":[100,100],"size_start":[300,300],"size_fix":60,"samplingrate":20,"img_types":["equaldotsize","equaldotanddens","randomdotsizeEA"],"ratios":[250,500,750,900],"rep_conds":9,"nTrials":120,"trials_to_rest":500,"Trials_order":[16,68,24,9,43,109,117,25,110,18,79,23,88,17,56,64,99,7,44,67,39,105,69,73,31,51,28,62,58,42,11,86,27,35,30,10,48,22,92,34,8,14,70,84,52,26,82,3,63,61,13,100,115,33,89,19,60,41,107,76,77,87,20,46,93,103,80,37,108,0,40,38,112,59,111,83,119,74,71,53,72,57,45,5,81,118,102,104,50,21,47,1,6,95,49,94,12,85,97,55,96,66,2,78,65,75,113,32,36,116,15,101,90,91,106,29,54,98,4,114],"cond_shown":["equaldotanddens","randomdotsizeEA","equaldotsize","equaldotsize","equaldotanddens","equaldotanddens","equaldotsize","equaldotanddens","randomdotsizeEA","equaldotsize","equaldotanddens","randomdotsizeEA","equaldotanddens","randomdotsizeEA","randomdotsizeEA","equaldotanddens","equaldotsize","equaldotanddens","randomdotsizeEA","equaldotanddens","equaldotsize","equaldotsize","equaldotsize","equaldotanddens","equaldotanddens","equaldotsize","equaldotanddens","randomdotsizeEA","equaldotanddens","equaldotsize","randomdotsizeEA","randomdotsizeEA","equaldotsize","randomdotsizeEA","equaldotsize","equaldotanddens","equaldotsize","equaldotanddens","randomdotsizeEA","equaldotanddens","randomdotsizeEA","randomdotsizeEA","equaldotanddens","equaldotsize","equaldotanddens","randomdotsizeEA","equaldotanddens","equaldotsize","equaldotsize","equaldotanddens","equaldotanddens","equaldotanddens","equaldotanddens","equaldotsize","randomdotsizeEA","equaldotanddens","equaldotsize","randomdotsizeEA","randomdotsizeEA","equaldotanddens","randomdotsizeEA","equaldotsize","randomdotsizeEA","equaldotanddens","equaldotsize","equaldotanddens","randomdotsizeEA","equaldotanddens","equaldotsize","equaldotsize","equaldotanddens","randomdotsizeEA","equaldotanddens","randomdotsizeEA","equaldotsize","randomdotsizeEA","randomdotsizeEA","randomdotsizeEA","randomdotsizeEA","randomdotsizeEA","equaldotsize","equaldotsize","equaldotsize","randomdotsizeEA","equaldotsize","equaldotanddens","equaldotsize","randomdotsizeEA","randomdotsizeEA","equaldotsize","randomdotsizeEA","equaldotanddens","equaldotsize","randomdotsizeEA","equaldotanddens","equaldotanddens","equaldotsize","equaldotanddens","equaldotanddens","equaldotanddens","equaldotsize","equaldotsize","randomdotsizeEA","equaldotsize","randomdotsizeEA","equaldotsize","randomdotsizeEA","randomdotsizeEA","equaldotsize","randomdotsizeEA","equaldotsize","randomdotsizeEA","equaldotsize","equaldotanddens","equaldotanddens","randomdotsizeEA","equaldotsize","randomdotsizeEA","equaldotanddens","equaldotsize"],"ratio_trial":[500,750,250,900,750,250,900,250,250,750,750,900,500,500,750,500,500,750,750,750,500,900,900,250,750,500,500,250,900,750,900,250,500,900,750,900,250,900,750,900,750,250,900,250,500,250,900,500,500,250,250,500,750,900,500,750,250,500,900,500,500,500,750,900,900,750,750,250,250,250,500,250,500,900,500,900,900,250,900,500,250,900,900,500,900,900,750,750,250,900,900,250,750,900,250,900,250,250,250,750,250,750,250,750,500,500,500,750,250,750,500,500,750,750,900,500,750,250,500,750],"smaller_num":["5","3","6","9","18","2","9","3","2","6","6","18","2","5","3","1","5","18","3","12","4","9","18","1","3","1","6","4","9","12","18","2","9","18","3","18","2","9","3","9","15","3","9","3","2","2","18","6","9","3","2","6","3","18","2","18","6","2","18","2","4","10","3","9","18","9","9","2","4","6","9","4","4","9","10","9","18","2","18","9","3","18","18","6","9","18","3","6","4","18","18","4","15","9","5","9","3","3","6","15","2","15","5","15","2","1","2","6","6","15","1","1","9","3","18","2","6","3","4","15"],"larger_num":["10","4","24","10","24","8","10","12","8","8","8","20","4","10","4","2","10","24","4","16","8","10","20","4","4","2","12","16","10","16","20","8","18","20","4","20","8","10","4","10","20","12","10","12","4","8","20","12","18","12","8","12","4","20","4","24","24","4","20","4","8","20","4","10","20","12","12","8","16","24","18","16","8","10","20","10","20","8","20","18","12","20","20","12","10","20","4","8","16","20","20","16","20","10","20","10","12","12","24","20","8","20","20","20","4","2","4","8","24","20","2","2","12","4","20","4","8","12","8","20"],"correct_side":[1,1,1,1,1,1,2,1,1,2,1,1,2,2,1,2,1,1,1,2,1,1,2,2,1,2,1,1,2,2,1,1,2,2,2,2,1,2,2,2,2,1,1,1,2,1,1,1,2,1,2,1,1,1,1,1,2,1,1,1,1,2,1,1,2,2,2,1,1,2,2,1,1,1,2,1,1,2,2,2,1,2,2,1,1,1,2,1,1,2,1,1,2,2,2,1,2,2,1,2,1,2,2,2,1,2,2,2,1,2,2,2,2,1,1,1,1,2,1,2],"img_shown":["img/500/equaldotanddens/L/7_Ratio_500_L_10_R_5.png","img/750/randomdotsizeEA/L/8_Ratio_750_L_4_R_3.png","img/250/equaldotsize/L/5_Ratio_250_L_24_R_6.png","img/900/equaldotsize/L/1_Ratio_900_L_10_R_9.png","img/750/equaldotanddens/L/6_Ratio_750_L_24_R_18.png","img/250/equaldotanddens/L/1_Ratio_250_L_8_R_2.png","img/900/equaldotsize/R/6_Ratio_900_L_9_R_10.png","img/250/equaldotanddens/L/15_Ratio_250_L_12_R_3.png","img/250/randomdotsizeEA/L/1_Ratio_250_L_8_R_2.png","img/750/equaldotsize/R/2_Ratio_750_L_6_R_8.png","img/750/equaldotanddens/L/14_Ratio_750_L_8_R_6.png","img/900/randomdotsizeEA/L/4_Ratio_900_L_20_R_18.png","img/500/equaldotanddens/R/9_Ratio_500_L_2_R_4.png","img/500/randomdotsizeEA/R/14_Ratio_500_L_5_R_10.png","img/750/randomdotsizeEA/L/8_Ratio_750_L_4_R_3.png","img/500/equaldotanddens/R/12_Ratio_500_L_1_R_2.png","img/500/equaldotsize/L/7_Ratio_500_L_10_R_5.png","img/750/equaldotanddens/L/6_Ratio_750_L_24_R_18.png","img/750/randomdotsizeEA/L/8_Ratio_750_L_4_R_3.png","img/750/equaldotanddens/R/11_Ratio_750_L_12_R_16.png","img/500/equaldotsize/L/8_Ratio_500_L_8_R_4.png","img/900/equaldotsize/L/1_Ratio_900_L_10_R_9.png","img/900/equaldotsize/R/14_Ratio_900_L_18_R_20.png","img/250/equaldotanddens/R/8_Ratio_250_L_1_R_4.png","img/750/equaldotanddens/L/10_Ratio_750_L_4_R_3.png","img/500/equaldotsize/R/15_Ratio_500_L_1_R_2.png","img/500/equaldotanddens/L/13_Ratio_500_L_12_R_6.png","img/250/randomdotsizeEA/L/2_Ratio_250_L_16_R_4.png","img/900/equaldotanddens/R/5_Ratio_900_L_9_R_10.png","img/750/equaldotsize/R/11_Ratio_750_L_12_R_16.png","img/900/randomdotsizeEA/L/4_Ratio_900_L_20_R_18.png","img/250/randomdotsizeEA/L/3_Ratio_250_L_8_R_2.png","img/500/equaldotsize/R/1_Ratio_500_L_9_R_18.png","img/900/randomdotsizeEA/R/12_Ratio_900_L_18_R_20.png","img/750/equaldotsize/R/7_Ratio_750_L_3_R_4.png","img/900/equaldotanddens/R/11_Ratio_900_L_18_R_20.png","img/250/equaldotsize/L/1_Ratio_250_L_8_R_2.png","img/900/equaldotanddens/R/3_Ratio_900_L_9_R_10.png","img/750/randomdotsizeEA/R/7_Ratio_750_L_3_R_4.png","img/900/equaldotanddens/R/5_Ratio_900_L_9_R_10.png","img/750/randomdotsizeEA/R/5_Ratio_750_L_15_R_20.png","img/250/randomdotsizeEA/L/14_Ratio_250_L_12_R_3.png","img/900/equaldotanddens/L/1_Ratio_900_L_10_R_9.png","img/250/equaldotsize/L/14_Ratio_250_L_12_R_3.png","img/500/equaldotanddens/R/9_Ratio_500_L_2_R_4.png","img/250/randomdotsizeEA/L/1_Ratio_250_L_8_R_2.png","img/900/equaldotanddens/L/2_Ratio_900_L_20_R_18.png","img/500/equaldotsize/L/11_Ratio_500_L_12_R_6.png","img/500/equaldotsize/R/1_Ratio_500_L_9_R_18.png","img/250/equaldotanddens/L/15_Ratio_250_L_12_R_3.png","img/250/equaldotanddens/R/13_Ratio_250_L_2_R_8.png","img/500/equaldotanddens/L/13_Ratio_500_L_12_R_6.png","img/750/equaldotanddens/L/10_Ratio_750_L_4_R_3.png","img/900/equaldotsize/L/4_Ratio_900_L_20_R_18.png","img/500/randomdotsizeEA/L/5_Ratio_500_L_4_R_2.png","img/750/equaldotanddens/L/6_Ratio_750_L_24_R_18.png","img/250/equaldotsize/R/6_Ratio_250_L_6_R_24.png","img/500/randomdotsizeEA/L/10_Ratio_500_L_4_R_2.png","img/900/randomdotsizeEA/L/2_Ratio_900_L_20_R_18.png","img/500/equaldotanddens/L/10_Ratio_500_L_4_R_2.png","img/500/randomdotsizeEA/L/8_Ratio_500_L_8_R_4.png","img/500/equaldotsize/R/3_Ratio_500_L_10_R_20.png","img/750/randomdotsizeEA/L/10_Ratio_750_L_4_R_3.png","img/900/equaldotanddens/L/1_Ratio_900_L_10_R_9.png","img/900/equaldotsize/R/13_Ratio_900_L_18_R_20.png","img/750/equaldotanddens/R/15_Ratio_750_L_9_R_12.png","img/750/randomdotsizeEA/R/15_Ratio_750_L_9_R_12.png","img/250/equaldotanddens/L/1_Ratio_250_L_8_R_2.png","img/250/equaldotsize/L/2_Ratio_250_L_16_R_4.png","img/250/equaldotsize/R/6_Ratio_250_L_6_R_24.png","img/500/equaldotanddens/R/1_Ratio_500_L_9_R_18.png","img/250/randomdotsizeEA/L/2_Ratio_250_L_16_R_4.png","img/500/equaldotanddens/L/8_Ratio_500_L_8_R_4.png","img/900/randomdotsizeEA/L/1_Ratio_900_L_10_R_9.png","img/500/equaldotsize/R/3_Ratio_500_L_10_R_20.png","img/900/randomdotsizeEA/L/1_Ratio_900_L_10_R_9.png","img/900/randomdotsizeEA/L/2_Ratio_900_L_20_R_18.png","img/250/randomdotsizeEA/R/13_Ratio_250_L_2_R_8.png","img/900/randomdotsizeEA/R/9_Ratio_900_L_18_R_20.png","img/500/randomdotsizeEA/R/6_Ratio_500_L_9_R_18.png","img/250/equaldotsize/L/15_Ratio_250_L_12_R_3.png","img/900/equaldotsize/R/14_Ratio_900_L_18_R_20.png","img/900/equaldotsize/R/14_Ratio_900_L_18_R_20.png","img/500/randomdotsizeEA/L/11_Ratio_500_L_12_R_6.png","img/900/equaldotsize/L/1_Ratio_900_L_10_R_9.png","img/900/equaldotanddens/L/4_Ratio_900_L_20_R_18.png","img/750/equaldotsize/R/7_Ratio_750_L_3_R_4.png","img/750/randomdotsizeEA/L/14_Ratio_750_L_8_R_6.png","img/250/randomdotsizeEA/L/2_Ratio_250_L_16_R_4.png","img/900/equaldotsize/R/11_Ratio_900_L_18_R_20.png","img/900/randomdotsizeEA/L/8_Ratio_900_L_20_R_18.png","img/250/equaldotanddens/L/2_Ratio_250_L_16_R_4.png","img/750/equaldotsize/R/4_Ratio_750_L_15_R_20.png","img/900/randomdotsizeEA/R/7_Ratio_900_L_9_R_10.png","img/250/equaldotanddens/R/12_Ratio_250_L_5_R_20.png","img/900/equaldotanddens/L/1_Ratio_900_L_10_R_9.png","img/250/equaldotsize/R/4_Ratio_250_L_3_R_12.png","img/250/equaldotanddens/R/9_Ratio_250_L_3_R_12.png","img/250/equaldotanddens/L/5_Ratio_250_L_24_R_6.png","img/750/equaldotanddens/R/5_Ratio_750_L_15_R_20.png","img/250/equaldotsize/L/3_Ratio_250_L_8_R_2.png","img/750/equaldotsize/R/4_Ratio_750_L_15_R_20.png","img/250/randomdotsizeEA/R/12_Ratio_250_L_5_R_20.png","img/750/equaldotsize/R/4_Ratio_750_L_15_R_20.png","img/500/randomdotsizeEA/L/5_Ratio_500_L_4_R_2.png","img/500/equaldotsize/R/12_Ratio_500_L_1_R_2.png","img/500/randomdotsizeEA/R/9_Ratio_500_L_2_R_4.png","img/750/randomdotsizeEA/R/2_Ratio_750_L_6_R_8.png","img/250/equaldotsize/L/5_Ratio_250_L_24_R_6.png","img/750/randomdotsizeEA/R/3_Ratio_750_L_15_R_20.png","img/500/equaldotsize/R/15_Ratio_500_L_1_R_2.png","img/500/randomdotsizeEA/R/12_Ratio_500_L_1_R_2.png","img/750/equaldotsize/R/15_Ratio_750_L_9_R_12.png","img/750/equaldotanddens/L/9_Ratio_750_L_4_R_3.png","img/900/equaldotanddens/L/4_Ratio_900_L_20_R_18.png","img/500/randomdotsizeEA/L/10_Ratio_500_L_4_R_2.png","img/750/equaldotsize/L/14_Ratio_750_L_8_R_6.png","img/250/randomdotsizeEA/R/9_Ratio_250_L_3_R_12.png","img/500/equaldotanddens/L/8_Ratio_500_L_8_R_4.png","img/750/equaldotsize/R/5_Ratio_750_L_15_R_20.png"],"Rat0":[["12_Ratio_0_L_9_R_0.png","13_Ratio_0_L_6_R_0.png","5_Ratio_0_L_2_R_0.png","6_Ratio_0_L_4_R_0.png","8_Ratio_0_L_6_R_0.png"],["1_Ratio_0_L_0_R_17.png","10_Ratio_0_L_0_R_22.png","11_Ratio_0_L_0_R_1.png","14_Ratio_0_L_0_R_24.png","15_Ratio_0_L_0_R_4.png","2_Ratio_0_L_0_R_5.png","3_Ratio_0_L_0_R_17.png","4_Ratio_0_L_0_R_7.png","7_Ratio_0_L_0_R_19.png","9_Ratio_0_L_0_R_15.png"]],"Rat250":[["1_Ratio_250_L_8_R_2.png","14_Ratio_250_L_12_R_3.png","15_Ratio_250_L_12_R_3.png","2_Ratio_250_L_16_R_4.png","3_Ratio_250_L_8_R_2.png","5_Ratio_250_L_24_R_6.png","7_Ratio_250_L_8_R_2.png"],["10_Ratio_250_L_4_R_16.png","11_Ratio_250_L_3_R_12.png","12_Ratio_250_L_5_R_20.png","13_Ratio_250_L_2_R_8.png","4_Ratio_250_L_3_R_12.png","6_Ratio_250_L_6_R_24.png","8_Ratio_250_L_1_R_4.png","9_Ratio_250_L_3_R_12.png"]],"Rat500":[["10_Ratio_500_L_4_R_2.png","11_Ratio_500_L_12_R_6.png","13_Ratio_500_L_12_R_6.png","4_Ratio_500_L_18_R_9.png","5_Ratio_500_L_4_R_2.png","7_Ratio_500_L_10_R_5.png","8_Ratio_500_L_8_R_4.png"],["1_Ratio_500_L_9_R_18.png","12_Ratio_500_L_1_R_2.png","14_Ratio_500_L_5_R_10.png","15_Ratio_500_L_1_R_2.png","2_Ratio_500_L_3_R_6.png","3_Ratio_500_L_10_R_20.png","6_Ratio_500_L_9_R_18.png","9_Ratio_500_L_2_R_4.png"]],"Rat750":[["1_Ratio_750_L_20_R_15.png","10_Ratio_750_L_4_R_3.png","13_Ratio_750_L_8_R_6.png","14_Ratio_750_L_8_R_6.png","6_Ratio_750_L_24_R_18.png","8_Ratio_750_L_4_R_3.png","9_Ratio_750_L_4_R_3.png"],["11_Ratio_750_L_12_R_16.png","12_Ratio_750_L_3_R_4.png","15_Ratio_750_L_9_R_12.png","2_Ratio_750_L_6_R_8.png","3_Ratio_750_L_15_R_20.png","4_Ratio_750_L_15_R_20.png","5_Ratio_750_L_15_R_20.png","7_Ratio_750_L_3_R_4.png"]],"Rat900":[["1_Ratio_900_L_10_R_9.png","10_Ratio_900_L_20_R_18.png","2_Ratio_900_L_20_R_18.png","4_Ratio_900_L_20_R_18.png","8_Ratio_900_L_20_R_18.png"],["11_Ratio_900_L_18_R_20.png","12_Ratio_900_L_18_R_20.png","13_Ratio_900_L_18_R_20.png","14_Ratio_900_L_18_R_20.png","15_Ratio_900_L_9_R_10.png","3_Ratio_900_L_9_R_10.png","5_Ratio_900_L_9_R_10.png","6_Ratio_900_L_9_R_10.png","7_Ratio_900_L_9_R_10.png","9_Ratio_900_L_18_R_20.png"]],"Rat1000":[["10_Ratio_1000_L_16_R_16.png","11_Ratio_1000_L_6_R_6.png","12_Ratio_1000_L_14_R_14.png","13_Ratio_1000_L_20_R_20.png","15_Ratio_1000_L_15_R_15.png","2_Ratio_1000_L_17_R_17.png","4_Ratio_1000_L_9_R_9.png","5_Ratio_1000_L_6_R_6.png","6_Ratio_1000_L_19_R_19.png","8_Ratio_1000_L_14_R_14.png","9_Ratio_1000_L_25_R_25.png"],["1_Ratio_1000_L_1_R_1.png","14_Ratio_1000_L_17_R_17.png","3_Ratio_1000_L_17_R_17.png","7_Ratio_1000_L_6_R_6.png"]]}},{"start_time":1551794873341,"click_time":1551794874848,"finger_time":1551794874229,"fix_duration":1389.5862513596003,"trial":1,"RT":888,"MT":619,"sideResp":1,"stimulus":"img/750/randomdotsizeEA/L/8_Ratio_750_L_4_R_3.png","xmouse":[762,762,762,762,762,762,762,762,762,762,762,762,762,762,762,762,762,762,762,762,762,762,762,762,762,762,762,762,762,762,762,762,762,762,762,762,762,762,762,756,753,751,747,744,741,718,706,656,624,574,560,549,542,536,532,531,526,521,517,511,511,510,509,508,507,507,507,507,507,507,507,507,507,506,506,506],"ymouse":[522,522,522,522,522,522,522,522,522,522,522,522,522,522,522,522,522,522,522,522,522,522,522,522,522,522,522,522,522,522,522,522,522,522,522,522,522,522,522,514,508,504,498,495,492,468,457,415,379,299,274,255,245,236,231,228,214,198,183,166,162,154,145,138,128,123,122,122,122,122,122,120,115,110,101,98],"timestamp_mouse":[13,35,47,67,88,109,127,149,167,189,207,228,249,267,287,308,329,348,368,389,407,428,447,467,487,508,527,547,569,587,607,628,648,669,687,707,727,748,767,787,808,829,847,869,888,907,928,949,968,987,1008,1027,1048,1067,1088,1108,1128,1148,1167,1187,1208,1228,1249,1267,1287,1307,1327,1348,1369,1387,1407,1429,1448,1467,1487,1507],"xSR":741.5,"ySR":469.95,"xT1":424.9,"yT1":0,"xT2":1058.1,"yT2":0,"toosoon":0,"cond_shown":"randomdotsizeEA","ratio_trial":750,"smaller_num":"3","larger_num":"4","correct_side":1,"subjID":"Cristianforero22","gender":"0","age":"11","school":"6"},{"start_time":1551794875988,"click_time":1551794877049,"finger_time":1551794876690,"fix_duration":419.0631534552791,"trial":2,"RT":702,"MT":359,"sideResp":1,"stimulus":"img/250/equaldotsize/L/5_Ratio_250_L_24_R_6.png","xmouse":[795,795,795,795,795,795,795,795,795,795,795,795,795,795,795,795,795,795,795,795,795,795,795,795,795,795,795,795,795,795,795,795,792,781,763,745,715,655,631,620,614,609,604,602,600,598,597,591,587,581,572,565,531,516],"ymouse":[537,537,537,537,537,537,537,537,537,537,537,537,537,537,537,537,537,537,537,537,537,537,537,537,537,537,537,537,537,537,537,537,525,507,480,455,407,301,259,238,221,211,198,194,191,187,178,158,146,137,128,124,105,96],"timestamp_mouse":[12,24,41,61,81,101,122,141,162,181,200,222,242,261,280,301,320,341,360,380,400,421,440,460,480,502,521,542,561,582,600,620,641,661,681,702,722,742,761,780,801,821,841,862,881,901,920,940,960,981,1001,1021,1041,1061],"xSR":741.5,"ySR":469.95,"xT1":424.9,"yT1":0,"xT2":1058.1,"yT2":0,"toosoon":0,"cond_shown":"equaldotsize","ratio_trial":250,"smaller_num":"6","larger_num":"24","correct_side":1,"subjID":"Cristianforero22","gender":"0","age":"11","school":"6"},{"start_time":1551794879174,"click_time":1551794880369,"finger_time":1551794880010,"fix_duration":944.6409425586187,"trial":3,"RT":836,"MT":359,"sideResp":1,"stimulus":"img/900/equaldotsize/L/1_Ratio_900_L_10_R_9.png","xmouse":[790,790,790,790,790,790,790,790,790,790,790,790,790,790,790,790,790,790,790,790,790,790,790,790,790,790,790,790,790,790,790,790,790,790,790,790,790,790,790,786,782,772,739,712,671,646,625,606,601,601,600,598,594,590,588,586,581,554,535,515],"ymouse":[488,488,488,488,488,488,488,488,488,488,488,488,488,488,488,488,488,488,488,488,488,488,488,488,488,488,488,488,488,488,488,488,488,488,488,488,488,488,488,478,472,455,396,351,288,248,213,180,172,170,168,165,159,152,150,147,141,120,108,94],"timestamp_mouse":[16,35,55,74,94,114,134,155,174,195,215,234,254,274,296,316,334,354,374,396,415,435,454,475,494,514,535,554,576,596,615,636,655,674,695,714,735,755,774,794,815,836,854,875,894,915,935,954,974,995,1016,1034,1054,1074,1096,1116,1134,1154,1176,1195],"xSR":741.5,"ySR":469.95,"xT1":424.9,"yT1":0,"xT2":1058.1,"yT2":0,"toosoon":0,"cond_shown":"equaldotsize","ratio_trial":900,"smaller_num":"9","larger_num":"10","correct_side":1,"subjID":"Cristianforero22","gender":"0","age":"11","school":"6"},{"start_time":1551794883788,"click_time":1551794885010,"finger_time":1551794884628,"fix_duration":1177.9197896997714,"trial":4,"RT":840,"MT":382,"sideResp":1,"stimulus":"img/750/equaldotanddens/L/6_Ratio_750_L_24_R_18.png","xmouse":[794,794,794,794,794,794,794,794,794,794,794,794,794,794,794,794,794,794,794,794,794,794,794,794,794,794,794,794,794,794,794,794,794,794,794,794,794,794,794,792,788,777,739,721,697,670,652,609,584,565,553,544,538,537,536,530,520,504,500,499,497,497],"ymouse":[497,497,497,497,497,497,497,497,497,497,497,497,497,497,497,497,497,497,497,497,497,497,497,497,497,497,497,497,497,497,497,497,497,497,497,497,497,497,497,494,489,471,422,401,372,333,307,252,225,206,190,176,160,158,156,147,136,117,111,107,102,99],"timestamp_mouse":[10,22,41,62,80,101,121,140,160,181,202,221,240,261,282,300,320,341,360,382,402,421,441,460,482,501,520,542,562,581,600,622,641,660,680,702,722,740,761,780,801,822,840,860,880,901,921,941,961,980,1001,1021,1041,1061,1080,1101,1122,1142,1161,1181,1201,1222],"xSR":741.5,"ySR":469.95,"xT1":424.9,"yT1":0,"xT2":1058.1,"yT2":0,"toosoon":0,"cond_shown":"equaldotanddens","ratio_trial":750,"smaller_num":"18","larger_num":"24","correct_side":1,"subjID":"Cristianforero22","gender":"0","age":"11","school":"6"},{"start_time":1551794888133,"click_time":1551794889729,"finger_time":1551794889029,"fix_duration":863.3193322103141,"trial":5,"RT":896,"MT":700,"sideResp":1,"stimulus":"img/250/equaldotanddens/L/1_Ratio_250_L_8_R_2.png","xmouse":[816,816,816,816,816,816,816,816,816,816,816,816,816,816,816,816,816,816,816,816,816,816,816,816,816,816,816,816,816,816,816,816,816,816,816,814,810,806,805,802,796,786,773,757,722,706,693,681,673,656,651,647,642,639,633,629,623,614,607,593,587,581,575,570,556,547,544,544,546,546,546,546,546,546,546,546,546,541,532,506],"ymouse":[544,544,544,544,544,544,544,544,544,544,544,544,544,544,544,544,544,544,544,544,544,544,544,544,544,544,544,544,544,544,544,544,544,544,544,543,541,540,539,538,534,524,512,499,472,460,450,430,416,382,369,360,348,340,326,317,305,286,270,238,224,209,195,180,129,96,73,52,44,43,43,43,43,43,43,43,43,43,46,57],"timestamp_mouse":[31,35,55,76,95,117,137,157,176,197,215,235,256,276,297,316,336,355,375,395,417,436,456,475,495,515,535,557,576,595,616,635,656,675,696,717,735,756,776,795,816,835,857,877,896,915,935,956,977,995,1015,1035,1056,1075,1096,1116,1137,1156,1176,1196,1216,1235,1255,1277,1296,1315,1335,1357,1376,1396,1415,1435,1457,1476,1496,1516,1536,1555,1575,1595],"xSR":741.5,"ySR":469.95,"xT1":424.9,"yT1":0,"xT2":1058.1,"yT2":0,"toosoon":0,"cond_shown":"equaldotanddens","ratio_trial":250,"smaller_num":"2","larger_num":"8","correct_side":1,"subjID":"Cristianforero22","gender":"0","age":"11","school":"6"},{"start_time":1551794891639,"click_time":1551794893269,"finger_time":1551794892649,"fix_duration":1128.0342341187481,"trial":6,"RT":1010,"MT":620,"sideResp":2,"stimulus":"img/900/equaldotsize/R/6_Ratio_900_L_9_R_10.png","xmouse":[784,784,784,784,784,784,784,784,784,784,784,784,784,784,784,784,784,784,784,784,784,784,784,784,784,784,784,784,784,784,784,784,784,784,784,784,784,784,784,784,784,784,784,784,784,784,784,784,784,792,802,815,821,822,829,841,859,875,892,934,947,957,967,975,1005,1032,1058,1073,1080,1081,1081,1081,1081,1081,1081,1081,1081,1081,1081,1081,1081,1081],"ymouse":[506,506,506,507,507,507,507,507,507,507,507,507,507,507,507,507,507,507,507,507,507,507,507,507,507,507,507,507,507,507,507,507,507,507,507,507,507,507,507,507,507,507,507,507,507,507,507,505,499,473,454,431,419,412,391,373,354,334,315,269,252,239,223,210,176,158,141,129,122,120,120,120,120,120,115,114,114,113,111,104,101,98],"timestamp_mouse":[12,37,50,69,91,109,130,151,169,190,210,230,249,270,289,310,330,350,369,391,409,430,449,470,489,509,531,550,570,591,609,631,650,671,689,709,730,749,771,790,809,830,850,871,889,911,930,950,970,989,1010,1030,1050,1069,1089,1110,1130,1150,1170,1191,1209,1229,1250,1271,1289,1310,1329,1350,1371,1390,1409,1431,1449,1469,1489,1510,1530,1550,1570,1589,1609,1630],"xSR":741.5,"ySR":469.95,"xT1":424.9,"yT1":0,"xT2":1058.1,"yT2":0,"toosoon":0,"cond_shown":"equaldotsize","ratio_trial":900,"smaller_num":"9","larger_num":"10","correct_side":2,"subjID":"Cristianforero22","gender":"0","age":"11","school":"6"},{"start_time":1551794894535,"click_time":1551794895608,"finger_time":1551794895310,"fix_duration":344.56469009824986,"trial":7,"RT":775,"MT":298,"sideResp":1,"stimulus":"img/250/equaldotanddens/L/15_Ratio_250_L_12_R_3.png","xmouse":[808,808,808,808,808,808,808,808,808,808,808,808,808,808,808,808,808,808,808,808,808,808,808,808,808,808,808,808,808,808,808,808,808,808,808,807,800,794,784,763,752,738,727,716,696,681,674,660,647,619,594,561,529,494],"ymouse":[504,504,504,504,504,504,504,504,504,504,504,504,504,504,504,504,504,504,504,504,504,504,504,504,504,504,504,504,504,504,504,504,504,504,504,504,490,475,457,422,401,378,359,339,302,271,260,231,211,163,134,98,63,6],"timestamp_mouse":[14,40,54,75,94,113,135,153,175,194,213,235,254,273,293,314,335,353,373,395,415,433,455,474,493,515,535,553,575,594,615,634,654,675,693,714,734,754,775,793,813,834,854,874,894,913,933,954,973,994,1013,1033,1055,1073],"xSR":741.5,"ySR":469.95,"xT1":424.9,"yT1":0,"xT2":1058.1,"yT2":0,"toosoon":0,"cond_shown":"equaldotanddens","ratio_trial":250,"smaller_num":"3","larger_num":"12","correct_side":1,"subjID":"Cristianforero22","gender":"0","age":"11","school":"6"},{"start_time":1551794897505,"click_time":1551794899710,"finger_time":1551794899028,"fix_duration":1114.35024746998,"trial":8,"RT":1523,"MT":682,"sideResp":1,"stimulus":"img/250/randomdotsizeEA/L/1_Ratio_250_L_8_R_2.png","xmouse":[821,821,821,821,821,821,821,821,821,821,821,821,821,821,821,821,821,821,821,821,821,821,821,821,821,821,821,821,821,821,821,821,821,821,821,821,821,821,821,821,821,821,821,820,820,820,819,819,819,818,818,818,818,818,818,818,818,818,818,818,818,818,818,818,818,818,818,818,818,818,818,818,818,817,814,798,741,689,630,553,498,376,328,285,258,244,236,236,236,236,236,236,236,239,255,268,274,278,278,282,284,292,297,315,344,362,383,392,394,410,439],"ymouse":[537,537,537,537,537,537,537,537,537,537,537,537,537,537,537,537,537,537,537,537,537,537,537,537,537,537,537,537,537,537,537,537,537,537,537,537,537,537,537,537,537,537,537,536,536,536,534,534,532,531,531,531,531,531,531,531,531,531,531,531,531,531,531,531,531,531,531,531,531,531,531,531,531,530,526,507,453,414,368,297,244,133,91,55,32,22,13,13,13,13,13,13,13,13,20,24,29,31,32,34,36,39,40,49,56,62,66,67,67,67,67],"timestamp_mouse":[10,39,45,64,83,103,125,143,164,185,204,223,245,264,285,304,324,344,365,383,403,425,443,464,483,504,523,543,563,583,604,623,644,664,683,704,724,743,763,783,805,824,844,864,884,903,924,943,963,984,1003,1023,1045,1064,1084,1103,1124,1144,1164,1183,1203,1224,1244,1264,1283,1304,1324,1345,1363,1385,1403,1425,1443,1464,1483,1505,1523,1543,1563,1583,1605,1625,1644,1664,1684,1704,1724,1744,1763,1784,1805,1824,1844,1864,1883,1903,1923,1944,1963,1985,2004,2024,2044,2063,2083,2103,2123,2143,2164,2184,2205],"xSR":741.5,"ySR":469.95,"xT1":424.9,"yT1":0,"xT2":1058.1,"yT2":0,"toosoon":0,"cond_shown":"randomdotsizeEA","ratio_trial":250,"smaller_num":"2","larger_num":"8","correct_side":1,"subjID":"Cristianforero22","gender":"0","age":"11","school":"6"},{"start_time":1551794901804,"click_time":1551794903068,"finger_time":1551794902768,"fix_duration":1433.02317367043,"trial":9,"RT":964,"MT":300,"sideResp":2,"stimulus":"img/750/equaldotsize/R/2_Ratio_750_L_6_R_8.png","xmouse":[779,779,779,779,779,779,779,779,779,779,779,779,779,779,779,779,779,779,779,779,779,779,779,779,779,779,779,779,779,779,779,779,779,779,779,779,779,779,779,779,779,779,779,779,779,779,788,796,807,823,844,908,941,966,995,1010,1034,1045,1054,1064,1068,1071,1071,1071],"ymouse":[506,506,506,506,506,506,506,506,506,506,506,506,506,506,506,506,506,506,506,506,506,506,506,506,506,506,506,506,506,506,506,506,506,506,506,506,506,506,506,506,506,506,504,502,500,497,485,475,460,441,417,352,322,293,251,232,194,175,155,138,124,104,101,99],"timestamp_mouse":[9,38,45,66,84,105,126,144,166,186,204,225,244,265,284,305,326,344,364,385,405,424,444,465,486,505,524,544,565,585,605,625,645,664,685,704,724,744,764,786,804,824,844,865,885,904,924,945,964,985,1004,1024,1045,1064,1085,1104,1125,1145,1165,1185,1204,1224,1245,1264],"xSR":741.5,"ySR":469.95,"xT1":424.9,"yT1":0,"xT2":1058.1,"yT2":0,"toosoon":0,"cond_shown":"equaldotsize","ratio_trial":750,"smaller_num":"6","larger_num":"8","correct_side":2,"subjID":"Cristianforero22","gender":"0","age":"11","school":"6"},{"start_time":1551794904385,"click_time":1551794905790,"finger_time":1551794905248,"fix_duration":294.7035084641524,"trial":10,"RT":863,"MT":542,"sideResp":1,"stimulus":"img/750/equaldotanddens/L/14_Ratio_750_L_8_R_6.png","xmouse":[790,790,790,790,790,790,790,790,790,790,790,790,790,790,790,790,790,790,790,790,790,790,790,790,790,790,790,790,790,790,790,790,790,790,790,790,790,790,790,790,790,789,767,742,702,679,654,623,606,587,566,542,505,497,494,493,491,488,487,486,485,485,485,485,485,486,486,487,487,487,487],"ymouse":[506,506,506,506,506,506,506,506,506,506,506,506,506,506,506,506,506,506,506,506,506,506,506,506,506,506,506,506,506,506,506,506,506,506,506,506,506,506,506,506,506,506,478,447,400,373,345,313,296,280,266,253,229,223,219,217,211,201,195,186,175,166,148,141,133,122,116,108,105,102,98],"timestamp_mouse":[8,24,43,63,84,103,124,143,164,184,205,223,245,264,284,303,324,345,364,385,405,424,445,464,483,505,523,544,563,583,603,625,643,664,683,705,725,743,765,785,803,824,843,863,883,904,924,943,963,984,1004,1024,1043,1064,1084,1104,1125,1144,1164,1184,1205,1223,1243,1264,1285,1304,1325,1343,1363,1385,1405],"xSR":741.5,"ySR":469.95,"xT1":424.9,"yT1":0,"xT2":1058.1,"yT2":0,"toosoon":0,"cond_shown":"equaldotanddens","ratio_trial":750,"smaller_num":"6","larger_num":"8","correct_side":1,"subjID":"Cristianforero22","gender":"0","age":"11","school":"6"},{"start_time":1551794907098,"click_time":1551794909329,"finger_time":1551794907988,"fix_duration":449.1261615090676,"trial":11,"RT":890,"MT":1341,"sideResp":2,"stimulus":"img/900/randomdotsizeEA/L/4_Ratio_900_L_20_R_18.png","xmouse":[789,789,789,789,789,789,789,789,789,789,789,789,789,789,789,789,789,789,789,789,789,789,789,789,789,789,789,789,789,789,789,789,789,789,789,789,789,789,789,789,789,789,774,756,726,683,577,540,509,472,457,438,433,431,429,426,420,417,416,416,416,416,416,416,417,417,420,422,422,422,422,422,425,427,429,429,430,434,441,452,471,552,632,719,799,875,1054,1181,1239,1265,1282,1287,1287,1285,1277,1268,1236,1217,1179,1158,1149,1145,1145,1145,1145,1143,1140,1139,1137,1136,1134,1123],"ymouse":[510,510,510,510,510,510,510,510,510,510,510,510,510,510,510,510,510,510,510,510,510,510,510,510,510,510,510,510,510,510,510,510,510,510,510,510,510,510,510,510,510,510,497,484,463,439,366,335,309,276,262,239,230,221,214,206,186,174,171,163,159,158,156,156,155,153,145,143,143,143,143,143,148,151,154,154,155,160,166,174,184,213,232,245,252,252,252,233,213,200,189,182,178,171,161,152,137,131,123,120,119,118,118,118,117,116,110,108,106,104,101,84],"timestamp_mouse":[14,38,51,72,90,111,130,152,171,190,211,231,252,272,291,311,330,351,370,392,410,431,450,472,490,511,530,551,572,590,611,630,652,671,690,711,731,750,770,792,810,832,850,871,890,910,930,950,970,990,1010,1032,1051,1070,1091,1111,1130,1150,1170,1190,1210,1231,1252,1270,1292,1311,1330,1352,1372,1390,1411,1431,1450,1471,1491,1511,1531,1550,1571,1590,1611,1630,1651,1672,1691,1711,1731,1750,1771,1791,1811,1831,1851,1872,1891,1910,1930,1951,1971,1991,2011,2031,2050,2070,2090,2111,2130,2152,2171,2192,2211,2231],"xSR":741.5,"ySR":469.95,"xT1":424.9,"yT1":0,"xT2":1058.1,"yT2":0,"toosoon":0,"cond_shown":"randomdotsizeEA","ratio_trial":900,"smaller_num":"18","larger_num":"20","correct_side":1,"subjID":"Cristianforero22","gender":"0","age":"11","school":"6"},{"start_time":1551794917381,"click_time":1551794918609,"finger_time":1551794918169,"fix_duration":250,"trial":12,"RT":788,"MT":440,"sideResp":2,"stimulus":"img/500/equaldotanddens/R/9_Ratio_500_L_2_R_4.png","xmouse":[806,806,806,806,806,806,806,806,806,806,806,806,806,806,806,806,806,806,806,806,806,806,806,806,806,806,806,806,806,806,806,806,806,806,806,806,806,811,836,905,992,1087,1232,1250,1254,1254,1252,1248,1247,1246,1243,1238,1214,1201,1185,1175,1169,1162,1161,1161,1160,1155],"ymouse":[512,512,512,512,512,512,512,512,512,512,512,512,512,512,512,512,512,512,512,512,512,512,512,512,512,512,512,512,512,512,512,512,512,512,512,512,512,506,485,437,374,307,188,164,151,142,138,129,123,112,100,91,76,73,71,68,66,63,63,63,63,63],"timestamp_mouse":[8,40,48,68,88,108,128,149,167,189,207,229,248,267,289,308,329,347,368,389,407,429,448,468,487,508,528,547,567,589,608,628,647,667,687,709,728,747,768,788,808,829,847,868,889,908,927,947,968,987,1008,1028,1047,1067,1088,1108,1127,1148,1167,1188,1208,1228],"xSR":741.5,"ySR":469.95,"xT1":424.9,"yT1":0,"xT2":1058.1,"yT2":0,"toosoon":0,"cond_shown":"equaldotanddens","ratio_trial":500,"smaller_num":"2","larger_num":"4","correct_side":2,"subjID":"Cristianforero22","gender":"0","age":"11","school":"6"},{"start_time":1551794921621,"click_time":1551794922808,"finger_time":1551794922228,"fix_duration":470.76159657138663,"trial":13,"RT":607,"MT":580,"sideResp":1,"stimulus":"img/500/randomdotsizeEA/R/14_Ratio_500_L_5_R_10.png","xmouse":[796,796,796,796,796,796,796,796,796,796,796,796,796,796,796,796,796,796,796,796,796,796,796,796,795,792,787,776,768,760,712,673,617,596,584,558,540,520,504,494,477,464,439,423,409,393,388,386,385,385,385,385,385,385,387,400,407,415,421,427],"ymouse":[548,548,548,548,548,548,548,548,548,548,548,548,548,548,548,548,548,548,548,548,548,548,548,548,548,548,548,543,537,531,496,466,409,381,362,323,304,287,272,254,208,186,156,136,116,81,65,53,44,40,39,39,39,39,41,53,55,59,62,65],"timestamp_mouse":[8,38,48,68,87,108,129,147,169,188,207,228,248,269,289,308,327,349,367,387,409,428,447,467,488,508,528,548,569,588,607,628,647,667,688,708,728,748,769,788,808,827,849,869,889,908,928,947,967,987,1008,1028,1049,1068,1088,1109,1128,1148,1168,1187],"xSR":741.5,"ySR":469.95,"xT1":424.9,"yT1":0,"xT2":1058.1,"yT2":0,"toosoon":0,"cond_shown":"randomdotsizeEA","ratio_trial":500,"smaller_num":"5","larger_num":"10","correct_side":2,"subjID":"Cristianforero22","gender":"0","age":"11","school":"6"},{"start_time":1551794924594,"click_time":1551794926109,"finger_time":1551794925628,"fix_duration":843.2060870035053,"trial":14,"RT":1034,"MT":481,"sideResp":2,"stimulus":"img/750/randomdotsizeEA/L/8_Ratio_750_L_4_R_3.png","xmouse":[758,758,758,758,758,758,758,758,758,758,758,758,758,758,758,758,758,758,758,758,758,758,758,758,758,758,758,758,758,758,758,758,758,758,758,758,758,758,758,758,758,758,758,758,758,758,758,770,788,800,806,848,882,931,965,998,1032,1032,1032,1032,1032,1032,1032,1032,1032,1032,1032,1032,1032,1032,1032,1032,1032,1032,1032,1135],"ymouse":[544,544,544,544,544,544,544,544,544,544,544,544,544,544,544,544,544,544,544,544,544,544,544,544,544,544,544,544,544,544,544,544,544,544,544,544,544,544,544,544,544,544,544,544,544,544,544,540,519,497,471,356,281,186,136,85,18,18,18,18,18,18,18,18,18,18,18,18,18,18,18,18,18,18,18,4],"timestamp_mouse":[15,35,55,74,96,114,134,156,174,195,215,236,254,276,294,315,334,356,375,396,414,435,455,475,495,515,534,554,575,595,616,635,656,676,694,716,735,754,775,796,815,835,855,875,895,914,935,955,975,995,1014,1034,1055,1075,1095,1115,1135,1155,1174,1195,1216,1236,1254,1274,1295,1315,1335,1356,1375,1395,1415,1436,1455,1475,1494,1515],"xSR":741.5,"ySR":469.95,"xT1":424.9,"yT1":0,"xT2":1058.1,"yT2":0,"toosoon":0,"cond_shown":"randomdotsizeEA","ratio_trial":750,"smaller_num":"3","larger_num":"4","correct_side":1,"subjID":"Cristianforero22","gender":"0","age":"11","school":"6"},{"start_time":1551794927376,"click_time":1551794928610,"finger_time":1551794928228,"fix_duration":546.3508683075107,"trial":15,"RT":852,"MT":382,"sideResp":2,"stimulus":"img/500/equaldotanddens/R/12_Ratio_500_L_1_R_2.png","xmouse":[765,765,764,763,762,762,762,762,762,762,762,762,762,762,762,762,761,761,761,761,761,761,761,761,761,761,761,761,761,761,761,761,761,761,761,761,761,767,774,779,785,801,855,883,900,908,911,912,912,912,912,913,920,926,929,944,959,1017,1045,1082,1110,1130],"ymouse":[525,525,526,527,527,527,527,527,527,527,527,527,527,527,527,527,527,527,527,527,527,527,527,527,527,527,527,527,527,527,527,527,527,527,527,527,527,525,520,513,500,476,390,334,302,285,274,270,270,270,270,268,260,256,253,242,227,173,147,122,102,86],"timestamp_mouse":[13,32,54,73,94,112,133,154,172,194,213,233,254,272,293,313,332,353,374,392,414,432,454,474,493,513,533,552,572,594,614,632,653,673,693,713,733,753,773,792,813,833,852,873,893,913,932,952,973,992,1012,1033,1053,1073,1092,1113,1133,1153,1173,1192,1213,1234],"xSR":741.5,"ySR":469.95,"xT1":424.9,"yT1":0,"xT2":1058.1,"yT2":0,"toosoon":0,"cond_shown":"equaldotanddens","ratio_trial":500,"smaller_num":"1","larger_num":"2","correct_side":2,"subjID":"Cristianforero22","gender":"0","age":"11","school":"6"},{"start_time":1551794929773,"click_time":1551794930808,"finger_time":1551794930468,"fix_duration":342.26880833681594,"trial":16,"RT":695,"MT":340,"sideResp":1,"stimulus":"img/500/equaldotsize/L/7_Ratio_500_L_10_R_5.png","xmouse":[810,810,810,810,810,810,810,810,810,810,810,810,810,811,811,812,812,812,812,812,812,812,812,812,812,812,812,812,812,812,812,809,803,775,745,725,694,646,631,616,601,590,575,567,563,552,543,534,530,527,522,512],"ymouse":[514,514,514,514,514,514,514,514,514,514,514,514,514,514,514,515,515,515,515,515,515,515,515,515,515,515,515,515,515,515,515,513,504,475,446,424,382,317,297,279,259,244,225,215,211,195,182,163,149,130,107,79],"timestamp_mouse":[18,46,56,77,95,115,136,156,177,195,215,236,256,275,296,316,336,356,377,396,415,437,457,476,495,517,536,555,577,595,617,635,656,677,695,716,737,757,776,795,816,837,856,876,895,917,935,956,976,997,1015,1035],"xSR":741.5,"ySR":469.95,"xT1":424.9,"yT1":0,"xT2":1058.1,"yT2":0,"toosoon":0,"cond_shown":"equaldotsize","ratio_trial":500,"smaller_num":"5","larger_num":"10","correct_side":1,"subjID":"Cristianforero22","gender":"0","age":"11","school":"6"},{"start_time":1551794932489,"click_time":1551794933488,"finger_time":1551794933188,"fix_duration":1158.4649627667309,"trial":17,"RT":699,"MT":300,"sideResp":1,"stimulus":"img/750/equaldotanddens/L/6_Ratio_750_L_24_R_18.png","xmouse":[804,804,804,804,804,804,804,804,804,804,804,804,804,804,804,804,804,804,804,804,804,804,804,804,804,804,804,804,804,804,803,799,779,766,743,693,622,487,449,414,401,392,390,389,388,386,385,385,399,414,433],"ymouse":[536,536,536,536,536,536,536,536,536,536,536,536,536,536,536,536,536,536,536,536,536,536,536,536,536,536,536,536,536,536,535,535,530,522,505,469,418,317,277,230,210,197,179,166,155,147,138,131,114,102,88],"timestamp_mouse":[1,21,40,60,81,99,120,140,160,180,199,219,240,260,279,300,321,340,359,381,399,421,440,461,481,500,521,540,559,579,601,621,639,660,680,699,720,740,761,779,799,819,840,860,880,900,919,940,961,980,999],"xSR":741.5,"ySR":469.95,"xT1":424.9,"yT1":0,"xT2":1058.1,"yT2":0,"toosoon":0,"cond_shown":"equaldotanddens","ratio_trial":750,"smaller_num":"18","larger_num":"24","correct_side":1,"subjID":"Cristianforero22","gender":"0","age":"11","school":"6"},{"start_time":1551794934944,"click_time":1551794936509,"finger_time":1551794936229,"fix_duration":494.6017868685583,"trial":18,"RT":1285,"MT":280,"sideResp":1,"stimulus":"img/750/randomdotsizeEA/L/8_Ratio_750_L_4_R_3.png","xmouse":[757,757,757,757,757,757,757,757,757,757,757,755,755,754,754,754,754,754,754,754,754,754,754,754,754,754,754,754,754,754,754,754,754,754,754,754,754,754,754,754,754,754,754,754,754,754,754,754,754,754,754,754,754,754,754,754,754,754,754,754,754,750,747,744,738,735,730,729,726,709,696,678,659,628,564,539,521,513,507],"ymouse":[528,528,528,528,528,528,528,528,528,528,528,528,528,528,528,528,528,528,528,528,528,529,529,529,529,529,529,529,529,529,529,529,529,529,529,529,529,529,529,529,529,529,529,529,529,529,529,529,529,529,529,529,529,529,529,529,529,529,529,529,528,524,519,511,502,498,491,489,482,453,432,401,369,320,206,161,122,105,97],"timestamp_mouse":[9,36,45,65,85,104,126,146,165,184,205,226,245,264,284,305,326,345,366,385,404,425,444,466,485,505,524,545,566,585,605,625,646,664,686,706,724,745,766,785,805,824,844,865,885,906,925,945,965,986,1005,1025,1045,1065,1085,1105,1125,1145,1164,1184,1205,1225,1246,1265,1285,1305,1325,1345,1365,1385,1405,1425,1445,1465,1485,1505,1525,1545,1565],"xSR":741.5,"ySR":469.95,"xT1":424.9,"yT1":0,"xT2":1058.1,"yT2":0,"toosoon":0,"cond_shown":"randomdotsizeEA","ratio_trial":750,"smaller_num":"3","larger_num":"4","correct_side":1,"subjID":"Cristianforero22","gender":"0","age":"11","school":"6"},{"start_time":1551794937667,"click_time":1551794938990,"finger_time":1551794938529,"fix_duration":377.3837362288356,"trial":19,"RT":862,"MT":461,"sideResp":2,"stimulus":"img/750/equaldotanddens/R/11_Ratio_750_L_12_R_16.png","xmouse":[775,775,775,775,775,775,775,775,775,775,775,775,775,775,775,775,775,775,775,775,775,775,775,775,775,775,775,775,775,775,775,775,775,775,775,775,776,777,780,787,789,802,818,863,881,893,904,912,924,931,937,944,953,991,1011,1024,1032,1036,1039,1039,1039,1040,1043,1050,1053,1056,1061],"ymouse":[543,543,543,543,543,543,543,543,543,543,543,543,543,543,543,543,543,543,543,543,543,543,543,543,543,543,543,543,543,543,543,543,543,543,543,543,540,537,531,518,514,494,471,401,372,351,332,316,292,283,273,259,242,192,167,151,140,133,126,124,120,114,107,94,91,88,85],"timestamp_mouse":[8,31,41,61,82,102,123,143,162,183,201,223,242,262,282,301,322,341,361,382,401,423,441,461,482,501,522,542,561,582,602,623,643,662,681,703,721,742,762,781,803,823,842,862,882,902,922,942,962,983,1002,1022,1043,1062,1082,1101,1122,1141,1161,1181,1201,1222,1241,1261,1282,1302,1323],"xSR":741.5,"ySR":469.95,"xT1":424.9,"yT1":0,"xT2":1058.1,"yT2":0,"toosoon":0,"cond_shown":"equaldotanddens","ratio_trial":750,"smaller_num":"12","larger_num":"16","correct_side":2,"subjID":"Cristianforero22","gender":"0","age":"11","school":"6"},{"start_time":1551794939980,"click_time":1551794941089,"finger_time":1551794940729,"fix_duration":250,"trial":20,"RT":749,"MT":360,"sideResp":1,"stimulus":"img/500/equaldotsize/L/8_Ratio_500_L_8_R_4.png","xmouse":[772,772,772,772,772,772,772,772,772,772,772,772,772,772,772,772,772,772,772,772,772,772,772,772,772,772,772,772,772,772,772,772,772,772,767,759,747,686,643,618,599,584,564,553,542,538,536,526,521,519,518,516,509,499,476,449],"ymouse":[536,536,536,536,536,536,536,536,536,536,536,536,536,536,536,536,536,536,536,536,536,536,536,536,536,536,536,536,536,536,536,536,536,532,523,513,497,422,375,350,331,312,273,253,229,216,206,189,180,175,170,165,150,137,109,85],"timestamp_mouse":[9,32,49,68,90,108,129,148,169,188,208,229,249,270,290,310,330,348,368,390,410,428,448,469,488,510,528,549,569,590,609,629,648,670,689,709,728,749,768,788,809,828,849,869,889,910,929,949,968,989,1009,1029,1049,1070,1089,1109],"xSR":741.5,"ySR":469.95,"xT1":424.9,"yT1":0,"xT2":1058.1,"yT2":0,"toosoon":0,"cond_shown":"equaldotsize","ratio_trial":500,"smaller_num":"4","larger_num":"8","correct_side":1,"subjID":"Cristianforero22","gender":"0","age":"11","school":"6"},{"start_time":1551794943047,"click_time":1551794944269,"finger_time":1551794943770,"fix_duration":1118.014016045311,"trial":21,"RT":723,"MT":499,"sideResp":1,"stimulus":"img/900/equaldotsize/L/1_Ratio_900_L_10_R_9.png","xmouse":[826,826,826,826,825,822,821,820,819,818,816,812,810,810,810,810,809,809,809,809,809,809,809,809,809,809,809,809,809,809,809,809,809,809,801,782,759,721,670,573,541,522,499,477,414,380,351,331,323,319,319,319,326,335,351,357,361,366,374,402,415,432],"ymouse":[495,495,495,495,496,496,497,497,497,497,498,498,499,499,499,499,499,499,499,499,499,499,499,499,499,499,499,499,499,499,499,499,499,499,496,483,465,432,392,330,310,294,273,257,211,186,162,144,129,114,113,112,110,106,98,96,95,94,91,84,80,74],"timestamp_mouse":[11,34,43,63,82,102,122,142,162,182,202,222,242,263,282,302,321,341,361,382,402,422,443,462,482,501,521,543,561,581,602,622,643,662,681,702,723,743,763,782,802,822,842,862,882,902,921,942,962,982,1002,1022,1042,1062,1083,1102,1121,1142,1163,1182,1201,1222],"xSR":741.5,"ySR":469.95,"xT1":424.9,"yT1":0,"xT2":1058.1,"yT2":0,"toosoon":0,"cond_shown":"equaldotsize","ratio_trial":900,"smaller_num":"9","larger_num":"10","correct_side":1,"subjID":"Cristianforero22","gender":"0","age":"11","school":"6"},{"start_time":1551794945818,"click_time":1551794946990,"finger_time":1551794946570,"fix_duration":906.8877947267347,"trial":22,"RT":752,"MT":420,"sideResp":2,"stimulus":"img/900/equaldotsize/R/14_Ratio_900_L_18_R_20.png","xmouse":[797,797,797,797,797,797,797,797,797,797,797,797,797,797,797,797,797,797,797,797,797,797,797,797,797,797,797,797,797,797,797,797,797,797,797,797,806,828,869,908,976,1011,1051,1051,1051,1051,1051,1051,1051,1051,1051,1051,1051,1051,1051,1051,1051,1051,1104],"ymouse":[532,532,532,532,532,532,532,532,532,532,532,532,532,532,532,532,532,532,532,532,532,532,532,532,532,532,532,532,532,532,532,532,532,532,532,532,517,461,374,280,111,53,6,6,6,6,6,6,6,6,6,6,6,6,6,6,6,6,2],"timestamp_mouse":[11,31,53,70,91,112,130,152,170,191,210,232,250,270,292,311,332,350,370,391,412,431,451,470,491,511,531,551,571,592,610,631,652,670,692,711,730,752,772,790,810,831,851,870,891,911,931,951,971,992,1011,1031,1051,1072,1092,1112,1132,1152,1172],"xSR":741.5,"ySR":469.95,"xT1":424.9,"yT1":0,"xT2":1058.1,"yT2":0,"toosoon":0,"cond_shown":"equaldotsize","ratio_trial":900,"smaller_num":"18","larger_num":"20","correct_side":2,"subjID":"Cristianforero22","gender":"0","age":"11","school":"6"},{"start_time":1551794948771,"click_time":1551794949970,"finger_time":1551794949570,"fix_duration":918.8258746951306,"trial":23,"RT":799,"MT":400,"sideResp":2,"stimulus":"img/250/equaldotanddens/R/8_Ratio_250_L_1_R_4.png","xmouse":[783,783,783,783,783,783,783,783,783,783,783,783,783,783,783,783,783,783,783,782,782,782,782,782,782,782,782,782,782,782,782,782,782,782,782,782,782,782,799,821,863,925,994,1130,1181,1210,1210,1210,1210,1210,1210,1210,1210,1210,1210,1210,1210,1210,1210,1210,1107],"ymouse":[518,518,518,518,518,518,518,518,518,518,518,518,518,518,518,518,518,518,518,519,519,519,519,520,520,520,520,520,520,520,520,520,520,520,520,520,520,520,508,493,454,389,303,140,66,9,9,9,9,9,9,9,9,9,9,9,9,9,9,9,2],"timestamp_mouse":[1,17,38,59,77,98,117,139,157,177,198,219,237,258,277,299,319,337,357,379,397,418,437,459,478,497,519,538,558,578,599,617,639,658,679,697,718,738,758,778,799,818,838,857,877,898,917,938,958,978,998,1018,1037,1058,1078,1098,1118,1138,1158,1178,1199],"xSR":741.5,"ySR":469.95,"xT1":424.9,"yT1":0,"xT2":1058.1,"yT2":0,"toosoon":0,"cond_shown":"equaldotanddens","ratio_trial":250,"smaller_num":"1","larger_num":"4","correct_side":2,"subjID":"Cristianforero22","gender":"0","age":"11","school":"6"},{"start_time":1551794951521,"click_time":1551794952790,"finger_time":1551794952429,"fix_duration":609.8766499294123,"trial":24,"RT":908,"MT":361,"sideResp":1,"stimulus":"img/750/equaldotanddens/L/10_Ratio_750_L_4_R_3.png","xmouse":[801,801,801,801,801,801,801,801,801,802,802,802,802,802,802,802,802,802,802,802,802,802,802,802,802,802,802,802,802,802,802,802,802,802,802,802,802,802,802,802,802,802,798,796,791,773,752,741,692,660,630,624,621,615,608,592,584,576,563,557,538,521,508,501],"ymouse":[514,514,514,514,514,514,514,514,514,514,514,514,514,514,514,514,514,514,514,514,514,514,514,514,514,514,514,514,514,514,514,514,514,514,514,514,514,514,514,514,514,510,506,503,498,467,431,418,366,338,305,291,280,264,247,207,188,171,151,141,123,110,101,92],"timestamp_mouse":[16,40,49,68,89,107,127,148,169,187,209,228,248,269,287,307,327,348,367,387,409,428,447,469,489,508,528,549,569,587,608,628,648,669,687,708,727,748,768,787,809,828,849,867,888,908,927,947,967,989,1009,1028,1049,1067,1089,1109,1128,1148,1167,1187,1209,1228,1248,1269],"xSR":741.5,"ySR":469.95,"xT1":424.9,"yT1":0,"xT2":1058.1,"yT2":0,"toosoon":0,"cond_shown":"equaldotanddens","ratio_trial":750,"smaller_num":"3","larger_num":"4","correct_side":1,"subjID":"Cristianforero22","gender":"0","age":"11","school":"6"},{"start_time":1551794954100,"click_time":1551794955289,"finger_time":1551794954829,"fix_duration":748.4029313774209,"trial":25,"RT":729,"MT":460,"sideResp":2,"stimulus":"img/500/equaldotsize/R/15_Ratio_500_L_1_R_2.png","xmouse":[817,817,817,817,817,817,817,817,817,817,817,817,817,817,817,817,817,817,817,817,817,817,817,817,817,817,817,817,817,817,817,817,817,817,817,821,849,874,907,917,924,929,941,947,957,971,1044,1089,1163,1177,1178,1178,1177,1177,1176,1176,1176,1175,1171,1157],"ymouse":[538,537,536,536,536,536,536,536,536,536,536,536,536,536,536,536,536,536,536,536,536,536,536,536,536,536,536,536,536,536,536,536,536,534,529,516,453,406,346,326,313,303,284,272,257,241,156,109,32,18,16,16,16,16,16,16,16,17,18,21],"timestamp_mouse":[9,33,49,68,89,109,130,148,168,189,209,228,248,268,289,309,329,349,370,388,409,429,449,470,489,509,528,549,570,589,610,628,649,669,689,708,729,749,769,788,809,829,849,869,889,908,929,950,969,990,1008,1029,1050,1069,1089,1108,1129,1148,1169,1189],"xSR":741.5,"ySR":469.95,"xT1":424.9,"yT1":0,"xT2":1058.1,"yT2":0,"toosoon":0,"cond_shown":"equaldotsize","ratio_trial":500,"smaller_num":"1","larger_num":"2","correct_side":2,"subjID":"Cristianforero22","gender":"0","age":"11","school":"6"},{"start_time":1551794957291,"click_time":1551794958029,"finger_time":1551794957909,"fix_duration":1278.3300524010272,"trial":26,"RT":618,"MT":120,"sideResp":1,"stimulus":"img/500/equaldotanddens/L/13_Ratio_500_L_12_R_6.png","xmouse":[811,811,811,811,811,811,811,811,811,811,811,811,811,811,811,811,811,811,811,811,811,811,811,811,811,811,809,792,786,753,707,596,567,551,540,530,511],"ymouse":[536,536,536,536,536,536,536,536,536,536,536,536,536,536,536,536,536,536,536,536,536,536,536,536,536,536,534,520,514,474,415,262,202,162,124,91,45],"timestamp_mouse":[20,38,57,77,99,118,138,159,177,199,218,237,259,278,299,319,337,358,378,398,419,437,457,479,497,519,538,557,578,598,618,637,658,677,698,717,738],"xSR":741.5,"ySR":469.95,"xT1":424.9,"yT1":0,"xT2":1058.1,"yT2":0,"toosoon":0,"cond_shown":"equaldotanddens","ratio_trial":500,"smaller_num":"6","larger_num":"12","correct_side":1,"subjID":"Cristianforero22","gender":"0","age":"11","school":"6"},{"start_time":1551794959215,"click_time":1551794960329,"finger_time":1551794960129,"fix_duration":285.5924217786311,"trial":27,"RT":914,"MT":200,"sideResp":1,"stimulus":"img/250/randomdotsizeEA/L/2_Ratio_250_L_16_R_4.png","xmouse":[763,763,763,763,763,763,763,763,763,763,763,763,763,763,763,763,763,763,763,763,763,763,763,763,763,763,763,763,763,766,773,774,775,775,776,776,776,776,777,777,777,777,777,776,768,727,698,664,637,617,578,561,557,540,532,519],"ymouse":[509,509,509,509,509,509,509,509,509,509,509,509,509,509,509,509,509,509,509,509,509,509,509,509,509,509,509,509,509,507,500,498,497,497,496,496,496,495,494,494,494,492,491,486,478,448,422,389,354,325,251,211,200,166,146,98],"timestamp_mouse":[14,33,54,73,94,113,135,155,173,195,213,233,255,273,294,314,333,355,373,393,414,434,453,474,494,514,534,555,573,595,613,634,654,673,694,715,734,754,774,795,814,834,854,875,893,914,934,954,974,995,1013,1034,1054,1074,1095,1114],"xSR":741.5,"ySR":469.95,"xT1":424.9,"yT1":0,"xT2":1058.1,"yT2":0,"toosoon":0,"cond_shown":"randomdotsizeEA","ratio_trial":250,"smaller_num":"4","larger_num":"16","correct_side":1,"subjID":"Cristianforero22","gender":"0","age":"11","school":"6"},{"start_time":1551794963400,"click_time":1551794964729,"finger_time":1551794964189,"fix_duration":889.9595481392092,"trial":28,"RT":789,"MT":540,"sideResp":2,"stimulus":"img/900/equaldotanddens/R/5_Ratio_900_L_9_R_10.png","xmouse":[826,823,821,820,820,820,820,820,820,820,820,820,820,820,820,820,820,820,820,820,820,820,820,820,820,820,820,820,820,820,820,820,820,820,820,820,820,820,827,851,870,874,882,919,968,1033,1178,1178,1178,1178,1178,1178,1178,1178,1178,1178,1178,1178,1178,1178,1198,1179,1172,1169,1168,1168,1158],"ymouse":[534,535,536,537,537,537,537,537,537,537,537,537,537,537,537,537,537,537,537,537,537,537,537,537,537,537,537,537,537,537,537,537,537,537,537,537,537,537,528,505,485,449,410,308,235,153,13,13,13,13,13,13,13,13,13,13,13,13,13,13,7,40,49,54,55,55,65],"timestamp_mouse":[11,32,49,70,88,108,128,150,169,190,208,229,250,270,290,308,329,349,369,389,408,430,448,470,489,508,529,548,570,588,610,629,649,669,690,708,730,749,770,789,810,829,850,869,889,909,928,948,969,989,1009,1030,1048,1069,1088,1109,1130,1148,1169,1189,1209,1228,1249,1269,1289,1309,1329],"xSR":741.5,"ySR":469.95,"xT1":424.9,"yT1":0,"xT2":1058.1,"yT2":0,"toosoon":0,"cond_shown":"equaldotanddens","ratio_trial":900,"smaller_num":"9","larger_num":"10","correct_side":2,"subjID":"Cristianforero22","gender":"0","age":"11","school":"6"},{"start_time":1551794965720,"click_time":1551794967169,"finger_time":1551794966549,"fix_duration":250,"trial":29,"RT":829,"MT":620,"sideResp":2,"stimulus":"img/750/equaldotsize/R/11_Ratio_750_L_12_R_16.png","xmouse":[796,796,796,796,796,796,796,796,796,796,796,796,796,796,796,796,796,796,796,796,796,796,796,796,796,796,796,796,796,796,796,796,796,796,796,796,796,795,800,808,827,840,857,877,894,940,980,992,1013,1019,1029,1032,1039,1045,1051,1055,1058,1062,1067,1072,1089,1096,1103,1107,1110,1111,1113,1116,1119,1120,1120,1120,1121],"ymouse":[531,531,531,531,531,531,531,531,531,531,531,531,531,531,531,531,531,531,531,531,531,531,531,531,531,531,531,531,531,531,531,531,531,531,531,531,531,531,523,514,487,468,446,417,394,336,293,281,256,245,228,223,214,207,200,191,185,174,166,158,140,133,126,121,117,112,111,106,103,102,101,101,99],"timestamp_mouse":[9,29,49,69,88,108,130,149,168,189,209,228,249,268,290,309,330,349,370,390,409,430,450,469,490,509,528,550,569,589,609,630,650,668,690,709,729,749,770,790,809,829,848,869,888,908,929,948,970,990,1009,1029,1049,1069,1088,1109,1129,1149,1169,1190,1208,1229,1248,1269,1289,1309,1329,1349,1369,1388,1409,1429,1449],"xSR":741.5,"ySR":469.95,"xT1":424.9,"yT1":0,"xT2":1058.1,"yT2":0,"toosoon":0,"cond_shown":"equaldotsize","ratio_trial":750,"smaller_num":"12","larger_num":"16","correct_side":2,"subjID":"Cristianforero22","gender":"0","age":"11","school":"6"},{"start_time":1551794970867,"click_time":1551794971749,"finger_time":1551794971369,"fix_duration":1337.4365328903725,"trial":30,"RT":502,"MT":380,"sideResp":1,"stimulus":"img/900/randomdotsizeEA/L/4_Ratio_900_L_20_R_18.png","xmouse":[792,792,792,792,792,792,792,792,792,792,792,792,791,786,782,779,776,774,764,756,747,745,744,743,742,740,733,722,680,649,624,600,589,571,566,563,562,560,560,560,557,553,550,535,522],"ymouse":[536,536,536,536,536,536,536,536,536,536,536,536,534,527,520,515,511,508,496,491,486,485,483,482,480,476,465,445,379,337,306,266,242,204,190,179,170,165,161,159,153,145,138,113,92],"timestamp_mouse":[11,38,43,63,81,102,121,143,162,183,203,222,242,262,282,301,323,342,361,381,403,422,441,463,482,502,522,542,561,582,602,622,643,662,681,701,723,741,761,782,802,821,843,861,882],"xSR":741.5,"ySR":469.95,"xT1":424.9,"yT1":0,"xT2":1058.1,"yT2":0,"toosoon":0,"cond_shown":"randomdotsizeEA","ratio_trial":900,"smaller_num":"18","larger_num":"20","correct_side":1,"subjID":"Cristianforero22","gender":"0","age":"11","school":"6"},{"start_time":1551794973101,"click_time":1551794974229,"finger_time":1551794973829,"fix_duration":810.7258745462785,"trial":31,"RT":728,"MT":400,"sideResp":1,"stimulus":"img/250/randomdotsizeEA/L/3_Ratio_250_L_8_R_2.png","xmouse":[819,819,819,819,819,819,819,819,819,819,819,819,819,819,819,819,819,819,819,819,819,819,819,819,819,819,819,819,819,819,819,815,811,804,796,784,747,706,689,647,633,626,625,625,625,623,606,594,581,575,572,564,555,545,534,527,524],"ymouse":[518,518,518,518,518,518,518,518,518,518,518,518,518,518,518,518,518,518,518,518,518,518,518,518,518,518,518,518,518,518,518,510,506,498,490,477,416,308,269,176,143,115,110,108,107,105,87,75,64,60,58,55,53,50,47,45,44],"timestamp_mouse":[8,28,48,74,88,108,128,148,169,187,208,229,247,268,288,308,327,347,368,388,408,428,448,467,488,508,527,548,568,589,608,628,648,668,688,709,728,747,767,787,809,827,847,867,888,909,928,949,968,988,1008,1028,1047,1067,1088,1108,1128],"xSR":741.5,"ySR":469.95,"xT1":424.9,"yT1":0,"xT2":1058.1,"yT2":0,"toosoon":0,"cond_shown":"randomdotsizeEA","ratio_trial":250,"smaller_num":"2","larger_num":"8","correct_side":1,"subjID":"Cristianforero22","gender":"0","age":"11","school":"6"},{"start_time":1551794975162,"click_time":1551794976410,"finger_time":1551794975889,"fix_duration":250,"trial":32,"RT":727,"MT":521,"sideResp":2,"stimulus":"img/500/equaldotsize/R/1_Ratio_500_L_9_R_18.png","xmouse":[829,827,826,826,826,826,826,826,826,825,823,822,819,816,815,814,814,814,814,814,814,814,814,814,814,814,814,813,813,813,813,813,814,818,823,828,844,857,884,897,904,910,915,926,934,946,951,967,981,985,990,996,1002,1016,1026,1037,1047,1052,1073,1091,1111,1126,1136],"ymouse":[536,534,533,533,533,533,533,533,533,533,531,530,527,523,522,522,522,522,522,522,522,522,522,522,522,522,522,521,520,520,520,519,517,511,505,500,479,460,415,390,371,351,333,300,283,263,254,228,204,198,192,186,180,163,153,146,139,136,125,117,108,101,95],"timestamp_mouse":[8,26,50,67,87,108,126,148,167,187,208,228,247,267,287,307,327,347,366,387,407,427,447,466,487,507,528,547,567,587,608,627,646,667,688,707,727,748,766,787,806,827,846,867,888,907,927,947,967,987,1007,1028,1048,1067,1087,1106,1127,1147,1167,1187,1207,1227,1248],"xSR":741.5,"ySR":469.95,"xT1":424.9,"yT1":0,"xT2":1058.1,"yT2":0,"toosoon":0,"cond_shown":"equaldotsize","ratio_trial":500,"smaller_num":"9","larger_num":"18","correct_side":2,"subjID":"Cristianforero22","gender":"0","age":"11","school":"6"},{"start_time":1551794979503,"click_time":1551794980249,"finger_time":1551794980089,"fix_duration":1033.1605720493055,"trial":33,"RT":586,"MT":160,"sideResp":1,"stimulus":"img/900/randomdotsizeEA/R/12_Ratio_900_L_18_R_20.png","xmouse":[823,823,823,823,823,823,823,823,823,823,823,823,823,823,823,823,823,823,823,823,823,823,823,823,823,823,823,819,814,806,799,788,782,770,746,705,536,480],"ymouse":[513,513,513,513,513,513,513,513,513,513,513,513,513,513,513,513,513,513,513,513,513,513,513,513,513,513,511,497,478,450,434,411,399,375,326,249,53,2],"timestamp_mouse":[10,39,47,66,86,105,127,147,166,186,205,226,247,265,287,307,327,346,366,385,407,425,445,467,485,506,526,546,566,586,607,625,646,666,686,705,726,746],"xSR":741.5,"ySR":469.95,"xT1":424.9,"yT1":0,"xT2":1058.1,"yT2":0,"toosoon":0,"cond_shown":"randomdotsizeEA","ratio_trial":900,"smaller_num":"18","larger_num":"20","correct_side":2,"subjID":"Cristianforero22","gender":"0","age":"11","school":"6"},{"start_time":1551794983140,"click_time":1551794984209,"finger_time":1551794983828,"fix_duration":250,"trial":34,"RT":688,"MT":381,"sideResp":2,"stimulus":"img/750/equaldotsize/R/7_Ratio_750_L_3_R_4.png","xmouse":[799,799,799,799,799,799,799,799,799,799,799,799,799,799,799,799,799,799,799,799,799,799,799,799,799,799,799,799,799,799,799,801,805,812,830,848,889,922,966,1032,1045,1052,1056,1059,1062,1064,1071,1075,1079,1081,1081,1079,1079,1079],"ymouse":[491,494,494,495,495,495,495,496,496,496,496,496,496,496,496,496,496,496,496,496,496,496,497,498,498,498,498,498,498,498,498,498,498,488,459,437,397,371,350,324,321,317,314,308,291,279,256,240,222,187,167,143,120,93],"timestamp_mouse":[19,42,49,69,88,109,128,148,168,189,209,230,249,269,288,308,329,349,368,390,408,428,449,469,489,509,529,548,570,590,609,628,649,669,688,710,729,749,768,788,809,829,849,868,889,909,929,950,969,988,1009,1029,1049,1069],"xSR":741.5,"ySR":469.95,"xT1":424.9,"yT1":0,"xT2":1058.1,"yT2":0,"toosoon":0,"cond_shown":"equaldotsize","ratio_trial":750,"smaller_num":"3","larger_num":"4","correct_side":2,"subjID":"Cristianforero22","gender":"0","age":"11","school":"6"},{"start_time":1551794985805,"click_time":1551794987209,"finger_time":1551794986628,"fix_duration":735.462033735949,"trial":35,"RT":823,"MT":581,"sideResp":1,"stimulus":"img/900/equaldotanddens/R/11_Ratio_900_L_18_R_20.png","xmouse":[798,798,798,798,798,798,798,798,798,798,798,798,798,798,798,798,798,798,798,798,798,798,798,798,798,798,798,798,798,798,798,798,798,798,798,798,798,798,797,786,776,752,738,716,699,689,674,661,643,622,596,533,502,461,440,427,419,419,419,419,419,419,419,419,419,419,419,419,420,427,436],"ymouse":[532,532,532,532,532,532,532,532,532,532,532,532,532,532,532,532,532,532,532,532,532,532,532,532,532,532,532,532,532,532,532,532,532,532,532,532,532,532,526,507,486,444,420,386,375,370,364,356,350,340,322,273,244,194,157,132,110,107,107,107,107,107,107,107,107,107,107,107,106,103,99],"timestamp_mouse":[8,24,47,64,83,104,124,144,165,183,203,224,243,264,283,304,324,344,365,383,405,423,445,465,483,504,524,543,564,585,603,624,645,664,684,704,724,743,763,784,805,823,844,864,884,904,924,944,964,984,1003,1024,1043,1064,1083,1104,1124,1144,1164,1184,1204,1225,1245,1264,1284,1305,1324,1344,1364,1384,1403],"xSR":741.5,"ySR":469.95,"xT1":424.9,"yT1":0,"xT2":1058.1,"yT2":0,"toosoon":0,"cond_shown":"equaldotanddens","ratio_trial":900,"smaller_num":"18","larger_num":"20","correct_side":2,"subjID":"Cristianforero22","gender":"0","age":"11","school":"6"},{"start_time":1551794990162,"click_time":1551794991450,"finger_time":1551794990949,"fix_duration":250,"trial":36,"RT":787,"MT":501,"sideResp":1,"stimulus":"img/250/equaldotsize/L/1_Ratio_250_L_8_R_2.png","xmouse":[796,796,796,796,796,796,796,796,796,796,796,796,796,796,796,796,796,796,796,796,796,796,796,796,796,796,796,796,796,796,796,796,796,796,790,782,773,762,752,736,730,727,724,717,710,699,690,682,668,661,658,654,650,648,638,626,619,613,600,596,589,580,563,525,513],"ymouse":[516,516,516,516,516,516,516,516,516,516,516,516,516,516,516,516,516,516,516,516,516,516,516,516,516,516,516,516,516,516,516,516,516,516,512,506,501,495,493,481,470,462,453,428,408,379,362,334,246,210,185,164,149,142,123,107,98,92,82,80,78,76,72,60,57],"timestamp_mouse":[10,39,47,67,88,106,126,148,166,188,206,226,248,268,287,307,328,347,366,386,408,426,447,466,488,508,526,548,566,587,608,626,648,666,688,707,727,747,767,787,808,828,847,867,887,907,928,947,966,987,1007,1027,1047,1067,1087,1107,1128,1148,1167,1187,1207,1227,1247,1268,1287],"xSR":741.5,"ySR":469.95,"xT1":424.9,"yT1":0,"xT2":1058.1,"yT2":0,"toosoon":0,"cond_shown":"equaldotsize","ratio_trial":250,"smaller_num":"2","larger_num":"8","correct_side":1,"subjID":"Cristianforero22","gender":"0","age":"11","school":"6"},{"start_time":1551794993508,"click_time":1551794994808,"finger_time":1551794994228,"fix_duration":899.5676902922356,"trial":37,"RT":720,"MT":580,"sideResp":2,"stimulus":"img/900/equaldotanddens/R/3_Ratio_900_L_9_R_10.png","xmouse":[784,784,784,784,784,784,784,784,784,784,784,784,784,784,784,784,784,784,784,784,784,784,784,784,784,784,784,784,784,784,784,784,784,784,784,788,809,838,899,942,977,1011,1025,1036,1049,1062,1084,1093,1107,1122,1130,1133,1133,1133,1132,1132,1132,1131,1131,1131,1130,1128,1127,1127,1126,1126],"ymouse":[484,484,484,484,484,484,484,484,484,484,484,484,484,484,484,484,484,484,484,484,484,484,484,484,484,484,484,484,484,484,484,484,484,484,484,481,467,450,414,390,369,345,334,324,312,301,274,253,232,198,180,170,161,156,150,146,135,132,132,130,128,118,113,109,102,96],"timestamp_mouse":[9,34,42,61,81,101,121,142,160,182,200,222,240,261,282,301,321,341,360,380,401,421,440,461,481,501,521,541,561,582,600,621,641,661,682,702,720,740,761,782,802,821,840,860,880,900,921,942,961,982,1001,1021,1041,1061,1081,1102,1121,1140,1160,1182,1202,1221,1241,1261,1282,1300],"xSR":741.5,"ySR":469.95,"xT1":424.9,"yT1":0,"xT2":1058.1,"yT2":0,"toosoon":0,"cond_shown":"equaldotanddens","ratio_trial":900,"smaller_num":"9","larger_num":"10","correct_side":2,"subjID":"Cristianforero22","gender":"0","age":"11","school":"6"},{"start_time":1551794996113,"click_time":1551794997990,"finger_time":1551794997529,"fix_duration":561.0052657991819,"trial":38,"RT":1416,"MT":461,"sideResp":2,"stimulus":"img/750/randomdotsizeEA/R/7_Ratio_750_L_3_R_4.png","xmouse":[821,821,821,821,821,821,821,821,821,821,821,821,821,821,821,821,821,821,821,821,821,821,821,821,821,821,821,821,821,821,821,821,821,821,821,821,821,821,814,799,794,794,794,794,794,794,794,794,794,794,794,794,794,794,794,794,794,794,794,794,794,794,794,794,794,794,794,794,793,793,826,852,875,910,948,1011,1032,1050,1060,1061,1061,1061,1061,1061,1061,1063,1064,1065,1065,1065,1067,1069,1070,1072],"ymouse":[504,504,504,504,504,504,504,504,504,504,504,504,504,504,504,504,504,504,504,504,504,504,504,504,504,504,504,504,504,504,504,504,504,504,504,504,504,504,500,489,488,488,488,488,488,488,488,488,488,488,488,488,488,488,488,488,488,488,488,488,488,488,488,488,488,488,488,488,488,486,460,438,415,370,320,227,190,164,140,130,125,125,125,125,125,121,119,117,117,115,112,107,101,97],"timestamp_mouse":[17,37,57,76,96,116,136,157,176,195,217,236,256,277,296,316,336,356,375,396,415,437,456,475,496,515,535,556,577,595,616,635,655,676,696,716,736,756,775,797,816,835,857,877,897,916,935,956,976,995,1017,1036,1056,1077,1096,1117,1136,1155,1177,1196,1216,1237,1257,1276,1295,1315,1337,1355,1376,1395,1416,1436,1456,1476,1497,1516,1535,1555,1576,1596,1617,1636,1655,1676,1696,1716,1736,1756,1776,1796,1816,1836,1856,1877],"xSR":741.5,"ySR":469.95,"xT1":424.9,"yT1":0,"xT2":1058.1,"yT2":0,"toosoon":0,"cond_shown":"randomdotsizeEA","ratio_trial":750,"smaller_num":"3","larger_num":"4","correct_side":2,"subjID":"Cristianforero22","gender":"0","age":"11","school":"6"},{"start_time":1551794999500,"click_time":1551795000829,"finger_time":1551795000429,"fix_duration":630.7104846536371,"trial":39,"RT":929,"MT":400,"sideResp":1,"stimulus":"img/900/equaldotanddens/R/5_Ratio_900_L_9_R_10.png","xmouse":[820,820,820,820,820,820,820,820,820,820,820,820,820,820,820,820,820,820,820,820,820,820,820,820,820,820,820,820,820,820,820,820,820,820,820,820,820,820,820,818,814,801,801,801,800,799,791,786,783,779,773,749,737,725,714,706,701,701,700,699,695,670,640,598,559,528,489],"ymouse":[539,539,539,539,539,539,539,539,539,539,539,539,539,539,539,539,539,539,539,539,539,539,539,539,539,539,539,539,539,539,539,539,539,539,539,539,539,539,539,540,534,501,499,498,494,489,456,434,410,396,381,339,318,297,281,268,261,261,260,259,252,216,176,128,80,45,3],"timestamp_mouse":[10,32,49,69,89,109,129,149,169,188,209,229,248,269,289,310,330,350,369,388,410,430,449,469,489,509,529,549,569,589,608,630,649,669,690,709,729,748,769,790,809,829,849,868,889,909,929,949,969,989,1011,1028,1049,1069,1090,1109,1128,1149,1169,1189,1210,1228,1248,1269,1288,1309,1329],"xSR":741.5,"ySR":469.95,"xT1":424.9,"yT1":0,"xT2":1058.1,"yT2":0,"toosoon":0,"cond_shown":"equaldotanddens","ratio_trial":900,"smaller_num":"9","larger_num":"10","correct_side":2,"subjID":"Cristianforero22","gender":"0","age":"11","school":"6"},{"start_time":1551795002124,"click_time":1551795003529,"finger_time":1551795002989,"fix_duration":493.0485563212001,"trial":40,"RT":865,"MT":540,"sideResp":1,"stimulus":"img/750/randomdotsizeEA/R/5_Ratio_750_L_15_R_20.png","xmouse":[807,807,807,807,807,807,807,807,807,807,807,807,807,807,807,807,807,807,807,807,807,807,807,807,807,807,807,807,807,807,807,807,807,807,807,807,807,807,807,807,781,757,743,734,727,709,695,656,621,591,556,546,540,536,534,518,506,488,482,482,483,483,483,483,483,483,484,486,491,495,504],"ymouse":[537,537,537,537,537,537,537,537,537,537,537,537,537,537,537,537,537,537,537,537,537,537,537,537,537,537,537,537,537,537,537,537,537,537,537,537,537,537,537,537,529,527,527,527,526,517,509,481,452,426,390,372,346,309,265,190,164,130,116,111,108,108,108,108,108,108,107,107,106,105,96],"timestamp_mouse":[10,39,45,65,84,104,125,144,166,185,205,224,244,266,286,305,326,345,365,385,404,425,446,464,486,504,526,546,566,584,605,626,645,665,684,705,725,744,764,785,805,825,846,865,886,905,925,945,965,986,1005,1025,1045,1064,1086,1105,1126,1145,1165,1184,1205,1225,1245,1265,1286,1305,1325,1344,1364,1386,1405],"xSR":741.5,"ySR":469.95,"xT1":424.9,"yT1":0,"xT2":1058.1,"yT2":0,"toosoon":0,"cond_shown":"randomdotsizeEA","ratio_trial":750,"smaller_num":"15","larger_num":"20","correct_side":2,"subjID":"Cristianforero22","gender":"0","age":"11","school":"6"},{"start_time":1551795005956,"click_time":1551795006789,"finger_time":1551795006628,"fix_duration":1404.4040703564267,"trial":41,"RT":672,"MT":161,"sideResp":1,"stimulus":"img/250/randomdotsizeEA/L/14_Ratio_250_L_12_R_3.png","xmouse":[786,786,786,786,786,786,786,786,786,786,786,786,786,786,786,786,786,786,786,786,786,786,786,786,786,786,786,786,786,786,783,776,754,712,698,685,658,629,592,519,483,453],"ymouse":[508,508,508,508,508,508,508,508,508,508,508,508,508,508,508,508,508,508,508,508,508,508,508,508,508,508,508,508,508,508,508,507,497,473,459,440,404,363,311,183,112,44],"timestamp_mouse":[17,33,53,73,93,114,133,153,173,193,212,234,252,274,293,313,334,353,372,393,413,432,452,474,492,513,532,554,573,593,613,633,653,672,694,714,733,753,773,793,813,833],"xSR":741.5,"ySR":469.95,"xT1":424.9,"yT1":0,"xT2":1058.1,"yT2":0,"toosoon":0,"cond_shown":"randomdotsizeEA","ratio_trial":250,"smaller_num":"3","larger_num":"12","correct_side":1,"subjID":"Cristianforero22","gender":"0","age":"11","school":"6"},{"start_time":1551795008267,"click_time":1551795009609,"finger_time":1551795009048,"fix_duration":517.6445048927151,"trial":42,"RT":781,"MT":561,"sideResp":2,"stimulus":"img/900/equaldotanddens/L/1_Ratio_900_L_10_R_9.png","xmouse":[804,802,801,800,800,800,800,800,800,800,800,800,800,800,800,800,800,800,800,800,800,800,800,800,800,800,800,800,800,800,800,800,800,800,800,800,800,799,831,915,966,1011,1044,1079,1085,1088,1090,1091,1099,1104,1108,1110,1110,1109,1105,1101,1096,1095,1094,1094,1094,1094,1094,1094,1094,1094,1094,1094],"ymouse":[507,507,506,505,505,505,505,505,505,505,505,505,505,505,505,505,505,505,505,505,505,505,505,505,505,505,505,505,505,505,505,505,505,505,505,505,505,505,485,432,399,373,352,316,298,283,269,258,226,208,185,169,154,136,126,119,111,107,106,106,106,106,106,106,106,104,102,98],"timestamp_mouse":[9,23,44,63,82,103,122,142,163,182,202,221,243,261,282,302,322,342,363,382,402,422,442,462,482,501,523,541,563,582,602,622,642,663,682,702,722,743,762,781,802,822,843,863,882,902,922,942,962,982,1002,1022,1043,1062,1082,1102,1122,1141,1162,1182,1202,1223,1242,1263,1282,1302,1322,1342],"xSR":741.5,"ySR":469.95,"xT1":424.9,"yT1":0,"xT2":1058.1,"yT2":0,"toosoon":0,"cond_shown":"equaldotanddens","ratio_trial":900,"smaller_num":"9","larger_num":"10","correct_side":1,"subjID":"Cristianforero22","gender":"0","age":"11","school":"6"},{"start_time":1551795011953,"click_time":1551795012749,"finger_time":1551795012669,"fix_duration":1283.4331558475467,"trial":43,"RT":716,"MT":80,"sideResp":1,"stimulus":"img/250/equaldotsize/L/14_Ratio_250_L_12_R_3.png","xmouse":[777,777,777,777,777,777,777,777,777,777,777,777,777,777,777,777,777,777,777,777,777,777,777,777,777,777,777,777,777,777,777,777,777,777,776,754,718,677,559,519],"ymouse":[514,514,514,514,514,514,514,514,514,514,514,514,514,514,514,514,514,514,514,514,514,514,514,514,514,514,514,514,514,514,514,514,514,514,508,439,356,267,91,43],"timestamp_mouse":[16,39,57,76,96,116,136,156,176,196,217,235,257,276,297,316,336,356,376,396,416,436,456,477,496,516,536,557,576,596,615,636,656,675,696,716,736,755,777,796],"xSR":741.5,"ySR":469.95,"xT1":424.9,"yT1":0,"xT2":1058.1,"yT2":0,"toosoon":0,"cond_shown":"equaldotsize","ratio_trial":250,"smaller_num":"3","larger_num":"12","correct_side":1,"subjID":"Cristianforero22","gender":"0","age":"11","school":"6"},{"start_time":1551795014063,"click_time":1551795015149,"finger_time":1551795014729,"fix_duration":372.6142175302197,"trial":44,"RT":666,"MT":420,"sideResp":2,"stimulus":"img/500/equaldotanddens/R/9_Ratio_500_L_2_R_4.png","xmouse":[776,776,776,776,776,776,776,776,776,776,776,776,776,776,776,776,776,776,776,776,776,776,776,776,776,776,776,776,776,776,780,795,812,858,882,908,928,946,978,997,1008,1016,1022,1028,1029,1030,1031,1031,1036,1044,1051,1071,1084,1114,1129],"ymouse":[525,525,525,525,525,525,525,525,525,525,525,525,525,525,525,525,525,525,525,525,525,525,525,525,525,525,525,525,525,525,517,498,479,434,409,379,351,323,263,229,208,190,175,158,154,151,150,148,141,134,127,115,110,100,94],"timestamp_mouse":[10,33,47,66,86,105,126,146,167,186,207,226,247,267,286,306,326,345,366,386,405,427,446,467,486,506,525,547,565,585,606,626,646,666,686,707,726,747,765,786,806,827,846,865,886,906,926,947,965,987,1006,1026,1046,1066,1086],"xSR":741.5,"ySR":469.95,"xT1":424.9,"yT1":0,"xT2":1058.1,"yT2":0,"toosoon":0,"cond_shown":"equaldotanddens","ratio_trial":500,"smaller_num":"2","larger_num":"4","correct_side":2,"subjID":"Cristianforero22","gender":"0","age":"11","school":"6"},{"start_time":1551795016767,"click_time":1551795017850,"finger_time":1551795017509,"fix_duration":557.8076958315766,"trial":45,"RT":742,"MT":341,"sideResp":1,"stimulus":"img/250/randomdotsizeEA/L/1_Ratio_250_L_8_R_2.png","xmouse":[805,805,805,805,805,805,805,805,805,805,805,805,805,805,805,805,805,805,805,805,805,805,805,805,805,805,805,805,805,805,805,805,805,805,805,801,790,775,711,682,655,635,620,601,594,591,590,589,585,580,571,559,550,526,505],"ymouse":[500,500,500,500,500,500,500,500,500,500,500,500,500,500,500,500,500,500,500,500,500,500,500,500,500,500,500,500,500,500,500,500,500,500,500,495,475,436,305,257,218,186,158,110,91,86,83,81,78,75,72,69,68,64,57],"timestamp_mouse":[9,30,43,61,82,101,123,143,161,182,202,222,242,263,281,303,323,342,363,382,402,421,442,462,482,502,522,542,563,583,602,621,641,662,682,701,722,742,761,782,802,822,843,862,881,902,923,941,962,982,1003,1022,1043,1062,1083],"xSR":741.5,"ySR":469.95,"xT1":424.9,"yT1":0,"xT2":1058.1,"yT2":0,"toosoon":0,"cond_shown":"randomdotsizeEA","ratio_trial":250,"smaller_num":"2","larger_num":"8","correct_side":1,"subjID":"Cristianforero22","gender":"0","age":"11","school":"6"},{"start_time":1551795018960,"click_time":1551795020208,"finger_time":1551795019729,"fix_duration":508.6089156624509,"trial":46,"RT":769,"MT":479,"sideResp":2,"stimulus":"img/900/equaldotanddens/L/2_Ratio_900_L_20_R_18.png","xmouse":[825,825,825,825,825,825,825,825,825,825,825,825,825,825,825,825,825,825,825,825,825,825,825,825,825,825,825,825,825,825,825,825,825,825,825,825,825,830,866,895,924,953,967,977,979,979,979,979,979,979,979,979,979,979,986,1004,1019,1031,1062,1072,1077,1079,1079],"ymouse":[534,534,534,534,534,534,534,534,534,534,534,534,534,534,534,534,534,534,534,534,534,534,534,534,534,534,534,534,534,534,534,534,534,534,534,532,522,503,407,333,270,222,189,166,162,162,162,162,162,162,162,162,162,162,160,157,152,147,127,117,108,101,92],"timestamp_mouse":[18,37,50,69,89,109,129,150,169,188,210,228,250,268,289,309,330,349,369,389,408,430,448,468,490,509,529,549,569,589,610,630,650,669,688,709,730,749,769,789,809,829,849,869,889,909,929,950,969,989,1008,1030,1050,1069,1088,1109,1129,1150,1169,1189,1209,1229,1248],"xSR":741.5,"ySR":469.95,"xT1":424.9,"yT1":0,"xT2":1058.1,"yT2":0,"toosoon":0,"cond_shown":"equaldotanddens","ratio_trial":900,"smaller_num":"18","larger_num":"20","correct_side":1,"subjID":"Cristianforero22","gender":"0","age":"11","school":"6"},{"start_time":1551795023437,"click_time":1551795024429,"finger_time":1551795023928,"fix_duration":1407.5408534479195,"trial":47,"RT":491,"MT":501,"sideResp":1,"stimulus":"img/500/equaldotsize/L/11_Ratio_500_L_12_R_6.png","xmouse":[820,820,820,820,820,820,820,820,820,820,820,820,820,819,811,802,796,790,788,788,788,787,781,772,748,733,720,710,704,693,682,662,647,634,609,599,591,586,583,582,581,581,581,581,579,570,558,546,538,523],"ymouse":[518,518,518,518,518,518,518,518,518,518,518,518,518,518,514,509,505,502,500,499,499,497,490,478,446,426,407,394,387,374,360,332,308,284,225,194,165,141,123,107,105,105,105,105,105,101,94,86,77,61],"timestamp_mouse":[13,37,52,72,93,113,133,153,172,193,213,232,253,272,291,312,332,353,372,391,412,432,452,472,491,512,531,553,572,592,611,632,652,672,693,712,732,753,773,792,812,833,852,873,892,912,932,953,973,992],"xSR":741.5,"ySR":469.95,"xT1":424.9,"yT1":0,"xT2":1058.1,"yT2":0,"toosoon":0,"cond_shown":"equaldotsize","ratio_trial":500,"smaller_num":"6","larger_num":"12","correct_side":1,"subjID":"Cristianforero22","gender":"0","age":"11","school":"6"},{"start_time":1551795029431,"click_time":1551795030529,"finger_time":1551795030228,"fix_duration":378.1124495577227,"trial":48,"RT":797,"MT":301,"sideResp":2,"stimulus":"img/500/equaldotsize/R/1_Ratio_500_L_9_R_18.png","xmouse":[806,806,806,806,806,806,806,806,806,806,806,806,806,806,806,806,806,806,806,806,806,806,806,806,806,806,806,806,806,806,806,806,806,806,806,806,806,806,810,825,892,932,982,997,1010,1023,1026,1028,1031,1034,1043,1051,1056,1060,1061,1060],"ymouse":[548,548,548,548,548,548,548,548,548,548,548,548,548,548,548,548,548,548,548,548,548,548,548,548,548,548,548,548,548,548,548,548,548,548,548,548,548,544,538,519,414,345,257,227,207,193,191,189,187,184,168,149,133,117,106,96],"timestamp_mouse":[1,33,38,59,77,98,118,137,159,179,198,218,237,259,278,297,317,339,359,378,398,418,438,459,479,498,518,538,557,578,597,619,638,658,678,698,717,739,759,778,797,818,838,859,879,898,918,937,958,978,998,1017,1037,1058,1078,1098],"xSR":741.5,"ySR":469.95,"xT1":424.9,"yT1":0,"xT2":1058.1,"yT2":0,"toosoon":0,"cond_shown":"equaldotsize","ratio_trial":500,"smaller_num":"9","larger_num":"18","correct_side":2,"subjID":"Cristianforero22","gender":"0","age":"11","school":"6"},{"start_time":1551795032495,"click_time":1551795033629,"finger_time":1551795033110,"fix_duration":1065.8880641166738,"trial":49,"RT":615,"MT":519,"sideResp":1,"stimulus":"img/250/equaldotanddens/L/15_Ratio_250_L_12_R_3.png","xmouse":[782,782,782,782,782,782,782,782,782,782,782,782,782,782,782,782,782,782,782,782,782,782,782,782,782,782,782,775,763,750,734,703,686,670,654,640,625,621,620,618,617,617,617,616,615,610,604,599,595,589,581,562,554,549,542,535,519],"ymouse":[531,531,531,531,531,531,531,531,531,531,531,531,531,531,531,531,531,531,531,531,531,531,531,531,531,531,531,520,503,485,463,414,383,350,310,256,162,126,118,104,99,96,96,95,94,92,88,87,86,84,81,69,63,59,55,52,48],"timestamp_mouse":[15,35,55,73,93,114,134,153,175,193,214,234,255,273,294,315,334,353,373,394,414,434,453,475,494,515,534,555,574,594,615,634,654,673,695,714,735,754,773,795,814,834,854,873,894,914,934,953,974,994,1015,1033,1054,1075,1094,1115,1134],"xSR":741.5,"ySR":469.95,"xT1":424.9,"yT1":0,"xT2":1058.1,"yT2":0,"toosoon":0,"cond_shown":"equaldotanddens","ratio_trial":250,"smaller_num":"3","larger_num":"12","correct_side":1,"subjID":"Cristianforero22","gender":"0","age":"11","school":"6"},{"start_time":1551795035280,"click_time":1551795036529,"finger_time":1551795035989,"fix_duration":730.9478291897829,"trial":50,"RT":709,"MT":540,"sideResp":2,"stimulus":"img/250/equaldotanddens/R/13_Ratio_250_L_2_R_8.png","xmouse":[778,778,778,778,778,778,778,778,778,778,778,778,778,778,778,778,778,778,778,778,778,778,778,778,778,778,778,778,778,778,778,778,778,785,797,816,835,870,882,897,913,933,967,979,993,1002,1013,1028,1034,1046,1057,1067,1080,1085,1089,1091,1094,1099,1099,1100,1101,1103,1104],"ymouse":[504,504,504,504,504,504,504,504,504,504,504,504,504,504,504,504,504,504,504,504,504,504,504,504,504,504,504,504,504,504,504,504,504,500,486,468,448,411,393,371,354,338,316,307,296,286,274,248,235,215,201,186,159,147,138,130,126,119,118,116,109,102,86],"timestamp_mouse":[10,40,49,69,88,109,129,149,168,189,210,229,249,269,289,310,329,349,370,389,409,429,449,468,490,510,530,549,568,589,610,629,649,669,688,709,730,748,768,789,809,830,849,869,889,909,928,949,970,989,1009,1029,1049,1068,1089,1109,1128,1149,1170,1190,1209,1230,1248],"xSR":741.5,"ySR":469.95,"xT1":424.9,"yT1":0,"xT2":1058.1,"yT2":0,"toosoon":0,"cond_shown":"equaldotanddens","ratio_trial":250,"smaller_num":"2","larger_num":"8","correct_side":2,"subjID":"Cristianforero22","gender":"0","age":"11","school":"6"},{"start_time":1551795038048,"click_time":1551795039049,"finger_time":1551795038669,"fix_duration":717.7386939243348,"trial":51,"RT":621,"MT":380,"sideResp":1,"stimulus":"img/500/equaldotanddens/L/13_Ratio_500_L_12_R_6.png","xmouse":[812,812,812,812,812,812,812,812,812,812,812,812,812,812,812,812,812,812,812,812,812,812,812,812,812,812,810,808,807,800,793,783,779,776,768,765,763,762,756,738,718,703,689,670,619,595,573,558,547,529,522],"ymouse":[499,499,499,499,499,499,499,499,499,499,499,499,499,499,499,499,499,499,499,499,499,499,499,499,499,499,499,499,499,493,484,466,459,452,432,418,404,391,375,339,310,291,269,235,147,109,79,57,43,25,20],"timestamp_mouse":[9,31,40,61,81,101,122,140,161,180,201,220,241,262,280,301,322,341,362,381,400,421,441,462,481,501,522,541,560,581,602,621,642,662,681,701,721,741,760,782,801,821,841,861,880,901,922,941,962,981,1001],"xSR":741.5,"ySR":469.95,"xT1":424.9,"yT1":0,"xT2":1058.1,"yT2":0,"toosoon":0,"cond_shown":"equaldotanddens","ratio_trial":500,"smaller_num":"6","larger_num":"12","correct_side":1,"subjID":"Cristianforero22","gender":"0","age":"11","school":"6"},{"start_time":1551795041596,"click_time":1551795043009,"finger_time":1551795042310,"fix_duration":1445.2906142041638,"trial":52,"RT":714,"MT":699,"sideResp":1,"stimulus":"img/750/equaldotanddens/L/10_Ratio_750_L_4_R_3.png","xmouse":[787,787,787,787,787,787,787,787,787,787,787,787,787,787,787,787,787,787,787,787,787,787,787,787,787,787,787,787,787,787,787,787,786,784,775,763,727,707,693,686,684,682,682,682,681,677,672,671,671,670,668,657,646,620,604,587,551,541,536,533,531,530,530,530,530,530,530,530,528,525,516],"ymouse":[509,509,509,509,509,509,509,509,509,509,509,509,509,509,509,509,509,509,509,509,509,509,509,509,509,509,509,509,509,509,509,509,507,501,475,440,339,300,276,258,244,203,157,132,116,106,98,97,97,97,97,92,89,81,78,74,64,61,59,58,56,55,55,55,55,55,55,55,55,55,54],"timestamp_mouse":[13,34,54,73,94,114,132,153,173,192,213,233,252,272,293,314,332,354,372,394,413,433,454,472,493,514,532,554,573,593,613,632,654,673,692,714,733,753,773,793,814,832,853,872,894,914,933,953,972,994,1013,1033,1053,1073,1093,1113,1133,1153,1174,1194,1213,1233,1252,1272,1293,1314,1334,1353,1374,1393,1413],"xSR":741.5,"ySR":469.95,"xT1":424.9,"yT1":0,"xT2":1058.1,"yT2":0,"toosoon":0,"cond_shown":"equaldotanddens","ratio_trial":750,"smaller_num":"3","larger_num":"4","correct_side":1,"subjID":"Cristianforero22","gender":"0","age":"11","school":"6"},{"start_time":1551795045087,"click_time":1551795046509,"finger_time":1551795045990,"fix_duration":996.8036684091636,"trial":53,"RT":903,"MT":519,"sideResp":1,"stimulus":"img/900/equaldotsize/L/4_Ratio_900_L_20_R_18.png","xmouse":[809,809,809,809,809,809,809,809,809,809,809,809,809,809,809,809,809,809,809,809,809,809,809,809,809,809,809,809,809,809,809,809,809,809,809,809,809,809,809,809,809,810,800,791,779,767,757,734,723,707,696,685,663,653,640,628,617,600,594,589,586,580,569,564,560,553,547,536,533,528,525,519],"ymouse":[514,514,514,514,514,514,514,514,514,514,514,514,514,514,514,514,514,514,514,514,514,514,514,514,514,514,514,514,514,514,514,514,514,514,514,514,514,514,514,514,514,514,501,490,473,452,429,391,368,340,322,307,276,262,245,228,213,188,179,166,160,150,135,131,126,119,114,104,101,96,93,92],"timestamp_mouse":[10,23,42,61,81,102,122,142,162,183,201,222,242,261,283,302,322,342,363,381,403,421,443,463,483,502,521,543,563,582,601,623,642,662,681,702,721,743,762,781,803,822,842,862,881,903,923,941,963,982,1003,1023,1042,1061,1082,1103,1123,1142,1161,1182,1202,1222,1242,1262,1282,1303,1322,1342,1363,1382,1403,1422],"xSR":741.5,"ySR":469.95,"xT1":424.9,"yT1":0,"xT2":1058.1,"yT2":0,"toosoon":0,"cond_shown":"equaldotsize","ratio_trial":900,"smaller_num":"18","larger_num":"20","correct_side":1,"subjID":"Cristianforero22","gender":"0","age":"11","school":"6"},{"start_time":1551795048130,"click_time":1551795049889,"finger_time":1551795049169,"fix_duration":539.1039853329272,"trial":54,"RT":1039,"MT":720,"sideResp":1,"stimulus":"img/500/randomdotsizeEA/L/5_Ratio_500_L_4_R_2.png","xmouse":[765,765,765,765,765,765,765,765,765,765,765,765,765,765,765,765,765,765,765,765,765,765,765,765,765,765,765,765,765,765,765,765,765,765,765,765,765,765,765,765,765,765,765,765,765,765,765,765,764,755,745,727,706,684,641,621,601,593,590,587,585,582,579,575,568,561,551,536,522,501,494,493,493,493,493,493,493,493,493,493,493,493,493,493,493,493,493,493],"ymouse":[512,512,512,512,512,512,512,512,512,512,512,512,512,512,512,512,512,512,512,512,512,512,512,512,512,512,512,512,512,512,512,512,512,512,512,512,512,512,512,512,512,512,512,512,512,512,508,506,502,491,483,471,456,437,397,375,353,344,341,335,332,327,322,315,303,288,271,246,217,167,151,145,138,134,128,125,121,121,121,121,120,120,120,120,116,111,103,99],"timestamp_mouse":[34,39,60,78,100,118,140,158,178,199,218,240,260,279,299,319,338,360,379,399,420,439,459,478,499,520,538,559,579,598,620,640,658,680,699,719,739,758,779,798,819,838,858,878,899,919,939,959,980,999,1019,1039,1059,1080,1098,1119,1139,1160,1179,1200,1219,1239,1259,1279,1299,1319,1338,1359,1379,1400,1418,1439,1459,1478,1498,1519,1539,1559,1578,1600,1620,1639,1659,1680,1699,1720,1739,1759],"xSR":741.5,"ySR":469.95,"xT1":424.9,"yT1":0,"xT2":1058.1,"yT2":0,"toosoon":0,"cond_shown":"randomdotsizeEA","ratio_trial":500,"smaller_num":"2","larger_num":"4","correct_side":1,"subjID":"Cristianforero22","gender":"0","age":"11","school":"6"},{"start_time":1551795052400,"click_time":1551795053890,"finger_time":1551795053669,"fix_duration":250,"trial":55,"RT":1269,"MT":221,"sideResp":1,"stimulus":"img/750/equaldotanddens/L/6_Ratio_750_L_24_R_18.png","xmouse":[762,762,762,762,762,762,762,762,762,762,762,762,762,762,762,762,762,762,762,762,762,762,762,762,762,762,762,762,762,762,762,762,762,762,762,762,762,762,762,762,762,762,762,762,762,762,762,762,762,762,762,762,762,762,762,762,762,762,762,762,762,762,753,732,707,683,656,646,633,612,581,508,485,465,453],"ymouse":[523,523,523,523,523,523,523,523,523,523,523,523,523,523,523,523,523,523,523,523,523,523,523,523,523,523,523,523,523,523,523,523,523,523,523,523,523,523,523,523,523,523,523,523,523,523,523,523,523,523,523,523,523,523,523,523,523,523,523,523,523,523,520,510,500,494,478,456,424,380,329,227,185,122,63],"timestamp_mouse":[10,32,50,68,90,109,128,148,169,189,208,230,249,270,289,309,328,349,370,388,409,429,448,469,489,508,529,548,569,588,608,629,650,668,688,710,729,749,769,790,809,828,849,869,888,910,929,949,970,988,1009,1028,1049,1069,1089,1109,1128,1150,1168,1188,1208,1228,1248,1269,1289,1310,1330,1348,1369,1389,1408,1428,1449,1469,1489],"xSR":741.5,"ySR":469.95,"xT1":424.9,"yT1":0,"xT2":1058.1,"yT2":0,"toosoon":0,"cond_shown":"equaldotanddens","ratio_trial":750,"smaller_num":"18","larger_num":"24","correct_side":1,"subjID":"Cristianforero22","gender":"0","age":"11","school":"6"},{"start_time":1551795056999,"click_time":1551795058068,"finger_time":1551795057609,"fix_duration":309.46322109479615,"trial":56,"RT":610,"MT":459,"sideResp":2,"stimulus":"img/250/equaldotsize/R/6_Ratio_250_L_6_R_24.png","xmouse":[786,786,786,786,786,786,786,786,786,786,786,786,786,786,786,786,786,786,786,786,786,786,786,786,786,786,786,788,796,812,832,896,917,930,938,941,945,946,946,947,949,956,959,962,965,969,983,991,1000,1009,1018,1040,1055,1065],"ymouse":[498,498,498,498,498,498,498,498,498,498,498,498,498,498,498,498,498,498,498,498,498,498,498,498,498,498,497,494,486,472,449,339,283,237,192,173,152,140,130,122,116,107,104,102,101,101,97,94,92,89,87,80,73,68],"timestamp_mouse":[10,34,50,69,89,110,129,151,170,190,210,231,249,269,290,310,330,350,369,390,410,431,449,470,491,510,529,550,570,591,610,630,651,670,690,709,729,750,769,791,810,830,851,870,890,911,930,949,969,990,1010,1029,1050,1069],"xSR":741.5,"ySR":469.95,"xT1":424.9,"yT1":0,"xT2":1058.1,"yT2":0,"toosoon":0,"cond_shown":"equaldotsize","ratio_trial":250,"smaller_num":"6","larger_num":"24","correct_side":2,"subjID":"Cristianforero22","gender":"0","age":"11","school":"6"},{"start_time":1551795059702,"click_time":1551795060529,"finger_time":1551795060269,"fix_duration":391.63998604190044,"trial":57,"RT":567,"MT":260,"sideResp":1,"stimulus":"img/500/randomdotsizeEA/L/10_Ratio_500_L_4_R_2.png","xmouse":[786,786,786,786,786,786,786,786,786,786,786,786,786,786,786,786,786,786,786,786,786,786,786,786,786,786,780,770,746,715,679,613,583,562,551,545,539,538,538,535,530,510],"ymouse":[499,499,499,499,499,499,499,499,499,499,499,499,499,499,499,499,499,499,499,499,499,499,499,499,499,496,488,472,440,405,358,248,178,115,71,52,43,42,41,40,38,30],"timestamp_mouse":[8,41,48,67,86,106,127,146,166,187,208,226,247,267,286,306,326,348,366,388,406,426,446,466,488,507,527,547,567,587,607,628,647,667,688,708,727,747,767,787,807,827],"xSR":741.5,"ySR":469.95,"xT1":424.9,"yT1":0,"xT2":1058.1,"yT2":0,"toosoon":0,"cond_shown":"randomdotsizeEA","ratio_trial":500,"smaller_num":"2","larger_num":"4","correct_side":1,"subjID":"Cristianforero22","gender":"0","age":"11","school":"6"},{"start_time":1551795063940,"click_time":1551795064968,"finger_time":1551795064610,"fix_duration":250,"trial":58,"RT":670,"MT":358,"sideResp":1,"stimulus":"img/900/randomdotsizeEA/L/2_Ratio_900_L_20_R_18.png","xmouse":[775,775,775,775,775,775,775,775,775,775,775,775,775,775,775,775,775,775,775,775,775,775,775,775,775,775,775,775,775,775,773,763,745,712,635,609,590,586,583,583,583,584,585,585,572,561,549,546,541,527,517,509],"ymouse":[512,512,512,512,512,512,512,511,511,511,511,511,511,511,511,511,511,511,511,511,511,511,511,511,511,511,511,511,511,511,511,500,486,466,406,382,344,316,283,224,204,189,180,171,150,141,134,132,129,116,106,98],"timestamp_mouse":[10,39,49,69,89,108,130,149,169,188,208,229,250,270,288,310,329,348,368,389,408,430,448,468,489,509,530,549,570,588,609,630,649,670,689,709,729,749,769,789,809,828,849,869,888,909,928,948,969,989,1009,1028],"xSR":741.5,"ySR":469.95,"xT1":424.9,"yT1":0,"xT2":1058.1,"yT2":0,"toosoon":0,"cond_shown":"randomdotsizeEA","ratio_trial":900,"smaller_num":"18","larger_num":"20","correct_side":1,"subjID":"Cristianforero22","gender":"0","age":"11","school":"6"},{"start_time":1551795066195,"click_time":1551795067069,"finger_time":1551795066729,"fix_duration":383.2622076427151,"trial":59,"RT":534,"MT":340,"sideResp":1,"stimulus":"img/500/equaldotanddens/L/10_Ratio_500_L_4_R_2.png","xmouse":[821,821,821,821,821,821,821,821,821,821,821,821,821,821,821,821,821,821,821,821,821,821,821,820,813,802,762,739,717,699,686,658,648,638,627,623,614,606,592,575,561,533,521,508],"ymouse":[508,508,508,508,508,508,508,508,508,508,508,508,508,508,508,508,508,508,508,508,508,508,508,507,498,482,425,388,348,317,293,241,217,200,182,174,165,157,148,137,128,111,105,97],"timestamp_mouse":[13,34,55,75,95,114,133,153,175,193,213,234,253,275,293,314,334,353,375,393,413,435,455,473,494,515,534,554,573,593,615,634,654,673,694,714,734,754,775,793,814,834,854,874],"xSR":741.5,"ySR":469.95,"xT1":424.9,"yT1":0,"xT2":1058.1,"yT2":0,"toosoon":0,"cond_shown":"equaldotanddens","ratio_trial":500,"smaller_num":"2","larger_num":"4","correct_side":1,"subjID":"Cristianforero22","gender":"0","age":"11","school":"6"},{"start_time":1551795069211,"click_time":1551795070330,"finger_time":1551795069989,"fix_duration":1300.5236725194522,"trial":60,"RT":778,"MT":341,"sideResp":2,"stimulus":"img/500/randomdotsizeEA/L/8_Ratio_500_L_8_R_4.png","xmouse":[787,787,787,787,787,787,787,787,787,787,787,787,787,787,787,787,787,787,787,787,787,787,787,787,787,787,787,787,787,787,787,787,787,787,787,789,793,796,811,827,855,860,868,873,881,912,930,945,955,965,989,1007,1013,1034,1056,1095],"ymouse":[533,533,533,533,533,533,533,533,533,533,533,533,533,533,533,533,533,533,533,533,533,533,533,533,533,533,533,533,533,533,533,533,533,531,528,511,495,473,452,434,406,398,384,373,361,326,307,291,280,266,224,191,178,145,120,84],"timestamp_mouse":[19,37,66,78,97,118,137,158,178,197,218,237,259,277,298,318,338,358,379,399,417,439,457,479,497,518,539,558,578,599,618,637,659,678,698,718,737,758,778,798,817,837,858,879,898,917,937,958,977,999,1018,1038,1057,1077,1099,1118],"xSR":741.5,"ySR":469.95,"xT1":424.9,"yT1":0,"xT2":1058.1,"yT2":0,"toosoon":0,"cond_shown":"randomdotsizeEA","ratio_trial":500,"smaller_num":"4","larger_num":"8","correct_side":1,"subjID":"Cristianforero22","gender":"0","age":"11","school":"6"},{"start_time":1551795072167,"click_time":1551795073729,"finger_time":1551795072890,"fix_duration":737.0576048302077,"trial":61,"RT":723,"MT":839,"sideResp":2,"stimulus":"img/500/equaldotsize/R/3_Ratio_500_L_10_R_20.png","xmouse":[792,791,790,789,789,789,789,789,789,789,789,789,789,789,789,789,789,789,789,789,787,786,785,784,784,784,784,784,784,784,784,784,784,783,789,812,835,861,905,920,927,929,929,933,942,962,978,991,1008,1012,1016,1023,1039,1106,1186,1232,1257,1267,1269,1269,1269,1269,1269,1269,1269,1269,1269,1269,1261,1248,1236,1224,1209,1186,1175,1171,1168,1163,1136],"ymouse":[534,533,532,529,529,529,529,529,529,529,529,529,529,529,529,529,529,529,529,529,529,528,528,528,528,528,528,528,528,528,528,528,528,524,507,472,439,409,375,365,352,335,321,293,279,256,237,220,192,183,176,168,159,124,88,62,48,41,40,40,40,40,40,40,40,40,40,40,40,43,45,46,48,48,48,50,50,52,61],"timestamp_mouse":[2,21,42,62,82,102,122,141,161,182,202,223,242,262,282,302,322,342,362,381,401,422,442,461,481,502,522,542,562,581,603,622,641,662,682,702,723,742,761,781,801,823,842,862,882,902,922,942,962,982,1002,1021,1041,1062,1082,1101,1121,1141,1161,1181,1202,1222,1242,1261,1281,1301,1322,1342,1362,1382,1402,1421,1442,1462,1482,1501,1522,1541,1561],"xSR":741.5,"ySR":469.95,"xT1":424.9,"yT1":0,"xT2":1058.1,"yT2":0,"toosoon":0,"cond_shown":"equaldotsize","ratio_trial":500,"smaller_num":"10","larger_num":"20","correct_side":2,"subjID":"Cristianforero22","gender":"0","age":"11","school":"6"},{"start_time":1551795075229,"click_time":1551795076429,"finger_time":1551795076088,"fix_duration":299.89252826155064,"trial":62,"RT":859,"MT":341,"sideResp":2,"stimulus":"img/750/randomdotsizeEA/L/10_Ratio_750_L_4_R_3.png","xmouse":[751,751,751,751,751,751,751,751,751,751,751,751,751,751,751,751,751,751,751,751,751,751,751,751,751,751,751,751,751,751,751,751,751,751,751,751,751,751,751,751,751,755,766,779,798,863,889,911,923,933,945,948,952,963,974,999,1010,1022,1032,1041,1068],"ymouse":[509,509,509,509,509,509,509,509,509,509,509,509,509,509,509,509,509,509,509,509,509,509,509,509,509,509,509,509,509,509,509,509,509,509,509,509,509,509,509,509,509,507,489,465,433,342,309,273,252,235,214,209,203,190,180,157,145,129,114,103,88],"timestamp_mouse":[1,19,39,59,80,100,119,141,160,179,201,220,240,260,280,301,319,341,359,381,399,419,439,460,479,500,521,541,559,579,600,620,640,660,679,700,721,740,761,779,799,819,840,859,881,900,920,940,960,979,1000,1020,1040,1059,1079,1100,1120,1140,1159,1179,1200],"xSR":741.5,"ySR":469.95,"xT1":424.9,"yT1":0,"xT2":1058.1,"yT2":0,"toosoon":0,"cond_shown":"randomdotsizeEA","ratio_trial":750,"smaller_num":"3","larger_num":"4","correct_side":1,"subjID":"Cristianforero22","gender":"0","age":"11","school":"6"},{"start_time":1551795078916,"click_time":1551795079909,"finger_time":1551795079650,"fix_duration":1365.2856330611216,"trial":63,"RT":734,"MT":259,"sideResp":2,"stimulus":"img/900/equaldotanddens/L/1_Ratio_900_L_10_R_9.png","xmouse":[790,790,790,790,790,790,790,790,790,790,790,790,790,790,790,790,790,790,790,790,790,790,790,790,790,790,790,790,790,790,790,790,790,790,790,814,891,936,979,1014,1061,1075,1089,1101,1107,1120,1123,1125,1125,1122],"ymouse":[515,515,515,515,515,515,515,515,515,515,515,515,515,515,515,515,515,515,515,515,515,515,515,515,515,515,515,515,515,515,515,515,515,515,515,506,474,458,439,418,344,302,263,236,216,173,149,128,105,92],"timestamp_mouse":[13,33,54,72,94,113,134,154,173,193,213,232,253,274,292,314,333,354,372,392,413,432,454,472,494,512,534,553,574,592,613,632,654,672,692,713,734,753,773,794,813,833,853,873,892,913,933,953,973,993],"xSR":741.5,"ySR":469.95,"xT1":424.9,"yT1":0,"xT2":1058.1,"yT2":0,"toosoon":0,"cond_shown":"equaldotanddens","ratio_trial":900,"smaller_num":"9","larger_num":"10","correct_side":1,"subjID":"Cristianforero22","gender":"0","age":"11","school":"6"},{"start_time":1551795081576,"click_time":1551795083489,"finger_time":1551795082390,"fix_duration":806.1664093215044,"trial":64,"RT":814,"MT":1099,"sideResp":2,"stimulus":"img/900/equaldotsize/R/13_Ratio_900_L_18_R_20.png","xmouse":[779,779,779,779,779,779,779,779,779,779,779,779,779,779,779,779,779,779,779,779,779,779,779,779,779,779,779,779,779,779,779,779,779,779,779,779,779,779,773,761,747,723,662,638,616,609,606,605,605,605,605,605,605,605,605,605,605,605,605,605,605,605,608,609,613,620,638,757,853,958,1061,1148,1245,1267,1270,1277,1279,1282,1282,1283,1283,1279,1259,1252,1243,1236,1231,1223,1216,1211,1205,1200,1184,1174,1166,1155],"ymouse":[505,505,505,505,505,505,505,505,505,505,505,505,505,505,505,505,505,505,505,505,505,505,505,505,505,505,505,505,505,505,505,505,505,505,505,505,505,505,495,474,450,408,320,287,248,230,220,214,213,213,213,213,213,213,213,213,214,218,219,220,221,223,230,232,236,237,238,239,243,257,272,285,295,294,291,276,261,227,207,187,166,148,118,109,102,97,95,92,91,88,85,82,73,67,64,61],"timestamp_mouse":[12,39,52,73,92,114,133,153,174,192,213,232,253,272,294,313,333,353,372,394,413,434,454,472,492,513,532,553,573,594,613,632,654,673,694,714,733,753,773,793,814,833,853,872,893,913,934,952,972,993,1013,1034,1052,1072,1093,1113,1132,1153,1173,1192,1212,1233,1253,1273,1292,1312,1334,1353,1373,1392,1413,1432,1453,1472,1493,1513,1532,1553,1573,1593,1613,1632,1652,1674,1693,1713,1733,1753,1772,1793,1812,1834,1853,1873,1893,1913],"xSR":741.5,"ySR":469.95,"xT1":424.9,"yT1":0,"xT2":1058.1,"yT2":0,"toosoon":0,"cond_shown":"equaldotsize","ratio_trial":900,"smaller_num":"18","larger_num":"20","correct_side":2,"subjID":"Cristianforero22","gender":"0","age":"11","school":"6"},{"start_time":1551795084824,"click_time":1551795085749,"finger_time":1551795085528,"fix_duration":313.4036664283054,"trial":65,"RT":704,"MT":221,"sideResp":2,"stimulus":"img/750/equaldotanddens/R/15_Ratio_750_L_9_R_12.png","xmouse":[802,801,801,801,801,801,801,801,801,801,801,801,801,801,801,801,801,801,801,801,801,801,801,801,801,801,801,801,801,801,801,801,801,801,802,841,876,906,924,939,964,976,990,1010,1024,1049,1060],"ymouse":[527,527,527,527,527,527,527,527,527,527,527,527,527,527,527,527,527,527,527,527,527,527,527,527,527,527,527,527,527,527,527,527,527,526,511,408,335,282,253,230,194,176,155,129,110,78,61],"timestamp_mouse":[9,34,45,65,84,104,125,145,166,184,204,224,245,266,286,305,325,346,365,386,404,426,446,464,486,506,524,546,566,585,604,626,645,664,686,704,724,744,766,785,805,825,845,865,885,905,925],"xSR":741.5,"ySR":469.95,"xT1":424.9,"yT1":0,"xT2":1058.1,"yT2":0,"toosoon":0,"cond_shown":"equaldotanddens","ratio_trial":750,"smaller_num":"9","larger_num":"12","correct_side":2,"subjID":"Cristianforero22","gender":"0","age":"11","school":"6"},{"start_time":1551795087267,"click_time":1551795088908,"finger_time":1551795088328,"fix_duration":377.72297623326733,"trial":66,"RT":1061,"MT":580,"sideResp":2,"stimulus":"img/750/randomdotsizeEA/R/15_Ratio_750_L_9_R_12.png","xmouse":[799,799,799,799,799,799,799,799,799,799,799,799,799,799,799,799,799,799,799,799,799,799,799,799,799,799,799,799,799,799,799,799,799,799,799,799,799,799,799,799,799,799,799,799,799,799,799,799,799,799,799,800,802,819,832,848,867,893,986,1045,1095,1177,1224,1281,1295,1301,1304,1304,1304,1304,1304,1304,1304,1304,1240,1219,1202,1189,1178,1175,1172,1166,1157],"ymouse":[501,501,501,501,501,501,501,501,501,501,501,501,501,501,501,501,501,501,501,501,501,501,501,501,501,501,501,501,501,501,501,501,501,501,501,501,501,501,501,501,501,501,501,501,501,501,501,501,501,501,501,500,495,464,444,424,406,389,338,303,265,195,148,66,36,15,0,0,0,0,0,0,0,0,1,10,18,25,31,32,33,36,39],"timestamp_mouse":[11,23,44,61,83,102,122,142,162,182,202,222,241,263,283,301,322,341,362,382,401,422,442,462,482,501,521,542,562,582,602,623,642,661,681,702,722,742,761,782,802,822,842,862,883,903,923,942,962,983,1003,1023,1043,1061,1081,1101,1122,1141,1162,1182,1203,1222,1242,1262,1282,1301,1322,1342,1362,1382,1402,1421,1442,1462,1482,1501,1521,1543,1562,1582,1602,1622,1641],"xSR":741.5,"ySR":469.95,"xT1":424.9,"yT1":0,"xT2":1058.1,"yT2":0,"toosoon":0,"cond_shown":"randomdotsizeEA","ratio_trial":750,"smaller_num":"9","larger_num":"12","correct_side":2,"subjID":"Cristianforero22","gender":"0","age":"11","school":"6"},{"start_time":1551795090376,"click_time":1551795091629,"finger_time":1551795091248,"fix_duration":406.5476398035446,"trial":67,"RT":872,"MT":381,"sideResp":1,"stimulus":"img/250/equaldotanddens/L/1_Ratio_250_L_8_R_2.png","xmouse":[783,783,783,783,783,783,783,783,783,783,783,783,783,783,783,783,783,783,783,783,783,783,783,783,783,783,783,783,783,783,783,783,783,783,783,783,783,782,778,774,767,762,751,745,735,716,703,655,636,623,611,604,604,604,604,604,604,604,604,604,604,554,517],"ymouse":[496,496,496,496,496,496,496,496,496,496,496,496,496,496,496,496,496,4