[{"start_time":1551900915056,"click_time":1551900918316,"finger_time":1551900917516,"fix_duration":516.157567338827,"trial":0,"RT":2460,"MT":800,"sideResp":1,"stimulus":[],"xmouse":[798,798,798,798,798,798,798,798,798,798,798,798,798,798,798,798,798,798,798,798,798,798,798,798,798,798,798,798,798,798,798,798,798,798,798,798,798,798,798,798,798,798,798,798,798,798,798,798,798,798,798,798,798,798,798,798,798,798,798,798,798,798,798,798,798,798,798,798,798,798,798,798,798,798,798,798,798,798,798,798,798,798,798,798,798,798,798,798,798,798,798,798,798,798,798,798,798,798,798,798,798,798,798,798,798,798,798,798,798,798,798,798,798,798,798,798,798,798,798,798,798,798,798,796,794,788,771,762,757,748,739,724,716,695,680,664,652,627,620,614,606,579,560,543,518,501,498,497,494,491,488,487,483,482,482,482,482,481,480,478,477,477,476,475],"ymouse":[513,513,513,513,513,513,513,513,513,513,513,513,513,513,513,513,513,513,513,513,513,513,513,513,513,513,513,513,513,513,513,513,513,513,513,513,513,513,513,513,513,513,513,513,513,513,513,513,513,513,513,513,513,513,513,513,513,513,513,513,513,513,513,513,513,513,513,513,513,513,513,513,513,513,513,513,513,513,513,513,513,513,513,513,513,513,513,513,513,513,513,513,513,513,513,513,513,513,513,513,513,513,513,513,513,513,513,513,513,513,513,513,513,513,513,513,513,513,513,513,513,508,485,453,443,416,386,377,372,367,362,356,353,347,342,336,328,312,306,301,295,273,258,244,223,204,198,197,193,187,180,176,154,143,129,122,114,109,108,104,103,102,101,97],"timestamp_mouse":[9,21,40,61,80,100,120,141,160,180,200,220,240,260,280,300,320,340,360,385,401,419,441,461,480,500,520,540,560,580,600,620,640,660,680,701,720,740,760,780,800,820,840,862,880,900,920,940,960,980,1000,1021,1042,1060,1080,1100,1121,1140,1160,1180,1200,1220,1240,1260,1280,1300,1320,1340,1360,1380,1401,1420,1441,1460,1480,1500,1520,1540,1560,1580,1600,1620,1641,1660,1680,1700,1720,1740,1761,1780,1800,1821,1840,1861,1881,1900,1920,1940,1961,1980,2000,2021,2040,2060,2080,2100,2120,2140,2160,2180,2200,2220,2241,2260,2280,2300,2320,2340,2360,2380,2400,2420,2440,2460,2481,2500,2522,2540,2561,2581,2601,2621,2640,2660,2680,2700,2722,2741,2762,2780,2800,2822,2840,2861,2880,2900,2920,2941,2960,2980,3001,3020,3040,3060,3080,3100,3120,3140,3160,3180,3200,3220,3240,3260],"xSR":741.5,"ySR":469.95,"xT1":424.9,"yT1":0,"xT2":1058.1,"yT2":0,"toosoon":0,"cond_shown":"Incongruent","ratio_trial":300,"L_num":3,"L_den":6,"R_num":4,"R_den":20,"correct_side":1,"subjID":"DairaJuanitaRodriguezRamirez5","gender":"1","age":"11","school":"6","test":{"fix_dur":[250,1500],"timestim":1000,"targets_dim":[100,100],"targets_relative_coord":[0.3,0.7],"size_stim":[880,420],"start_dim":[100,100],"size_start":[300,300],"size_fix":60,"samplingrate":20,"img_types":["Congruent","Incongruent"],"ratios":[100,200,300],"rep_conds":19,"nTrials":120,"trials_to_rest":500,"Trials_order":[59,87,21,60,51,78,105,31,76,1,104,28,20,70,40,34,64,2,86,41,58,106,24,9,32,72,117,68,49,39,109,111,48,55,98,81,84,4,90,19,115,46,79,89,75,82,47,14,118,102,7,18,30,22,74,35,80,96,91,54,52,94,16,95,53,116,26,37,92,73,61,50,71,17,57,5,99,93,77,36,63,113,11,62,27,10,119,45,97,101,114,103,3,12,6,66,0,23,33,83,43,15,110,100,67,88,107,112,69,8,42,44,56,29,25,13,108,85,38,65],"cond_shown":["Incongruent","Incongruent","Incongruent","Congruent","Incongruent","Congruent","Incongruent","Incongruent","Congruent","Incongruent","Congruent","Congruent","Congruent","Congruent","Congruent","Congruent","Congruent","Congruent","Congruent","Incongruent","Congruent","Congruent","Congruent","Incongruent","Congruent","Congruent","Incongruent","Congruent","Incongruent","Incongruent","Incongruent","Incongruent","Congruent","Incongruent","Congruent","Incongruent","Congruent","Congruent","Congruent","Incongruent","Incongruent","Congruent","Incongruent","Incongruent","Incongruent","Congruent","Incongruent","Congruent","Congruent","Congruent","Incongruent","Congruent","Congruent","Congruent","Congruent","Incongruent","Congruent","Congruent","Incongruent","Congruent","Congruent","Congruent","Congruent","Incongruent","Incongruent","Congruent","Congruent","Incongruent","Congruent","Incongruent","Incongruent","Congruent","Incongruent","Incongruent","Incongruent","Incongruent","Incongruent","Incongruent","Incongruent","Congruent","Incongruent","Incongruent","Incongruent","Congruent","Incongruent","Congruent","Incongruent","Incongruent","Incongruent","Incongruent","Congruent","Incongruent","Incongruent","Congruent","Congruent","Congruent","Congruent","Incongruent","Incongruent","Incongruent","Incongruent","Incongruent","Congruent","Congruent","Incongruent","Congruent","Incongruent","Congruent","Incongruent","Congruent","Congruent","Congruent","Congruent","Incongruent","Incongruent","Incongruent","Congruent","Incongruent","Congruent","Incongruent"],"ratio_trial":[300,200,200,100,200,100,200,100,300,100,200,300,200,300,300,300,300,200,200,300,300,300,100,200,200,100,200,200,100,200,100,200,100,100,200,200,100,300,100,100,100,300,100,300,200,300,300,200,300,100,100,100,100,300,200,300,200,100,100,100,300,300,300,300,300,200,200,100,200,100,100,200,300,300,200,300,200,200,300,100,200,300,300,200,200,300,300,200,100,300,100,100,200,100,100,100,100,300,200,300,100,200,200,300,100,300,300,300,200,200,100,200,200,300,100,100,100,100,200,300],"left_num":[3,3,6,15,1,4,1,1,20,6,6,12,5,12,3,24,4,8,21,4,24,11,1,9,4,9,7,3,13,11,10,4,3,12,11,4,11,4,3,4,6,7,12,4,4,11,1,6,1,3,6,6,2,3,12,4,7,12,3,4,20,8,5,1,2,8,13,4,13,9,9,8,1,1,4,1,7,3,4,12,7,4,8,13,7,20,13,7,13,3,4,6,1,8,2,3,4,8,7,1,3,6,13,12,3,20,13,4,3,8,2,13,11,7,3,3,15,13,7,13],"right_num":[4,1,3,13,3,15,3,8,14,13,11,2,14,2,2,2,13,7,2,8,8,4,3,8,3,8,14,11,12,3,8,6,4,2,3,14,6,2,2,8,11,20,2,2,6,2,3,7,3,4,11,15,6,4,6,2,2,13,7,15,14,10,7,3,6,3,14,8,14,13,14,2,3,3,6,2,6,1,2,13,8,2,14,14,4,9,12,14,12,4,6,13,2,2,6,2,6,14,14,3,4,3,14,2,8,8,12,1,11,7,6,14,3,8,8,11,13,12,18,12],"left_den":[6,10,20,25,2,10,2,2,25,10,20,24,10,24,6,30,20,15,30,5,30,22,2,15,8,15,10,10,26,20,25,5,20,30,22,6,22,5,6,8,10,14,30,20,5,22,2,12,5,20,10,12,5,6,15,20,21,30,9,10,25,15,25,2,4,15,26,8,26,15,15,15,2,2,5,2,15,10,20,30,10,20,10,26,15,25,26,10,26,6,8,10,3,16,5,6,8,10,10,2,6,20,26,24,5,25,26,10,4,15,5,26,22,10,5,5,25,26,15,26],"right_den":[20,2,6,26,10,30,10,20,28,26,22,10,20,10,10,4,26,21,4,16,16,20,5,10,10,16,28,22,20,4,16,10,16,4,10,30,15,4,5,20,22,25,4,4,10,10,15,10,6,16,22,25,12,5,10,4,15,26,30,30,28,12,14,15,30,9,20,20,20,26,28,6,15,15,10,10,9,2,4,26,16,4,28,20,6,18,15,28,20,20,10,26,15,5,12,5,10,28,28,15,10,6,20,10,16,16,15,10,20,21,12,20,10,20,16,22,26,20,27,15],"correct_side":[1,2,2,1,1,2,1,1,1,1,2,1,2,1,1,1,2,1,1,1,1,1,2,2,1,1,1,2,2,2,2,1,2,2,1,1,1,1,1,1,1,2,2,2,1,1,1,2,2,2,1,2,2,2,1,2,1,2,1,2,1,2,2,1,1,1,2,1,2,1,1,1,1,1,1,1,2,2,2,2,1,2,1,2,2,1,2,1,2,1,2,1,1,1,2,1,2,1,1,1,1,2,2,1,1,1,2,1,1,1,2,2,1,1,1,1,1,2,2,2],"img_shown":["img2/300/Incongruent/L/I_Dist_300_LN_3_LD_6_RN_4_RD_20_0.png","img2/200/Incongruent/R/I_Dist_200_LN_3_LD_10_RN_1_RD_2_1.png","img2/200/Incongruent/R/I_Dist_200_LN_6_LD_20_RN_3_RD_6_1.png","img2/100/Congruent/L/C_Dist_100_LN_15_LD_25_RN_13_RD_26_0.png","img2/200/Incongruent/L/I_Dist_200_LN_1_LD_2_RN_3_RD_10_0.png","img2/100/Congruent/R/C_Dist_100_LN_4_LD_10_RN_15_RD_30_1.png","img2/200/Incongruent/L/I_Dist_200_LN_1_LD_2_RN_3_RD_10_0.png","img2/100/Incongruent/L/I_Dist_100_LN_1_LD_2_RN_8_RD_20_0.png","img2/300/Congruent/L/C_Dist_300_LN_20_LD_25_RN_14_RD_28_0.png","img2/100/Incongruent/L/I_Dist_100_LN_6_LD_10_RN_13_RD_26_0.png","img2/200/Congruent/R/C_Dist_200_LN_6_LD_20_RN_11_RD_22_1.png","img2/300/Congruent/L/C_Dist_300_LN_12_LD_24_RN_2_RD_10_0.png","img2/200/Congruent/R/C_Dist_200_LN_5_LD_10_RN_14_RD_20_1.png","img2/300/Congruent/L/C_Dist_300_LN_12_LD_24_RN_2_RD_10_0.png","img2/300/Congruent/L/C_Dist_300_LN_3_LD_6_RN_2_RD_10_0.png","img2/300/Congruent/L/C_Dist_300_LN_24_LD_30_RN_2_RD_4_0.png","img2/300/Congruent/R/C_Dist_300_LN_4_LD_20_RN_13_RD_26_1.png","img2/200/Congruent/L/C_Dist_200_LN_8_LD_15_RN_7_RD_21_0.png","img2/200/Congruent/L/C_Dist_200_LN_21_LD_30_RN_2_RD_4_0.png","img2/300/Incongruent/L/I_Dist_300_LN_4_LD_5_RN_8_RD_16_0.png","img2/300/Congruent/L/C_Dist_300_LN_24_LD_30_RN_8_RD_16_0.png","img2/300/Congruent/L/C_Dist_300_LN_11_LD_22_RN_4_RD_20_0.png","img2/100/Congruent/R/C_Dist_100_LN_1_LD_2_RN_3_RD_5_1.png","img2/200/Incongruent/R/I_Dist_200_LN_9_LD_15_RN_8_RD_10_1.png","img2/200/Congruent/L/C_Dist_200_LN_4_LD_8_RN_3_RD_10_0.png","img2/100/Congruent/L/C_Dist_100_LN_9_LD_15_RN_8_RD_16_0.png","img2/200/Incongruent/L/I_Dist_200_LN_7_LD_10_RN_14_RD_28_0.png","img2/200/Congruent/R/C_Dist_200_LN_3_LD_10_RN_11_RD_22_1.png","img2/100/Incongruent/R/I_Dist_100_LN_13_LD_26_RN_12_RD_20_1.png","img2/200/Incongruent/R/I_Dist_200_LN_11_LD_20_RN_3_RD_4_1.png","img2/100/Incongruent/R/I_Dist_100_LN_10_LD_25_RN_8_RD_16_1.png","img2/200/Incongruent/L/I_Dist_200_LN_4_LD_5_RN_6_RD_10_0.png","img2/100/Congruent/R/C_Dist_100_LN_3_LD_20_RN_4_RD_16_1.png","img2/100/Incongruent/R/I_Dist_100_LN_12_LD_30_RN_2_RD_4_1.png","img2/200/Congruent/L/C_Dist_200_LN_11_LD_22_RN_3_RD_10_0.png","img2/200/Incongruent/L/I_Dist_200_LN_4_LD_6_RN_14_RD_30_0.png","img2/100/Congruent/L/C_Dist_100_LN_11_LD_22_RN_6_RD_15_0.png","img2/300/Congruent/L/C_Dist_300_LN_4_LD_5_RN_2_RD_4_0.png","img2/100/Congruent/L/C_Dist_100_LN_3_LD_6_RN_2_RD_5_0.png","img2/100/Incongruent/L/I_Dist_100_LN_4_LD_8_RN_8_RD_20_0.png","img2/100/Incongruent/L/I_Dist_100_LN_6_LD_10_RN_11_RD_22_0.png","img2/300/Congruent/R/C_Dist_300_LN_7_LD_14_RN_20_RD_25_1.png","img2/100/Incongruent/R/I_Dist_100_LN_12_LD_30_RN_2_RD_4_1.png","img2/300/Incongruent/R/I_Dist_300_LN_4_LD_20_RN_2_RD_4_1.png","img2/200/Incongruent/L/I_Dist_200_LN_4_LD_5_RN_6_RD_10_0.png","img2/300/Congruent/L/C_Dist_300_LN_11_LD_22_RN_2_RD_10_0.png","img2/300/Incongruent/L/I_Dist_300_LN_1_LD_2_RN_3_RD_15_0.png","img2/200/Congruent/R/C_Dist_200_LN_6_LD_12_RN_7_RD_10_1.png","img2/300/Congruent/R/C_Dist_300_LN_1_LD_5_RN_3_RD_6_1.png","img2/100/Congruent/R/C_Dist_100_LN_3_LD_20_RN_4_RD_16_1.png","img2/100/Incongruent/L/I_Dist_100_LN_6_LD_10_RN_11_RD_22_0.png","img2/100/Congruent/R/C_Dist_100_LN_6_LD_12_RN_15_RD_25_1.png","img2/100/Congruent/R/C_Dist_100_LN_2_LD_5_RN_6_RD_12_1.png","img2/300/Congruent/R/C_Dist_300_LN_3_LD_6_RN_4_RD_5_1.png","img2/200/Congruent/L/C_Dist_200_LN_12_LD_15_RN_6_RD_10_0.png","img2/300/Incongruent/R/I_Dist_300_LN_4_LD_20_RN_2_RD_4_1.png","img2/200/Congruent/L/C_Dist_200_LN_7_LD_21_RN_2_RD_15_0.png","img2/100/Congruent/R/C_Dist_100_LN_12_LD_30_RN_13_RD_26_1.png","img2/100/Incongruent/L/I_Dist_100_LN_3_LD_9_RN_7_RD_30_0.png","img2/100/Congruent/R/C_Dist_100_LN_4_LD_10_RN_15_RD_30_1.png","img2/300/Congruent/L/C_Dist_300_LN_20_LD_25_RN_14_RD_28_0.png","img2/300/Congruent/R/C_Dist_300_LN_8_LD_15_RN_10_RD_12_1.png","img2/300/Congruent/R/C_Dist_300_LN_5_LD_25_RN_7_RD_14_1.png","img2/300/Incongruent/L/I_Dist_300_LN_1_LD_2_RN_3_RD_15_0.png","img2/300/Incongruent/L/I_Dist_300_LN_2_LD_4_RN_6_RD_30_0.png","img2/200/Congruent/L/C_Dist_200_LN_8_LD_15_RN_3_RD_9_0.png","img2/200/Congruent/R/C_Dist_200_LN_13_LD_26_RN_14_RD_20_1.png","img2/100/Incongruent/L/I_Dist_100_LN_4_LD_8_RN_8_RD_20_0.png","img2/200/Congruent/R/C_Dist_200_LN_13_LD_26_RN_14_RD_20_1.png","img2/100/Incongruent/L/I_Dist_100_LN_9_LD_15_RN_13_RD_26_0.png","img2/100/Incongruent/L/I_Dist_100_LN_9_LD_15_RN_14_RD_28_0.png","img2/200/Congruent/L/C_Dist_200_LN_8_LD_15_RN_2_RD_6_0.png","img2/300/Incongruent/L/I_Dist_300_LN_1_LD_2_RN_3_RD_15_0.png","img2/300/Incongruent/L/I_Dist_300_LN_1_LD_2_RN_3_RD_15_0.png","img2/200/Incongruent/L/I_Dist_200_LN_4_LD_5_RN_6_RD_10_0.png","img2/300/Incongruent/L/I_Dist_300_LN_1_LD_2_RN_2_RD_10_0.png","img2/200/Incongruent/R/I_Dist_200_LN_7_LD_15_RN_6_RD_9_1.png","img2/200/Incongruent/R/I_Dist_200_LN_3_LD_10_RN_1_RD_2_1.png","img2/300/Incongruent/R/I_Dist_300_LN_4_LD_20_RN_2_RD_4_1.png","img2/100/Congruent/R/C_Dist_100_LN_12_LD_30_RN_13_RD_26_1.png","img2/200/Incongruent/L/I_Dist_200_LN_7_LD_10_RN_8_RD_16_0.png","img2/300/Incongruent/R/I_Dist_300_LN_4_LD_20_RN_2_RD_4_1.png","img2/300/Incongruent/L/I_Dist_300_LN_8_LD_10_RN_14_RD_28_0.png","img2/200/Congruent/R/C_Dist_200_LN_13_LD_26_RN_14_RD_20_1.png","img2/200/Incongruent/R/I_Dist_200_LN_7_LD_15_RN_4_RD_6_1.png","img2/300/Congruent/L/C_Dist_300_LN_20_LD_25_RN_9_RD_18_0.png","img2/300/Incongruent/R/I_Dist_300_LN_13_LD_26_RN_12_RD_15_1.png","img2/200/Incongruent/L/I_Dist_200_LN_7_LD_10_RN_14_RD_28_0.png","img2/100/Incongruent/R/I_Dist_100_LN_13_LD_26_RN_12_RD_20_1.png","img2/300/Incongruent/L/I_Dist_300_LN_3_LD_6_RN_4_RD_20_0.png","img2/100/Congruent/R/C_Dist_100_LN_4_LD_8_RN_6_RD_10_1.png","img2/100/Incongruent/L/I_Dist_100_LN_6_LD_10_RN_13_RD_26_0.png","img2/200/Incongruent/L/I_Dist_200_LN_1_LD_3_RN_2_RD_15_0.png","img2/100/Congruent/L/C_Dist_100_LN_8_LD_16_RN_2_RD_5_0.png","img2/100/Congruent/R/C_Dist_100_LN_2_LD_5_RN_6_RD_12_1.png","img2/100/Congruent/L/C_Dist_100_LN_3_LD_6_RN_2_RD_5_0.png","img2/100/Congruent/R/C_Dist_100_LN_4_LD_8_RN_6_RD_10_1.png","img2/300/Incongruent/L/I_Dist_300_LN_8_LD_10_RN_14_RD_28_0.png","img2/200/Incongruent/L/I_Dist_200_LN_7_LD_10_RN_14_RD_28_0.png","img2/300/Incongruent/L/I_Dist_300_LN_1_LD_2_RN_3_RD_15_0.png","img2/100/Incongruent/L/I_Dist_100_LN_3_LD_6_RN_4_RD_10_0.png","img2/200/Incongruent/R/I_Dist_200_LN_6_LD_20_RN_3_RD_6_1.png","img2/200/Congruent/R/C_Dist_200_LN_13_LD_26_RN_14_RD_20_1.png","img2/300/Congruent/L/C_Dist_300_LN_12_LD_24_RN_2_RD_10_0.png","img2/100/Incongruent/L/I_Dist_100_LN_3_LD_5_RN_8_RD_16_0.png","img2/300/Congruent/L/C_Dist_300_LN_20_LD_25_RN_8_RD_16_0.png","img2/300/Incongruent/R/I_Dist_300_LN_13_LD_26_RN_12_RD_15_1.png","img2/300/Congruent/L/C_Dist_300_LN_4_LD_10_RN_1_RD_10_0.png","img2/200/Incongruent/L/I_Dist_200_LN_3_LD_4_RN_11_RD_20_0.png","img2/200/Congruent/L/C_Dist_200_LN_8_LD_15_RN_7_RD_21_0.png","img2/100/Congruent/R/C_Dist_100_LN_2_LD_5_RN_6_RD_12_1.png","img2/200/Congruent/R/C_Dist_200_LN_13_LD_26_RN_14_RD_20_1.png","img2/200/Congruent/L/C_Dist_200_LN_11_LD_22_RN_3_RD_10_0.png","img2/300/Incongruent/L/I_Dist_300_LN_7_LD_10_RN_8_RD_20_0.png","img2/100/Incongruent/L/I_Dist_100_LN_3_LD_5_RN_8_RD_16_0.png","img2/100/Incongruent/L/I_Dist_100_LN_3_LD_5_RN_11_RD_22_0.png","img2/100/Congruent/L/C_Dist_100_LN_15_LD_25_RN_13_RD_26_0.png","img2/100/Incongruent/R/I_Dist_100_LN_13_LD_26_RN_12_RD_20_1.png","img2/200/Congruent/R/C_Dist_200_LN_7_LD_15_RN_18_RD_27_1.png","img2/300/Incongruent/R/I_Dist_300_LN_13_LD_26_RN_12_RD_15_1.png"],"dist100_C":[["C_Dist_100_LN_10_LD_25_RN_3_RD_10_0.png","C_Dist_100_LN_11_LD_22_RN_4_RD_10_0.png","C_Dist_100_LN_11_LD_22_RN_6_RD_15_0.png","C_Dist_100_LN_15_LD_25_RN_13_RD_26_0.png","C_Dist_100_LN_3_LD_6_RN_2_RD_5_0.png","C_Dist_100_LN_6_LD_20_RN_5_RD_25_0.png","C_Dist_100_LN_8_LD_16_RN_2_RD_5_0.png","C_Dist_100_LN_9_LD_15_RN_8_RD_16_0.png"],["C_Dist_100_LN_1_LD_2_RN_18_RD_30_1.png","C_Dist_100_LN_1_LD_2_RN_3_RD_5_1.png","C_Dist_100_LN_12_LD_30_RN_13_RD_26_1.png","C_Dist_100_LN_2_LD_5_RN_11_RD_22_1.png","C_Dist_100_LN_2_LD_5_RN_6_RD_12_1.png","C_Dist_100_LN_3_LD_20_RN_4_RD_16_1.png","C_Dist_100_LN_4_LD_10_RN_15_RD_30_1.png","C_Dist_100_LN_4_LD_8_RN_6_RD_10_1.png","C_Dist_100_LN_6_LD_12_RN_15_RD_25_1.png","C_Dist_100_LN_7_LD_14_RN_15_RD_25_1.png","C_Dist_100_LN_7_LD_14_RN_9_RD_15_1.png"]],"dist100_I":[["I_Dist_100_LN_1_LD_2_RN_8_RD_20_0.png","I_Dist_100_LN_2_LD_4_RN_6_RD_15_0.png","I_Dist_100_LN_2_LD_4_RN_8_RD_20_0.png","I_Dist_100_LN_3_LD_5_RN_11_RD_22_0.png","I_Dist_100_LN_3_LD_5_RN_8_RD_16_0.png","I_Dist_100_LN_3_LD_6_RN_4_RD_10_0.png","I_Dist_100_LN_3_LD_9_RN_7_RD_30_0.png","I_Dist_100_LN_4_LD_8_RN_8_RD_20_0.png","I_Dist_100_LN_6_LD_10_RN_11_RD_22_0.png","I_Dist_100_LN_6_LD_10_RN_13_RD_26_0.png","I_Dist_100_LN_6_LD_10_RN_7_RD_14_0.png","I_Dist_100_LN_9_LD_10_RN_20_RD_25_0.png","I_Dist_100_LN_9_LD_15_RN_13_RD_26_0.png","I_Dist_100_LN_9_LD_15_RN_14_RD_28_0.png"],["I_Dist_100_LN_10_LD_25_RN_8_RD_16_1.png","I_Dist_100_LN_10_LD_25_RN_9_RD_18_1.png","I_Dist_100_LN_11_LD_22_RN_9_RD_15_1.png","I_Dist_100_LN_12_LD_24_RN_9_RD_15_1.png","I_Dist_100_LN_12_LD_30_RN_2_RD_4_1.png","I_Dist_100_LN_13_LD_26_RN_12_RD_20_1.png","I_Dist_100_LN_13_LD_26_RN_6_RD_10_1.png","I_Dist_100_LN_17_LD_30_RN_10_RD_15_1.png","I_Dist_100_LN_6_LD_12_RN_3_RD_5_1.png","I_Dist_100_LN_8_LD_16_RN_6_RD_10_1.png","I_Dist_100_LN_8_LD_20_RN_1_RD_2_1.png","I_Dist_100_LN_9_LD_18_RN_6_RD_10_1.png"]],"dist100_S":[["E_Dist_100_LN_2_LD_12_RN_2_RD_30_0.png","E_Dist_100_LN_6_LD_10_RN_6_RD_12_0.png"],["E_Dist_100_LN_6_LD_12_RN_6_RD_10_1.png"]],"dist200_C":[["C_Dist_200_LN_11_LD_22_RN_3_RD_10_0.png","C_Dist_200_LN_12_LD_15_RN_6_RD_10_0.png","C_Dist_200_LN_12_LD_20_RN_6_RD_15_0.png","C_Dist_200_LN_14_LD_28_RN_6_RD_20_0.png","C_Dist_200_LN_15_LD_25_RN_4_RD_10_0.png","C_Dist_200_LN_16_LD_20_RN_12_RD_20_0.png","C_Dist_200_LN_16_LD_30_RN_9_RD_27_0.png","C_Dist_200_LN_20_LD_25_RN_9_RD_15_0.png","C_Dist_200_LN_21_LD_30_RN_2_RD_4_0.png","C_Dist_200_LN_4_LD_10_RN_3_RD_15_0.png","C_Dist_200_LN_4_LD_8_RN_3_RD_10_0.png","C_Dist_200_LN_6_LD_15_RN_3_RD_15_0.png","C_Dist_200_LN_7_LD_21_RN_2_RD_15_0.png","C_Dist_200_LN_8_LD_15_RN_2_RD_6_0.png","C_Dist_200_LN_8_LD_15_RN_3_RD_9_0.png","C_Dist_200_LN_8_LD_15_RN_7_RD_21_0.png","C_Dist_200_LN_9_LD_20_RN_4_RD_16_0.png"],["C_Dist_200_LN_1_LD_2_RN_21_RD_30_1.png","C_Dist_200_LN_13_LD_26_RN_14_RD_20_1.png","C_Dist_200_LN_3_LD_10_RN_11_RD_22_1.png","C_Dist_200_LN_3_LD_10_RN_14_RD_28_1.png","C_Dist_200_LN_3_LD_10_RN_7_RD_14_1.png","C_Dist_200_LN_3_LD_12_RN_9_RD_20_1.png","C_Dist_200_LN_3_LD_6_RN_14_RD_20_1.png","C_Dist_200_LN_5_LD_10_RN_14_RD_20_1.png","C_Dist_200_LN_6_LD_12_RN_7_RD_10_1.png","C_Dist_200_LN_6_LD_20_RN_11_RD_22_1.png","C_Dist_200_LN_7_LD_15_RN_18_RD_27_1.png","C_Dist_200_LN_9_LD_30_RN_13_RD_26_1.png"]],"dist200_I":[["I_Dist_200_LN_1_LD_2_RN_3_RD_10_0.png","I_Dist_200_LN_1_LD_3_RN_2_RD_15_0.png","I_Dist_200_LN_3_LD_4_RN_11_RD_20_0.png","I_Dist_200_LN_4_LD_5_RN_6_RD_10_0.png","I_Dist_200_LN_4_LD_6_RN_14_RD_30_0.png","I_Dist_200_LN_7_LD_10_RN_12_RD_24_0.png","I_Dist_200_LN_7_LD_10_RN_14_RD_28_0.png","I_Dist_200_LN_7_LD_10_RN_8_RD_16_0.png"],["I_Dist_200_LN_11_LD_20_RN_3_RD_4_1.png","I_Dist_200_LN_14_LD_30_RN_12_RD_18_1.png","I_Dist_200_LN_14_LD_30_RN_6_RD_9_1.png","I_Dist_200_LN_3_LD_10_RN_1_RD_2_1.png","I_Dist_200_LN_4_LD_30_RN_1_RD_3_1.png","I_Dist_200_LN_6_LD_20_RN_3_RD_6_1.png","I_Dist_200_LN_7_LD_15_RN_4_RD_6_1.png","I_Dist_200_LN_7_LD_15_RN_6_RD_9_1.png","I_Dist_200_LN_9_LD_15_RN_8_RD_10_1.png"]],"dist200_S":[["E_Dist_200_LN_3_LD_6_RN_3_RD_10_0.png"],["E_Dist_200_LN_3_LD_10_RN_3_RD_6_1.png"]],"dist300_C":[["C_Dist_300_LN_11_LD_22_RN_1_RD_5_0.png","C_Dist_300_LN_11_LD_22_RN_2_RD_10_0.png","C_Dist_300_LN_11_LD_22_RN_4_RD_20_0.png","C_Dist_300_LN_12_LD_24_RN_2_RD_10_0.png","C_Dist_300_LN_18_LD_20_RN_9_RD_15_0.png","C_Dist_300_LN_20_LD_25_RN_13_RD_26_0.png","C_Dist_300_LN_20_LD_25_RN_14_RD_28_0.png","C_Dist_300_LN_20_LD_25_RN_5_RD_10_0.png","C_Dist_300_LN_20_LD_25_RN_8_RD_16_0.png","C_Dist_300_LN_20_LD_25_RN_9_RD_18_0.png","C_Dist_300_LN_24_LD_30_RN_2_RD_4_0.png","C_Dist_300_LN_24_LD_30_RN_8_RD_16_0.png","C_Dist_300_LN_3_LD_6_RN_2_RD_10_0.png","C_Dist_300_LN_4_LD_10_RN_1_RD_10_0.png","C_Dist_300_LN_4_LD_5_RN_2_RD_4_0.png","C_Dist_300_LN_8_LD_16_RN_1_RD_5_0.png","C_Dist_300_LN_9_LD_10_RN_3_RD_5_0.png"],["C_Dist_300_LN_1_LD_20_RN_7_RD_20_1.png","C_Dist_300_LN_1_LD_3_RN_19_RD_30_1.png","C_Dist_300_LN_1_LD_30_RN_8_RD_24_1.png","C_Dist_300_LN_1_LD_5_RN_11_RD_22_1.png","C_Dist_300_LN_1_LD_5_RN_3_RD_6_1.png","C_Dist_300_LN_1_LD_5_RN_6_RD_12_1.png","C_Dist_300_LN_2_LD_10_RN_12_RD_24_1.png","C_Dist_300_LN_2_LD_20_RN_10_RD_25_1.png","C_Dist_300_LN_3_LD_12_RN_11_RD_20_1.png","C_Dist_300_LN_3_LD_6_RN_4_RD_5_1.png","C_Dist_300_LN_4_LD_20_RN_13_RD_26_1.png","C_Dist_300_LN_5_LD_25_RN_6_RD_12_1.png","C_Dist_300_LN_5_LD_25_RN_7_RD_14_1.png","C_Dist_300_LN_7_LD_14_RN_20_RD_25_1.png","C_Dist_300_LN_8_LD_15_RN_10_RD_12_1.png"]],"dist300_I":[["I_Dist_300_LN_1_LD_2_RN_2_RD_10_0.png","I_Dist_300_LN_1_LD_2_RN_3_RD_15_0.png","I_Dist_300_LN_2_LD_4_RN_6_RD_30_0.png","I_Dist_300_LN_3_LD_6_RN_4_RD_20_0.png","I_Dist_300_LN_4_LD_5_RN_6_RD_12_0.png","I_Dist_300_LN_4_LD_5_RN_8_RD_16_0.png","I_Dist_300_LN_7_LD_10_RN_8_RD_20_0.png","I_Dist_300_LN_8_LD_10_RN_14_RD_28_0.png","I_Dist_300_LN_8_LD_10_RN_9_RD_18_0.png"],["I_Dist_300_LN_13_LD_26_RN_12_RD_15_1.png","I_Dist_300_LN_4_LD_20_RN_2_RD_4_1.png"]],"dist300_S":[["E_Dist_300_LN_9_LD_12_RN_9_RD_20_0.png"],["E_Dist_300_LN_18_LD_30_RN_18_RD_20_1.png","E_Dist_300_LN_3_LD_10_RN_3_RD_5_1.png","E_Dist_300_LN_9_LD_20_RN_9_RD_12_1.png"]],"dist500_C":[["C_Dist_500_LN_10_LD_13_RN_7_RD_26_0.png","C_Dist_500_LN_10_LD_15_RN_4_RD_24_0.png","C_Dist_500_LN_12_LD_16_RN_3_RD_12_0.png","C_Dist_500_LN_12_LD_18_RN_4_RD_24_0.png","C_Dist_500_LN_15_LD_18_RN_5_RD_15_0.png","C_Dist_500_LN_15_LD_20_RN_1_RD_4_0.png","C_Dist_500_LN_18_LD_27_RN_1_RD_6_0.png","C_Dist_500_LN_20_LD_24_RN_1_RD_3_0.png","C_Dist_500_LN_20_LD_24_RN_3_RD_9_0.png","C_Dist_500_LN_20_LD_24_RN_7_RD_21_0.png","C_Dist_500_LN_20_LD_28_RN_3_RD_14_0.png","C_Dist_500_LN_21_LD_28_RN_6_RD_24_0.png","C_Dist_500_LN_22_LD_28_RN_2_RD_7_0.png","C_Dist_500_LN_25_LD_30_RN_9_RD_27_0.png","C_Dist_500_LN_4_LD_6_RN_1_RD_6_0.png","C_Dist_500_LN_5_LD_6_RN_2_RD_6_0.png","C_Dist_500_LN_6_LD_9_RN_1_RD_6_0.png","C_Dist_500_LN_7_LD_10_RN_1_RD_5_0.png","C_Dist_500_LN_8_LD_12_RN_1_RD_6_0.png","C_Dist_500_LN_8_LD_12_RN_4_RD_24_0.png"],["C_Dist_500_LN_1_LD_4_RN_12_RD_16_1.png","C_Dist_500_LN_1_LD_4_RN_9_RD_12_1.png","C_Dist_500_LN_1_LD_9_RN_11_RD_18_1.png","C_Dist_500_LN_10_LD_24_RN_22_RD_24_1.png","C_Dist_500_LN_2_LD_12_RN_10_RD_15_1.png","C_Dist_500_LN_2_LD_12_RN_12_RD_18_1.png","C_Dist_500_LN_2_LD_12_RN_4_RD_6_1.png","C_Dist_500_LN_2_LD_24_RN_7_RD_12_1.png","C_Dist_500_LN_2_LD_5_RN_18_RD_20_1.png","C_Dist_500_LN_2_LD_5_RN_9_RD_10_1.png","C_Dist_500_LN_2_LD_8_RN_12_RD_16_1.png","C_Dist_500_LN_2_LD_8_RN_21_RD_28_1.png","C_Dist_500_LN_3_LD_10_RN_4_RD_5_1.png","C_Dist_500_LN_3_LD_12_RN_15_RD_20_1.png","C_Dist_500_LN_3_LD_30_RN_6_RD_10_1.png","C_Dist_500_LN_3_LD_8_RN_14_RD_16_1.png","C_Dist_500_LN_4_LD_16_RN_15_RD_20_1.png","C_Dist_500_LN_4_LD_24_RN_12_RD_18_1.png","C_Dist_500_LN_5_LD_14_RN_6_RD_7_1.png","C_Dist_500_LN_7_LD_21_RN_20_RD_24_1.png","C_Dist_500_LN_7_LD_28_RN_12_RD_16_1.png","C_Dist_500_LN_7_LD_28_RN_9_RD_12_1.png","C_Dist_500_LN_9_LD_27_RN_20_RD_24_1.png"]],"dist500_I":[["I_Dist_500_LN_2_LD_3_RN_4_RD_24_0.png","I_Dist_500_LN_5_LD_6_RN_6_RD_18_0.png","I_Dist_500_LN_7_LD_8_RN_9_RD_24_0.png"],["I_Dist_500_LN_7_LD_21_RN_5_RD_6_1.png"]],"dist500_S":[["E_Dist_500_LN_6_LD_8_RN_6_RD_24_0.png"],["E_Dist_500_LN_2_LD_12_RN_2_RD_3_1.png","E_Dist_500_LN_6_LD_24_RN_6_RD_8_1.png"]]}},{"start_time":1551900919679,"click_time":1551900921496,"finger_time":1551900920977,"fix_duration":540.3439378217181,"trial":1,"RT":1298,"MT":519,"sideResp":1,"stimulus":[],"xmouse":[761,761,761,761,761,761,761,761,761,761,761,761,761,761,761,761,761,761,761,761,761,761,761,761,761,761,761,761,761,761,761,761,761,761,761,761,761,761,761,761,761,761,761,761,761,761,761,761,761,761,761,761,761,761,761,761,761,761,761,761,761,761,761,751,739,709,694,675,656,637,616,614,609,596,580,540,523,513,509,507,500,495,494,493,493,493,493,491,490,490,489],"ymouse":[519,519,519,519,519,519,519,519,519,519,519,519,519,519,519,519,519,519,519,519,519,519,519,519,519,519,519,519,519,519,519,519,519,519,519,519,519,519,519,519,519,519,519,519,519,519,519,519,519,519,519,519,519,519,519,519,519,519,519,519,519,519,519,497,471,404,372,335,301,278,255,254,252,247,241,222,212,206,201,195,172,158,151,148,148,148,140,128,121,116,93],"timestamp_mouse":[18,37,60,77,97,117,137,157,177,197,217,238,257,277,297,318,337,357,377,397,417,437,457,477,498,517,538,557,577,597,617,637,658,678,697,717,737,757,777,797,817,837,857,877,897,917,937,957,978,998,1017,1037,1059,1077,1097,1117,1137,1157,1177,1197,1218,1238,1257,1277,1297,1318,1337,1357,1377,1397,1417,1438,1457,1477,1497,1517,1538,1557,1577,1598,1617,1637,1657,1677,1697,1718,1737,1757,1777,1797,1817],"xSR":741.5,"ySR":469.95,"xT1":424.9,"yT1":0,"xT2":1058.1,"yT2":0,"toosoon":0,"cond_shown":"Incongruent","ratio_trial":200,"L_num":3,"L_den":10,"R_num":1,"R_den":2,"correct_side":2,"subjID":"DairaJuanitaRodriguezRamirez5","gender":"1","school":"6","age":"11"},{"start_time":1551900924057,"click_time":1551900925616,"finger_time":1551900925336,"fix_duration":1460.5511408720909,"trial":2,"RT":1279,"MT":280,"sideResp":1,"stimulus":[],"xmouse":[772,772,772,772,772,772,772,772,772,772,772,772,772,772,772,772,772,772,772,772,772,772,772,772,772,772,772,772,772,772,772,772,772,772,772,772,772,772,772,772,772,772,772,772,773,773,773,779,781,783,784,784,784,784,784,784,784,784,784,784,784,784,784,789,791,792,789,766,732,686,632,616,606,603,598,580,470,446],"ymouse":[493,493,493,493,493,493,493,493,493,493,493,493,493,493,493,493,493,493,493,493,493,493,493,493,493,493,493,493,493,493,493,493,493,493,493,493,493,493,493,493,493,493,493,493,493,493,493,488,486,483,483,483,483,483,483,483,483,483,483,483,483,483,483,468,449,426,360,309,259,218,176,164,155,153,149,139,106,99],"timestamp_mouse":[20,51,59,79,99,119,139,159,179,199,219,239,259,279,299,319,339,359,379,399,419,440,459,479,499,519,539,559,579,599,619,639,659,680,700,719,739,759,779,800,819,839,859,879,899,919,939,959,979,999,1019,1039,1059,1079,1100,1119,1139,1159,1179,1199,1219,1239,1259,1279,1299,1319,1340,1359,1379,1399,1419,1439,1459,1479,1499,1519,1540,1559],"xSR":741.5,"ySR":469.95,"xT1":424.9,"yT1":0,"xT2":1058.1,"yT2":0,"toosoon":0,"cond_shown":"Incongruent","ratio_trial":200,"L_num":6,"L_den":20,"R_num":3,"R_den":6,"correct_side":2,"subjID":"DairaJuanitaRodriguezRamirez5","gender":"1","school":"6","age":"11"},{"start_time":1551900926858,"click_time":1551900928317,"finger_time":1551900928216,"fix_duration":320.6526477288808,"trial":3,"RT":1358,"MT":101,"sideResp":2,"stimulus":[],"xmouse":[747,747,747,747,747,747,747,747,747,747,747,747,747,747,747,747,747,747,747,747,747,747,747,747,747,747,747,747,747,747,747,747,747,747,747,747,747,747,747,747,747,747,747,747,747,747,747,747,747,747,747,747,747,747,747,747,747,747,747,747,747,747,747,747,747,747,753,859,902,986,1024,1060,1101],"ymouse":[485,485,485,485,485,485,485,485,485,485,485,485,485,485,485,485,485,485,485,485,485,485,485,485,485,485,485,485,485,485,485,485,485,485,485,485,485,485,485,485,485,485,485,485,485,485,485,485,485,485,485,485,485,485,485,485,485,485,485,485,485,485,485,485,485,485,478,335,286,215,183,149,99],"timestamp_mouse":[19,39,59,78,98,118,138,158,178,199,218,238,259,278,298,319,339,359,378,398,418,439,459,478,498,518,538,558,578,598,618,638,658,679,698,718,738,758,778,799,818,840,859,878,898,919,938,959,978,998,1018,1038,1059,1078,1097,1118,1138,1158,1178,1198,1218,1239,1258,1278,1298,1318,1338,1358,1378,1398,1418,1438,1459],"xSR":741.5,"ySR":469.95,"xT1":424.9,"yT1":0,"xT2":1058.1,"yT2":0,"toosoon":0,"cond_shown":"Congruent","ratio_trial":100,"L_num":15,"L_den":25,"R_num":13,"R_den":26,"correct_side":1,"subjID":"DairaJuanitaRodriguezRamirez5","gender":"1","school":"6","age":"11"},{"start_time":1551900930208,"click_time":1551900931917,"finger_time":1551900931556,"fix_duration":629.3273525793421,"trial":4,"RT":1348,"MT":361,"sideResp":2,"stimulus":[],"xmouse":[781,781,781,781,781,781,781,781,781,781,780,780,780,780,780,780,780,780,780,780,780,780,780,780,780,780,780,780,780,780,780,780,780,780,780,780,780,780,780,780,780,780,780,781,781,781,781,781,781,781,781,781,781,781,781,781,781,781,781,781,781,781,781,781,781,781,804,840,881,925,1017,1017,1017,1017,1017,1017,1017,1017,1017,1017,1017,1017,1017,1017,1017,1124],"ymouse":[551,551,551,551,550,537,534,529,526,525,524,524,524,524,524,524,524,524,524,524,524,524,524,524,524,524,524,524,524,524,524,524,524,524,524,524,524,524,524,524,524,524,524,524,524,524,524,524,524,524,524,524,524,524,524,524,524,524,524,524,524,524,524,524,524,524,475,408,337,254,18,18,18,18,18,18,18,18,18,18,18,18,18,18,18,50],"timestamp_mouse":[11,37,48,68,88,109,128,148,168,189,208,228,249,268,288,308,328,348,368,388,408,429,448,468,488,509,528,548,568,588,608,628,648,668,688,708,728,748,768,788,810,828,848,868,888,908,928,948,968,988,1008,1028,1048,1068,1088,1108,1128,1149,1168,1188,1209,1228,1248,1268,1288,1308,1328,1348,1368,1389,1409,1428,1448,1468,1488,1508,1528,1548,1568,1589,1609,1629,1648,1668,1688,1709],"xSR":741.5,"ySR":469.95,"xT1":424.9,"yT1":0,"xT2":1058.1,"yT2":0,"toosoon":0,"cond_shown":"Incongruent","ratio_trial":200,"L_num":1,"L_den":2,"R_num":3,"R_den":10,"correct_side":1,"subjID":"DairaJuanitaRodriguezRamirez5","gender":"1","school":"6","age":"11"},{"start_time":1551900934343,"click_time":1551900935376,"finger_time":1551900935296,"fix_duration":784.1478903225488,"trial":5,"RT":953,"MT":80,"sideResp":2,"stimulus":[],"xmouse":[787,787,787,787,787,787,787,787,787,787,787,787,787,787,787,787,787,787,787,787,787,787,787,788,788,788,788,788,788,788,789,789,789,789,789,789,789,789,789,789,789,789,789,789,792,804,829,865,970,1015,1056,1069],"ymouse":[535,535,535,535,535,535,535,535,535,535,535,535,535,535,535,535,535,535,535,535,535,535,535,535,535,535,535,535,535,535,535,535,535,535,535,535,535,535,535,535,535,535,535,535,534,515,476,410,250,163,43,7],"timestamp_mouse":[14,36,54,73,93,113,133,153,174,193,214,233,253,273,293,313,334,353,374,394,413,433,453,474,493,513,533,553,573,594,613,633,653,673,693,713,733,753,774,794,813,833,853,873,894,914,933,953,975,993,1013,1033],"xSR":741.5,"ySR":469.95,"xT1":424.9,"yT1":0,"xT2":1058.1,"yT2":0,"toosoon":0,"cond_shown":"Congruent","ratio_trial":100,"L_num":4,"L_den":10,"R_num":15,"R_den":30,"correct_side":2,"subjID":"DairaJuanitaRodriguezRamirez5","gender":"1","school":"6","age":"11"},{"start_time":1551900938035,"click_time":1551900939656,"finger_time":1551900939217,"fix_duration":1277.725018078633,"trial":6,"RT":1182,"MT":439,"sideResp":2,"stimulus":[],"xmouse":[781,781,781,781,781,781,781,781,781,781,781,781,781,781,781,781,781,781,781,781,781,781,781,781,781,781,781,781,781,781,781,781,781,781,781,781,781,781,781,781,781,781,781,781,781,781,781,781,781,781,781,781,781,781,781,781,781,781,785,797,826,883,903,918,927,944,958,966,970,974,979,980,980,980,980,987,988,990,995,1006,1048,1070],"ymouse":[489,489,489,489,489,489,489,489,489,489,489,489,489,489,489,489,489,489,489,489,489,489,489,489,489,489,489,489,489,489,489,489,489,489,489,489,489,489,489,489,489,489,489,489,489,489,489,489,489,489,489,489,489,489,489,489,489,489,473,457,427,376,358,345,329,287,247,220,194,170,135,125,119,115,113,105,103,102,102,100,91,86],"timestamp_mouse":[9,30,41,61,82,101,121,141,161,182,201,221,241,261,281,301,321,341,361,381,401,421,441,461,482,501,521,541,561,581,601,621,641,661,681,701,721,741,761,781,801,821,842,861,882,901,921,941,961,981,1001,1022,1041,1062,1082,1101,1121,1141,1161,1182,1201,1222,1241,1262,1281,1301,1322,1341,1362,1381,1401,1422,1441,1461,1481,1501,1522,1541,1561,1581,1601,1621],"xSR":741.5,"ySR":469.95,"xT1":424.9,"yT1":0,"xT2":1058.1,"yT2":0,"toosoon":0,"cond_shown":"Incongruent","ratio_trial":200,"L_num":1,"L_den":2,"R_num":3,"R_den":10,"correct_side":1,"subjID":"DairaJuanitaRodriguezRamirez5","gender":"1","school":"6","age":"11"},{"start_time":1551900941458,"click_time":1551900943056,"finger_time":1551900942456,"fix_duration":679.1974018539155,"trial":7,"RT":998,"MT":600,"sideResp":2,"stimulus":[],"xmouse":[809,809,809,809,809,809,810,810,810,810,810,810,810,810,810,810,811,811,811,811,811,811,811,811,811,811,811,811,811,811,811,811,811,811,811,811,811,811,811,811,811,811,811,811,812,819,823,832,840,852,857,868,875,889,895,902,908,913,926,932,938,942,947,948,948,948,948,948,953,965,972,982,988,1013,1030,1047,1061,1073,1086,1108],"ymouse":[543,543,543,543,543,543,543,543,543,543,543,543,543,543,543,543,543,543,543,543,543,543,543,543,543,543,543,543,543,543,543,543,543,543,543,543,543,543,543,543,543,543,543,543,543,536,527,510,498,469,452,425,405,368,346,325,303,286,247,225,206,188,173,168,168,168,168,168,161,150,146,142,141,136,131,123,117,111,105,96],"timestamp_mouse":[28,38,59,78,99,118,139,158,178,198,219,238,258,278,298,319,338,358,378,398,418,438,459,478,498,518,538,558,578,598,618,638,658,678,698,718,738,758,779,798,818,838,858,878,899,918,939,958,978,998,1018,1038,1058,1079,1098,1118,1138,1158,1180,1198,1218,1238,1258,1278,1299,1318,1338,1358,1379,1399,1419,1438,1458,1479,1498,1519,1538,1558,1579,1597],"xSR":741.5,"ySR":469.95,"xT1":424.9,"yT1":0,"xT2":1058.1,"yT2":0,"toosoon":0,"cond_shown":"Incongruent","ratio_trial":100,"L_num":1,"L_den":2,"R_num":8,"R_den":20,"correct_side":1,"subjID":"DairaJuanitaRodriguezRamirez5","gender":"1","school":"6","age":"11"},{"start_time":1551900956920,"click_time":1551900959078,"finger_time":1551900958457,"fix_duration":563.4263971498746,"trial":8,"RT":1537,"MT":621,"sideResp":1,"stimulus":[],"xmouse":[800,800,800,800,800,800,800,800,800,800,800,800,800,800,800,800,800,800,800,800,800,800,800,800,800,800,800,800,800,800,800,800,800,800,800,800,800,800,800,800,800,800,800,800,800,800,800,800,800,800,800,800,800,800,800,800,800,800,800,800,800,800,800,800,800,800,800,800,800,800,800,800,800,800,791,768,734,682,657,642,638,638,638,638,637,635,626,617,606,603,601,599,591,583,572,564,559,554,552,549,546,545,544,543,541,535,526,506],"ymouse":[549,549,549,549,549,549,549,549,549,549,549,549,549,549,549,549,549,549,549,549,549,549,549,549,549,549,549,549,549,549,549,549,549,549,549,549,549,549,549,549,549,549,549,549,549,549,549,549,549,549,549,549,549,549,549,549,549,549,549,549,549,549,549,549,549,549,549,549,549,549,549,549,549,549,524,475,428,370,354,347,344,344,344,344,344,342,331,324,312,306,302,297,280,267,252,242,235,229,223,215,206,199,188,184,176,158,137,90],"timestamp_mouse":[17,37,56,77,96,116,136,156,176,196,217,236,256,276,296,317,336,356,377,397,417,436,456,476,496,517,537,556,576,596,616,637,656,677,697,716,736,756,776,796,816,836,856,877,897,916,936,957,977,996,1016,1036,1056,1076,1097,1116,1136,1156,1176,1198,1217,1236,1256,1277,1296,1316,1336,1357,1377,1396,1416,1436,1456,1476,1496,1516,1537,1556,1576,1596,1616,1636,1657,1676,1696,1716,1737,1757,1776,1796,1816,1837,1856,1876,1896,1917,1936,1957,1976,1996,2017,2036,2057,2076,2098,2118,2136,2157],"xSR":741.5,"ySR":469.95,"xT1":424.9,"yT1":0,"xT2":1058.1,"yT2":0,"toosoon":0,"cond_shown":"Congruent","ratio_trial":300,"L_num":20,"L_den":25,"R_num":14,"R_den":28,"correct_side":1,"subjID":"DairaJuanitaRodriguezRamirez5","gender":"1","school":"6","age":"11"},{"start_time":1551900960784,"click_time":1551900962937,"finger_time":1551900962256,"fix_duration":426.3688365645688,"trial":9,"RT":1472,"MT":681,"sideResp":2,"stimulus":[],"xmouse":[826,826,826,826,826,826,826,826,826,826,826,826,826,826,826,826,826,826,826,826,826,826,826,826,826,826,826,826,826,826,826,826,826,826,826,826,826,826,826,826,826,826,826,826,826,826,826,826,826,826,826,826,826,826,826,826,826,826,826,826,826,826,826,826,826,826,826,826,826,824,823,817,804,797,795,795,795,795,795,795,795,795,799,811,836,900,915,931,945,951,958,961,965,967,969,974,977,979,980,983,987,995,1000,1007,1013,1021,1040,1072],"ymouse":[497,497,497,497,497,497,497,497,497,497,497,497,497,497,497,497,497,497,497,497,497,497,497,497,497,497,497,497,497,497,497,497,497,497,497,497,497,497,497,497,497,497,497,497,497,497,497,497,497,497,497,497,497,497,497,497,497,497,497,497,497,497,497,497,497,497,497,497,496,495,494,483,470,463,462,462,462,462,462,462,462,455,448,436,418,349,311,269,227,201,167,155,148,141,135,120,108,103,101,98,96,94,92,89,86,84,81,77],"timestamp_mouse":[17,35,52,72,93,112,132,152,172,193,213,232,252,272,293,313,332,352,372,393,412,433,452,472,493,512,533,553,572,592,612,632,652,673,693,712,734,754,773,793,812,833,852,872,893,913,932,952,972,992,1012,1032,1052,1072,1093,1113,1132,1152,1172,1193,1213,1232,1253,1273,1292,1312,1332,1353,1372,1393,1412,1432,1452,1472,1492,1512,1533,1554,1572,1592,1612,1632,1652,1672,1692,1712,1733,1754,1772,1792,1813,1832,1852,1873,1892,1912,1932,1952,1973,1994,2012,2033,2052,2072,2092,2112,2132,2152],"xSR":741.5,"ySR":469.95,"xT1":424.9,"yT1":0,"xT2":1058.1,"yT2":0,"toosoon":0,"cond_shown":"Incongruent","ratio_trial":100,"L_num":6,"L_den":10,"R_num":13,"R_den":26,"correct_side":1,"subjID":"DairaJuanitaRodriguezRamirez5","gender":"1","school":"6","age":"11"},{"start_time":1551900964399,"click_time":1551900966476,"finger_time":1551900965897,"fix_duration":281.4561898555195,"trial":10,"RT":1498,"MT":579,"sideResp":2,"stimulus":[],"xmouse":[822,822,822,822,822,822,822,822,822,822,822,822,822,822,822,822,822,822,822,822,822,822,822,822,822,822,822,822,822,822,822,822,822,822,822,822,822,822,822,822,822,824,824,825,825,825,825,825,825,825,825,825,825,825,825,825,825,825,825,825,825,825,825,825,825,825,825,825,825,825,825,825,825,831,849,853,856,860,862,877,884,892,894,896,1033,1123,1190,1214,1219,1221,1223,1223,1224,1224,1226,1226,1226,1226,1226,1211,1187,1162,1141,1124],"ymouse":[549,549,549,549,549,549,548,547,537,534,534,534,534,534,534,534,534,534,534,534,534,534,534,534,533,533,533,533,533,533,533,533,533,533,533,533,533,533,533,533,533,533,533,534,534,534,534,534,534,534,534,534,534,534,534,534,534,534,534,534,534,534,534,534,534,534,534,534,534,534,534,534,534,522,476,459,439,413,382,303,280,266,263,261,222,209,192,181,175,168,160,159,157,154,144,141,139,138,138,131,124,115,105,97],"timestamp_mouse":[32,38,57,77,97,117,137,158,177,197,217,239,258,277,298,317,339,357,378,398,417,437,457,477,497,517,537,557,577,598,618,637,657,677,697,717,737,757,777,798,817,837,857,877,898,917,938,957,977,997,1017,1038,1058,1077,1097,1117,1137,1158,1177,1198,1217,1237,1258,1277,1297,1317,1337,1357,1378,1397,1418,1438,1457,1478,1498,1517,1537,1557,1577,1598,1618,1637,1658,1678,1698,1717,1737,1757,1777,1797,1817,1837,1857,1877,1897,1917,1937,1957,1977,1997,2018,2038,2057,2077],"xSR":741.5,"ySR":469.95,"xT1":424.9,"yT1":0,"xT2":1058.1,"yT2":0,"toosoon":0,"cond_shown":"Congruent","ratio_trial":200,"L_num":6,"L_den":20,"R_num":11,"R_den":22,"correct_side":2,"subjID":"DairaJuanitaRodriguezRamirez5","gender":"1","school":"6","age":"11"},{"start_time":1551900970210,"click_time":1551900972216,"finger_time":1551900971317,"fix_duration":1292.1959611109723,"trial":11,"RT":1107,"MT":899,"sideResp":1,"stimulus":[],"xmouse":[798,798,798,798,798,798,798,798,798,798,798,798,798,798,798,798,798,798,798,798,798,798,798,798,798,798,798,798,798,798,798,798,798,798,798,798,798,798,798,798,798,798,798,798,798,798,798,798,798,798,798,798,798,795,779,718,701,694,690,689,682,679,679,678,678,671,658,654,652,652,642,631,614,601,592,588,588,584,579,569,546,545,545,545,545,544,539,528,513,507,503,501,501,501,500,494,491,490,490,490,488],"ymouse":[517,517,517,517,517,517,517,517,517,517,517,517,517,517,517,517,517,517,517,517,517,517,517,517,517,517,517,517,517,517,517,517,517,517,517,517,517,517,517,517,517,517,517,517,517,517,517,517,517,517,516,516,515,513,497,459,449,441,438,437,429,426,426,426,426,415,409,407,406,406,393,383,372,366,363,361,361,359,358,357,357,357,357,357,357,355,318,247,198,176,156,143,140,136,127,105,101,101,101,101,88],"timestamp_mouse":[10,34,47,67,86,106,127,146,167,187,207,227,246,266,287,306,326,347,366,387,407,426,446,466,487,507,526,546,566,586,606,628,647,666,686,708,728,746,766,786,807,827,846,866,886,906,927,946,966,986,1006,1026,1046,1066,1087,1106,1126,1146,1166,1186,1206,1226,1247,1267,1286,1306,1326,1347,1367,1387,1407,1427,1446,1467,1486,1507,1526,1546,1566,1586,1606,1627,1646,1667,1686,1707,1727,1746,1766,1786,1806,1827,1846,1866,1887,1907,1926,1947,1967,1987,2006],"xSR":741.5,"ySR":469.95,"xT1":424.9,"yT1":0,"xT2":1058.1,"yT2":0,"toosoon":0,"cond_shown":"Congruent","ratio_trial":300,"L_num":12,"L_den":24,"R_num":2,"R_den":10,"correct_side":1,"subjID":"DairaJuanitaRodriguezRamirez5","gender":"1","school":"6","age":"11"},{"start_time":1551900973886,"click_time":1551900974677,"finger_time":1551900974536,"fix_duration":468.2931152472715,"trial":12,"RT":650,"MT":141,"sideResp":2,"stimulus":[],"xmouse":[781,781,781,781,781,781,781,781,781,781,781,781,781,781,781,781,781,781,781,781,781,781,781,781,781,781,781,781,781,781,781,781,881,946,988,1007,1023,1042,1081,1116],"ymouse":[520,520,520,520,520,520,520,520,520,520,520,520,520,520,520,520,520,520,520,520,520,520,520,520,520,520,520,520,520,520,520,518,376,293,242,217,191,166,122,90],"timestamp_mouse":[11,31,51,70,90,110,131,151,171,190,210,231,251,270,290,310,330,350,370,391,410,430,450,471,491,511,531,552,570,590,610,630,650,670,690,710,730,751,770,791],"xSR":741.5,"ySR":469.95,"xT1":424.9,"yT1":0,"xT2":1058.1,"yT2":0,"toosoon":0,"cond_shown":"Congruent","ratio_trial":200,"L_num":5,"L_den":10,"R_num":14,"R_den":20,"correct_side":2,"subjID":"DairaJuanitaRodriguezRamirez5","gender":"1","school":"6","age":"11"},{"start_time":1551900977440,"click_time":1551900978996,"finger_time":1551900978337,"fix_duration":1002.9670393221347,"trial":13,"RT":897,"MT":659,"sideResp":1,"stimulus":[],"xmouse":[783,783,783,783,783,783,783,783,783,783,783,783,783,783,783,783,783,783,783,783,783,783,783,783,783,783,783,783,783,783,783,783,783,783,783,783,783,783,783,783,783,783,781,749,733,712,689,678,668,665,663,660,656,650,640,632,631,630,628,628,628,628,628,628,628,628,628,628,627,613,599,593,589,582,566,525,480,449],"ymouse":[520,520,520,520,520,520,520,520,520,520,520,520,520,520,520,520,520,520,520,520,520,520,520,520,520,520,520,520,520,520,520,520,520,520,520,520,520,520,520,520,520,519,519,484,473,462,445,437,412,399,386,368,358,351,340,336,336,336,335,335,335,335,335,335,335,335,335,335,335,331,328,324,319,306,271,195,127,83],"timestamp_mouse":[19,36,57,77,96,116,136,156,177,196,217,236,256,276,296,316,337,356,377,396,416,437,456,476,496,518,536,556,577,596,618,636,656,676,696,716,736,756,777,796,816,836,856,877,897,916,936,956,978,996,1017,1036,1056,1078,1096,1116,1136,1156,1177,1196,1216,1236,1257,1276,1296,1316,1336,1357,1376,1396,1416,1436,1456,1476,1496,1516,1536,1556],"xSR":741.5,"ySR":469.95,"xT1":424.9,"yT1":0,"xT2":1058.1,"yT2":0,"toosoon":0,"cond_shown":"Congruent","ratio_trial":300,"L_num":12,"L_den":24,"R_num":2,"R_den":10,"correct_side":1,"subjID":"DairaJuanitaRodriguezRamirez5","gender":"1","school":"6","age":"11"},{"start_time":1551900983390,"click_time":1551900985917,"finger_time":1551900984736,"fix_duration":1332.0600742531656,"trial":14,"RT":1346,"MT":1181,"sideResp":1,"stimulus":[],"xmouse":[792,792,792,792,792,792,792,792,792,792,792,792,792,792,792,792,792,792,792,792,792,792,792,792,792,792,792,792,792,792,792,792,792,792,792,792,792,792,792,792,792,792,792,792,792,792,792,792,792,792,792,792,792,792,792,792,792,792,792,792,792,792,792,792,790,789,786,717,670,620,583,569,566,566,566,565,565,565,565,565,564,557,535,525,515,510,507,501,499,499,499,499,499,499,499,499,499,499,499,498,498,498,498,498,498,498,498,498,498,498,498,498,498,498,498,498,498,498,498,498,498,498,498,498,498,498,498],"ymouse":[516,516,516,516,516,516,516,516,516,516,516,516,516,516,516,516,516,516,516,516,516,516,516,516,516,516,516,516,516,516,516,516,516,516,516,516,516,516,516,516,516,516,516,516,516,516,516,516,516,516,516,516,516,516,516,516,516,516,516,516,516,516,516,516,514,514,512,360,282,226,203,192,188,188,188,187,187,187,187,185,177,169,160,157,156,155,153,143,138,135,134,132,130,124,117,110,105,103,103,101,101,101,101,101,101,101,101,101,101,101,101,101,101,101,101,101,101,101,101,101,101,101,101,101,101,101,98],"timestamp_mouse":[8,39,47,66,86,106,126,146,167,186,206,227,247,266,286,307,326,347,367,386,406,426,446,467,486,506,527,546,567,586,606,627,647,666,687,706,726,746,766,787,806,827,846,866,886,906,927,946,967,986,1007,1027,1046,1066,1086,1106,1126,1146,1166,1186,1206,1227,1247,1267,1286,1306,1326,1346,1366,1386,1406,1426,1446,1466,1486,1506,1526,1546,1566,1586,1606,1626,1647,1666,1686,1706,1726,1747,1766,1787,1806,1826,1847,1866,1886,1906,1926,1946,1966,1986,2007,2026,2047,2066,2086,2106,2126,2147,2166,2186,2207,2226,2246,2266,2286,2306,2326,2349,2367,2386,2406,2427,2446,2466,2486,2506,2527],"xSR":741.5,"ySR":469.95,"xT1":424.9,"yT1":0,"xT2":1058.1,"yT2":0,"toosoon":0,"cond_shown":"Congruent","ratio_trial":300,"L_num":3,"L_den":6,"R_num":2,"R_den":10,"correct_side":1,"subjID":"DairaJuanitaRodriguezRamirez5","gender":"1","school":"6","age":"11"},{"start_time":1551900989783,"click_time":1551900990936,"finger_time":1551900990537,"fix_duration":1445.8376998314436,"trial":15,"RT":754,"MT":399,"sideResp":1,"stimulus":[],"xmouse":[779,779,779,779,779,779,779,779,779,779,779,779,779,779,779,779,779,779,779,779,779,779,779,779,779,779,779,779,779,779,779,779,779,779,779,778,777,765,696,666,647,635,621,602,586,569,549,534,524,524,524,528,532,535,526,516,505,497],"ymouse":[501,501,501,501,501,501,501,501,501,501,501,501,501,501,501,501,501,501,501,501,501,501,501,501,501,501,501,501,501,501,501,501,501,501,501,499,498,466,355,329,312,296,277,248,229,216,209,204,197,195,190,181,171,149,127,115,104,96],"timestamp_mouse":[13,35,53,74,93,114,134,154,173,193,214,234,253,274,293,314,333,353,373,393,414,433,453,474,493,514,533,554,573,593,613,633,653,674,693,713,734,754,773,793,813,834,853,873,894,913,933,953,973,993,1013,1033,1053,1073,1094,1113,1133,1153],"xSR":741.5,"ySR":469.95,"xT1":424.9,"yT1":0,"xT2":1058.1,"yT2":0,"toosoon":0,"cond_shown":"Congruent","ratio_trial":300,"L_num":24,"L_den":30,"R_num":2,"R_den":4,"correct_side":1,"subjID":"DairaJuanitaRodriguezRamirez5","gender":"1","school":"6","age":"11"},{"start_time":1551900994016,"click_time":1551900995416,"finger_time":1551900995116,"fix_duration":1298.070660156312,"trial":16,"RT":1100,"MT":300,"sideResp":2,"stimulus":[],"xmouse":[804,804,804,804,804,804,804,804,804,804,804,804,804,804,804,805,805,805,805,805,805,805,805,805,805,805,805,805,805,805,805,805,805,805,805,805,805,805,805,805,805,805,805,805,805,805,805,805,805,805,805,805,805,805,816,822,833,848,920,956,1024,1052,1072,1072,1072,1072,1072,1072,1072,1072,1072],"ymouse":[493,493,493,493,493,493,493,493,493,493,493,493,493,493,493,494,494,494,494,494,494,494,494,494,494,494,494,494,494,494,494,494,494,494,494,494,494,494,494,494,494,494,494,494,494,494,494,494,494,494,494,494,494,494,473,460,442,411,314,271,216,192,161,155,151,147,146,133,121,105,93],"timestamp_mouse":[1,20,40,60,81,100,120,140,161,180,201,221,241,260,281,301,321,341,361,380,400,420,440,460,481,500,520,541,562,580,600,620,640,660,680,700,720,740,760,780,800,820,840,860,880,900,921,941,960,980,1000,1021,1040,1060,1080,1100,1120,1141,1160,1181,1200,1220,1240,1261,1281,1300,1320,1340,1360,1380,1400],"xSR":741.5,"ySR":469.95,"xT1":424.9,"yT1":0,"xT2":1058.1,"yT2":0,"toosoon":0,"cond_shown":"Congruent","ratio_trial":300,"L_num":4,"L_den":20,"R_num":13,"R_den":26,"correct_side":2,"subjID":"DairaJuanitaRodriguezRamirez5","gender":"1","school":"6","age":"11"},{"start_time":1551900997978,"click_time":1551900999976,"finger_time":1551900999576,"fix_duration":1201.8840729770743,"trial":17,"RT":1598,"MT":400,"sideResp":2,"stimulus":[],"xmouse":[784,784,784,784,784,784,784,784,784,784,784,784,784,784,784,784,784,784,784,784,784,784,784,784,784,784,784,784,784,784,784,784,784,784,784,784,784,784,784,784,784,784,784,784,784,784,784,784,784,784,784,784,785,785,785,785,785,785,787,787,787,787,787,787,787,787,787,787,787,787,787,787,787,787,789,794,797,804,816,938,1016,1083,1146,1191,1216,1219,1220,1221,1221,1220,1220,1219,1219,1218,1218,1210,1202,1192,1178,1158],"ymouse":[544,544,544,544,544,544,544,544,544,544,544,544,543,543,543,543,543,543,543,543,543,543,543,543,543,543,543,543,543,543,543,543,543,543,543,543,543,543,543,543,543,543,543,543,543,543,543,543,543,543,543,543,543,543,543,543,543,542,541,541,540,540,540,540,540,540,540,540,540,540,540,540,540,540,537,531,525,513,493,363,299,239,176,131,77,59,47,38,32,17,9,5,3,3,3,6,13,23,34,58],"timestamp_mouse":[34,39,58,78,99,119,138,158,179,199,218,238,259,278,298,319,338,359,379,399,418,438,458,478,498,519,538,558,578,599,618,638,659,678,698,718,738,758,778,798,818,839,858,880,899,918,938,958,978,998,1018,1039,1058,1078,1098,1118,1139,1158,1179,1198,1218,1239,1258,1278,1299,1318,1339,1359,1378,1398,1418,1438,1458,1478,1499,1518,1538,1558,1578,1598,1619,1638,1658,1678,1698,1719,1739,1758,1778,1798,1819,1838,1858,1878,1898,1918,1939,1958,1978,1998],"xSR":741.5,"ySR":469.95,"xT1":424.9,"yT1":0,"xT2":1058.1,"yT2":0,"toosoon":0,"cond_shown":"Congruent","ratio_trial":200,"L_num":8,"L_den":15,"R_num":7,"R_den":21,"correct_side":1,"subjID":"DairaJuanitaRodriguezRamirez5","gender":"1","school":"6","age":"11"},{"start_time":1551901001547,"click_time":1551901003117,"finger_time":1551901002276,"fix_duration":250,"trial":18,"RT":729,"MT":841,"sideResp":1,"stimulus":[],"xmouse":[777,781,783,784,784,784,784,784,784,785,785,785,785,785,785,785,785,785,785,785,785,785,785,785,785,785,785,785,785,785,785,785,786,786,786,779,742,721,702,685,670,661,658,656,653,649,641,641,639,637,630,624,606,590,569,548,520,512,507,505,500,491,491,491,491,491,489,486,484,484,484,484,484,484,484,483,483,482,503],"ymouse":[523,520,518,518,518,518,518,518,518,517,517,517,517,517,517,517,517,517,517,517,517,517,517,517,517,517,517,517,517,517,517,517,515,502,491,473,420,389,362,334,308,293,289,287,284,280,276,276,275,272,262,252,234,226,216,208,200,196,192,190,181,162,161,161,161,161,159,158,157,157,157,157,157,156,156,156,156,133,77],"timestamp_mouse":[10,30,54,69,89,109,129,149,169,189,210,230,249,270,289,309,329,349,370,389,410,429,450,469,490,509,529,550,569,589,609,630,649,669,690,709,729,749,769,789,809,830,849,869,889,909,930,950,969,989,1010,1029,1049,1069,1089,1109,1130,1149,1169,1189,1209,1230,1249,1270,1289,1309,1330,1349,1369,1389,1410,1430,1449,1469,1489,1509,1529,1550,1570],"xSR":741.5,"ySR":469.95,"xT1":424.9,"yT1":0,"xT2":1058.1,"yT2":0,"toosoon":0,"cond_shown":"Congruent","ratio_trial":200,"L_num":21,"L_den":30,"R_num":2,"R_den":4,"correct_side":1,"subjID":"DairaJuanitaRodriguezRamirez5","gender":"1","school":"6","age":"11"},{"start_time":1551901004970,"click_time":1551901006297,"finger_time":1551901005816,"fix_duration":433.3420904497398,"trial":19,"RT":846,"MT":481,"sideResp":2,"stimulus":[],"xmouse":[804,804,804,804,804,804,804,804,804,804,804,804,804,804,804,804,804,804,804,804,804,804,804,804,804,804,804,804,804,804,804,804,804,804,804,804,804,804,804,804,804,804,815,841,854,875,884,897,905,912,920,947,957,964,967,967,967,967,968,976,990,1024,1039,1049,1057,1061,1065],"ymouse":[498,498,498,498,498,498,498,498,498,498,498,498,498,498,498,498,498,498,498,498,498,498,498,498,498,498,498,498,498,498,498,497,497,497,497,497,497,497,497,497,497,497,467,417,395,358,342,315,298,285,273,243,231,223,218,215,215,215,213,202,184,149,133,121,109,103,95],"timestamp_mouse":[11,37,46,66,87,107,126,147,166,186,206,227,246,266,287,306,327,347,367,387,406,427,446,466,486,507,527,548,567,588,606,627,646,667,686,707,727,747,766,786,806,826,846,866,886,908,926,947,968,987,1006,1026,1046,1066,1086,1107,1126,1146,1166,1186,1206,1226,1247,1267,1286,1306,1326],"xSR":741.5,"ySR":469.95,"xT1":424.9,"yT1":0,"xT2":1058.1,"yT2":0,"toosoon":0,"cond_shown":"Incongruent","ratio_trial":300,"L_num":4,"L_den":5,"R_num":8,"R_den":16,"correct_side":1,"subjID":"DairaJuanitaRodriguezRamirez5","gender":"1","school":"6","age":"11"},{"start_time":1551901008216,"click_time":1551901010056,"finger_time":1551901008976,"fix_duration":559.5919576026912,"trial":20,"RT":760,"MT":1080,"sideResp":1,"stimulus":[],"xmouse":[811,811,811,811,811,812,812,812,812,812,813,813,813,813,813,813,813,813,813,813,813,813,813,813,813,813,813,813,813,813,813,813,813,813,813,801,774,753,733,707,702,695,691,689,678,674,670,666,662,654,649,645,637,623,577,558,545,535,528,517,513,510,510,510,512,515,516,516,516,516,516,516,516,516,515,515,515,515,515,515,515,515,515,515,515,515,515,515,515,514,514,514,512],"ymouse":[532,532,532,532,532,530,530,530,530,529,527,527,527,527,527,527,527,527,527,527,527,527,527,527,527,527,527,527,527,527,527,527,527,527,527,519,506,495,478,443,425,404,387,369,321,307,291,279,271,260,257,254,251,246,229,219,211,203,194,173,161,150,144,138,135,131,131,131,131,131,131,130,128,123,116,116,116,116,116,116,116,116,116,115,115,114,107,105,105,104,104,102,97],"timestamp_mouse":[1,20,44,61,80,101,120,140,160,180,201,220,240,260,280,301,320,340,360,380,400,420,440,460,480,500,520,540,560,580,601,620,641,660,680,701,720,740,760,781,801,820,840,860,881,901,920,940,960,980,1001,1021,1040,1060,1080,1100,1121,1140,1160,1180,1201,1221,1240,1260,1280,1300,1321,1341,1360,1382,1400,1420,1440,1460,1480,1500,1520,1540,1561,1580,1600,1620,1640,1660,1680,1700,1720,1740,1760,1780,1801,1820,1840],"xSR":741.5,"ySR":469.95,"xT1":424.9,"yT1":0,"xT2":1058.1,"yT2":0,"toosoon":0,"cond_shown":"Congruent","ratio_trial":300,"L_num":24,"L_den":30,"R_num":8,"R_den":16,"correct_side":1,"subjID":"DairaJuanitaRodriguezRamirez5","gender":"1","school":"6","age":"11"},{"start_time":1551901012468,"click_time":1551901014037,"finger_time":1551901013696,"fix_duration":1050.248023096926,"trial":21,"RT":1228,"MT":341,"sideResp":1,"stimulus":[],"xmouse":[793,793,793,793,793,793,793,793,793,793,793,793,793,793,793,793,793,793,793,793,793,793,793,793,793,793,793,793,793,793,793,793,793,793,793,793,793,793,793,793,793,793,793,793,793,793,793,793,793,793,793,794,794,794,794,794,794,794,794,794,795,794,768,749,721,698,681,674,667,660,654,642,637,627,612,596,572,524,491],"ymouse":[485,485,485,485,485,485,485,485,485,485,485,485,485,485,485,485,485,485,486,486,486,486,486,486,486,486,486,486,486,486,486,486,486,486,486,486,486,486,486,486,486,486,486,486,486,486,486,486,486,486,486,486,486,486,486,486,486,486,486,486,480,460,408,388,364,343,298,275,253,225,208,180,172,159,147,136,124,108,94],"timestamp_mouse":[14,40,48,68,88,108,129,148,168,188,208,230,249,268,288,308,328,348,368,388,408,428,448,468,489,508,528,548,568,588,608,629,648,669,688,708,729,749,768,788,808,828,848,868,889,908,929,948,968,989,1008,1029,1048,1068,1088,1108,1128,1148,1168,1188,1208,1228,1248,1268,1288,1309,1329,1348,1368,1388,1408,1429,1448,1469,1488,1509,1528,1548,1569],"xSR":741.5,"ySR":469.95,"xT1":424.9,"yT1":0,"xT2":1058.1,"yT2":0,"toosoon":0,"cond_shown":"Congruent","ratio_trial":300,"L_num":11,"L_den":22,"R_num":4,"R_den":20,"correct_side":1,"subjID":"DairaJuanitaRodriguezRamirez5","gender":"1","school":"6","age":"11"},{"start_time":1551901016297,"click_time":1551901017638,"finger_time":1551901017218,"fix_duration":760.8707119193238,"trial":22,"RT":921,"MT":420,"sideResp":2,"stimulus":[],"xmouse":[793,793,793,793,793,793,793,793,793,793,793,793,793,793,793,793,793,793,793,793,793,793,793,793,793,793,793,793,793,793,793,793,793,793,793,793,793,793,793,793,793,793,793,793,797,834,856,875,893,910,923,951,964,975,991,1008,1012,1016,1017,1017,1019,1020,1021,1024,1037,1051,1095],"ymouse":[517,517,517,517,517,517,517,517,517,517,517,517,517,517,517,517,517,517,517,517,517,517,517,517,517,517,517,517,517,517,517,517,517,517,517,517,517,517,517,517,517,517,517,515,506,468,453,441,428,415,400,335,291,253,201,143,126,115,110,106,99,96,95,90,77,70,58],"timestamp_mouse":[20,43,59,80,101,120,140,159,179,200,219,239,261,279,299,319,339,359,379,399,419,439,460,479,499,519,539,559,580,600,619,641,661,682,701,722,742,762,781,801,820,840,861,881,901,921,941,961,982,1002,1020,1040,1061,1082,1101,1120,1142,1161,1181,1201,1221,1241,1261,1281,1301,1320,1340],"xSR":741.5,"ySR":469.95,"xT1":424.9,"yT1":0,"xT2":1058.1,"yT2":0,"toosoon":0,"cond_shown":"Congruent","ratio_trial":100,"L_num":1,"L_den":2,"R_num":3,"R_den":5,"correct_side":2,"subjID":"DairaJuanitaRodriguezRamirez5","gender":"1","school":"6","age":"11"},{"start_time":1551901019356,"click_time":1551901021758,"finger_time":1551901021557,"fix_duration":617.9239793456237,"trial":23,"RT":2201,"MT":201,"sideResp":1,"stimulus":[],"xmouse":[811,811,811,811,811,812,812,812,813,813,813,813,813,813,813,813,813,813,813,813,813,813,813,813,813,813,813,813,813,813,813,813,813,813,813,813,813,813,813,813,813,813,813,813,813,813,813,812,811,809,808,808,808,808,808,808,808,808,808,808,808,808,808,808,808,808,808,808,808,808,808,807,807,806,806,805,805,805,805,805,805,805,805,805,805,805,805,805,805,805,805,805,805,805,805,805,805,805,805,805,805,805,805,805,805,805,804,802,795,791,772,751,725,689,676,666,652,634,564,515,459],"ymouse":[532,532,532,532,532,532,532,532,532,532,532,532,532,532,532,532,532,532,532,532,532,532,532,532,532,532,532,532,532,532,532,532,532,532,532,532,532,532,532,532,532,532,532,532,532,532,530,525,523,519,517,517,516,515,515,515,515,515,515,515,515,515,515,515,515,515,515,515,511,505,501,494,492,490,489,488,488,488,488,488,488,488,488,488,488,488,488,488,488,488,488,488,488,488,488,488,488,488,488,488,488,488,488,488,487,487,487,485,476,471,447,431,410,372,350,332,306,277,164,103,55],"timestamp_mouse":[10,31,42,62,81,102,122,141,162,183,202,223,241,261,291,302,322,341,361,382,403,421,442,462,483,501,521,541,562,582,602,621,642,663,682,702,722,742,763,782,803,822,841,861,883,902,922,942,961,981,1001,1021,1042,1062,1082,1101,1122,1142,1161,1181,1202,1223,1246,1262,1282,1301,1322,1342,1362,1381,1402,1422,1442,1462,1482,1503,1522,1541,1562,1582,1603,1622,1641,1662,1683,1701,1721,1742,1763,1781,1802,1822,1842,1862,1882,1902,1922,1942,1962,1982,2001,2022,2043,2062,2081,2101,2122,2142,2162,2183,2201,2222,2242,2263,2281,2302,2322,2342,2363,2381,2402],"xSR":741.5,"ySR":469.95,"xT1":424.9,"yT1":0,"xT2":1058.1,"yT2":0,"toosoon":0,"cond_shown":"Incongruent","ratio_trial":200,"L_num":9,"L_den":15,"R_num":8,"R_den":10,"correct_side":2,"subjID":"DairaJuanitaRodriguezRamirez5","gender":"1","school":"6","age":"11"},{"start_time":1551901023471,"click_time":1551901025199,"finger_time":1551901024837,"fix_duration":250,"trial":24,"RT":1366,"MT":362,"sideResp":1,"stimulus":[],"xmouse":[814,814,814,814,814,814,814,814,814,814,814,814,814,814,814,814,814,814,814,814,814,814,814,814,814,815,815,816,816,816,816,816,816,816,816,816,816,817,817,817,817,817,817,817,817,817,817,817,817,817,817,817,817,817,817,817,817,817,817,817,817,817,817,817,817,817,817,817,787,751,700,639,572,495,478,473,472,469,465,463,462,462,463,474,482,485,487],"ymouse":[537,536,536,534,534,534,534,534,534,534,534,534,534,533,533,533,533,533,533,533,533,533,533,533,533,533,533,533,533,533,533,533,533,533,533,533,533,534,534,534,534,534,534,534,534,534,534,534,534,534,534,534,534,534,534,534,534,534,534,534,534,534,534,534,534,534,533,525,466,425,383,350,320,259,233,220,212,205,189,180,171,161,149,125,109,100,93],"timestamp_mouse":[11,28,47,67,88,106,127,147,167,188,207,228,247,267,287,306,326,346,366,388,407,427,447,467,487,507,526,547,567,588,607,626,647,668,687,707,727,747,766,788,808,827,847,866,887,907,928,947,966,987,1008,1028,1048,1066,1087,1107,1127,1147,1168,1186,1207,1227,1247,1266,1286,1307,1327,1346,1366,1386,1407,1427,1446,1466,1488,1507,1527,1546,1566,1587,1607,1627,1646,1666,1688,1707,1728],"xSR":741.5,"ySR":469.95,"xT1":424.9,"yT1":0,"xT2":1058.1,"yT2":0,"toosoon":0,"cond_shown":"Congruent","ratio_trial":200,"L_num":4,"L_den":8,"R_num":3,"R_den":10,"correct_side":1,"subjID":"DairaJuanitaRodriguezRamirez5","gender":"1","school":"6","age":"11"},{"start_time":1551901026957,"click_time":1551901028879,"finger_time":1551901028359,"fix_duration":817.0543204172825,"trial":25,"RT":1402,"MT":520,"sideResp":1,"stimulus":[],"xmouse":[785,785,785,785,785,785,785,785,785,785,785,785,785,785,785,785,785,785,785,785,785,785,785,785,785,785,790,794,803,821,822,824,825,826,829,831,832,832,832,832,832,833,833,833,833,833,833,833,833,833,833,833,833,833,833,833,833,833,833,833,833,833,833,833,833,833,833,833,833,831,792,757,709,662,578,555,539,532,532,531,528,527,527,527,527,527,527,523,516,515,512,512,510,506,497,490,480],"ymouse":[511,511,511,511,511,511,511,511,511,511,511,511,511,511,511,511,511,511,511,511,511,511,511,511,511,511,509,508,504,496,495,494,493,490,484,481,479,479,479,479,479,479,479,479,479,479,479,479,479,479,479,479,479,479,479,479,479,479,479,479,479,479,479,479,479,479,479,479,479,477,449,427,394,360,290,273,261,254,252,251,249,248,248,247,247,247,247,241,227,223,213,206,194,177,132,110,86],"timestamp_mouse":[8,31,41,60,81,101,121,141,161,181,201,222,241,262,281,302,322,340,361,381,402,422,441,461,481,501,521,541,562,581,600,620,641,661,681,701,721,741,761,781,801,821,841,862,881,901,921,940,961,981,1001,1020,1040,1061,1081,1101,1121,1141,1161,1181,1200,1221,1241,1261,1281,1301,1320,1341,1360,1380,1402,1421,1440,1460,1482,1500,1521,1542,1562,1581,1601,1622,1642,1661,1681,1701,1722,1742,1761,1781,1801,1821,1841,1861,1881,1900,1922],"xSR":741.5,"ySR":469.95,"xT1":424.9,"yT1":0,"xT2":1058.1,"yT2":0,"toosoon":0,"cond_shown":"Congruent","ratio_trial":100,"L_num":9,"L_den":15,"R_num":8,"R_den":16,"correct_side":1,"subjID":"DairaJuanitaRodriguezRamirez5","gender":"1","school":"6","age":"11"},{"start_time":1551901031270,"click_time":1551901032418,"finger_time":1551901031958,"fix_duration":1391.9462183708224,"trial":26,"RT":688,"MT":460,"sideResp":2,"stimulus":[],"xmouse":[780,780,780,780,780,780,780,780,780,780,780,780,780,780,780,780,780,780,780,780,780,780,781,781,781,781,781,781,781,781,781,781,781,786,813,853,915,995,1181,1191,1191,1191,1191,1191,1189,1182,1181,1181,1181,1181,1180,1179,1177,1176,1167,1158,1149,1135],"ymouse":[499,499,499,499,499,499,499,499,499,499,499,499,499,499,499,499,499,499,499,499,499,499,499,499,499,499,499,499,499,499,499,499,499,492,465,431,380,313,150,140,140,140,140,140,139,138,137,137,137,137,137,137,137,135,124,114,106,98],"timestamp_mouse":[8,28,48,68,88,108,127,148,168,188,207,228,248,267,287,308,328,347,368,388,408,427,448,469,488,508,527,548,569,588,609,628,648,668,688,708,728,748,769,788,808,829,849,869,888,908,929,948,968,988,1008,1028,1049,1068,1088,1108,1127,1148],"xSR":741.5,"ySR":469.95,"xT1":424.9,"yT1":0,"xT2":1058.1,"yT2":0,"toosoon":0,"cond_shown":"Incongruent","ratio_trial":200,"L_num":7,"L_den":10,"R_num":14,"R_den":28,"correct_side":1,"subjID":"DairaJuanitaRodriguezRamirez5","gender":"1","school":"6","age":"11"},{"start_time":1551901034630,"click_time":1551901035958,"finger_time":1551901035478,"fix_duration":990.0018819916434,"trial":27,"RT":848,"MT":480,"sideResp":2,"stimulus":[],"xmouse":[784,784,784,784,784,784,784,784,784,784,784,784,784,784,784,784,784,784,784,784,784,784,784,784,784,784,784,784,784,784,784,784,784,784,784,784,784,784,784,784,784,801,835,869,900,921,954,971,990,1003,1015,1028,1029,1031,1031,1032,1032,1032,1034,1036,1041,1052,1057,1062,1065,1065,1070],"ymouse":[521,521,521,521,521,521,521,521,521,521,521,521,521,521,521,521,521,521,521,521,521,521,521,521,521,521,521,521,521,521,521,521,521,521,521,521,521,521,521,521,521,503,467,441,418,403,368,337,303,276,244,202,190,181,178,177,176,176,172,166,155,135,125,114,109,107,92],"timestamp_mouse":[8,40,48,69,89,109,128,148,168,188,207,227,249,268,289,308,327,347,367,388,408,427,448,468,488,508,527,548,569,588,607,629,648,668,687,708,727,748,767,788,807,828,848,868,887,907,928,948,968,987,1007,1028,1047,1068,1088,1108,1127,1149,1168,1188,1208,1228,1248,1268,1289,1308,1328],"xSR":741.5,"ySR":469.95,"xT1":424.9,"yT1":0,"xT2":1058.1,"yT2":0,"toosoon":0,"cond_shown":"Congruent","ratio_trial":200,"L_num":3,"L_den":10,"R_num":11,"R_den":22,"correct_side":2,"subjID":"DairaJuanitaRodriguezRamirez5","gender":"1","school":"6","age":"11"},{"start_time":1551901037193,"click_time":1551901038939,"finger_time":1551901038598,"fix_duration":393.74989710392225,"trial":28,"RT":1405,"MT":341,"sideResp":2,"stimulus":[],"xmouse":[812,812,812,812,812,812,812,812,812,812,812,812,812,812,812,812,812,812,813,813,813,813,813,813,813,813,813,813,813,813,813,813,813,813,813,814,814,814,814,814,814,814,814,814,814,814,814,814,814,814,814,814,814,814,814,814,814,814,814,814,814,814,814,814,814,814,814,814,814,815,835,844,875,911,926,943,970,996,1033,1042,1046,1047,1049,1054,1059,1063,1068,1073],"ymouse":[521,521,521,521,521,521,521,521,521,522,523,523,523,523,523,523,523,523,523,523,523,523,523,523,523,523,523,523,523,523,523,523,523,523,523,522,516,501,500,497,495,494,494,494,494,494,494,494,494,494,494,494,494,494,494,494,494,494,494,494,494,494,494,494,494,494,494,494,493,485,452,442,416,386,371,350,311,270,208,192,181,175,170,153,139,122,104,93],"timestamp_mouse":[8,36,45,64,84,105,125,144,165,185,205,224,245,265,285,305,324,346,366,385,405,425,444,465,485,504,525,545,566,586,604,624,645,664,684,705,725,745,765,785,805,825,845,865,885,906,925,945,965,986,1005,1025,1046,1065,1084,1105,1125,1145,1165,1185,1204,1225,1246,1265,1286,1305,1325,1344,1365,1385,1405,1425,1444,1466,1484,1505,1524,1545,1566,1584,1605,1625,1645,1666,1684,1705,1724,1746],"xSR":741.5,"ySR":469.95,"xT1":424.9,"yT1":0,"xT2":1058.1,"yT2":0,"toosoon":0,"cond_shown":"Incongruent","ratio_trial":100,"L_num":13,"L_den":26,"R_num":12,"R_den":20,"correct_side":2,"subjID":"DairaJuanitaRodriguezRamirez5","gender":"1","school":"6","age":"11"},{"start_time":1551901040499,"click_time":1551901041958,"finger_time":1551901041178,"fix_duration":780.1531135736828,"trial":29,"RT":679,"MT":780,"sideResp":1,"stimulus":[],"xmouse":[780,780,780,780,780,780,780,780,780,780,780,781,781,781,781,781,781,781,781,781,781,781,781,781,781,781,781,781,781,781,781,781,778,774,763,753,743,730,703,690,681,674,669,648,629,613,600,588,569,562,553,545,533,525,525,525,525,524,523,522,521,521,520,519,519,519,519,519,519,519,519,519,519],"ymouse":[535,535,535,535,535,535,534,534,534,534,534,534,534,534,534,534,534,534,534,534,534,534,534,534,534,534,534,534,534,534,534,510,485,465,432,409,387,359,311,291,275,264,255,240,227,218,210,202,184,175,167,160,153,149,146,145,139,134,126,121,118,113,109,106,106,103,101,101,101,100,100,100,97],"timestamp_mouse":[19,41,60,79,98,118,139,160,180,198,219,239,258,279,299,319,339,360,379,399,419,438,459,480,498,519,539,559,580,599,619,639,660,679,699,719,740,760,779,799,819,839,859,879,899,919,940,958,978,1000,1019,1039,1059,1079,1099,1118,1138,1159,1178,1199,1218,1239,1259,1280,1299,1320,1339,1358,1379,1399,1418,1439,1459],"xSR":741.5,"ySR":469.95,"xT1":424.9,"yT1":0,"xT2":1058.1,"yT2":0,"toosoon":0,"cond_shown":"Incongruent","ratio_trial":200,"L_num":11,"L_den":20,"R_num":3,"R_den":4,"correct_side":2,"subjID":"DairaJuanitaRodriguezRamirez5","gender":"1","school":"6","age":"11"},{"start_time":1551901044060,"click_time":1551901046038,"finger_time":1551901045638,"fix_duration":740.555355645624,"trial":30,"RT":1578,"MT":400,"sideResp":2,"stimulus":[],"xmouse":[772,772,772,772,772,772,772,772,772,772,772,772,772,772,772,772,772,772,772,772,772,772,772,772,772,772,772,772,772,772,772,772,772,772,772,772,772,772,772,772,772,772,772,772,772,772,772,772,772,772,772,772,772,772,772,772,772,772,772,772,772,772,772,772,772,772,772,772,772,772,772,772,772,770,768,764,757,750,743,742,742,743,754,785,822,917,939,958,972,982,997,1006,1018,1033,1051,1062,1065,1069,1074],"ymouse":[507,507,507,507,507,507,507,507,507,507,507,507,507,507,507,507,507,507,507,507,507,507,507,507,507,507,507,507,507,507,507,507,507,507,507,507,507,507,507,507,507,507,507,507,507,507,507,507,507,507,507,507,507,507,507,507,507,507,507,507,507,507,507,507,507,507,507,507,507,507,507,507,507,507,506,505,501,480,452,437,433,432,420,401,387,351,337,320,301,277,224,199,180,161,135,116,109,100,90],"timestamp_mouse":[19,39,58,78,98,118,137,158,177,197,219,238,258,278,297,317,338,357,377,398,419,438,458,477,498,518,538,559,579,598,618,637,658,678,698,718,737,758,779,798,817,839,858,879,897,918,938,958,978,998,1018,1038,1058,1078,1098,1118,1137,1157,1178,1199,1218,1238,1258,1278,1299,1318,1337,1358,1378,1398,1417,1438,1458,1478,1498,1517,1537,1557,1578,1598,1618,1637,1658,1678,1697,1718,1737,1758,1778,1798,1819,1838,1858,1879,1899,1918,1937,1958,1978],"xSR":741.5,"ySR":469.95,"xT1":424.9,"yT1":0,"xT2":1058.1,"yT2":0,"toosoon":0,"cond_shown":"Incongruent","ratio_trial":100,"L_num":10,"L_den":25,"R_num":8,"R_den":16,"correct_side":2,"subjID":"DairaJuanitaRodriguezRamirez5","gender":"1","school":"6","age":"11"},{"start_time":1551901047954,"click_time":1551901048819,"finger_time":1551901048638,"fix_duration":634.517238741522,"trial":31,"RT":684,"MT":181,"sideResp":2,"stimulus":[],"xmouse":[780,780,780,780,780,780,780,780,780,780,780,781,781,781,781,781,781,781,781,781,781,781,781,781,781,781,781,781,781,781,781,788,812,828,844,861,891,933,950,988,1006,1025,1041,1061],"ymouse":[538,538,538,538,538,538,538,538,538,538,538,538,538,538,538,538,538,538,538,538,538,538,538,538,538,538,538,538,538,538,538,534,510,495,481,466,425,351,322,253,217,164,124,87],"timestamp_mouse":[10,23,44,63,84,104,124,145,163,184,204,223,245,265,284,303,324,344,364,384,403,425,444,463,483,503,525,544,564,583,604,625,644,664,684,704,725,744,763,783,804,825,844,865],"xSR":741.5,"ySR":469.95,"xT1":424.9,"yT1":0,"xT2":1058.1,"yT2":0,"toosoon":0,"cond_shown":"Incongruent","ratio_trial":200,"L_num":4,"L_den":5,"R_num":6,"R_den":10,"correct_side":1,"subjID":"DairaJuanitaRodriguezRamirez5","gender":"1","school":"6","age":"11"},{"start_time":1551901051441,"click_time":1551901052938,"finger_time":1551901052258,"fix_duration":1481.3495159397887,"trial":32,"RT":817,"MT":680,"sideResp":2,"stimulus":[],"xmouse":[816,816,814,814,814,813,813,813,813,812,812,812,812,812,812,812,811,811,811,811,811,811,811,811,811,811,811,811,811,811,811,811,811,811,811,811,811,811,824,840,861,905,930,936,942,950,963,988,996,1000,1002,1002,1002,1002,1002,1004,1014,1050,1064,1074,1079,1079,1079,1079,1079,1079,1079,1079,1079,1079,1079,1079,1079,1079,1087],"ymouse":[513,513,512,512,512,512,512,512,512,512,512,512,512,512,512,512,511,511,511,511,511,511,511,511,511,511,511,511,511,511,511,511,511,511,511,511,511,508,496,484,468,437,414,403,388,367,338,291,280,273,270,270,270,270,269,262,230,164,139,120,111,110,110,110,110,110,110,110,110,110,110,109,109,108,88],"timestamp_mouse":[28,38,56,77,96,117,137,158,177,197,218,236,256,276,297,317,337,357,376,397,417,436,456,477,497,517,537,557,577,598,617,636,658,676,697,717,737,757,777,797,817,837,857,877,897,917,937,956,976,997,1017,1036,1057,1076,1096,1116,1137,1157,1178,1198,1217,1237,1258,1277,1297,1317,1337,1356,1376,1396,1416,1437,1457,1477,1497],"xSR":741.5,"ySR":469.95,"xT1":424.9,"yT1":0,"xT2":1058.1,"yT2":0,"toosoon":0,"cond_shown":"Congruent","ratio_trial":100,"L_num":3,"L_den":20,"R_num":4,"R_den":16,"correct_side":2,"subjID":"DairaJuanitaRodriguezRamirez5","gender":"1","school":"6","age":"11"},{"start_time":1551901054601,"click_time":1551901055917,"finger_time":1551901055478,"fix_duration":741.3922423356497,"trial":33,"RT":877,"MT":439,"sideResp":1,"stimulus":[],"xmouse":[803,803,803,803,803,803,803,803,803,803,803,803,803,803,803,803,803,803,803,803,803,803,803,803,803,803,803,803,803,803,803,803,803,803,803,803,803,803,803,803,803,803,789,731,565,487,414,362,336,325,325,325,325,325,324,324,324,324,324,324,324,324,335,369,414,508],"ymouse":[499,499,499,499,499,499,499,499,499,499,499,499,499,499,499,499,499,499,499,499,499,499,499,499,499,499,499,499,499,499,499,499,499,499,499,499,499,499,499,499,499,499,485,427,322,275,226,180,135,76,56,38,22,6,0,0,0,0,0,0,0,0,0,16,33,71],"timestamp_mouse":[30,37,58,76,97,117,137,157,181,197,216,236,257,277,297,317,337,357,377,398,417,437,457,477,498,518,537,558,577,597,617,638,656,676,696,717,737,757,777,798,817,837,857,877,897,916,936,957,977,997,1017,1037,1058,1077,1098,1118,1137,1157,1177,1197,1216,1237,1257,1276,1296,1316],"xSR":741.5,"ySR":469.95,"xT1":424.9,"yT1":0,"xT2":1058.1,"yT2":0,"toosoon":0,"cond_shown":"Incongruent","ratio_trial":100,"L_num":12,"L_den":30,"R_num":2,"R_den":4,"correct_side":2,"subjID":"DairaJuanitaRodriguezRamirez5","gender":"1","school":"6","age":"11"},{"start_time":1551901058638,"click_time":1551901059718,"finger_time":1551901059357,"fix_duration":1359.5479873356653,"trial":34,"RT":719,"MT":361,"sideResp":1,"stimulus":[],"xmouse":[816,816,816,816,816,816,816,816,816,816,816,816,816,816,816,816,816,816,816,816,816,816,816,816,816,816,816,816,816,816,816,816,816,810,803,793,769,738,643,597,559,528,507,476,468,464,464,464,463,463,464,468,474,478],"ymouse":[527,527,527,527,527,527,527,527,527,527,527,527,527,527,527,527,527,527,527,527,527,527,527,527,527,527,527,527,527,527,527,527,526,524,519,468,404,367,307,284,262,240,224,202,195,192,190,190,169,155,140,124,109,81],"timestamp_mouse":[20,40,60,80,100,120,141,160,180,199,219,239,261,280,300,320,339,360,380,400,420,439,460,480,500,519,539,560,580,600,620,639,660,680,701,719,739,759,779,800,820,840,860,881,900,920,940,960,979,1000,1020,1040,1060,1080],"xSR":741.5,"ySR":469.95,"xT1":424.9,"yT1":0,"xT2":1058.1,"yT2":0,"toosoon":0,"cond_shown":"Congruent","ratio_trial":200,"L_num":11,"L_den":22,"R_num":3,"R_den":10,"correct_side":1,"subjID":"DairaJuanitaRodriguezRamirez5","gender":"1","school":"6","age":"11"},{"start_time":1551901061812,"click_time":1551901062878,"finger_time":1551901062358,"fix_duration":453.2203421803915,"trial":35,"RT":546,"MT":520,"sideResp":2,"stimulus":[],"xmouse":[763,763,763,763,763,763,763,763,763,763,763,763,763,763,763,763,763,763,763,763,763,763,763,763,763,763,763,804,848,928,1052,1076,1100,1123,1157,1194,1194,1194,1194,1194,1194,1194,1194,1194,1194,1194,1193,1191,1186,1180,1172,1164,1160,1157],"ymouse":[506,506,506,506,506,506,506,506,506,506,506,506,506,506,506,506,506,506,506,506,506,506,506,506,506,506,506,463,427,362,283,264,242,216,176,129,128,128,128,128,128,128,128,128,127,126,125,124,122,111,97,84,79,74],"timestamp_mouse":[10,36,47,66,86,107,125,146,166,186,205,226,246,266,285,306,326,346,366,385,406,426,446,465,485,506,526,546,566,587,606,625,647,666,686,707,725,746,766,786,806,826,845,865,885,906,926,947,966,986,1006,1026,1046,1066],"xSR":741.5,"ySR":469.95,"xT1":424.9,"yT1":0,"xT2":1058.1,"yT2":0,"toosoon":0,"cond_shown":"Incongruent","ratio_trial":200,"L_num":4,"L_den":6,"R_num":14,"R_den":30,"correct_side":1,"subjID":"DairaJuanitaRodriguezRamirez5","gender":"1","school":"6","age":"11"},{"start_time":1551901064221,"click_time":1551901066218,"finger_time":1551901065819,"fix_duration":381.34394141033636,"trial":36,"RT":1598,"MT":399,"sideResp":1,"stimulus":[],"xmouse":[813,813,813,813,813,813,813,813,813,813,813,813,813,813,813,813,813,813,813,812,812,812,812,812,812,812,812,812,812,812,812,812,812,812,812,812,812,812,812,812,812,812,812,812,812,812,812,812,812,813,813,813,813,813,813,813,813,813,813,813,813,813,813,813,813,813,813,813,813,813,813,813,813,813,813,813,813,813,799,688,619,539,460,414,397,397,398,400,404,412,418,424,430,433,434,434,434,434,434,437],"ymouse":[521,521,521,521,521,521,521,521,521,521,521,521,521,521,521,521,521,521,521,521,521,521,521,521,521,521,521,521,521,521,521,521,521,521,521,521,521,521,521,521,521,521,521,521,521,521,521,521,521,522,522,522,522,522,522,522,522,522,522,522,522,522,522,522,522,522,522,522,522,522,522,522,522,522,522,522,522,521,508,408,350,285,229,192,173,170,162,154,146,128,119,112,106,103,102,102,102,102,102,99],"timestamp_mouse":[17,37,56,77,97,117,137,157,177,197,217,237,257,276,298,316,336,357,377,397,417,437,457,476,496,518,536,557,576,597,616,638,657,678,697,717,737,756,777,796,817,837,856,877,897,917,937,957,977,997,1016,1037,1057,1077,1098,1118,1138,1157,1176,1197,1218,1237,1256,1278,1297,1318,1338,1357,1376,1397,1417,1437,1456,1477,1496,1518,1537,1557,1576,1598,1616,1637,1658,1677,1698,1716,1737,1757,1777,1799,1817,1837,1857,1877,1896,1916,1936,1957,1977,1997],"xSR":741.5,"ySR":469.95,"xT1":424.9,"yT1":0,"xT2":1058.1,"yT2":0,"toosoon":0,"cond_shown":"Congruent","ratio_trial":100,"L_num":11,"L_den":22,"R_num":6,"R_den":15,"correct_side":1,"subjID":"DairaJuanitaRodriguezRamirez5","gender":"1","school":"6","age":"11"},{"start_time":1551901070283,"click_time":1551901072898,"finger_time":1551901071659,"fix_duration":1423.7184952389457,"trial":37,"RT":1376,"MT":1239,"sideResp":1,"stimulus":[],"xmouse":[819,819,819,819,819,819,819,819,819,819,819,819,819,819,819,819,819,819,819,819,819,819,819,819,819,819,819,819,819,819,819,819,819,819,819,819,819,819,819,819,819,819,819,819,819,819,819,819,819,819,819,819,819,819,819,819,819,819,819,819,819,819,819,819,819,818,818,810,795,782,780,779,779,779,779,779,779,779,779,777,766,759,749,748,748,748,748,748,748,748,748,748,748,746,746,744,738,728,722,716,715,711,708,703,698,693,688,679,673,663,648,627,609,603,598,591,584,569,559,553,545,539,537,533,528,524,518,510,505,500,493],"ymouse":[517,517,517,517,517,517,517,517,517,517,517,517,517,517,517,517,517,517,517,517,517,517,517,517,517,517,517,517,517,517,517,517,517,517,517,517,517,517,517,517,517,517,517,517,517,517,517,517,517,517,517,517,517,517,517,517,517,517,517,517,517,517,517,517,517,517,517,488,460,444,440,440,440,440,440,440,440,440,439,435,430,429,426,425,425,425,425,425,425,424,424,424,424,424,422,417,408,395,389,382,380,374,370,361,353,347,341,328,321,312,302,287,276,272,267,259,250,228,216,206,195,185,180,164,152,142,131,116,111,104,97],"timestamp_mouse":[15,35,55,75,96,115,135,155,174,195,215,235,255,274,294,315,336,355,375,394,414,435,456,475,495,514,535,555,575,596,615,634,655,675,696,714,734,755,774,795,815,835,855,874,895,915,935,954,974,995,1015,1035,1056,1075,1096,1115,1134,1154,1176,1195,1214,1235,1256,1275,1294,1315,1335,1355,1376,1394,1416,1435,1455,1475,1495,1515,1535,1555,1574,1595,1616,1635,1656,1676,1695,1715,1735,1756,1775,1796,1814,1835,1855,1875,1895,1916,1934,1955,1974,1994,2016,2035,2055,2075,2095,2115,2134,2156,2175,2195,2215,2235,2255,2274,2295,2315,2336,2355,2375,2394,2414,2434,2454,2474,2495,2515,2535,2556,2575,2595,2615],"xSR":741.5,"ySR":469.95,"xT1":424.9,"yT1":0,"xT2":1058.1,"yT2":0,"toosoon":0,"cond_shown":"Congruent","ratio_trial":300,"L_num":4,"L_den":5,"R_num":2,"R_den":4,"correct_side":1,"subjID":"DairaJuanitaRodriguezRamirez5","gender":"1","school":"6","age":"11"},{"start_time":1551901078130,"click_time":1551901080159,"finger_time":1551901079639,"fix_duration":1389.5414477691218,"trial":38,"RT":1509,"MT":520,"sideResp":1,"stimulus":[],"xmouse":[789,789,789,789,789,789,789,789,789,789,789,789,789,789,789,789,789,789,789,789,789,789,789,789,789,789,789,789,789,789,789,789,789,789,789,789,789,789,789,789,789,789,789,789,789,789,789,789,789,789,789,789,789,789,789,789,789,789,789,789,789,789,789,789,789,789,789,789,789,789,789,789,789,782,765,756,740,736,731,727,720,698,687,669,653,640,609,596,579,562,549,527,515,511,508,505,499,498,498,498,498,486],"ymouse":[501,501,501,501,501,501,501,501,501,501,501,501,501,501,501,501,501,501,501,501,501,501,501,501,501,501,501,501,501,501,501,501,501,501,501,501,501,501,501,501,501,500,500,500,500,500,500,500,500,500,500,500,500,500,500,500,500,500,500,500,500,500,500,500,500,500,500,500,500,500,500,500,496,489,477,467,453,448,441,431,417,386,374,363,356,351,336,329,318,305,291,257,246,236,231,223,206,195,181,165,139,78],"timestamp_mouse":[10,29,49,68,88,110,128,149,169,189,208,228,249,269,289,309,328,348,368,389,410,430,449,468,489,508,529,549,569,589,609,629,649,669,689,708,729,748,768,789,809,828,849,869,888,908,929,949,969,988,1009,1030,1049,1069,1089,1108,1129,1149,1168,1188,1209,1229,1249,1268,1289,1309,1329,1349,1370,1388,1409,1429,1449,1468,1489,1509,1528,1549,1569,1590,1609,1629,1648,1669,1689,1709,1728,1748,1768,1789,1809,1829,1849,1870,1890,1908,1929,1950,1970,1989,2009,2029],"xSR":741.5,"ySR":469.95,"xT1":424.9,"yT1":0,"xT2":1058.1,"yT2":0,"toosoon":0,"cond_shown":"Congruent","ratio_trial":100,"L_num":3,"L_den":6,"R_num":2,"R_den":5,"correct_side":1,"subjID":"DairaJuanitaRodriguezRamirez5","gender":"1","school":"6","age":"11"},{"start_time":1551901082585,"click_time":1551901084219,"finger_time":1551901083899,"fix_duration":1204.2557445633206,"trial":39,"RT":1314,"MT":320,"sideResp":2,"stimulus":[],"xmouse":[805,805,805,805,805,805,805,805,805,805,805,805,805,805,805,805,805,805,805,805,805,805,805,805,805,805,805,805,805,805,805,805,805,805,804,804,804,805,807,807,807,807,807,807,807,807,807,807,807,807,807,807,808,808,808,808,808,808,808,808,808,808,808,808,817,825,845,868,913,933,942,946,949,950,950,950,950,950,951,970,1026,1079],"ymouse":[506,523,537,541,541,541,541,541,541,541,541,541,541,541,541,541,541,541,541,541,541,541,541,541,541,541,541,541,541,541,541,541,542,542,541,526,513,501,494,494,494,494,494,494,494,494,494,494,494,494,494,494,497,501,510,513,516,516,516,516,516,516,513,508,473,444,401,344,239,185,155,137,126,122,121,121,121,120,118,100,74,46],"timestamp_mouse":[21,38,55,74,94,115,134,155,174,193,214,234,254,274,294,315,334,354,374,394,415,434,453,475,494,514,533,553,575,595,615,634,654,675,695,714,734,753,774,795,813,834,854,874,894,915,933,953,973,994,1014,1034,1055,1073,1094,1114,1134,1154,1173,1194,1214,1234,1253,1273,1294,1314,1334,1354,1376,1394,1415,1434,1454,1474,1494,1513,1534,1553,1575,1593,1614,1634],"xSR":741.5,"ySR":469.95,"xT1":424.9,"yT1":0,"xT2":1058.1,"yT2":0,"toosoon":0,"cond_shown":"Incongruent","ratio_trial":100,"L_num":4,"L_den":8,"R_num":8,"R_den":20,"correct_side":1,"subjID":"DairaJuanitaRodriguezRamirez5","gender":"1","school":"6","age":"11"},{"start_time":1551901086213,"click_time":1551901087979,"finger_time":1551901087659,"fix_duration":553.8601564344555,"trial":40,"RT":1446,"MT":320,"sideResp":2,"stimulus":[],"xmouse":[805,805,805,805,805,805,805,805,805,805,805,805,805,805,805,805,805,805,805,805,805,805,805,805,805,805,805,805,805,805,805,805,805,805,805,805,805,805,805,805,805,805,805,805,805,805,805,805,805,805,805,805,805,805,805,805,805,805,805,805,805,805,805,805,805,805,805,805,805,805,815,828,857,925,954,977,1002,1009,1036,1044,1052,1059,1064,1072,1074,1076,1079,1080,1088],"ymouse":[543,543,543,543,543,543,543,543,543,543,543,543,543,543,543,543,543,543,543,543,543,543,543,543,543,543,543,543,543,543,543,543,543,543,543,543,543,543,543,543,543,543,543,543,543,543,543,543,543,543,543,543,543,543,543,543,543,543,543,543,543,543,543,543,543,543,543,543,543,543,516,495,444,343,300,269,239,230,195,179,166,152,143,129,122,116,109,104,89],"timestamp_mouse":[11,28,46,65,87,106,125,147,166,186,206,225,245,266,286,305,326,346,367,385,405,427,446,466,486,505,525,547,566,586,607,625,645,666,686,706,725,745,765,787,807,825,846,866,885,905,926,946,967,986,1005,1026,1046,1066,1085,1106,1125,1145,1166,1187,1205,1226,1245,1266,1285,1306,1326,1346,1366,1386,1405,1426,1446,1466,1486,1506,1525,1546,1567,1587,1606,1627,1647,1666,1687,1706,1727,1746,1765],"xSR":741.5,"ySR":469.95,"xT1":424.9,"yT1":0,"xT2":1058.1,"yT2":0,"toosoon":0,"cond_shown":"Incongruent","ratio_trial":100,"L_num":6,"L_den":10,"R_num":11,"R_den":22,"correct_side":1,"subjID":"DairaJuanitaRodriguezRamirez5","gender":"1","school":"6","age":"11"},{"start_time":1551901089935,"click_time":1551901090939,"finger_time":1551901090519,"fix_duration":975.0992432822458,"trial":41,"RT":584,"MT":420,"sideResp":2,"stimulus":[],"xmouse":[812,812,812,812,812,812,812,812,812,812,812,812,812,812,812,812,818,829,837,841,841,841,841,841,841,841,841,841,841,847,854,882,936,958,970,979,982,986,990,999,1006,1014,1020,1021,1023,1024,1028,1041,1051,1065,1072],"ymouse":[540,540,540,540,540,540,540,540,540,540,540,540,540,540,540,540,528,508,498,491,491,491,491,491,491,491,491,491,491,473,460,406,319,287,264,249,240,225,216,198,185,174,160,155,149,144,139,123,115,101,93],"timestamp_mouse":[11,23,43,65,84,105,124,144,164,184,204,224,244,265,285,305,323,345,364,384,404,423,444,463,484,503,524,544,564,584,603,624,645,663,684,703,725,745,764,785,803,824,845,863,884,904,924,944,963,984,1004],"xSR":741.5,"ySR":469.95,"xT1":424.9,"yT1":0,"xT2":1058.1,"yT2":0,"toosoon":0,"cond_shown":"Congruent","ratio_trial":300,"L_num":7,"L_den":14,"R_num":20,"R_den":25,"correct_side":2,"subjID":"DairaJuanitaRodriguezRamirez5","gender":"1","school":"6","age":"11"},{"start_time":1551901094465,"click_time":1551901095920,"finger_time":1551901095359,"fix_duration":784.6887539361477,"trial":42,"RT":894,"MT":561,"sideResp":1,"stimulus":[],"xmouse":[801,801,801,801,801,801,801,801,801,801,801,801,801,801,801,801,801,801,801,801,801,801,801,801,801,801,801,801,801,801,801,801,801,801,801,801,801,801,801,801,801,801,801,793,787,773,746,733,718,701,672,635,613,597,584,574,564,559,554,547,542,536,528,527,526,525,523,522,520,520,519,516,516],"ymouse":[481,481,481,481,481,481,481,481,481,481,481,481,481,481,481,481,481,481,481,481,481,481,481,481,481,481,481,481,481,481,481,481,481,481,481,481,481,481,481,481,481,481,481,470,462,442,415,407,398,388,372,348,334,322,311,304,291,282,271,259,246,237,224,222,220,217,206,200,190,179,165,113,93],"timestamp_mouse":[14,34,54,74,94,114,134,154,174,194,214,235,254,273,293,313,333,354,373,393,413,434,454,475,494,513,535,554,573,593,614,635,654,673,693,714,735,753,775,794,814,833,853,874,894,914,933,955,974,994,1013,1034,1054,1075,1094,1114,1134,1153,1174,1194,1214,1233,1253,1273,1293,1314,1334,1354,1374,1394,1414,1434,1454],"xSR":741.5,"ySR":469.95,"xT1":424.9,"yT1":0,"xT2":1058.1,"yT2":0,"toosoon":0,"cond_shown":"Incongruent","ratio_trial":100,"L_num":12,"L_den":30,"R_num":2,"R_den":4,"correct_side":2,"subjID":"DairaJuanitaRodriguezRamirez5","gender":"1","school":"6","age":"11"},{"start_time":1551901098227,"click_time":1551901100300,"finger_time":1551901098579,"fix_duration":1027.0066753055096,"trial":43,"RT":352,"MT":1721,"sideResp":1,"stimulus":[],"xmouse":[763,763,763,763,763,763,763,763,763,763,763,763,763,763,765,783,802,831,865,911,916,916,916,916,916,916,916,916,916,917,917,917,921,927,927,927,927,927,927,927,927,927,927,927,925,916,906,885,856,855,855,852,848,833,820,805,787,770,753,729,721,703,689,670,642,639,638,636,627,622,613,604,592,582,581,580,577,568,564,564,564,564,564,564,564,564,564,564,564,561,554,551,546,545,545,545,545,545,545,545,545,545,545,514],"ymouse":[521,521,521,521,521,521,521,521,521,521,521,521,521,521,516,495,475,447,418,379,375,375,375,375,375,375,375,375,375,374,374,373,352,338,338,338,338,338,338,338,338,338,338,338,348,369,390,416,447,447,447,441,427,396,380,363,348,333,317,289,273,247,232,223,214,214,214,213,204,197,180,171,163,155,146,130,107,89,77,77,77,77,77,77,77,77,77,77,77,74,70,68,67,67,67,67,67,67,67,67,67,67,67,70],"timestamp_mouse":[11,35,52,72,92,112,132,152,172,191,211,233,252,272,293,312,332,352,372,391,413,432,452,472,491,512,531,551,573,591,612,632,652,672,692,712,732,752,772,791,811,831,853,872,892,911,932,951,973,991,1012,1031,1051,1073,1092,1111,1132,1152,1172,1192,1212,1232,1252,1271,1292,1313,1332,1352,1372,1391,1412,1432,1452,1472,1491,1512,1532,1551,1573,1593,1613,1632,1651,1671,1691,1713,1732,1751,1771,1791,1811,1831,1852,1873,1892,1912,1932,1952,1972,1991,2013,2032,2051,2073],"xSR":741.5,"ySR":469.95,"xT1":424.9,"yT1":0,"xT2":1058.1,"yT2":0,"toosoon":0,"cond_shown":"Incongruent","ratio_trial":300,"L_num":4,"L_den":20,"R_num":2,"R_den":4,"correct_side":2,"subjID":"DairaJuanitaRodriguezRamirez5","gender":"1","school":"6","age":"11"},{"start_time":1551901102149,"click_time":1551901103699,"finger_time":1551901103059,"fix_duration":789.1877303697845,"trial":44,"RT":910,"MT":640,"sideResp":2,"stimulus":[],"xmouse":[776,776,776,777,777,777,777,777,777,777,777,777,777,777,777,777,777,777,777,777,777,777,777,777,777,777,777,777,777,777,777,777,777,777,777,777,777,777,777,777,777,777,777,783,816,850,886,904,911,911,911,911,911,911,911,911,911,911,911,912,912,912,912,912,912,912,912,912,912,912,912,912,912,929,958,997,1033,1068],"ymouse":[502,502,502,502,502,502,502,502,502,502,502,502,502,502,502,502,502,502,502,502,502,502,502,502,502,502,502,502,502,502,502,502,502,502,502,502,502,502,502,502,502,502,502,501,477,451,427,413,408,408,408,408,408,408,408,408,408,408,408,408,408,408,408,408,408,408,408,408,408,408,408,407,407,342,267,178,95,7],"timestamp_mouse":[13,30,51,70,90,110,129,149,170,190,209,230,250,271,289,310,331,350,371,389,411,430,450,469,489,510,531,549,570,589,609,630,650,670,690,710,729,750,771,789,810,830,850,870,889,910,930,949,970,989,1010,1031,1050,1070,1089,1110,1130,1150,1170,1189,1211,1231,1250,1270,1290,1309,1330,1349,1370,1391,1409,1429,1449,1469,1490,1510,1531,1550],"xSR":741.5,"ySR":469.95,"xT1":424.9,"yT1":0,"xT2":1058.1,"yT2":0,"toosoon":0,"cond_shown":"Incongruent","ratio_trial":200,"L_num":4,"L_den":5,"R_num":6,"R_den":10,"correct_side":1,"subjID":"DairaJuanitaRodriguezRamirez5","gender":"1","school":"6","age":"11"},{"start_time":1551901105780,"click_time":1551901107359,"finger_time":1551901107039,"fix_duration":779.1269438264397,"trial":45,"RT":1259,"MT":320,"sideResp":2,"stimulus":[],"xmouse":[819,819,819,819,819,819,819,819,819,819,819,819,819,819,819,819,819,819,819,819,819,819,819,819,819,819,819,819,819,818,818,818,818,818,818,818,818,818,818,818,818,818,818,818,818,818,818,818,818,818,818,818,818,818,818,818,818,818,818,818,817,816,819,875,913,941,952,960,962,967,976,994,1014,1021,1023,1023,1023,1023,1048,1085],"ymouse":[504,504,504,504,504,504,504,504,504,504,504,504,504,504,504,504,504,504,504,504,504,504,504,504,504,504,504,504,504,504,504,504,504,504,504,504,504,504,504,504,504,504,504,504,504,504,504,504,504,504,504,504,504,504,504,504,504,504,504,504,503,503,473,358,303,267,251,237,229,214,192,151,112,100,97,96,96,95,56,12],"timestamp_mouse":[1,19,40,59,78,99,119,140,160,179,199,219,239,258,278,299,319,339,358,379,399,419,439,459,478,498,519,539,559,579,598,618,638,659,678,698,718,738,759,778,800,819,838,859,880,899,918,939,958,979,999,1020,1039,1059,1078,1099,1119,1139,1158,1179,1199,1219,1238,1259,1279,1299,1319,1340,1358,1379,1400,1419,1440,1458,1479,1499,1519,1539,1558,1579],"xSR":741.5,"ySR":469.95,"xT1":424.9,"yT1":0,"xT2":1058.1,"yT2":0,"toosoon":0,"cond_shown":"Congruent","ratio_trial":300,"L_num":11,"L_den":22,"R_num":2,"R_den":10,"correct_side":1,"subjID":"DairaJuanitaRodriguezRamirez5","gender":"1","school":"6","age":"11"},{"start_time":1551901109311,"click_time":1551901112019,"finger_time":1551901110940,"fix_duration":1031.6537076243687,"trial":46,"RT":1629,"MT":1079,"sideResp":2,"stimulus":[],"xmouse":[752,752,752,752,752,752,752,752,752,753,753,753,753,753,753,753,753,753,753,753,753,753,753,753,753,753,753,753,753,753,753,753,753,753,753,753,753,753,753,753,753,753,753,753,753,753,753,753,753,753,753,753,753,753,753,753,753,753,753,753,753,753,753,753,753,753,754,754,754,754,754,753,753,753,753,753,753,753,753,753,753,741,729,725,721,719,718,718,718,718,718,718,718,718,718,718,718,718,718,718,718,718,718,718,718,718,718,718,718,719,719,749,756,756,757,757,757,763,791,831,870,936,950,959,961,962,962,962,962,962,962,962,976,996,1030,1065],"ymouse":[500,500,500,500,500,500,500,500,500,500,500,500,500,500,500,500,500,500,500,500,500,500,500,500,500,500,500,500,500,500,500,500,500,500,500,500,500,500,500,500,500,500,500,500,500,500,500,500,500,500,500,500,500,500,500,500,500,500,500,500,500,500,500,500,500,500,500,500,500,500,500,500,500,500,500,500,500,500,500,500,500,475,445,431,417,409,407,407,407,407,407,407,407,407,407,407,407,407,407,407,407,407,407,407,407,407,407,407,407,407,407,413,413,414,414,414,414,406,369,321,282,224,210,199,196,195,195,195,195,195,195,194,172,144,104,61],"timestamp_mouse":[7,27,53,67,87,108,128,148,168,188,208,228,247,268,288,307,328,348,367,388,409,428,448,467,488,508,528,548,567,587,609,628,649,667,687,709,728,747,767,788,809,828,847,868,888,909,928,948,969,989,1009,1027,1047,1069,1089,1107,1128,1147,1167,1188,1207,1228,1248,1268,1288,1307,1328,1348,1368,1387,1407,1427,1448,1468,1488,1507,1527,1547,1569,1588,1609,1629,1648,1667,1688,1708,1728,1748,1769,1787,1807,1828,1849,1868,1888,1908,1927,1948,1967,1988,2008,2028,2048,2068,2088,2108,2128,2147,2169,2188,2208,2228,2247,2267,2287,2309,2328,2348,2368,2389,2408,2427,2449,2468,2487,2507,2528,2548,2567,2588,2608,2627,2647,2667,2688,2707],"xSR":741.5,"ySR":469.95,"xT1":424.9,"yT1":0,"xT2":1058.1,"yT2":0,"toosoon":0,"cond_shown":"Incongruent","ratio_trial":300,"L_num":1,"L_den":2,"R_num":3,"R_den":15,"correct_side":1,"subjID":"DairaJuanitaRodriguezRamirez5","gender":"1","school":"6","age":"11"},{"start_time":1551901113323,"click_time":1551901115860,"finger_time":1551901115439,"fix_duration":283.9602860310649,"trial":47,"RT":2116,"MT":421,"sideResp":2,"stimulus":[],"xmouse":[828,828,828,828,828,828,828,828,828,828,828,828,828,828,828,828,828,828,828,828,828,828,828,828,828,828,828,828,828,828,828,828,828,828,828,828,828,828,828,828,828,828,828,828,828,828,828,828,828,828,828,828,828,828,828,828,828,828,828,828,828,828,828,828,828,828,828,828,828,828,828,828,828,828,828,828,828,828,828,828,827,827,827,827,826,826,824,821,820,818,817,815,813,813,813,813,813,813,813,813,813,819,827,830,832,889,924,949,963,968,968,968,968,968,968,968,968,968,968,968,968,968,968,968,972,1023,1138],"ymouse":[505,505,505,505,505,505,505,505,505,505,505,505,505,505,505,505,505,505,505,505,505,505,505,505,505,505,505,505,505,505,505,505,505,505,505,505,505,505,505,505,505,505,505,505,505,505,505,505,505,505,505,505,505,505,505,505,505,505,505,505,505,505,505,505,505,505,505,505,505,505,505,505,505,505,505,505,505,505,505,505,505,505,505,505,505,505,505,504,504,504,503,503,503,502,502,502,502,502,502,502,502,503,506,507,507,410,346,301,278,271,271,271,271,271,271,271,271,271,271,271,271,271,271,266,252,181,40],"timestamp_mouse":[15,35,56,75,95,116,136,155,175,195,217,237,256,275,295,315,335,356,375,396,417,436,457,475,495,515,535,555,577,596,616,636,656,677,696,716,736,756,775,795,815,836,856,876,896,915,935,956,976,996,1016,1037,1056,1075,1097,1116,1137,1155,1175,1195,1216,1236,1257,1276,1296,1316,1335,1355,1376,1396,1416,1436,1455,1475,1496,1515,1535,1555,1577,1596,1616,1636,1655,1676,1696,1716,1736,1755,1775,1795,1815,1836,1856,1876,1896,1916,1936,1955,1975,1995,2016,2036,2056,2075,2095,2116,2135,2156,2176,2195,2216,2237,2256,2275,2295,2316,2335,2356,2376,2395,2416,2435,2455,2476,2497,2516,2537],"xSR":741.5,"ySR":469.95,"xT1":424.9,"yT1":0,"xT2":1058.1,"yT2":0,"toosoon":0,"cond_shown":"Congruent","ratio_trial":200,"L_num":6,"L_den":12,"R_num":7,"R_den":10,"correct_side":2,"subjID":"DairaJuanitaRodriguezRamirez5","gender":"1","school":"6","age":"11"},{"start_time":1551901118294,"click_time":1551901120259,"finger_time":1551901119859,"fix_duration":1154.7949203148971,"trial":48,"RT":1565,"MT":400,"sideResp":2,"stimulus":[],"xmouse":[788,788,788,788,788,788,788,788,788,788,788,788,788,788,788,788,788,788,788,788,788,788,788,788,788,788,788,788,788,788,788,788,788,788,788,788,788,788,788,788,788,788,788,788,788,788,788,788,788,788,788,788,788,788,788,788,788,788,788,788,788,788,788,788,788,788,789,789,789,789,789,789,789,789,789,789,789,792,845,880,909,925,932,934,934,934,934,937,1005,1045,1081,1099,1111,1117,1117,1118,1118,1120,1124],"ymouse":[490,490,490,490,490,490,490,490,490,490,490,490,490,490,490,490,490,490,490,490,490,490,490,490,490,490,490,490,490,490,490,490,490,490,490,490,490,490,490,490,490,490,490,490,490,490,490,490,490,490,490,490,490,490,490,490,490,490,490,490,490,490,490,490,490,490,490,490,490,490,490,490,490,490,490,490,490,478,397,352,313,294,286,283,283,283,283,269,196,164,140,127,120,117,117,116,115,108,93],"timestamp_mouse":[17,24,44,64,86,104,125,146,166,185,204,225,245,265,284,304,325,346,364,384,404,425,445,466,485,505,525,545,566,585,604,625,646,664,684,704,724,745,765,785,805,825,846,864,884,906,925,944,965,985,1005,1025,1046,1064,1084,1104,1124,1144,1165,1185,1205,1226,1245,1265,1285,1304,1325,1344,1365,1385,1405,1425,1444,1465,1485,1505,1524,1544,1564,1585,1605,1625,1645,1665,1686,1706,1726,1745,1764,1784,1805,1825,1844,1864,1884,1904,1924,1945,1964],"xSR":741.5,"ySR":469.95,"xT1":424.9,"yT1":0,"xT2":1058.1,"yT2":0,"toosoon":0,"cond_shown":"Congruent","ratio_trial":300,"L_num":1,"L_den":5,"R_num":3,"R_den":6,"correct_side":2,"subjID":"DairaJuanitaRodriguezRamirez5","gender":"1","school":"6","age":"11"},{"start_time":1551901121778,"click_time":1551901124219,"finger_time":1551901123800,"fix_duration":617.4803869851987,"trial":49,"RT":2022,"MT":419,"sideResp":1,"stimulus":[],"xmouse":[814,814,814,814,814,814,814,814,814,814,814,814,814,814,814,814,814,814,814,814,814,814,814,814,814,814,814,814,814,814,814,814,814,814,814,814,814,814,814,814,814,814,814,814,814,814,814,814,814,814,814,814,814,814,814,814,814,814,814,814,814,814,814,814,814,814,814,814,814,814,814,814,814,814,814,814,814,814,814,814,814,814,814,814,814,814,814,814,814,814,814,814,814,814,814,814,814,814,814,814,812,799,761,751,731,729,727,724,720,716,707,696,682,679,662,653,644,632,609,560,544,530,519],"ymouse":[489,489,489,489,489,489,489,489,489,489,489,489,489,489,489,489,489,489,489,489,489,489,489,489,489,489,489,489,489,489,489,489,489,489,489,489,489,489,489,489,489,489,489,489,489,489,489,489,489,489,489,489,489,489,489,489,489,489,489,489,489,489,489,489,489,489,489,489,489,489,489,489,489,489,489,489,489,489,489,489,489,489,489,489,489,489,489,489,489,489,489,489,489,489,489,489,489,489,489,489,480,462,401,387,359,358,355,351,347,341,324,308,284,279,250,235,219,197,167,117,97,83,75],"timestamp_mouse":[9,32,41,60,81,102,121,140,162,182,201,220,240,260,281,301,322,340,360,382,401,420,441,461,482,500,521,541,560,580,600,622,640,660,680,701,720,741,761,780,800,821,841,861,880,901,921,941,960,980,1002,1020,1040,1062,1081,1101,1122,1140,1161,1181,1201,1220,1241,1261,1281,1301,1321,1340,1362,1380,1401,1421,1441,1461,1480,1500,1522,1540,1561,1581,1600,1621,1640,1660,1681,1700,1720,1741,1762,1781,1801,1821,1841,1860,1880,1902,1921,1941,1961,1980,2001,2022,2041,2061,2081,2100,2121,2140,2161,2181,2201,2221,2241,2260,2280,2300,2321,2340,2360,2380,2400,2420,2441],"xSR":741.5,"ySR":469.95,"xT1":424.9,"yT1":0,"xT2":1058.1,"yT2":0,"toosoon":0,"cond_shown":"Congruent","ratio_trial":100,"L_num":3,"L_den":20,"R_num":4,"R_den":16,"correct_side":2,"subjID":"DairaJuanitaRodriguezRamirez5","gender":"1","school":"6","age":"11"},{"start_time":1551901126546,"click_time":1551901128100,"finger_time":1551901127760,"fix_duration":626.9858084602059,"trial":50,"RT":1214,"MT":340,"sideResp":2,"stimulus":[],"xmouse":[798,798,798,798,798,798,798,798,798,798,798,798,798,798,798,798,798,798,798,798,798,798,798,798,798,798,798,798,798,798,798,798,798,798,798,798,798,798,798,798,798,798,798,798,798,798,798,798,798,798,798,797,796,796,796,796,795,795,795,794,824,853,888,903,917,926,946,958,976,992,1009,1021,1024,1026,1029,1038,1054,1062],"ymouse":[513,513,513,513,513,513,513,513,513,513,513,513,513,513,513,513,513,513,513,513,513,513,513,513,513,513,513,513,513,513,513,513,513,513,513,513,513,513,513,513,513,513,513,513,513,513,513,513,513,512,512,512,512,511,511,511,511,511,510,507,447,406,368,353,336,322,284,254,221,192,167,149,143,140,133,116,87,74],"timestamp_mouse":[13,33,53,73,93,113,133,153,173,193,213,233,253,272,292,312,334,353,372,392,414,434,454,473,494,514,533,552,572,593,613,632,652,673,693,712,733,754,772,793,813,833,854,873,893,914,933,954,973,992,1014,1033,1052,1072,1093,1113,1133,1153,1173,1193,1214,1232,1253,1273,1292,1313,1332,1352,1373,1392,1412,1433,1453,1472,1494,1513,1533,1553],"xSR":741.5,"ySR":469.95,"xT1":424.9,"yT1":0,"xT2":1058.1,"yT2":0,"toosoon":0,"cond_shown":"Incongruent","ratio_trial":100,"L_num":6,"L_den":10,"R_num":11,"R_den":22,"correct_side":1,"subjID":"DairaJuanitaRodriguezRamirez5","gender":"1","school":"6","age":"11"},{"start_time":1551901129137,"click_time":1551901130920,"finger_time":1551901130419,"fix_duration":317.48596506545044,"trial":51,"RT":1282,"MT":501,"sideResp":2,"stimulus":[],"xmouse":[781,781,781,781,781,781,781,781,781,781,781,781,781,781,781,781,781,781,781,781,781,781,781,781,781,781,781,781,781,781,781,781,781,781,781,781,781,781,781,781,781,781,781,781,781,781,781,781,781,781,781,781,781,780,779,779,779,779,779,778,778,778,790,807,839,876,909,954,976,994,1008,1020,1032,1036,1039,1041,1042,1043,1046,1052,1059,1059,1059,1059,1059,1059,1059,1059,1059,1063],"ymouse":[560,560,560,560,560,560,560,560,560,560,560,560,560,560,560,560,560,560,560,560,560,560,560,560,560,560,560,560,560,560,560,560,560,560,560,560,560,560,560,560,560,560,560,560,560,560,560,560,560,560,560,560,560,560,560,560,560,560,560,559,559,555,530,508,469,420,366,284,233,176,129,88,58,48,40,36,33,31,21,11,0,0,0,0,0,0,0,0,0,4],"timestamp_mouse":[3,21,41,61,82,102,121,142,161,183,203,221,242,261,282,302,