[{"start_time":1551901551844,"click_time":1551901553850,"finger_time":1551901553069,"fix_duration":250,"trial":0,"RT":1225,"MT":781,"sideResp":1,"stimulus":"img/500/randomdotsizeEA/L/10_Ratio_500_L_4_R_2.png","xmouse":[812,812,812,812,812,812,812,812,812,812,812,812,812,812,812,812,812,812,812,812,812,812,812,812,812,812,812,812,812,812,812,812,812,812,812,812,812,812,812,812,812,812,812,812,812,812,812,812,812,812,812,812,812,812,812,812,813,813,813,810,798,752,730,694,687,679,669,664,664,663,662,661,655,625,597,570,542,519,506,499,493,482,473,468,464,464,463,463,463,463,463,463,463,463,463,463,463,463,463,463,463],"ymouse":[508,508,508,508,508,508,508,508,508,508,508,508,508,508,508,508,508,508,508,508,508,508,508,508,508,508,508,508,508,508,508,508,508,508,508,508,508,508,508,508,508,508,508,508,508,508,508,508,508,508,508,508,508,508,508,508,509,509,509,496,478,442,414,359,343,325,310,303,302,301,301,300,293,270,252,233,211,193,184,174,170,166,163,160,154,149,145,141,139,130,127,125,122,120,113,109,106,105,103,100,99],"timestamp_mouse":[8,28,45,65,87,106,126,145,165,186,206,226,247,266,285,306,326,346,365,387,406,425,445,466,487,506,525,546,565,587,606,626,645,666,687,706,726,746,767,786,805,826,845,866,887,905,925,945,966,986,1005,1025,1045,1065,1087,1106,1127,1145,1166,1186,1205,1225,1246,1267,1285,1305,1325,1346,1365,1386,1406,1426,1447,1467,1485,1505,1525,1547,1566,1585,1606,1625,1645,1666,1686,1706,1727,1745,1766,1785,1806,1826,1845,1866,1885,1906,1926,1946,1966,1985,2006],"xSR":741.5,"ySR":469.95,"xT1":424.9,"yT1":0,"xT2":1058.1,"yT2":0,"toosoon":0,"cond_shown":"randomdotsizeEA","ratio_trial":500,"smaller_num":"2","larger_num":"4","correct_side":1,"subjID":"DairaJuanitaRodriguezRamirez5","gender":"1","age":"11","school":"6","test":{"fix_dur":[250,1500],"timestim":300,"targets_dim":[100,100],"targets_relative_coord":[0.3,0.7],"size_stim":[880,420],"start_dim":[100,100],"size_start":[300,300],"size_fix":60,"samplingrate":20,"img_types":["equaldotsize","equaldotanddens","randomdotsizeEA"],"ratios":[250,500,750,900],"rep_conds":9,"nTrials":120,"trials_to_rest":500,"Trials_order":[5,82,77,114,28,31,71,51,110,76,10,64,40,98,94,102,79,36,95,97,67,59,49,23,91,60,54,61,20,57,90,66,108,11,46,30,0,93,83,32,8,39,1,118,18,55,85,84,117,17,15,109,47,68,80,72,34,69,29,37,65,106,52,33,112,19,73,48,100,21,113,24,81,41,2,35,6,44,25,96,56,50,16,62,78,42,87,99,75,26,3,74,45,53,38,115,86,107,105,116,111,9,70,27,89,12,92,101,14,88,58,63,7,22,4,13,119,103,43,104],"cond_shown":["randomdotsizeEA","equaldotanddens","randomdotsizeEA","equaldotsize","equaldotanddens","equaldotanddens","randomdotsizeEA","equaldotsize","randomdotsizeEA","equaldotanddens","equaldotanddens","equaldotanddens","equaldotanddens","randomdotsizeEA","equaldotanddens","equaldotsize","equaldotanddens","equaldotsize","randomdotsizeEA","equaldotanddens","equaldotanddens","randomdotsizeEA","equaldotanddens","randomdotsizeEA","equaldotanddens","equaldotsize","equaldotsize","equaldotanddens","randomdotsizeEA","equaldotsize","equaldotsize","equaldotsize","equaldotsize","randomdotsizeEA","equaldotanddens","equaldotsize","equaldotsize","equaldotsize","randomdotsizeEA","randomdotsizeEA","randomdotsizeEA","equaldotsize","equaldotanddens","equaldotanddens","equaldotsize","equaldotanddens","equaldotanddens","equaldotsize","equaldotsize","randomdotsizeEA","equaldotsize","equaldotanddens","randomdotsizeEA","randomdotsizeEA","randomdotsizeEA","equaldotsize","equaldotanddens","equaldotsize","randomdotsizeEA","equaldotanddens","randomdotsizeEA","equaldotanddens","equaldotanddens","equaldotsize","equaldotanddens","equaldotanddens","equaldotanddens","equaldotsize","equaldotanddens","equaldotsize","randomdotsizeEA","equaldotsize","equaldotsize","randomdotsizeEA","randomdotsizeEA","randomdotsizeEA","equaldotsize","randomdotsizeEA","equaldotanddens","equaldotsize","randomdotsizeEA","randomdotsizeEA","equaldotanddens","randomdotsizeEA","equaldotsize","equaldotsize","equaldotsize","equaldotsize","equaldotsize","randomdotsizeEA","equaldotsize","randomdotsizeEA","equaldotsize","randomdotsizeEA","randomdotsizeEA","equaldotanddens","randomdotsizeEA","randomdotsizeEA","equaldotsize","randomdotsizeEA","equaldotsize","equaldotsize","equaldotanddens","equaldotsize","randomdotsizeEA","equaldotsize","randomdotsizeEA","randomdotsizeEA","randomdotsizeEA","equaldotanddens","equaldotanddens","equaldotsize","equaldotanddens","equaldotanddens","equaldotanddens","equaldotanddens","randomdotsizeEA","equaldotanddens","equaldotanddens","randomdotsizeEA"],"ratio_trial":[500,900,500,750,500,750,900,500,250,500,900,500,500,250,900,750,750,250,900,250,750,900,250,900,750,250,750,250,750,900,750,750,250,900,900,750,250,900,900,750,750,500,250,900,750,750,250,250,900,500,500,250,900,750,750,250,900,900,500,250,500,900,500,900,500,750,250,250,500,900,500,250,900,500,250,900,750,750,250,250,750,250,500,250,750,750,500,500,500,250,500,250,900,500,250,750,250,900,900,750,500,900,900,500,500,250,750,500,250,500,900,500,750,900,500,250,900,750,750,750],"smaller_num":["2","18","6","9","10","15","18","5","3","2","18","5","6","4","18","18","12","4","18","2","15","9","6","9","6","3","6","4","15","18","3","3","3","18","9","3","4","9","18","6","3","5","3","18","3","15","2","1","18","9","1","3","9","3","6","2","18","18","2","1","5","9","9","18","2","15","3","3","6","18","4","3","18","9","2","9","15","15","6","6","6","1","2","3","6","3","3","6","4","4","4","4","18","5","2","3","3","18","18","6","3","18","18","9","5","5","9","2","1","2","18","9","6","9","1","3","18","15","6","6"],"larger_num":["4","20","12","12","20","20","20","10","12","4","20","10","12","16","20","24","16","16","20","8","20","10","24","10","8","12","8","16","20","20","4","4","12","20","10","4","16","10","20","8","4","10","12","20","4","20","8","4","20","18","2","12","10","4","8","8","20","20","4","4","10","10","18","20","4","20","12","12","12","20","8","12","20","18","8","10","20","20","24","24","8","4","4","12","8","4","6","12","8","16","8","16","20","10","8","4","12","20","20","8","6","20","20","18","10","20","12","4","4","4","20","18","8","10","2","12","20","20","8","8"],"correct_side":[1,1,1,2,2,1,2,1,2,1,1,2,1,2,1,1,2,2,2,2,1,1,2,1,2,1,1,1,2,1,2,2,2,2,2,1,2,2,1,1,1,1,2,1,1,1,1,2,2,1,2,2,1,1,2,1,2,1,2,2,2,2,2,1,1,2,1,2,1,1,1,1,2,2,1,2,2,2,1,1,1,2,1,1,2,2,2,1,1,2,1,1,2,1,1,1,1,1,1,2,2,1,1,2,2,2,2,1,2,1,1,2,1,2,2,1,2,2,2,2],"img_shown":["img/500/randomdotsizeEA/L/10_Ratio_500_L_4_R_2.png","img/900/equaldotanddens/L/10_Ratio_900_L_20_R_18.png","img/500/randomdotsizeEA/L/13_Ratio_500_L_12_R_6.png","img/750/equaldotsize/R/15_Ratio_750_L_9_R_12.png","img/500/equaldotanddens/R/3_Ratio_500_L_10_R_20.png","img/750/equaldotanddens/L/1_Ratio_750_L_20_R_15.png","img/900/randomdotsizeEA/R/14_Ratio_900_L_18_R_20.png","img/500/equaldotsize/L/7_Ratio_500_L_10_R_5.png","img/250/randomdotsizeEA/R/4_Ratio_250_L_3_R_12.png","img/500/equaldotanddens/L/10_Ratio_500_L_4_R_2.png","img/900/equaldotanddens/L/2_Ratio_900_L_20_R_18.png","img/500/equaldotanddens/R/14_Ratio_500_L_5_R_10.png","img/500/equaldotanddens/L/11_Ratio_500_L_12_R_6.png","img/250/randomdotsizeEA/R/10_Ratio_250_L_4_R_16.png","img/900/equaldotanddens/L/8_Ratio_900_L_20_R_18.png","img/750/equaldotsize/L/6_Ratio_750_L_24_R_18.png","img/750/equaldotanddens/R/11_Ratio_750_L_12_R_16.png","img/250/equaldotsize/R/10_Ratio_250_L_4_R_16.png","img/900/randomdotsizeEA/R/14_Ratio_900_L_18_R_20.png","img/250/equaldotanddens/R/13_Ratio_250_L_2_R_8.png","img/750/equaldotanddens/L/1_Ratio_750_L_20_R_15.png","img/900/randomdotsizeEA/L/1_Ratio_900_L_10_R_9.png","img/250/equaldotanddens/R/6_Ratio_250_L_6_R_24.png","img/900/randomdotsizeEA/L/1_Ratio_900_L_10_R_9.png","img/750/equaldotanddens/R/2_Ratio_750_L_6_R_8.png","img/250/equaldotsize/L/15_Ratio_250_L_12_R_3.png","img/750/equaldotsize/L/14_Ratio_750_L_8_R_6.png","img/250/equaldotanddens/L/2_Ratio_250_L_16_R_4.png","img/750/randomdotsizeEA/R/4_Ratio_750_L_15_R_20.png","img/900/equaldotsize/L/10_Ratio_900_L_20_R_18.png","img/750/equaldotsize/R/12_Ratio_750_L_3_R_4.png","img/750/equaldotsize/R/12_Ratio_750_L_3_R_4.png","img/250/equaldotsize/R/4_Ratio_250_L_3_R_12.png","img/900/randomdotsizeEA/R/14_Ratio_900_L_18_R_20.png","img/900/equaldotanddens/R/6_Ratio_900_L_9_R_10.png","img/750/equaldotsize/L/8_Ratio_750_L_4_R_3.png","img/250/equaldotsize/R/10_Ratio_250_L_4_R_16.png","img/900/equaldotsize/R/6_Ratio_900_L_9_R_10.png","img/900/randomdotsizeEA/L/4_Ratio_900_L_20_R_18.png","img/750/randomdotsizeEA/L/14_Ratio_750_L_8_R_6.png","img/750/randomdotsizeEA/L/9_Ratio_750_L_4_R_3.png","img/500/equaldotsize/L/7_Ratio_500_L_10_R_5.png","img/250/equaldotanddens/R/9_Ratio_250_L_3_R_12.png","img/900/equaldotanddens/L/4_Ratio_900_L_20_R_18.png","img/750/equaldotsize/L/8_Ratio_750_L_4_R_3.png","img/750/equaldotanddens/L/1_Ratio_750_L_20_R_15.png","img/250/equaldotanddens/L/7_Ratio_250_L_8_R_2.png","img/250/equaldotsize/R/8_Ratio_250_L_1_R_4.png","img/900/equaldotsize/R/12_Ratio_900_L_18_R_20.png","img/500/randomdotsizeEA/L/4_Ratio_500_L_18_R_9.png","img/500/equaldotsize/R/15_Ratio_500_L_1_R_2.png","img/250/equaldotanddens/R/11_Ratio_250_L_3_R_12.png","img/900/randomdotsizeEA/L/1_Ratio_900_L_10_R_9.png","img/750/randomdotsizeEA/L/8_Ratio_750_L_4_R_3.png","img/750/randomdotsizeEA/R/2_Ratio_750_L_6_R_8.png","img/250/equaldotsize/L/7_Ratio_250_L_8_R_2.png","img/900/equaldotanddens/R/13_Ratio_900_L_18_R_20.png","img/900/equaldotsize/L/2_Ratio_900_L_20_R_18.png","img/500/randomdotsizeEA/R/9_Ratio_500_L_2_R_4.png","img/250/equaldotanddens/R/8_Ratio_250_L_1_R_4.png","img/500/randomdotsizeEA/R/14_Ratio_500_L_5_R_10.png","img/900/equaldotanddens/R/5_Ratio_900_L_9_R_10.png","img/500/equaldotanddens/R/1_Ratio_500_L_9_R_18.png","img/900/equaldotsize/L/2_Ratio_900_L_20_R_18.png","img/500/equaldotanddens/L/5_Ratio_500_L_4_R_2.png","img/750/equaldotanddens/R/4_Ratio_750_L_15_R_20.png","img/250/equaldotanddens/L/15_Ratio_250_L_12_R_3.png","img/250/equaldotsize/R/9_Ratio_250_L_3_R_12.png","img/500/equaldotanddens/L/11_Ratio_500_L_12_R_6.png","img/900/equaldotsize/L/4_Ratio_900_L_20_R_18.png","img/500/randomdotsizeEA/L/8_Ratio_500_L_8_R_4.png","img/250/equaldotsize/L/15_Ratio_250_L_12_R_3.png","img/900/equaldotsize/R/9_Ratio_900_L_18_R_20.png","img/500/randomdotsizeEA/R/6_Ratio_500_L_9_R_18.png","img/250/randomdotsizeEA/L/3_Ratio_250_L_8_R_2.png","img/900/randomdotsizeEA/R/15_Ratio_900_L_9_R_10.png","img/750/equaldotsize/R/3_Ratio_750_L_15_R_20.png","img/750/randomdotsizeEA/R/3_Ratio_750_L_15_R_20.png","img/250/equaldotanddens/L/5_Ratio_250_L_24_R_6.png","img/250/equaldotsize/L/5_Ratio_250_L_24_R_6.png","img/750/randomdotsizeEA/L/13_Ratio_750_L_8_R_6.png","img/250/randomdotsizeEA/R/8_Ratio_250_L_1_R_4.png","img/500/equaldotanddens/L/5_Ratio_500_L_4_R_2.png","img/250/randomdotsizeEA/L/15_Ratio_250_L_12_R_3.png","img/750/equaldotsize/R/2_Ratio_750_L_6_R_8.png","img/750/equaldotsize/R/12_Ratio_750_L_3_R_4.png","img/500/equaldotsize/R/2_Ratio_500_L_3_R_6.png","img/500/equaldotsize/L/11_Ratio_500_L_12_R_6.png","img/500/equaldotsize/L/8_Ratio_500_L_8_R_4.png","img/250/randomdotsizeEA/R/10_Ratio_250_L_4_R_16.png","img/500/equaldotsize/L/8_Ratio_500_L_8_R_4.png","img/250/randomdotsizeEA/L/2_Ratio_250_L_16_R_4.png","img/900/equaldotsize/R/12_Ratio_900_L_18_R_20.png","img/500/randomdotsizeEA/L/7_Ratio_500_L_10_R_5.png","img/250/randomdotsizeEA/L/1_Ratio_250_L_8_R_2.png","img/750/equaldotanddens/L/8_Ratio_750_L_4_R_3.png","img/250/randomdotsizeEA/L/15_Ratio_250_L_12_R_3.png","img/900/randomdotsizeEA/L/2_Ratio_900_L_20_R_18.png","img/900/equaldotsize/L/2_Ratio_900_L_20_R_18.png","img/750/randomdotsizeEA/R/2_Ratio_750_L_6_R_8.png","img/500/equaldotsize/R/2_Ratio_500_L_3_R_6.png","img/900/equaldotsize/L/2_Ratio_900_L_20_R_18.png","img/900/equaldotanddens/L/10_Ratio_900_L_20_R_18.png","img/500/equaldotsize/R/6_Ratio_500_L_9_R_18.png","img/500/randomdotsizeEA/R/14_Ratio_500_L_5_R_10.png","img/250/equaldotsize/R/12_Ratio_250_L_5_R_20.png","img/750/randomdotsizeEA/R/15_Ratio_750_L_9_R_12.png","img/500/randomdotsizeEA/L/5_Ratio_500_L_4_R_2.png","img/250/randomdotsizeEA/R/8_Ratio_250_L_1_R_4.png","img/500/equaldotanddens/L/5_Ratio_500_L_4_R_2.png","img/900/equaldotanddens/L/4_Ratio_900_L_20_R_18.png","img/500/equaldotsize/R/1_Ratio_500_L_9_R_18.png","img/750/equaldotanddens/L/14_Ratio_750_L_8_R_6.png","img/900/equaldotanddens/R/6_Ratio_900_L_9_R_10.png","img/500/equaldotanddens/R/12_Ratio_500_L_1_R_2.png","img/250/equaldotanddens/L/15_Ratio_250_L_12_R_3.png","img/900/randomdotsizeEA/R/11_Ratio_900_L_18_R_20.png","img/750/equaldotanddens/R/3_Ratio_750_L_15_R_20.png","img/750/equaldotanddens/R/2_Ratio_750_L_6_R_8.png","img/750/randomdotsizeEA/R/2_Ratio_750_L_6_R_8.png"],"Rat0":[["12_Ratio_0_L_9_R_0.png","13_Ratio_0_L_6_R_0.png","5_Ratio_0_L_2_R_0.png","6_Ratio_0_L_4_R_0.png","8_Ratio_0_L_6_R_0.png"],["1_Ratio_0_L_0_R_17.png","10_Ratio_0_L_0_R_22.png","11_Ratio_0_L_0_R_1.png","14_Ratio_0_L_0_R_24.png","15_Ratio_0_L_0_R_4.png","2_Ratio_0_L_0_R_5.png","3_Ratio_0_L_0_R_17.png","4_Ratio_0_L_0_R_7.png","7_Ratio_0_L_0_R_19.png","9_Ratio_0_L_0_R_15.png"]],"Rat250":[["1_Ratio_250_L_8_R_2.png","14_Ratio_250_L_12_R_3.png","15_Ratio_250_L_12_R_3.png","2_Ratio_250_L_16_R_4.png","3_Ratio_250_L_8_R_2.png","5_Ratio_250_L_24_R_6.png","7_Ratio_250_L_8_R_2.png"],["10_Ratio_250_L_4_R_16.png","11_Ratio_250_L_3_R_12.png","12_Ratio_250_L_5_R_20.png","13_Ratio_250_L_2_R_8.png","4_Ratio_250_L_3_R_12.png","6_Ratio_250_L_6_R_24.png","8_Ratio_250_L_1_R_4.png","9_Ratio_250_L_3_R_12.png"]],"Rat500":[["10_Ratio_500_L_4_R_2.png","11_Ratio_500_L_12_R_6.png","13_Ratio_500_L_12_R_6.png","4_Ratio_500_L_18_R_9.png","5_Ratio_500_L_4_R_2.png","7_Ratio_500_L_10_R_5.png","8_Ratio_500_L_8_R_4.png"],["1_Ratio_500_L_9_R_18.png","12_Ratio_500_L_1_R_2.png","14_Ratio_500_L_5_R_10.png","15_Ratio_500_L_1_R_2.png","2_Ratio_500_L_3_R_6.png","3_Ratio_500_L_10_R_20.png","6_Ratio_500_L_9_R_18.png","9_Ratio_500_L_2_R_4.png"]],"Rat750":[["1_Ratio_750_L_20_R_15.png","10_Ratio_750_L_4_R_3.png","13_Ratio_750_L_8_R_6.png","14_Ratio_750_L_8_R_6.png","6_Ratio_750_L_24_R_18.png","8_Ratio_750_L_4_R_3.png","9_Ratio_750_L_4_R_3.png"],["11_Ratio_750_L_12_R_16.png","12_Ratio_750_L_3_R_4.png","15_Ratio_750_L_9_R_12.png","2_Ratio_750_L_6_R_8.png","3_Ratio_750_L_15_R_20.png","4_Ratio_750_L_15_R_20.png","5_Ratio_750_L_15_R_20.png","7_Ratio_750_L_3_R_4.png"]],"Rat900":[["1_Ratio_900_L_10_R_9.png","10_Ratio_900_L_20_R_18.png","2_Ratio_900_L_20_R_18.png","4_Ratio_900_L_20_R_18.png","8_Ratio_900_L_20_R_18.png"],["11_Ratio_900_L_18_R_20.png","12_Ratio_900_L_18_R_20.png","13_Ratio_900_L_18_R_20.png","14_Ratio_900_L_18_R_20.png","15_Ratio_900_L_9_R_10.png","3_Ratio_900_L_9_R_10.png","5_Ratio_900_L_9_R_10.png","6_Ratio_900_L_9_R_10.png","7_Ratio_900_L_9_R_10.png","9_Ratio_900_L_18_R_20.png"]],"Rat1000":[["10_Ratio_1000_L_16_R_16.png","11_Ratio_1000_L_6_R_6.png","12_Ratio_1000_L_14_R_14.png","13_Ratio_1000_L_20_R_20.png","15_Ratio_1000_L_15_R_15.png","2_Ratio_1000_L_17_R_17.png","4_Ratio_1000_L_9_R_9.png","5_Ratio_1000_L_6_R_6.png","6_Ratio_1000_L_19_R_19.png","8_Ratio_1000_L_14_R_14.png","9_Ratio_1000_L_25_R_25.png"],["1_Ratio_1000_L_1_R_1.png","14_Ratio_1000_L_17_R_17.png","3_Ratio_1000_L_17_R_17.png","7_Ratio_1000_L_6_R_6.png"]]}},{"start_time":1551901554901,"click_time":1551901556330,"finger_time":1551901555790,"fix_duration":250,"trial":1,"RT":889,"MT":540,"sideResp":2,"stimulus":"img/900/equaldotanddens/L/10_Ratio_900_L_20_R_18.png","xmouse":[812,812,812,812,812,812,812,812,812,812,812,812,812,812,812,812,812,812,812,812,812,812,812,812,812,812,812,812,812,812,812,812,812,812,812,812,812,812,812,812,812,819,827,840,848,856,874,878,882,885,890,905,918,933,948,961,993,1004,1012,1017,1021,1022,1023,1023,1025,1025,1031,1035,1040,1046,1051,1062],"ymouse":[553,553,553,553,553,553,553,552,552,552,552,552,552,552,552,552,552,552,552,552,552,552,552,552,552,552,552,552,552,552,552,552,552,552,552,552,552,552,552,552,545,523,504,482,464,447,408,399,390,382,373,348,329,308,286,262,212,201,194,189,185,183,179,176,172,169,153,140,129,114,104,80],"timestamp_mouse":[9,31,49,69,89,109,128,149,169,189,208,229,248,268,288,310,328,349,369,389,409,430,449,469,488,508,528,549,570,588,609,630,648,669,689,709,729,748,769,789,808,828,848,868,889,909,928,949,969,988,1008,1030,1050,1069,1088,1109,1129,1148,1169,1188,1208,1229,1248,1269,1289,1308,1329,1349,1368,1390,1408,1428],"xSR":741.5,"ySR":469.95,"xT1":424.9,"yT1":0,"xT2":1058.1,"yT2":0,"toosoon":0,"cond_shown":"equaldotanddens","ratio_trial":900,"smaller_num":"18","larger_num":"20","correct_side":1,"subjID":"DairaJuanitaRodriguezRamirez5","gender":"1","age":"11","school":"6"},{"start_time":1551901558202,"click_time":1551901559910,"finger_time":1551901559049,"fix_duration":1069.0446014017884,"trial":2,"RT":847,"MT":861,"sideResp":1,"stimulus":"img/500/randomdotsizeEA/L/13_Ratio_500_L_12_R_6.png","xmouse":[756,756,756,756,756,756,756,756,756,756,756,756,756,756,756,756,756,756,756,756,756,756,756,756,756,756,756,756,756,756,756,756,756,756,756,756,756,756,756,756,757,765,829,859,889,911,935,941,949,956,964,969,971,972,973,974,986,992,1001,1012,1020,1022,1026,1026,1026,1026,1026,1025,1016,965,800,604,555,532,513,503,500,496,488,483,480,479,479,484,490,496],"ymouse":[544,544,544,544,544,544,544,544,544,544,544,544,544,544,544,544,544,544,544,544,544,544,544,544,544,544,544,544,544,544,544,544,544,544,544,544,544,544,544,544,544,533,466,441,420,403,369,349,330,312,289,270,264,260,255,252,224,210,192,164,148,139,128,126,126,126,126,127,134,166,216,247,247,246,237,230,227,219,206,198,187,174,142,123,109,96],"timestamp_mouse":[12,39,48,67,87,107,127,148,169,188,208,228,249,267,287,307,327,349,368,388,408,428,447,468,487,508,528,548,568,587,608,628,648,667,688,708,728,748,767,787,809,828,847,867,887,907,929,948,968,987,1007,1029,1047,1067,1089,1108,1129,1147,1167,1188,1208,1229,1248,1269,1288,1308,1328,1347,1369,1388,1407,1429,1448,1468,1488,1508,1527,1547,1567,1587,1608,1629,1648,1669,1688,1708],"xSR":741.5,"ySR":469.95,"xT1":424.9,"yT1":0,"xT2":1058.1,"yT2":0,"toosoon":0,"cond_shown":"randomdotsizeEA","ratio_trial":500,"smaller_num":"6","larger_num":"12","correct_side":1,"subjID":"DairaJuanitaRodriguezRamirez5","gender":"1","age":"11","school":"6"},{"start_time":1551901561415,"click_time":1551901563010,"finger_time":1551901562150,"fix_duration":681.9249844706566,"trial":3,"RT":735,"MT":860,"sideResp":2,"stimulus":"img/750/equaldotsize/R/15_Ratio_750_L_9_R_12.png","xmouse":[805,805,805,805,805,805,805,805,805,805,805,805,805,805,805,805,805,805,805,805,805,805,805,805,805,805,805,805,805,805,805,805,807,816,825,835,851,881,908,928,938,947,948,950,951,952,962,977,992,1007,1017,1020,1020,1020,1021,1023,1030,1030,1030,1030,1030,1032,1041,1053,1057,1058,1058,1058,1058,1058,1058,1058,1058,1058,1058,1058,1058,1058,1058,1060],"ymouse":[550,550,550,550,550,550,550,550,550,550,550,550,550,550,550,550,550,550,550,550,550,550,550,550,550,550,550,550,550,550,550,550,539,523,507,488,442,366,306,260,231,198,190,180,177,171,145,121,101,82,70,65,65,65,65,62,57,57,57,57,57,56,51,46,44,44,44,44,44,44,44,44,44,44,44,44,44,44,44,44],"timestamp_mouse":[15,35,59,74,94,114,135,155,174,194,214,235,255,276,295,316,335,354,375,395,415,435,455,476,494,514,536,555,575,595,616,636,655,674,694,715,735,755,774,795,815,835,856,874,894,914,935,955,974,996,1015,1034,1055,1076,1095,1116,1134,1156,1175,1195,1216,1235,1255,1274,1294,1314,1335,1355,1375,1395,1414,1434,1454,1474,1494,1514,1535,1555,1575,1595],"xSR":741.5,"ySR":469.95,"xT1":424.9,"yT1":0,"xT2":1058.1,"yT2":0,"toosoon":0,"cond_shown":"equaldotsize","ratio_trial":750,"smaller_num":"9","larger_num":"12","correct_side":2,"subjID":"DairaJuanitaRodriguezRamirez5","gender":"1","age":"11","school":"6"},{"start_time":1551901564760,"click_time":1551901565831,"finger_time":1551901565191,"fix_duration":629.1431775097203,"trial":4,"RT":431,"MT":640,"sideResp":2,"stimulus":"img/500/equaldotanddens/R/3_Ratio_500_L_10_R_20.png","xmouse":[786,786,786,786,786,786,786,786,786,786,786,786,786,786,786,786,786,786,786,787,793,803,806,806,806,806,806,806,806,806,806,809,831,869,968,997,1013,1021,1026,1033,1034,1036,1038,1042,1045,1046,1049,1051,1054,1059,1068,1073,1075,1079],"ymouse":[495,495,495,495,495,495,495,495,495,495,495,495,495,495,495,495,495,495,495,494,478,458,453,453,453,453,453,453,453,453,453,446,420,389,291,260,243,230,219,203,199,193,187,179,167,163,159,153,148,138,122,113,105,99],"timestamp_mouse":[9,33,50,70,89,109,129,150,170,190,210,231,249,269,289,309,329,351,369,389,410,431,450,469,489,509,530,550,571,590,609,630,650,669,690,709,730,749,769,789,809,829,850,869,890,910,931,951,970,990,1009,1029,1050,1071],"xSR":741.5,"ySR":469.95,"xT1":424.9,"yT1":0,"xT2":1058.1,"yT2":0,"toosoon":0,"cond_shown":"equaldotanddens","ratio_trial":500,"smaller_num":"10","larger_num":"20","correct_side":2,"subjID":"DairaJuanitaRodriguezRamirez5","gender":"1","age":"11","school":"6"},{"start_time":1551901568457,"click_time":1551901570310,"finger_time":1551901569110,"fix_duration":1245.7022301312425,"trial":5,"RT":653,"MT":1200,"sideResp":1,"stimulus":"img/750/equaldotanddens/L/1_Ratio_750_L_20_R_15.png","xmouse":[812,812,812,812,812,812,812,812,812,812,812,812,812,812,812,812,812,812,812,812,812,812,812,812,812,812,812,812,812,812,812,812,812,812,812,812,812,812,812,812,811,811,811,803,787,722,670,635,618,613,613,613,613,613,604,597,592,585,579,564,554,547,539,534,530,527,527,527,527,527,527,527,527,527,527,527,527,527,527,527,527,527,527,527,527,527,527,527,527,527,527,525,523],"ymouse":[492,492,492,492,492,492,492,492,492,492,492,492,492,492,492,492,492,492,492,492,492,492,492,492,492,492,492,492,492,492,492,492,459,430,408,403,402,402,402,402,402,402,400,387,367,321,298,283,276,274,274,274,274,274,258,241,223,200,174,128,104,86,68,63,59,57,57,57,57,57,57,57,57,57,57,57,57,57,57,57,57,57,57,57,57,57,57,57,57,57,57,57,57],"timestamp_mouse":[13,37,54,72,92,113,133,153,173,192,213,232,252,273,293,313,332,353,374,392,412,434,454,472,493,512,532,552,573,593,613,633,653,672,694,713,733,752,772,794,813,833,853,874,894,913,933,953,973,992,1012,1033,1054,1073,1094,1112,1133,1153,1173,1194,1212,1234,1252,1274,1294,1313,1333,1352,1372,1392,1412,1434,1452,1474,1492,1513,1533,1553,1573,1592,1612,1633,1653,1673,1693,1713,1733,1752,1773,1793,1813,1833,1853],"xSR":741.5,"ySR":469.95,"xT1":424.9,"yT1":0,"xT2":1058.1,"yT2":0,"toosoon":0,"cond_shown":"equaldotanddens","ratio_trial":750,"smaller_num":"15","larger_num":"20","correct_side":1,"subjID":"DairaJuanitaRodriguezRamirez5","gender":"1","age":"11","school":"6"},{"start_time":1551901580223,"click_time":1551901581490,"finger_time":1551901581049,"fix_duration":831.1289256336024,"trial":6,"RT":826,"MT":441,"sideResp":2,"stimulus":"img/900/randomdotsizeEA/R/14_Ratio_900_L_18_R_20.png","xmouse":[784,784,784,784,784,784,784,784,784,784,784,784,784,784,784,784,784,784,784,784,784,784,784,784,784,784,784,784,784,784,784,784,784,784,784,784,784,784,784,784,820,871,964,1069,1076,1076,1076,1076,1057,1056,1056,1056,1056,1059,1066,1074,1081,1084,1087,1088,1088,1093,1099,1116],"ymouse":[496,496,496,496,496,496,496,496,496,496,496,496,496,496,496,496,496,496,496,496,496,496,496,496,496,496,496,496,496,496,496,496,496,496,496,496,496,496,496,496,472,439,373,305,298,298,293,281,244,242,240,238,230,205,189,175,164,160,156,154,151,140,127,86],"timestamp_mouse":[8,34,47,67,87,106,126,146,166,187,207,227,247,266,286,306,326,347,366,387,408,427,447,467,486,507,527,547,566,586,606,626,647,666,687,707,727,746,766,787,806,826,846,866,888,907,927,947,966,987,1007,1027,1047,1067,1088,1107,1127,1147,1166,1187,1207,1227,1247,1267],"xSR":741.5,"ySR":469.95,"xT1":424.9,"yT1":0,"xT2":1058.1,"yT2":0,"toosoon":0,"cond_shown":"randomdotsizeEA","ratio_trial":900,"smaller_num":"18","larger_num":"20","correct_side":2,"subjID":"DairaJuanitaRodriguezRamirez5","gender":"1","age":"11","school":"6"},{"start_time":1551901583710,"click_time":1551901585349,"finger_time":1551901584410,"fix_duration":998.2348071784198,"trial":7,"RT":700,"MT":939,"sideResp":1,"stimulus":"img/500/equaldotsize/L/7_Ratio_500_L_10_R_5.png","xmouse":[819,819,820,821,821,821,821,821,821,821,821,821,821,821,821,821,821,821,821,821,821,821,821,821,821,821,821,821,821,821,821,821,821,821,821,674,588,534,517,509,504,501,498,487,467,462,462,462,463,463,465,466,466,466,466,468,469,469,470,470,470,470,470,470,470,470,470,470,470,470,470,470,470,470,470,470,470,470,470,470,470,470,477],"ymouse":[537,537,534,532,531,531,531,531,531,531,531,531,531,531,531,531,531,531,531,531,531,531,531,531,531,531,531,531,531,531,531,531,531,531,525,438,400,379,369,346,324,300,279,247,208,191,183,175,168,163,153,148,146,145,144,137,131,125,119,109,106,106,106,106,106,106,106,106,106,106,106,106,106,106,106,106,106,106,106,106,106,106,94],"timestamp_mouse":[8,26,40,61,80,99,120,140,160,180,199,220,240,260,279,300,320,340,360,379,400,420,440,459,480,500,521,540,559,579,601,620,640,659,679,700,720,740,760,780,799,820,840,860,880,900,920,940,960,980,999,1019,1039,1059,1080,1099,1119,1140,1159,1181,1199,1220,1240,1260,1280,1299,1319,1339,1359,1381,1401,1420,1439,1459,1481,1499,1519,1539,1560,1581,1600,1619,1639],"xSR":741.5,"ySR":469.95,"xT1":424.9,"yT1":0,"xT2":1058.1,"yT2":0,"toosoon":0,"cond_shown":"equaldotsize","ratio_trial":500,"smaller_num":"5","larger_num":"10","correct_side":1,"subjID":"DairaJuanitaRodriguezRamirez5","gender":"1","age":"11","school":"6"},{"start_time":1551901587723,"click_time":1551901589471,"finger_time":1551901588849,"fix_duration":892.9445295662689,"trial":8,"RT":1126,"MT":622,"sideResp":2,"stimulus":"img/250/randomdotsizeEA/R/4_Ratio_250_L_3_R_12.png","xmouse":[789,789,789,789,789,789,789,789,789,789,789,789,789,789,789,789,789,789,789,789,789,789,789,789,789,789,789,789,789,789,789,789,789,789,789,789,789,789,789,789,789,789,789,789,789,789,789,789,789,789,789,789,789,788,797,802,810,816,819,833,844,851,861,880,906,913,920,925,931,943,956,965,974,983,997,1003,1010,1019,1027,1030,1030,1030,1030,1030,1030,1032,1046,1067],"ymouse":[532,532,532,532,532,532,532,532,532,532,532,532,532,532,532,532,532,532,532,532,532,532,532,532,532,532,532,532,532,532,532,532,532,532,532,532,532,532,531,530,530,530,530,530,530,530,530,530,530,530,530,530,530,523,496,482,465,451,442,415,378,350,319,269,191,165,143,128,113,91,73,61,51,43,33,29,25,23,19,18,18,18,18,18,18,17,16,16],"timestamp_mouse":[8,26,46,66,87,107,127,147,167,186,207,228,246,267,287,307,327,347,366,386,407,427,447,467,487,506,526,547,567,586,607,627,647,668,686,707,727,747,766,786,806,826,846,866,886,907,928,948,966,987,1007,1027,1046,1066,1087,1107,1126,1147,1169,1187,1207,1226,1246,1266,1286,1307,1327,1347,1367,1387,1406,1426,1448,1467,1487,1507,1527,1546,1566,1587,1607,1627,1646,1666,1687,1708,1726,1748],"xSR":741.5,"ySR":469.95,"xT1":424.9,"yT1":0,"xT2":1058.1,"yT2":0,"toosoon":0,"cond_shown":"randomdotsizeEA","ratio_trial":250,"smaller_num":"3","larger_num":"12","correct_side":2,"subjID":"DairaJuanitaRodriguezRamirez5","gender":"1","age":"11","school":"6"},{"start_time":1551901591411,"click_time":1551901592529,"finger_time":1551901592069,"fix_duration":779.4343320968459,"trial":9,"RT":658,"MT":460,"sideResp":1,"stimulus":"img/500/equaldotanddens/L/10_Ratio_500_L_4_R_2.png","xmouse":[806,806,806,806,806,806,806,806,806,806,807,808,808,808,808,808,808,809,811,813,814,814,814,814,814,814,814,814,814,814,814,814,815,815,816,816,816,816,816,816,815,810,763,679,443,409,401,399,399,400,400,402,403,412,421,425],"ymouse":[494,494,494,494,494,494,494,494,494,494,485,484,484,484,484,484,484,481,477,472,470,470,470,470,470,470,470,470,470,470,470,470,467,464,463,463,463,463,463,463,460,448,387,314,148,116,98,89,86,81,76,68,62,48,33,28],"timestamp_mouse":[20,39,58,79,100,118,138,159,179,198,218,239,259,278,298,318,339,359,378,398,419,440,459,478,498,519,539,559,579,599,618,638,658,678,698,718,738,759,779,799,819,839,860,880,899,918,938,958,979,1000,1018,1038,1059,1079,1099,1118],"xSR":741.5,"ySR":469.95,"xT1":424.9,"yT1":0,"xT2":1058.1,"yT2":0,"toosoon":0,"cond_shown":"equaldotanddens","ratio_trial":500,"smaller_num":"2","larger_num":"4","correct_side":1,"subjID":"DairaJuanitaRodriguezRamirez5","gender":"1","age":"11","school":"6"},{"start_time":1551901594347,"click_time":1551901597070,"finger_time":1551901595209,"fix_duration":616.1242343525018,"trial":10,"RT":862,"MT":1861,"sideResp":2,"stimulus":"img/900/equaldotanddens/L/2_Ratio_900_L_20_R_18.png","xmouse":[763,765,765,765,765,765,765,765,765,765,765,765,765,766,766,766,766,766,766,766,766,766,766,766,766,766,766,766,766,766,766,766,766,766,766,766,766,766,768,770,774,780,784,792,807,826,841,851,859,870,874,881,889,897,938,962,995,1006,1023,1029,1032,1036,1037,1037,1038,1041,1043,1044,1044,1044,1044,1044,1044,1044,1044,1044,1045,1046,1046,1046,1046,1046,1046,1046,1046,1046,1046,1046,1046,1046,1046,1046,1046,1046,1046,1046,1046,1046,1046,1046,1046,1046,1046,1046,1054,1057,1057,1057,1057,1057,1057,1057,1057,1057,1057,1057,1057,1057,1057,1057,1057,1057,1057,1057,1057,1057,1057,1057,1057,1057,1057,1057,1057,1057,1057,1057,1062],"ymouse":[511,508,508,508,508,508,508,508,508,508,508,508,505,503,503,503,503,503,503,503,503,503,503,503,503,503,503,503,503,503,503,503,503,503,503,503,503,503,503,499,491,481,470,452,416,381,362,348,336,315,307,295,283,271,219,189,147,127,93,80,71,66,63,63,60,55,52,51,50,50,50,50,50,50,50,50,50,50,50,50,50,50,50,50,50,50,50,50,50,50,50,50,50,50,50,50,50,50,50,50,50,50,50,50,50,50,50,50,50,50,50,50,50,50,50,50,50,50,50,50,50,50,50,50,50,50,50,50,50,50,50,50,50,50,50,50,50],"timestamp_mouse":[12,30,43,63,84,103,122,143,162,182,203,223,243,263,283,304,322,342,363,384,403,422,442,463,482,503,523,543,563,583,602,622,642,663,683,702,722,742,762,784,803,822,842,862,882,903,923,943,962,982,1003,1024,1043,1063,1083,1104,1122,1142,1164,1182,1202,1222,1244,1264,1283,1303,1323,1343,1363,1383,1402,1422,1443,1463,1482,1502,1522,1542,1564,1583,1603,1623,1642,1664,1683,1704,1723,1742,1763,1783,1803,1822,1842,1864,1882,1902,1923,1942,1962,1982,2003,2023,2042,2062,2084,2103,2123,2143,2164,2183,2202,2222,2243,2263,2282,2302,2322,2342,2362,2382,2403,2423,2442,2463,2483,2503,2523,2543,2563,2583,2603,2622,2643,2664,2682,2702,2723],"xSR":741.5,"ySR":469.95,"xT1":424.9,"yT1":0,"xT2":1058.1,"yT2":0,"toosoon":0,"cond_shown":"equaldotanddens","ratio_trial":900,"smaller_num":"18","larger_num":"20","correct_side":1,"subjID":"DairaJuanitaRodriguezRamirez5","gender":"1","age":"11","school":"6"},{"start_time":1551901599404,"click_time":1551901600430,"finger_time":1551901600049,"fix_duration":1052.268929579702,"trial":11,"RT":645,"MT":381,"sideResp":2,"stimulus":"img/500/equaldotanddens/R/14_Ratio_500_L_5_R_10.png","xmouse":[814,814,814,814,814,814,814,814,814,814,814,814,814,814,814,814,814,814,814,814,814,814,814,814,814,814,814,814,814,814,815,821,826,831,836,841,845,856,867,886,903,954,971,984,996,1007,1023,1030,1035,1042,1048,1064],"ymouse":[500,500,500,500,500,500,500,500,500,500,500,500,500,500,500,500,500,500,500,500,500,500,500,500,500,500,500,500,500,500,497,476,463,452,440,430,420,401,385,361,341,273,251,231,211,193,158,142,129,114,98,60],"timestamp_mouse":[8,26,45,67,86,106,125,145,166,186,206,226,247,265,286,306,326,346,365,385,405,425,447,466,486,506,525,545,566,585,605,625,645,665,685,706,726,746,766,787,807,826,847,867,886,906,926,945,965,985,1006,1026],"xSR":741.5,"ySR":469.95,"xT1":424.9,"yT1":0,"xT2":1058.1,"yT2":0,"toosoon":0,"cond_shown":"equaldotanddens","ratio_trial":500,"smaller_num":"5","larger_num":"10","correct_side":2,"subjID":"DairaJuanitaRodriguezRamirez5","gender":"1","age":"11","school":"6"},{"start_time":1551901602757,"click_time":1551901603732,"finger_time":1551901603450,"fix_duration":1126.072902198456,"trial":12,"RT":693,"MT":282,"sideResp":1,"stimulus":"img/500/equaldotanddens/L/11_Ratio_500_L_12_R_6.png","xmouse":[797,797,797,797,797,797,797,797,797,797,797,797,798,798,798,798,798,798,798,798,798,798,798,798,798,798,798,798,798,798,799,799,796,785,754,744,732,721,691,669,648,632,615,588,560,529,501,482,471],"ymouse":[535,535,535,535,535,535,535,535,535,535,535,535,535,535,535,535,535,535,535,535,535,535,535,535,535,535,535,535,535,535,535,534,526,487,430,407,386,366,330,310,295,282,262,226,194,161,128,103,76],"timestamp_mouse":[17,35,53,73,92,112,134,153,173,192,212,232,254,273,294,313,333,353,373,393,413,433,453,474,493,512,532,552,574,593,613,633,652,673,693,712,732,752,774,792,813,832,853,874,892,912,932,953,975],"xSR":741.5,"ySR":469.95,"xT1":424.9,"yT1":0,"xT2":1058.1,"yT2":0,"toosoon":0,"cond_shown":"equaldotanddens","ratio_trial":500,"smaller_num":"6","larger_num":"12","correct_side":1,"subjID":"DairaJuanitaRodriguezRamirez5","gender":"1","age":"11","school":"6"},{"start_time":1551901615623,"click_time":1551901616772,"finger_time":1551901616491,"fix_duration":250,"trial":13,"RT":868,"MT":281,"sideResp":2,"stimulus":"img/250/randomdotsizeEA/R/10_Ratio_250_L_4_R_16.png","xmouse":[785,785,785,785,785,785,785,785,785,785,785,785,785,785,785,785,785,785,785,785,785,785,785,785,785,785,785,785,785,785,785,785,785,785,785,785,785,785,785,785,785,785,795,814,837,872,907,956,972,979,985,992,1011,1025,1040,1053,1071,1111],"ymouse":[520,520,520,520,520,520,520,520,520,520,520,520,520,520,520,520,520,520,520,520,520,520,520,520,520,520,520,520,520,520,520,520,520,520,520,520,520,520,520,520,520,520,499,456,411,350,289,208,187,177,171,165,156,150,141,131,113,58],"timestamp_mouse":[12,28,48,67,87,109,127,149,168,187,207,228,248,268,288,308,329,347,367,387,407,428,449,468,488,508,528,547,568,588,608,627,647,669,689,709,728,748,768,789,808,827,847,867,888,907,928,948,969,989,1008,1027,1048,1069,1088,1108,1128,1149],"xSR":741.5,"ySR":469.95,"xT1":424.9,"yT1":0,"xT2":1058.1,"yT2":0,"toosoon":0,"cond_shown":"randomdotsizeEA","ratio_trial":250,"smaller_num":"4","larger_num":"16","correct_side":2,"subjID":"DairaJuanitaRodriguezRamirez5","gender":"1","age":"11","school":"6"},{"start_time":1551901618262,"click_time":1551901619612,"finger_time":1551901619171,"fix_duration":250,"trial":14,"RT":909,"MT":441,"sideResp":1,"stimulus":"img/900/equaldotanddens/L/8_Ratio_900_L_20_R_18.png","xmouse":[816,816,816,816,816,816,816,816,816,816,816,816,816,816,816,816,816,816,816,816,816,816,816,816,816,816,816,816,816,816,816,816,816,816,816,816,816,816,816,816,816,816,816,808,778,638,599,571,564,560,553,549,547,543,541,539,538,537,530,514,490,486,482,479,475,473,471,471],"ymouse":[511,511,511,511,511,511,511,511,511,511,511,511,511,511,511,511,511,511,511,511,511,511,511,511,511,511,511,511,511,511,511,511,511,511,511,511,511,511,511,511,511,511,511,508,478,369,332,307,293,286,269,261,252,240,229,214,207,200,183,163,133,128,119,113,107,105,100,96],"timestamp_mouse":[11,36,48,69,89,109,128,148,170,189,208,229,248,270,289,309,329,349,369,389,409,428,448,470,489,510,529,548,568,589,609,629,650,669,689,708,728,748,769,789,809,829,849,869,889,909,928,949,970,989,1010,1029,1048,1069,1089,1109,1128,1148,1168,1189,1209,1230,1249,1269,1289,1308,1330,1350],"xSR":741.5,"ySR":469.95,"xT1":424.9,"yT1":0,"xT2":1058.1,"yT2":0,"toosoon":0,"cond_shown":"equaldotanddens","ratio_trial":900,"smaller_num":"18","larger_num":"20","correct_side":1,"subjID":"DairaJuanitaRodriguezRamirez5","gender":"1","age":"11","school":"6"},{"start_time":1551901621164,"click_time":1551901622291,"finger_time":1551901622170,"fix_duration":632.8052373209365,"trial":15,"RT":1006,"MT":121,"sideResp":1,"stimulus":"img/750/equaldotsize/L/6_Ratio_750_L_24_R_18.png","xmouse":[809,809,809,809,809,809,809,809,809,809,809,809,809,809,809,809,809,809,809,809,809,809,809,809,809,809,809,809,809,809,809,809,809,809,809,809,809,809,809,809,809,809,809,810,810,810,810,810,808,802,788,755,697,647,591,540,474],"ymouse":[534,534,534,534,534,534,534,534,534,534,534,534,534,534,534,534,534,534,534,534,534,534,534,534,534,534,534,534,534,534,534,534,534,534,534,534,534,534,534,534,534,534,534,534,534,534,534,534,516,496,464,383,280,197,132,75,7],"timestamp_mouse":[17,37,46,66,88,108,126,146,166,186,208,227,247,267,286,306,326,346,367,387,406,427,447,467,487,506,526,546,567,587,607,627,647,667,687,708,726,747,767,786,807,827,847,867,886,908,928,947,967,987,1006,1026,1046,1067,1086,1106,1126],"xSR":741.5,"ySR":469.95,"xT1":424.9,"yT1":0,"xT2":1058.1,"yT2":0,"toosoon":0,"cond_shown":"equaldotsize","ratio_trial":750,"smaller_num":"18","larger_num":"24","correct_side":1,"subjID":"DairaJuanitaRodriguezRamirez5","gender":"1","age":"11","school":"6"},{"start_time":1551901624344,"click_time":1551901625291,"finger_time":1551901624991,"fix_duration":910.0667095729837,"trial":16,"RT":647,"MT":300,"sideResp":2,"stimulus":"img/750/equaldotanddens/R/11_Ratio_750_L_12_R_16.png","xmouse":[786,786,786,786,786,786,786,786,786,786,786,786,786,786,786,786,786,786,786,786,786,786,786,786,786,786,786,786,786,786,786,786,854,888,915,938,963,989,991,993,995,996,999,1002,1008,1020,1038,1068],"ymouse":[490,490,490,490,490,490,490,490,490,490,490,490,490,490,490,490,490,490,490,490,490,490,490,490,490,490,490,490,490,490,488,475,371,331,292,252,207,136,119,107,101,98,93,90,89,88,86,86],"timestamp_mouse":[11,33,47,67,88,106,127,146,167,187,206,227,247,267,288,307,327,347,367,388,406,426,448,467,487,507,526,546,567,587,607,627,647,667,687,707,726,747,768,787,808,827,847,868,887,907,926,947],"xSR":741.5,"ySR":469.95,"xT1":424.9,"yT1":0,"xT2":1058.1,"yT2":0,"toosoon":0,"cond_shown":"equaldotanddens","ratio_trial":750,"smaller_num":"12","larger_num":"16","correct_side":2,"subjID":"DairaJuanitaRodriguezRamirez5","gender":"1","age":"11","school":"6"},{"start_time":1551901626769,"click_time":1551901627751,"finger_time":1551901627431,"fix_duration":577.8162308512859,"trial":17,"RT":662,"MT":320,"sideResp":2,"stimulus":"img/250/equaldotsize/R/10_Ratio_250_L_4_R_16.png","xmouse":[817,817,817,817,817,817,817,817,817,817,817,817,817,817,817,817,817,817,817,817,817,817,817,817,817,817,817,817,817,817,817,817,822,834,845,860,915,946,977,1004,1031,1058,1074,1077,1080,1082,1089,1094,1097,1100],"ymouse":[488,488,488,488,488,488,488,488,488,488,488,488,488,488,488,488,488,488,488,488,488,488,488,488,488,488,488,488,488,488,488,488,479,462,450,435,377,342,311,281,249,218,191,183,174,166,142,124,109,92],"timestamp_mouse":[8,21,42,61,82,102,122,142,162,181,201,222,242,263,281,302,322,341,361,381,402,422,442,462,482,501,522,541,562,582,601,622,642,662,681,701,722,742,762,783,801,821,841,862,882,903,923,942,961,981],"xSR":741.5,"ySR":469.95,"xT1":424.9,"yT1":0,"xT2":1058.1,"yT2":0,"toosoon":0,"cond_shown":"equaldotsize","ratio_trial":250,"smaller_num":"4","larger_num":"16","correct_side":2,"subjID":"DairaJuanitaRodriguezRamirez5","gender":"1","age":"11","school":"6"},{"start_time":1551901632522,"click_time":1551901634271,"finger_time":1551901633451,"fix_duration":250,"trial":18,"RT":929,"MT":820,"sideResp":2,"stimulus":"img/900/randomdotsizeEA/R/14_Ratio_900_L_18_R_20.png","xmouse":[784,785,785,785,785,785,785,785,785,785,785,785,785,785,785,785,785,785,785,785,785,785,785,785,785,785,785,785,785,785,785,785,785,785,785,785,785,785,785,785,785,785,785,785,786,815,881,934,976,1033,1043,1048,1050,1052,1053,1053,1053,1053,1053,1058,1066,1071,1073,1073,1073,1073,1074,1074,1074,1074,1074,1075,1075,1075,1076,1077,1077,1077,1078,1078,1078,1079,1079,1079,1079,1081,1085,1092],"ymouse":[515,515,515,515,515,515,515,515,515,515,515,515,515,515,515,515,515,515,515,515,515,515,515,515,515,515,515,515,515,515,515,515,515,515,515,515,515,515,515,515,515,515,515,515,514,488,443,402,344,218,197,191,189,189,189,189,189,189,189,189,187,185,183,182,181,178,174,173,173,173,173,172,172,171,161,141,136,131,124,122,120,119,119,119,116,109,100,86],"timestamp_mouse":[13,32,49,68,88,108,129,149,169,190,208,229,250,269,288,308,328,349,369,388,408,428,449,469,490,508,528,549,569,590,608,628,648,668,690,709,729,749,768,788,808,830,849,869,889,910,929,949,970,989,1009,1029,1050,1068,1090,1109,1128,1149,1170,1190,1210,1229,1248,1268,1289,1308,1328,1349,1368,1388,1408,1428,1449,1468,1488,1510,1529,1549,1568,1589,1609,1628,1648,1669,1689,1710,1729,1749],"xSR":741.5,"ySR":469.95,"xT1":424.9,"yT1":0,"xT2":1058.1,"yT2":0,"toosoon":0,"cond_shown":"randomdotsizeEA","ratio_trial":900,"smaller_num":"18","larger_num":"20","correct_side":2,"subjID":"DairaJuanitaRodriguezRamirez5","gender":"1","age":"11","school":"6"},{"start_time":1551901637003,"click_time":1551901637931,"finger_time":1551901637691,"fix_duration":910.3970342855413,"trial":19,"RT":688,"MT":240,"sideResp":2,"stimulus":"img/250/equaldotanddens/R/13_Ratio_250_L_2_R_8.png","xmouse":[803,803,803,803,803,803,803,803,803,803,803,803,803,803,803,803,803,803,803,803,803,803,803,803,803,803,803,803,803,806,822,833,836,841,852,890,909,928,945,959,974,979,994,1012,1032,1060,1108],"ymouse":[537,537,537,536,536,536,536,533,531,530,527,527,527,527,527,527,527,527,527,527,527,527,527,527,527,527,527,527,527,523,514,506,501,482,464,413,381,333,278,229,186,179,166,153,138,119,82],"timestamp_mouse":[12,33,48,68,88,108,128,148,168,188,208,227,247,267,289,308,327,347,368,387,409,428,448,468,487,508,528,549,567,587,608,628,648,668,688,708,728,747,767,788,808,828,848,868,889,907,928],"xSR":741.5,"ySR":469.95,"xT1":424.9,"yT1":0,"xT2":1058.1,"yT2":0,"toosoon":0,"cond_shown":"equaldotanddens","ratio_trial":250,"smaller_num":"2","larger_num":"8","correct_side":2,"subjID":"DairaJuanitaRodriguezRamirez5","gender":"1","age":"11","school":"6"},{"start_time":1551901640631,"click_time":1551901641752,"finger_time":1551901641351,"fix_duration":879.5719478899665,"trial":20,"RT":720,"MT":401,"sideResp":1,"stimulus":"img/750/equaldotanddens/L/1_Ratio_750_L_20_R_15.png","xmouse":[778,778,778,778,778,778,778,778,778,778,778,778,779,779,780,780,780,780,780,780,780,780,780,780,780,780,781,781,781,781,781,781,781,781,781,780,778,773,768,760,739,730,724,718,712,699,681,650,616,577,525,509,505,503,500,489,481],"ymouse":[490,490,490,490,490,489,489,489,489,489,489,489,489,489,488,488,488,488,487,487,487,487,487,487,487,487,486,486,486,486,485,484,483,481,479,473,467,456,446,430,391,378,370,364,358,347,331,305,270,230,180,155,147,138,128,104,91],"timestamp_mouse":[1,28,39,60,79,100,119,139,159,179,201,220,240,260,281,300,319,340,359,381,399,420,440,459,479,501,519,541,560,581,599,619,640,659,679,699,720,740,760,781,799,820,841,860,879,900,921,940,959,979,999,1020,1040,1060,1081,1100,1121],"xSR":741.5,"ySR":469.95,"xT1":424.9,"yT1":0,"xT2":1058.1,"yT2":0,"toosoon":0,"cond_shown":"equaldotanddens","ratio_trial":750,"smaller_num":"15","larger_num":"20","correct_side":1,"subjID":"DairaJuanitaRodriguezRamirez5","gender":"1","age":"11","school":"6"},{"start_time":1551901643769,"click_time":1551901645092,"finger_time":1551901644451,"fix_duration":837.7750505839159,"trial":21,"RT":682,"MT":641,"sideResp":2,"stimulus":"img/900/randomdotsizeEA/L/1_Ratio_900_L_10_R_9.png","xmouse":[789,789,790,791,792,792,792,792,792,792,792,792,792,792,792,792,792,792,792,792,792,792,792,792,792,792,792,793,803,805,807,809,811,818,829,843,863,896,1066,1164,1234,1267,1275,1278,1279,1282,1283,1285,1285,1283,1276,1266,1258,1231,1215,1197,1184,1180,1179,1179,1179,1179,1179,1177,1172,1163,1153],"ymouse":[522,522,521,520,519,519,519,519,518,515,512,510,510,510,510,510,510,510,510,510,510,510,510,510,510,508,506,503,490,489,488,487,485,478,468,457,439,411,277,203,149,122,114,108,106,99,86,70,36,24,14,10,10,26,37,51,59,62,62,62,62,62,62,62,62,62,62],"timestamp_mouse":[12,24,42,62,81,102,123,141,162,181,201,222,242,261,281,301,321,342,363,382,401,421,442,462,482,502,523,541,562,581,602,621,642,662,682,702,722,742,762,783,802,821,842,862,881,902,922,942,962,982,1003,1022,1043,1062,1081,1101,1122,1142,1162,1182,1201,1223,1242,1262,1281,1301,1322],"xSR":741.5,"ySR":469.95,"xT1":424.9,"yT1":0,"xT2":1058.1,"yT2":0,"toosoon":0,"cond_shown":"randomdotsizeEA","ratio_trial":900,"smaller_num":"9","larger_num":"10","correct_side":1,"subjID":"DairaJuanitaRodriguezRamirez5","gender":"1","age":"11","school":"6"},{"start_time":1551901646851,"click_time":1551901647791,"finger_time":1551901647492,"fix_duration":1039.4278160601034,"trial":22,"RT":641,"MT":299,"sideResp":2,"stimulus":"img/250/equaldotanddens/R/6_Ratio_250_L_6_R_24.png","xmouse":[770,770,770,770,770,770,770,769,768,768,768,768,768,768,768,768,768,768,768,768,768,768,768,768,769,769,770,774,777,781,794,809,837,872,911,919,929,953,971,1004,1016,1023,1032,1041,1060,1071,1075,1076],"ymouse":[503,502,502,502,502,502,501,502,502,502,502,502,502,502,502,502,502,502,502,502,502,502,502,502,501,501,500,497,496,492,483,473,453,434,402,391,375,347,325,281,262,247,227,207,160,124,102,88],"timestamp_mouse":[1,21,46,60,81,100,120,139,160,180,201,219,240,260,279,300,320,340,360,379,399,420,439,460,481,500,519,539,559,580,600,620,641,660,681,699,720,739,759,781,799,820,841,860,881,899,921,940],"xSR":741.5,"ySR":469.95,"xT1":424.9,"yT1":0,"xT2":1058.1,"yT2":0,"toosoon":0,"cond_shown":"equaldotanddens","ratio_trial":250,"smaller_num":"6","larger_num":"24","correct_side":2,"subjID":"DairaJuanitaRodriguezRamirez5","gender":"1","age":"11","school":"6"},{"start_time":1551901650244,"click_time":1551901651470,"finger_time":1551901650951,"fix_duration":1170.801753393065,"trial":23,"RT":707,"MT":519,"sideResp":1,"stimulus":"img/900/randomdotsizeEA/L/1_Ratio_900_L_10_R_9.png","xmouse":[785,785,785,785,785,785,785,785,785,785,785,785,785,785,785,785,785,785,785,785,785,785,785,785,785,785,785,785,785,785,785,785,785,785,782,766,754,743,739,737,732,727,716,697,669,594,580,570,562,557,551,551,551,551,550,547,544,539,535,531,528,522],"ymouse":[500,500,500,500,500,500,500,500,500,500,501,501,501,501,501,501,501,501,501,501,501,501,501,501,501,501,501,501,501,501,501,500,500,500,488,428,406,386,378,374,367,356,337,318,288,235,225,218,213,211,210,210,210,210,210,191,173,157,145,128,97,79],"timestamp_mouse":[12,26,46,66,87,108,127,146,167,187,206,226,246,266,287,307,326,348,366,386,406,426,446,466,487,507,528,546,568,587,607,626,646,667,687,707,726,746,766,787,806,828,847,867,887,907,928,947,968,987,1006,1027,1047,1066,1087,1107,1127,1147,1167,1187,1207,1226],"xSR":741.5,"ySR":469.95,"xT1":424.9,"yT1":0,"xT2":1058.1,"yT2":0,"toosoon":0,"cond_shown":"randomdotsizeEA","ratio_trial":900,"smaller_num":"9","larger_num":"10","correct_side":1,"subjID":"DairaJuanitaRodriguezRamirez5","gender":"1","age":"11","school":"6"},{"start_time":1551901654828,"click_time":1551901655991,"finger_time":1551901655410,"fix_duration":897.4897590042823,"trial":24,"RT":582,"MT":581,"sideResp":2,"stimulus":"img/750/equaldotanddens/R/2_Ratio_750_L_6_R_8.png","xmouse":[806,806,806,806,806,806,806,806,806,806,806,806,806,806,806,806,806,806,806,806,806,806,806,806,809,809,812,821,825,831,841,860,899,905,910,914,921,925,931,945,962,1022,1055,1073,1084,1090,1096,1100,1104,1108,1111,1114,1116,1117,1117,1117,1119,1119,1122],"ymouse":[503,503,503,503,503,503,503,503,503,503,503,503,503,503,503,503,503,503,503,503,503,503,503,502,498,497,493,480,472,462,449,429,394,387,381,375,367,362,355,340,324,284,270,259,248,239,225,215,208,196,186,164,155,148,137,130,113,106,95],"timestamp_mouse":[12,34,43,62,82,104,123,143,163,182,203,223,243,262,283,303,323,344,362,384,403,422,443,462,483,502,523,543,562,582,603,623,643,664,684,703,724,742,762,782,804,825,842,863,884,903,924,943,963,984,1002,1024,1042,1063,1083,1102,1124,1142,1163],"xSR":741.5,"ySR":469.95,"xT1":424.9,"yT1":0,"xT2":1058.1,"yT2":0,"toosoon":0,"cond_shown":"equaldotanddens","ratio_trial":750,"smaller_num":"6","larger_num":"8","correct_side":2,"subjID":"DairaJuanitaRodriguezRamirez5","gender":"1","age":"11","school":"6"},{"start_time":1551901663282,"click_time":1551901665991,"finger_time":1551901664572,"fix_duration":250,"trial":25,"RT":1290,"MT":1419,"sideResp":2,"stimulus":"img/250/equaldotsize/L/15_Ratio_250_L_12_R_3.png","xmouse":[801,801,801,801,801,801,801,800,800,800,800,800,800,800,800,800,800,800,800,800,800,800,800,800,800,800,800,800,800,800,800,800,800,800,800,801,802,806,807,809,810,810,810,812,813,814,814,814,814,814,814,814,814,814,814,814,814,814,814,814,812,801,782,757,713,706,703,701,701,701,701,701,701,702,707,745,762,765,765,765,769,772,777,779,780,781,781,781,781,781,781,781,781,781,781,781,781,781,781,781,781,781,781,782,782,782,782,782,782,782,783,785,788,789,789,789,789,789,789,789,789,789,789,792,803,813,818,824,830,845,943,1007,1063,1091,1101,1110],"ymouse":[511,511,511,511,510,509,508,508,508,508,508,508,508,508,508,508,508,508,508,508,508,508,508,508,508,508,508,508,508,508,508,508,508,508,508,508,508,510,510,511,511,511,511,512,513,513,513,513,513,513,513,513,513,513,513,513,513,513,513,513,513,503,493,490,491,495,499,502,502,502,502,502,502,504,508,531,538,538,538,538,536,533,529,526,524,523,523,523,522,522,522,522,522,522,522,522,522,522,522,522,522,522,522,521,521,521,521,521,521,521,521,518,513,508,506,506,506,506,506,506,506,506,506,502,486,472,464,453,437,413,288,218,154,117,100,82],"timestamp_mouse":[9,29,49,69,89,110,129,150,169,189,209,228,249,269,289,308,328,349,369,389,409,428,450,469,489,508,529,549,569,589,610,629,649,668,690,709,729,749,769,789,809,829,848,877,888,908,929,948,970,989,1008,1029,1050,1068,1088,1108,1130,1149,1168,1189,1209,1228,1248,1268,1290,1309,1328,1348,1370,1390,1409,1429,1449,1469,1490,1509,1530,1549,1568,1588,1608,1629,1649,1670,1689,1709,1729,1749,1768,1789,1809,1829,1849,1869,1888,1909,1929,1949,1969,1988,2008,2029,2048,2069,2089,2108,2128,2149,2169,2188,2209,2228,2249,2268,2288,2310,2329,2349,2369,2388,2410,2429,2450,2469,2490,2508,2529,2549,2569,2588,2608,2630,2649,2669,2688,2709],"xSR":741.5,"ySR":469.95,"xT1":424.9,"yT1":0,"xT2":1058.1,"yT2":0,"toosoon":0,"cond_shown":"equaldotsize","ratio_trial":250,"smaller_num":"3","larger_num":"12","correct_side":1,"subjID":"DairaJuanitaRodriguezRamirez5","gender":"1","age":"11","school":"6"},{"start_time":1551901670445,"click_time":1551901671831,"finger_time":1551901671270,"fix_duration":570.0092832562582,"trial":26,"RT":825,"MT":561,"sideResp":1,"stimulus":"img/750/equaldotsize/L/14_Ratio_750_L_8_R_6.png","xmouse":[767,767,767,767,767,767,767,767,767,767,767,767,767,767,767,767,767,767,767,767,767,767,767,767,767,767,767,767,767,767,767,767,767,767,767,767,767,767,764,763,761,755,742,736,729,722,717,698,692,685,681,676,652,634,612,593,588,585,585,585,585,585,583,583,583,580,572,544,531,523],"ymouse":[521,521,521,521,521,521,521,521,521,521,521,521,521,521,521,521,521,521,521,521,521,521,521,521,521,521,521,521,521,521,521,521,521,521,521,521,520,517,497,488,472,448,407,387,370,358,348,323,313,305,295,283,246,223,196,174,166,155,152,149,147,142,132,131,130,124,117,108,104,99],"timestamp_mouse":[11,27,46,65,87,106,127,146,166,186,205,226,245,266,287,306,325,345,365,386,406,425,445,466,486,505,525,546,566,586,605,625,645,667,686,706,725,745,766,785,806,825,846,865,887,906,926,946,965,986,1006,1026,1047,1065,1086,1106,1126,1146,1167,1187,1206,1226,1246,1267,1285,1306,1325,1346,1366,1386],"xSR":741.5,"ySR":469.95,"xT1":424.9,"yT1":0,"xT2":1058.1,"yT2":0,"toosoon":0,"cond_shown":"equaldotsize","ratio_trial":750,"smaller_num":"6","larger_num":"8","correct_side":1,"subjID":"DairaJuanitaRodriguezRamirez5","gender":"1","age":"11","school":"6"},{"start_time":1551901673237,"click_time":1551901674992,"finger_time":1551901673950,"fix_duration":285.4796713830794,"trial":27,"RT":713,"MT":1042,"sideResp":1,"stimulus":"img/250/equaldotanddens/L/2_Ratio_250_L_16_R_4.png","xmouse":[770,770,770,770,770,770,770,771,771,771,771,771,771,771,771,773,773,773,773,773,774,774,774,774,774,774,774,774,774,774,774,774,769,763,759,722,655,596,547,536,532,530,530,529,527,525,523,523,523,523,527,530,535,536,536,537,537,537,537,537,537,537,537,537,538,531,516,503,497,497,497,497,497,497,497,496,496,496,496,496,496,496,496,500,500,501,502,502],"ymouse":[499,499,499,499,499,499,499,499,499,499,499,499,499,499,499,497,497,497,497,497,496,496,496,496,496,496,496,496,496,496,496,495,489,480,475,423,354,307,246,225,215,207,205,200,185,171,159,151,130,122,115,106,91,82,81,77,77,76,76,76,76,76,76,76,76,89,103,112,117,117,117,117,117,117,117,117,117,117,117,117,117,114,114,107,104,102,100,98],"timestamp_mouse":[13,33,55,74,95,113,134,154,175,194,214,233,253,273,295,314,333,355,374,394,413,434,455,475,493,514,534,554,574,593,613,633,655,674,694,713,733,754,774,794,813,834,853,873,894,914,934,953,973,995,1014,1034,1056,1074,1094,1113,1135,1153,1173,1194,1214,1233,1253,1273,1294,1313,1333,1353,1374,1393,1413,1433,1454,1473,1495,1514,1533,1553,1574,1593,1613,1633,1653,1673,1693,1713,1735,1754],"xSR":741.5,"ySR":469.95,"xT1":424.9,"yT1":0,"xT2":1058.1,"yT2":0,"toosoon":0,"cond_shown":"equaldotanddens","ratio_trial":250,"smaller_num":"4","larger_num":"16","correct_side":1,"subjID":"DairaJuanitaRodriguezRamirez5","gender":"1","age":"11","school":"6"},{"start_time":1551901676627,"click_time":1551901678231,"finger_time":1551901677131,"fix_duration":634.5568730524402,"trial":28,"RT":504,"MT":1100,"sideResp":2,"stimulus":"img/750/randomdotsizeEA/R/4_Ratio_750_L_15_R_20.png","xmouse":[777,777,777,777,777,777,777,777,777,777,777,777,777,777,777,777,777,777,777,777,777,777,777,777,780,782,785,790,796,802,817,825,836,860,998,1080,1131,1151,1160,1172,1178,1182,1188,1191,1192,1192,1192,1192,1192,1192,1192,1192,1192,1192,1192,1192,1192,1192,1192,1192,1192,1192,1192,1192,1169,1162,1161,1161,1161,1161,1161,1161,1161,1161,1161,1161,1161,1161,1161,1160,1150],"ymouse":[483,483,483,483,483,483,483,483,483,483,483,483,483,483,483,483,483,480,479,479,479,479,479,479,475,466,461,450,439,427,402,388,375,347,250,202,173,157,148,128,120,114,105,100,97,97,97,97,97,97,97,97,97,97,97,97,97,97,97,97,97,97,97,96,91,90,90,90,90,89,89,89,89,89,89,89,89,89,89,89,87],"timestamp_mouse":[9,24,46,64,84,104,126,144,165,184,204,224,244,266,284,306,324,344,364,385,404,424,444,464,484,504,525,544,564,584,604,625,645,665,684,704,724,744,764,785,805,824,845,864,884,904,924,944,964,985,1004,1024,1045,1064,1085,1106,1125,1144,1164,1185,1204,1224,1244,1265,1284,1305,1325,1344,1364,1385,1404,1424,1444,1464,1484,1505,1524,1544,1564,1585,1604],"xSR":741.5,"ySR":469.95,"xT1":424.9,"yT1":0,"xT2":1058.1,"yT2":0,"toosoon":0,"cond_shown":"randomdotsizeEA","ratio_trial":750,"smaller_num":"15","larger_num":"20","correct_side":2,"subjID":"DairaJuanitaRodriguezRamirez5","gender":"1","age":"11","school":"6"},{"start_time":1551901680062,"click_time":1551901681251,"finger_time":1551901680871,"fix_duration":928.8680719529218,"trial":29,"RT":809,"MT":380,"sideResp":1,"stimulus":"img/900/equaldotsize/L/10_Ratio_900_L_20_R_18.png","xmouse":[800,800,800,800,800,800,800,800,800,800,800,800,800,800,800,800,800,800,800,800,800,800,800,800,800,800,800,800,800,800,800,800,800,800,796,792,786,782,776,775,772,771,758,745,726,704,683,664,664,662,661,658,653,650,647,643,636,596,538,500],"ymouse":[502,502,502,502,502,502,502,502,502,502,502,502,502,502,503,503,503,503,503,503,503,503,503,503,503,503,503,503,503,503,503,503,503,503,501,497,494,490,484,480,466,455,411,380,344,307,270,226,210,183,176,157,134,125,119,112,106,92,81,76],"timestamp_mouse":[11,29,49,69,89,109,129,150,169,189,209,229,249,270,289,309,329,349,369,389,409,429,449,471,490,509,530,549,569,590,610,631,650,669,689,710,729,749,769,789,809,829,850,869,889,910,930,950,969,989,1010,1030,1050,1069,1090,1110,1129,1151,1169,1189],"xSR":741.5,"ySR":469.95,"xT1":424.9,"yT1":0,"xT2":1058.1,"yT2":0,"toosoon":0,"cond_shown":"equaldotsize","ratio_trial":900,"smaller_num":"18","larger_num":"20","correct_side":1,"subjID":"DairaJuanitaRodriguezRamirez5","gender":"1","age":"11","school":"6"},{"start_time":1551901683571,"click_time":1551901684832,"finger_time":1551901684331,"fix_duration":977.7811160897094,"trial":30,"RT":760,"MT":501,"sideResp":2,"stimulus":"img/750/equaldotsize/R/12_Ratio_750_L_3_R_4.png","xmouse":[815,815,815,815,815,815,815,815,815,815,815,815,815,815,815,815,815,815,815,815,815,815,815,815,815,815,815,815,814,811,810,809,808,808,808,808,808,813,956,1007,1041,1062,1075,1089,1096,1102,1106,1108,1111,1111,1111,1111,1111,1111,1111,1111,1111,1111,1113,1114,1115,1115,1115,1117],"ymouse":[529,529,529,529,529,529,529,529,529,529,529,529,529,529,529,529,529,529,529,529,529,529,529,529,529,529,529,529,528,527,526,526,526,526,526,526,525,520,400,360,332,310,289,254,228,208,196,187,177,174,173,173,173,166,162,156,151,145,131,125,119,112,105,96],"timestamp_mouse":[9,20,40,60,80,101,120,140,161,180,201,220,240,260,280,300,320,340,360,380,401,421,440,460,480,500,520,540,560,580,600,620,641,660,681,701,720,740,760,781,800,821,840,861,881,900,920,941,960,981,1001,1021,1040,1061,1080,1100,1120,1140,1160,1180,1200,1220,1241,1261],"xSR":741.5,"ySR":469.95,"xT1":424.9,"yT1":0,"xT2":1058.1,"yT2":0,"toosoon":0,"cond_shown":"equaldotsize","ratio_trial":750,"smaller_num":"3","larger_num":"4","correct_side":2,"subjID":"DairaJuanitaRodriguezRamirez5","gender":"1","age":"11","school":"6"},{"start_time":1551901687073,"click_time":1551901688251,"finger_time":1551901687731,"fix_duration":1260.7310298708924,"trial":31,"RT":658,"MT":520,"sideResp":2,"stimulus":"img/750/equaldotsize/R/12_Ratio_750_L_3_R_4.png","xmouse":[784,784,784,784,784,784,784,784,784,784,784,785,786,786,786,786,786,787,787,787,787,787,787,787,787,787,787,788,788,789,797,814,851,871,890,911,955,988,1036,1050,1062,1070,1076,1085,1088,1093,1097,1102,1105,1107,1109,1110,1112,1116,1117,1118,1124,1126,1134],"ymouse":[492,492,492,492,492,492,492,492,492,492,492,492,492,492,492,492,492,493,493,493,493,493,493,493,493,493,493,493,493,493,492,475,438,416,399,381,346,322,284,271,256,244,235,216,209,195,187,176,163,156,150,146,141,128,123,119,108,102,87],"timestamp_mouse":[18,38,58,78,98,118,138,158,178,198,218,238,258,279,298,318,338,358,378,399,418,438,458,478,498,518,538,559,578,598,618,638,658,678,698,719,738,759,778,798,818,838,858,878,899,918,938,958,978,998,1018,1039,1059,1078,1099,1118,1138,1158,1178],"xSR":741.5,"ySR":469.95,"xT1":424.9,"yT1":0,"xT2":1058.1,"yT2":0,"toosoon":0,"cond_shown":"equaldotsize","ratio_trial":750,"smaller_num":"3","larger_num":"4","correct_side":2,"subjID":"DairaJuanitaRodriguezRamirez5","gender":"1","age":"11","school":"6"},{"start_time":1551901689401,"click_time":1551901690791,"finger_time":1551901690291,"fix_duration":368.240173331285,"trial":32,"RT":890,"MT":500,"sideResp":2,"stimulus":"img/250/equaldotsize/R/4_Ratio_250_L_3_R_12.png","xmouse":[760,760,760,760,760,760,760,760,760,760,760,760,760,760,760,760,760,760,760,760,760,760,760,760,760,760,760,760,760,760,760,760,760,760,760,760,760,760,762,783,803,820,827,835,843,851,878,893,910,927,952,976,989,999,1005,1011,1016,1020,1023,1026,1027,1030,1031,1031,1033,1035,1039,1048,1058,1066],"ymouse":[548,548,548,548,548,548,548,548,548,548,548,548,548,548,548,548,548,548,548,548,548,548,548,548,548,548,548,548,548,548,548,548,548,548,548,548,548,548,548,524,499,483,477,471,463,455,425,408,387,365,336,306,289,274,260,247,231,211,201,192,186,177,172,167,162,157,149,126,104,85],"timestamp_mouse":[10,32,50,70,90,111,131,150,170,190,210,230,251,270,291,310,331,350,370,391,411,430,450,470,490,510,530,550,570,590,610,630,650,671,690,710,731,750,771,790,810,831,851,870,890,910,931,950,971,990,1011,1031,1050,1070,1090,1110,1131,1150,1171,1190,1210,1232,1250,1271,1290,1310,1331,1350,1371,1390],"xSR":741.5,"ySR":469.95,"xT1":424.9,"yT1":0,"xT2":1058.1,"yT2":0,"toosoon":0,"cond_shown":"equaldotsize","ratio_trial":250,"smaller_num":"3","larger_num":"12","correct_side":2,"subjID":"DairaJuanitaRodriguezRamirez5","gender":"1","age":"11","school":"6"},{"start_time":1551901698174,"click_time":1551901698873,"finger_time":1551901698691,"fix_duration":921.0399012722378,"trial":33,"RT":517,"MT":182,"sideResp":2,"stimulus":"img/900/randomdotsizeEA/R/14_Ratio_900_L_18_R_20.png","xmouse":[807,807,807,807,807,807,807,807,807,807,807,807,807,807,806,805,805,805,805,805,805,805,805,805,804,806,816,831,872,892,907,928,957,998,1097],"ymouse":[518,518,518,518,518,518,518,518,518,518,518,518,518,518,517,517,517,517,517,517,517,517,517,517,494,461,435,406,332,302,275,244,203,152,68],"timestamp_mouse":[17,38,57,77,97,118,137,158,177,197,217,237,257,277,297,317,337,357,377,397,417,437,458,477,497,517,537,557,578,597,617,638,657,678,698],"xSR":741.5,"ySR":469.95,"xT1":424.9,"yT1":0,"xT2":1058.1,"yT2":0,"toosoon":0,"cond_shown":"randomdotsizeEA","ratio_trial":900,"smaller_num":"18","larger_num":"20","correct_side":2,"subjID":"DairaJuanitaRodriguezRamirez5","gender":"1","age":"11","school":"6"},{"start_time":1551901703229,"click_time":1551901704231,"finger_time":1551901703632,"fix_duration":996.2168441339352,"trial":34,"RT":403,"MT":599,"sideResp":2,"stimulus":"img/900/equaldotanddens/R/6_Ratio_900_L_9_R_10.png","xmouse":[787,787,787,787,787,787,787,787,787,787,787,787,787,787,787,787,787,787,787,786,786,784,784,784,784,784,784,784,784,784,784,784,784,784,784,784,784,784,794,812,828,860,913,931,950,968,986,1021,1040,1053,1062],"ymouse":[533,533,533,533,533,533,533,533,533,533,533,533,533,533,533,533,533,533,532,519,458,444,444,443,443,443,443,443,443,443,443,443,443,443,443,443,443,443,432,408,386,343,268,243,222,200,181,144,121,101,79],"timestamp_mouse":[8,22,43,62,82,102,122,142,163,184,202,222,242,263,283,302,322,342,362,382,403,422,442,462,482,504,522,543,562,582,602,622,642,663,683,702,722,742,762,782,803,822,842,862,882,903,924,942,962,982,1002],"xSR":741.5,"ySR":469.95,"xT1":424.9,"yT1":0,"xT2":1058.1,"yT2":0,"toosoon":0,"cond_shown":"equaldotanddens","ratio_trial":900,"smaller_num":"9","larger_num":"10","correct_side":2,"subjID":"DairaJuanitaRodriguezRamirez5","gender":"1","age":"11","school":"6"},{"start_time":1551901706615,"click_time":1551901712171,"finger_time":1551901711251,"fix_duration":1182.4617129117787,"trial":35,"RT":4636,"MT":920,"sideResp":1,"stimulus":"img/750/equaldotsize/L/8_Ratio_750_L_4_R_3.png","xmouse":[808,808,808,808,808,808,808,808,808,808,808,808,808,808,807,806,806,805,805,805,805,805,805,805,805,805,805,805,805,805,805,805,805,805,805,805,805,805,805,805,805,805,805,805,805,805,805,805,805,805,805,805,805,805,805,805,805,805,805,805,805,805,805,805,805,805,805,805,805,805,805,805,805,805,805,805,805,805,805,805,805,805,805,805,805,805,805,805,805,805,805,805,805,805,805,805,805,805,805,805,805,805,805,805,805,805,805,805,805,805,805,805,805,805,805,805,805,805,805,805,805,805,805,805,805,805,805,805,805,805,805,805,805,805,805,805,805,805,805,805,805,805,805,805,805,812,814,816,816,816,816,816,816,816,816,816,816,816,816,816,816,816,816,816,816,816,816,816,816,816,816,816,816,816,816,816,816,816,816,816,816,816,816,816,816,816,816,816,816,816,816,816,816,816,816,816,816,816,816,816,816,816,816,816,816,816,816,816,816,816,816,816,816,816,816,816,816,816,816,816,816,816,816,816,816,816,816,816,816,816,821,827,841,856,858,858,858,858,858,859,860,862,859,822,815,807,783,737,677,677,677,677,677,676,676,676,676,676,674,647,564,480,430,347,320,307,307,307,307,306,311,311,313,342,362,390,414,433],"ymouse":[490,490,490,490,490,490,490,490,490,490,490,490,490,490,490,490,489,489,489,489,489,489,489,489,489,489,489,489,489,489,489,489,489,489,489,489,489,489,489,489,489,489,489,489,489,489,489,489,489,489,489,489,489,489,489,489,489,489,489,489,489,489,489,489,489,489,489,489,489,489,489,489,489,489,489,489,489,489,489,489,489,489,489,489,489,489,489,489,489,489,489,489,489,489,489,489,489,489,489,489,489,489,489,489,489,489,489,489,489,489,489,489,489,489,489,489,489,489,489,489,489,489,489,489,489,489,489,489,489,489,489,489,489,489,489,489,489,489,489,489,489,489,489,489,489,484,482,480,480,480,480,480,480,480,480,480,480,480,480,480,480,480,480,480,480,480,480,480,480,480,480,480,480,480,480,480,480,480,480,480,480,480,480,480,480,480,480,480,480,480,480,480,480,480,480,480,480,480,480,480,480,480,480,480,480,480,480,480,480,480,480,480,480,480,480,480,480,480,480,480,480,480,480,480,480,480,480,480,480,480,476,468,444,419,414,414,414,414,414,413,407,381,323,213,202,201,212,263,334,334,334,334,326,288,288,288,288,288,287,277,245,205,167,109,101,101,101,101,101,100,96,96,96,92,88,84,77,70],"timestamp_mouse":[16,36,66,77,96,116,136,157,176,196,216,237,256,276,296,316,337,356,376,396,416,437,456,476,496,516,536,557,576,596,616,636,657,676,696,716,736,757,776,796,816,836,856,877,896,917,936,957,976,996,1016,1036,1057,1076,1096,1116,1137,1157,1176,1196,1217,1236,1256,1277,1296,1316,1336,1357,1376,1396,1416,1436,1457,1476,1496,1516,1537,1557,1576,1596,1617,1636,1657,1676,1698,1716,1736,1757,1776,1796,1816,1836,1857,1877,1896,1916,1936,1957,1977,1996,2016,2036,2056,2077,2096,2116,2136,2157,2177,2196,2216,2236,2257,2277,2296,2316,2337,2356,2376,2397,2416,2436,2457,2477,2496,2516,2536,2558,2577,2596,2616,2637,2656,2677,2696,2716,2737,2757,2778,2796,2816,2836,2856,2877,2896,2917,2937,2957,2977,2996,3016,3036,3057,3076,3096,3116,3137,3156,3176,3196,3216,3236,3256,3276,3296,3316,3336,3356,3377,3396,3416,3436,3456,3478,3496,3516,3536,3557,3577,3596,3617,3636,3656,3678,3696,3716,3736,3756,3776,3796,3817,3836,3856,3876,3896,3916,3936,3956,3976,3996,4016,4036,4056,4077,4096,4116,4136,4156,4177,4196,4216,4236,4256,4277,4296,4317,4336,4356,4378,4397,4416,4436,4456,4477,4497,4516,4536,4556,4576,4596,4616,4636,4656,4677,4696,4716,4736,4756,4777,4796,4816,4836,4856,4876,4897,4916,4937,4956,4976,4996,5016,5036,5056,5077,5096,5116,5136,5156,5177,5197,5216,5236,5256,5277,5296,5316,5336,5356,5377,5396,5416,5436,5456,5476,5496,5516,5536,5556],"xSR":741.5,"ySR":469.95,"xT1":424.9,"yT1":0,"xT2":1058.1,"yT2":0,"toosoon":0,"cond_shown":"equaldotsize","ratio_trial":750,"smaller_num":"3","larger_num":"4","correct_side":1,"subjID":"DairaJuanitaRodriguezRamirez5","gender":"1","age":"11","school":"6"},{"start_time":1551901713503,"click_time":1551901714492,"finger_time":1551901714111,"fix_duration":250,"trial":36,"RT":608,"MT":381,"sideResp":2,"stimulus":"img/250/equaldotsize/R/10_Ratio_250_L_4_R_16.png","xmouse":[805,805,805,805,805,805,805,805,805,805,805,805,805,805,805,805,805,805,805,805,805,805,805,805,805,805,805,805,807,818,862,919,966,986,994,997,1000,1003,1008,1026,1036,1050,1056,1067,1070,1073,1075,1079,1084,1103],"ymouse":[526,526,526,526,526,526,526,526,526,526,526,526,526,526,526,526,526,526,526,526,526,526,526,526,526,526,526,526,526,526,487,413,335,288,273,267,263,257,251,230,218,198,191,177,172,168,164,156,143,98],"timestamp_mouse":[13,32,49,68,89,108,129,148,169,188,208,228,248,268,289,308,328,348,369,389,408,428,448,468,488,508,528,548,569,588,608,628,648,669,688,708,728,749,769,789,808,828,848,869,888,908,929,948,968,988],"xSR":741.5,"ySR":469.95,"xT1":424.9,"yT1":0,"xT2":1058.1,"yT2":0,"toosoon":0,"cond_shown":"equaldotsize","ratio_trial":250,"smaller_num":"4","larger_num":"16","correct_side":2,"subjID":"DairaJuanitaRodriguezRamirez5","gender":"1","age":"11","school":"6"},{"start_time":1551901727176,"click_time":1551901728612,"finger_time":1551901728071,"fix_duration":1043.847863048202,"trial":37,"RT":895,"MT":541,"sideResp":1,"stimulus":"img/900/equaldotsize/R/6_Ratio_900_L_9_R_10.png","xmouse":[803,803,803,803,803,803,803,803,803,803,803,803,803,803,803,803,803,803,803,803,803,803,803,803,803,803,803,803,803,803,803,803,803,803,803,803,803,803,803,803,803,803,802,746,639,526,452,419,420,423,423,419,406,406,406,406,406,440,455,467,472,473,473,474,474,476,477,478,478,478,478,478],"ymouse":[529,529,529,529,529,529,529,529,529,529,529,529,529,529,529,529,529,529,529,529,529,529,529,529,529,529,529,529,529,529,529,529,529,529,529,529,529,529,529,529,529,529,529,499,433,362,325,300,290,276,265,254,243,243,243,243,243,205,188,171,162,159,156,152,146,135,124,111,107,104,101,96],"timestamp_mouse":[15,35,56,75,95,115,135,156,176,195,216,237,255,275,296,315,335,355,375,396,416,436,456,475,495,516,535,556,576,595,616,636,656,675,695,715,735,756,775,795,817,835,855,876,895,915,936,955,975,995,1015,1035,1056,1075,1095,1115,1136,1155,1175,1195,1215,1235,1255,1276,1295,1315,1335,1355,1375,1395,1415,1436],"xSR":741.5,"ySR":469.95,"xT1":424.9,"yT1":0,"xT2":1058.1,"yT2":0,"toosoon":0,"cond_shown":"equaldotsize","ratio_trial":900,"smaller_num":"9","larger_num":"10","correct_side":2,"subjID":"DairaJuanitaRodriguezRamirez5","gender":"1","age":"11","school":"6"},{"start_time":1551901730332,"click_time":1551901731651,"finger_time":1551901730731,"fix_duration":699.9302920703616,"trial":38,"RT":399,"MT":920,"sideResp":1,"stimulus":"img/900/randomdotsizeEA/L/4_Ratio_900_L_20_R_18.png","xmouse":[791,791,791,791,791,791,791,791,791,791,791,791,791,791,791,791,791,791,791,793,816,859,899,909,910,910,910,910,910,910,910,910,910,910,894,868,826,814,803,796,788,781,761,718,642,597,593,593,592,590,582,573,562,560,555,552,551,549,548,547,544,542,541,539,534,509,494],"ymouse":[538,538,538,538,538,538,538,538,538,538,538,538,538,538,538,538,538,538,538,529,448,358,289,268,262,262,262,262,262,262,262,262,262,257,237,218,210,212,216,219,220,220,216,204,190,183,181,181,179,174,164,159,154,153,153,152,149,145,141,139,137,135,133,132,128,108,97],"timestamp_mouse":[5,32,39,59,79,99,119,139,159,179,199,219,239,259,279,299,319,340,360,379,399,419,439,459,480,499,519,540,559,579,599,619,639,659,679,699,719,740,759,779,799,820,840,859,880,899,919,940,959,979,999,1019,1039,1059,1079,1099,1119,1139,1160,1179,1199,1219,1240,1259,1279,1299,1319],"xSR":741.5,"ySR":469.95,"xT1":424.9,"yT1":0,"xT2":1058.1,"yT2":0,"toosoon":0,"cond_shown":"randomdotsizeEA","ratio_trial":900,"smaller_num":"18","larger_num":"20","correct_side":1,"subjID":"DairaJuanitaRodriguezRamirez5","gender":"1","age":"11","school":"6"},{"start_time":1551901733295,"click_time":1551901735151,"finger_time":1551901733991,"fix_duration":862.1923931413353,"trial":39,"RT":696,"MT":1160,"sideResp":1,"stimulus":"img/750/randomdotsizeEA/L/14_Ratio_750_L_8_R_6.png","xmouse":[771,771,771,771,771,771,771,771,771,771,771,771,771,771,771,771,771,771,771,771,771,771,771,771,771,771,771,771,771,771,771,771,771,755,730,708,685,681,680,678,676,666,650,638,625,615,607,594,588,582,575,557,544,540,540,540,540,540,539,539,539,539,539,539,539,539,539,539,539,539,539,539,539,539,539,539,539,527,520,517,516,516,516,516,516,516,516,516,516,516,516,516,511],"ymouse":[564,564,564,564,564,564,564,564,564,564,564,564,564,564,564,564,564,564,564,564,564,564,564,564,564,564,564,564,564,564,564,564,564,498,414,345,277,266,261,257,252,239,219,205,189,177,165,141,130,118,106,84,73,70,70,70,70,70,69,69,69,69,69,69,69,69,69,69,69,69,69,69,69,69,69,69,72,99,110,117,118,118,118,118,118,118,118,118,118,118,118,114,85],"timestamp_mouse":[16,36,57,76,98,116,137,157,176,197,216,236,257,277,298,317,337,356,376,397,416,436,456,477,496,516,536,556,577,597,616,637,657,676,696,717,738,756,776,796,817,838,856,877,896,916,938,956,976,996,1016,1038,1056,1076,1096,1117,1136,1156,1176,1197,1216,1237,1256,1276,1296,1316,1338,1357,1378,1396,1416,1436,1456,1476,1497,1516,1536,1556,1576,1596,1616,1636,1656,1676,1696,1716,1736,1756,1776,1797,1816,1836,1856],"xSR":741.5,"ySR":469.95,"xT1":424.9,"yT1":0,"xT2":1058.1,"yT2":0,"toosoon":0,"cond_shown":"randomdotsizeEA","ratio_trial":750,"smaller_num":"6","larger_num":"8","correct_side":1,"subjID":"DairaJuanitaRodriguezRamirez5","gender":"1","age":"11","school":"6"},{"start_time":1551901737421,"click_time":1551901738973,"finger_time":1551901738532,"fix_duration":1349.402548360353,"trial":40,"RT":1111,"MT":441,"sideResp":1,"stimulus":"img/750/randomdotsizeEA/L/9_Ratio_750_L_4_R_3.png","xmouse":[781,781,781,781,781,781,781,781,781,781,781,781,781,781,781,781,781,781,781,781,781,781,781,781,781,781,781,781,781,781,781,781,781,781,781,781,781,781,781,781,781,781,781,781,781,781,781,781,781,781,781,781,776,773,763,741,649,643,641,641,641,641,638,631,624,618,611,607,605,601,594,574,568,561,555,546,524,519],"ymouse":[500,500,500,500,500,500,500,500,500,500,500,500,500,500,500,500,500,500,500,500,500,500,500,500,500,500,500,500,500,500,500,500,500,500,500,500,500,500,500,500,500,500,500,500,500,500,500,500,500,500,500,500,498,497,492,457,312,296,292,292,292,291,285,275,267,258,244,239,229,217,204,178,170,161,153,140,106,89],"timestamp_mouse":[10,30,56,71,90,111,131,152,171,191,211,231,251,272,291,310,331,351,371,390,410,432,452,471,490,511,532,552,572,591,610,630,650,670,692,711,731,750,770,791,811,830,850,870,891,910,930,951,971,991,1011,1030,1050,1070,1092,1111,1131,1152,1171,1191,1211,1232,1252,1271,1291,1311,1331,1351,1371,1391,1411,1431,1450,1470,1490,1512,1531,1552],"xSR":741.5,"ySR":469.95,"xT1":424.9,"yT1":0,"xT2":1058.1,"yT2":0,"toosoon":0,"cond_shown":"randomdotsizeEA","ratio_trial":750,"smaller_num":"3","larger_num":"4","correct_side":1,"subjID":"DairaJuanitaRodriguezRamirez5","gender":"1","age":"11","school":"6"},{"start_time":1551901740205,"click_time":1551901741511,"finger_time":1551901741032,"fix_duration":250,"trial":41,"RT":827,"MT":479,"sideResp":1,"stimulus":"img/500/equaldotsize/L/7_Ratio_500_L_10_R_5.png","xmouse":[794,794,794,794,794,794,794,794,794,794,794,794,794,794,794,794,794,794,794,794,794,794,794,794,794,794,794,794,794,794,794,794,794,794,794,794,794,794,794,794,790,779,730,713,694,685,675,664,647,637,625,616,610,608,603,587,570,542,535,532,532,532,532,529,527,523],"ymouse":[507,507,507,507,507,507,507,507,507,507,507,507,507,507,507,507,507,507,507,507,507,507,507,507,507,507,507,507,507,507,507,507,507,507,507,507,507,507,507,507,492,454,343,305,260,238,219,199,171,159,148,141,137,136,133,126,121,113,111,110,110,110,110,106,101,89],"timestamp_mouse":[8,30,47,66,86,107,127,146,168,187,207,226,247,267,287,308,326,346,366,387,407,428,447,467,486,507,526,547,567,587,607,626,647,668,687,708,727,746,766,786,807,827,847,866,886,907,927,947,967,986,1006,1026,1048,1067,1087,1106,1126,1147,1166,1188,1207,1227,1246,1266,1287,1306],"xSR":741.5,"ySR":469.95,"xT1":424.9,"yT1":0,"xT2":1058.1,"yT2":0,"toosoon":0,"cond_shown":"equaldotsize","ratio_trial":500,"smaller_num":"5","larger_num":"10","correct_side":1,"subjID":"DairaJuanitaRodriguezRamirez5","gender":"1","age":"11","school":"6"},{"start_time":1551901745016,"click_time":1551901746872,"finger_time":1551901745713,"fix_duration":1123.1320697986446,"trial":42,"RT":697,"MT":1159,"sideResp":2,"stimulus":"img/250/equaldotanddens/R/9_Ratio_250_L_3_R_12.png","xmouse":[782,782,782,782,782,782,782,782,782,782,782,782,782,782,782,782,782,782,782,782,782,782,782,782,782,782,782,782,782,782,782,782,785,806,832,864,882,906,919,929,940,954,986,993,997,1006,1024,1058,1076,1091,1107,1122,1169,1185,1198,1206,1211,1214,1214,1214,1214,1214,1214,1214,1214,1214,1212,1198,1183,1173,1170,1170,1169,1169,1168,1168,1167,1167,1167,1167,1167,1167,1167,1167,1167,1167,1167,1166,1166,1166,1166,1165,1155],"ymouse":[519,520,520,520,520,520,520,520,520,520,520,520,520,520,520,520,520,520,520,520,520,520,520,520,520,520,520,520,520,520,520,520,513,478,450,424,408,386,371,359,346,334,308,301,296,287,275,250,236,221,201,178,106,70,41,20,10,3,3,3,3,3,3,3,3,3,3,18,33,42,44,44,44,44,44,44,43,43,43,43,43,43,43,43,43,43,43,43,43,43,43,43,47],"timestamp_mouse":[16,35,56,77,96,116,137,155,176,196,216,237,257,275,296,316,335,356,376,396,415,435,455,476,496,515,535,557,576,597,616,635,655,676,697,717,736,756,777,795,816,835,855,877,896,915,935,956,976,996,1016,1036,1055,1076,1095,1115,1136,1156,1175,1195,1215,1235,1256,1277,1297,1315,1336,1356,1377,1395,1416,1435,1456,1476,1496,1516,1537,1556,1576,1596,1616,1637,1656,1676,1697,1716,1736,1757,1776,1796,1816,1837,1855],"xSR":741.5,"ySR":469.95,"xT1":424.9,"yT1":0,"xT2":1058.1,"yT2":0,"toosoon":0,"cond_shown":"equaldotanddens","ratio_trial":250,"smaller_num":"3","larger_num":"12","correct_side":2,"subjID":"DairaJuanitaRodriguezRamirez5","gender":"1","age":"11","school":"6"},{"start_time":1551901755083,"click_time":1551901755992,"finger_time":1551901755772,"fix_duration":250,"trial":43,"RT":689,"MT":220,"sideResp":1,"stimulus":"img/900/equaldotanddens/L/4_Ratio_900_L_20_R_18.png","xmouse":[800,800,800,800,800,800,800,800,800,800,800,800,800,800,800,800,800,800,800,800,800,800,800,800,800,800,800,800,800,800,800,800,800,797,776,651,608,572,555,543,531,525,518,511,507,511],"ymouse":[490,490,490,490,490,490,490,490,490,490,490,490,490,490,490,490,490,490,490,490,490,490,490,490,490,490,490,490,490,490,490,490,488,487,458,318,274,240,222,211,185,169,154,138,121,98],"timestamp_mouse":[11,35,49,68,89,110,129,148,168,188,210,228,250,269,289,310,328,349,368,388,408,428,449,469,489,508,528,548,568,589,608,628,649,669,689,709,730,749,770,789,809,829,849,869,889,909],"xSR":741.5,"ySR":469.95,"xT1":424.9,"yT1":0,"xT2":1058.1,"yT2":0,"toosoon":0,"cond_shown":"equaldotanddens","ratio_trial":900,"smaller_num":"18","larger_num":"20","correct_side":1,"subjID":"DairaJuanitaRodriguezRamirez5","gender":"1","age":"11","school":"6"},{"start_time":1551901758740,"click_time":1551901759632,"finger_time":1551901759292,"fix_duration":1347.8695562340026,"trial":44,"RT":552,"MT":340,"sideResp":1,"stimulus":"img/750/equaldotsize/L/8_Ratio_750_L_4_R_3.png","xmouse":[804,804,804,804,804,804,804,804,804,804,804,804,804,804,804,804,804,804,804,804,804,804,804,804,804,804,804,801,781,763,742,734,728,708,696,682,667,652,628,610,596,573,535,526,519],"ymouse":[491,491,491,491,491,491,491,491,491,491,491,491,491,491,491,491,491,491,491,491,491,491,491,491,491,491,491,459,386,341,308,297,290,265,250,235,223,212,195,184,172,157,123,110,99],"timestamp_mouse":[12,31,53,72,91,112,132,152,171,192,211,232,253,272,292,312,331,352,372,391,411,432,451,471,491,512,533,552,571,592,612,631,653,671,693,712,732,751,771,791,812,831,853,871,892],"xSR":741.5,"ySR":469.95,"xT1":424.9,"yT1":0,"xT2":1058.1,"yT2":0,"toosoon":0,"cond_shown":"equaldotsize","ratio_trial":750,"smaller_num":"3","larger_num":"4","correct_side":1,"subjID":"DairaJuanitaRodriguezRamirez5","gender":"1","age":"11","school":"6"},{"start_time":1551901761870,"click_time":1551901762912,"finger_time":1551901762593,"fix_duration":1335.6204941482222,"trial":45,"RT":723,"MT":319,"sideResp":1,"stimulus":"img/750/equaldotanddens/L/1_Ratio_750_L_20_R_15.png","xmouse":[770,770,770,770,770,770,770,770,770,770,770,770,770,770,770,770,770,770,770,770,770,770,770,770,770,770,770,770,770,770,771,771,771,771,770,762,705,599,571,561,561,561,552,537,528,525,522,516,513,512,510,506,502],"ymouse":[528,528,528,528,528,528,528,528,528,528,528,528,528,528,528,528,528,528,528,528,528,528,528,528,528,528,528,528,528,528,528,528,528,528,526,510,404,283,269,264,264,263,243,210,188,177,168,150,142,135,124,110,87],"timestamp_mouse":[9,34,42,62,82,102,122,143,161,181,201,221,242,262,282,302,322,342,362,382,403,421,442,463,483,502,522,542,562,581,602,621,642,662,682,701,723,742,761,781,802,823,843,862,881,901,921,941,962,981,1002,1021,1041],"xSR":741.5,"ySR":469.95,"xT1":424.9,"yT1":0,"xT2":1058.1,"yT2":0,"toosoon":0,"cond_shown":"equaldotanddens","ratio_trial":750,"smaller_num":"15","larger_num":"20","correct_side":1,"subjID":"DairaJuanitaRodriguezRamirez5","gender":"1","age":"11","school":"6"},{"start_time":1551901764442,"click_time":1551901766112,"finger_time":1551901765033,"fix_duration":449.28365108069545,"trial":46,"RT":591,"MT":1079,"sideResp":1,"stimulus":"img/250/equaldotanddens/L/7_Ratio_250_L_8_R_2.png","xmouse":[802,802,802,802,802,802,802,802,802,802,802,802,802,802,802,802,802,802,802,802,802,802,802,802,803,803,803,803,797,770,762,753,743,730,723,715,703,690,670,663,654,645,626,606,600,593,587,580,570,567,564,562,559,557,555,555,555,555,555,555,555,555,555,555,555,555,555,555,555,555,554,554,553,547,547,546,546,545,545,544,544,542,536,515],"ymouse":[520,520,520,520,520,520,520,520,520,520,520,520,520,520,520,520,520,520,520,520,520,520,520,520,519,519,519,502,475,389,366,345,320,292,281,267,252,236,214,207,196,184,163,144,138,127,118,106,83,74,66,61,55,53,49,49,49,49,49,49,49,49,49,49,49,49,49,49,49,49,49,48,47,43,43,42,42,42,42,42,42,42,42,46],"timestamp_mouse":[11,30,49,71,90,110,130,149,169,191,210,230,250,269,291,309,329,350,370,390,410,430,449,469,490,510,530,549,569,591,610,631,650,670,691,709,730,749,770,789,810,829,849,870,891,910,931,949,970,990,1009,1029,1049,1070,1090,1109,1130,1149,1170,1190,1209,1230,1250,1270,1290,1310,1329,1349,1369,1390,1409,1429,1449,1470,1491,1509,1530,1549,1570,1589,1610,1630,1649,1670],"xSR":741.5,"ySR":469.95,"xT1":424.9,"yT1":0,"xT2":1058.1,"yT2":0,"toosoon":0,"cond_shown":"equaldotanddens","ratio_trial":250,"smaller_num":"2","larger_num":"8","correct_side":1,"subjID":"DairaJuanitaRodriguezRamirez5","gender":"1","age":"11","school":"6"},{"start_time":1551901768496,"click_time":1551901769414,"finger_time":1551901769032,"fix_duration":1382.4413302506211,"trial":47,"RT":536,"MT":382,"sideResp":2,"stimulus":"img/250/equaldotsize/R/8_Ratio_250_L_1_R_4.png","xmouse":[818,818,818,818,818,818,818,818,818,818,818,818,818,818,817,817,817,816,816,816,816,816,816,816,816,816,887,988,1096,1192,1268,1272,1272,1272,1272,1276,1278,1279,1279,1278,1264,1250,1229,1202,1179,1157],"ymouse":[527,527,527,527,527,527,527,527,527,527,527,527,527,527,527,527,527,527,527,527,527,527,527,527,527,527,494,443,390,336,279,275,273,268,254,214,194,172,166,158,135,116,94,77,64,50],"timestamp_mouse":[16,36,56,76,96,117,136,157,176,195,217,236,256,276,295,316,337,356,376,395,416,435,456,476,495,517,536,556,576,595,617,635,656,677,695,717,735,756,775,797,817,835,856,875,895,917],"xSR":741.5,"ySR":469.95,"xT1":424.9,"yT1":0,"xT2":1058.1,"yT2":0,"toosoon":0,"cond_shown":"equaldotsize","ratio_trial":250,"smaller_num":"1","larger_num":"4","correct_side":2,"subjID":"DairaJuanitaRodriguezRamirez5","gender":"1","age":"11","school":"6"},{"start_time":1551901771774,"click_time":1551901773392,"finger_time":1551901772732,"fix_duration":1440.6694154836237,"trial":48,"RT":958,"MT":660,"sideResp":1,"stimulus":"img/900/equaldotsize/R/12_Ratio_900_L_18_R_20.png","xmouse":[790,790,790,790,790,790,790,790,790,790,790,790,790,790,790,790,790,790,790,790,790,790,790,790,790,790,790,790,790,790,790,790,790,790,790,790,790,790,790,790,789,788,788,788,788,786,783,735,692,671,658,652,628,593,544,505,452,390,390,390,390,390,390,390,390,390,390,390,390,390,390,390,390,390,390,390,390,390,390,390,427],"ymouse":[516,516,516,516,516,516,516,516,516,516,516,516,516,516,516,516,516,516,516,516,516,516,516,516,516,516,516,516,516,516,516,516,516,516,516,516,516,516,516,516,516,516,515,515,515,514,512,396,321,289,275,268,236,204,171,143,100,36,36,36,36,36,36,36,36,36,36,36,36,36,36,36,36,36,36,36,36,36,36,36,9],"timestamp_mouse":[18,41,58,79,98,117,137,158,178,198,218,237,257,278,298,318,338,357,377,398,417,438,458,479,497,517,537,559,578,599,618,638,659,678,697,718,737,759,778,799,818,838,858,877,898,918,938,958,979,998,1018,1037,1058,1077,1098,1118,1138,1158,1177,1199,1218,1238,1259,1278,1298,1318,1338,1359,1377,1398,1417,1437,1457,1479,1498,1517,1537,1558,1577,1598,1618],"xSR":741.5,"ySR":469.95,"xT1":424.9,"yT1":0,"xT2":1058.1,"yT2":0,"toosoon":0,"cond_shown":"equaldotsize","ratio_trial":900,"smaller_num":"18","larger_num":"20","correct_side":2,"subjID":"DairaJuanitaRodriguezRamirez5","gender":"1","age":"11","school":"6"},{"start_time":1551901780724,"click_time":1551901782152,"finger_time":1551901781492,"fix_duration":330.03887235351834,"trial":49,"RT":768,"MT":660,"sideResp":1,"stimulus":"img/500/randomdotsizeEA/L/4_Ratio_500_L_18_R_9.png","xmouse":[791,791,791,791,791,791,791,791,791,791,791,791,791,791,791,791,791,791,791,791,791,791,791,791,791,791,791,791,791,791,791,792,792,792,792,792,792,762,683,575,469,339,335,334,334,334,334,334,334,334,334,339,362,372,380,388,393,395,401,406,412,432,435,435,435,435,435,435,437,443,451,463],"ymouse":[516,516,516,516,516,517,517,517,517,517,517,517,517,517,517,517,517,517,517,517,517,517,517,517,517,517,517,517,517,517,517,517,517,517,517,517,516,499,475,461,445,398,379,360,338,315,289,276,265,257,250,234,208,200,192,185,178,174,166,161,153,131,128,128,128,128,128,128,122,112,101,77],"timestamp_mouse":[11,38,48,68,88,108,127,147,168,188,208,227,248,268,288,307,327,348,369,388,408,429,448,468,488,508,528,547,567,588,608,628,647,668,688,708,727,748,768,787,809,829,847,868,888,909,928,949,968,988,1007,1027,1048,1068,1088,1108,1128,1149,1168,1188,1208,1228,1248,1267,1287,1308,1329,1348,1368,1388,1408,1428],"xSR":741.5,"ySR":469.95,"xT1":424.9,"yT1":0,"xT2":1058.1,"yT2":0,"toosoon":0,"cond_shown":"randomdotsizeEA","ratio_trial":500,"smaller_num":"9","larger_num":"18","correct_side":1,"subjID":"DairaJuanitaRodriguezRamirez5","gender":"1","age":"11","school":"6"},{"start_time":1551901787200,"click_time":1551901824232,"finger_time":1551901823912,"fix_duration":1027.6044459527504,"trial":50,"RT":36712,"MT":320,"sideResp":2,"stimulus":"img/500/equaldotsize/R/15_Ratio_500_L_1_R_2.png","xmouse":[811,811,811,811,811,811,811,811,811,811,811,811,811,811,811,811,811,811,811,811,811,811,811,811,811,811,811,811,811,811,811,811,811,811,811,811,811,811,811,811,811,811,811,811,811,811,811,811,811,811,811,811,811,811,811,811,811,811,811,811,811,811,811,811,811,811,811,811,811,811,811,811,811,811,811,811,811,811,811,811,811,811,811,811,811,811,811,811,811,811,811,811,811,811,811,811,811,811,811,811,811,811,811,811,811,811,811,811,811,811,811,811,811,811,811,811,811,811,811,811,811,811,811,811,811,811,811,811,811,811,811,811,811,811,811,811,811,811,811,811,811,811,811,811,811,811,811,811,811,811,811,811,811,811,811,811,811,811,811,811,811,811,811,811,811,811,811,811,811,811,811,811,811,811,811,811,811,811,811,811,811,811,811,811,811,811,811,811,811,811,811,811,811,811,811,811,811,811,811,811,811,811,811,811,811,811,811,811,811,811,811,811,811,811,811,811,811,811,811,811,811,811,811,811,811,811,811,811,811,811,811,811,811,811,811,811,811,811,811,811,811,811,811,811,811,811,811,811,811,811,811,811,811,811,811,811,811,811,811,811,811,811,811,811,811,811,811,811,811,811,811,811,811,811,811,811,811,811,811,811,811,811,811,811,811,811,811,811,811,811,811,811,811,811,811,811,811,811,811,811,811,811,811,811,811,811,811,811,811,811,811,811,811,811,811,811,811,811,811,811,811,811,811,811,811,811,811,811,811,811,811,811,811,811,811,811,811,811,811,811,811,811,811,811,811,811,811,811,811,811,811,811,811,811,811,811,811,811,811,811,811,811,811,811,811,811,811,811,811,811,811,811,811,811,811,811,811,811,811,811,811,811,811,811,811,811,811,811,811,811,811,811,811,811,811,811,811,811,811,811,811,811,811,811,811,811,811,811,811,811,811,811,811,811,811,811,811,811,811,811,811,811,811,811,811,811,811,811,811,811,811,811,811,811,811,811,811,811,811,811,811,811,811,811,811,811,811,811,811,811,811,811,811,811,811,811,811,811,811,811,811,811,811,811,811,811,811,811,811,811,811,811,811,811,811,811,811,811,811,811,811,811,811,811,811,811,811,811,811,811,811,811,811,811,811,811,811,811,811,811,811,811,811,811,811,811,811,811,811,811,811,811,811,811,811,811,811,811,811,811,811,811,811,811,811,811,811,811,811,811,811,811,811,811,811,811,811,811,811,811,811,811,811,811,811,811,811,811,811,811,811,811,811,811,811,811,811,811,811,811,811,811,811,811,811,811,811,811,811,811,811,811,811,811,811,811,811,811,811,811,811,811,811,811,811,811,811,811,811,811,811,811,811,811,811,811,811,811,811,811,811,811,811,811,811,811,811,811,811,811,811,811,811,811,811,811,811,811,811,811,811,811,811,811,811,811,811,811,811,811,811,811,811,811,811,811,811,811,811,811,811,811,811,811,811,811,811,811,811,811,811,811,811,811,811,811,811,811,811,811,811,811,811,811,811,811,811,811,811,811,811,811,811,811,811,811,811,811,811,811,811,811,811,811,811,811,811,811,811,811,811,811,811,811,811,811,811,811,811,811,811,811,811,811,811,811,811,811,811,811,811,811,811,811,811,811,811,811,811,811,811,811,811,811,811,811,811,811,811,811,811,811,811,811,811,811,811,811,811,811,811,811,811,811,811,811,811,811,811,811,811,811,811,811,811,811,811,811,811,811,811,811,811,811,811,811,811,811,811,811,811,811,811,811,811,811,811,811,811,811,811,811,811,811,811,811,811,811,811,811,811,811,811,811,811,811,811,811,811,811,811,811,811,811,811,811,811,811,811,811,811,811,811,811,811,811,811,811,811,811,811,811,811,811,811,811,811,811,811,811,811,811,811,811,811,811,811,811,811,811,811,811,811,811,811,811,811,811,811,811,811,811,811,811,811,811,811,811,811,811,811,811,811,811,811,811,811,811,811,811,811,811,811,811,811,811,811,811,811,811,811,811,811,811,811,811,811,811,811,811,811,811,811,811,811,811,811,811,811,811,811,811,811,811,811,811,811,811,811,811,811,811,811,811,811,811,811,811,811,811,811,811,811,811,811,811,811,811,811,811,811,811,811,811,811,811,811,811,811,811,811,811,811,811,811,811,811,811,811,811,811,811,811,811,811,811,811,811,811,811,811,811,811,811,811,811,811,811,811,811,811,811,811,811,811,811,811,811,811,811,811,811,811,811,811,811,811,811,811,811,811,811,811,811,811,811,811,811,811,811,811,811,811,811,811,811,811,811,811,811,811,811,811,811,811,811,811,811,811,811,811,811,811,811,811,811,811,811,811,811,811,811,811,811,811,811,811,811,811,811,811,811,811,811,811,811,811,811,811,811,811,811,811,811,811,811,811,811,811,811,811,811,811,811,811,811,811,811,811,811,811,811,811,811,811,811,811,811,811,811,811,811,811,811,811,811,811,811,811,811,811,811,811,811,811,811,811,811,811,811,811,811,811,811,811,811,811,811,811,811,811,811,811,811,811,811,811,811,811,811,811,811,811,811,811,811,811,811,811,811,811,811,811,811,811,811,811,811,811,811,811,811,811,811,811,811,811,811,811,811,811,811,811,811,811,811,811,811,811,811,811,811,811,811,811,811,811,811,811,811,811,811,811,811,811,811,811,811,811,811,811,811,811,811,811,811,811,811,811,811,811,811,811,811,811,811,811,811,811,811,811,811,811,811,811,811,811,811,811,811,811,811,811,811,811,811,811,811,811,811,811,811,811,811,811,811,811,811,811,811,811,811,811,811,811,811,811,811,811,811,811,811,811,811,811,811,811,811,811,811,811,811,811,811,811,811,811,811,811,811,811,811,811,811,811,811,811,811,811,811,811,811,811,811,811,811,811,811,811,811,811,811,811,811,811,811,811,811,811,811,811,811,811,811,811,811,811,811,811,811,811,811,811,811,811,811,811,811,811,811,811,811,811,811,811,811,811,811,811,811,811,811,811,811,811,811,811,811,811,811,811,811,811,811,811,811,811,811,811,811,811,811,811,811,811,811,811,811,811,811,811,811,811,811,811,811,811,811,811,811,811,811,811,811,811,811,811,811,811,811,811,811,811,811,811,811,811,811,811,811,811,811,811,811,811,811,811,811,811,811,811,811,811,811,811,811,811,811,811,811,811,811,811,811,811,811,811,811,811,811,811,811,811,811,811,811,811,811,811,811,811,811,811,811,811,811,811,811,811,811,811,811,811,811,811,811,811,811,811,811,811,811,811,811,811,811,811,811,811,811,811,811,811,811,811,811,811,811,811,811,811,811,811,811,811,811,811,811,811,811,811,811,811,811,811,811,811,811,811,811,811,811,811,811,811,811,811,811,811,811,811,811,811,811,811,811,811,811,811,811,811,811,811,811,811,811,811,811,811,811,811,811,811,811,811,811,811,811,811,811,811,811,811,811,811,811,811,811,811,811,811,811,811,811,811,811,811,811,811,811,811,811,811,811,811,811,811,811,811,811,811,811,811,811,811,811,811,811,811,811,811,811,811,811,811,811,811,811,811,811,811,811,811,811,811,811,811,811,811,811,811,811,811,811,811,811,811,811,811,811,811,811,811,811,811,811,811,811,811,811,811,811,811,811,811,811,811,811,811,811,811,811,811,811,811,811,811,811,811,811,811,811,811,811,811,811,811,811,811,811,811,811,811,811,811,811,811,811,811,811,811,811,811,811,811,811,811,811,811,811,811,811,811,811,811,811,811,811,811,811,811,811,811,811,811,811,811,811,811,811,811,811,811,811,811,811,811,811,811,811,811,811,811,811,811,811,811,811,811,811,811,811,811,811,811,811,811,811,811,811,811,811,811,811,811,811,811,811,811,811,811,811,811,811,811,811,811,811,811,811,811,811,811,811,811,811,811,811,811,811,811,811,811,811,811,811,811,811,811,811,811,811,811,811,811,811,811,811,811,811,811,811,811,811,811,811,811,811,811,811,811,811,811,811,811,811,811,811,811,811,811,811,811,811,811,811,811,811,811,811,811,811,811,811,811,811,811,811,811,811,811,811,811,811,811,811,811,811,811,811,811,811,811,811,811,811,811,811,811,811,811,811,810,809,809,809,809,809,809,809,809,809,809,809,809,809,809,809,809,808,808,808,808,808,832,854,885,893,908,918,928,935,950,954,960,967,975,1012,1039,1068,1090,1107],"ymouse":[510,510,510,510,510,510,510,510,510,510,510,510,510,510,510,510,510,510,510,510,510,510,510,510,510,510,510,510,510,510,510,510,510,510,510,510,510,510,510,510,510,510,510,510,510,510,510,510,510,510,510,510,510,510,510,510,510,510,510,510,510,510,510,510,510,510,510,510,510,510,510,510,510,510,510,510,510,510,510,510,510,510,510,510,510,510,510,510,510,510,510,510,510,510,510,510,510,510,510,510,510,510,510,510,510,510,510,510,510,510,510,510,510,510,510,510,510,510,510,510,510,510,510,510,510,510,510,510,510,510,510,510,510,510,510,510,510,510,510,510,510,510,510,510,510,510,510,510,510,510,510,510,510,510,510,510,510,510,510,510,510,510,510,510,510,510,510,510,510,510,510,510,510,510,510,510,510,510,510,510,510,510,510,510,510,510,510,510,510,510,510,510,510,510,510,510,510,510,510,510,510,510,510,510,510,510,510,510,510,510,510,510,510,510,510,510,510,510,510,510,510,510,510,510,510,510,510,510,510,510,510,510,510,510,510,510,510,510,510,510,510,510,510,510,510,510,510,510,510,510,510,510,510,510,510,510,510,510,510,510,510,510,510,510,510,510,510,510,510,510,510,510,510,510,510,510,510,510,510,510,510,510,510,510,510,510,510,510,510,510,510,510,510,510,510,510,510,510,510,510,510,510,510,510,510,510,510,510,510,510,510,510,510,510,510,510,510,510,510,510,510,510,510,510,510,510,510,510,510,510,510,510,510,510,510,510,510,510,510,510,510,510,510,510,510,510,510,510,510,510,510,510,510,510,510,510,510,510,510,510,510,510,510,510,510,510,510,510,510,510,510,510,510,510,510,510,510,510,510,510,510,510,510,510,510,510,510,510,510,510,510,510,510,510,510,510,510,510,510,510,510,510,510,510,510,510,510,510,510,510,510,510,510,510,510,510,510,510,510,510,510,510,510,510,510,510,510,510,510,510,510,510,510,510,510,510,510,510,510,510,510,510,510,510,510,510,510,510,510,510,510,510,510,510,510,510,510,510,510,510,510,510,510,510,510,510,510,510,510,510,510,510,510,510,510,510,510,510,510,510,510,510,510,510,510,510,510,510,510,510,510,510,510,510,510,510,510,510,510,510,510,510,510,510,510,510,510,510,510,510,510,510,510,510,510,510,510,510,510,510,510,510,510,510,510,510,510,510,510,510,510,510,510,510,510,510,510,510,510,510,510,510,510,510,510,510,510,510,510,510,510,510,510,510,510,510,510,510,510,510,510,510,510,510,510,510,510,510,510,510,510,510,510,510,510,510,510,510,510,510,510,510,510,510,510,510,510,510,510,510,510,510,510,510,510,510,510,510,510,510,510,510,510,510,510,510,510,510,510,510,510,510,510,510,510,510,510,510,510,510,510,510,510,510,510,510,510,510,510,510,510,510,510,510,510,510,510,510,510,510,510,510,510,510,510,510,510,510,510,510,510,510,510,510,510,510,510,510,510,510,510,510,510,510,510,510,510,510,510,510,510,510,510,510,510,510,510,510,510,510,510,510,510,510,510,510,510,510,510,510,510,510,510,510,510,510,510,510,510,510,510,510,510,510,510,510,510,510,510,510,510,510,510,510,510,510,510,510,510,510,510,510,510,510,510,510,510,510,510,510,510,510,510,510,510,510,510,510,510,510,510,510,510,510,510,510,510,510,510,510,510,510,510,510,510,510,510,510,510,510,510,510,510,510,510,510,510,510,510,510,510,510,510,510,510,510,510,510,510,510,510,510,510,510,510,510,510,510,510,510,510,510,510,510,510,510,510,510,510,510,510,510,510,510,510,510,510,510,510,510,510,510,510,510,510,510,510,510,510,510,510,510,510,510,510,510,510,510,510,510,510,510,510,510,510,510,510,510,510,510,510,510,510,510,510,510,510,510,510,510,510,510,510,510,510,510,510,510,510,510,510,510,510,510,510,510,510,510,510,510,510,510,510,510,510,510,510,510,510,510,510,510,510,510,510,510,510,510,510,510,510,510,510,510,510,510,510,510,510,510,510,510,510,510,510,510,510,510,510,510,510,510,510,510,510,510,510,510,510,510,510,510,510,510,510,510,510,510,510,510,510,510,510,510,510,510,510,510,510,510,510,510,510,510,510,510,510,510,510,510,510,510,510,510,510,510,510,510,510,510,510,510,510,510,510,510,510,510,510,510,510,510,510,510,510,510,510,510,510,510,510,510,510,510,510,510,510,510,510,510,510,510,510,510,510,510,510,510,510,510,510,510,510,510,510,510,510,510,510,510,510,510,510,510,510,510,510,510,510,510,510,510,510,510,510,510,510,510,510,510,510,510,510,510,510,510,510,510,510,510,510,510,510,510,510,510,510,510,510,510,510,510,510,510,510,510,510,510,510,510,510,510,510,510,510,510,510,510,510,510,510,510,510,510,510,510,510,510,510,510,510,510,510,510,510,510,510,510,510,510,510,510,510,510,510,510,510,510,510,510,510,510,510,510,510,510,510,510,510,510,510,510,510,510,510,510,510,510,510,510,510,510,510,510,510,510,510,510,510,510,510,510,510,510,510,510,510,510,510,510,510,510,510,510,510,510,510,510,510,510,510,510,510,510,510,510,510,510,510,510,510,510,510,510,510,510,510,510,510,510,510,510,510,510,510,510,510,510,510,510,510,510,510,510,510,510,510,510,510,510,510,510,510,510,510,510,510,510,510,510,510,510,510,510,510,510,510,510,510,510,510,510,510,510,510,510,510,510,510,510,510,510,510,510,510,510,510,510,510,510,510,510,510,510,510,510,510,510,510,510,510,510,510,510,510,510,510,510,510,510,510,510,510,510,510,510,510,510,510,510,510,510,510,510,510,510,510,510,510,510,510,510,510,510,510,510,510,510,510,510,510,510,510,510,510,510,510,510,510,510,510,510,510,510,510,510,510,510,510,510,510,510,510,510,510,510,510,510,510,510,510,510,510,510,510,510,510,510,510,510,510,510,510,510,510,510,510,510,510,510,510,510,510,510,510,510,510,510,510,510,510,510,510,510,510,510,510,510,510,510,510,510,510,510,510,510,510,510,510,510,510,510,510,510,510,510,510,510,510,510,510,510,510,510,510,510,510,510,510,510,510,510,510,510,510,510,510,510,510,510,510,510,510,510,510,510,510,510,510,510,510,510,510,510,510,510,510,510,510,510,510,510,510,510,510,510,510,510,510,510,510,510,510,510,510,510,510,510,510,510,510,510,510,510,510,510,510,510,510,510,510,510,510,510,510,510,510,510,510,510,510,510,510,510,510,510,510,510,510,510,510,510,510,510,510,510,510,510,510,510,510,510,510,510,510,510,510,510,510,510,510,510,510,510,510,510,510,510,510,510,510,510,510,510,510,510,510,510,510,510,510,510,510,510,510,510,510,510,510,510,510,510,510,510,510,510,510,510,510,510,510,510,510,510,510,510,510,510,510,510,510,510,510,510,510,510,510,510,510,510,510,510,510,510,510,510,510,510,510,510,510,510,510,510,510,510,510,510,510,510,510,510,510,510,510,510,510,510,510,510,510,510,510,510,510,510,510,510,510,510,510,510,510,510,510,510,510,510,510,510,510,510,510,510,510,510,510,510,510,510,510,510,510,510,510,510,510,510,510,510,510,510,510,510,510,510,510,510,510,510,510,510,510,510,510,510,510,510,510,510,510,510,510,510,510,510,510,510,510,510,510,510,510,510,510,510,510,510,510,510,510,510,510,510,510,510,510,510,510,510,510,510,510,510,510,510,510,510,510,510,510,510,510,510,510,510,510,510,510,510,510,510,510,510,510,510,510,510,510,510,510,510,510,510,510,510,510,510,510,510,510,510,510,510,510,510,510,510,510,510,510,510,510,510,510,510,510,510,510,510,510,510,510,510,510,510,510,510,510,510,510,510,510,510,510,510,510,510,510,510,510,510,510,510,510,510,510,510,510,510,510,510,510,510,510,510,510,510,510,510,510,510,510,510,510,510,510,510,510,510,510,510,510,510,510,510,510,510,510,510,510,510,510,510,510,510,510,510,510,510,510,510,510,510,510,510,510,510,510,510,510,510,510,510,510,510,510,510,510,510,510,510,510,510,510,510,510,510,510,510,510,510,510,510,510,510,510,510,510,510,510,510,510,510,497,485,467,459,442,428,412,398,376,367,358,346,330,259,211,160,114,67],"timestamp_mouse":[12,31,52,72,91,111,131,151,172,192,211,231,253,273,292,312,331,353,371,391,411,432,452,473,492,511,531,551,573,592,612,632,652,672,693,712,732,753,773,792,812,831,851,872,892,912,932,953,972,992,1011,1031,1052,1073,1092,1112,1132,1151,1171,1192,1212,1231,1252,1273,1291,1312,1331,1352,1373,1393,1411,1431,1451,1472,1492,1513,1532,1551,1573,1591,1613,1632,1652,1672,1691,1712,1731,1752,1773,1792,1811,1831,1852,1872,1892,1912,1932,1952,1972,1991,2013,2032,2052,2071,2091,2111,2131,2151,2172,2192,2213,2232,2251,2272,2292,2312,2332,2352,2372,2