[{"start_time":1551800646584,"click_time":1551800648282,"finger_time":1551800647660,"fix_duration":480.1439000925629,"trial":0,"RT":1076,"MT":622,"sideResp":2,"stimulus":[],"xmouse":[780,780,780,780,780,780,781,781,782,782,782,783,784,784,785,786,786,786,786,786,786,786,786,786,786,786,786,786,786,786,787,788,788,788,788,788,788,788,788,788,788,788,788,788,788,788,788,788,788,788,788,788,805,816,820,823,828,848,861,872,877,881,885,891,905,921,958,979,985,990,994,1006,1015,1024,1032,1040,1050,1056,1059,1061,1063,1065,1067,1068],"ymouse":[490,490,490,490,490,490,489,489,489,489,489,488,487,486,483,482,481,481,481,481,481,481,481,481,481,481,481,481,481,478,474,470,469,468,468,468,466,465,464,464,464,464,464,464,464,464,464,464,464,464,464,462,421,388,363,336,310,239,220,208,205,202,201,199,196,193,188,183,180,179,179,176,171,166,162,158,149,139,132,125,117,104,100,96],"timestamp_mouse":[40,57,77,96,116,137,156,176,196,215,237,256,276,295,316,336,357,376,397,416,435,456,476,495,517,535,555,577,596,616,636,656,676,697,716,737,757,777,796,816,836,856,875,895,917,936,955,976,997,1016,1036,1056,1076,1096,1116,1135,1156,1177,1195,1217,1235,1257,1276,1296,1316,1337,1356,1377,1396,1415,1437,1455,1476,1496,1515,1537,1556,1577,1596,1617,1636,1656,1676,1697],"xSR":733.5,"ySR":461.5,"xT1":420.09999999999997,"yT1":0,"xT2":1046.8999999999999,"yT2":0,"toosoon":0,"cond_shown":"Congruent","ratio_trial":300,"L_num":1,"L_den":5,"R_num":3,"R_den":6,"correct_side":2,"subjID":"DanielFelipeArtunduagaEscobar39","gender":"0","age":"11","school":"colegiocafam","test":{"fix_dur":[250,1500],"timestim":1000,"targets_dim":[100,100],"targets_relative_coord":[0.3,0.7],"size_stim":[880,420],"start_dim":[100,100],"size_start":[300,300],"size_fix":60,"samplingrate":20,"img_types":["Congruent","Incongruent"],"ratios":[100,200,300],"rep_conds":19,"nTrials":120,"trials_to_rest":500,"Trials_order":[70,26,101,51,68,15,53,3,97,71,35,22,119,67,92,16,38,29,30,34,1,84,105,89,116,20,44,5,66,0,108,62,69,115,81,103,18,11,85,117,7,24,56,58,39,2,80,4,46,37,23,17,99,54,43,94,41,63,98,100,109,50,21,42,55,72,27,40,13,118,45,73,79,25,47,91,59,60,14,33,6,52,106,31,86,65,114,78,93,10,74,76,8,9,61,77,57,88,36,49,48,28,111,12,113,95,32,110,75,107,96,82,83,104,19,64,112,87,102,90],"cond_shown":["Congruent","Congruent","Incongruent","Incongruent","Congruent","Incongruent","Incongruent","Incongruent","Incongruent","Incongruent","Incongruent","Congruent","Incongruent","Incongruent","Congruent","Congruent","Congruent","Incongruent","Congruent","Congruent","Incongruent","Congruent","Incongruent","Incongruent","Congruent","Congruent","Congruent","Incongruent","Congruent","Congruent","Congruent","Congruent","Incongruent","Incongruent","Incongruent","Incongruent","Congruent","Incongruent","Incongruent","Incongruent","Incongruent","Congruent","Congruent","Congruent","Incongruent","Congruent","Congruent","Congruent","Congruent","Incongruent","Incongruent","Incongruent","Incongruent","Congruent","Incongruent","Congruent","Incongruent","Incongruent","Congruent","Congruent","Incongruent","Congruent","Incongruent","Congruent","Incongruent","Congruent","Incongruent","Congruent","Incongruent","Congruent","Incongruent","Incongruent","Incongruent","Incongruent","Incongruent","Incongruent","Incongruent","Congruent","Congruent","Incongruent","Congruent","Congruent","Congruent","Incongruent","Congruent","Incongruent","Congruent","Congruent","Incongruent","Congruent","Congruent","Congruent","Congruent","Incongruent","Incongruent","Incongruent","Incongruent","Congruent","Congruent","Incongruent","Congruent","Congruent","Incongruent","Congruent","Incongruent","Incongruent","Congruent","Congruent","Incongruent","Incongruent","Congruent","Congruent","Incongruent","Congruent","Incongruent","Congruent","Congruent","Incongruent","Congruent","Congruent"],"ratio_trial":[300,200,300,200,200,200,300,200,100,300,300,300,300,100,200,300,200,300,100,300,100,100,200,300,200,200,200,300,100,100,100,200,200,100,200,100,100,300,100,200,100,100,200,300,200,200,200,300,300,100,300,300,200,100,100,300,300,200,200,300,100,200,200,100,100,100,200,300,100,300,200,100,100,100,300,100,300,100,200,200,100,300,300,100,200,300,100,100,200,300,200,300,200,200,100,300,200,300,100,100,100,300,200,100,300,300,200,200,200,300,100,300,300,200,100,300,300,200,100,100],"left_num":[1,6,4,1,6,4,2,3,2,4,13,2,4,8,4,5,3,7,7,18,10,4,6,7,3,21,3,4,6,4,7,21,7,10,3,10,3,2,9,1,6,1,3,18,1,8,7,1,4,6,4,4,4,8,6,8,13,4,11,5,9,3,6,1,13,7,3,2,10,2,4,8,6,2,4,10,1,7,12,9,4,3,5,2,16,4,2,2,7,24,16,12,21,6,9,8,7,1,3,11,1,3,4,6,4,13,6,3,7,7,12,4,13,9,12,11,5,14,8,15],"right_num":[3,7,6,2,3,1,6,1,6,2,12,10,2,6,3,6,11,8,9,9,9,15,3,8,14,2,14,2,15,15,15,2,14,9,11,9,2,6,14,3,3,3,9,9,2,7,2,11,2,13,2,2,14,2,11,1,12,6,3,6,13,7,3,18,12,15,11,10,9,10,1,1,11,8,2,8,2,9,6,8,15,4,6,6,9,6,6,11,12,2,9,2,2,3,13,14,12,3,4,9,3,4,14,5,2,12,3,11,12,8,13,2,12,4,2,1,7,12,2,13],"left_den":[5,12,5,3,15,30,4,10,4,20,26,20,20,16,10,25,10,10,14,20,25,10,20,10,10,30,10,20,12,10,14,30,10,25,4,25,6,4,15,2,12,2,12,20,3,15,21,5,5,10,20,20,6,16,10,16,26,5,22,25,15,10,20,2,26,14,4,20,25,20,30,20,10,4,20,25,2,14,20,15,10,6,25,4,30,5,5,5,10,30,30,24,30,20,15,10,10,5,20,22,2,6,6,20,20,26,15,10,10,10,30,5,26,20,30,22,25,30,16,25],"right_den":[6,10,12,15,15,3,30,2,15,4,15,25,4,10,15,12,22,20,15,15,18,30,6,20,28,4,28,4,25,30,25,4,28,18,20,18,5,30,28,10,5,5,20,15,15,21,15,22,4,26,4,4,30,5,22,5,15,10,10,12,26,14,6,30,20,25,20,25,18,25,3,2,22,20,4,16,10,15,15,10,30,5,12,15,27,12,12,22,24,4,27,10,4,6,26,28,24,6,16,15,5,5,30,25,4,15,15,22,24,20,26,4,15,16,4,5,14,18,5,26],"correct_side":[2,2,1,1,1,2,1,2,1,2,2,2,2,2,1,2,2,1,2,1,2,2,2,1,2,1,2,2,2,2,2,1,1,2,1,2,1,1,1,1,2,2,2,1,1,1,1,2,1,1,2,2,1,1,1,1,2,1,1,2,1,2,2,2,2,2,1,2,2,2,2,2,1,1,2,2,1,2,1,2,2,2,2,1,1,1,2,2,1,1,1,1,1,2,1,1,1,2,2,2,2,2,1,1,2,2,1,2,1,1,2,1,2,1,2,1,2,2,1,1],"img_shown":["img2/300/Congruent/R/C_Dist_300_LN_1_LD_5_RN_3_RD_6_1.png","img2/200/Congruent/R/C_Dist_200_LN_6_LD_12_RN_7_RD_10_1.png","img2/300/Incongruent/L/I_Dist_300_LN_4_LD_5_RN_6_RD_12_0.png","img2/200/Incongruent/L/I_Dist_200_LN_1_LD_3_RN_2_RD_15_0.png","img2/200/Congruent/L/C_Dist_200_LN_6_LD_15_RN_3_RD_15_0.png","img2/200/Incongruent/R/I_Dist_200_LN_4_LD_30_RN_1_RD_3_1.png","img2/300/Incongruent/L/I_Dist_300_LN_2_LD_4_RN_6_RD_30_0.png","img2/200/Incongruent/R/I_Dist_200_LN_3_LD_10_RN_1_RD_2_1.png","img2/100/Incongruent/L/I_Dist_100_LN_2_LD_4_RN_6_RD_15_0.png","img2/300/Incongruent/R/I_Dist_300_LN_4_LD_20_RN_2_RD_4_1.png","img2/300/Incongruent/R/I_Dist_300_LN_13_LD_26_RN_12_RD_15_1.png","img2/300/Congruent/R/C_Dist_300_LN_2_LD_20_RN_10_RD_25_1.png","img2/300/Incongruent/R/I_Dist_300_LN_4_LD_20_RN_2_RD_4_1.png","img2/100/Incongruent/R/I_Dist_100_LN_8_LD_16_RN_6_RD_10_1.png","img2/200/Congruent/L/C_Dist_200_LN_4_LD_10_RN_3_RD_15_0.png","img2/300/Congruent/R/C_Dist_300_LN_5_LD_25_RN_6_RD_12_1.png","img2/200/Congruent/R/C_Dist_200_LN_3_LD_10_RN_11_RD_22_1.png","img2/300/Incongruent/L/I_Dist_300_LN_7_LD_10_RN_8_RD_20_0.png","img2/100/Congruent/R/C_Dist_100_LN_7_LD_14_RN_9_RD_15_1.png","img2/300/Congruent/L/C_Dist_300_LN_18_LD_20_RN_9_RD_15_0.png","img2/100/Incongruent/R/I_Dist_100_LN_10_LD_25_RN_9_RD_18_1.png","img2/100/Congruent/R/C_Dist_100_LN_4_LD_10_RN_15_RD_30_1.png","img2/200/Incongruent/R/I_Dist_200_LN_6_LD_20_RN_3_RD_6_1.png","img2/300/Incongruent/L/I_Dist_300_LN_7_LD_10_RN_8_RD_20_0.png","img2/200/Congruent/R/C_Dist_200_LN_3_LD_10_RN_14_RD_28_1.png","img2/200/Congruent/L/C_Dist_200_LN_21_LD_30_RN_2_RD_4_0.png","img2/200/Congruent/R/C_Dist_200_LN_3_LD_10_RN_14_RD_28_1.png","img2/300/Incongruent/R/I_Dist_300_LN_4_LD_20_RN_2_RD_4_1.png","img2/100/Congruent/R/C_Dist_100_LN_6_LD_12_RN_15_RD_25_1.png","img2/100/Congruent/R/C_Dist_100_LN_4_LD_10_RN_15_RD_30_1.png","img2/100/Congruent/R/C_Dist_100_LN_7_LD_14_RN_15_RD_25_1.png","img2/200/Congruent/L/C_Dist_200_LN_21_LD_30_RN_2_RD_4_0.png","img2/200/Incongruent/L/I_Dist_200_LN_7_LD_10_RN_14_RD_28_0.png","img2/100/Incongruent/R/I_Dist_100_LN_10_LD_25_RN_9_RD_18_1.png","img2/200/Incongruent/L/I_Dist_200_LN_3_LD_4_RN_11_RD_20_0.png","img2/100/Incongruent/R/I_Dist_100_LN_10_LD_25_RN_9_RD_18_1.png","img2/100/Congruent/L/C_Dist_100_LN_3_LD_6_RN_2_RD_5_0.png","img2/300/Incongruent/L/I_Dist_300_LN_2_LD_4_RN_6_RD_30_0.png","img2/100/Incongruent/L/I_Dist_100_LN_9_LD_15_RN_14_RD_28_0.png","img2/200/Incongruent/L/I_Dist_200_LN_1_LD_2_RN_3_RD_10_0.png","img2/100/Incongruent/R/I_Dist_100_LN_6_LD_12_RN_3_RD_5_1.png","img2/100/Congruent/R/C_Dist_100_LN_1_LD_2_RN_3_RD_5_1.png","img2/200/Congruent/R/C_Dist_200_LN_3_LD_12_RN_9_RD_20_1.png","img2/300/Congruent/L/C_Dist_300_LN_18_LD_20_RN_9_RD_15_0.png","img2/200/Incongruent/L/I_Dist_200_LN_1_LD_3_RN_2_RD_15_0.png","img2/200/Congruent/L/C_Dist_200_LN_8_LD_15_RN_7_RD_21_0.png","img2/200/Congruent/L/C_Dist_200_LN_7_LD_21_RN_2_RD_15_0.png","img2/300/Congruent/R/C_Dist_300_LN_1_LD_5_RN_11_RD_22_1.png","img2/300/Congruent/L/C_Dist_300_LN_4_LD_5_RN_2_RD_4_0.png","img2/100/Incongruent/L/I_Dist_100_LN_6_LD_10_RN_13_RD_26_0.png","img2/300/Incongruent/R/I_Dist_300_LN_4_LD_20_RN_2_RD_4_1.png","img2/300/Incongruent/R/I_Dist_300_LN_4_LD_20_RN_2_RD_4_1.png","img2/200/Incongruent/L/I_Dist_200_LN_4_LD_6_RN_14_RD_30_0.png","img2/100/Congruent/L/C_Dist_100_LN_8_LD_16_RN_2_RD_5_0.png","img2/100/Incongruent/L/I_Dist_100_LN_6_LD_10_RN_11_RD_22_0.png","img2/300/Congruent/L/C_Dist_300_LN_8_LD_16_RN_1_RD_5_0.png","img2/300/Incongruent/R/I_Dist_300_LN_13_LD_26_RN_12_RD_15_1.png","img2/200/Incongruent/L/I_Dist_200_LN_4_LD_5_RN_6_RD_10_0.png","img2/200/Congruent/L/C_Dist_200_LN_11_LD_22_RN_3_RD_10_0.png","img2/300/Congruent/R/C_Dist_300_LN_5_LD_25_RN_6_RD_12_1.png","img2/100/Incongruent/L/I_Dist_100_LN_9_LD_15_RN_13_RD_26_0.png","img2/200/Congruent/R/C_Dist_200_LN_3_LD_10_RN_7_RD_14_1.png","img2/200/Incongruent/R/I_Dist_200_LN_6_LD_20_RN_3_RD_6_1.png","img2/100/Congruent/R/C_Dist_100_LN_1_LD_2_RN_18_RD_30_1.png","img2/100/Incongruent/R/I_Dist_100_LN_13_LD_26_RN_12_RD_20_1.png","img2/100/Congruent/R/C_Dist_100_LN_7_LD_14_RN_15_RD_25_1.png","img2/200/Incongruent/L/I_Dist_200_LN_3_LD_4_RN_11_RD_20_0.png","img2/300/Congruent/R/C_Dist_300_LN_2_LD_20_RN_10_RD_25_1.png","img2/100/Incongruent/R/I_Dist_100_LN_10_LD_25_RN_9_RD_18_1.png","img2/300/Congruent/R/C_Dist_300_LN_2_LD_20_RN_10_RD_25_1.png","img2/200/Incongruent/R/I_Dist_200_LN_4_LD_30_RN_1_RD_3_1.png","img2/100/Incongruent/R/I_Dist_100_LN_8_LD_20_RN_1_RD_2_1.png","img2/100/Incongruent/L/I_Dist_100_LN_6_LD_10_RN_11_RD_22_0.png","img2/100/Incongruent/L/I_Dist_100_LN_2_LD_4_RN_8_RD_20_0.png","img2/300/Incongruent/R/I_Dist_300_LN_4_LD_20_RN_2_RD_4_1.png","img2/100/Incongruent/R/I_Dist_100_LN_10_LD_25_RN_8_RD_16_1.png","img2/300/Incongruent/L/I_Dist_300_LN_1_LD_2_RN_2_RD_10_0.png","img2/100/Congruent/R/C_Dist_100_LN_7_LD_14_RN_9_RD_15_1.png","img2/200/Congruent/L/C_Dist_200_LN_12_LD_20_RN_6_RD_15_0.png","img2/200/Incongruent/R/I_Dist_200_LN_9_LD_15_RN_8_RD_10_1.png","img2/100/Congruent/R/C_Dist_100_LN_4_LD_10_RN_15_RD_30_1.png","img2/300/Congruent/R/C_Dist_300_LN_3_LD_6_RN_4_RD_5_1.png","img2/300/Congruent/R/C_Dist_300_LN_5_LD_25_RN_6_RD_12_1.png","img2/100/Incongruent/L/I_Dist_100_LN_2_LD_4_RN_6_RD_15_0.png","img2/200/Congruent/L/C_Dist_200_LN_16_LD_30_RN_9_RD_27_0.png","img2/300/Incongruent/L/I_Dist_300_LN_4_LD_5_RN_6_RD_12_0.png","img2/100/Congruent/R/C_Dist_100_LN_2_LD_5_RN_6_RD_12_1.png","img2/100/Congruent/R/C_Dist_100_LN_2_LD_5_RN_11_RD_22_1.png","img2/200/Incongruent/L/I_Dist_200_LN_7_LD_10_RN_12_RD_24_0.png","img2/300/Congruent/L/C_Dist_300_LN_24_LD_30_RN_2_RD_4_0.png","img2/200/Congruent/L/C_Dist_200_LN_16_LD_30_RN_9_RD_27_0.png","img2/300/Congruent/L/C_Dist_300_LN_12_LD_24_RN_2_RD_10_0.png","img2/200/Congruent/L/C_Dist_200_LN_21_LD_30_RN_2_RD_4_0.png","img2/200/Incongruent/R/I_Dist_200_LN_6_LD_20_RN_3_RD_6_1.png","img2/100/Incongruent/L/I_Dist_100_LN_9_LD_15_RN_13_RD_26_0.png","img2/300/Incongruent/L/I_Dist_300_LN_8_LD_10_RN_14_RD_28_0.png","img2/200/Incongruent/L/I_Dist_200_LN_7_LD_10_RN_12_RD_24_0.png","img2/300/Congruent/R/C_Dist_300_LN_1_LD_5_RN_3_RD_6_1.png","img2/100/Congruent/R/C_Dist_100_LN_3_LD_20_RN_4_RD_16_1.png","img2/100/Incongruent/R/I_Dist_100_LN_11_LD_22_RN_9_RD_15_1.png","img2/100/Congruent/R/C_Dist_100_LN_1_LD_2_RN_3_RD_5_1.png","img2/300/Congruent/R/C_Dist_300_LN_3_LD_6_RN_4_RD_5_1.png","img2/200/Incongruent/L/I_Dist_200_LN_4_LD_6_RN_14_RD_30_0.png","img2/100/Congruent/L/C_Dist_100_LN_6_LD_20_RN_5_RD_25_0.png","img2/300/Incongruent/R/I_Dist_300_LN_4_LD_20_RN_2_RD_4_1.png","img2/300/Incongruent/R/I_Dist_300_LN_13_LD_26_RN_12_RD_15_1.png","img2/200/Congruent/L/C_Dist_200_LN_6_LD_15_RN_3_RD_15_0.png","img2/200/Congruent/R/C_Dist_200_LN_3_LD_10_RN_11_RD_22_1.png","img2/200/Incongruent/L/I_Dist_200_LN_7_LD_10_RN_12_RD_24_0.png","img2/300/Incongruent/L/I_Dist_300_LN_7_LD_10_RN_8_RD_20_0.png","img2/100/Congruent/R/C_Dist_100_LN_12_LD_30_RN_13_RD_26_1.png","img2/300/Congruent/L/C_Dist_300_LN_4_LD_5_RN_2_RD_4_0.png","img2/300/Incongruent/R/I_Dist_300_LN_13_LD_26_RN_12_RD_15_1.png","img2/200/Congruent/L/C_Dist_200_LN_9_LD_20_RN_4_RD_16_0.png","img2/100/Incongruent/R/I_Dist_100_LN_12_LD_30_RN_2_RD_4_1.png","img2/300/Congruent/L/C_Dist_300_LN_11_LD_22_RN_1_RD_5_0.png","img2/300/Congruent/R/C_Dist_300_LN_5_LD_25_RN_7_RD_14_1.png","img2/200/Incongruent/R/I_Dist_200_LN_14_LD_30_RN_12_RD_18_1.png","img2/100/Congruent/L/C_Dist_100_LN_8_LD_16_RN_2_RD_5_0.png","img2/100/Congruent/L/C_Dist_100_LN_15_LD_25_RN_13_RD_26_0.png"],"dist100_C":[["C_Dist_100_LN_10_LD_25_RN_3_RD_10_0.png","C_Dist_100_LN_11_LD_22_RN_4_RD_10_0.png","C_Dist_100_LN_11_LD_22_RN_6_RD_15_0.png","C_Dist_100_LN_15_LD_25_RN_13_RD_26_0.png","C_Dist_100_LN_3_LD_6_RN_2_RD_5_0.png","C_Dist_100_LN_6_LD_20_RN_5_RD_25_0.png","C_Dist_100_LN_8_LD_16_RN_2_RD_5_0.png","C_Dist_100_LN_9_LD_15_RN_8_RD_16_0.png"],["C_Dist_100_LN_1_LD_2_RN_18_RD_30_1.png","C_Dist_100_LN_1_LD_2_RN_3_RD_5_1.png","C_Dist_100_LN_12_LD_30_RN_13_RD_26_1.png","C_Dist_100_LN_2_LD_5_RN_11_RD_22_1.png","C_Dist_100_LN_2_LD_5_RN_6_RD_12_1.png","C_Dist_100_LN_3_LD_20_RN_4_RD_16_1.png","C_Dist_100_LN_4_LD_10_RN_15_RD_30_1.png","C_Dist_100_LN_4_LD_8_RN_6_RD_10_1.png","C_Dist_100_LN_6_LD_12_RN_15_RD_25_1.png","C_Dist_100_LN_7_LD_14_RN_15_RD_25_1.png","C_Dist_100_LN_7_LD_14_RN_9_RD_15_1.png"]],"dist100_I":[["I_Dist_100_LN_1_LD_2_RN_8_RD_20_0.png","I_Dist_100_LN_2_LD_4_RN_6_RD_15_0.png","I_Dist_100_LN_2_LD_4_RN_8_RD_20_0.png","I_Dist_100_LN_3_LD_5_RN_11_RD_22_0.png","I_Dist_100_LN_3_LD_5_RN_8_RD_16_0.png","I_Dist_100_LN_3_LD_6_RN_4_RD_10_0.png","I_Dist_100_LN_3_LD_9_RN_7_RD_30_0.png","I_Dist_100_LN_4_LD_8_RN_8_RD_20_0.png","I_Dist_100_LN_6_LD_10_RN_11_RD_22_0.png","I_Dist_100_LN_6_LD_10_RN_13_RD_26_0.png","I_Dist_100_LN_6_LD_10_RN_7_RD_14_0.png","I_Dist_100_LN_9_LD_10_RN_20_RD_25_0.png","I_Dist_100_LN_9_LD_15_RN_13_RD_26_0.png","I_Dist_100_LN_9_LD_15_RN_14_RD_28_0.png"],["I_Dist_100_LN_10_LD_25_RN_8_RD_16_1.png","I_Dist_100_LN_10_LD_25_RN_9_RD_18_1.png","I_Dist_100_LN_11_LD_22_RN_9_RD_15_1.png","I_Dist_100_LN_12_LD_24_RN_9_RD_15_1.png","I_Dist_100_LN_12_LD_30_RN_2_RD_4_1.png","I_Dist_100_LN_13_LD_26_RN_12_RD_20_1.png","I_Dist_100_LN_13_LD_26_RN_6_RD_10_1.png","I_Dist_100_LN_17_LD_30_RN_10_RD_15_1.png","I_Dist_100_LN_6_LD_12_RN_3_RD_5_1.png","I_Dist_100_LN_8_LD_16_RN_6_RD_10_1.png","I_Dist_100_LN_8_LD_20_RN_1_RD_2_1.png","I_Dist_100_LN_9_LD_18_RN_6_RD_10_1.png"]],"dist100_S":[["E_Dist_100_LN_2_LD_12_RN_2_RD_30_0.png","E_Dist_100_LN_6_LD_10_RN_6_RD_12_0.png"],["E_Dist_100_LN_6_LD_12_RN_6_RD_10_1.png"]],"dist200_C":[["C_Dist_200_LN_11_LD_22_RN_3_RD_10_0.png","C_Dist_200_LN_12_LD_15_RN_6_RD_10_0.png","C_Dist_200_LN_12_LD_20_RN_6_RD_15_0.png","C_Dist_200_LN_14_LD_28_RN_6_RD_20_0.png","C_Dist_200_LN_15_LD_25_RN_4_RD_10_0.png","C_Dist_200_LN_16_LD_20_RN_12_RD_20_0.png","C_Dist_200_LN_16_LD_30_RN_9_RD_27_0.png","C_Dist_200_LN_20_LD_25_RN_9_RD_15_0.png","C_Dist_200_LN_21_LD_30_RN_2_RD_4_0.png","C_Dist_200_LN_4_LD_10_RN_3_RD_15_0.png","C_Dist_200_LN_4_LD_8_RN_3_RD_10_0.png","C_Dist_200_LN_6_LD_15_RN_3_RD_15_0.png","C_Dist_200_LN_7_LD_21_RN_2_RD_15_0.png","C_Dist_200_LN_8_LD_15_RN_2_RD_6_0.png","C_Dist_200_LN_8_LD_15_RN_3_RD_9_0.png","C_Dist_200_LN_8_LD_15_RN_7_RD_21_0.png","C_Dist_200_LN_9_LD_20_RN_4_RD_16_0.png"],["C_Dist_200_LN_1_LD_2_RN_21_RD_30_1.png","C_Dist_200_LN_13_LD_26_RN_14_RD_20_1.png","C_Dist_200_LN_3_LD_10_RN_11_RD_22_1.png","C_Dist_200_LN_3_LD_10_RN_14_RD_28_1.png","C_Dist_200_LN_3_LD_10_RN_7_RD_14_1.png","C_Dist_200_LN_3_LD_12_RN_9_RD_20_1.png","C_Dist_200_LN_3_LD_6_RN_14_RD_20_1.png","C_Dist_200_LN_5_LD_10_RN_14_RD_20_1.png","C_Dist_200_LN_6_LD_12_RN_7_RD_10_1.png","C_Dist_200_LN_6_LD_20_RN_11_RD_22_1.png","C_Dist_200_LN_7_LD_15_RN_18_RD_27_1.png","C_Dist_200_LN_9_LD_30_RN_13_RD_26_1.png"]],"dist200_I":[["I_Dist_200_LN_1_LD_2_RN_3_RD_10_0.png","I_Dist_200_LN_1_LD_3_RN_2_RD_15_0.png","I_Dist_200_LN_3_LD_4_RN_11_RD_20_0.png","I_Dist_200_LN_4_LD_5_RN_6_RD_10_0.png","I_Dist_200_LN_4_LD_6_RN_14_RD_30_0.png","I_Dist_200_LN_7_LD_10_RN_12_RD_24_0.png","I_Dist_200_LN_7_LD_10_RN_14_RD_28_0.png","I_Dist_200_LN_7_LD_10_RN_8_RD_16_0.png"],["I_Dist_200_LN_11_LD_20_RN_3_RD_4_1.png","I_Dist_200_LN_14_LD_30_RN_12_RD_18_1.png","I_Dist_200_LN_14_LD_30_RN_6_RD_9_1.png","I_Dist_200_LN_3_LD_10_RN_1_RD_2_1.png","I_Dist_200_LN_4_LD_30_RN_1_RD_3_1.png","I_Dist_200_LN_6_LD_20_RN_3_RD_6_1.png","I_Dist_200_LN_7_LD_15_RN_4_RD_6_1.png","I_Dist_200_LN_7_LD_15_RN_6_RD_9_1.png","I_Dist_200_LN_9_LD_15_RN_8_RD_10_1.png"]],"dist200_S":[["E_Dist_200_LN_3_LD_6_RN_3_RD_10_0.png"],["E_Dist_200_LN_3_LD_10_RN_3_RD_6_1.png"]],"dist300_C":[["C_Dist_300_LN_11_LD_22_RN_1_RD_5_0.png","C_Dist_300_LN_11_LD_22_RN_2_RD_10_0.png","C_Dist_300_LN_11_LD_22_RN_4_RD_20_0.png","C_Dist_300_LN_12_LD_24_RN_2_RD_10_0.png","C_Dist_300_LN_18_LD_20_RN_9_RD_15_0.png","C_Dist_300_LN_20_LD_25_RN_13_RD_26_0.png","C_Dist_300_LN_20_LD_25_RN_14_RD_28_0.png","C_Dist_300_LN_20_LD_25_RN_5_RD_10_0.png","C_Dist_300_LN_20_LD_25_RN_8_RD_16_0.png","C_Dist_300_LN_20_LD_25_RN_9_RD_18_0.png","C_Dist_300_LN_24_LD_30_RN_2_RD_4_0.png","C_Dist_300_LN_24_LD_30_RN_8_RD_16_0.png","C_Dist_300_LN_3_LD_6_RN_2_RD_10_0.png","C_Dist_300_LN_4_LD_10_RN_1_RD_10_0.png","C_Dist_300_LN_4_LD_5_RN_2_RD_4_0.png","C_Dist_300_LN_8_LD_16_RN_1_RD_5_0.png","C_Dist_300_LN_9_LD_10_RN_3_RD_5_0.png"],["C_Dist_300_LN_1_LD_20_RN_7_RD_20_1.png","C_Dist_300_LN_1_LD_3_RN_19_RD_30_1.png","C_Dist_300_LN_1_LD_30_RN_8_RD_24_1.png","C_Dist_300_LN_1_LD_5_RN_11_RD_22_1.png","C_Dist_300_LN_1_LD_5_RN_3_RD_6_1.png","C_Dist_300_LN_1_LD_5_RN_6_RD_12_1.png","C_Dist_300_LN_2_LD_10_RN_12_RD_24_1.png","C_Dist_300_LN_2_LD_20_RN_10_RD_25_1.png","C_Dist_300_LN_3_LD_12_RN_11_RD_20_1.png","C_Dist_300_LN_3_LD_6_RN_4_RD_5_1.png","C_Dist_300_LN_4_LD_20_RN_13_RD_26_1.png","C_Dist_300_LN_5_LD_25_RN_6_RD_12_1.png","C_Dist_300_LN_5_LD_25_RN_7_RD_14_1.png","C_Dist_300_LN_7_LD_14_RN_20_RD_25_1.png","C_Dist_300_LN_8_LD_15_RN_10_RD_12_1.png"]],"dist300_I":[["I_Dist_300_LN_1_LD_2_RN_2_RD_10_0.png","I_Dist_300_LN_1_LD_2_RN_3_RD_15_0.png","I_Dist_300_LN_2_LD_4_RN_6_RD_30_0.png","I_Dist_300_LN_3_LD_6_RN_4_RD_20_0.png","I_Dist_300_LN_4_LD_5_RN_6_RD_12_0.png","I_Dist_300_LN_4_LD_5_RN_8_RD_16_0.png","I_Dist_300_LN_7_LD_10_RN_8_RD_20_0.png","I_Dist_300_LN_8_LD_10_RN_14_RD_28_0.png","I_Dist_300_LN_8_LD_10_RN_9_RD_18_0.png"],["I_Dist_300_LN_13_LD_26_RN_12_RD_15_1.png","I_Dist_300_LN_4_LD_20_RN_2_RD_4_1.png"]],"dist300_S":[["E_Dist_300_LN_9_LD_12_RN_9_RD_20_0.png"],["E_Dist_300_LN_18_LD_30_RN_18_RD_20_1.png","E_Dist_300_LN_3_LD_10_RN_3_RD_5_1.png","E_Dist_300_LN_9_LD_20_RN_9_RD_12_1.png"]],"dist500_C":[["C_Dist_500_LN_10_LD_13_RN_7_RD_26_0.png","C_Dist_500_LN_10_LD_15_RN_4_RD_24_0.png","C_Dist_500_LN_12_LD_16_RN_3_RD_12_0.png","C_Dist_500_LN_12_LD_18_RN_4_RD_24_0.png","C_Dist_500_LN_15_LD_18_RN_5_RD_15_0.png","C_Dist_500_LN_15_LD_20_RN_1_RD_4_0.png","C_Dist_500_LN_18_LD_27_RN_1_RD_6_0.png","C_Dist_500_LN_20_LD_24_RN_1_RD_3_0.png","C_Dist_500_LN_20_LD_24_RN_3_RD_9_0.png","C_Dist_500_LN_20_LD_24_RN_7_RD_21_0.png","C_Dist_500_LN_20_LD_28_RN_3_RD_14_0.png","C_Dist_500_LN_21_LD_28_RN_6_RD_24_0.png","C_Dist_500_LN_22_LD_28_RN_2_RD_7_0.png","C_Dist_500_LN_25_LD_30_RN_9_RD_27_0.png","C_Dist_500_LN_4_LD_6_RN_1_RD_6_0.png","C_Dist_500_LN_5_LD_6_RN_2_RD_6_0.png","C_Dist_500_LN_6_LD_9_RN_1_RD_6_0.png","C_Dist_500_LN_7_LD_10_RN_1_RD_5_0.png","C_Dist_500_LN_8_LD_12_RN_1_RD_6_0.png","C_Dist_500_LN_8_LD_12_RN_4_RD_24_0.png"],["C_Dist_500_LN_1_LD_4_RN_12_RD_16_1.png","C_Dist_500_LN_1_LD_4_RN_9_RD_12_1.png","C_Dist_500_LN_1_LD_9_RN_11_RD_18_1.png","C_Dist_500_LN_10_LD_24_RN_22_RD_24_1.png","C_Dist_500_LN_2_LD_12_RN_10_RD_15_1.png","C_Dist_500_LN_2_LD_12_RN_12_RD_18_1.png","C_Dist_500_LN_2_LD_12_RN_4_RD_6_1.png","C_Dist_500_LN_2_LD_24_RN_7_RD_12_1.png","C_Dist_500_LN_2_LD_5_RN_18_RD_20_1.png","C_Dist_500_LN_2_LD_5_RN_9_RD_10_1.png","C_Dist_500_LN_2_LD_8_RN_12_RD_16_1.png","C_Dist_500_LN_2_LD_8_RN_21_RD_28_1.png","C_Dist_500_LN_3_LD_10_RN_4_RD_5_1.png","C_Dist_500_LN_3_LD_12_RN_15_RD_20_1.png","C_Dist_500_LN_3_LD_30_RN_6_RD_10_1.png","C_Dist_500_LN_3_LD_8_RN_14_RD_16_1.png","C_Dist_500_LN_4_LD_16_RN_15_RD_20_1.png","C_Dist_500_LN_4_LD_24_RN_12_RD_18_1.png","C_Dist_500_LN_5_LD_14_RN_6_RD_7_1.png","C_Dist_500_LN_7_LD_21_RN_20_RD_24_1.png","C_Dist_500_LN_7_LD_28_RN_12_RD_16_1.png","C_Dist_500_LN_7_LD_28_RN_9_RD_12_1.png","C_Dist_500_LN_9_LD_27_RN_20_RD_24_1.png"]],"dist500_I":[["I_Dist_500_LN_2_LD_3_RN_4_RD_24_0.png","I_Dist_500_LN_5_LD_6_RN_6_RD_18_0.png","I_Dist_500_LN_7_LD_8_RN_9_RD_24_0.png"],["I_Dist_500_LN_7_LD_21_RN_5_RD_6_1.png"]],"dist500_S":[["E_Dist_500_LN_6_LD_8_RN_6_RD_24_0.png"],["E_Dist_500_LN_2_LD_12_RN_2_RD_3_1.png","E_Dist_500_LN_6_LD_24_RN_6_RD_8_1.png"]]}},{"start_time":1551800649431,"click_time":1551800650980,"finger_time":1551800650400,"fix_duration":250,"trial":1,"RT":969,"MT":580,"sideResp":2,"stimulus":[],"xmouse":[780,780,780,780,780,780,780,780,780,780,780,780,780,780,780,780,780,780,780,780,780,780,780,780,780,780,780,780,780,780,780,780,780,780,780,780,780,780,780,780,780,780,780,781,782,785,798,807,819,840,881,895,903,911,922,951,963,967,968,969,969,970,971,974,977,982,1006,1014,1024,1031,1035,1035,1035,1037,1039,1043,1046,1049],"ymouse":[540,540,540,540,540,540,540,540,540,540,540,540,540,540,540,540,540,540,540,540,540,540,540,540,540,540,540,540,540,540,540,540,540,540,540,540,540,540,540,540,540,540,540,538,537,533,506,487,458,409,290,247,212,182,161,128,115,105,97,93,90,89,87,83,79,76,74,74,73,73,73,73,73,73,72,72,72,71],"timestamp_mouse":[12,39,49,68,88,108,129,148,170,189,210,229,248,269,288,309,329,350,368,389,408,430,449,468,488,509,530,549,568,588,609,628,649,669,689,710,730,749,770,789,809,829,849,869,890,909,930,949,969,989,1011,1029,1048,1068,1089,1109,1128,1149,1168,1188,1209,1230,1249,1270,1289,1309,1329,1349,1369,1389,1408,1428,1449,1469,1489,1509,1530,1549],"xSR":733.5,"ySR":461.5,"xT1":420.09999999999997,"yT1":0,"xT2":1046.8999999999999,"yT2":0,"toosoon":0,"cond_shown":"Congruent","ratio_trial":200,"L_num":6,"L_den":12,"R_num":7,"R_den":10,"correct_side":2,"subjID":"DanielFelipeArtunduagaEscobar39","gender":"0","school":"colegiocafam","age":"11"},{"start_time":1551800652877,"click_time":1551800654080,"finger_time":1551800653580,"fix_duration":975.6257998236093,"trial":2,"RT":703,"MT":500,"sideResp":1,"stimulus":[],"xmouse":[783,783,783,783,783,783,783,783,783,783,783,783,783,783,783,783,783,783,783,783,783,783,783,783,783,783,783,783,783,783,783,783,783,784,785,785,775,761,704,675,654,641,634,618,610,597,585,573,568,568,568,568,564,546,528,518,508,499,494,491,490],"ymouse":[502,502,502,502,502,502,502,502,502,502,502,502,502,502,502,502,502,502,502,502,502,502,502,502,502,502,502,502,502,502,502,502,501,495,478,458,437,412,331,297,272,256,243,219,205,186,170,156,150,150,150,150,146,135,125,120,114,109,106,102,96],"timestamp_mouse":[8,39,44,64,82,103,124,142,162,183,204,222,243,262,284,302,322,342,364,383,403,423,444,463,484,503,523,543,564,583,604,622,643,663,683,703,724,743,763,782,803,823,843,864,882,903,923,944,963,982,1002,1023,1044,1063,1083,1103,1122,1142,1163,1182,1203],"xSR":733.5,"ySR":461.5,"xT1":420.09999999999997,"yT1":0,"xT2":1046.8999999999999,"yT2":0,"toosoon":0,"cond_shown":"Incongruent","ratio_trial":300,"L_num":4,"L_den":5,"R_num":6,"R_den":12,"correct_side":1,"subjID":"DanielFelipeArtunduagaEscobar39","gender":"0","school":"colegiocafam","age":"11"},{"start_time":1551800656364,"click_time":1551800658460,"finger_time":1551800657980,"fix_duration":1423.5177585902502,"trial":3,"RT":1616,"MT":480,"sideResp":1,"stimulus":[],"xmouse":[776,776,776,776,776,776,776,776,776,776,776,776,776,776,776,776,776,776,776,776,776,776,776,776,776,776,776,776,776,776,776,776,776,776,776,776,776,776,776,776,776,776,776,776,776,776,776,776,776,776,776,776,776,776,776,776,776,776,776,776,776,776,776,776,776,776,776,776,776,776,776,776,776,776,776,776,776,776,776,776,776,764,751,741,727,716,705,688,610,590,581,577,572,565,565,565,565,565,565,565,565,529,524,521,516],"ymouse":[491,491,491,491,491,491,491,491,491,491,491,491,491,491,491,491,491,491,491,491,491,491,491,491,491,491,491,491,491,491,491,491,491,491,491,491,491,491,491,491,491,491,491,491,491,491,491,491,491,491,491,491,491,491,491,491,491,491,491,491,491,491,491,491,491,491,491,491,491,491,491,491,491,491,491,491,491,491,491,470,432,381,343,319,301,286,262,223,80,54,40,32,18,2,2,2,2,2,2,2,2,16,28,36,44],"timestamp_mouse":[17,40,57,76,96,115,137,155,176,197,215,236,257,276,295,317,336,357,376,396,417,437,456,475,497,516,535,557,576,597,616,636,656,676,695,716,737,756,776,797,817,836,856,877,897,916,936,956,976,995,1016,1037,1056,1076,1095,1117,1137,1157,1176,1197,1215,1236,1257,1276,1297,1316,1336,1357,1375,1396,1417,1437,1456,1477,1496,1515,1537,1555,1576,1597,1616,1635,1657,1675,1696,1716,1736,1756,1777,1795,1816,1836,1857,1876,1895,1915,1936,1956,1976,1996,2016,2037,2056,2076,2095],"xSR":733.5,"ySR":461.5,"xT1":420.09999999999997,"yT1":0,"xT2":1046.8999999999999,"yT2":0,"toosoon":0,"cond_shown":"Incongruent","ratio_trial":200,"L_num":1,"L_den":3,"R_num":2,"R_den":15,"correct_side":1,"subjID":"DanielFelipeArtunduagaEscobar39","gender":"0","school":"colegiocafam","age":"11"},{"start_time":1551800660134,"click_time":1551800661901,"finger_time":1551800661540,"fix_duration":553.6934207544347,"trial":4,"RT":1406,"MT":361,"sideResp":1,"stimulus":[],"xmouse":[801,801,801,801,801,801,801,801,801,801,801,801,801,801,801,801,801,801,801,801,801,801,801,801,801,801,801,801,801,801,801,801,801,801,801,801,801,801,801,801,801,801,801,801,801,801,801,801,801,801,801,801,801,801,801,801,801,801,801,801,801,801,801,801,801,801,801,801,801,801,792,783,779,772,765,736,717,699,686,678,672,663,661,654,635,570,536,515,499],"ymouse":[509,509,509,509,509,509,509,509,509,509,509,509,509,509,509,509,509,509,509,509,509,509,509,509,509,509,509,509,509,509,509,509,509,509,509,509,509,509,509,509,509,509,509,509,509,509,509,509,509,509,509,509,509,509,509,509,509,509,509,509,509,509,509,509,509,509,509,509,509,492,446,372,342,323,306,261,231,205,193,184,179,171,170,168,159,130,113,101,92],"timestamp_mouse":[9,25,51,66,86,106,127,146,167,187,206,226,246,266,286,306,327,347,367,386,407,427,446,466,485,506,526,547,567,585,606,626,647,665,687,707,725,747,767,786,807,826,847,865,886,906,927,945,967,986,1006,1026,1046,1066,1086,1106,1127,1146,1167,1187,1205,1227,1246,1267,1286,1306,1325,1347,1366,1386,1406,1425,1446,1466,1486,1507,1525,1546,1566,1586,1605,1627,1646,1666,1686,1707,1726,1746,1767],"xSR":733.5,"ySR":461.5,"xT1":420.09999999999997,"yT1":0,"xT2":1046.8999999999999,"yT2":0,"toosoon":0,"cond_shown":"Congruent","ratio_trial":200,"L_num":6,"L_den":15,"R_num":3,"R_den":15,"correct_side":1,"subjID":"DanielFelipeArtunduagaEscobar39","gender":"0","school":"colegiocafam","age":"11"},{"start_time":1551800664145,"click_time":1551800665680,"finger_time":1551800665140,"fix_duration":1222.6995500720802,"trial":5,"RT":995,"MT":540,"sideResp":2,"stimulus":[],"xmouse":[800,800,800,800,800,800,800,800,800,800,800,800,800,800,800,800,800,800,800,800,800,800,800,800,800,800,800,800,800,800,800,800,800,800,800,800,800,800,800,800,800,800,800,800,800,800,802,806,811,831,854,863,866,866,860,858,856,856,857,864,870,874,877,884,911,924,941,956,971,986,988,990,994,1001,1030,1046,1064],"ymouse":[503,503,503,503,503,503,503,503,503,503,503,503,503,503,503,503,503,503,503,503,503,503,503,503,503,503,503,503,503,503,503,503,503,503,503,503,503,503,503,503,503,503,503,503,503,503,498,484,466,406,329,284,244,217,176,158,142,130,118,101,93,89,87,84,80,80,80,80,80,79,79,78,77,76,73,73,73],"timestamp_mouse":[15,42,55,75,95,115,135,155,175,195,216,236,256,276,296,314,335,354,375,395,415,436,455,474,495,515,536,556,574,595,616,635,655,675,696,716,734,754,775,794,816,835,855,874,895,915,935,955,975,995,1015,1035,1055,1075,1096,1115,1135,1155,1175,1195,1215,1234,1254,1275,1294,1314,1335,1355,1374,1395,1415,1435,1454,1475,1494,1514,1535],"xSR":733.5,"ySR":461.5,"xT1":420.09999999999997,"yT1":0,"xT2":1046.8999999999999,"yT2":0,"toosoon":0,"cond_shown":"Incongruent","ratio_trial":200,"L_num":4,"L_den":30,"R_num":1,"R_den":3,"correct_side":2,"subjID":"DanielFelipeArtunduagaEscobar39","gender":"0","school":"colegiocafam","age":"11"},{"start_time":1551800666926,"click_time":1551800668459,"finger_time":1551800667840,"fix_duration":303.62386792634885,"trial":6,"RT":914,"MT":619,"sideResp":1,"stimulus":[],"xmouse":[747,747,747,747,747,747,747,747,747,747,747,747,747,747,747,747,747,747,747,747,747,747,747,747,747,747,747,747,747,747,747,747,747,747,747,747,747,747,747,747,747,747,749,751,753,765,772,781,787,790,793,794,794,793,793,792,789,787,782,774,751,741,729,717,702,671,659,652,649,646,642,618,599,580,560,527,514],"ymouse":[503,503,503,503,503,503,503,503,503,503,503,503,503,503,503,503,503,503,503,503,503,503,503,503,503,503,503,503,503,503,503,503,503,503,503,503,503,503,503,503,503,503,502,496,485,443,412,379,351,322,268,229,209,192,173,148,135,126,115,105,83,77,75,74,73,73,73,73,73,73,73,73,70,68,65,63,63],"timestamp_mouse":[15,34,63,74,95,113,134,153,175,194,214,235,253,274,294,315,335,354,375,395,414,435,454,473,495,515,533,554,575,593,615,634,655,675,695,714,734,753,774,793,814,835,854,874,895,914,934,954,974,994,1015,1034,1054,1074,1095,1114,1133,1155,1175,1195,1214,1234,1253,1273,1294,1314,1334,1354,1375,1395,1414,1435,1453,1475,1494,1514,1533],"xSR":733.5,"ySR":461.5,"xT1":420.09999999999997,"yT1":0,"xT2":1046.8999999999999,"yT2":0,"toosoon":0,"cond_shown":"Incongruent","ratio_trial":300,"L_num":2,"L_den":4,"R_num":6,"R_den":30,"correct_side":1,"subjID":"DanielFelipeArtunduagaEscobar39","gender":"0","school":"colegiocafam","age":"11"},{"start_time":1551800670877,"click_time":1551800672300,"finger_time":1551800671700,"fix_duration":1455.6057046168505,"trial":7,"RT":823,"MT":600,"sideResp":2,"stimulus":[],"xmouse":[796,796,796,796,796,796,796,796,796,796,796,796,796,796,796,796,796,796,796,796,796,796,796,796,796,796,796,796,796,796,796,796,796,796,796,797,799,800,801,801,801,801,801,804,812,815,819,822,837,847,856,862,869,889,901,904,908,911,921,928,936,943,949,965,972,979,988,999,1024,1035,1043,1048],"ymouse":[498,498,498,498,498,498,498,498,498,498,498,498,498,498,498,498,498,498,498,498,498,498,498,498,498,498,498,498,498,498,498,498,498,498,498,497,492,485,476,470,464,453,439,418,363,341,319,294,223,190,169,155,146,120,109,107,105,101,99,98,98,98,97,95,95,95,95,93,91,91,91,91],"timestamp_mouse":[8,37,43,63,83,102,123,142,163,182,203,223,244,264,282,302,323,343,364,383,403,424,442,463,483,503,524,542,564,584,604,624,644,663,684,703,723,742,763,782,803,823,844,862,884,903,924,943,964,983,1003,1023,1043,1063,1084,1103,1122,1143,1162,1182,1204,1224,1243,1263,1283,1303,1324,1344,1363,1382,1402,1423],"xSR":733.5,"ySR":461.5,"xT1":420.09999999999997,"yT1":0,"xT2":1046.8999999999999,"yT2":0,"toosoon":0,"cond_shown":"Incongruent","ratio_trial":200,"L_num":3,"L_den":10,"R_num":1,"R_den":2,"correct_side":2,"subjID":"DanielFelipeArtunduagaEscobar39","gender":"0","school":"colegiocafam","age":"11"},{"start_time":1551800690509,"click_time":1551800692021,"finger_time":1551800691520,"fix_duration":1486.6830572144465,"trial":8,"RT":1011,"MT":501,"sideResp":1,"stimulus":[],"xmouse":[767,767,767,767,767,767,767,767,767,767,767,767,767,767,767,767,767,767,767,767,767,767,767,767,767,767,767,767,767,767,767,767,767,767,767,767,767,767,767,767,767,767,767,767,767,767,767,767,762,754,743,710,689,674,662,655,646,624,612,598,583,551,527,511,492,472,447,438,431,428,425,425,425,425,425,429],"ymouse":[484,484,484,484,484,484,484,484,484,484,484,484,484,484,484,484,484,484,484,484,484,484,484,484,484,484,484,484,484,484,484,484,484,484,484,484,484,484,484,484,484,484,484,484,484,484,484,484,480,471,460,437,421,411,404,401,397,383,373,362,347,309,282,262,240,216,190,178,169,160,153,138,125,115,102,91],"timestamp_mouse":[12,34,52,71,90,111,131,151,171,192,212,231,250,271,291,311,332,351,371,391,411,431,452,472,492,511,531,552,570,590,612,632,651,672,692,712,731,752,772,791,812,830,851,872,891,911,932,951,972,991,1011,1031,1051,1071,1092,1111,1130,1150,1172,1191,1210,1231,1250,1271,1291,1311,1331,1351,1371,1391,1411,1431,1452,1470,1492,1512],"xSR":733.5,"ySR":461.5,"xT1":420.09999999999997,"yT1":0,"xT2":1046.8999999999999,"yT2":0,"toosoon":0,"cond_shown":"Incongruent","ratio_trial":100,"L_num":2,"L_den":4,"R_num":6,"R_den":15,"correct_side":1,"subjID":"DanielFelipeArtunduagaEscobar39","gender":"0","school":"colegiocafam","age":"11"},{"start_time":1551800695693,"click_time":1551800697140,"finger_time":1551800696560,"fix_duration":872.3622526360946,"trial":9,"RT":867,"MT":580,"sideResp":2,"stimulus":[],"xmouse":[806,806,806,806,806,806,806,806,806,806,806,806,806,806,806,806,806,806,806,806,806,806,806,806,806,806,806,806,806,806,806,806,806,806,806,806,806,806,806,805,801,793,779,761,752,745,744,742,742,742,744,750,770,782,789,796,803,822,841,865,886,908,940,961,986,995,1000,1006,1011,1018,1025,1033,1052],"ymouse":[510,510,510,510,510,510,510,510,510,510,510,510,510,510,510,510,510,510,510,510,510,510,510,510,510,510,510,510,510,510,510,510,510,510,510,510,510,510,510,510,505,494,471,448,436,424,419,410,406,403,397,387,361,345,334,322,308,275,253,238,226,216,199,186,162,151,148,140,133,121,107,94,64],"timestamp_mouse":[8,37,47,68,86,108,128,148,166,188,207,228,248,267,287,306,327,348,366,387,407,427,447,467,487,508,527,547,567,586,608,626,648,667,687,706,726,747,766,787,807,827,847,867,887,907,927,947,967,987,1006,1027,1048,1067,1087,1107,1127,1146,1167,1187,1206,1226,1247,1268,1287,1307,1328,1347,1366,1387,1408,1428,1447],"xSR":733.5,"ySR":461.5,"xT1":420.09999999999997,"yT1":0,"xT2":1046.8999999999999,"yT2":0,"toosoon":0,"cond_shown":"Incongruent","ratio_trial":300,"L_num":4,"L_den":20,"R_num":2,"R_den":4,"correct_side":2,"subjID":"DanielFelipeArtunduagaEscobar39","gender":"0","school":"colegiocafam","age":"11"},{"start_time":1551800699304,"click_time":1551800700940,"finger_time":1551800700400,"fix_duration":1343.054345573342,"trial":10,"RT":1096,"MT":540,"sideResp":2,"stimulus":[],"xmouse":[801,801,801,801,801,801,801,801,801,801,801,801,801,801,801,801,801,801,801,801,801,801,801,801,801,801,801,801,801,801,801,801,801,801,801,801,801,801,801,801,801,801,801,801,801,801,801,801,801,801,801,790,783,777,769,766,766,766,766,762,759,759,759,759,761,768,796,820,846,880,967,1005,1073,1077,1078,1080,1085,1089,1094,1098,1104,1113],"ymouse":[541,541,541,541,541,541,541,541,541,541,541,541,541,541,541,541,541,541,541,541,541,541,541,541,541,541,541,541,541,541,541,541,541,541,541,541,541,541,541,541,541,541,541,541,541,541,541,541,541,541,541,518,500,476,447,425,402,393,383,373,367,356,346,338,325,312,289,276,260,241,197,184,162,162,161,160,157,155,151,143,128,98],"timestamp_mouse":[16,38,56,76,96,117,136,156,177,196,216,235,256,276,296,317,337,357,377,397,416,436,457,476,497,515,537,557,576,597,616,636,655,676,697,717,737,757,776,797,817,836,855,876,897,917,936,957,977,997,1016,1036,1056,1076,1096,1116,1136,1155,1176,1196,1217,1236,1256,1276,1295,1317,1335,1355,1377,1397,1416,1436,1456,1475,1495,1515,1536,1555,1576,1597,1616,1636],"xSR":733.5,"ySR":461.5,"xT1":420.09999999999997,"yT1":0,"xT2":1046.8999999999999,"yT2":0,"toosoon":0,"cond_shown":"Incongruent","ratio_trial":300,"L_num":13,"L_den":26,"R_num":12,"R_den":15,"correct_side":2,"subjID":"DanielFelipeArtunduagaEscobar39","gender":"0","school":"colegiocafam","age":"11"},{"start_time":1551800703561,"click_time":1551800705500,"finger_time":1551800705060,"fix_duration":300.76768728465476,"trial":11,"RT":1499,"MT":440,"sideResp":2,"stimulus":[],"xmouse":[792,792,792,792,792,792,792,792,792,792,792,792,792,792,792,792,792,792,792,792,792,792,792,792,792,792,792,792,792,792,792,792,792,792,792,792,792,792,792,792,792,792,792,792,792,792,792,792,792,792,792,792,792,792,792,792,792,792,792,792,792,792,792,792,792,792,792,792,792,792,792,794,798,815,853,861,868,879,912,929,939,944,950,960,965,972,978,985,1003,1012,1017,1020,1023,1029,1035,1042,1049],"ymouse":[551,551,551,551,551,551,551,551,551,551,551,551,551,551,551,551,551,551,551,551,551,551,551,551,551,551,551,551,551,551,551,551,551,551,551,551,551,551,551,551,551,551,551,551,551,551,551,551,551,551,551,551,551,551,551,551,551,551,551,551,551,551,551,551,551,551,551,551,551,551,551,547,535,483,352,293,248,213,152,131,119,109,101,94,94,94,94,93,91,91,92,92,92,92,92,92,93],"timestamp_mouse":[20,50,59,79,99,120,139,159,179,199,219,239,258,278,299,318,338,359,380,399,419,439,458,479,499,520,538,560,580,599,619,638,658,679,698,720,740,758,779,798,820,839,858,879,900,919,938,960,978,1000,1019,1039,1060,1080,1098,1120,1140,1159,1180,1198,1220,1239,1260,1278,1298,1320,1339,1359,1380,1399,1420,1439,1459,1479,1499,1520,1539,1560,1580,1600,1619,1640,1659,1680,1699,1719,1740,1759,1780,1800,1819,1839,1860,1880,1899,1919,1939],"xSR":733.5,"ySR":461.5,"xT1":420.09999999999997,"yT1":0,"xT2":1046.8999999999999,"yT2":0,"toosoon":0,"cond_shown":"Congruent","ratio_trial":300,"L_num":2,"L_den":20,"R_num":10,"R_den":25,"correct_side":2,"subjID":"DanielFelipeArtunduagaEscobar39","gender":"0","school":"colegiocafam","age":"11"},{"start_time":1551800707325,"click_time":1551800709161,"finger_time":1551800708120,"fix_duration":463.6349349046743,"trial":12,"RT":795,"MT":1041,"sideResp":2,"stimulus":[],"xmouse":[760,760,760,760,760,760,760,760,760,760,760,760,760,760,760,760,760,760,760,760,760,760,760,760,760,760,760,760,760,760,760,760,760,760,760,758,752,747,740,729,716,692,689,688,688,693,702,711,719,727,738,747,753,760,771,804,810,818,833,871,871,871,871,871,871,871,871,871,871,871,871,1264,1264,1264,1264,1279,1289,1291,1291,1291,1291,1291,1292,1292,1292,1292,1268,1250,1236,1214,1154,1136],"ymouse":[548,548,548,548,548,548,548,548,548,548,548,548,548,548,548,548,548,548,548,548,548,548,548,548,548,548,548,548,548,548,548,548,548,547,545,542,531,523,513,494,476,428,415,405,398,381,367,355,345,342,338,333,330,327,327,355,389,446,528,697,697,697,697,697,697,697,697,697,697,697,697,660,595,519,435,248,169,114,83,53,31,7,0,0,0,0,1,8,13,21,30,32],"timestamp_mouse":[33,36,56,75,95,115,137,156,175,195,216,236,255,275,295,315,336,356,376,395,416,435,455,475,495,516,537,555,576,595,615,635,655,676,696,716,735,756,775,795,816,836,855,876,896,915,935,955,976,996,1016,1035,1055,1075,1096,1115,1135,1156,1177,1197,1216,1235,1255,1276,1295,1316,1337,1357,1375,1395,1415,1435,1455,1475,1495,1516,1535,1556,1575,1595,1616,1636,1655,1675,1696,1716,1736,1756,1775,1796,1815,1836],"xSR":733.5,"ySR":461.5,"xT1":420.09999999999997,"yT1":0,"xT2":1046.8999999999999,"yT2":0,"toosoon":0,"cond_shown":"Incongruent","ratio_trial":300,"L_num":4,"L_den":20,"R_num":2,"R_den":4,"correct_side":2,"subjID":"DanielFelipeArtunduagaEscobar39","gender":"0","school":"colegiocafam","age":"11"},{"start_time":1551800711159,"click_time":1551800714260,"finger_time":1551800712260,"fix_duration":916.6338220356428,"trial":13,"RT":1101,"MT":2000,"sideResp":2,"stimulus":[],"xmouse":[784,784,784,784,784,784,784,784,784,784,784,784,784,784,784,784,784,784,784,784,784,784,784,784,784,784,784,784,784,784,784,784,784,784,784,784,784,784,784,784,784,784,784,784,784,784,784,784,784,784,783,781,778,778,778,779,780,781,782,788,793,795,799,805,828,842,854,868,880,911,942,959,972,981,987,989,990,991,992,992,992,992,992,992,992,992,992,992,992,993,1000,1022,1035,1043,1049,1049,1049,1049,1049,1032,996,964,929,893,825,797,759,709,709,709,709,709,709,709,709,709,709,709,709,301,370,410,446,485,558,600,642,683,724,765,863,888,904,920,963,985,1006,1023,1038,1069,1092,1102,1108,1112,1117,1119,1121,1122,1125,1126,1127,1128,1129,1129,1127,1122],"ymouse":[500,500,500,500,500,500,500,500,500,500,500,500,500,500,500,500,500,500,500,500,500,500,500,500,500,500,500,500,500,500,500,500,500,500,500,500,500,500,500,500,500,500,500,500,500,500,500,500,500,500,500,496,484,475,467,452,443,431,420,398,383,375,367,356,318,301,291,284,277,256,238,231,226,221,217,215,212,211,211,211,211,211,211,211,211,211,211,211,211,210,204,186,178,174,172,172,172,172,176,217,268,313,364,414,505,544,592,649,649,649,649,649,649,649,649,649,649,649,649,629,531,480,449,429,396,371,349,332,319,308,287,284,281,275,266,262,260,260,258,250,242,236,231,225,207,199,192,184,177,164,154,147,138,130,108,98],"timestamp_mouse":[8,22,44,62,82,102,123,141,161,183,202,221,241,262,283,301,322,341,362,382,401,421,441,462,483,501,521,541,562,581,602,621,642,661,682,701,722,741,762,781,802,822,842,861,881,901,921,943,961,981,1001,1021,1041,1063,1081,1101,1121,1142,1161,1181,1201,1221,1241,1261,1282,1301,1321,1342,1361,1382,1401,1421,1441,1462,1482,1501,1521,1541,1562,1582,1601,1621,1641,1662,1682,1701,1721,1742,1761,1782,1802,1821,1841,1861,1882,1901,1921,1942,1961,1981,2001,2021,2041,2061,2082,2101,2122,2142,2161,2181,2201,2223,2241,2261,2283,2303,2322,2341,2362,2381,2401,2421,2441,2462,2482,2501,2522,2542,2563,2581,2602,2621,2641,2662,2682,2701,2721,2742,2762,2781,2802,2821,2842,2862,2882,2901,2922,2942,2961,2981,3002,3021,3041,3061,3082,3101],"xSR":733.5,"ySR":461.5,"xT1":420.09999999999997,"yT1":0,"xT2":1046.8999999999999,"yT2":0,"toosoon":0,"cond_shown":"Incongruent","ratio_trial":100,"L_num":8,"L_den":16,"R_num":6,"R_den":10,"correct_side":2,"subjID":"DanielFelipeArtunduagaEscobar39","gender":"0","school":"colegiocafam","age":"11"},{"start_time":1551800715930,"click_time":1551800717921,"finger_time":1551800717380,"fix_duration":508.37490352077117,"trial":14,"RT":1450,"MT":541,"sideResp":1,"stimulus":[],"xmouse":[799,799,799,799,799,798,798,798,798,798,798,798,798,798,798,798,798,798,798,798,798,798,798,798,798,798,798,798,798,798,798,798,798,798,798,798,798,798,798,798,798,798,798,798,798,798,798,798,798,798,798,798,798,798,798,798,798,798,798,798,798,797,797,797,797,797,797,797,797,797,797,794,793,791,785,763,752,739,723,706,676,639,626,615,603,581,571,564,560,555,541,526,514,504,499,495,495,493,489,486],"ymouse":[515,515,515,515,515,515,515,515,515,515,515,515,515,515,515,515,515,515,515,515,515,515,515,515,515,515,515,515,515,515,515,515,515,515,515,515,515,515,515,515,515,515,515,515,515,515,515,515,515,515,515,515,515,515,515,515,515,515,515,515,515,515,515,515,515,515,515,515,515,515,515,485,459,435,414,374,354,330,303,280,250,220,210,200,188,167,157,150,146,142,132,124,117,110,108,105,105,104,101,99],"timestamp_mouse":[10,44,50,70,91,110,130,151,171,191,210,231,251,270,291,311,331,351,371,391,410,430,451,470,491,512,530,552,570,590,611,632,650,671,691,711,731,750,770,790,811,832,851,871,890,910,931,950,970,991,1010,1031,1050,1070,1090,1110,1131,1150,1171,1190,1210,1230,1251,1271,1290,1310,1330,1352,1370,1391,1410,1430,1450,1470,1490,1511,1530,1550,1571,1590,1610,1631,1650,1672,1691,1710,1730,1751,1771,1791,1810,1831,1850,1870,1890,1910,1930,1952,1970,1991],"xSR":733.5,"ySR":461.5,"xT1":420.09999999999997,"yT1":0,"xT2":1046.8999999999999,"yT2":0,"toosoon":0,"cond_shown":"Congruent","ratio_trial":200,"L_num":4,"L_den":10,"R_num":3,"R_den":15,"correct_side":1,"subjID":"DanielFelipeArtunduagaEscobar39","gender":"0","school":"colegiocafam","age":"11"},{"start_time":1551800719733,"click_time":1551800722041,"finger_time":1551800720821,"fix_duration":1112.0308876115396,"trial":15,"RT":1088,"MT":1220,"sideResp":2,"stimulus":[],"xmouse":[777,777,777,777,777,777,777,777,777,777,777,777,777,777,777,777,777,777,777,777,777,777,777,777,777,777,777,777,777,777,777,777,777,777,777,777,777,777,777,777,777,777,777,779,780,782,784,785,788,790,795,798,800,802,804,804,804,804,804,804,803,803,805,808,813,823,830,839,847,862,917,942,967,984,1003,1032,1045,1061,1076,1093,1106,1133,1148,1159,1169,1185,1192,1198,1206,1214,1237,1247,1259,1270,1280,1283,1283,1283,1283,1283,1283,1283,1283,1283,1210,1203,1198,1195,1193,1188,1181,1172,1163,1155,1147,1129],"ymouse":[522,522,522,522,522,522,522,522,522,522,522,522,522,522,522,522,522,522,522,522,522,522,522,522,522,522,522,522,522,522,522,522,522,522,522,522,522,522,522,522,522,522,522,522,522,522,520,518,515,513,501,490,480,468,455,422,406,392,375,360,329,322,316,312,310,308,308,308,308,309,318,319,319,316,309,297,291,285,278,270,262,238,225,214,202,184,174,166,155,142,102,82,61,42,25,7,7,7,7,7,7,7,7,7,4,12,16,19,20,21,23,24,24,24,24,26],"timestamp_mouse":[11,27,50,68,89,107,128,149,167,187,207,228,249,267,287,309,328,348,368,388,408,428,447,469,487,507,528,549,568,588,607,627,649,668,687,708,728,747,767,788,807,827,847,868,887,907,927,948,968,988,1008,1027,1047,1067,1088,1108,1127,1147,1167,1189,1208,1228,1247,1267,1287,1307,1327,1347,1367,1387,1408,1428,1447,1468,1487,1508,1527,1547,1567,1588,1607,1627,1647,1667,1688,1708,1727,1747,1768,1787,1808,1827,1847,1867,1887,1908,1927,1947,1967,1988,2007,2027,2047,2067,2088,2107,2127,2149,2167,2187,2207,2227,2247,2268,2287,2307],"xSR":733.5,"ySR":461.5,"xT1":420.09999999999997,"yT1":0,"xT2":1046.8999999999999,"yT2":0,"toosoon":0,"cond_shown":"Congruent","ratio_trial":300,"L_num":5,"L_den":25,"R_num":6,"R_den":12,"correct_side":2,"subjID":"DanielFelipeArtunduagaEscobar39","gender":"0","school":"colegiocafam","age":"11"},{"start_time":1551800725754,"click_time":1551800727022,"finger_time":1551800726641,"fix_duration":1091.1763281479123,"trial":16,"RT":887,"MT":381,"sideResp":2,"stimulus":[],"xmouse":[760,760,760,760,760,760,760,760,760,760,760,760,760,760,760,760,760,760,760,760,760,760,760,760,760,760,760,760,760,760,760,760,760,760,760,760,759,759,758,757,749,742,738,737,732,730,729,728,727,727,730,732,732,732,745,756,773,799,833,918,957,995,1025,1049],"ymouse":[493,493,493,493,493,493,493,493,493,493,493,493,493,493,493,493,493,493,493,493,493,493,493,493,493,493,493,493,493,493,493,493,493,493,493,494,494,494,494,494,492,488,485,479,459,450,442,435,429,416,406,395,384,369,333,315,290,254,214,127,95,64,38,18],"timestamp_mouse":[8,40,47,67,86,108,127,147,167,188,206,227,247,267,286,307,327,346,367,387,407,427,447,467,486,507,526,546,567,586,607,626,647,666,687,706,728,747,767,786,807,826,848,866,887,906,926,947,968,986,1006,1026,1046,1066,1086,1106,1127,1146,1167,1186,1207,1226,1248,1268],"xSR":733.5,"ySR":461.5,"xT1":420.09999999999997,"yT1":0,"xT2":1046.8999999999999,"yT2":0,"toosoon":0,"cond_shown":"Congruent","ratio_trial":200,"L_num":3,"L_den":10,"R_num":11,"R_den":22,"correct_side":2,"subjID":"DanielFelipeArtunduagaEscobar39","gender":"0","school":"colegiocafam","age":"11"},{"start_time":1551800729669,"click_time":1551800731281,"finger_time":1551800730681,"fix_duration":1447.402585970719,"trial":17,"RT":1012,"MT":600,"sideResp":1,"stimulus":[],"xmouse":[799,799,799,799,799,799,799,799,799,799,799,799,799,799,799,799,799,799,799,799,799,799,799,799,799,799,799,799,799,799,799,799,799,799,799,799,799,799,799,799,799,799,801,804,805,805,805,805,803,800,796,791,784,768,761,753,748,744,737,716,705,695,687,684,679,677,672,665,632,615,601,588,571,522,511,506,501,498,483,472,460],"ymouse":[505,505,505,505,505,505,505,505,505,505,505,505,505,505,505,505,505,505,505,505,505,505,505,505,505,505,505,505,505,505,505,505,505,505,505,505,505,505,505,505,505,504,501,495,493,493,489,486,477,469,460,450,438,395,370,347,328,315,302,272,258,243,235,231,229,229,227,223,205,198,192,188,183,169,164,161,157,152,123,107,89],"timestamp_mouse":[12,35,53,71,91,111,131,151,172,193,211,232,251,271,292,312,332,351,372,391,412,431,451,471,493,512,531,552,571,591,611,631,652,671,692,712,733,752,771,791,811,831,851,871,892,911,931,951,972,991,1012,1031,1051,1072,1091,1111,1132,1152,1172,1191,1211,1231,1253,1271,1291,1311,1331,1351,1371,1391,1411,1431,1452,1472,1491,1511,1532,1552,1572,1591,1612],"xSR":733.5,"ySR":461.5,"xT1":420.09999999999997,"yT1":0,"xT2":1046.8999999999999,"yT2":0,"toosoon":0,"cond_shown":"Incongruent","ratio_trial":300,"L_num":7,"L_den":10,"R_num":8,"R_den":20,"correct_side":1,"subjID":"DanielFelipeArtunduagaEscobar39","gender":"0","school":"colegiocafam","age":"11"},{"start_time":1551800732512,"click_time":1551800734060,"finger_time":1551800733801,"fix_duration":250,"trial":18,"RT":1289,"MT":259,"sideResp":2,"stimulus":[],"xmouse":[800,800,800,800,800,800,800,800,800,800,800,800,800,800,800,800,800,800,800,800,800,800,800,800,800,800,800,800,800,800,800,800,800,800,800,800,800,800,800,800,800,800,800,800,800,800,800,800,800,800,800,800,800,800,800,800,800,800,800,800,800,800,800,800,807,814,857,873,886,899,916,954,980,998,1015,1028,1050,1058],"ymouse":[477,477,477,477,477,477,477,477,477,477,477,477,477,477,477,477,477,477,477,477,477,477,477,477,477,477,477,477,477,477,477,477,477,477,477,477,477,477,477,477,477,477,477,477,477,477,477,477,477,477,477,477,477,477,477,477,477,477,477,477,477,477,477,477,460,444,354,327,307,287,266,213,183,165,150,138,107,92],"timestamp_mouse":[8,42,49,68,88,108,129,150,168,189,209,229,248,269,289,308,328,350,368,388,409,428,449,469,488,508,529,549,568,588,609,630,648,670,689,710,728,748,768,788,808,829,848,869,889,908,928,948,968,989,1008,1028,1048,1068,1088,1109,1130,1148,1169,1188,1209,1228,1248,1268,1289,1308,1329,1348,1368,1388,1408,1428,1449,1468,1488,1509,1529,1548],"xSR":733.5,"ySR":461.5,"xT1":420.09999999999997,"yT1":0,"xT2":1046.8999999999999,"yT2":0,"toosoon":0,"cond_shown":"Congruent","ratio_trial":100,"L_num":7,"L_den":14,"R_num":9,"R_den":15,"correct_side":2,"subjID":"DanielFelipeArtunduagaEscobar39","gender":"0","school":"colegiocafam","age":"11"},{"start_time":1551800743937,"click_time":1551800745082,"finger_time":1551800744681,"fix_duration":774.1448188855039,"trial":19,"RT":744,"MT":401,"sideResp":1,"stimulus":[],"xmouse":[801,801,801,801,801,801,801,801,801,801,801,801,801,801,801,801,801,801,801,801,801,801,801,801,801,801,801,801,801,801,801,801,801,801,801,800,798,791,781,770,746,732,719,702,686,655,638,618,597,579,544,531,527,523,519,503,494,482],"ymouse":[516,516,516,516,516,516,516,516,516,516,516,516,516,516,516,516,516,516,516,516,516,516,516,516,516,516,516,516,516,516,516,516,516,516,516,516,494,451,403,365,305,284,269,257,247,231,227,217,205,194,176,169,165,160,154,123,109,93],"timestamp_mouse":[8,23,45,63,84,103,123,144,165,183,203,223,243,265,284,304,323,344,363,384,404,423,445,463,483,505,523,544,565,584,603,624,644,664,683,703,723,744,764,784,804,823,843,865,883,903,923,943,963,983,1005,1024,1043,1064,1083,1104,1123,1145],"xSR":733.5,"ySR":461.5,"xT1":420.09999999999997,"yT1":0,"xT2":1046.8999999999999,"yT2":0,"toosoon":0,"cond_shown":"Congruent","ratio_trial":300,"L_num":18,"L_den":20,"R_num":9,"R_den":15,"correct_side":1,"subjID":"DanielFelipeArtunduagaEscobar39","gender":"0","school":"colegiocafam","age":"11"},{"start_time":1551800745973,"click_time":1551800747601,"finger_time":1551800747020,"fix_duration":250,"trial":20,"RT":1047,"MT":581,"sideResp":2,"stimulus":[],"xmouse":[814,814,814,814,814,814,814,814,814,814,814,814,814,814,814,814,814,814,814,814,814,814,814,814,814,814,814,814,814,814,814,814,814,814,814,814,814,814,814,814,814,814,814,814,814,814,814,813,812,809,809,809,809,808,808,808,808,811,821,827,836,843,851,867,875,887,906,932,996,1033,1052,1064,1073,1082,1084,1088,1095,1101,1110,1119,1128,1138],"ymouse":[536,536,536,536,536,536,536,536,536,536,536,536,536,536,536,536,536,536,536,536,536,536,536,536,536,536,536,536,536,536,536,536,536,536,536,536,536,536,536,536,536,536,536,536,533,531,529,526,509,489,476,462,450,419,399,378,357,339,314,305,291,278,265,244,237,229,218,206,186,177,174,172,171,167,166,163,160,156,146,130,111,87],"timestamp_mouse":[7,40,48,68,87,108,128,147,168,187,208,228,247,268,287,308,327,347,367,387,408,427,447,469,487,508,527,547,568,587,607,627,649,667,688,709,727,748,768,787,808,827,848,869,887,908,928,948,967,988,1007,1027,1047,1067,1087,1107,1127,1147,1168,1187,1207,1229,1248,1268,1287,1307,1327,1347,1367,1388,1407,1429,1448,1467,1487,1507,1528,1548,1567,1587,1607,1627],"xSR":733.5,"ySR":461.5,"xT1":420.09999999999997,"yT1":0,"xT2":1046.8999999999999,"yT2":0,"toosoon":0,"cond_shown":"Incongruent","ratio_trial":100,"L_num":10,"L_den":25,"R_num":9,"R_den":18,"correct_side":2,"subjID":"DanielFelipeArtunduagaEscobar39","gender":"0","school":"colegiocafam","age":"11"},{"start_time":1551800749193,"click_time":1551800750580,"finger_time":1551800750041,"fix_duration":552.3725060048479,"trial":21,"RT":848,"MT":539,"sideResp":2,"stimulus":[],"xmouse":[761,761,761,761,761,761,761,761,761,761,761,761,761,761,761,761,761,761,761,761,761,761,761,761,761,761,761,761,761,761,761,762,762,763,764,765,765,766,767,768,769,770,771,773,774,775,775,776,778,779,781,784,788,792,796,801,809,846,870,882,894,907,947,969,991,1012,1028,1046,1049,1051],"ymouse":[514,514,514,514,514,514,514,514,514,514,514,514,514,514,514,514,514,514,514,514,514,514,514,514,514,514,513,505,496,487,481,478,477,475,473,473,471,470,469,468,464,462,459,456,452,450,449,446,443,438,431,422,398,382,363,342,319,252,208,189,174,163,143,133,125,116,110,102,100,98],"timestamp_mouse":[8,27,62,69,87,108,128,148,168,187,208,227,248,268,287,307,327,347,368,387,407,428,448,469,488,508,527,548,568,587,608,627,648,667,687,707,729,747,768,787,808,828,848,868,887,907,928,948,967,987,1008,1028,1047,1067,1088,1108,1127,1147,1168,1187,1208,1228,1248,1267,1288,1308,1328,1347,1368,1387],"xSR":733.5,"ySR":461.5,"xT1":420.09999999999997,"yT1":0,"xT2":1046.8999999999999,"yT2":0,"toosoon":0,"cond_shown":"Congruent","ratio_trial":100,"L_num":4,"L_den":10,"R_num":15,"R_den":30,"correct_side":2,"subjID":"DanielFelipeArtunduagaEscobar39","gender":"0","school":"colegiocafam","age":"11"},{"start_time":1551800751552,"click_time":1551800753320,"finger_time":1551800752140,"fix_duration":250,"trial":22,"RT":588,"MT":1180,"sideResp":2,"stimulus":[],"xmouse":[771,771,771,771,771,771,771,771,771,771,771,771,771,771,771,771,771,771,771,771,771,771,771,771,771,771,771,778,787,825,833,837,840,842,845,845,845,845,845,845,845,845,845,845,845,845,845,845,845,845,845,845,845,847,864,888,916,943,965,1001,1022,1036,1047,1055,1063,1065,1066,1067,1067,1069,1069,1069,1069,1069,1069,1069,1069,1069,1069,1069,1069,1069,1069,1070,1071,1072,1076,1080,1084],"ymouse":[484,484,484,484,484,484,484,484,484,484,484,484,484,484,484,484,484,484,484,484,484,484,484,484,484,484,484,477,464,407,380,359,341,328,311,310,310,310,310,310,310,310,310,310,310,310,310,310,310,310,310,310,310,305,281,260,239,222,207,187,174,166,160,157,152,151,149,148,146,142,141,140,140,140,140,140,140,140,140,140,140,140,140,139,133,128,119,106,96],"timestamp_mouse":[9,44,48,68,89,108,128,148,169,189,208,229,249,270,288,309,328,349,368,388,408,429,448,470,488,508,528,548,568,588,609,628,649,668,689,710,729,749,768,788,809,829,848,869,889,909,928,949,968,989,1009,1029,1049,1068,1089,1108,1128,1149,1168,1188,1208,1228,1249,1268,1288,1308,1329,1348,1368,1388,1408,1429,1448,1468,1489,1508,1529,1550,1569,1589,1608,1628,1648,1668,1689,1708,1728,1749,1768],"xSR":733.5,"ySR":461.5,"xT1":420.09999999999997,"yT1":0,"xT2":1046.8999999999999,"yT2":0,"toosoon":0,"cond_shown":"Incongruent","ratio_trial":200,"L_num":6,"L_den":20,"R_num":3,"R_den":6,"correct_side":2,"subjID":"DanielFelipeArtunduagaEscobar39","gender":"0","school":"colegiocafam","age":"11"},{"start_time":1551800754492,"click_time":1551800756101,"finger_time":1551800755641,"fix_duration":250,"trial":23,"RT":1149,"MT":460,"sideResp":1,"stimulus":[],"xmouse":[777,777,777,777,777,777,777,777,777,777,777,777,777,777,777,777,777,777,777,777,777,777,777,777,777,777,777,777,777,777,777,777,777,777,777,777,777,777,777,777,777,777,777,777,777,777,777,777,777,777,777,777,777,768,761,753,742,729,722,715,706,699,685,675,667,659,651,639,632,625,618,611,597,589,580,564,544,511,499,489,482],"ymouse":[519,519,519,519,519,519,519,519,519,519,519,519,519,519,519,519,519,519,519,519,519,519,519,519,519,519,519,519,519,519,519,519,519,519,519,519,519,519,519,519,519,519,519,519,519,519,519,519,519,519,519,519,518,502,492,479,464,431,411,392,371,347,300,270,251,232,215,189,179,170,162,154,147,145,144,142,138,124,113,105,98],"timestamp_mouse":[10,31,50,68,89,108,128,148,168,189,208,228,249,269,289,308,329,348,368,388,410,430,448,468,490,508,528,548,568,588,608,630,649,669,689,708,728,748,770,789,809,829,848,869,888,909,928,948,969,989,1008,1030,1048,1068,1088,1108,1128,1149,1168,1189,1208,1228,1249,1269,1288,1309,1328,1349,1368,1388,1408,1428,1449,1468,1488,1508,1528,1548,1569,1589,1609],"xSR":733.5,"ySR":461.5,"xT1":420.09999999999997,"yT1":0,"xT2":1046.8999999999999,"yT2":0,"toosoon":0,"cond_shown":"Incongruent","ratio_trial":300,"L_num":7,"L_den":10,"R_num":8,"R_den":20,"correct_side":1,"subjID":"DanielFelipeArtunduagaEscobar39","gender":"0","school":"colegiocafam","age":"11"},{"start_time":1551800757333,"click_time":1551800758840,"finger_time":1551800758360,"fix_duration":250,"trial":24,"RT":1027,"MT":480,"sideResp":2,"stimulus":[],"xmouse":[775,775,775,775,775,775,775,775,775,775,775,775,775,775,775,775,775,775,775,775,775,775,775,775,775,775,775,775,775,775,775,775,775,775,775,775,775,775,775,775,775,775,775,775,775,775,775,775,775,779,802,857,894,922,951,1003,1019,1034,1052,1063,1084,1086,1087,1088,1092,1096,1100,1100,1101,1101,1102,1102,1102,1102,1102,1109],"ymouse":[519,519,519,519,519,519,519,519,519,519,519,519,519,519,519,519,519,519,519,519,519,519,519,519,519,519,519,519,519,519,519,519,519,519,519,519,519,519,519,519,519,519,519,519,519,519,519,519,519,517,498,450,420,393,359,287,269,255,243,236,223,219,215,211,204,199,190,186,180,178,171,157,146,133,117,84],"timestamp_mouse":[8,43,47,68,88,107,127,148,168,188,208,227,247,267,287,307,328,348,367,389,408,427,447,468,489,508,529,547,568,587,607,628,648,667,687,708,728,749,767,787,808,828,847,869,887,908,929,948,968,988,1008,1027,1047,1067,1087,1107,1127,1147,1168,1189,1207,1227,1247,1267,1288,1308,1327,1348,1368,1387,1408,1427,1447,1468,1488,1507],"xSR":733.5,"ySR":461.5,"xT1":420.09999999999997,"yT1":0,"xT2":1046.8999999999999,"yT2":0,"toosoon":0,"cond_shown":"Congruent","ratio_trial":200,"L_num":3,"L_den":10,"R_num":14,"R_den":28,"correct_side":2,"subjID":"DanielFelipeArtunduagaEscobar39","gender":"0","school":"colegiocafam","age":"11"},{"start_time":1551800760776,"click_time":1551800762400,"finger_time":1551800761920,"fix_duration":1252.0517393786902,"trial":25,"RT":1144,"MT":480,"sideResp":2,"stimulus":[],"xmouse":[767,767,767,767,767,767,767,767,767,767,767,767,767,767,767,767,767,767,767,767,767,767,767,767,767,767,767,767,767,767,767,767,767,767,767,767,767,767,767,767,767,767,767,767,767,767,767,767,767,767,767,767,767,769,777,785,799,814,856,872,880,890,903,932,944,953,961,968,987,995,998,1000,1002,1006,1014,1018,1022,1026,1030,1035,1041,1049],"ymouse":[502,502,502,502,502,502,502,502,502,502,502,502,502,502,502,502,502,502,502,502,502,502,502,502,502,502,502,502,502,502,502,502,502,502,502,502,502,502,502,502,502,502,502,502,502,502,502,502,502,502,502,502,502,503,496,486,467,441,370,328,309,288,265,224,203,177,152,131,106,99,97,94,93,90,87,87,85,85,83,81,80,79],"timestamp_mouse":[8,39,45,65,85,105,124,144,165,184,205,226,244,265,284,304,325,344,365,384,404,425,444,464,485,504,526,544,565,585,606,625,644,665,685,706,725,745,764,784,804,825,845,864,885,906,925,945,964,985,1006,1025,1045,1064,1084,1105,1125,1144,1165,1184,1204,1225,1244,1264,1284,1304,1325,1345,1364,1384,1404,1426,1445,1465,1484,1504,1525,1546,1564,1586,1604,1624],"xSR":733.5,"ySR":461.5,"xT1":420.09999999999997,"yT1":0,"xT2":1046.8999999999999,"yT2":0,"toosoon":0,"cond_shown":"Congruent","ratio_trial":200,"L_num":21,"L_den":30,"R_num":2,"R_den":4,"correct_side":1,"subjID":"DanielFelipeArtunduagaEscobar39","gender":"0","school":"colegiocafam","age":"11"},{"start_time":1551800764752,"click_time":1551800766460,"finger_time":1551800766081,"fix_duration":1210.3040858800023,"trial":26,"RT":1329,"MT":379,"sideResp":2,"stimulus":[],"xmouse":[793,793,793,793,793,793,793,793,793,793,793,793,793,793,793,793,793,793,793,793,793,793,793,793,793,793,793,793,793,793,793,793,793,793,793,793,793,793,793,793,793,793,793,793,793,793,793,793,793,793,793,793,793,793,793,793,795,797,800,803,803,803,804,806,819,831,852,872,896,971,992,1010,1023,1037,1059,1068,1072,1076,1078,1083,1093,1103,1112,1119,1127,1129],"ymouse":[530,530,530,530,530,530,530,530,530,530,530,530,530,530,530,530,530,530,530,530,530,530,530,530,530,530,530,530,530,530,530,530,530,530,530,530,530,530,530,530,530,530,530,530,530,530,530,530,530,530,530,530,530,530,530,530,530,530,529,528,528,528,528,526,515,503,486,469,445,378,363,347,336,324,304,292,281,267,253,215,185,168,152,136,107,99],"timestamp_mouse":[8,28,49,68,90,108,129,148,168,189,209,228,250,268,289,309,330,348,369,388,409,428,449,468,488,508,529,548,569,588,609,629,650,668,689,709,730,749,769,788,808,828,848,869,889,910,929,948,970,988,1010,1029,1049,1068,1089,1110,1129,1148,1168,1189,1209,1229,1249,1269,1288,1308,1329,1349,1368,1389,1409,1428,1448,1468,1489,1508,1529,1548,1568,1589,1610,1628,1649,1668,1689,1708],"xSR":733.5,"ySR":461.5,"xT1":420.09999999999997,"yT1":0,"xT2":1046.8999999999999,"yT2":0,"toosoon":0,"cond_shown":"Congruent","ratio_trial":200,"L_num":3,"L_den":10,"R_num":14,"R_den":28,"correct_side":2,"subjID":"DanielFelipeArtunduagaEscobar39","gender":"0","school":"colegiocafam","age":"11"},{"start_time":1551800767613,"click_time":1551800769101,"finger_time":1551800768501,"fix_duration":250,"trial":27,"RT":888,"MT":600,"sideResp":2,"stimulus":[],"xmouse":[764,764,764,764,764,764,764,764,764,764,764,764,764,764,764,764,764,764,764,764,764,764,764,764,764,764,764,764,764,764,764,764,764,764,764,764,764,764,764,764,764,768,787,811,834,850,863,867,869,874,877,882,892,903,915,928,958,973,991,1011,1029,1059,1071,1080,1085,1087,1092,1095,1098,1100,1100,1100,1102,1102,1103],"ymouse":[530,530,530,530,530,530,530,530,530,530,530,530,530,530,530,530,530,530,530,530,530,530,530,530,530,530,530,530,530,530,530,530,530,530,530,530,530,530,530,530,530,527,515,500,485,470,439,406,381,355,335,318,289,272,254,239,215,204,196,187,179,161,154,148,144,142,136,131,125,121,117,110,108,103,99],"timestamp_mouse":[10,32,48,67,87,107,128,147,169,189,209,228,247,267,287,308,327,348,368,389,407,427,447,467,487,507,528,548,567,587,608,628,647,667,687,707,728,749,769,788,807,828,847,868,888,907,928,947,967,987,1008,1028,1047,1067,1087,1108,1128,1148,1167,1188,1207,1227,1247,1268,1288,1308,1327,1348,1367,1388,1408,1427,1447,1468,1488],"xSR":733.5,"ySR":461.5,"xT1":420.09999999999997,"yT1":0,"xT2":1046.8999999999999,"yT2":0,"toosoon":0,"cond_shown":"Incongruent","ratio_trial":300,"L_num":4,"L_den":20,"R_num":2,"R_den":4,"correct_side":2,"subjID":"DanielFelipeArtunduagaEscobar39","gender":"0","school":"colegiocafam","age":"11"},{"start_time":1551800771051,"click_time":1551800772541,"finger_time":1551800771860,"fix_duration":689.1404483231206,"trial":28,"RT":809,"MT":681,"sideResp":2,"stimulus":[],"xmouse":[794,794,794,794,794,794,794,794,794,794,794,794,794,794,794,794,794,794,794,794,794,794,794,794,794,794,789,784,779,775,774,774,774,774,773,778,786,790,794,800,816,825,833,839,853,871,884,896,907,929,938,948,958,967,983,990,993,996,1001,1012,1020,1026,1032,1037,1049,1053,1058,1063,1069,1079,1086,1093,1099,1103,1115],"ymouse":[539,539,539,539,539,539,539,539,539,539,539,539,539,539,539,539,539,539,539,539,539,539,539,539,539,536,535,532,531,530,530,530,530,530,524,509,496,490,483,472,447,435,424,414,393,367,350,334,318,290,276,265,255,246,229,220,215,209,201,185,177,172,168,164,155,151,148,144,139,130,124,119,113,109,91],"timestamp_mouse":[9,29,49,69,89,111,129,150,170,189,209,229,249,269,290,310,330,350,370,390,411,429,450,470,489,509,529,549,570,590,609,629,649,670,690,710,729,749,770,790,809,831,850,869,890,909,929,950,969,989,1010,1030,1050,1069,1089,1109,1129,1150,1170,1190,1210,1230,1250,1270,1289,1309,1330,1350,1370,1389,1409,1431,1449,1470,1489],"xSR":733.5,"ySR":461.5,"xT1":420.09999999999997,"yT1":0,"xT2":1046.8999999999999,"yT2":0,"toosoon":0,"cond_shown":"Congruent","ratio_trial":100,"L_num":6,"L_den":12,"R_num":15,"R_den":25,"correct_side":2,"subjID":"DanielFelipeArtunduagaEscobar39","gender":"0","school":"colegiocafam","age":"11"},{"start_time":1551800774598,"click_time":1551800776041,"finger_time":1551800775540,"fix_duration":836.6424979336816,"trial":29,"RT":942,"MT":501,"sideResp":2,"stimulus":[],"xmouse":[779,779,779,779,779,779,779,779,779,779,779,779,779,779,779,779,779,779,779,779,779,779,779,779,779,779,779,779,779,779,779,778,778,778,778,778,778,778,778,778,778,778,788,795,802,808,817,844,858,872,889,912,961,997,1019,1041,1058,1121,1141,1150,1156,1158,1158,1158,1158,1158,1158,1154,1152,1148,1146,1143,1133],"ymouse":[548,548,548,548,548,548,548,548,548,548,548,548,548,548,548,548,548,548,548,548,548,548,548,548,548,548,548,548,548,548,548,547,547,547,547,547,547,547,547,547,547,546,537,532,525,519,511,486,469,453,435,418,381,357,340,322,303,221,182,158,133,117,109,109,109,109,108,108,107,106,106,104,97],"timestamp_mouse":[9,22,43,63,84,102,122,142,163,183,204,222,243,262,284,303,322,344,363,383,404,423,442,462,482,502,522,542,563,582,603,623,642,663,683,703,723,742,764,782,802,822,843,862,883,902,922,942,963,982,1002,1022,1043,1062,1083,1102,1122,1143,1163,1182,1202,1222,1243,1263,1282,1303,1323,1342,1363,1382,1403,1423,1442],"xSR":733.5,"ySR":461.5,"xT1":420.09999999999997,"yT1":0,"xT2":1046.8999999999999,"yT2":0,"toosoon":0,"cond_shown":"Congruent","ratio_trial":100,"L_num":4,"L_den":10,"R_num":15,"R_den":30,"correct_side":2,"subjID":"DanielFelipeArtunduagaEscobar39","gender":"0","school":"colegiocafam","age":"11"},{"start_time":1551800777592,"click_time":1551800778801,"finger_time":1551800778260,"fix_duration":250,"trial":30,"RT":668,"MT":541,"sideResp":2,"stimulus":[],"xmouse":[780,780,780,780,780,780,780,780,780,780,780,780,780,780,780,780,780,780,780,780,780,780,780,780,780,780,780,780,780,781,786,793,814,828,848,872,899,953,973,980,984,987,989,989,989,989,989,989,992,993,997,1004,1017,1024,1035,1048,1057,1083,1087,1090,1092],"ymouse":[537,537,537,537,537,537,537,537,537,537,537,537,537,537,537,537,537,537,537,537,537,537,537,537,537,537,537,537,534,531,523,511,482,459,422,384,352,302,283,268,255,246,239,239,239,239,239,238,232,229,226,217,201,190,174,158,146,121,114,105,96],"timestamp_mouse":[10,29,48,68,89,110,129,148,169,190,208,229,249,268,289,309,328,350,369,388,409,430,450,469,489,509,529,548,568,588,610,629,648,668,688,708,728,749,769,788,809,828,849,869,888,908,929,948,968,988,1009,1029,1049,1068,1088,1108,1129,1148,1169,1188,1208],"xSR":733.5,"ySR":461.5,"xT1":420.09999999999997,"yT1":0,"xT2":1046.8999999999999,"yT2":0,"toosoon":0,"cond_shown":"Congruent","ratio_trial":100,"L_num":7,"L_den":14,"R_num":15,"R_den":25,"correct_side":2,"subjID":"DanielFelipeArtunduagaEscobar39","gender":"0","school":"colegiocafam","age":"11"},{"start_time":1551800781131,"click_time":1551800782741,"finger_time":1551800782121,"fix_duration":1350.6807901323898,"trial":31,"RT":990,"MT":620,"sideResp":2,"stimulus":[],"xmouse":[816,816,816,816,816,816,816,816,816,816,816,816,816,816,816,816,816,816,816,816,816,816,816,816,816,816,816,816,816,816,816,816,816,816,816,816,816,816,816,816,816,816,816,816,816,816,816,816,828,836,860,870,879,885,892,898,917,928,942,953,987,1009,1022,1037,1051,1080,1092,1096,1099,1103,1116,1118,1119,1119,1119,1119,1118,1117,1117,1117,1116],"ymouse":[518,518,518,518,518,518,518,518,518,518,518,518,518,518,518,518,518,518,518,518,518,518,518,518,518,518,518,518,518,518,518,518,518,518,518,518,518,518,518,518,518,518,518,518,518,518,518,518,511,506,485,474,456,439,423,404,369,354,338,323,277,249,231,216,202,181,173,170,166,162,150,147,145,143,140,133,124,118,113,108,99],"timestamp_mouse":[11,42,50,69,90,109,131,151,170,189,209,230,249,269,291,310,330,349,370,391,409,431,449,469,489,510,530,549,569,589,609,630,651,670,690,710,729,750,769,789,809,829,849,870,891,909,930,951,969,990,1012,1030,1049,1070,1089,1109,1129,1150,1169,1190,1209,1229,1249,1270,1289,1309,1329,1350,1370,1389,1410,1429,1449,1469,1489,1510,1529,1550,1570,1589,1610],"xSR":733.5,"ySR":461.5,"xT1":420.09999999999997,"yT1":0,"xT2":1046.8999999999999,"yT2":0,"toosoon":0,"cond_shown":"Congruent","ratio_trial":200,"L_num":21,"L_den":30,"R_num":2,"R_den":4,"correct_side":1,"subjID":"DanielFelipeArtunduagaEscobar39","gender":"0","school":"colegiocafam","age":"11"},{"start_time":1551800784345,"click_time":1551800785601,"finger_time":1551800785002,"fix_duration":543.3750717027241,"trial":32,"RT":657,"MT":599,"sideResp":1,"stimulus":[],"xmouse":[770,770,770,770,770,770,770,770,770,770,770,770,770,770,770,770,770,770,770,770,770,770,770,770,770,770,770,768,767,760,750,740,725,708,674,664,657,649,642,611,561,523,500,490,484,481,467,444,419,392,385,385,385,385,385,387,388,391,397,409,416,420,424],"ymouse":[524,524,524,524,524,524,524,524,524,524,524,524,524,524,524,524,524,524,524,524,524,524,524,524,524,524,524,525,525,521,513,500,481,460,421,404,383,366,351,300,237,196,173,160,146,142,129,114,96,74,66,66,66,66,65,63,63,63,63,65,68,69,71],"timestamp_mouse":[16,36,55,77,95,116,136,155,175,195,215,235,256,276,297,316,336,355,375,397,415,437,455,475,496,516,535,555,575,595,616,635,657,676,696,715,736,755,775,795,815,835,856,876,895,915,937,956,975,995,1015,1036,1055,1076,1096,1117,1135,1156,1177,1195,1216,1235,1256],"xSR":733.5,"ySR":461.5,"xT1":420.09999999999997,"yT1":0,"xT2":1046.8999999999999,"yT2":0,"toosoon":0,"cond_shown":"Incongruent","ratio_trial":200,"L_num":7,"L_den":10,"R_num":14,"R_den":28,"correct_side":1,"subjID":"DanielFelipeArtunduagaEscobar39","gender":"0","school":"colegiocafam","age":"11"},{"start_time":1551800788124,"click_time":1551800790041,"finger_time":1551800789060,"fix_duration":1482.584645445209,"trial":33,"RT":936,"MT":981,"sideResp":2,"stimulus":[],"xmouse":[790,790,790,790,790,790,790,790,790,790,790,790,790,790,790,790,790,790,790,790,790,790,790,790,790,790,790,790,790,790,790,790,790,790,791,793,799,802,803,803,803,803,804,807,812,827,838,852,866,879,913,927,942,950,958,975,986,994,1002,1009,1035,1048,1061,1073,1088,1108,1116,1123,1129,1132,1138,1139,1139,1139,1140,1142,1142,1142,1146,1150,1165,1168,1171,1171,1171,1171,1171,1171,1170,1170,1168,1166,1163,1158,1152,1139],"ymouse":[511,511,511,511,511,511,511,511,511,511,511,511,511,511,511,511,511,511,511,511,511,511,511,511,511,511,511,511,511,511,511,511,511,511,511,509,507,505,505,505,505,505,504,502,496,483,474,465,454,446,427,418,410,405,399,389,381,377,372,366,350,342,332,323,311,290,279,267,257,249,233,228,223,216,206,186,174,163,149,138,99,82,64,51,41,39,39,39,39,39,39,39,41,43,44,46],"timestamp_mouse":[20,38,56,77,97,116,137,157,177,198,217,237,258,278,298,317,337,357,377,397,416,436,457,477,496,516,538,558,576,597,617,637,656,676,698,716,736,756,776,797,816,837,856,878,897,916,936,957,977,996,1017,1036,1056,1077,1097,1116,1136,1156,1177,1197,1216,1237,1256,1277,1296,1316,1338,1356,1376,1397,1416,1437,1456,1477,1498,1516,1537,1557,1577,1596,1616,1636,1657,1677,1696,1718,1737,1757,1776,1796,1816,1836,1856,1876,1897,1916],"xSR":733.5,"ySR":461.5,"xT1":420.09999999999997,"yT1":0,"xT2":1046.8999999999999,"yT2":0,"toosoon":0,"cond_shown":"Incongruent","ratio_trial":100,"L_num":10,"L_den":25,"R_num":9,"R_den":18,"correct_side":2,"subjID":"DanielFelipeArtunduagaEscobar39","gender":"0","school":"colegiocafam","age":"11"},{"start_time":1551800792000,"click_time":1551800793521,"finger_time":1551800792941,"fix_duration":717.9969292125666,"trial":34,"RT":941,"MT":580,"sideResp":1,"stimulus":[],"xmouse":[773,773,773,773,773,773,773,773,773,773,773,773,773,773,773,773,773,773,773,773,773,773,773,773,773,773,773,773,773,773,773,773,773,773,773,773,773,773,773,773,773,773,773,773,773,773,773,764,757,753,752,752,751,748,742,736,725,687,657,628,588,549,504,486,470,459,448,434,428,426,426,426,426,426,430,436,442],"ymouse":[529,529,529,529,529,529,529,529,529,529,529,529,529,529,529,529,529,529,529,529,529,529,529,529,529,529,529,529,529,529,529,529,529,529,529,529,529,529,529,529,529,528,526,523,516,500,479,407,385,375,368,361,345,331,316,302,284,249,235,217,193,167,143,137,132,128,126,125,124,124,124,124,123,118,111,101,93],"timestamp_mouse":[4,20,47,61,80,101,120,140,161,180,202,220,240,261,280,300,322,341,360,380,401,420,441,461,481,501,520,541,561,581,602,622,642,662,681,701,721,740,761,781,800,820,841,860,880,901,920,941,961,980,1000,1020,1042,1060,1080,1100,1120,1141,1160,1180,1201,1220,1240,1261,1281,1300,1321,1341,1362,1381,1400,1420,1441,1461,1481,1500,1520],"xSR":733.5,"ySR":461.5,"xT1":420.09999999999997,"yT1":0,"xT2":1046.8999999999999,"yT2":0,"toosoon":0,"cond_shown":"Incongruent","ratio_trial":200,"L_num":3,"L_den":4,"R_num":11,"R_den":20,"correct_side":1,"subjID":"DanielFelipeArtunduagaEscobar39","gender":"0","school":"colegiocafam","age":"11"},{"start_time":1551800795634,"click_time":1551800797460,"finger_time":1551800796961,"fix_duration":992.8027123642102,"trial":35,"RT":1327,"MT":499,"sideResp":2,"stimulus":[],"xmouse":[790,790,790,790,790,790,790,790,790,790,790,790,790,790,790,790,790,790,790,790,790,790,790,790,790,790,790,790,790,790,790,790,790,790,790,790,790,790,790,790,790,790,790,790,790,790,790,790,790,790,790,790,790,790,790,790,790,790,790,790,790,790,790,790,791,820,846,865,884,909,969,1006,1046,1081,1102,1134,1152,1160,1166,1172,1183,1184,1184,1184,1184,1184,1184,1181,1176,1167,1153,1128],"ymouse":[540,540,540,540,540,540,540,540,540,540,540,540,540,540,540,540,540,540,540,540,540,540,540,540,540,540,540,540,540,540,540,540,540,540,540,540,540,540,540,540,540,540,540,540,540,540,540,540,540,540,540,540,540,540,540,540,540,540,540,540,540,540,540,539,538,521,508,493,471,433,334,270,215,172,146,108,87,76,67,56,41,39,38,38,38,38,37,38,38,41,45,50],"timestamp_mouse":[7,28,47,66,87,106,126,147,166,186,208,226,246,266,288,307,326,347,367,388,406,426,446,467,488,507,527,546,566,586,607,626,646,666,686,706,727,748,767,786,807,826,846,868,886,906,928,946,966,987,1007,1026,1047,1066,1087,1106,1127,1148,1167,1186,1206,1233,1246,1267,1286,1306,1327,1346,1367,1387,1407,1426,1446,1466,1488,1506,1526,1546,1567,1586,1606,1626,1647,1668,1686,1707,1726,1746,1767,1786,1806,1826],"xSR":733.5,"ySR":461.5,"xT1":420.09999999999997,"yT1":0,"xT2":1046.8999999999999,"yT2":0,"toosoon":0,"cond_shown":"Incongruent","ratio_trial":100,"L_num":10,"L_den":25,"R_num":9,"R_den":18,"correct_side":2,"subjID":"DanielFelipeArtunduagaEscobar39","gender":"0","school":"colegiocafam","age":"11"},{"start_time":1551800798813,"click_time":1551800800661,"finger_time":1551800800221,"fix_duration":250,"trial":36,"RT":1408,"MT":440,"sideResp":1,"stimulus":[],"xmouse":[784,784,784,784,784,784,784,784,784,784,784,784,784,784,784,784,784,784,784,784,784,784,784,784,784,784,784,784,784,784,784,784,784,784,784,784,784,784,784,784,784,784,784,784,784,784,784,784,784,784,784,784,784,784,784,784,784,784,784,784,784,784,784,784,784,784,784,784,784,781,775,741,719,705,693,680,628,612,592,565,534,480,457,441,437,436,427,419,417,417,421,457,464],"ymouse":[486,486,486,486,486,486,486,486,486,486,486,486,486,486,486,486,486,486,486,486,486,486,486,486,486,486,486,486,486,486,486,486,486,486,486,486,486,486,486,486,486,486,486,486,486,486,486,486,486,486,486,486,486,486,486,486,486,486,486,486,486,486,486,486,486,486,486,486,486,467,430,362,336,319,304,290,265,258,249,237,223,199,189,183,180,180,176,170,167,161,149,102,91],"timestamp_mouse":[10,43,48,67,87,107,127,147,167,187,208,227,248,267,287,308,327,348,367,388,407,428,447,467,488,508,527,547,569,587,608,629,649,667,688,709,727,748,767,787,807,828,847,869,887,907,928,947,967,988,1007,1028,1048,1069,1087,1108,1127,1147,1167,1188,1208,1228,1248,1268,1289,1307,1327,1347,1367,1387,1408,1427,1447,1467,1487,1508,1528,1548,1567,1587,1607,1628,1647,1667,1689,1707,1727,1748,1768,1788,1807,1827,1848],"xSR":733.5,"ySR":461.5,"xT1":420.09999999999997,"yT1":0,"xT2":1046.8999999999999,"yT2":0,"toosoon":0,"cond_shown":"Congruent","ratio_trial":100,"L_num":3,"L_den":6,"R_num":2,"R_den":5,"correct_side":1,"subjID":"DanielFelipeArtunduagaEscobar39","gender":"0","school":"colegiocafam","age":"11"},{"start_time":1551800803122,"click_time":1551800804980,"finger_time":1551800804540,"fix_duration":1399.5423953388931,"trial":37,"RT":1418,"MT":440,"sideResp":1,"stimulus":[],"xmouse":[794,794,794,794,794,794,794,794,794,794,794,794,794,794,794,794,794,794,794,794,794,794,794,794,794,794,794,794,794,794,794,794,794,794,794,794,794,794,794,794,794,794,794,794,794,794,794,794,794,794,794,794,794,794,794,794,794,794,794,794,794,794,794,794,794,794,794,794,787,776,736,718,708,687,659,615,588,551,506,461,414,379,368,359,353,348,348,348,348,357,385,409,423],"ymouse":[526,526,526,526,526,526,526,526,526,526,526,526,526,526,526,526,526,526,526,526,526,526,526,526,526,526,526,526,526,526,526,526,526,526,526,526,526,526,526,526,526,526,526,526,526,526,526,526,526,526,526,526,526,526,526,526,526,526,526,526,526,526,526,526,526,526,526,526,544,559,581,577,563,519,442,312,271,234,210,183,158,132,115,103,96,87,87,86,84,80,76,74,72],"timestamp_mouse":[32,39,58,79,99,119,138,158,178,198,220,238,258,278,299,319,338,358,380,399,420,439,458,479,498,518,538,558,579,600,618,639,659,679,698,719,738,758,778,798,819,840,859,880,900,918,939,959,979,998,1020,1038,1058,1078,1098,1119,1139,1158,1178,1198,1218,1239,1258,1279,1299,1318,1339,1360,1378,1398,1418,1438,1458,1478,1498,1518,1538,1558,1578,1599,1618,1639,1658,1678,1698,1719,1739,1758,1778,1799,1818,1838,1858],"xSR":733.5,"ySR":461.5,"xT1":420.09999999999997,"yT1":0,"xT2":1046.8999999999999,"yT2":0,"toosoon":0,"cond_shown":"Incongruent","ratio_trial":300,"L_num":2,"L_den":4,"R_num":6,"R_den":30,"correct_side":1,"subjID":"DanielFelipeArtunduagaEscobar39","gender":"0","school":"colegiocafam","age":"11"},{"start_time":1551800806494,"click_time":1551800808580,"finger_time":1551800808202,"fix_duration":433.4626316044916,"trial":38,"RT":1708,"MT":378,"sideResp":1,"stimulus":[],"xmouse":[750,750,750,750,750,750,750,750,750,750,750,750,750,750,750,750,750,750,750,750,750,750,750,750,750,750,750,750,750,750,750,750,750,750,750,750,750,750,750,750,750,750,750,750,750,750,750,750,750,750,750,750,750,750,750,750,750,750,750,750,750,750,750,750,750,750,750,751,752,753,753,754,754,754,754,754,754,754,754,754,754,755,755,755,745,727,703,649,618,598,582,567,548,539,532,528,526,522,519,517,516,513,504,496,493],"ymouse":[517,517,517,517,517,517,517,517,517,517,517,517,517,517,517,517,517,517,517,517,517,517,517,517,517,517,517,517,517,517,517,517,517,517,517,517,517,517,517,517,517,517,517,517,517,517,517,517,517,517,517,517,517,517,517,517,517,517,517,517,517,517,517,517,517,517,517,517,517,517,517,517,517,517,517,517,517,517,517,517,517,516,512,500,489,470,448,400,369,355,343,328,301,291,285,280,276,268,262,256,245,227,179,118,88],"timestamp_mouse":[12,40,47,66,87,107,126,147,168,186,207,226,246,267,287,307,326,346,366,387,406,426,446,467,487,507,528,546,566,586,607,627,647,667,686,707,726,746,767,786,806,826,846,866,888,906,926,946,966,986,1007,1026,1046,1067,1087,1107,1126,1148,1167,1186,1207,1226,1246,1267,1287,1306,1326,1348,1366,1386,1408,1427,1447,1466,1488,1506,1526,1547,1566,1588,1607,1628,1646,1667,1686,1708,1727,1747,1766,1787,1807,1826,1846,1867,1886,1907,1926,1946,1966,1987,2007,2027,2046,2066,2086],"xSR":733.5,"ySR":461.5,"xT1":420.09999999999997,"yT1":0,"xT2":1046.8999999999999,"yT2":0,"toosoon":0,"cond_shown":"Incongruent","ratio_trial":100,"L_num":9,"L_den":15,"R_num":14,"R_den":28,"correct_side":1,"subjID":"DanielFelipeArtunduagaEscobar39","gender":"0","school":"colegiocafam","age":"11"},{"start_time":1551800820013,"click_time":1551800821840,"finger_time":1551800821280,"fix_duration":250,"trial":39,"RT":1267,"MT":560,"sideResp":1,"stimulus":[],"xmouse":[789,789,789,789,789,789,789,789,789,789,789,789,789,789,789,789,789,789,789,789,789,789,789,789,789,789,789,789,789,789,789,789,789,789,789,789,789,789,789,789,789,789,789,789,789,789,789,789,789,789,789,789,789,789,789,789,789,789,788,786,780,772,753,735,711,684,621,603,590,577,568,551,540,529,512,496,458,430,412,407,406,405,404,403,403,403,410,416,417,419,420,423],"ymouse":[522,522,522,522,522,522,522,522,522,522,522,522,522,522,522,522,522,522,522,522,522,522,522,522,522,522,522,522,522,522,522,522,522,522,522,522,522,522,522,522,522,522,522,522,522,522,522,522,522,522,522,522,522,522,522,522,522,522,522,520,511,501,468,445,417,394,341,326,313,300,286,268,258,249,238,229,211,194,185,180,179,177,174,172,169,164,141,125,122,116,110,90],"timestamp_mouse":[9,27,48,68,87,108,129,147,168,188,207,228,248,269,287,307,328,349,367,388,407,428,448,467,487,509,527,548,569,587,608,627,647,669,687,707,729,748,769,787,808,829,848,868,887,908,928,949,968,988,1008,1028,1049,1067,1088,1108,1127,1148,1168,1188,1207,1227,1249,1267,1287,1308,1328,1347,1367,1388,1407,1428,1447,1468,1488,1507,1527,1547,1567,1587,1608,1627,1647,1668,1687,1709,1727,1747,1767,1787,1807,1827],"xSR":733.5,"ySR":461.5,"xT1":420.09999999999997,"yT1":0,"xT2":1046.8999999999999,"yT2":0,"toosoon":0,"cond_shown":"Incongruent","ratio_trial":200,"L_num":1,"L_den":2,"R_num":3,"R_den":10,"correct_side":1,"subjID":"DanielFelipeArtunduagaEscobar39","gender":"0","school":"colegiocafam","age":"11"},{"start_time":1551800824193,"click_time":1551800826100,"finger_time":1551800825440,"fix_duration":1252.4315951692836,"trial":40,"RT":1247,"MT":660,"sideResp":2,"stimulus":[],"xmouse":[814,814,814,814,814,814,814,814,814,814,814,814,814,814,814,814,814,814,814,814,814,814,814,814,814,814,814,814,814,814,814,814,814,814,814,814,814,814,814,814,814,814,814,814,814,814,814,814,814,814,814,814,814,814,814,814,814,814,814,814,815,820,834,840,845,848,849,895,916,930,939,947,960,969,978,988,997,1014,1015,1015,1016,1016,1017,1019,1023,1027,1029,1032,1036,1037,1038,1039,1042,1043,1045,1049],"ymouse":[520,520,520,520,520,520,520,520,520,520,520,520,520,520,520,520,520,520,520,520,520,520,520,520,520,520,520,520,520,520,520,520,520,520,520,520,520,520,520,520,520,520,520,520,520,520,520,520,520,520,520,520,520,520,520,520,520,520,520,520,514,498,463,449,435,414,390,319,295,271,246,214,177,163,155,150,145,135,133,132,131,130,130,130,127,124,123,119,115,112,106,102,97,96,94,91],"timestamp_mouse":[9,39,48,67,88,107,127,147,169,187,207,227,248,269,288,307,327,347,367,388,408,427,447,467,488,507,527,548,569,587,607,628,647,668,687,707,728,748,768,787,807,827,849,867,887,908,927,948,969,987,1007,1028,1049,1067,1088,1108,1128,1148,1167,1187,1208,1228,1247,1267,1288,1307,1327,1348,1368,1388,1407,1427,1447,1467,1488,1508,1527,1547,1568,1587,1607,1628,1647,1667,1687,1707,1727,1747,1767,1787,1808,1828,1848,1867,1887,1907],"xSR":733.5,"ySR":461.5,"xT1":420.09999999999997,"yT1":0,"xT2":1046.8999999999999,"yT2":0,"toosoon":0,"cond_shown":"Incongruent","ratio_trial":100,"L_num":6,"L_den":12,"R_num":3,"R_den":5,"correct_side":2,"subjID":"DanielFelipeArtunduagaEscobar39","gender":"0","school":"colegiocafam","age":"11"},{"start_time":1551800829087,"click_time":1551800831180,"finger_time":1551800830660,"fix_duration":1345.9466262042993,"trial":41,"RT":1573,"MT":520,"sideResp":1,"stimulus":[],"xmouse":[766,766,766,766,766,766,766,766,766,766,767,767,767,767,767,767,767,767,767,767,767,767,767,767,767,767,767,767,767,767,767,767,767,767,767,767,767,767,767,767,767,767,767,767,767,767,767,767,767,767,767,767,767,767,767,767,767,767,767,767,767,767,767,767,767,767,767,767,767,767,767,767,767,767,767,766,762,740,732,723,709,692,641,617,592,574,565,557,556,554,548,540,526,521,520,520,519,503,490,478,468,459,452,446,444],"ymouse":[515,515,515,515,515,515,515,515,515,515,516,516,516,516,516,516,516,516,516,516,516,516,516,516,516,516,516,516,516,516,516,516,516,516,516,516,516,516,516,516,516,516,516,516,516,516,516,516,516,516,516,516,516,516,516,516,516,516,516,516,516,516,516,516,516,516,516,516,516,516,516,516,516,516,516,518,522,541,541,541,541,533,469,429,382,339,298,246,230,214,198,183,167,164,164,164,164,159,152,143,135,125,113,103,99],"timestamp_mouse":[15,34,67,73,95,115,134,153,173,195,214,235,253,274,293,313,334,354,373,394,413,433,453,473,493,515,533,555,575,594,614,633,655,673,694,713,734,753,774,793,815,834,855,873,893,913,933,954,973,993,1014,1034,1053,1074,1094,1115,1134,1154,1174,1194,1215,1235,1254,1274,1293,1313,1333,1353,1374,1394,1413,1434,1455,1473,1494,1513,1533,1553,1573,1593,1613,1633,1654,1674,1693,1714,1733,1754,1773,1795,1814,1833,1853,1873,1893,1915,1934,1954,1973,1994,2013,2034,2053,2074,2093],"xSR":733.5,"ySR":461.5,"xT1":420.09999999999997,"yT1":0,"xT2":1046.8999999999999,"yT2":0,"toosoon":0,"cond_shown":"Congruent","ratio_trial":100,"L_num":1,"L_den":2,"R_num":3,"R_den":5,"correct_side":2,"subjID":"DanielFelipeArtunduagaEscobar39","gender":"0","school":"colegiocafam","age":"11"},{"start_time":1551800832592,"click_time":1551800833881,"finger_time":1551800833460,"fix_duration":250,"trial":42,"RT":868,"MT":421,"sideResp":2,"stimulus":[],"xmouse":[796,796,796,796,796,796,796,796,796,796,796,796,796,796,796,796,796,796,796,796,796,796,796,796,796,796,796,796,796,796,796,796,796,796,796,796,796,797,801,803,805,808,823,841,864,891,917,980,999,1012,1025,1036,1036,1036,1036,1036,1036,1036,1036,1036,1036,1036,1036,1036,1091],"ymouse":[548,548,548,548,548,548,548,548,548,548,548,548,548,548,548,548,548,548,548,548,548,548,548,548,548,548,548,548,548,548,548,548,548,548,548,548,548,547,542,538,533,525,482,433,371,302,225,92,61,36,17,1,1,1,1,1,1,1,1,1,1,1,1,1,4],"timestamp_mouse":[8,42,49,69,90,108,128,148,168,189,208,230,249,270,288,308,329,348,369,388,408,428,448,470,489,509,529,549,568,588,609,629,648,669,688,709,730,749,769,788,810,828,848,868,889,908,929,948,969,988,1009,1029,1050,1069,1090,1108,1128,1148,1168,1188,1208,1229,1249,1268,1289],"xSR":733.5,"ySR":461.5,"xT1":420.09999999999997,"yT1":0,"xT2":1046.8999999999999,"yT2":0,"toosoon":0,"cond_shown":"Congruent","ratio_trial":200,"L_num":3,"L_den":12,"R_num":9,"R_den":20,"correct_side":2,"subjID":"DanielFelipeArtunduagaEscobar39","gender":"0","school":"colegiocafam","age":"11"},{"start_time":1551800834924,"click_time":1551800836140,"finger_time":1551800835720,"fix_duration":301.32934258350474,"trial":43,"RT":796,"MT":420,"sideResp":1,"stimulus":[],"xmouse":[802,802,802,802,802,802,802,802,802,802,802,802,802,802,802,802,802,802,802,802,802,802,802,802,801,799,799,799,799,799,799,799,799,799,799,799,797,796,790,783,717,685,655,638,629,624,622,619,612,607,592,589,585,577,570,555,548,540,533,526,518],"ymouse":[513,513,513,513,513,513,513,513,513,513,513,513,513,513,513,513,513,513,513,513,513,513,513,513,513,513,513,513,513,513,513,513,513,513,513,513,511,505,481,433,198,127,84,62,54,48,48,47,44,41,36,36,37,42,47,57,62,68,73,76,79],"timestamp_mouse":[16,36,56,77,96,116,137,156,178,197,216,237,256,278,297,316,337,356,377,396,418,437,457,477,497,516,537,558,576,598,616,637,657,677,697,717,736,757,776,796,817,837,856,876,897,916,936,956,976,997,1016,1036,1056,1076,1096,1116,1136,1157,1177,1198,1216],"xSR":733.5,"ySR":461.5,"xT1":420.09999999999997,"yT1":0,"xT2":1046.8999999999999,"yT2":0,"toosoon":0,"cond_shown":"Congruent","ratio_trial":300,"L_num":18,"L_den":20,"R_num":9,"R_den":15,"correct_side":1,"subjID":"DanielFelipeArtunduagaEscobar39","gender":"0","school":"colegiocafam","age":"11"},{"start_time":1551800838410,"click_time":1551800840120,"finger_time":1551800839361,"fix_duration":969.8759745549677,"trial":44,"RT":951,"MT":759,"sideResp":2,"stimulus":[],"xmouse":[784,784,784,784,784,784,784,784,784,784,784,784,784,784,784,784,784,784,784,784,784,784,784,784,784,784,784,784,784,784,784,784,784,784,784,784,784,784,784,784,784,784,784,784,784,785,802,856,892,924,947,981,994,999,999,999,999,999,999,997,996,994,993,993,993,993,993,993,995,1001,1005,1006,1006,1005,1005,1005,1005,1005,1007,1008,1010,1019,1023,1026,1034,1047],"ymouse":[478,478,478,478,478,478,478,478,478,478,478,478,478,478,478,478,478,478,478,478,478,478,478,478,478,478,478,478,478,478,478,478,478,478,478,478,478,478,478,478,478,478,478,478,478,477,464,426,400,373,353,318,303,298,297,297,297,297,297,297,297,297,296,295,292,286,260,242,221,202,183,144,128,114,108,107,106,103,102,100,98,94,93,92,89,85],"timestamp_mouse":[10,34,52,70,90,112,130,150,171,191,212,231,250,271,290,312,330,351,372,391,410,430,450,471,492,512,531,551,570,590,611,630,652,671,690,710,730,751,770,790,810,830,851,870,891,911,930,951,970,990,1010,1030,1051,1070,1090,1112,1132,1151,1170,1191,1210,1230,1252,1271,1291,1310,1330,1350,1372,1391,1410,1431,1451,1471,1490,1511,1530,1551,1570,1591,1611,1630,1650,1672,1691,1710],"xSR":733.5,"ySR":461.5,"xT1":420.09999999999997,"yT1":0,"xT2":1046.8999999999999,"yT2":0,"toosoon":0,"cond_shown":"Incongruent","ratio_trial":200,"L_num":1,"L_den":3,"R_num":2,"R_den":15,"correct_side":1,"subjID":"DanielFelipeArtunduagaEscobar39","gender":"0","school":"colegiocafam","age":"11"},{"start_time":1551800842385,"click_time":1551800843841,"finger_time":1551800843640,"fix_duration":983.6152539645054,"trial":45,"RT":1255,"MT":201,"sideResp":1,"stimulus":[],"xmouse":[799,799,799,799,799,799,799,799,799,799,799,799,799,799,799,799,799,799,799,799,799,799,799,799,799,799,799,799,799,799,799,799,799,799,799,799,799,799,799,799,799,799,799,799,799,799,799,799,799,799,799,799,799,799,800,800,800,800,800,800,800,800,800,796,791,784,772,706,657,609,565,530,478],"ymouse":[506,506,506,506,506,506,506,506,506,506,506,506,506,506,506,506,506,506,506,506,506,506,506,506,506,506,506,506,506,506,506,506,506,506,506,506,506,506,506,506,506,506,506,506,506,506,506,506,506,506,506,506,506,506,505,501,485,469,468,468,468,466,453,443,430,416,399,276,208,142,93,61,28],"timestamp_mouse":[16,46,57,75,97,116,136,156,175,196,215,236,256,277,296,316,336,355,375,395,415,435,457,477,496,515,537,556,575,596,616,636,656,676,696,715,736,755,775,795,817,835,856,875,895,915,937,957,976,996,1017,1036,1055,1077,1095,1115,1136,1155,1176,1196,1216,1235,1255,1275,1295,1315,1337,1356,1376,1396,1416,1435,1456],"xSR":733.5,"ySR":461.5,"xT1":420.09999999999997,"yT1":0,"xT2":1046.8999999999999,"yT2":0,"toosoon":0,"cond_shown":"Congruent","ratio_trial":200,"L_num":8,"L_den":15,"R_num":7,"R_den":21,"correct_side":1,"subjID":"DanielFelipeArtunduagaEscobar39","gender":"0","school":"colegiocafam","age":"11"},{"start_time":1551800846094,"click_time":1551800847661,"finger_time":1551800847140,"fix_duration":1492.9338073644983,"trial":46,"RT":1046,"MT":521,"sideResp":1,"stimulus":[],"xmouse":[791,791,791,791,791,791,791,791,791,791,791,791,791,791,791,791,791,791,791,791,791,791,791,791,791,791,791,791,791,791,791,791,791,791,791,791,791,791,791,791,791,791,791,791,791,791,791,791,791,791,791,791,779,767,751,730,696,617,585,563,551,543,535,528,521,514,511,510,510,510,510,510,510,510,510,510,510,507,505],"ymouse":[513,513,513,513,513,513,513,513,513,513,513,513,513,513,513,513,513,513,513,513,513,513,513,513,513,513,513,513,513,513,513,513,513,513,513,513,513,513,513,513,511,511,510,508,507,506,506,506,505,504,501,497,451,424,398,372,332,236,192,159,138,122,113,109,107,106,106,106,106,106,106,106,106,106,106,106,105,101,98],"timestamp_mouse":[8,27,63,66,88,107,126,148,168,187,207,227,246,267,287,307,327,346,367,387,406,426,447,468,487,506,528,547,567,587,607,628,647,667,687,707,726,747,767,786,807,827,847,867,886,908,926,947,967,987,1007,1026,1046,1067,1086,1106,1126,1147,1168,1187,1206,1227,1248,1267,1286,1306,1327,1346,1367,1387,1406,1426,1446,1467,1487,1507,1528,1546,1566],"xSR":733.5,"ySR":461.5,"xT1":420.09999999999997,"yT1":0,"xT2":1046.8999999999999,"yT2":0,"toosoon":0,"cond_shown":"Congruent","ratio_trial":200,"L_num":7,"L_den":21,"R_num":2,"R_den":15,"correct_side":1,"subjID":"DanielFelipeArtunduagaEscobar39","gender":"0","school":"colegiocafam","age":"11"},{"start_time":1551800849349,"click_time":1551800850741,"finger_time":1551800850280,"fix_duration":507.2432864810763,"trial":47,"RT":931,"MT":461,"sideResp":2,"stimulus":[],"xmouse":[789,789,789,789,789,789,789,789,789,789,789,789,789,789,789,789,789,789,789,789,789,789,789,789,789,789,789,789,789,789,789,789,789,789,789,789,789,789,789,789,789,789,789,789,789,790,793,804,815,853,888,909,931,955,991,1008,1019,1025,1026,1026,1026,1026,1026,1027,1033,1038,1043,1046,1050,1055],"ymouse":[464,464,464,464,464,464,464,464,464,464,464,464,464,464,464,464,464,464,464,464,464,464,464,464,464,464,464,464,464,464,464,464,464,464,464,464,464,464,464,464,464,464,464,464,464,462,458,445,432,392,350,331,311,291,255,238,223,213,207,200,190,181,172,162,141,129,118,113,106,90],"timestamp_mouse":[13,33,52,71,92,112,132,152,172,191,212,233,252,272,292,311,332,353,372,392,412,431,452,471,491,512,533,551,571,593,613,631,651,673,692,712,731,752,772,791,813,831,852,871,892,912,931,951,973,991,1011,1032,1051,1071,1091,1111,1131,1151,1173,1191,1211,1232,1251,1271,1291,1311,1331,1353,1372,1392],"xSR":733.5,"ySR":461.5,"xT1":420.09999999999997,"yT1":0,"xT2":1046.8999999999999,"yT2":0,"toosoon":0,"cond_shown":"Congruent","ratio_trial":300,"L_num":1,"L_den":5,"R_num":11,"R_den":22,"correct_side":2,"subjID":"DanielFelipeArtunduagaEscobar39","gender":"0","school":"colegiocafam","age":"11"},{"start_time":1551800853205,"click_time":1551800854941,"finger_time":1551800854560,"fix_duration":302.78661433253984,"trial":48,"RT":1355,"MT":381,"sideResp":1,"stimulus":[],"xmouse":[809,809,809,809,809,809,809,809,809,809,809,809,809,809,809,809,809,809,809,809,809,809,809,809,809,809,809,809,809,809,809,809,809,809,809,809,809,809,809,809,809,809,809,809,809,809,809,809,809,809,809,809,809,809,809,809,809,809,809,809,809,809,809,809,807,802,742,709,664,604,530,435,415,405,402,402,396,395,395,398,403,414,423,431,437,443,460],"ymouse":[539,539,539,539,539,539,539,539,539,539,539,539,539,539,539,539,539,539,539,539,539,539,539,539,539,539,539,539,539,539,539,539,539,539,539,539,539,539,539,539,539,539,539,539,539,539,539,539,539,539,539,539,539,539,539,539,539,539,539,539,539,539,539,539,535,530,483,453,417,375,322,251,232,216,203,192,166,155,144,134,128,124,121,115,110,106,93],"timestamp_mouse":[16,36,57,75,95,116,136,155,175,195,216,235,255,276,295,316,335,356,375,395,415,435,455,476,496,515,536,555,575,597,615,636,657,675,697,716,736,755,775,796,815,836,855,875,896,915,937,955,975,997,1015,1035,1056,1076,1095,1116,1135,1156,1176,1197,1215,1235,1256,1276,1295,1316,1335,1355,1375,1395,1415,1435,1456,1476,1496,1515,1535,1556,1575,1596,1615,1636,1656,1676,1695,1716,1735],"xSR":733.5,"ySR":461.5,"xT1":420.09999999999997,"yT1":0,"xT2":1046.8999999999999,"yT2":0,"toosoon":0,"cond_shown":"Congruent","ratio_trial":300,"L_num":4,"L_den":5,"R_num":2,"R_den":4,"correct_side":1,"subjID":"DanielFelipeArtunduagaEscobar39","gender":"0","school":"colegiocafam","age":"11"},{"start_time":1551800857390,"click_time":1551800858920,"finger_time":1551800858340,"fix_duration":1447.8719576236654,"trial":49,"RT":950,"MT":580,"sideResp":2,"stimulus":[],"xmouse":[782,782,782,782,782,782,782,782,782,782,782,782,782,782,782,782,782,782,782,782,782,782,782,782,782,782,782,782,782,782,782,782,782,782,782,782,782,782,782,782,782,782,782,782,782,782,782,786,791,791,791,791,791,793,794,798,801,811,820,831,841,852,875,893,919,959,1002,1057,1059,1059,1060,1063,1074,1082,1091,1101,1108],"ymouse":[504,504,504,504,504,504,504,504,504,504,504,504,504,504,504,504,504,504,504,504,504,504,504,504,504,504,504,504,504,504,504,504,504,504,504,504,504,504,504,504,504,504,504,504,504,502,495,459,415,392,368,345,312,301,292,286,283,270,258,247,239,230,211,198,185,168,150,114,113,113,113,112,108,106,104,100,98],"timestamp_mouse":[10,35,51,71,90,111,131,151,170,190,210,230,251,270,292,310,331,350,371,391,410,430,452,470,490,510,530,551,571,592,610,631,652,671,691,712,731,751,771,790,811,830,851,870,891,911,932,950,970,991,1010,1030,1050,1070,1090,1110,1132,1150,1170,1190,1211,1230,1250,1270,1290,1311,1332,1351,1370,1390,1410,1430,1451,1471,1491,1511,1530],"xSR":733.5,"ySR":461.5,"xT1":420.09999999999997,"yT1":0,"xT2":1046.8999999999999,"yT2":0,"toosoon":0,"cond_shown":"Incongruent","ratio_trial":100,"L_num":6,"L_den":10,"R_num":13,"R_den":26,"correct_side":1,"subjID":"DanielFelipeArtunduagaEscobar39","gender":"0","school":"colegiocafam","age":"11"},{"start_time":1551800861241,"click_time":1551800862441,"finger_time":1551800862020,"fix_duration":979.8124531906241,"trial":50,"RT":779,"MT":421,"sideResp":2,"stimulus":[],"xmouse":[772,772,772,772,772,772,772,772,772,772,772,772,772,772,772,772,772,772,772,772,772,772,772,772,772,772,772,772,772,772,772,772,772,772,772,772,772,772,775,782,783,781,774,769,769,776,782,792,803,828,839,847,858,872,893,903,908,931,984,1084],"ymouse":[479,479,475,472,470,470,470,470,470,470,470,470,470,470,470,470,470,470,470,470,470,470,470,470,470,470,470,470,470,468,466,466,466,466,466,466,466,466,458,425,395,371,350,327,235,194,180,167,161,148,143,138,133,128,120,116,114,113,112,99],"timestamp_mouse":[38,39,61,81,99,119,139,159,181,200,219,239,260,280,301,319,340,359,379,400,419,441,460,479,500,520,540,560,579,599,620,639,661,680,700,720,739,760,779,800,819,839,859,880,899,920,939,960,979,999,1020,1039,1060,1080,1100,1119,1140,1160,1180,1199],"xSR":733.5,"ySR":461.5,"xT1":420.09999999999997,"yT1":0,"xT2":1046.8999999999999,"yT2":0,"toosoon":0,"cond_shown":"Incongruent","ratio_trial":300,"L_num":4,"L_den":20,"R_num":2,"R_den":4,"correct_side":2,"subjID":"DanielFelipeArtunduagaEscobar39","gender":"0","school":"colegiocafam","age":"11"},{"start_time":1551800865888,"click_time":1551800868261,"finger_time":1551800866940,"fix_duration":1107.5426979752465,"trial":51,"RT":1052,"MT":1321,"sideResp":2,"stimulus":[],"xmouse":[785,785,785,785,785,785,785,785,785,785,785,785,785,785,785,785,785,785,785,785,785,785,785,785,785,785,785,785,785,785,785,785,785,785,785,785,785,785,785,785,785,785,785,785,785,785,785,784,785,791,795,799,801,804,807,814,822,843,854,864,872,878,901,922,945,965,987,1029,1048,1063,1071,1073,1076,1079,1080,1081,1081,1082,1082,1082,1082,1082,1082,1082,1082,1081,1081,1080,1080,1080,1080,1080,1080,1080,1080,1080,1080,1080,1080,1080,1080,1080,1081,1081,1081,1081,1081,1081,1081,1081,1081,1081,1081,1082,1082,1082,1082,1082,1083],"ymouse":[534,534,534,534,534,534,534,534,534,534,534,534,534,534,534,534,534,534,534,534,534,534,534,534,534,534,534,534,534,534,534,534,534,534,534,534,534,534,534,534,534,534,534,534,534,534,534,532,518,501,483,463,412,393,380,370,360,337,324,317,310,304,283,268,251,235,217,192,187,184,183,183,181,178,175,173,170,160,154,144,137,131,128,126,124,122,121,119,119,119,118,117,117,117,117,115,115,113,111,109,107,106,105,105,105,105,105,105,105,105,104,104,103,103,103,102,102,100,96],"timestamp_mouse":[12,32,52,72,92,112,132,152,172,192,212,232,253,274,293,313,332,353,373,392,413,433,454,474,492,512,532,552,574,593,613,632,654,673,693,713,733,752,772,793,813,833,852,872,893,913,932,953,973,992,1012,1034,1052,1073,1093,1113,1133,1152,1172,1192,1212,1234,1253,1273,1292,1313,1333,1354,1372,1392,1412,1433,1453,1472,1492,1512,1533,1552,1573,1592,1612,1633,1652,1673,1692,1713,1732,1753,1774,1793,1813,1832,1853,1872,1892,1912,1933,1952,1973,1992,2013,2032,2053,2072,2092,2114,2132,2153,2173,2192,2212,2233,2252,2272,2292,2313,2333,2352,2372],"xSR":733.5,"ySR":461.5,"xT1":420.09999999999997,"yT1":0,"xT2":1046.8999999999999,"yT2":0,"toosoon":0,"cond_shown":"Incongruent","ratio_trial"