[{"start_time":1551801287138,"click_time":1551801289295,"finger_time":1551801289054,"fix_duration":1039.7436700774715,"trial":0,"RT":1916,"MT":241,"sideResp":1,"stimulus":"img/250/equaldotsize/L/2_Ratio_250_L_16_R_4.png","xmouse":[773,773,773,773,773,773,773,773,773,773,773,773,773,773,773,773,773,773,773,773,773,773,773,773,773,773,773,773,773,773,773,773,773,773,773,773,773,773,773,773,773,773,773,773,773,773,773,773,773,773,773,773,773,773,773,773,773,773,773,773,773,773,773,773,773,773,773,773,773,773,773,773,773,773,773,773,773,773,773,773,773,773,773,773,773,773,773,773,773,773,773,773,773,765,747,697,667,654,629,605,576,547,544,544,544,544,535,519],"ymouse":[541,541,541,541,541,541,541,541,541,541,541,541,541,541,541,541,541,541,541,541,541,541,541,541,541,541,541,541,541,541,541,541,541,541,541,541,541,541,541,541,541,541,541,541,541,541,541,541,541,541,541,541,541,541,541,541,541,541,541,541,541,541,541,541,541,541,541,541,541,541,541,541,541,541,541,541,541,541,541,541,541,541,541,541,541,541,541,541,541,541,541,541,541,532,500,432,375,330,264,209,146,94,89,89,88,87,76,62],"timestamp_mouse":[16,35,55,76,95,116,135,156,176,197,217,237,257,276,297,317,337,356,376,396,417,437,457,476,496,517,537,556,577,597,616,636,656,677,697,717,737,757,776,795,817,837,856,877,896,917,936,956,977,997,1017,1037,1057,1077,1097,1116,1137,1157,1176,1197,1217,1237,1257,1277,1296,1317,1337,1357,1376,1397,1417,1436,1457,1476,1496,1517,1536,1557,1576,1596,1616,1637,1657,1677,1696,1716,1737,1756,1777,1796,1817,1837,1857,1876,1896,1916,1936,1956,1976,1997,2016,2036,2056,2076,2096,2117,2136,2157],"xSR":733.5,"ySR":493.35,"xT1":420.09999999999997,"yT1":0,"xT2":1046.8999999999999,"yT2":0,"toosoon":0,"cond_shown":"equaldotsize","ratio_trial":250,"smaller_num":"4","larger_num":"16","correct_side":1,"subjID":"DanielFelipeArtunduagaEscobar39","gender":"0","age":"11","school":"6","test":{"fix_dur":[250,1500],"timestim":300,"targets_dim":[100,100],"targets_relative_coord":[0.3,0.7],"size_stim":[880,420],"start_dim":[100,100],"size_start":[300,300],"size_fix":60,"samplingrate":20,"img_types":["equaldotsize","equaldotanddens","randomdotsizeEA"],"ratios":[250,500,750,900],"rep_conds":9,"nTrials":120,"trials_to_rest":500,"Trials_order":[72,81,5,74,110,68,31,107,46,41,27,87,83,28,85,62,47,99,71,53,78,114,106,82,43,103,25,49,70,54,18,7,45,64,63,38,4,67,102,105,95,90,104,93,58,55,30,79,1,21,77,65,50,109,94,112,11,119,2,89,116,12,13,42,44,24,101,32,3,9,113,22,86,17,14,75,35,111,56,69,117,84,118,48,52,97,66,29,0,8,60,57,19,98,80,59,61,51,15,92,115,10,88,36,34,26,20,91,40,100,96,73,6,37,16,108,33,76,39,23],"cond_shown":["equaldotsize","equaldotsize","randomdotsizeEA","randomdotsizeEA","randomdotsizeEA","randomdotsizeEA","equaldotanddens","randomdotsizeEA","equaldotanddens","randomdotsizeEA","equaldotsize","equaldotsize","randomdotsizeEA","equaldotanddens","equaldotanddens","randomdotsizeEA","randomdotsizeEA","equaldotsize","randomdotsizeEA","randomdotsizeEA","equaldotsize","equaldotsize","equaldotanddens","equaldotanddens","equaldotanddens","equaldotanddens","equaldotanddens","equaldotanddens","equaldotanddens","equaldotsize","equaldotsize","equaldotanddens","equaldotsize","equaldotanddens","equaldotsize","randomdotsizeEA","equaldotanddens","equaldotanddens","equaldotsize","equaldotsize","randomdotsizeEA","equaldotsize","randomdotsizeEA","equaldotsize","equaldotanddens","equaldotanddens","equaldotsize","equaldotanddens","equaldotanddens","equaldotsize","randomdotsizeEA","randomdotsizeEA","randomdotsizeEA","equaldotanddens","equaldotanddens","equaldotanddens","randomdotsizeEA","randomdotsizeEA","randomdotsizeEA","randomdotsizeEA","randomdotsizeEA","equaldotsize","equaldotanddens","equaldotsize","randomdotsizeEA","equaldotsize","randomdotsizeEA","randomdotsizeEA","equaldotsize","equaldotsize","randomdotsizeEA","equaldotanddens","randomdotsizeEA","randomdotsizeEA","randomdotsizeEA","equaldotsize","randomdotsizeEA","equaldotsize","randomdotsizeEA","equaldotsize","equaldotsize","equaldotsize","equaldotanddens","equaldotsize","equaldotanddens","equaldotanddens","equaldotsize","randomdotsizeEA","equaldotsize","randomdotsizeEA","equaldotsize","equaldotsize","equaldotanddens","randomdotsizeEA","randomdotsizeEA","randomdotsizeEA","equaldotanddens","equaldotsize","equaldotsize","randomdotsizeEA","equaldotanddens","equaldotanddens","equaldotanddens","equaldotsize","equaldotanddens","randomdotsizeEA","randomdotsizeEA","equaldotanddens","equaldotanddens","equaldotanddens","equaldotsize","equaldotanddens","equaldotsize","equaldotanddens","equaldotanddens","equaldotsize","equaldotsize","equaldotanddens","equaldotsize","randomdotsizeEA"],"ratio_trial":[250,900,500,250,250,750,750,900,900,500,500,500,900,500,250,250,900,500,900,500,750,750,900,900,750,750,250,250,900,750,750,750,900,500,500,250,500,750,750,900,900,750,750,900,900,750,750,750,250,900,500,500,250,250,900,500,900,900,250,500,750,250,250,750,750,250,500,750,500,900,500,900,250,500,250,500,900,500,750,900,900,250,900,250,500,250,750,500,250,750,250,900,750,250,750,900,250,500,500,750,750,900,500,250,900,250,750,750,500,500,250,250,750,250,500,250,900,500,500,900],"smaller_num":["4","18","9","6","2","6","15","18","18","6","4","5","18","10","6","3","9","5","18","6","15","3","9","18","6","3","2","6","18","12","6","6","18","2","10","3","6","15","15","9","9","12","6","18","18","6","18","3","6","9","9","10","3","3","18","1","18","9","6","5","3","3","2","15","12","2","2","3","9","18","5","18","3","9","5","6","18","6","3","9","18","3","18","3","4","2","3","1","3","15","4","18","15","5","15","9","3","10","2","15","6","9","5","4","18","3","15","3","10","9","3","1","6","1","4","2","18","10","9","18"],"larger_num":["16","20","18","24","8","8","20","20","20","12","8","10","20","20","24","12","10","10","20","12","20","4","10","20","8","4","8","24","20","16","8","8","20","4","20","12","12","20","20","10","10","16","8","20","20","8","24","4","24","10","18","20","12","12","20","2","20","10","24","10","4","12","8","20","16","8","4","4","18","20","10","20","12","18","20","12","20","12","4","10","20","12","20","12","8","8","4","2","12","20","16","20","20","20","20","10","12","20","4","20","8","10","10","16","20","12","20","4","20","18","12","4","8","4","8","8","20","20","18","20"],"correct_side":[1,1,2,2,2,1,2,1,2,1,1,1,1,2,1,2,2,1,1,1,1,1,2,2,1,1,1,2,2,2,1,2,1,1,2,2,1,1,2,2,2,2,1,2,1,2,1,1,1,2,2,2,2,2,1,2,2,1,1,1,1,1,1,2,2,2,1,2,2,1,2,1,1,1,2,1,1,1,1,2,2,2,2,1,1,1,1,2,1,2,2,1,2,2,1,1,1,2,1,2,1,2,1,1,2,2,2,2,2,2,1,2,1,2,1,2,1,2,2,1],"img_shown":["img/250/equaldotsize/L/2_Ratio_250_L_16_R_4.png","img/900/equaldotsize/L/4_Ratio_900_L_20_R_18.png","img/500/randomdotsizeEA/R/1_Ratio_500_L_9_R_18.png","img/250/randomdotsizeEA/R/6_Ratio_250_L_6_R_24.png","img/250/randomdotsizeEA/R/13_Ratio_250_L_2_R_8.png","img/750/randomdotsizeEA/L/13_Ratio_750_L_8_R_6.png","img/750/equaldotanddens/R/3_Ratio_750_L_15_R_20.png","img/900/randomdotsizeEA/L/10_Ratio_900_L_20_R_18.png","img/900/equaldotanddens/R/12_Ratio_900_L_18_R_20.png","img/500/randomdotsizeEA/L/13_Ratio_500_L_12_R_6.png","img/500/equaldotsize/L/8_Ratio_500_L_8_R_4.png","img/500/equaldotsize/L/7_Ratio_500_L_10_R_5.png","img/900/randomdotsizeEA/L/10_Ratio_900_L_20_R_18.png","img/500/equaldotanddens/R/3_Ratio_500_L_10_R_20.png","img/250/equaldotanddens/L/5_Ratio_250_L_24_R_6.png","img/250/randomdotsizeEA/R/9_Ratio_250_L_3_R_12.png","img/900/randomdotsizeEA/R/3_Ratio_900_L_9_R_10.png","img/500/equaldotsize/L/7_Ratio_500_L_10_R_5.png","img/900/randomdotsizeEA/L/10_Ratio_900_L_20_R_18.png","img/500/randomdotsizeEA/L/13_Ratio_500_L_12_R_6.png","img/750/equaldotsize/L/1_Ratio_750_L_20_R_15.png","img/750/equaldotsize/L/10_Ratio_750_L_4_R_3.png","img/900/equaldotanddens/R/6_Ratio_900_L_9_R_10.png","img/900/equaldotanddens/R/13_Ratio_900_L_18_R_20.png","img/750/equaldotanddens/L/13_Ratio_750_L_8_R_6.png","img/750/equaldotanddens/L/10_Ratio_750_L_4_R_3.png","img/250/equaldotanddens/L/1_Ratio_250_L_8_R_2.png","img/250/equaldotanddens/R/6_Ratio_250_L_6_R_24.png","img/900/equaldotanddens/R/12_Ratio_900_L_18_R_20.png","img/750/equaldotsize/R/11_Ratio_750_L_12_R_16.png","img/750/equaldotsize/L/13_Ratio_750_L_8_R_6.png","img/750/equaldotanddens/R/2_Ratio_750_L_6_R_8.png","img/900/equaldotsize/L/10_Ratio_900_L_20_R_18.png","img/500/equaldotanddens/L/5_Ratio_500_L_4_R_2.png","img/500/equaldotsize/R/3_Ratio_500_L_10_R_20.png","img/250/randomdotsizeEA/R/4_Ratio_250_L_3_R_12.png","img/500/equaldotanddens/L/11_Ratio_500_L_12_R_6.png","img/750/equaldotanddens/L/1_Ratio_750_L_20_R_15.png","img/750/equaldotsize/R/5_Ratio_750_L_15_R_20.png","img/900/equaldotsize/R/7_Ratio_900_L_9_R_10.png","img/900/randomdotsizeEA/R/5_Ratio_900_L_9_R_10.png","img/750/equaldotsize/R/11_Ratio_750_L_12_R_16.png","img/750/randomdotsizeEA/L/13_Ratio_750_L_8_R_6.png","img/900/equaldotsize/R/13_Ratio_900_L_18_R_20.png","img/900/equaldotanddens/L/8_Ratio_900_L_20_R_18.png","img/750/equaldotanddens/R/2_Ratio_750_L_6_R_8.png","img/750/equaldotsize/L/6_Ratio_750_L_24_R_18.png","img/750/equaldotanddens/L/8_Ratio_750_L_4_R_3.png","img/250/equaldotanddens/L/5_Ratio_250_L_24_R_6.png","img/900/equaldotsize/R/6_Ratio_900_L_9_R_10.png","img/500/randomdotsizeEA/R/1_Ratio_500_L_9_R_18.png","img/500/randomdotsizeEA/R/3_Ratio_500_L_10_R_20.png","img/250/randomdotsizeEA/R/9_Ratio_250_L_3_R_12.png","img/250/equaldotanddens/R/4_Ratio_250_L_3_R_12.png","img/900/equaldotanddens/L/4_Ratio_900_L_20_R_18.png","img/500/equaldotanddens/R/12_Ratio_500_L_1_R_2.png","img/900/randomdotsizeEA/R/12_Ratio_900_L_18_R_20.png","img/900/randomdotsizeEA/L/1_Ratio_900_L_10_R_9.png","img/250/randomdotsizeEA/L/5_Ratio_250_L_24_R_6.png","img/500/randomdotsizeEA/L/7_Ratio_500_L_10_R_5.png","img/750/randomdotsizeEA/L/10_Ratio_750_L_4_R_3.png","img/250/equaldotsize/L/14_Ratio_250_L_12_R_3.png","img/250/equaldotanddens/L/7_Ratio_250_L_8_R_2.png","img/750/equaldotsize/R/4_Ratio_750_L_15_R_20.png","img/750/randomdotsizeEA/R/11_Ratio_750_L_12_R_16.png","img/250/equaldotsize/R/13_Ratio_250_L_2_R_8.png","img/500/randomdotsizeEA/L/5_Ratio_500_L_4_R_2.png","img/750/randomdotsizeEA/R/12_Ratio_750_L_3_R_4.png","img/500/equaldotsize/R/6_Ratio_500_L_9_R_18.png","img/900/equaldotsize/L/8_Ratio_900_L_20_R_18.png","img/500/randomdotsizeEA/R/14_Ratio_500_L_5_R_10.png","img/900/equaldotanddens/L/4_Ratio_900_L_20_R_18.png","img/250/randomdotsizeEA/L/14_Ratio_250_L_12_R_3.png","img/500/randomdotsizeEA/L/4_Ratio_500_L_18_R_9.png","img/250/randomdotsizeEA/R/12_Ratio_250_L_5_R_20.png","img/500/equaldotsize/L/11_Ratio_500_L_12_R_6.png","img/900/randomdotsizeEA/L/10_Ratio_900_L_20_R_18.png","img/500/equaldotsize/L/11_Ratio_500_L_12_R_6.png","img/750/randomdotsizeEA/L/8_Ratio_750_L_4_R_3.png","img/900/equaldotsize/R/15_Ratio_900_L_9_R_10.png","img/900/equaldotsize/R/13_Ratio_900_L_18_R_20.png","img/250/equaldotsize/R/9_Ratio_250_L_3_R_12.png","img/900/equaldotanddens/R/11_Ratio_900_L_18_R_20.png","img/250/equaldotsize/L/14_Ratio_250_L_12_R_3.png","img/500/equaldotanddens/L/8_Ratio_500_L_8_R_4.png","img/250/equaldotanddens/L/7_Ratio_250_L_8_R_2.png","img/750/equaldotsize/L/10_Ratio_750_L_4_R_3.png","img/500/randomdotsizeEA/R/12_Ratio_500_L_1_R_2.png","img/250/equaldotsize/L/14_Ratio_250_L_12_R_3.png","img/750/randomdotsizeEA/R/5_Ratio_750_L_15_R_20.png","img/250/equaldotsize/R/10_Ratio_250_L_4_R_16.png","img/900/equaldotsize/L/4_Ratio_900_L_20_R_18.png","img/750/equaldotanddens/R/4_Ratio_750_L_15_R_20.png","img/250/randomdotsizeEA/R/12_Ratio_250_L_5_R_20.png","img/750/randomdotsizeEA/L/1_Ratio_750_L_20_R_15.png","img/900/randomdotsizeEA/L/1_Ratio_900_L_10_R_9.png","img/250/equaldotanddens/L/14_Ratio_250_L_12_R_3.png","img/500/equaldotsize/R/3_Ratio_500_L_10_R_20.png","img/500/equaldotsize/L/10_Ratio_500_L_4_R_2.png","img/750/randomdotsizeEA/R/4_Ratio_750_L_15_R_20.png","img/750/equaldotanddens/L/14_Ratio_750_L_8_R_6.png","img/900/equaldotanddens/R/7_Ratio_900_L_9_R_10.png","img/500/equaldotanddens/L/7_Ratio_500_L_10_R_5.png","img/250/equaldotsize/L/2_Ratio_250_L_16_R_4.png","img/900/equaldotanddens/R/11_Ratio_900_L_18_R_20.png","img/250/randomdotsizeEA/R/9_Ratio_250_L_3_R_12.png","img/750/randomdotsizeEA/R/3_Ratio_750_L_15_R_20.png","img/750/equaldotanddens/R/7_Ratio_750_L_3_R_4.png","img/500/equaldotanddens/R/3_Ratio_500_L_10_R_20.png","img/500/equaldotanddens/R/6_Ratio_500_L_9_R_18.png","img/250/equaldotsize/L/14_Ratio_250_L_12_R_3.png","img/250/equaldotanddens/R/8_Ratio_250_L_1_R_4.png","img/750/equaldotsize/L/13_Ratio_750_L_8_R_6.png","img/250/equaldotanddens/R/8_Ratio_250_L_1_R_4.png","img/500/equaldotanddens/L/8_Ratio_500_L_8_R_4.png","img/250/equaldotsize/R/13_Ratio_250_L_2_R_8.png","img/900/equaldotsize/L/8_Ratio_900_L_20_R_18.png","img/500/equaldotanddens/R/3_Ratio_500_L_10_R_20.png","img/500/equaldotsize/R/6_Ratio_500_L_9_R_18.png","img/900/randomdotsizeEA/L/2_Ratio_900_L_20_R_18.png"],"Rat0":[["12_Ratio_0_L_9_R_0.png","13_Ratio_0_L_6_R_0.png","5_Ratio_0_L_2_R_0.png","6_Ratio_0_L_4_R_0.png","8_Ratio_0_L_6_R_0.png"],["1_Ratio_0_L_0_R_17.png","10_Ratio_0_L_0_R_22.png","11_Ratio_0_L_0_R_1.png","14_Ratio_0_L_0_R_24.png","15_Ratio_0_L_0_R_4.png","2_Ratio_0_L_0_R_5.png","3_Ratio_0_L_0_R_17.png","4_Ratio_0_L_0_R_7.png","7_Ratio_0_L_0_R_19.png","9_Ratio_0_L_0_R_15.png"]],"Rat250":[["1_Ratio_250_L_8_R_2.png","14_Ratio_250_L_12_R_3.png","15_Ratio_250_L_12_R_3.png","2_Ratio_250_L_16_R_4.png","3_Ratio_250_L_8_R_2.png","5_Ratio_250_L_24_R_6.png","7_Ratio_250_L_8_R_2.png"],["10_Ratio_250_L_4_R_16.png","11_Ratio_250_L_3_R_12.png","12_Ratio_250_L_5_R_20.png","13_Ratio_250_L_2_R_8.png","4_Ratio_250_L_3_R_12.png","6_Ratio_250_L_6_R_24.png","8_Ratio_250_L_1_R_4.png","9_Ratio_250_L_3_R_12.png"]],"Rat500":[["10_Ratio_500_L_4_R_2.png","11_Ratio_500_L_12_R_6.png","13_Ratio_500_L_12_R_6.png","4_Ratio_500_L_18_R_9.png","5_Ratio_500_L_4_R_2.png","7_Ratio_500_L_10_R_5.png","8_Ratio_500_L_8_R_4.png"],["1_Ratio_500_L_9_R_18.png","12_Ratio_500_L_1_R_2.png","14_Ratio_500_L_5_R_10.png","15_Ratio_500_L_1_R_2.png","2_Ratio_500_L_3_R_6.png","3_Ratio_500_L_10_R_20.png","6_Ratio_500_L_9_R_18.png","9_Ratio_500_L_2_R_4.png"]],"Rat750":[["1_Ratio_750_L_20_R_15.png","10_Ratio_750_L_4_R_3.png","13_Ratio_750_L_8_R_6.png","14_Ratio_750_L_8_R_6.png","6_Ratio_750_L_24_R_18.png","8_Ratio_750_L_4_R_3.png","9_Ratio_750_L_4_R_3.png"],["11_Ratio_750_L_12_R_16.png","12_Ratio_750_L_3_R_4.png","15_Ratio_750_L_9_R_12.png","2_Ratio_750_L_6_R_8.png","3_Ratio_750_L_15_R_20.png","4_Ratio_750_L_15_R_20.png","5_Ratio_750_L_15_R_20.png","7_Ratio_750_L_3_R_4.png"]],"Rat900":[["1_Ratio_900_L_10_R_9.png","10_Ratio_900_L_20_R_18.png","2_Ratio_900_L_20_R_18.png","4_Ratio_900_L_20_R_18.png","8_Ratio_900_L_20_R_18.png"],["11_Ratio_900_L_18_R_20.png","12_Ratio_900_L_18_R_20.png","13_Ratio_900_L_18_R_20.png","14_Ratio_900_L_18_R_20.png","15_Ratio_900_L_9_R_10.png","3_Ratio_900_L_9_R_10.png","5_Ratio_900_L_9_R_10.png","6_Ratio_900_L_9_R_10.png","7_Ratio_900_L_9_R_10.png","9_Ratio_900_L_18_R_20.png"]],"Rat1000":[["10_Ratio_1000_L_16_R_16.png","11_Ratio_1000_L_6_R_6.png","12_Ratio_1000_L_14_R_14.png","13_Ratio_1000_L_20_R_20.png","15_Ratio_1000_L_15_R_15.png","2_Ratio_1000_L_17_R_17.png","4_Ratio_1000_L_9_R_9.png","5_Ratio_1000_L_6_R_6.png","6_Ratio_1000_L_19_R_19.png","8_Ratio_1000_L_14_R_14.png","9_Ratio_1000_L_25_R_25.png"],["1_Ratio_1000_L_1_R_1.png","14_Ratio_1000_L_17_R_17.png","3_Ratio_1000_L_17_R_17.png","7_Ratio_1000_L_6_R_6.png"]]}},{"start_time":1551801291529,"click_time":1551801292714,"finger_time":1551801292334,"fix_duration":1113.3299939163655,"trial":1,"RT":805,"MT":380,"sideResp":2,"stimulus":"img/900/equaldotsize/L/4_Ratio_900_L_20_R_18.png","xmouse":[771,771,771,771,771,771,771,771,771,771,771,771,771,771,771,771,771,771,771,771,771,771,771,771,771,771,771,771,771,771,771,771,771,771,771,771,771,771,772,780,789,842,894,903,911,916,929,956,967,978,993,1002,1026,1040,1048,1057,1089,1105,1117,1126],"ymouse":[475,475,475,475,475,475,475,475,475,475,475,475,475,475,475,475,475,475,475,475,475,475,475,475,475,475,475,475,475,475,475,475,475,475,475,475,475,475,475,466,458,413,365,347,329,308,286,252,241,230,214,202,182,172,167,160,134,118,106,98],"timestamp_mouse":[10,24,45,64,86,106,125,144,166,185,206,226,244,265,286,305,326,345,366,385,406,425,446,466,486,505,525,545,566,586,606,625,645,665,685,705,726,745,766,785,805,826,845,865,885,905,925,945,965,985,1005,1025,1046,1064,1086,1104,1126,1145,1165,1185],"xSR":733.5,"ySR":461.5,"xT1":420.09999999999997,"yT1":0,"xT2":1046.8999999999999,"yT2":0,"toosoon":0,"cond_shown":"equaldotsize","ratio_trial":900,"smaller_num":"18","larger_num":"20","correct_side":1,"subjID":"DanielFelipeArtunduagaEscobar39","gender":"0","age":"11","school":"6"},{"start_time":1551801296546,"click_time":1551801297874,"finger_time":1551801297554,"fix_duration":391.67035504163374,"trial":2,"RT":1008,"MT":320,"sideResp":1,"stimulus":"img/500/randomdotsizeEA/R/1_Ratio_500_L_9_R_18.png","xmouse":[756,756,756,756,756,756,756,756,756,756,756,756,756,756,756,756,756,756,756,756,756,756,756,756,756,756,756,756,756,756,756,756,756,756,756,756,756,756,756,756,756,756,756,756,756,756,756,755,754,754,754,740,718,696,681,671,665,658,647,636,612,600,592,577,558,538,506],"ymouse":[494,494,494,494,494,494,494,494,494,494,494,494,494,494,494,494,494,494,494,494,494,494,494,494,494,494,494,494,494,494,494,494,494,494,494,494,494,494,494,494,494,494,494,494,494,494,494,494,493,486,447,388,341,299,274,244,224,200,178,160,130,123,119,113,109,102,92],"timestamp_mouse":[13,40,48,69,87,109,128,148,169,189,208,228,248,268,289,309,329,348,369,388,409,429,449,469,487,508,529,547,568,588,608,628,649,669,688,708,728,748,768,788,808,828,848,869,888,907,928,948,969,989,1008,1029,1048,1069,1088,1108,1127,1148,1168,1189,1209,1228,1247,1269,1288,1309,1328],"xSR":733.5,"ySR":461.5,"xT1":420.09999999999997,"yT1":0,"xT2":1046.8999999999999,"yT2":0,"toosoon":0,"cond_shown":"randomdotsizeEA","ratio_trial":500,"smaller_num":"9","larger_num":"18","correct_side":2,"subjID":"DanielFelipeArtunduagaEscobar39","gender":"0","age":"11","school":"6"},{"start_time":1551801299234,"click_time":1551801300374,"finger_time":1551801300034,"fix_duration":619.9038705060296,"trial":3,"RT":800,"MT":340,"sideResp":2,"stimulus":"img/250/randomdotsizeEA/R/6_Ratio_250_L_6_R_24.png","xmouse":[763,763,763,763,763,763,763,763,763,763,763,763,763,763,763,763,763,763,763,763,763,763,763,763,763,763,763,763,763,763,763,763,763,763,763,763,763,768,779,810,857,981,1037,1068,1084,1097,1097,1097,1096,1096,1094,1091,1091,1089,1088,1087,1086],"ymouse":[478,478,478,478,478,478,478,478,478,478,478,478,478,478,478,478,478,478,478,478,478,478,478,478,478,478,478,478,478,478,478,478,478,478,478,478,478,476,468,443,396,274,230,207,196,182,178,176,174,171,164,147,141,135,126,118,91],"timestamp_mouse":[21,41,60,81,99,121,140,160,181,200,220,240,261,280,301,321,340,360,381,400,420,440,460,481,500,519,541,561,580,601,621,640,661,680,701,721,741,760,779,800,821,840,861,880,901,920,941,960,981,1000,1021,1040,1061,1080,1101,1120,1140],"xSR":733.5,"ySR":461.5,"xT1":420.09999999999997,"yT1":0,"xT2":1046.8999999999999,"yT2":0,"toosoon":0,"cond_shown":"randomdotsizeEA","ratio_trial":250,"smaller_num":"6","larger_num":"24","correct_side":2,"subjID":"DanielFelipeArtunduagaEscobar39","gender":"0","age":"11","school":"6"},{"start_time":1551801302609,"click_time":1551801303874,"finger_time":1551801303594,"fix_duration":1453.6589069841552,"trial":4,"RT":985,"MT":280,"sideResp":2,"stimulus":"img/250/randomdotsizeEA/R/13_Ratio_250_L_2_R_8.png","xmouse":[768,768,768,768,768,768,768,768,768,768,768,768,768,768,768,768,768,768,768,768,768,768,768,768,768,768,768,768,768,768,768,768,768,768,768,768,768,768,768,768,768,768,768,768,768,768,768,772,786,809,840,885,926,966,976,981,986,998,1006,1018,1035,1047,1053,1062],"ymouse":[498,498,498,498,498,498,498,498,498,498,498,498,498,498,498,498,498,498,498,498,498,498,498,498,498,498,498,498,498,498,498,498,498,498,498,498,498,498,498,498,498,498,498,498,498,498,498,496,476,446,404,365,336,302,288,271,253,221,208,186,159,132,112,89],"timestamp_mouse":[9,37,45,65,85,106,126,145,165,185,205,225,246,265,286,304,325,346,365,385,406,425,445,465,485,506,525,546,566,586,605,625,646,665,685,705,726,745,765,785,806,826,846,866,885,906,926,945,965,985,1005,1025,1045,1065,1085,1105,1126,1145,1165,1185,1206,1225,1246,1265],"xSR":733.5,"ySR":461.5,"xT1":420.09999999999997,"yT1":0,"xT2":1046.8999999999999,"yT2":0,"toosoon":0,"cond_shown":"randomdotsizeEA","ratio_trial":250,"smaller_num":"2","larger_num":"8","correct_side":2,"subjID":"DanielFelipeArtunduagaEscobar39","gender":"0","age":"11","school":"6"},{"start_time":1551801305935,"click_time":1551801306874,"finger_time":1551801306674,"fix_duration":1339.3983468163483,"trial":5,"RT":739,"MT":200,"sideResp":1,"stimulus":"img/750/randomdotsizeEA/L/13_Ratio_750_L_8_R_6.png","xmouse":[755,755,755,755,755,755,755,755,755,755,755,755,755,755,755,755,755,755,755,755,755,755,755,755,755,755,755,755,755,755,755,755,755,755,755,755,753,721,681,649,628,603,571,557,548,538,521,518],"ymouse":[475,475,475,475,475,475,475,475,475,475,475,475,475,475,475,475,475,475,475,475,475,475,475,475,475,475,475,475,475,475,475,475,475,475,475,475,463,382,315,261,222,186,138,119,100,78,32,24],"timestamp_mouse":[1,20,40,59,78,100,119,140,160,179,199,219,240,259,279,300,320,340,359,380,398,420,439,460,479,500,518,539,559,579,600,619,639,659,680,699,719,739,760,779,798,819,839,859,880,899,919,939],"xSR":733.5,"ySR":461.5,"xT1":420.09999999999997,"yT1":0,"xT2":1046.8999999999999,"yT2":0,"toosoon":0,"cond_shown":"randomdotsizeEA","ratio_trial":750,"smaller_num":"6","larger_num":"8","correct_side":1,"subjID":"DanielFelipeArtunduagaEscobar39","gender":"0","age":"11","school":"6"},{"start_time":1551801309012,"click_time":1551801310256,"finger_time":1551801309935,"fix_duration":1197.0975665396882,"trial":6,"RT":923,"MT":321,"sideResp":2,"stimulus":"img/750/equaldotanddens/R/3_Ratio_750_L_15_R_20.png","xmouse":[789,789,789,789,789,789,789,789,789,789,789,789,789,789,789,789,789,789,789,789,789,789,789,789,789,789,789,789,789,789,789,789,789,789,789,789,789,789,789,789,791,793,800,808,812,823,845,910,944,973,992,1007,1031,1042,1050,1057,1066,1081,1105,1114,1119,1124,1128],"ymouse":[511,511,511,511,511,511,511,511,511,511,511,511,511,511,511,511,511,511,511,511,511,511,511,511,511,511,511,511,511,511,511,511,511,511,511,511,511,511,511,511,511,508,501,492,487,476,445,355,308,274,253,240,221,211,204,192,176,150,122,112,106,100,91],"timestamp_mouse":[9,22,44,62,81,103,122,142,162,181,203,223,241,263,281,303,322,342,362,382,402,422,442,463,482,503,522,543,563,582,602,623,642,663,683,702,723,742,763,783,802,822,843,862,883,902,923,942,962,982,1003,1022,1043,1062,1083,1102,1123,1142,1161,1182,1203,1222,1243],"xSR":733.5,"ySR":461.5,"xT1":420.09999999999997,"yT1":0,"xT2":1046.8999999999999,"yT2":0,"toosoon":0,"cond_shown":"equaldotanddens","ratio_trial":750,"smaller_num":"15","larger_num":"20","correct_side":2,"subjID":"DanielFelipeArtunduagaEscobar39","gender":"0","age":"11","school":"6"},{"start_time":1551801312352,"click_time":1551801313515,"finger_time":1551801313175,"fix_duration":1336.0490441791897,"trial":7,"RT":823,"MT":340,"sideResp":1,"stimulus":"img/900/randomdotsizeEA/L/10_Ratio_900_L_20_R_18.png","xmouse":[814,814,814,814,814,814,814,814,814,814,814,814,814,814,814,814,814,814,814,814,814,814,814,814,814,814,814,814,814,814,814,814,814,814,814,814,814,814,814,814,812,786,760,727,680,602,585,585,585,585,585,585,585,585,585,536,527,521,515],"ymouse":[530,530,530,530,530,530,530,530,530,530,530,530,530,530,530,530,530,530,530,530,530,530,530,530,530,530,530,530,530,530,530,530,530,530,530,530,530,530,530,530,525,401,299,195,105,12,0,0,0,0,0,0,0,0,0,16,35,49,60],"timestamp_mouse":[8,34,43,63,82,102,123,142,162,183,203,222,243,263,283,302,322,342,362,382,402,423,443,462,482,502,523,542,563,583,603,622,643,663,683,702,722,741,762,783,801,823,842,862,882,903,922,942,963,983,1003,1022,1042,1062,1081,1103,1121,1142,1163],"xSR":733.5,"ySR":461.5,"xT1":420.09999999999997,"yT1":0,"xT2":1046.8999999999999,"yT2":0,"toosoon":0,"cond_shown":"randomdotsizeEA","ratio_trial":900,"smaller_num":"18","larger_num":"20","correct_side":1,"subjID":"DanielFelipeArtunduagaEscobar39","gender":"0","age":"11","school":"6"},{"start_time":1551801315143,"click_time":1551801316256,"finger_time":1551801315854,"fix_duration":707.6613869694963,"trial":8,"RT":711,"MT":402,"sideResp":2,"stimulus":"img/900/equaldotanddens/R/12_Ratio_900_L_18_R_20.png","xmouse":[800,800,800,800,800,800,800,800,800,800,800,800,800,800,800,800,800,800,800,800,800,800,800,800,800,800,800,800,800,800,800,800,800,805,816,857,979,1030,1069,1091,1110,1114,1115,1116,1118,1119,1120,1120,1120,1120,1120,1120,1120,1118,1117,1115],"ymouse":[515,515,515,515,515,515,515,515,515,515,515,515,515,515,515,515,515,515,515,515,515,515,515,515,515,515,515,515,515,515,515,515,515,511,495,445,346,316,296,282,257,244,234,225,217,210,197,188,177,165,145,120,113,108,103,93],"timestamp_mouse":[11,32,63,71,92,112,131,152,170,192,211,232,251,271,292,312,331,352,371,392,412,431,451,471,492,511,532,551,572,591,611,632,652,671,691,711,731,752,771,791,812,830,851,870,891,911,930,951,971,991,1011,1031,1051,1071,1091,1112],"xSR":733.5,"ySR":461.5,"xT1":420.09999999999997,"yT1":0,"xT2":1046.8999999999999,"yT2":0,"toosoon":0,"cond_shown":"equaldotanddens","ratio_trial":900,"smaller_num":"18","larger_num":"20","correct_side":2,"subjID":"DanielFelipeArtunduagaEscobar39","gender":"0","age":"11","school":"6"},{"start_time":1551801318402,"click_time":1551801319473,"finger_time":1551801319394,"fix_duration":1366.8582664222022,"trial":9,"RT":992,"MT":79,"sideResp":1,"stimulus":"img/500/randomdotsizeEA/L/13_Ratio_500_L_12_R_6.png","xmouse":[769,769,769,769,769,769,769,769,769,769,769,769,769,769,769,769,769,769,769,769,769,769,769,769,769,769,769,769,769,769,769,769,769,769,769,769,769,769,769,769,769,769,769,769,769,769,769,767,755,719,653,579,459,441],"ymouse":[497,497,497,497,497,497,497,497,497,497,497,497,497,497,497,497,497,497,497,497,497,497,497,497,497,497,497,497,497,497,497,497,497,497,497,497,497,497,497,497,497,496,496,496,496,496,496,491,473,428,348,262,120,95],"timestamp_mouse":[13,36,53,73,92,112,132,153,173,192,212,232,252,272,292,313,332,352,372,392,413,433,452,472,492,512,533,553,572,592,612,632,652,673,693,712,733,752,773,793,813,832,853,873,893,913,931,952,973,992,1012,1032,1052,1071],"xSR":733.5,"ySR":461.5,"xT1":420.09999999999997,"yT1":0,"xT2":1046.8999999999999,"yT2":0,"toosoon":0,"cond_shown":"randomdotsizeEA","ratio_trial":500,"smaller_num":"6","larger_num":"12","correct_side":1,"subjID":"DanielFelipeArtunduagaEscobar39","gender":"0","age":"11","school":"6"},{"start_time":1551801321132,"click_time":1551801322134,"finger_time":1551801321794,"fix_duration":676.3157641439303,"trial":10,"RT":662,"MT":340,"sideResp":1,"stimulus":"img/500/equaldotsize/L/8_Ratio_500_L_8_R_4.png","xmouse":[772,772,772,772,772,772,772,772,772,772,772,772,772,772,772,772,772,772,772,772,772,772,772,772,772,772,772,772,772,772,772,772,759,733,705,668,609,601,596,592,588,577,574,572,571,567,555,546,535,522,507],"ymouse":[524,524,524,524,524,524,524,524,524,524,524,524,524,524,524,524,524,524,524,524,524,524,524,524,524,524,524,524,524,524,524,521,479,429,383,338,287,271,259,244,230,207,202,198,197,191,169,154,140,121,99],"timestamp_mouse":[8,23,42,63,83,103,123,143,162,182,202,222,242,262,283,302,322,342,362,382,401,423,442,462,483,502,522,542,562,583,603,622,642,662,682,702,724,742,762,782,802,824,842,862,882,902,923,942,962,982,1002],"xSR":733.5,"ySR":461.5,"xT1":420.09999999999997,"yT1":0,"xT2":1046.8999999999999,"yT2":0,"toosoon":0,"cond_shown":"equaldotsize","ratio_trial":500,"smaller_num":"4","larger_num":"8","correct_side":1,"subjID":"DanielFelipeArtunduagaEscobar39","gender":"0","age":"11","school":"6"},{"start_time":1551801324595,"click_time":1551801325914,"finger_time":1551801325474,"fix_duration":1459.081182615139,"trial":11,"RT":879,"MT":440,"sideResp":1,"stimulus":"img/500/equaldotsize/L/7_Ratio_500_L_10_R_5.png","xmouse":[758,758,758,758,758,758,758,758,758,758,758,758,758,758,758,758,758,758,758,758,758,758,758,758,758,758,758,758,758,758,758,758,758,753,752,751,751,751,751,751,751,751,751,751,744,733,719,702,671,652,633,617,605,584,579,575,572,569,568,567,565,565,552,540,525,513],"ymouse":[490,490,490,490,490,490,490,490,490,490,490,490,490,490,490,490,490,490,490,490,490,490,490,490,490,490,490,490,490,490,490,490,491,482,478,471,470,468,467,467,467,467,466,456,436,409,385,357,304,270,235,209,187,151,140,131,124,117,116,115,113,113,102,92,81,72],"timestamp_mouse":[20,39,60,80,99,120,138,160,180,198,219,240,259,279,299,320,340,359,379,398,420,439,459,479,500,519,539,560,579,599,619,639,660,679,699,719,739,760,779,799,818,840,860,879,899,919,939,959,979,999,1019,1039,1060,1079,1098,1119,1139,1160,1179,1200,1219,1239,1260,1279,1299,1319],"xSR":733.5,"ySR":461.5,"xT1":420.09999999999997,"yT1":0,"xT2":1046.8999999999999,"yT2":0,"toosoon":0,"cond_shown":"equaldotsize","ratio_trial":500,"smaller_num":"5","larger_num":"10","correct_side":1,"subjID":"DanielFelipeArtunduagaEscobar39","gender":"0","age":"11","school":"6"},{"start_time":1551801328113,"click_time":1551801329335,"finger_time":1551801328855,"fix_duration":1296.2916507322925,"trial":12,"RT":742,"MT":480,"sideResp":1,"stimulus":"img/900/randomdotsizeEA/L/10_Ratio_900_L_20_R_18.png","xmouse":[753,753,753,753,753,753,753,753,753,753,753,753,753,753,753,753,753,753,753,753,753,753,753,753,753,753,753,753,753,753,753,753,753,753,755,765,777,797,800,801,802,799,774,751,717,686,666,636,621,609,600,587,578,560,551,545,543,541,534,531,525,519],"ymouse":[529,529,529,529,529,529,529,529,529,529,529,529,529,529,529,529,529,529,529,529,529,529,529,529,529,529,529,529,529,529,529,529,529,529,524,513,494,458,448,439,433,424,386,358,313,265,223,153,116,82,60,39,30,15,12,11,11,11,17,23,35,47],"timestamp_mouse":[9,21,42,60,81,100,122,142,161,181,202,222,242,261,281,301,322,342,362,381,401,422,442,462,481,502,522,542,561,582,601,620,641,661,681,701,720,742,761,780,801,821,842,861,881,902,921,942,961,981,1000,1021,1041,1061,1081,1101,1122,1141,1162,1182,1202,1222],"xSR":733.5,"ySR":461.5,"xT1":420.09999999999997,"yT1":0,"xT2":1046.8999999999999,"yT2":0,"toosoon":0,"cond_shown":"randomdotsizeEA","ratio_trial":900,"smaller_num":"18","larger_num":"20","correct_side":1,"subjID":"DanielFelipeArtunduagaEscobar39","gender":"0","age":"11","school":"6"},{"start_time":1551801331239,"click_time":1551801332334,"finger_time":1551801331894,"fix_duration":962.6763764209576,"trial":13,"RT":655,"MT":440,"sideResp":2,"stimulus":"img/500/equaldotanddens/R/3_Ratio_500_L_10_R_20.png","xmouse":[789,789,789,789,789,789,789,789,789,789,789,789,789,789,789,789,789,789,789,789,789,789,789,789,789,789,789,789,789,789,790,814,840,869,897,937,959,970,978,985,994,996,998,1000,1002,1010,1026,1037,1047,1054,1059,1069,1074,1084,1097],"ymouse":[517,517,517,517,517,517,517,517,517,517,517,517,517,517,517,517,517,517,517,517,517,517,517,517,517,517,517,517,517,517,515,481,442,401,365,323,303,292,279,267,251,246,242,237,230,216,187,168,152,141,134,121,113,100,84],"timestamp_mouse":[15,35,55,75,96,115,134,155,175,195,215,235,256,276,295,316,335,356,376,396,415,435,456,475,496,515,536,556,575,595,615,635,655,675,695,715,735,755,775,794,816,835,855,875,895,915,935,954,976,995,1016,1035,1055,1075,1095],"xSR":733.5,"ySR":461.5,"xT1":420.09999999999997,"yT1":0,"xT2":1046.8999999999999,"yT2":0,"toosoon":0,"cond_shown":"equaldotanddens","ratio_trial":500,"smaller_num":"10","larger_num":"20","correct_side":2,"subjID":"DanielFelipeArtunduagaEscobar39","gender":"0","age":"11","school":"6"},{"start_time":1551801333608,"click_time":1551801334494,"finger_time":1551801334154,"fix_duration":652.1340763907347,"trial":14,"RT":546,"MT":340,"sideResp":1,"stimulus":"img/250/equaldotanddens/L/5_Ratio_250_L_24_R_6.png","xmouse":[791,791,791,791,791,791,791,791,791,791,791,791,791,791,791,791,791,791,791,791,791,791,791,791,791,784,778,743,643,600,563,532,511,493,492,492,492,492,492,492,492,491,485,475,471],"ymouse":[491,491,491,491,491,491,491,491,491,491,491,491,491,491,491,491,491,491,491,491,491,491,491,491,491,480,466,401,276,235,205,184,169,159,158,158,158,158,158,158,158,157,138,114,96],"timestamp_mouse":[9,34,47,67,86,106,127,147,167,187,206,226,245,266,286,306,327,346,366,387,406,425,447,466,486,506,527,546,566,586,607,626,647,666,686,706,726,746,765,787,806,826,847,866,886],"xSR":733.5,"ySR":461.5,"xT1":420.09999999999997,"yT1":0,"xT2":1046.8999999999999,"yT2":0,"toosoon":0,"cond_shown":"equaldotanddens","ratio_trial":250,"smaller_num":"6","larger_num":"24","correct_side":1,"subjID":"DanielFelipeArtunduagaEscobar39","gender":"0","age":"11","school":"6"},{"start_time":1551801336782,"click_time":1551801337774,"finger_time":1551801337554,"fix_duration":1366.3072824674132,"trial":15,"RT":772,"MT":220,"sideResp":2,"stimulus":"img/250/randomdotsizeEA/R/9_Ratio_250_L_3_R_12.png","xmouse":[770,770,770,770,770,770,770,770,770,770,770,770,770,770,770,770,770,770,770,770,770,770,770,770,770,770,770,770,770,770,770,770,770,771,779,790,806,818,832,872,900,933,965,1012,1028,1037,1045,1050,1067,1081],"ymouse":[512,512,512,512,512,512,512,512,512,512,512,512,512,512,512,512,512,512,512,512,512,512,512,512,512,512,512,512,512,512,512,512,512,511,502,493,480,470,456,403,364,315,268,195,170,153,138,124,100,84],"timestamp_mouse":[13,33,52,71,92,112,132,153,172,192,213,232,253,272,292,312,332,353,371,392,412,433,452,472,493,513,532,552,571,592,612,632,652,672,692,713,732,753,772,792,812,832,852,873,892,912,932,952,973,991],"xSR":733.5,"ySR":461.5,"xT1":420.09999999999997,"yT1":0,"xT2":1046.8999999999999,"yT2":0,"toosoon":0,"cond_shown":"randomdotsizeEA","ratio_trial":250,"smaller_num":"3","larger_num":"12","correct_side":2,"subjID":"DanielFelipeArtunduagaEscobar39","gender":"0","age":"11","school":"6"},{"start_time":1551801340406,"click_time":1551801341215,"finger_time":1551801341114,"fix_duration":491.3213451450863,"trial":16,"RT":708,"MT":101,"sideResp":2,"stimulus":"img/900/randomdotsizeEA/R/3_Ratio_900_L_9_R_10.png","xmouse":[766,766,766,766,766,766,766,766,766,766,766,766,766,766,766,766,766,766,766,766,766,766,766,766,766,766,766,766,766,766,770,773,784,792,808,856,879,987,1021,1053,1084],"ymouse":[526,526,526,526,526,526,526,526,526,526,526,526,526,526,526,526,526,526,526,526,526,526,526,526,526,526,526,526,526,526,523,520,506,492,464,377,339,195,151,102,63],"timestamp_mouse":[11,37,48,69,89,108,128,149,169,189,208,229,248,269,289,308,328,348,368,388,408,429,449,468,488,509,528,549,569,589,609,628,649,668,689,708,728,750,768,788,809],"xSR":733.5,"ySR":461.5,"xT1":420.09999999999997,"yT1":0,"xT2":1046.8999999999999,"yT2":0,"toosoon":0,"cond_shown":"randomdotsizeEA","ratio_trial":900,"smaller_num":"9","larger_num":"10","correct_side":2,"subjID":"DanielFelipeArtunduagaEscobar39","gender":"0","age":"11","school":"6"},{"start_time":1551801343434,"click_time":1551801344515,"finger_time":1551801344155,"fix_duration":1117.8573301344948,"trial":17,"RT":721,"MT":360,"sideResp":1,"stimulus":"img/500/equaldotsize/L/7_Ratio_500_L_10_R_5.png","xmouse":[799,799,799,799,799,799,799,799,799,799,799,799,799,799,799,799,799,799,799,799,799,799,799,799,799,799,799,799,799,799,799,799,799,799,799,801,820,820,785,748,725,691,672,656,643,627,611,573,559,552,549,543,536,527,518],"ymouse":[494,494,494,494,494,494,494,494,494,494,494,494,494,494,494,494,494,494,494,494,494,494,494,494,494,494,494,494,494,494,494,494,494,494,494,490,448,392,340,288,257,213,194,182,172,162,155,137,132,129,128,122,113,104,96],"timestamp_mouse":[9,35,42,62,82,101,122,141,162,181,201,222,241,261,282,302,321,342,361,381,402,421,441,461,482,502,521,541,562,582,601,622,643,662,682,701,721,741,761,782,801,822,841,862,881,901,921,941,961,982,1001,1022,1041,1061,1081],"xSR":733.5,"ySR":461.5,"xT1":420.09999999999997,"yT1":0,"xT2":1046.8999999999999,"yT2":0,"toosoon":0,"cond_shown":"equaldotsize","ratio_trial":500,"smaller_num":"5","larger_num":"10","correct_side":1,"subjID":"DanielFelipeArtunduagaEscobar39","gender":"0","age":"11","school":"6"},{"start_time":1551801347395,"click_time":1551801348456,"finger_time":1551801348115,"fix_duration":598.0819659329763,"trial":18,"RT":720,"MT":341,"sideResp":1,"stimulus":"img/900/randomdotsizeEA/L/10_Ratio_900_L_20_R_18.png","xmouse":[774,774,774,774,774,774,774,774,774,774,774,774,774,774,774,774,774,774,774,774,774,774,774,774,774,774,774,774,774,774,774,774,774,774,765,757,744,712,688,647,626,606,590,581,579,577,576,575,567,546,530,515,495,471],"ymouse":[515,515,515,515,515,515,515,515,515,515,515,515,515,515,515,515,515,515,515,515,515,515,515,515,515,515,515,515,515,515,515,515,514,513,492,478,458,412,379,325,300,277,264,255,253,249,246,244,234,211,193,165,119,84],"timestamp_mouse":[8,35,40,61,81,102,121,140,161,181,200,220,240,260,280,300,320,340,360,380,400,420,440,460,481,500,520,541,560,580,601,621,640,660,680,701,720,740,760,780,800,821,840,861,880,901,920,940,960,980,1000,1021,1040,1061],"xSR":733.5,"ySR":461.5,"xT1":420.09999999999997,"yT1":0,"xT2":1046.8999999999999,"yT2":0,"toosoon":0,"cond_shown":"randomdotsizeEA","ratio_trial":900,"smaller_num":"18","larger_num":"20","correct_side":1,"subjID":"DanielFelipeArtunduagaEscobar39","gender":"0","age":"11","school":"6"},{"start_time":1551801350660,"click_time":1551801351435,"finger_time":1551801351335,"fix_duration":1362.125616577487,"trial":19,"RT":675,"MT":100,"sideResp":1,"stimulus":"img/500/randomdotsizeEA/L/13_Ratio_500_L_12_R_6.png","xmouse":[806,806,806,806,806,806,806,806,806,806,806,806,806,806,806,806,806,806,806,806,806,806,806,806,806,806,806,806,806,806,806,806,803,775,659,598,557,534,520],"ymouse":[487,487,487,487,487,487,487,487,487,487,487,487,487,487,487,487,487,487,487,487,487,487,487,487,487,487,487,487,487,487,487,487,484,427,237,155,115,92,78],"timestamp_mouse":[16,36,55,75,96,116,135,155,175,196,216,236,256,275,296,316,335,355,375,395,415,436,455,475,496,515,536,556,575,596,616,636,655,675,695,715,735,755,775],"xSR":733.5,"ySR":461.5,"xT1":420.09999999999997,"yT1":0,"xT2":1046.8999999999999,"yT2":0,"toosoon":0,"cond_shown":"randomdotsizeEA","ratio_trial":500,"smaller_num":"6","larger_num":"12","correct_side":1,"subjID":"DanielFelipeArtunduagaEscobar39","gender":"0","age":"11","school":"6"},{"start_time":1551801352808,"click_time":1551801353956,"finger_time":1551801353535,"fix_duration":532.4631653065265,"trial":20,"RT":727,"MT":421,"sideResp":1,"stimulus":"img/750/equaldotsize/L/1_Ratio_750_L_20_R_15.png","xmouse":[817,817,817,817,817,817,817,817,817,817,817,817,817,817,817,817,817,817,817,817,817,817,817,817,817,817,817,817,817,817,817,817,817,817,814,803,763,692,622,605,591,576,544,527,510,496,487,486,484,482,479,474,471,466,464,461,457,454],"ymouse":[508,508,508,508,508,508,508,508,508,508,508,508,508,508,508,508,508,508,508,508,508,508,508,508,508,508,508,508,508,508,508,508,508,508,503,486,426,346,276,258,241,223,192,178,164,154,148,146,144,142,139,135,131,126,122,117,106,92],"timestamp_mouse":[9,41,47,68,87,108,127,148,168,189,208,228,247,269,287,308,327,347,368,387,408,428,448,467,488,508,527,547,567,587,607,628,647,668,688,707,727,747,767,788,808,827,849,867,887,908,927,948,967,987,1007,1027,1048,1067,1087,1107,1127,1148],"xSR":733.5,"ySR":461.5,"xT1":420.09999999999997,"yT1":0,"xT2":1046.8999999999999,"yT2":0,"toosoon":0,"cond_shown":"equaldotsize","ratio_trial":750,"smaller_num":"15","larger_num":"20","correct_side":1,"subjID":"DanielFelipeArtunduagaEscobar39","gender":"0","age":"11","school":"6"},{"start_time":1551801355210,"click_time":1551801356376,"finger_time":1551801355976,"fix_duration":273.35739318299466,"trial":21,"RT":766,"MT":400,"sideResp":1,"stimulus":"img/750/equaldotsize/L/10_Ratio_750_L_4_R_3.png","xmouse":[783,783,783,783,783,783,783,783,783,783,783,783,783,783,783,783,783,783,783,783,783,783,783,783,783,783,783,783,783,783,783,783,783,783,783,783,783,783,770,747,723,697,683,663,655,647,638,629,617,612,609,606,603,578,559,543,534,524,518],"ymouse":[496,496,496,496,496,496,496,496,496,496,496,496,496,496,496,496,496,496,496,496,496,496,496,496,496,496,496,496,496,496,496,496,496,496,496,496,496,489,418,332,250,189,164,130,117,104,94,85,76,74,73,73,73,73,69,67,65,61,61],"timestamp_mouse":[9,34,46,65,85,106,125,145,165,185,205,227,245,265,285,306,325,345,366,385,405,426,445,466,487,506,525,545,566,585,605,626,645,665,685,706,725,745,766,785,805,825,846,865,885,905,926,945,966,985,1005,1025,1046,1065,1086,1105,1125,1145,1166],"xSR":733.5,"ySR":461.5,"xT1":420.09999999999997,"yT1":0,"xT2":1046.8999999999999,"yT2":0,"toosoon":0,"cond_shown":"equaldotsize","ratio_trial":750,"smaller_num":"3","larger_num":"4","correct_side":1,"subjID":"DanielFelipeArtunduagaEscobar39","gender":"0","age":"11","school":"6"},{"start_time":1551801358305,"click_time":1551801359675,"finger_time":1551801359195,"fix_duration":1029.2799816125032,"trial":22,"RT":890,"MT":480,"sideResp":2,"stimulus":"img/900/equaldotanddens/R/6_Ratio_900_L_9_R_10.png","xmouse":[777,777,777,777,777,777,777,777,777,777,777,777,777,777,777,777,777,777,777,777,777,777,777,777,777,777,777,777,777,777,777,777,777,777,777,777,777,777,777,777,777,777,778,790,818,863,931,1086,1150,1194,1217,1233,1237,1240,1240,1242,1242,1242,1236,1228,1212,1204,1199,1189,1183,1176,1166,1148,1145],"ymouse":[484,484,484,484,484,484,484,484,484,484,484,484,484,484,484,484,484,484,484,484,484,484,484,484,484,484,484,484,484,484,484,484,484,484,484,484,484,484,484,484,484,484,485,474,445,406,360,269,236,211,197,184,178,167,159,148,136,124,97,82,63,57,54,49,48,46,45,44,44],"timestamp_mouse":[10,42,50,70,90,110,131,150,170,190,211,231,250,270,290,310,331,351,370,390,410,432,451,471,491,511,531,550,571,590,610,631,651,670,690,711,732,751,770,790,811,831,850,871,890,911,930,952,970,991,1010,1030,1051,1070,1090,1111,1130,1151,1170,1191,1211,1230,1250,1270,1290,1311,1330,1351,1370],"xSR":733.5,"ySR":461.5,"xT1":420.09999999999997,"yT1":0,"xT2":1046.8999999999999,"yT2":0,"toosoon":0,"cond_shown":"equaldotanddens","ratio_trial":900,"smaller_num":"9","larger_num":"10","correct_side":2,"subjID":"DanielFelipeArtunduagaEscobar39","gender":"0","age":"11","school":"6"},{"start_time":1551801361742,"click_time":1551801362796,"finger_time":1551801362376,"fix_duration":806.4458430799806,"trial":23,"RT":634,"MT":420,"sideResp":1,"stimulus":"img/900/equaldotanddens/R/13_Ratio_900_L_18_R_20.png","xmouse":[777,777,777,777,777,777,777,777,777,777,777,777,777,777,777,777,777,777,777,777,777,777,777,777,777,777,777,777,777,777,776,771,767,760,748,717,696,669,640,608,545,527,518,514,513,512,508,502,492,476,459,453,448],"ymouse":[503,503,503,503,503,503,503,503,503,503,503,503,503,503,503,503,503,503,503,503,503,503,503,503,503,503,503,503,503,503,502,461,434,411,387,349,328,306,281,256,211,200,194,191,190,189,185,178,166,148,124,110,97],"timestamp_mouse":[14,34,53,74,94,113,133,153,174,193,213,233,254,273,293,314,334,353,374,394,413,434,455,474,493,513,534,554,574,594,613,634,653,673,693,715,733,753,773,793,813,833,854,873,893,914,933,953,973,993,1014,1033,1054],"xSR":733.5,"ySR":461.5,"xT1":420.09999999999997,"yT1":0,"xT2":1046.8999999999999,"yT2":0,"toosoon":0,"cond_shown":"equaldotanddens","ratio_trial":900,"smaller_num":"18","larger_num":"20","correct_side":2,"subjID":"DanielFelipeArtunduagaEscobar39","gender":"0","age":"11","school":"6"},{"start_time":1551801364698,"click_time":1551801365835,"finger_time":1551801365395,"fix_duration":502.97453151673153,"trial":24,"RT":697,"MT":440,"sideResp":1,"stimulus":"img/750/equaldotanddens/L/13_Ratio_750_L_8_R_6.png","xmouse":[795,795,795,795,795,795,795,795,795,795,795,795,795,795,795,795,795,795,795,795,795,795,795,795,795,795,795,795,795,795,795,795,795,786,769,752,732,703,689,675,655,649,625,615,608,602,598,593,572,555,529,522,502,501,497,492,485],"ymouse":[524,524,524,524,524,524,524,524,524,524,524,524,524,524,524,524,524,524,524,524,524,524,524,524,524,524,524,524,524,524,524,524,524,498,434,369,313,247,214,187,160,152,134,131,129,129,129,129,129,128,121,119,109,108,104,100,96],"timestamp_mouse":[17,49,57,79,98,119,137,158,177,198,217,237,257,278,297,317,337,357,377,397,418,437,457,479,498,518,537,557,578,597,617,637,658,678,697,718,737,758,777,797,817,838,858,878,897,917,937,957,977,997,1017,1037,1058,1077,1097,1117,1137],"xSR":733.5,"ySR":461.5,"xT1":420.09999999999997,"yT1":0,"xT2":1046.8999999999999,"yT2":0,"toosoon":0,"cond_shown":"equaldotanddens","ratio_trial":750,"smaller_num":"6","larger_num":"8","correct_side":1,"subjID":"DanielFelipeArtunduagaEscobar39","gender":"0","age":"11","school":"6"},{"start_time":1551801383847,"click_time":1551801385016,"finger_time":1551801384717,"fix_duration":250,"trial":25,"RT":870,"MT":299,"sideResp":1,"stimulus":"img/750/equaldotanddens/L/10_Ratio_750_L_4_R_3.png","xmouse":[807,807,807,807,807,807,807,807,807,807,807,807,807,807,807,807,807,807,807,807,807,807,807,807,807,807,807,807,807,807,807,807,807,807,807,807,807,807,807,807,806,787,738,666,620,452,416,403,398,396,394,393,393,393,393,395,411,430,451],"ymouse":[537,537,537,537,537,537,537,537,537,537,537,537,537,537,537,537,537,537,537,537,537,537,537,537,537,537,537,537,537,537,537,537,537,537,537,537,537,537,537,537,537,531,508,468,419,233,184,160,148,144,140,135,134,131,130,124,115,104,93],"timestamp_mouse":[8,28,49,68,89,111,128,149,170,188,209,228,248,268,289,309,328,348,369,389,408,429,448,469,488,508,529,548,568,588,608,628,649,669,689,708,729,748,768,789,809,828,848,869,888,909,928,949,968,988,1009,1028,1048,1069,1089,1109,1128,1149,1169],"xSR":733.5,"ySR":461.5,"xT1":420.09999999999997,"yT1":0,"xT2":1046.8999999999999,"yT2":0,"toosoon":0,"cond_shown":"equaldotanddens","ratio_trial":750,"smaller_num":"3","larger_num":"4","correct_side":1,"subjID":"DanielFelipeArtunduagaEscobar39","gender":"0","age":"11","school":"6"},{"start_time":1551801386939,"click_time":1551801387755,"finger_time":1551801387615,"fix_duration":1243.1499129728952,"trial":26,"RT":676,"MT":140,"sideResp":1,"stimulus":"img/250/equaldotanddens/L/1_Ratio_250_L_8_R_2.png","xmouse":[817,817,817,817,817,817,817,817,817,817,817,817,817,817,817,817,817,817,817,817,817,817,817,817,817,817,817,817,817,817,817,813,772,702,643,578,455,438,436,436,440],"ymouse":[525,525,525,525,525,525,525,525,525,525,525,525,525,525,525,525,525,525,525,525,525,525,525,525,525,525,525,525,525,525,525,521,493,434,357,277,144,128,120,111,97],"timestamp_mouse":[19,37,56,76,96,117,137,156,176,197,216,236,257,276,296,317,337,356,377,396,416,436,456,476,496,517,536,575,577,596,617,636,656,676,696,716,736,756,776,796,816],"xSR":733.5,"ySR":461.5,"xT1":420.09999999999997,"yT1":0,"xT2":1046.8999999999999,"yT2":0,"toosoon":0,"cond_shown":"equaldotanddens","ratio_trial":250,"smaller_num":"2","larger_num":"8","correct_side":1,"subjID":"DanielFelipeArtunduagaEscobar39","gender":"0","age":"11","school":"6"},{"start_time":1551801389376,"click_time":1551801390336,"finger_time":1551801390015,"fix_duration":619.843056556397,"trial":27,"RT":639,"MT":321,"sideResp":2,"stimulus":"img/250/equaldotanddens/R/6_Ratio_250_L_6_R_24.png","xmouse":[745,745,745,745,745,745,745,745,745,745,745,745,745,745,745,745,745,745,745,745,745,745,745,745,745,745,745,747,750,781,801,816,831,844,882,915,957,1002,1017,1026,1030,1032,1035,1040,1045,1069,1081,1090,1093],"ymouse":[506,506,506,506,506,506,506,506,506,506,506,506,506,506,506,506,506,506,506,506,506,506,506,506,506,506,506,506,506,499,484,472,453,431,369,334,301,268,256,247,239,234,226,219,208,155,126,102,98],"timestamp_mouse":[1,19,39,59,80,99,120,140,159,180,200,220,239,259,279,299,320,339,359,379,399,419,440,459,479,499,519,539,560,579,600,619,639,659,680,699,719,739,759,779,799,819,839,860,879,899,919,939,960],"xSR":733.5,"ySR":461.5,"xT1":420.09999999999997,"yT1":0,"xT2":1046.8999999999999,"yT2":0,"toosoon":0,"cond_shown":"equaldotanddens","ratio_trial":250,"smaller_num":"6","larger_num":"24","correct_side":2,"subjID":"DanielFelipeArtunduagaEscobar39","gender":"0","age":"11","school":"6"},{"start_time":1551801391408,"click_time":1551801392595,"finger_time":1551801392155,"fix_duration":250,"trial":28,"RT":747,"MT":440,"sideResp":2,"stimulus":"img/900/equaldotanddens/R/12_Ratio_900_L_18_R_20.png","xmouse":[753,753,753,753,753,753,753,753,753,753,753,753,753,753,753,753,753,753,753,753,753,753,753,753,753,753,753,753,753,753,753,753,753,753,753,757,762,791,869,909,941,965,989,993,999,1007,1025,1039,1068,1075,1082,1090,1100,1101,1104,1104,1105,1106,1109,1109],"ymouse":[490,490,490,490,490,490,490,490,490,490,490,490,490,490,490,490,490,490,490,490,490,490,490,490,490,490,490,490,490,490,490,490,490,490,490,486,481,450,383,349,324,306,285,277,266,252,227,211,178,169,156,142,128,125,120,118,115,108,100,96],"timestamp_mouse":[10,33,47,67,87,108,127,147,167,187,208,228,247,267,287,307,327,348,367,387,408,428,448,467,487,507,528,547,568,587,608,627,648,667,688,707,728,747,767,787,808,827,848,867,888,908,928,947,968,987,1008,1028,1048,1067,1087,1107,1127,1147,1167,1187],"xSR":733.5,"ySR":461.5,"xT1":420.09999999999997,"yT1":0,"xT2":1046.8999999999999,"yT2":0,"toosoon":0,"cond_shown":"equaldotanddens","ratio_trial":900,"smaller_num":"18","larger_num":"20","correct_side":2,"subjID":"DanielFelipeArtunduagaEscobar39","gender":"0","age":"11","school":"6"},{"start_time":1551801393607,"click_time":1551801394896,"finger_time":1551801394455,"fix_duration":250,"trial":29,"RT":848,"MT":441,"sideResp":2,"stimulus":"img/750/equaldotsize/R/11_Ratio_750_L_12_R_16.png","xmouse":[804,804,804,804,804,804,804,804,804,804,804,804,804,804,804,804,804,804,804,804,804,804,804,804,804,804,804,804,804,804,804,804,804,804,804,804,804,804,804,804,813,824,843,872,886,907,929,983,1005,1021,1034,1047,1065,1071,1075,1079,1082,1085,1085,1086,1087,1088,1092,1093,1095],"ymouse":[499,499,499,499,499,499,499,499,499,499,499,499,499,499,499,499,499,499,499,499,499,499,499,499,499,499,499,499,499,499,499,499,499,499,499,499,499,499,499,499,492,483,468,440,420,389,350,278,260,243,229,211,185,173,166,158,150,141,135,132,127,122,109,101,95],"timestamp_mouse":[8,29,62,68,89,108,128,148,168,188,208,228,249,268,289,308,329,350,369,388,409,428,449,468,488,508,528,548,568,588,609,629,649,668,688,708,729,748,768,788,809,828,848,869,888,908,928,948,968,988,1009,1028,1050,1068,1089,1108,1129,1148,1168,1188,1209,1228,1249,1268,1289],"xSR":733.5,"ySR":461.5,"xT1":420.09999999999997,"yT1":0,"xT2":1046.8999999999999,"yT2":0,"toosoon":0,"cond_shown":"equaldotsize","ratio_trial":750,"smaller_num":"12","larger_num":"16","correct_side":2,"subjID":"DanielFelipeArtunduagaEscobar39","gender":"0","age":"11","school":"6"},{"start_time":1551801396407,"click_time":1551801397455,"finger_time":1551801397096,"fix_duration":250,"trial":30,"RT":689,"MT":359,"sideResp":1,"stimulus":"img/750/equaldotsize/L/13_Ratio_750_L_8_R_6.png","xmouse":[783,783,783,783,783,783,783,783,783,783,783,783,783,783,783,783,783,783,783,783,783,783,783,783,783,783,783,783,783,783,783,783,781,743,703,669,645,616,604,591,579,568,555,539,536,536,535,530,527,527,526,524,520],"ymouse":[510,510,510,510,510,510,510,510,510,510,510,510,510,510,510,510,510,510,510,510,510,510,510,510,510,510,510,510,510,510,510,510,510,476,433,395,369,341,327,312,300,289,276,260,248,228,192,171,147,135,116,101,91],"timestamp_mouse":[9,37,49,68,88,109,128,149,169,189,208,229,248,269,288,308,328,349,369,388,408,429,448,468,489,508,528,549,569,590,608,629,648,668,689,708,729,749,768,788,809,829,849,868,889,910,929,948,969,988,1008,1028,1048],"xSR":733.5,"ySR":461.5,"xT1":420.09999999999997,"yT1":0,"xT2":1046.8999999999999,"yT2":0,"toosoon":0,"cond_shown":"equaldotsize","ratio_trial":750,"smaller_num":"6","larger_num":"8","correct_side":1,"subjID":"DanielFelipeArtunduagaEscobar39","gender":"0","age":"11","school":"6"},{"start_time":1551801422225,"click_time":1551801423957,"finger_time":1551801423076,"fix_duration":1324.9706284158888,"trial":31,"RT":851,"MT":881,"sideResp":2,"stimulus":"img/750/equaldotanddens/R/2_Ratio_750_L_6_R_8.png","xmouse":[795,795,795,795,795,795,795,795,795,795,795,795,795,795,795,795,795,795,795,795,795,795,795,795,795,795,795,795,795,795,795,795,795,795,795,795,795,795,795,795,795,802,822,847,864,870,881,883,885,889,895,901,917,926,935,942,957,985,1000,1014,1025,1034,1042,1043,1043,1043,1043,1043,1043,1043,1043,1043,1043,1043,1043,1043,1043,1043,1043,1043,1043,1043,1043,1044,1044,1044,1051],"ymouse":[489,489,489,489,489,489,489,489,489,489,489,489,489,489,489,489,489,489,489,489,489,489,489,489,489,489,489,489,489,489,489,489,489,489,489,489,489,489,489,489,489,478,455,424,405,394,375,367,357,343,325,304,258,235,215,197,169,119,99,83,72,65,57,57,57,57,57,57,57,57,57,57,57,57,57,57,57,57,57,57,57,57,57,57,56,56,54],"timestamp_mouse":[11,33,51,72,91,111,131,151,171,191,212,232,252,271,291,311,331,351,371,391,412,431,451,471,491,511,531,551,570,591,611,632,651,671,691,710,732,751,771,792,811,831,851,871,891,912,932,952,971,991,1011,1030,1051,1071,1092,1111,1131,1151,1172,1191,1210,1232,1251,1272,1291,1311,1332,1351,1371,1391,1412,1432,1451,1471,1491,1511,1532,1551,1572,1591,1612,1632,1650,1671,1692,1711,1731],"xSR":733.5,"ySR":461.5,"xT1":420.09999999999997,"yT1":0,"xT2":1046.8999999999999,"yT2":0,"toosoon":0,"cond_shown":"equaldotanddens","ratio_trial":750,"smaller_num":"6","larger_num":"8","correct_side":2,"subjID":"DanielFelipeArtunduagaEscobar39","gender":"0","age":"11","school":"6"},{"start_time":1551801425207,"click_time":1551801426236,"finger_time":1551801426117,"fix_duration":250,"trial":32,"RT":910,"MT":119,"sideResp":1,"stimulus":"img/900/equaldotsize/L/10_Ratio_900_L_20_R_18.png","xmouse":[749,749,749,749,749,749,749,749,749,749,749,749,749,749,749,749,749,749,749,749,749,749,749,749,749,749,749,749,749,749,749,749,749,749,749,749,749,749,749,749,749,749,749,741,736,721,683,604,574,550,535,518],"ymouse":[517,517,517,517,517,517,517,517,517,517,517,517,517,517,517,517,517,517,517,517,517,517,517,517,517,517,517,517,517,517,517,517,517,517,517,517,517,517,517,517,517,517,517,515,511,496,450,321,254,190,130,80],"timestamp_mouse":[8,44,48,70,89,109,128,149,168,189,208,229,249,269,289,310,329,349,369,390,408,429,449,469,490,509,528,550,570,589,609,629,650,669,689,708,729,750,769,789,810,828,849,869,890,910,929,949,969,990,1009,1029],"xSR":733.5,"ySR":461.5,"xT1":420.09999999999997,"yT1":0,"xT2":1046.8999999999999,"yT2":0,"toosoon":0,"cond_shown":"equaldotsize","ratio_trial":900,"smaller_num":"18","larger_num":"20","correct_side":1,"subjID":"DanielFelipeArtunduagaEscobar39","gender":"0","age":"11","school":"6"},{"start_time":1551801429390,"click_time":1551801431016,"finger_time":1551801430496,"fix_duration":892.9097907083716,"trial":33,"RT":1106,"MT":520,"sideResp":1,"stimulus":"img/500/equaldotanddens/L/5_Ratio_500_L_4_R_2.png","xmouse":[760,760,760,760,760,760,760,760,760,760,760,760,760,760,760,760,760,760,760,760,760,760,760,760,760,760,760,760,760,760,760,760,760,760,760,760,760,760,760,760,760,760,760,760,760,760,760,760,760,761,764,765,764,754,742,734,729,721,717,700,682,660,630,582,566,554,543,531,477,458,444,437,434,432,431,429,429,429,429,429,430,432],"ymouse":[502,502,502,502,502,502,502,502,502,502,502,502,502,502,502,502,502,502,502,502,502,502,502,502,502,502,502,502,502,502,502,502,502,502,502,502,502,502,502,502,502,502,502,502,502,502,502,502,502,503,504,505,504,485,464,450,445,437,431,411,392,368,343,293,273,255,241,227,179,161,145,136,133,127,124,120,116,113,105,102,100,97],"timestamp_mouse":[12,35,47,65,86,106,125,147,166,186,206,227,247,267,285,306,326,346,366,386,406,426,446,465,486,506,526,546,565,587,607,625,647,667,686,705,727,747,767,785,806,826,846,867,887,907,925,946,966,986,1006,1026,1045,1066,1086,1106,1126,1146,1165,1185,1206,1226,1246,1268,1286,1306,1326,1346,1366,1386,1406,1425,1446,1467,1487,1507,1527,1546,1567,1587,1605,1625],"xSR":733.5,"ySR":461.5,"xT1":420.09999999999997,"yT1":0,"xT2":1046.8999999999999,"yT2":0,"toosoon":0,"cond_shown":"equaldotanddens","ratio_trial":500,"smaller_num":"2","larger_num":"4","correct_side":1,"subjID":"DanielFelipeArtunduagaEscobar39","gender":"0","age":"11","school":"6"},{"start_time":1551801433037,"click_time":1551801434176,"finger_time":1551801433756,"fix_duration":1258.7177245615717,"trial":34,"RT":719,"MT":420,"sideResp":2,"stimulus":"img/500/equaldotsize/R/3_Ratio_500_L_10_R_20.png","xmouse":[794,794,794,794,794,794,794,794,794,794,794,794,794,794,794,794,794,794,794,794,794,794,794,794,794,794,794,794,794,794,794,794,794,801,817,852,902,920,931,944,955,969,972,976,979,983,992,998,1003,1007,1011,1019,1025,1031,1035,1045,1047],"ymouse":[530,530,530,530,530,530,530,530,530,530,530,530,530,530,530,530,530,530,530,530,530,530,530,530,530,530,530,530,530,530,530,529,528,516,495,452,391,366,346,325,308,272,259,248,235,223,191,169,150,137,125,104,93,84,78,65,62],"timestamp_mouse":[35,39,59,79,99,119,140,158,179,198,219,239,259,279,298,320,340,358,380,400,418,440,459,480,499,519,539,560,580,599,619,639,660,679,699,719,739,759,778,799,820,839,860,879,898,918,938,958,978,999,1018,1039,1058,1078,1099,1119,1139],"xSR":733.5,"ySR":461.5,"xT1":420.09999999999997,"yT1":0,"xT2":1046.8999999999999,"yT2":0,"toosoon":0,"cond_shown":"equaldotsize","ratio_trial":500,"smaller_num":"10","larger_num":"20","correct_side":2,"subjID":"DanielFelipeArtunduagaEscobar39","gender":"0","age":"11","school":"6"},{"start_time":1551801435348,"click_time":1551801436257,"finger_time":1551801436056,"fix_duration":250,"trial":35,"RT":708,"MT":201,"sideResp":2,"stimulus":"img/250/randomdotsizeEA/R/4_Ratio_250_L_3_R_12.png","xmouse":[761,761,761,761,761,761,761,761,761,761,761,761,761,761,761,761,761,761,761,761,761,761,761,761,761,761,761,761,761,761,761,761,761,765,774,797,855,872,888,899,942,966,990,1012,1032,1059],"ymouse":[485,485,485,485,485,485,485,485,485,485,485,485,485,485,485,485,485,485,485,485,485,485,485,485,485,485,485,485,485,485,485,485,485,481,472,448,385,367,347,329,244,201,166,135,107,77],"timestamp_mouse":[8,28,51,69,88,109,128,148,167,189,208,228,248,268,289,308,329,348,369,388,409,428,448,468,488,508,528,548,568,589,609,629,648,667,688,708,727,748,768,789,808,828,849,869,889,909],"xSR":733.5,"ySR":461.5,"xT1":420.09999999999997,"yT1":0,"xT2":1046.8999999999999,"yT2":0,"toosoon":0,"cond_shown":"randomdotsizeEA","ratio_trial":250,"smaller_num":"3","larger_num":"12","correct_side":2,"subjID":"DanielFelipeArtunduagaEscobar39","gender":"0","age":"11","school":"6"},{"start_time":1551801438348,"click_time":1551801439637,"finger_time":1551801439097,"fix_duration":1191.3643086336333,"trial":36,"RT":749,"MT":540,"sideResp":1,"stimulus":"img/500/equaldotanddens/L/11_Ratio_500_L_12_R_6.png","xmouse":[778,778,778,778,778,778,778,778,778,778,778,778,778,778,778,778,778,778,778,778,778,778,778,778,778,778,778,778,778,778,778,778,778,778,778,778,769,739,676,635,612,579,566,555,544,537,535,535,533,525,518,518,518,518,515,513,507,503,501,501,501,501,500,499,497],"ymouse":[497,497,497,497,497,497,497,497,497,497,497,497,497,497,497,497,497,497,497,497,497,497,497,497,497,497,497,497,497,497,497,497,497,497,497,498,488,446,368,324,295,244,220,199,183,170,167,166,164,150,140,140,140,139,134,128,115,110,107,106,106,106,106,102,95],"timestamp_mouse":[9,29,49,68,88,107,129,148,168,189,208,229,248,268,289,308,328,347,368,389,408,428,448,469,487,509,527,548,567,589,609,628,649,667,688,708,728,749,768,788,809,828,848,869,889,908,928,948,968,987,1009,1029,1048,1069,1088,1108,1128,1149,1168,1189,1208,1228,1249,1267,1289],"xSR":733.5,"ySR":461.5,"xT1":420.09999999999997,"yT1":0,"xT2":1046.8999999999999,"yT2":0,"toosoon":0,"cond_shown":"equaldotanddens","ratio_trial":500,"smaller_num":"6","larger_num":"12","correct_side":1,"subjID":"DanielFelipeArtunduagaEscobar39","gender":"0","age":"11","school":"6"},{"start_time":1551801441343,"click_time":1551801442656,"finger_time":1551801442156,"fix_duration":846.5508267214377,"trial":37,"RT":813,"MT":500,"sideResp":2,"stimulus":"img/750/equaldotanddens/L/1_Ratio_750_L_20_R_15.png","xmouse":[801,801,801,801,801,801,801,801,801,801,801,801,801,801,801,801,801,801,801,801,801,801,801,801,801,801,801,801,801,801,801,801,801,801,801,801,801,801,801,822,860,910,917,917,917,917,918,922,934,943,951,963,967,970,973,979,982,986,989,993,1006,1012,1021,1031,1038,1052],"ymouse":[499,499,499,499,499,499,499,499,499,499,499,499,499,499,499,499,499,499,499,499,499,499,499,499,499,499,499,499,499,499,499,499,499,499,499,499,499,499,495,467,422,372,367,367,367,367,366,363,348,336,323,300,292,283,276,254,243,229,219,210,185,171,151,128,110,86],"timestamp_mouse":[14,32,53,74,94,113,133,153,174,193,213,234,253,273,294,314,334,353,373,394,414,433,453,474,494,514,533,553,573,594,613,634,654,673,693,713,732,753,774,793,813,833,853,873,892,914,932,952,972,993,1013,1033,1053,1073,1092,1114,1132,1153,1172,1193,1213,1233,1253,1273,1293,1313],"xSR":733.5,"ySR":461.5,"xT1":420.09999999999997,"yT1":0,"xT2":1046.8999999999999,"yT2":0,"toosoon":0,"cond_shown":"equaldotanddens","ratio_trial":750,"smaller_num":"15","larger_num":"20","correct_side":1,"subjID":"DanielFelipeArtunduagaEscobar39","gender":"0","age":"11","school":"6"},{"start_time":1551801443748,"click_time":1551801444836,"finger_time":1551801444475,"fix_duration":250,"trial":38,"RT":727,"MT":361,"sideResp":2,"stimulus":"img/750/equaldotsize/R/5_Ratio_750_L_15_R_20.png","xmouse":[779,779,779,779,779,779,779,779,779,779,779,779,779,779,779,779,779,779,779,779,779,779,779,779,779,779,779,779,779,779,779,779,779,779,795,815,955,1012,1058,1090,1145,1157,1163,1171,1180,1199,1203,1203,1203,1203,1203,1200,1186,1168,1146],"ymouse":[503,503,503,503,503,503,503,503,503,503,503,503,503,503,503,503,503,503,503,503,503,503,503,503,503,503,503,503,503,503,503,503,503,503,490,471,353,301,260,230,154,128,103,79,59,24,16,13,13,13,13,13,22,33,47],"timestamp_mouse":[9,28,49,69,87,108,128,149,167,188,208,228,248,268,289,307,328,348,369,388,408,428,448,469,488,508,529,549,567,589,608,628,649,667,689,708,727,748,768,788,809,827,849,868,888,908,928,947,968,989,1009,1029,1048,1067,1087],"xSR":733.5,"ySR":461.5,"xT1":420.09999999999997,"yT1":0,"xT2":1046.8999999999999,"yT2":0,"toosoon":0,"cond_shown":"equaldotsize","ratio_trial":750,"smaller_num":"15","larger_num":"20","correct_side":2,"subjID":"DanielFelipeArtunduagaEscobar39","gender":"0","age":"11","school":"6"},{"start_time":1551801446659,"click_time":1551801447736,"finger_time":1551801447355,"fix_duration":1222.698265671402,"trial":39,"RT":696,"MT":381,"sideResp":2,"stimulus":"img/900/equaldotsize/R/7_Ratio_900_L_9_R_10.png","xmouse":[760,760,760,760,760,760,760,760,760,760,760,760,760,760,760,760,760,760,760,760,760,760,760,760,760,760,760,760,760,760,760,760,768,787,841,933,952,963,965,970,976,985,996,1004,1018,1021,1029,1040,1053,1079,1091,1100,1102,1104],"ymouse":[534,534,534,534,534,534,534,534,534,534,534,534,534,534,534,534,534,534,534,534,534,534,534,534,534,534,534,534,534,534,534,534,524,491,413,293,271,256,251,232,219,204,189,179,164,159,151,141,132,116,109,103,101,97],"timestamp_mouse":[17,37,57,77,98,116,138,157,177,197,217,236,258,278,298,317,337,357,377,397,417,438,458,478,498,517,537,557,576,597,618,637,657,678,696,717,738,757,778,798,817,837,857,877,897,917,937,958,977,997,1016,1037,1057,1077],"xSR":733.5,"ySR":461.5,"xT1":420.09999999999997,"yT1":0,"xT2":1046.8999999999999,"yT2":0,"toosoon":0,"cond_shown":"equaldotsize","ratio_trial":900,"smaller_num":"9","larger_num":"10","correct_side":2,"subjID":"DanielFelipeArtunduagaEscobar39","gender":"0","age":"11","school":"6"},{"start_time":1551801448880,"click_time":1551801450216,"finger_time":1551801449716,"fix_duration":421.9303577333486,"trial":40,"RT":836,"MT":500,"sideResp":1,"stimulus":"img/900/randomdotsizeEA/R/5_Ratio_900_L_9_R_10.png","xmouse":[771,771,771,771,771,771,771,771,771,771,771,771,771,771,771,771,771,771,771,771,771,771,771,771,771,771,771,771,771,771,771,771,771,771,771,771,771,771,771,769,764,753,748,743,729,720,709,697,671,658,644,630,614,574,555,541,532,529,520,519,516,515,510,509,506,504,501],"ymouse":[502,502,502,502,502,502,502,502,502,502,502,502,502,502,502,502,502,502,502,502,502,502,502,502,502,502,502,502,502,502,502,502,502,502,502,502,502,502,502,498,488,455,441,429,395,376,356,336,305,289,272,256,242,213,202,194,188,184,170,166,158,149,133,125,107,100,94],"timestamp_mouse":[15,43,56,76,95,117,135,156,177,196,216,237,256,276,297,315,337,356,376,396,417,436,457,476,496,515,536,556,576,597,616,636,657,676,697,715,735,757,775,796,817,836,857,876,897,917,936,957,977,996,1015,1036,1057,1076,1096,1116,1136,1157,1177,1195,1216,1237,1256,1275,1296,1316,1336],"xSR":733.5,"ySR":461.5,"xT1":420.09999999999997,"yT1":0,"xT2":1046.8999999999999,"yT2":0,"toosoon":0,"cond_shown":"randomdotsizeEA","ratio_trial":900,"smaller_num":"9","larger_num":"10","correct_side":2,"subjID":"DanielFelipeArtunduagaEscobar39","gender":"0","age":"11","school":"6"},{"start_time":1551801451833,"click_time":1551801452816,"finger_time":1551801452556,"fix_duration":774.3360599540144,"trial":41,"RT":723,"MT":260,"sideResp":2,"stimulus":"img/750/equaldotsize/R/11_Ratio_750_L_12_R_16.png","xmouse":[789,789,789,789,789,789,789,789,789,789,789,789,789,789,789,789,789,789,789,789,789,789,789,789,789,789,789,789,789,789,789,789,789,789,790,794,824,848,874,897,919,954,965,977,985,994,1022,1032,1040,1048],"ymouse":[501,501,501,501,501,501,501,501,501,501,501,501,501,501,501,501,501,501,501,501,501,501,501,501,501,501,501,501,501,501,501,501,501,500,494,480,421,385,352,321,288,236,212,191,176,161,119,105,93,82],"timestamp_mouse":[10,37,43,63,84,104,123,143,164,182,204,223,243,264,284,303,324,343,364,382,403,424,442,463,483,503,523,543,563,584,604,623,643,662,683,703,723,742,763,782,803,823,843,863,883,902,924,944,963,983],"xSR":733.5,"ySR":461.5,"xT1":420.09999999999997,"yT1":0,"xT2":1046.8999999999999,"yT2":0,"toosoon":0,"cond_shown":"equaldotsize","ratio_trial":750,"smaller_num":"12","larger_num":"16","correct_side":2,"subjID":"DanielFelipeArtunduagaEscobar39","gender":"0","age":"11","school":"6"},{"start_time":1551801454088,"click_time":1551801455356,"finger_time":1551801454756,"fix_duration":529.9901224247495,"trial":42,"RT":668,"MT":600,"sideResp":1,"stimulus":"img/750/randomdotsizeEA/L/13_Ratio_750_L_8_R_6.png","xmouse":[755,755,755,755,755,755,755,755,755,755,755,755,755,755,755,755,755,755,755,755,755,755,755,755,755,755,755,755,755,755,755,755,755,741,734,731,729,725,709,701,689,678,667,656,655,653,651,647,627,613,600,591,585,578,558,543,530,525,517,513,508,506,503,498],"ymouse":[541,541,541,541,541,541,541,541,541,541,541,541,541,541,541,541,541,541,541,541,541,541,541,541,541,541,541,541,541,541,541,540,534,438,393,372,352,327,269,239,206,185,169,156,155,155,154,153,148,144,141,137,134,133,126,122,118,117,112,110,106,104,102,99],"timestamp_mouse":[10,29,49,68,88,109,128,147,168,188,208,228,249,268,288,308,329,348,367,389,409,429,448,468,487,508,528,547,569,588,609,628,648,668,687,708,728,749,769,787,808,829,849,868,887,908,928,949,968,988,1008,1028,1049,1069,1088,1108,1128,1149,1168,1188,1209,1228,1247,1268],"xSR":733.5,"ySR":461.5,"xT1":420.09999999999997,"yT1":0,"xT2":1046.8999999999999,"yT2":0,"toosoon":0,"cond_shown":"randomdotsizeEA","ratio_trial":750,"smaller_num":"6","larger_num":"8","correct_side":1,"subjID":"DanielFelipeArtunduagaEscobar39","gender":"0","age":"11","school":"6"},{"start_time":1551801457766,"click_time":1551801459037,"finger_time":1551801458675,"fix_duration":1448.5300472394065,"trial":43,"RT":909,"MT":362,"sideResp":2,"stimulus":"img/900/equaldotsize/R/13_Ratio_900_L_18_R_20.png","xmouse":[789,789,789,789,789,789,789,789,789,789,789,789,789,789,789,789,789,789,789,789,789,789,789,789,789,789,789,789,789,789,789,789,789,789,789,789,789,789,789,789,789,789,789,789,792,799,808,821,845,874,886,895,901,907,925,935,946,966,976,1022,1035,1047,1056,1062],"ymouse":[500,500,500,500,500,500,500,500,500,500,500,500,500,500,500,500,500,500,500,500,500,500,500,500,500,500,500,500,500,500,500,500,500,500,500,500,500,500,500,500,500,500,500,496,474,445,417,389,351,311,294,278,262,246,215,202,187,165,156,119,112,105,101,97],"timestamp_mouse":[9,39,51,71,91,109,130,149,171,190,211,229,251,270,291,311,331,351,370,390,409,430,449,471,490,511,530,551,571,590,610,630,650,670,690,710,730,751,770,791,811,829,850,870,890,909,930,951,970,991,1010,1030,1050,1070,1090,1110,1130,1150,1171,1190,1210,1230,1251,1271],"xSR":733.5,"ySR":461.5,"xT1":420.09999999999997,"yT1":0,"xT2":1046.8999999999999,"yT2":0,"toosoon":0,"cond_shown":"equaldotsize","ratio_trial":900,"smaller_num":"18","larger_num":"20","correct_side":2,"subjID":"DanielFelipeArtunduagaEscobar39","gender":"0","age":"11","school":"6"},{"start_time":1551801460961,"click_time":1551801462256,"finger_time":1551801461815,"fix_duration":1083.7944897591972,"trial":44,"RT":854,"MT":441,"sideResp":1,"stimulus":"img/900/equaldotanddens/L/8_Ratio_900_L_20_R_18.png","xmouse":[818,818,818,818,818,818,818,818,818,818,818,818,818,818,818,818,818,818,818,818,818,818,818,818,818,818,818,818,818,818,818,818,818,818,818,818,818,818,818,816,791,769,747,728,688,672,660,646,622,589,577,567,557,549,539,532,525,520,512,507,503,502,501,501,500],"ymouse":[495,495,495,495,495,495,495,495,495,495,495,495,495,495,495,495,495,495,495,495,495,495,495,495,495,495,495,495,495,495,495,495,495,495,495,495,495,495,495,495,487,473,454,427,356,323,293,269,246,222,215,209,203,199,190,182,175,167,152,143,130,123,117,108,98],"timestamp_mouse":[15,41,55,75,95,115,135,155,174,195,215,236,255,276,296,316,335,355,375,395,416,435,455,475,495,516,535,556,575,594,616,635,654,676,695,715,736,756,774,794,816,835,854,874,896,914,935,955,976,995,1015,1035,1056,1075,1096,1114,1135,1155,1175,1195,1215,1234,1254,1275,1295],"xSR":733.5,"ySR":461.5,"xT1":420.09999999999997,"yT1":0,"xT2":1046.8999999999999,"yT2":0,"toosoon":0,"cond_shown":"equaldotanddens","ratio_trial":900,"smaller_num":"18","larger_num":"20","correct_side":1,"subjID":"DanielFelipeArtunduagaEscobar39","gender":"0","age":"11","school":"6"},{"start_time":1551801464627,"click_time":1551801465357,"finger_time":1551801465276,"fix_duration":1448.8672114821322,"trial":45,"RT":649,"MT":81,"sideResp":2,"stimulus":"img/750/equaldotanddens/R/2_Ratio_750_L_6_R_8.png","xmouse":[775,775,775,775,775,775,775,775,775,775,775,775,775,775,775,775,775,775,775,775,775,775,775,775,775,775,775,775,775,775,775,787,832,900,1002,1031,1082],"ymouse":[494,494,494,494,494,494,494,494,494,494,494,494,494,494,494,494,494,494,494,494,494,494,494,494,494,494,494,494,494,494,494,471,396,304,182,155,95],"timestamp_mouse":[10,31,49,68,89,109,129,150,170,190,209,229,249,269,289,310,328,350,369,388,410,430,450,470,489,509,529,550,570,589,609,629,649,669,688,709,730],"xSR":733.5,"ySR":461.5,"xT1":420.09999999999997,"yT1":0,"xT2":1046.8999999999999,"yT2":0,"toosoon":0,"cond_shown":"equaldotanddens","ratio_trial":750,"smaller_num":"6","larger_num":"8","correct_side":2,"subjID":"DanielFelipeArtunduagaEscobar39","gender":"0","age":"11","school":"6"},{"start_time":1551801467402,"click_time":1551801468457,"finger_time":1551801468035,"fix_duration":1223.7436692747342,"trial":46,"RT":633,"MT":422,"sideResp":1,"stimulus":"img/750/equaldotsize/L/6_Ratio_750_L_24_R_18.png","xmouse":[781,781,781,781,781,781,781,781,781,781,781,781,781,781,781,781,781,781,781,781,781,781,781,781,781,781,781,781,781,779,776,763,743,715,705,692,669,629,619,610,602,598,595,589,586,581,572,563,536,528,523,519,511],"ymouse":[517,517,517,517,517,517,517,517,517,517,517,517,517,517,517,517,517,517,517,517,517,517,517,517,517,517,517,517,517,508,494,461,415,369,354,340,313,269,259,248,237,229,223,212,204,197,182,170,130,117,109,103,90],"timestamp_mouse":[15,34,53,74,94,115,135,155,174,195,215,234,254,274,295,314,334,353,373,395,415,434,453,474,494,514,533,554,575,594,613,633,655,674,694,715,735,755,774,794,814,834,855,874,894,915,933,953,974,994,1015,1033,1055],"xSR":733.5,"ySR":461.5,"xT1":420.09999999999997,"yT1":0,"xT2":1046.8999999999999,"yT2":0,"toosoon":0,"cond_shown":"equaldotsize","ratio_trial":750,"smaller_num":"18","larger_num":"24","correct_side":1,"subjID":"DanielFelipeArtunduagaEscobar39","gender":"0","age":"11","school":"6"},{"start_time":1551801469629,"click_time":1551801470957,"finger_time":1551801470556,"fix_duration":250,"trial":47,"RT":927,"MT":401,"sideResp":1,"stimulus":"img/750/equaldotanddens/L/8_Ratio_750_L_4_R_3.png","xmouse":[782,782,782,782,782,782,782,782,782,782,782,782,782,782,782,782,782,782,782,782,782,782,782,782,782,782,782,782,782,782,782,782,782,782,782,782,782,782,782,782,782,782,782,782,783,778,759,690,653,621,590,570,543,531,518,508,499,486,483,482,481,480,480,478,478,476,475],"ymouse":[491,491,491,491,491,491,491,491,491,491,491,491,491,491,491,491,491,491,491,491,491,491,491,491,491,491,491,491,491,491,491,491,491,491,491,491,491,491,491,491,491,491,491,491,492,481,454,378,349,322,298,279,234,214,193,180,169,147,139,135,132,126,123,119,113,107,96],"timestamp_mouse":[11,26,46,68,88,107,127,146,168,187,207,227,248,268,287,307,328,348,367,387,408,428,447,467,487,506,528,547,568,587,607,628,646,667,688,708,726,748,768,787,808,828,848,867,887,906,927,947,967,986,1006,1026,1047,1067,1087,1107,1127,1148,1167,1187,1208,1227,1246,1266,1287,1307,1328],"xSR":733.5,"ySR":461.5,"xT1":420.09999999999997,"yT1":0,"xT2":1046.8999999999999,"yT2":0,"toosoon":0,"cond_shown":"equaldotanddens","ratio_trial":750,"smaller_num":"3","larger_num":"4","correct_side":1,"subjID":"DanielFelipeArtunduagaEscobar39","gender":"0","age":"11","school":"6"},{"start_time":1551801472011,"click_time":1551801473036,"finger_time":1551801472656,"fix_duration":254.97793560206185,"trial":48,"RT":645,"MT":380,"sideResp":1,"stimulus":"img/250/equaldotanddens/L/5_Ratio_250_L_24_R_6.png","xmouse":[760,760,760,760,760,760,760,760,760,760,760,760,760,760,760,760,760,760,760,760,760,760,760,760,760,760,760,760,760,760,756,750,686,644,603,573,549,532,527,523,518,513,509,506,505,503,500,498,491,489,486,484],"ymouse":[521,521,521,521,521,521,521,521,521,521,521,521,521,521,521,521,521,521,521,521,521,521,521,521,521,521,521,521,521,521,508,494,401,353,315,287,260,227,213,200,190,178,159,152,144,137,127,122,112,107,102,97],"timestamp_mouse":[10,34,46,66,85,106,125,145,166,186,205,225,245,265,285,306,325,346,364,385,405,425,446,466,485,506,526,546,565,586,606,626,645,664,686,705,725,745,765,785,805,826,846,865,885,905,924,945,965,985,1005,1025],"xSR":733.5,"ySR":461.5,"xT1":420.09999999999997,"yT1":0,"xT2":1046.8999999999999,"yT2":0,"toosoon":0,"cond_shown":"equaldotanddens","ratio_trial":250,"smaller_num":"6","larger_num":"24","correct_side":1,"subjID":"DanielFelipeArtunduagaEscobar39","gender":"0","age":"11","school":"6"},{"start_time":1551801474953,"click_time":1551801476036,"finger_time":1551801475675,"fix_duration":1056.035860029978,"trial":49,"RT":722,"MT":361,"sideResp":1,"stimulus":"img/900/equaldotsize/R/6_Ratio_900_L_9_R_10.png","xmouse":[768,768,768,768,768,768,768,768,768,768,768,768,768,768,768,768,768,768,768,768,768,768,768,768,768,768,768,768,768,768,768,768,768,768,768,767,751,733,711,668,620,597,573,557,545,525,516,509,500,489,481,470,467,463,461],"ymouse":[485,485,485,485,485,485,485,485,485,485,485,485,485,485,485,485,485,485,485,485,485,485,485,485,485,485,485,485,485,485,485,485,485,485,485,481,458,435,410,369,322,295,262,237,221,199,189,180,170,154,143,125,116,104,94],"timestamp_mouse":[9,33,43,64,83,102,124,143,163,183,202,223,244,262,284,302,324,342,364,383,403,422,444,463,484,504,524,543,563,583,602,623,644,662,684,702,722,744,763,783,803,822,843,862,883,904,922,944,964,984,1002,1024,1043,1063,1083],"xSR":733.5,"ySR":461.5,"xT1":420.09999999999997,"yT1":0,"xT2":1046.8999999999999,"yT2":0,"toosoon":0,"cond_shown":"equaldotsize","ratio_trial":900,"smaller_num":"9","larger_num":"10","correct_side":2,"subjID":"DanielFelipeArtunduagaEscobar39","gender":"0","age":"11","school":"6"},{"start_time":1551801477224,"click_time":1551801478496,"finger_time":1551801477977,"fix_duration":366.4036327143073,"trial":50,"RT":753,"MT":519,"sideResp":2,"stimulus":"img/500/randomdotsizeEA/R/1_Ratio_500_L_9_R_18.png","xmouse":[771,771,771,771,771,771,771,771,771,771,771,771,771,771,771,771,771,771,771,771,771,771,771,771,771,771,771,771,771,771,771,771,770,769,764,761,754,752,749,749,748,748,748,748,748,748,748,752,766,788,814,854,871,887,900,912,948,963,978,991,1003,1017,1053,1086],"ymouse":[487,487,487,487,487,487,487,487,487,487,487,487,487,487,487,487,487,487,487,487,487,487,487,487,487,487,487,487,487,487,487,487,487,486,480,475,463,458,452,451,450,450,450,450,450,450,450,443,426,405,385,358,348,340,332,323,283,263,244,225,203,179,118,62],"timestamp_mouse":[13,38,53,72,91,113,132,153,173,193,212,232,252,273,292,312,332,351,373,392,413,432,452,473,492,512,533,552,573,593,612,633,652,672,692,712,732,753,771,791,812,832,853,873,891,911,933,951,972,992,1013,1032,1051,1072,1092,1112,1133,1152,1172,1192,1212,1233,1252,1272],"xSR":733.5,"ySR":461.5,"xT1":420.09999999999997,"yT1":0,"xT2":1046.8999999999999,"yT2":0,"toosoon":0,"cond_shown":"randomdotsizeEA","ratio_trial":500,"smaller_num":"9","larger_num":"18","correct_side":2,"subjID":"DanielFelipeArtunduagaEscobar39","gender":"0","age":"11","school":"6"},{"start_time":1551801479655,"click_time":1551801480676,"finger_time":1551801480336,"fix_duration":437.6862198115534,"trial":51,"RT":681,"MT":340,"sideResp":2,"stimulus":"img/500/randomdotsizeEA/R/3_Ratio_500_L_10_R_20.png","xmouse":[802,802,802,802,802,802,802,802,802,802,802,802,802,802,802,802,802,802,802,802,802,802,802,802,802,802,802,802,802,802,802,802,804,816,840,904,930,947,960,972,992,1000,1007,1014,1021,1025,1026,1027,1029,1032,1049,1058],"ymouse":[535,535,535,535,535,535,535,535,535,535,535,535,535,535,535,535,535,535,535,535,535,535,535,535,535,535,535,535,535,535,535,535,524,496,446,346,310,287,267,249,216,201,189,175,157,145,140,137,133,127,104,90],"timestamp_mouse":[9,21,40,62,81,100,122,141,162,182,201,222,241,261,280,302,322,341,360,381,401,420,441,462,482,501,522,542,561,582,601,622,641,662,681,701,721,741,760,780,802,821,841,862,880,902,921,941,961,982,1002,1020],"xSR":733.5,"ySR":461.5,"xT1":420.09999999999997,"yT1":0,"xT2":1046.8999999999999,"yT2":0,"toosoon":0,"cond_shown":"randomdotsizeEA","ratio_trial":500,"smaller_num":"10","larger_num":"20","correct_side":2,"subjID":"DanielFelipeArtunduagaEscobar39","gender":"0","age":"11","school":"6"},{"start_time":1551801481550,"click_time":1551801482517,"finger_time":1551801482237,"fix_duration":250,"trial":52,"RT":687,"MT":280,"sideResp":2,"stimulus":"img/250/randomdotsizeEA/R/9_Ratio_250_L_3_R_12.png","xmouse":[754,754,754,754,754,754,754,754,754,754,754,754,754,754,754,754,754,754,754,754,754,754,754,754,754,754,754,754,754,754,754,754,769,799,842,903,925,937,948,965,976,1010,1026,1039,1050,1059,1062,1065,1068],"ymouse":[543,543,543,543,543,543,543,543,543,543,543,543,543,543,543,543,543,543,543,543,543,543,543,543,543,543,543,543,543,543,543,543,523,479,419,336,310,295,278,255,239,200,178,158,141,121,111,101,93],"timestamp_mouse":[6,39,46,67,86,107,126,146,167,186,206,227,246,266,287,306,327,347,366,386,408,427,447,466,487,507,528,547,566,586,607,626,647,666,687,706,726,746,768,786,807,826,847,868,886,906,926,946,967],"xSR":733.5,"ySR":461.5,"xT1":420.09999999999997,"yT1":0,"xT2":1046.8999999999999,"yT2":0,"toosoon":0,"cond_shown":"randomdotsizeEA","ratio_trial":250,"smaller_num":"3","larger_num":"12","correct_side":2,"subjID":"DanielFelipeArtunduagaEscobar39","gender":"0","age":"11","school":"6"},{"start_time":1551801485900,"click_time":1551801486936,"finger_time":1551801486557,"fix_duration":1282.8480722798472,"trial":53,"RT":657,"MT":379,"sideResp":2,"stimulus":"img/250/equaldotanddens/R/4_Ratio_250_L_3_R_12.png","xmouse":[784,784,784,784,784,784,784,784,784,784,784,784,784,784,784,784,784,784,784,784,784,784,784,784,784,784,784,784,784,784,784,786,803,817,834,849,861,877,882,888,893,905,917,925,937,952,969,989,1034,1055,1072,1087],"ymouse":[508,508,508,508,508,508,508,508,508,508,508,508,508,508,508,508,508,508,508,508,508,508,508,508,508,508,508,508,508,508,506,497,430,400,368,344,324,294,283,270,261,245,229,219,209,196,182,165,133,120,109,97],"timestamp_mouse":[16,39,56,76,96,116,136,157,177,196,216,237,256,277,298,317,337,356,376,396,416,436,456,478,497,516,537,556,577,597,618,636,657,676,697,717,736,756,776,797,817,836,857,876,896,917,937,957,976,997,1016,1036],"xSR":733.5,"ySR":461.5,"xT1":420.09999999999997,"yT1":0,"xT2":1046.8999999999999,"yT2":0,"toosoon":0,"cond_shown":"equaldotanddens","ratio_trial":250,"smaller_num":"3","larger_num":"12","correct_side":2,"subjID":"DanielFelipeArtunduagaEscobar39","gender":"0","age":"11","school":"6"},{"start_time":1551801489248,"click_time":1551801496398,"finger_time":1551801490117,"fix_duration":1290.1054576080044,"trial":54,"RT":869,"MT":6281,"sideResp":2,"stimulus":"img/900/equaldotanddens/L/4_Ratio_900_L_20_R_18.png","xmouse":[798,798,798,798,798,798,798,798,798,798,798,798,798,798,798,798,798,798,798,798,798,798,798,798,798,798,798,798,798,798,798,798,798,798,798,798,798,798,798,798,798,798,804,823,846,858,860,862,864,868,882,893,902,909,912,912,912,912,912,912,912,912,912,912,912,912,912,912,912,912,912,912,912,912,912,912,912,912,912,912,913,916,922,925,927,928,928,928,928,928,928,928,928,928,931,939,941,943,944,946,951,955,958,962,968,972,973,973,973,973,973,973,973,973,973,970,962,952,940,921,888,882,881,881,879,837,811,793,779,771,769,767,767,767,767,765,764,761,757,745,727,689,676,664,655,639,635,632,628,626,622,620,618,618,616,619,623,635,649,672,720,749,775,793,802,806,808,814,817,821,828,831,836,842,853,881,895,907,916,927,954,967,982,996,1004,1004,1004,1005,1005,1002,979,966,954,939,911,874,858,841,829,821,814,812,810,808,801,795,784,781,779,779,778,778,778,778,778,778,778,778,778,778,778,778,778,778,778,778,778,778,778,778,778,778,778,778,778,778,778,778,778,778,778,778,778,778,778,778,778,778,778,778,778,778,778,778,778,778,778,778,778,778,778,778,778,778,778,778,778,778,778,778,778,778,778,778,778,778,778,778,778,778,778,777,777,776,776,776,776,776,776,776,776,776,776,775,774,771,771,771,771,771,771,770,770,770,770,772,772,772,772,772,772,774,774,776,777,777,776,776,776,776,776,776,776,776,776,774,774,774,774,774,774,774,774,776,777,781,798,812,838,879,1009,1079,1140,1196,1212,1219,1219,1219,1219,1219,1219,1214,1207,1200,1191,1186,1161,1145],"ymouse":[502,502,502,502,502,502,502,502,502,502,502,502,502,502,502,502,502,502,502,502,502,502,502,502,502,502,502,502,502,502,502,502,502,502,502,502,502,502,502,502,502,495,479,434,381,360,356,353,350,345,325,310,297,288,284,284,284,284,284,284,284,284,284,284,284,284,284,284,284,284,284,284,284,284,284,284,284,284,284,284,281,277,270,265,263,263,263,263,263,263,263,263,263,262,262,258,256,255,255,253,246,242,238,233,228,224,223,223,223,223,223,223,223,223,222,217,213,205,193,175,150,147,147,147,147,146,143,141,141,141,142,143,143,143,143,143,143,142,139,135,131,129,129,132,135,136,136,136,136,136,136,136,136,136,136,127,123,118,113,107,93,85,77,72,70,70,70,70,69,68,68,68,67,66,66,66,66,66,66,66,66,66,66,66,66,66,66,66,68,79,142,188,237,279,336,388,407,421,432,443,459,463,466,470,477,486,501,507,511,512,513,513,513,513,513,513,513,513,513,513,513,513,513,513,513,513,513,513,513,513,513,513,513,513,513,513,513,513,513,513,513,513,513,513,513,513,513,513,513,513,513,513,513,513,513,513,513,513,513,513,513,513,513,513,513,513,513,513,513,513,513,513,513,513,513,513,513,513,513,513,513,514,514,515,517,517,517,517,517,517,517,516,515,512,510,505,504,504,504,504,504,504,504,506,509,513,513,514,514,514,514,513,510,505,502,497,495,495,495,495,495,495,495,495,495,498,499,499,499,499,499,499,499,499,497,493,467,449,417,367,235,171,122,81,68,59,54,49,42,35,29,20,17,15,15,16,32,41],"timestamp_mouse":[9,42,50,68,88,108,130,148,169,189,210,228,249,269,289,310,328,349,370,389,409,429,449,468,488,509,528,548,569,588,608,630,649,670,688,708,729,750,769,788,808,828,848,869,890,909,929,949,968,989,1009,1028,1048,1069,1088,1109,1129,1148,1168,1189,1210,1229,1248,1269,1288,1309,1328,1348,1368,1388,1409,1430,1448,1469,1488,1509,1529,1549,1568,1588,1608,1628,1648,1668,1688,1710,1728,1748,1768,1788,1809,1829,1849,1869,1889,1908,1930,1948,1969,1989,2009,2028,2048,2070,2088,2109,2128,2149,2169,2189,2210,2228,2249,2268,2288,2309,2328,2348,2368,2390,2409,2428,2449,2469,2488,2509,2528,2548,2568,2589,2608,2629,2648,2668,2690,2709,2728,2748,2769,2788,2808,2828,2848,2868,2889,2908,2930,2949,2969,2989,3008,3028,3050,3068,3089,3109,3129,3148,3169,3189,3209,3228,3249,3269,3288,3309,3328,3348,3368,3388,3409,3430,3449,3469,3488,3508,3528,3549,3570,3589,3609,3629,3648,3668,3689,3709,3729,3749,3769,3790,3810,3828,3849,3869,3888,3909,3928,3949,3969,3988,4009,4028,4048,4070,4088,4108,4130,4149,4168,4188,4209,4229,4248,4268,4289,4309,4328,4350,4369,4388,4408,4428,4448,4468,4488,4510,4529,4548,4570,4588,4609,4629,4649,4668,4689,4708,4729,4749,4768,4790,4810,4828,4848,4868,4888,4909,4928,4949,4968,4990,5009,5028,5050,5068,5088,5110,5129,5148,5169,5189,5209,5230,5248,5268,5289,5308,5330,5350,5368,5388,5408,5428,5449,5469,5489,5509,5528,5548,5568,5589,5608,5629,5649,5668,5688,5709,5729,5750,5768,5789,5808,5828,5849,5868,5888,5908,5929,5948,5968,5990,6009,6028,6049,6068,6089,6110,6128,6149,6169,6189,6208,6228,6249,6270,6290,6308,6329,6349,6368,6388,6408,6429,6448,6468,6489,6509,6529,6548,6568,6588,6610,6628,6650,6668,6689,6708,6729,6749,6769,6788,6808,6828,6848,6868,6888,6909,6928,6948,6969,6989,7008,7028,7049,7069,7090,7109,7129,7150],"xSR":733.5,"ySR":461.5,"xT1":420.09999999999997,"yT1":0,"xT2":1046.8999999999999,"yT2":0,"toosoon":0,"cond_shown":"equaldotanddens","ratio_trial":900,"smaller_num":"18","larger_num":"20","correct_side":1,"subjID":"DanielFelipeArtunduagaEscobar39","gender":"0","age":"11","school":"6"},{"start_time":1551801497988,"click_time":1551801498896,"finger_time":1551801498698,"fix_duration":310.88576360469546,"trial":55,"RT":710,"MT":198,"sideResp":2,"stimulus":"img/500/equaldotanddens/R/12_Ratio_500_L_1_R_2.png","xmouse":[769,769,769,769,769,769,769,769,769,769,769,769,769,769,769,769,769,769,769,769,769,769,769,769,769,769,769,769,769,769,769,769,773,794,822,855,906,988,1073,1085,1088,1088,1088,1087,1087,1089],"ymouse":[519,519,519,519,519,519,519,519,519,519,519,519,519,519,519,519,519,519,519,519,519,519,519,519,519,519,519,519,519,519,519,519,518,498,464,419,358,265,170,150,138,130,123,108,102,95],"timestamp_mouse":[8,35,48,69,89,108,130,148,168,188,210,228,249,268,289,308,328,348,368,389,409,428,449,468,490,509,528,550,568,588,609,628,648,669,688,710,729,748,769,788,808,828,849,869,888,908],"xSR":733.5,"ySR":461.5,"xT1":420.09999999999997,"yT1":0,"xT2":1046.8999999999999,"yT2":0,"toosoon":0,"cond_shown":"equaldotanddens","ratio_trial":500,"smaller_num":"1","larger_num":"2","correct_side":2,"subjID":"DanielFelipeArtunduagaEscobar39","gender":"0","age":"11","school":"6"},{"start_time":1551801502075,"click_time":1551801503316,"finger_time":1551801502858,"fix_duration":538.1642614550956,"trial":56,"RT":783,"MT":458,"sideResp":2,"stimulus":"img/900/randomdotsizeEA/R/12_Ratio_900_L_18_R_20.png","xmouse":[757,757,757,757,757,757,757,757,757,757,757,757,757,757,757,757,757,757,757,757,757,757,757,757,757,757,757,757,757,757,757,757,757,757,757,757,759,762,777,803,811,824,841,868,904,924,941,957,971,994,1006,1017,1033,1041,1058,1067,1073,1076,1077,1079,1079,1079,1079],"ymouse":[512,512,512,512,512,512,512,512,512,512,512,512,512,512,512,512,512,512,512,512,512,512,512,512,512,512,512,512,512,512,512,512,512,512,512,512,512,509,484,453,446,435,411,373,329,315,304,295,284,257,240,223,204,193,166,149,133,122,114,106,103,100,96],"timestamp_mouse":[9,23,41,65,82,101,121,141,162,182,201,221,243,261,281,301,321,341,361,383,401,423,443,461,482,501,521,542,561,581,601,622,641,661,681,702,721,742,763,783,802,821,841,863,882,901,921,943,962,982,1001,1021,1042,1061,1082,1101,1122,1142,1161,1182,1201,1222,1241],"xSR":733.5,"ySR":461.5,"xT1":420.09999999999997,"yT1":0,"xT2":1046.8999999999999,"yT2":0,"toosoon":0,"cond_shown":"randomdotsizeEA","ratio_trial":900,"smaller_num":"18","larger_num":"20","correct_side":2,"subjID":"DanielFelipeArtunduagaEscobar39","gender":"0","age":"11","school":"6"},{"start_time":1551801504869,"click_time":1551801506057,"finger_time":1551801505676,"fix_duration":910.7238664157327,"trial":57,"RT":807,"MT":381,"sideResp":1,"stimulus":"img/900/randomdotsizeEA/L/1_Ratio_900_L_10_R_9.png","xmouse":[762,762,762,762,762,762,762,762,762,762,762,762,762,762,762,762,762,762,762,762,762,762,762,762,762,762,762,762,762,762,762,762,762,762,762,762,762,762,761,748,733,716,692,645,585,569,560,555,553,546,544,543,541,535,530,523,518,510,499,488],"ymouse":[522,522,522,522,522,522,522,522,522,522,522,522,522,522,522,522,522,522,522,522,522,522,522,522,522,522,522,522,522,522,522,522,522,522,522,522,522,522,522,514,494,470,437,378,288,256,236,227,221,198,181,165,153,135,129,117,111,105,100,95],"timestamp_mouse":[9,35,48,69,87,107,127,147,168,187,208,228,248,267,287,307,328,347,369,389,407,428,448,467,487,507,529,547,567,589,608,628,647,667,687,707,727,747,767,788,807,827,847,869,888,907,927,948,969,988,1007,1027,1049,1067,1087,1108,1127,1149,1168,1188],"xSR":733.5,"ySR":461.5,"xT1":420.09999999999997,"yT1":0,"xT2":1046.8999999999999,"yT2":0,"toosoon":0,"cond_shown":"randomdotsizeEA","ratio_trial":900,"smaller_num":"9","larger_num":"10","correct_side":1,"subjID":"DanielFelipeArtunduagaEscobar39","gender":"0","age":"11","school":"6"},{"start_time":1551801507935,"click_time":1551801509076,"finger_time":1551801508636,"fix_duration":1216.6746960097244,"trial":58,"RT":701,"MT":440,"sideResp":1,"stimulus":"img/250/randomdotsizeEA/L/5_Ratio_250_L_24_R_6.png","xmouse":[746,746,746,746,746,746,746,746,746,746,746,746,746,746,746,746,746,746,746,746,746,746,746,746,746,746,746,746,746,746,746,746,746,746,743,735,705,669,629,609,595,586,580,573,566,558,554,548,544,537,511,495,489,488,487,486,482,459],"ymouse":[517,517,517,517,517,517,517,517,517,517,517,517,517,517,517,517,517,517,517,517,517,517,517,517,517,517,517,517,517,517,517,517,517,516,498,446,361,318,287,270,248,218,205,193,186,180,177,166,161,154,140,133,128,125,119,115,107,91],"timestamp_mouse":[9,22,41,61,81,101,121,141,161,182,202,221,241,262,283,301,321,341,361,381,401,421,442,461,481,502,521,543,562,582,602,622,641,661,681,701,722,741,761,782,802,822,841,861,882,901,921,941,962,981,1002,1022,1043,1062,1082,1103,1122,1141],"xSR":733.5,"ySR":461.5,"xT1":420.09999999999997,"yT1":0,"xT2":1046.8999999999999,"yT2":0,"toosoon":0,"cond_shown":"randomdotsizeEA","ratio_trial":250,"smaller_num":"6","larger_num":"24","correct_side":1,"subjID":"DanielFelipeArtunduagaEscobar39","gender":"0","age":"11","school":"6"},{"start_time":1551801511398,"click_time":1551801512716,"finger_time":1551801512316,"fix_duration":1439.8127729834553,"trial":59,"RT":918,"MT":400,"sideResp":1,"stimulus":"img/500/randomdotsizeEA/L/7_Ratio_500_L_10_R_5.png","xmouse":[800,800,800,800,800,800,800,800,800,800,800,800,800,800,800,800,800,800,800,800,800,800,800,800,800,800,800,800,800,800,800,800,800,800,800,800,800,800,800,800,800,800,800,798,792,762,720,648,640,633,627,618,605,598,591,584,578,571,561,556,549,542,524,513,506,491],"ymouse":[491,491,491,491,491,491,491,491,491,491,491,491,491,491,491,491,491,491,491,491,491,491,491,491,491,491,491,491,491,491,491,491,491,491,491,491,491,491,491,491,491,491,491,491,487,453,402,290,263,239,216,198,177,167,158,148,140,132,127,124,119,116,108,103,100,95],"timestamp_mouse":[18,39,58,79,98,118,138,158,178,199,218,238,259,280,298,319,338,358,378,398,419,440,459,478,500,518,539,560,579,598,619,638,658,678,699,720,738,758,779,798,818,838,859,878,899,918,938,958,978,999,1019,1038,1059,1080,1099,1118,1139,1159,1179,1199,1219,1238,1258,1278,1300,1318],"xSR":733.5,"ySR":461.5,"xT1":420.09999999999997,"yT1":0,"xT2":1046.8999999999999,"yT2":0,"toosoon":0,"cond_shown":"randomdotsizeEA","ratio_trial":500,"smaller_num":"5","larger_num":"10","correct_side":1,"subjID":"DanielFelipeArtunduagaEscobar39","gender":"0","age":"11","school":"6"},{"start_time":1551801514836,"click_time":1551801517057,"finger_time":1551801515816,"fix_duration":1158.8192581113813,"trial":60,"RT":980,"MT":1241,"sideResp":1,"stimulus":"img/750/randomdotsizeEA/L/10_Ratio_750_L_4_R_3.png","xmouse":[786,786,786,786,786,786,786,786,786,786,786,786,786,786,786,786,786,786,786,786,786,786,786,786,786,786,786,786,786,786,786,786,786,786,786,786,786,786,786,786,786,786,786,786,786,787,780,776,771,764,754,743,740,738,738,739,751,755,761,771,783,823,843,852,854,854,854,854,854,854,855,858,861,867,877,882,893,905,909,914,918,931,937,941,942,943,943,943,943,943,943,938,920,887,789,748,626,520,502,493,489,482,478,474,470,470,470,469,469,469,470,476],"ymouse":[510,510,510,510,510,510,510,510,510,510,510,510,510,510,510,510,510,510,510,510,510,510,510,510,510,510,510,510,510,510,510,510,510,510,510,510,510,510,510,510,510,510,510,510,510,509,495,486,473,457,439,420,409,398,383,368,344,338,331,324,313,279,263,255,254,254,254,254,254,253,253,248,245,242,237,235,230,225,223,220,218,209,205,201,200,200,200,200,200,200,199,198,198,198,195,195,195,193,189,184,181,172,167,163,158,155,143,126,117,110,101,86],"timestamp_mouse":[8,21,49,61,80,102,120,140,160,181,200,221,240,260,280,300,320,340,360,380,400,420,441,461,482,501,520,540,561,580,600,620,640,662,681,700,721,740,761,780,801,820,842,861,881,900,921,940,960,980,1002,1021,1040,1061,1080,1100,1120,1140,1160,1182,1201,1221,1240,1261,1280,1301,1321,1340,1361,1381,1401,1420,1440,1461,1481,1500,1520,1540,1560,1581,1601,1620,1640,1661,1681,1700,1721,1740,1760,1781,1800,1820,1840,1860,1880,1901,1920,1941,1960,1981,2001,2021,2040,2061,2081,2101,2120,2140,2160,2182,2200,2221],"xSR":733.5,"ySR":461.5,"xT1":420.09999999999997,"yT1":0,"xT2":1046.8999999999999,"yT2":0,"toosoon":0,"cond_shown":"randomdotsizeEA","ratio_trial":750,"smaller_num":"3","larger_num":"4","correct_side":1,"subjID":"DanielFelipeArtunduagaEscobar39","gender":"0","age":"11","school":"6"},{"start_time":1551801518330,"click_time":1551801519277,"finger_time":1551801518956,"fix_duration":250,"trial":61,"RT":626,"MT":321,"sideResp":1,"stimulus":"img/250/equaldotsize/L/14_Ratio_250_L_12_R_3.png","xmouse":[797,797,797,797,797,797,797,797,797,797,797,797,797,797,797,797,797,797,797,797,797,797,797,797,797,797,797,797,797,797,794,783,717,685,661,641,620,579,563,549,545,530,525,520,518,515,513,510],"ymouse":[481,481,481,481,481,481,481,481,481,481,481,481,481,481,481,481,481,481,481,481,481,481,481,481,481,481,481,481,481,481,474,453,353,311,285,270,257,229,215,194,187,159,148,137,129,118,103,79],"timestamp_mouse":[8,26,46,67,86,107,127,147,168,186,206,226,246,267,286,307,327,348,366,387,406,427,447,466,487,508,527,548,567,586,607,626,646,666,687,707,727,746,768,787,807,826,846,867,887,907,927,947],"xSR":733.5,"ySR":461.5,"xT1":420.09999999999997,"yT1":0,"xT2":1046.8999999999999,"yT2":0,"toosoon":0,"cond_shown":"equaldotsize","ratio_trial":250,"smaller_num":"3","larger_num":"12","correct_side":1,"subjID":"DanielFelipeArtunduagaEscobar39","gender":"0","age":"11","school":"6"},{"start_time":1551801520248,"click_time":1551801521138,"finger_time":1551801520858,"fix_duration":250,"trial":62,"RT":610,"MT":280,"sideResp":1,"stimulus":"img/250/equaldotanddens/L/7_Ratio_250_L_8_R_2.png","xmouse":[785,785,785,785,785,785,785,785,785,785,785,785,785,785,785,785,785,785,785,785,785,785,785,785,785,785,785,782,778,757,640,581,532,488,465,430,420,413,409,406,403,403,405,410,423],"ymouse":[519,519,519,519,519,519,519,519,519,519,519,519,519,519,519,519,519,519,519,519,519,519,519,519,519,519,519,516,511,487,380,330,286,247,225,188,177,164,153,137,112,106,99,92,80],"timestamp_mouse":[8,42,49,68,89,108,129,150,170,188,208,230,249,268,289,308,328,350,368,389,408,428,450,468,489,508,529,548,569,589,610,629,649,668,688,709,729,748,769,789,808,829,848,868,890],"xSR":733.5,"ySR":461.5,"xT1":420.09999999999997,"yT1":0,"xT2":1046.8999999999999,"yT2":0,"toosoon":0,"cond_shown":"equaldotanddens","ratio_trial":250,"smaller_num":"2","larger_num":"8","correct_side":1,"subjID":"DanielFelipeArtunduagaEscobar39","gender":"0","age":"11","school":"6"},{"start_time":1551801523099,"click_time":1551801524136,"finger_time":1551801523817,"fix_duration":1120.9367569646572,"trial":63,"RT":718,"MT":319,"sideResp":2,"stimulus":"img/750/equaldotsize/R/4_Ratio_750_L_15_R_20.png","xmouse":[745,745,745,745,745,745,745,745,745,745,745,745,745,745,745,745,745,745,745,745,745,745,745,745,745,745,745,745,745,745,746,750,756,778,795,817,848,914,936,956,976,998,1027,1031,1034,1040,1048,1059,1095,1112,1122,1134],"ymouse":[519,519,519,519,519,519,519,519,519,519,519,519,519,519,519,519,519,519,519,519,519,519,519,519,519,519,519,519,519,518,517,512,505,479,465,448,428,391,375,356,328,289,235,227,221,209,196,180,132,114,100,87],"timestamp_mouse":[18,38,58,77,99,118,137,157,178,197,218,237,257,277,299,317,337,357,377,397,419,437,459,477,497,517,538,559,578,598,618,637,657,679,697,718,738,758,777,798,817,837,857,878,897,918,938,957,977,999,1018,1037],"xSR":733.5,"ySR":461.5,"xT1":420.09999999999997,"yT1":0,"xT2":1046.8999999999999,"yT2":0,"toosoon":0,"cond_shown":"equaldotsize","ratio_trial":750,"smaller_num":"15","larger_num":"20","correct_side":2,"subjID":"DanielFelipeArtunduagaEscobar39","gender":"0","age":"11","school":"6"},{"start_time":1551801525504,"click_time":1551801526677,"finger_time":1551801526296,"fix_duration":506.6746283038798,"trial":64,"RT":792,"MT":381,"sideResp":2,"stimulus":"img/750/randomdotsizeEA/R/11_Ratio_750_L_12_R_16.png","xmouse":[784,784,784,784,784,784,784,784,784,784,784,784,784,784,784,784,784,784,784,784,784,784,784,784,784,784,784,784,784,784,784,784,784,784,786,792,798,805,830,846,864,895,939,956,971,982,994,1003,1026,1038,1048,1061,1076,1080,1085,1090,1093,1098,1105],"ymouse":[483,483,483,483,483,483,483,483,483,483,483,483,483,483,483,483,483,483,483,483,483,483,483,483,483,483,483,483,483,483,483,483,483,483,483,483,481,478,464,454,443,426,398,385,374,363,348,334,298,279,262,238,210,195,180,164,148,104,84],"timestamp_mouse":[13,38,53,72,92,112,132,152,172,192,213,232,253,273,293,312,332,354,373,392,412,433,452,473,493,512,532,552,573,592,612,632,653,672,692,712,733,753,772,792,814,832,853,873,893,913,933,953,972,992,1012,1033,1053,1072,1092,1113,1132,1153,1173],"xSR":733.5,"ySR":461.5,"xT1":420.09999999999997,"yT1":0,"xT2":1046.8999999999999,"yT2":0,"toosoon":0,"cond_shown":"randomdotsizeEA","ratio_trial":750,"smaller_num":"12","larger_num":"16","correct_side":2,"subjID":"DanielFelipeArtunduagaEscobar39","gender":"0","age":"11","school":"6"},{"start_time":1551801528387,"click_time":1551801529357,"finger_time":1551801529017,"fix_duration":889.4225649934048,"trial":65,"RT":630,"MT":340,"sideResp":2,"stimulus":"img/250/equaldotsize/R/13_Ratio_250_L_2_R_8.png","xmouse":[785,785,785,785,785,785,785,785,785,785,785,785,785,785,785,785,785,785,785,785,785,785,785,785,785,785,785,785,785,792,810,843,881,959,985,1000,1012,1024,1038,1045,1051,1059,1067,1082,1089,1096,1103,1114,1132],"ymouse":[501,501,501,501,501,501,501,501,501,501,501,501,501,501,501,501,501,501,501,501,501,501,501,501,501,501,501,501,501,495,478,448,415,348,324,306,290,269,245,234,225,214,202,179,167,155,142,126,92],"timestamp_mouse":[9,34,49,69,89,109,129,150,169,189,211,229,249,270,290,310,330,350,370,389,409,429,450,469,489,510,529,551,570,592,610,630,650,670,690,709,730,749,770,789,809,829,851,870,889,909,930,950,970],"xSR":733.5,"ySR":461.5,"xT1":420.09999999999997,"yT1":0,"xT2":1046.8999999999999,"yT2":0,"toosoon":0,"cond_shown":"equaldotsize","ratio_trial":250,"smaller_num":"2","larger_num":"8","correct_side":2,"subjID":"DanielFelipeArtunduagaEscobar39","gender":"0","age":"11","school":"6"},{"start_time":15518015