[{"start_time":1551881264966,"click_time":1551881266857,"finger_time":1551881266336,"fix_duration":1483.7708909160856,"trial":0,"RT":1370,"MT":521,"sideResp":1,"stimulus":"img/500/equaldotsize/L/4_Ratio_500_L_18_R_9.png","xmouse":[772,772,772,772,772,772,772,772,772,772,772,772,772,772,772,772,772,772,772,772,772,772,772,772,772,772,772,772,772,772,772,772,772,772,772,772,772,772,772,772,772,772,772,772,772,772,772,772,772,772,772,772,772,772,772,772,772,772,772,772,772,772,772,772,772,772,773,773,739,723,712,705,701,701,701,701,700,696,696,696,696,696,696,696,696,696,696,696,696,696,696,696,696,696,501],"ymouse":[566,566,566,566,566,566,566,566,566,566,566,566,566,566,566,566,566,566,566,566,566,566,566,566,566,566,566,566,566,566,566,566,566,566,566,566,566,566,566,566,566,566,566,566,566,566,566,566,566,566,566,566,566,566,566,566,566,566,566,566,566,566,566,566,566,566,566,557,355,244,163,108,76,36,27,18,11,2,2,2,2,2,2,2,2,2,2,2,2,2,2,2,2,2,8],"timestamp_mouse":[10,46,50,70,90,110,130,150,171,191,211,231,250,270,290,310,332,351,371,391,410,431,450,471,492,511,530,550,572,590,611,631,651,672,691,710,731,750,771,790,810,830,852,872,890,911,931,951,970,992,1011,1031,1051,1070,1091,1111,1131,1152,1170,1191,1211,1231,1251,1272,1290,1311,1331,1350,1370,1390,1410,1430,1451,1470,1490,1511,1530,1550,1570,1591,1610,1630,1651,1670,1690,1712,1731,1751,1771,1791,1811,1830,1852,1871,1891],"xSR":741.5,"ySR":501.8,"xT1":424.9,"yT1":0,"xT2":1058.1,"yT2":0,"toosoon":0,"cond_shown":"equaldotsize","ratio_trial":500,"smaller_num":"9","larger_num":"18","correct_side":1,"subjID":"danielfelipebarriospacheco32","gender":"0","age":"11","school":"6","test":{"fix_dur":[250,1500],"timestim":300,"targets_dim":[100,100],"targets_relative_coord":[0.3,0.7],"size_stim":[880,420],"start_dim":[100,100],"size_start":[300,300],"size_fix":60,"samplingrate":20,"img_types":["equaldotsize","equaldotanddens","randomdotsizeEA"],"ratios":[250,500,750,900],"rep_conds":9,"nTrials":120,"trials_to_rest":500,"Trials_order":[63,111,61,21,72,18,20,87,88,76,39,110,11,48,78,98,13,79,28,15,118,81,117,35,43,91,26,64,42,8,7,14,0,55,65,67,71,49,17,6,36,69,5,52,107,112,70,29,85,47,4,104,62,50,38,2,10,119,93,16,32,115,102,99,45,1,80,37,101,33,100,34,108,46,25,41,57,23,22,82,73,68,54,106,40,113,77,84,44,27,116,92,105,51,30,83,75,89,90,74,96,58,109,95,31,60,86,66,59,19,97,12,53,9,103,3,94,114,56,24],"cond_shown":["equaldotsize","equaldotsize","equaldotanddens","equaldotsize","equaldotsize","equaldotsize","randomdotsizeEA","equaldotsize","equaldotanddens","equaldotanddens","equaldotsize","randomdotsizeEA","randomdotsizeEA","equaldotsize","equaldotsize","randomdotsizeEA","equaldotanddens","equaldotanddens","equaldotanddens","equaldotsize","equaldotanddens","equaldotsize","equaldotsize","randomdotsizeEA","equaldotanddens","equaldotanddens","randomdotsizeEA","equaldotanddens","equaldotsize","randomdotsizeEA","equaldotanddens","randomdotsizeEA","equaldotsize","equaldotanddens","randomdotsizeEA","equaldotanddens","randomdotsizeEA","equaldotanddens","randomdotsizeEA","equaldotsize","equaldotsize","equaldotsize","randomdotsizeEA","equaldotanddens","randomdotsizeEA","equaldotanddens","equaldotanddens","randomdotsizeEA","equaldotanddens","randomdotsizeEA","equaldotanddens","randomdotsizeEA","randomdotsizeEA","randomdotsizeEA","randomdotsizeEA","randomdotsizeEA","equaldotanddens","randomdotsizeEA","equaldotsize","equaldotanddens","randomdotsizeEA","equaldotanddens","equaldotsize","equaldotsize","equaldotsize","equaldotanddens","randomdotsizeEA","equaldotanddens","randomdotsizeEA","equaldotsize","equaldotanddens","equaldotanddens","equaldotsize","equaldotanddens","equaldotanddens","randomdotsizeEA","equaldotsize","randomdotsizeEA","equaldotanddens","equaldotanddens","equaldotanddens","randomdotsizeEA","equaldotsize","equaldotanddens","equaldotanddens","randomdotsizeEA","randomdotsizeEA","equaldotsize","randomdotsizeEA","equaldotsize","randomdotsizeEA","randomdotsizeEA","equaldotsize","equaldotsize","equaldotsize","randomdotsizeEA","equaldotsize","randomdotsizeEA","equaldotsize","randomdotsizeEA","equaldotsize","equaldotanddens","equaldotanddens","randomdotsizeEA","equaldotanddens","equaldotsize","randomdotsizeEA","equaldotsize","randomdotsizeEA","equaldotanddens","equaldotanddens","equaldotsize","randomdotsizeEA","equaldotsize","equaldotanddens","equaldotsize","equaldotanddens","equaldotsize","randomdotsizeEA","equaldotsize"],"ratio_trial":[500,500,250,900,250,750,750,500,500,500,500,250,900,250,750,250,250,750,500,500,900,900,900,900,750,750,250,500,750,750,750,250,250,750,500,750,900,250,500,750,250,900,500,500,900,500,900,500,250,900,500,750,250,250,250,250,900,900,900,500,750,750,750,500,900,250,750,250,500,900,500,900,250,900,250,500,900,900,900,900,250,750,750,900,500,500,500,250,750,500,750,750,900,500,750,900,500,500,750,250,250,900,250,900,750,250,250,750,900,750,250,250,500,900,750,500,900,750,750,250],"smaller_num":["9","2","6","18","3","15","18","10","10","9","9","2","18","5","6","3","6","3","10","4","9","18","18","18","3","15","2","5","6","3","6","2","4","3","9","6","18","3","10","3","2","18","9","3","18","9","9","2","6","9","4","3","5","4","3","3","9","18","18","3","6","6","15","2","18","2","3","5","1","9","10","18","3","9","2","1","18","18","18","18","2","15","9","18","4","4","2","2","3","5","15","15","18","6","3","18","2","2","15","4","4","9","4","18","6","3","3","3","18","3","2","1","5","9","12","4","9","9","9","2"],"larger_num":["18","4","24","20","12","20","24","20","20","18","18","8","20","20","8","12","24","4","20","8","10","20","20","20","4","20","8","10","8","4","8","8","16","4","18","8","20","12","20","4","8","20","18","6","20","18","10","4","24","10","8","4","20","16","12","12","10","20","20","6","8","8","20","4","20","8","4","20","2","10","20","20","12","10","8","2","20","20","20","20","8","20","12","20","8","8","4","8","4","10","20","20","20","12","4","20","4","4","20","16","16","10","16","20","8","12","12","4","20","4","8","4","10","10","16","8","10","12","12","8"],"correct_side":[1,1,1,1,2,2,1,2,2,2,2,1,1,2,1,2,2,2,2,1,2,1,1,1,1,2,1,1,2,1,1,1,1,1,1,2,2,2,2,1,1,1,2,2,2,2,2,2,1,1,1,1,2,2,2,1,2,1,2,2,2,2,2,1,1,2,1,2,2,1,2,2,2,1,1,2,2,2,2,2,1,2,2,1,1,1,2,1,1,1,2,2,1,1,1,1,1,1,2,2,1,2,1,2,1,1,2,1,2,2,1,2,1,2,2,1,2,2,2,2],"img_shown":["img/500/equaldotsize/L/4_Ratio_500_L_18_R_9.png","img/500/equaldotsize/L/5_Ratio_500_L_4_R_2.png","img/250/equaldotanddens/L/5_Ratio_250_L_24_R_6.png","img/900/equaldotsize/L/2_Ratio_900_L_20_R_18.png","img/250/equaldotsize/R/9_Ratio_250_L_3_R_12.png","img/750/equaldotsize/R/5_Ratio_750_L_15_R_20.png","img/750/randomdotsizeEA/L/6_Ratio_750_L_24_R_18.png","img/500/equaldotsize/R/3_Ratio_500_L_10_R_20.png","img/500/equaldotanddens/R/3_Ratio_500_L_10_R_20.png","img/500/equaldotanddens/R/6_Ratio_500_L_9_R_18.png","img/500/equaldotsize/R/6_Ratio_500_L_9_R_18.png","img/250/randomdotsizeEA/L/1_Ratio_250_L_8_R_2.png","img/900/randomdotsizeEA/L/4_Ratio_900_L_20_R_18.png","img/250/equaldotsize/R/12_Ratio_250_L_5_R_20.png","img/750/equaldotsize/L/13_Ratio_750_L_8_R_6.png","img/250/randomdotsizeEA/R/11_Ratio_250_L_3_R_12.png","img/250/equaldotanddens/R/6_Ratio_250_L_6_R_24.png","img/750/equaldotanddens/R/12_Ratio_750_L_3_R_4.png","img/500/equaldotanddens/R/3_Ratio_500_L_10_R_20.png","img/500/equaldotsize/L/8_Ratio_500_L_8_R_4.png","img/900/equaldotanddens/R/6_Ratio_900_L_9_R_10.png","img/900/equaldotsize/L/10_Ratio_900_L_20_R_18.png","img/900/equaldotsize/L/8_Ratio_900_L_20_R_18.png","img/900/randomdotsizeEA/L/2_Ratio_900_L_20_R_18.png","img/750/equaldotanddens/L/9_Ratio_750_L_4_R_3.png","img/750/equaldotanddens/R/5_Ratio_750_L_15_R_20.png","img/250/randomdotsizeEA/L/1_Ratio_250_L_8_R_2.png","img/500/equaldotanddens/L/7_Ratio_500_L_10_R_5.png","img/750/equaldotsize/R/2_Ratio_750_L_6_R_8.png","img/750/randomdotsizeEA/L/9_Ratio_750_L_4_R_3.png","img/750/equaldotanddens/L/13_Ratio_750_L_8_R_6.png","img/250/randomdotsizeEA/L/1_Ratio_250_L_8_R_2.png","img/250/equaldotsize/L/2_Ratio_250_L_16_R_4.png","img/750/equaldotanddens/L/10_Ratio_750_L_4_R_3.png","img/500/randomdotsizeEA/L/4_Ratio_500_L_18_R_9.png","img/750/equaldotanddens/R/2_Ratio_750_L_6_R_8.png","img/900/randomdotsizeEA/R/12_Ratio_900_L_18_R_20.png","img/250/equaldotanddens/R/4_Ratio_250_L_3_R_12.png","img/500/randomdotsizeEA/R/3_Ratio_500_L_10_R_20.png","img/750/equaldotsize/L/9_Ratio_750_L_4_R_3.png","img/250/equaldotsize/L/1_Ratio_250_L_8_R_2.png","img/900/equaldotsize/L/2_Ratio_900_L_20_R_18.png","img/500/randomdotsizeEA/R/1_Ratio_500_L_9_R_18.png","img/500/equaldotanddens/R/2_Ratio_500_L_3_R_6.png","img/900/randomdotsizeEA/R/13_Ratio_900_L_18_R_20.png","img/500/equaldotanddens/R/1_Ratio_500_L_9_R_18.png","img/900/equaldotanddens/R/3_Ratio_900_L_9_R_10.png","img/500/randomdotsizeEA/R/9_Ratio_500_L_2_R_4.png","img/250/equaldotanddens/L/5_Ratio_250_L_24_R_6.png","img/900/randomdotsizeEA/L/1_Ratio_900_L_10_R_9.png","img/500/equaldotanddens/L/8_Ratio_500_L_8_R_4.png","img/750/randomdotsizeEA/L/10_Ratio_750_L_4_R_3.png","img/250/randomdotsizeEA/R/12_Ratio_250_L_5_R_20.png","img/250/randomdotsizeEA/R/10_Ratio_250_L_4_R_16.png","img/250/randomdotsizeEA/R/11_Ratio_250_L_3_R_12.png","img/250/randomdotsizeEA/L/14_Ratio_250_L_12_R_3.png","img/900/equaldotanddens/R/5_Ratio_900_L_9_R_10.png","img/900/randomdotsizeEA/L/2_Ratio_900_L_20_R_18.png","img/900/equaldotsize/R/13_Ratio_900_L_18_R_20.png","img/500/equaldotanddens/R/2_Ratio_500_L_3_R_6.png","img/750/randomdotsizeEA/R/2_Ratio_750_L_6_R_8.png","img/750/equaldotanddens/R/2_Ratio_750_L_6_R_8.png","img/750/equaldotsize/R/4_Ratio_750_L_15_R_20.png","img/500/equaldotsize/L/10_Ratio_500_L_4_R_2.png","img/900/equaldotsize/L/4_Ratio_900_L_20_R_18.png","img/250/equaldotanddens/R/13_Ratio_250_L_2_R_8.png","img/750/randomdotsizeEA/L/10_Ratio_750_L_4_R_3.png","img/250/equaldotanddens/R/12_Ratio_250_L_5_R_20.png","img/500/randomdotsizeEA/R/12_Ratio_500_L_1_R_2.png","img/900/equaldotsize/L/1_Ratio_900_L_10_R_9.png","img/500/equaldotanddens/R/3_Ratio_500_L_10_R_20.png","img/900/equaldotanddens/R/9_Ratio_900_L_18_R_20.png","img/250/equaldotsize/R/4_Ratio_250_L_3_R_12.png","img/900/equaldotanddens/L/1_Ratio_900_L_10_R_9.png","img/250/equaldotanddens/L/3_Ratio_250_L_8_R_2.png","img/500/randomdotsizeEA/R/12_Ratio_500_L_1_R_2.png","img/900/equaldotsize/R/14_Ratio_900_L_18_R_20.png","img/900/randomdotsizeEA/R/14_Ratio_900_L_18_R_20.png","img/900/equaldotanddens/R/13_Ratio_900_L_18_R_20.png","img/900/equaldotanddens/R/14_Ratio_900_L_18_R_20.png","img/250/equaldotanddens/L/1_Ratio_250_L_8_R_2.png","img/750/randomdotsizeEA/R/5_Ratio_750_L_15_R_20.png","img/750/equaldotsize/R/15_Ratio_750_L_9_R_12.png","img/900/equaldotanddens/L/10_Ratio_900_L_20_R_18.png","img/500/equaldotanddens/L/8_Ratio_500_L_8_R_4.png","img/500/randomdotsizeEA/L/8_Ratio_500_L_8_R_4.png","img/500/randomdotsizeEA/R/9_Ratio_500_L_2_R_4.png","img/250/equaldotsize/L/7_Ratio_250_L_8_R_2.png","img/750/randomdotsizeEA/L/9_Ratio_750_L_4_R_3.png","img/500/equaldotsize/L/7_Ratio_500_L_10_R_5.png","img/750/randomdotsizeEA/R/4_Ratio_750_L_15_R_20.png","img/750/randomdotsizeEA/R/3_Ratio_750_L_15_R_20.png","img/900/equaldotsize/L/10_Ratio_900_L_20_R_18.png","img/500/equaldotsize/L/13_Ratio_500_L_12_R_6.png","img/750/equaldotsize/L/9_Ratio_750_L_4_R_3.png","img/900/randomdotsizeEA/L/4_Ratio_900_L_20_R_18.png","img/500/equaldotsize/L/5_Ratio_500_L_4_R_2.png","img/500/randomdotsizeEA/L/5_Ratio_500_L_4_R_2.png","img/750/equaldotsize/R/5_Ratio_750_L_15_R_20.png","img/250/randomdotsizeEA/R/10_Ratio_250_L_4_R_16.png","img/250/equaldotsize/L/2_Ratio_250_L_16_R_4.png","img/900/equaldotanddens/R/15_Ratio_900_L_9_R_10.png","img/250/equaldotanddens/L/2_Ratio_250_L_16_R_4.png","img/900/randomdotsizeEA/R/14_Ratio_900_L_18_R_20.png","img/750/equaldotanddens/L/13_Ratio_750_L_8_R_6.png","img/250/equaldotsize/L/14_Ratio_250_L_12_R_3.png","img/250/randomdotsizeEA/R/4_Ratio_250_L_3_R_12.png","img/750/equaldotsize/L/9_Ratio_750_L_4_R_3.png","img/900/randomdotsizeEA/R/11_Ratio_900_L_18_R_20.png","img/750/equaldotanddens/R/12_Ratio_750_L_3_R_4.png","img/250/equaldotanddens/L/7_Ratio_250_L_8_R_2.png","img/250/equaldotsize/R/8_Ratio_250_L_1_R_4.png","img/500/randomdotsizeEA/L/7_Ratio_500_L_10_R_5.png","img/900/equaldotsize/R/7_Ratio_900_L_9_R_10.png","img/750/equaldotanddens/R/11_Ratio_750_L_12_R_16.png","img/500/equaldotsize/L/8_Ratio_500_L_8_R_4.png","img/900/equaldotanddens/R/7_Ratio_900_L_9_R_10.png","img/750/equaldotsize/R/15_Ratio_750_L_9_R_12.png","img/750/randomdotsizeEA/R/15_Ratio_750_L_9_R_12.png","img/250/equaldotsize/R/13_Ratio_250_L_2_R_8.png"],"Rat0":[["12_Ratio_0_L_9_R_0.png","13_Ratio_0_L_6_R_0.png","5_Ratio_0_L_2_R_0.png","6_Ratio_0_L_4_R_0.png","8_Ratio_0_L_6_R_0.png"],["1_Ratio_0_L_0_R_17.png","10_Ratio_0_L_0_R_22.png","11_Ratio_0_L_0_R_1.png","14_Ratio_0_L_0_R_24.png","15_Ratio_0_L_0_R_4.png","2_Ratio_0_L_0_R_5.png","3_Ratio_0_L_0_R_17.png","4_Ratio_0_L_0_R_7.png","7_Ratio_0_L_0_R_19.png","9_Ratio_0_L_0_R_15.png"]],"Rat250":[["1_Ratio_250_L_8_R_2.png","14_Ratio_250_L_12_R_3.png","15_Ratio_250_L_12_R_3.png","2_Ratio_250_L_16_R_4.png","3_Ratio_250_L_8_R_2.png","5_Ratio_250_L_24_R_6.png","7_Ratio_250_L_8_R_2.png"],["10_Ratio_250_L_4_R_16.png","11_Ratio_250_L_3_R_12.png","12_Ratio_250_L_5_R_20.png","13_Ratio_250_L_2_R_8.png","4_Ratio_250_L_3_R_12.png","6_Ratio_250_L_6_R_24.png","8_Ratio_250_L_1_R_4.png","9_Ratio_250_L_3_R_12.png"]],"Rat500":[["10_Ratio_500_L_4_R_2.png","11_Ratio_500_L_12_R_6.png","13_Ratio_500_L_12_R_6.png","4_Ratio_500_L_18_R_9.png","5_Ratio_500_L_4_R_2.png","7_Ratio_500_L_10_R_5.png","8_Ratio_500_L_8_R_4.png"],["1_Ratio_500_L_9_R_18.png","12_Ratio_500_L_1_R_2.png","14_Ratio_500_L_5_R_10.png","15_Ratio_500_L_1_R_2.png","2_Ratio_500_L_3_R_6.png","3_Ratio_500_L_10_R_20.png","6_Ratio_500_L_9_R_18.png","9_Ratio_500_L_2_R_4.png"]],"Rat750":[["1_Ratio_750_L_20_R_15.png","10_Ratio_750_L_4_R_3.png","13_Ratio_750_L_8_R_6.png","14_Ratio_750_L_8_R_6.png","6_Ratio_750_L_24_R_18.png","8_Ratio_750_L_4_R_3.png","9_Ratio_750_L_4_R_3.png"],["11_Ratio_750_L_12_R_16.png","12_Ratio_750_L_3_R_4.png","15_Ratio_750_L_9_R_12.png","2_Ratio_750_L_6_R_8.png","3_Ratio_750_L_15_R_20.png","4_Ratio_750_L_15_R_20.png","5_Ratio_750_L_15_R_20.png","7_Ratio_750_L_3_R_4.png"]],"Rat900":[["1_Ratio_900_L_10_R_9.png","10_Ratio_900_L_20_R_18.png","2_Ratio_900_L_20_R_18.png","4_Ratio_900_L_20_R_18.png","8_Ratio_900_L_20_R_18.png"],["11_Ratio_900_L_18_R_20.png","12_Ratio_900_L_18_R_20.png","13_Ratio_900_L_18_R_20.png","14_Ratio_900_L_18_R_20.png","15_Ratio_900_L_9_R_10.png","3_Ratio_900_L_9_R_10.png","5_Ratio_900_L_9_R_10.png","6_Ratio_900_L_9_R_10.png","7_Ratio_900_L_9_R_10.png","9_Ratio_900_L_18_R_20.png"]],"Rat1000":[["10_Ratio_1000_L_16_R_16.png","11_Ratio_1000_L_6_R_6.png","12_Ratio_1000_L_14_R_14.png","13_Ratio_1000_L_20_R_20.png","15_Ratio_1000_L_15_R_15.png","2_Ratio_1000_L_17_R_17.png","4_Ratio_1000_L_9_R_9.png","5_Ratio_1000_L_6_R_6.png","6_Ratio_1000_L_19_R_19.png","8_Ratio_1000_L_14_R_14.png","9_Ratio_1000_L_25_R_25.png"],["1_Ratio_1000_L_1_R_1.png","14_Ratio_1000_L_17_R_17.png","3_Ratio_1000_L_17_R_17.png","7_Ratio_1000_L_6_R_6.png"]]}},{"start_time":1551881267728,"click_time":1551881269236,"finger_time":1551881268636,"fix_duration":250,"trial":1,"RT":908,"MT":600,"sideResp":1,"stimulus":"img/500/equaldotsize/L/5_Ratio_500_L_4_R_2.png","xmouse":[793,793,793,793,793,793,793,793,793,793,793,793,793,793,793,793,793,793,793,793,793,793,793,793,793,793,793,793,793,793,793,793,793,793,793,793,793,793,793,793,793,793,788,776,751,675,669,675,675,675,675,675,675,675,675,675,675,675,675,675,675,608,598,584,575,572,570,567,561,552,540,540,539,537,534,506],"ymouse":[538,538,538,538,538,538,538,538,538,538,538,538,538,538,538,538,538,538,538,538,538,538,538,538,538,538,538,538,538,538,538,538,538,538,538,538,538,538,538,538,538,533,528,512,483,302,139,49,49,49,49,49,49,49,49,49,49,49,49,49,49,4,8,14,18,19,19,21,23,27,34,34,34,34,35,38],"timestamp_mouse":[8,37,49,69,90,109,128,148,168,190,208,230,248,270,288,309,330,349,368,389,409,430,449,469,490,508,529,548,568,588,610,629,649,668,690,708,728,748,769,789,808,828,848,868,888,908,928,948,969,989,1008,1028,1048,1069,1088,1108,1129,1148,1168,1189,1208,1228,1248,1268,1289,1309,1328,1348,1368,1388,1408,1429,1449,1468,1488,1508],"xSR":741.5,"ySR":469.95,"xT1":424.9,"yT1":0,"xT2":1058.1,"yT2":0,"toosoon":0,"cond_shown":"equaldotsize","ratio_trial":500,"smaller_num":"2","larger_num":"4","correct_side":1,"subjID":"danielfelipebarriospacheco32","gender":"0","age":"11","school":"6"},{"start_time":1551881270704,"click_time":1551881271817,"finger_time":1551881271336,"fix_duration":626.8019396673564,"trial":2,"RT":632,"MT":481,"sideResp":1,"stimulus":"img/250/equaldotanddens/L/5_Ratio_250_L_24_R_6.png","xmouse":[776,776,776,776,776,776,776,776,776,776,776,776,776,776,776,776,776,776,776,776,776,776,776,776,776,776,776,776,776,776,776,752,728,716,715,715,715,715,715,715,715,712,697,679,658,633,596,579,552,542,536,531,531,529,527,522],"ymouse":[513,513,513,513,513,513,513,513,513,513,513,513,513,513,513,513,513,513,513,513,513,513,513,513,513,513,513,513,513,513,512,412,326,265,223,194,183,183,183,183,183,179,168,158,146,136,123,116,104,98,95,91,91,91,89,86],"timestamp_mouse":[13,32,53,82,92,112,132,154,172,192,212,232,252,272,293,312,333,353,372,392,412,433,452,474,492,512,533,553,574,592,612,632,653,672,692,713,732,753,773,793,814,833,852,872,892,912,932,952,973,994,1012,1032,1052,1072,1093,1113],"xSR":741.5,"ySR":469.95,"xT1":424.9,"yT1":0,"xT2":1058.1,"yT2":0,"toosoon":0,"cond_shown":"equaldotanddens","ratio_trial":250,"smaller_num":"6","larger_num":"24","correct_side":1,"subjID":"danielfelipebarriospacheco32","gender":"0","age":"11","school":"6"},{"start_time":1551881274067,"click_time":1551881275457,"finger_time":1551881274916,"fix_duration":250,"trial":3,"RT":849,"MT":541,"sideResp":2,"stimulus":"img/900/equaldotsize/L/2_Ratio_900_L_20_R_18.png","xmouse":[794,794,794,794,794,794,794,794,794,794,794,794,794,794,794,794,794,794,794,794,794,794,794,794,794,794,794,794,794,794,794,794,794,794,794,794,794,794,794,794,798,819,866,994,1058,1100,1130,1146,1160,1162,1163,1165,1167,1168,1166,1159,1151,1144,1135,1132,1132,1132,1132,1131,1130,1129,1129,1129,1127,1122],"ymouse":[544,544,544,544,544,544,544,544,544,544,544,544,544,544,544,544,544,544,544,544,544,544,544,544,544,544,544,544,544,544,544,544,544,544,544,544,544,544,544,544,544,532,518,482,465,444,425,410,387,377,373,369,361,327,298,275,255,235,197,173,144,130,123,117,114,112,112,111,107,98],"timestamp_mouse":[9,29,50,71,89,109,129,149,170,191,210,229,249,270,291,309,330,350,371,391,409,430,449,469,489,509,530,549,569,589,610,631,649,669,690,709,730,750,770,790,809,829,849,869,889,909,929,949,969,990,1009,1030,1049,1070,1089,1109,1130,1151,1169,1191,1209,1229,1250,1270,1290,1310,1329,1350,1369,1389],"xSR":741.5,"ySR":469.95,"xT1":424.9,"yT1":0,"xT2":1058.1,"yT2":0,"toosoon":0,"cond_shown":"equaldotsize","ratio_trial":900,"smaller_num":"18","larger_num":"20","correct_side":1,"subjID":"danielfelipebarriospacheco32","gender":"0","age":"11","school":"6"},{"start_time":1551881277000,"click_time":1551881278036,"finger_time":1551881277618,"fix_duration":363.9515721174188,"trial":4,"RT":618,"MT":418,"sideResp":2,"stimulus":"img/250/equaldotsize/R/9_Ratio_250_L_3_R_12.png","xmouse":[769,769,769,769,769,769,769,769,769,769,769,769,769,769,769,769,769,769,769,769,769,769,769,769,769,769,769,771,777,794,809,823,831,840,855,887,969,991,1000,1005,1008,1014,1024,1044,1059,1070,1074,1074,1074,1074,1074,1076],"ymouse":[495,495,495,495,495,495,495,495,495,495,495,495,495,495,495,495,495,495,495,495,495,495,495,495,495,495,495,494,488,471,456,429,405,385,362,322,249,232,222,215,210,205,197,180,166,150,133,129,126,123,117,94],"timestamp_mouse":[18,41,56,76,96,116,137,156,177,197,217,236,256,276,296,316,337,357,376,396,416,436,456,476,497,516,536,556,576,596,618,636,657,676,696,716,736,757,777,797,816,837,856,876,898,918,936,957,976,996,1016,1036],"xSR":741.5,"ySR":469.95,"xT1":424.9,"yT1":0,"xT2":1058.1,"yT2":0,"toosoon":0,"cond_shown":"equaldotsize","ratio_trial":250,"smaller_num":"3","larger_num":"12","correct_side":2,"subjID":"danielfelipebarriospacheco32","gender":"0","age":"11","school":"6"},{"start_time":1551881279129,"click_time":1551881280557,"finger_time":1551881280136,"fix_duration":250,"trial":5,"RT":1007,"MT":421,"sideResp":2,"stimulus":"img/750/equaldotsize/R/5_Ratio_750_L_15_R_20.png","xmouse":[807,807,807,807,807,807,807,807,807,807,807,807,807,807,807,807,807,807,807,807,807,807,807,807,807,807,807,807,807,807,807,807,807,807,807,807,807,807,807,807,807,807,811,814,816,816,816,816,816,817,827,844,877,923,964,1013,1020,1020,1020,1020,1029,1037,1038,1038,1038,1038,1041,1048,1057,1068,1087,1089],"ymouse":[483,483,483,483,483,483,483,483,483,483,483,483,483,483,483,483,483,483,483,483,483,483,483,483,483,483,483,483,483,483,483,483,483,483,483,483,483,483,483,483,483,482,479,475,473,473,473,473,473,473,459,442,415,376,347,307,299,298,292,278,232,218,214,214,214,206,186,168,150,133,105,99],"timestamp_mouse":[8,28,54,68,87,107,127,147,167,187,208,228,249,267,287,307,329,347,367,387,409,428,448,468,488,508,527,548,567,587,607,627,647,668,687,707,728,747,768,787,807,827,848,867,887,908,928,947,968,987,1007,1029,1047,1067,1088,1108,1127,1147,1167,1189,1208,1228,1247,1268,1288,1307,1328,1347,1368,1388,1408,1428],"xSR":741.5,"ySR":469.95,"xT1":424.9,"yT1":0,"xT2":1058.1,"yT2":0,"toosoon":0,"cond_shown":"equaldotsize","ratio_trial":750,"smaller_num":"15","larger_num":"20","correct_side":2,"subjID":"danielfelipebarriospacheco32","gender":"0","age":"11","school":"6"},{"start_time":1551881284412,"click_time":1551881286497,"finger_time":1551881285837,"fix_duration":1393.2503534077478,"trial":6,"RT":1425,"MT":660,"sideResp":1,"stimulus":"img/750/randomdotsizeEA/L/6_Ratio_750_L_24_R_18.png","xmouse":[763,763,763,763,763,763,763,763,763,763,763,763,763,763,763,763,763,763,763,763,763,763,763,763,763,763,763,763,763,763,763,763,763,763,763,763,763,763,763,763,763,763,763,763,763,763,763,763,763,764,766,798,821,825,825,825,825,825,825,825,825,825,825,825,825,825,825,825,825,822,819,809,800,790,780,770,747,735,720,704,687,656,642,615,601,589,571,564,559,556,556,556,556,556,556,556,556,556,556,556,556,556,549,535,516],"ymouse":[542,542,542,542,542,542,542,542,542,542,542,542,542,542,542,542,542,542,542,542,542,542,542,542,542,542,542,542,542,542,542,542,542,542,542,542,542,542,542,542,542,542,542,542,542,542,542,542,542,540,538,519,503,500,500,500,500,500,500,500,500,500,500,500,500,500,500,496,494,489,483,467,453,441,430,416,391,376,360,341,319,281,263,224,196,162,103,78,59,48,46,46,46,46,46,46,46,46,46,46,46,46,45,45,42],"timestamp_mouse":[11,24,52,65,84,104,125,144,164,185,204,224,245,265,285,305,324,344,366,385,405,424,444,466,485,505,525,544,565,584,604,625,644,666,684,704,725,745,766,784,804,825,845,864,884,904,925,945,965,984,1004,1025,1044,1065,1084,1105,1125,1144,1164,1184,1204,1226,1245,1264,1284,1306,1324,1344,1364,1384,1404,1425,1444,1464,1484,1504,1524,1544,1565,1584,1605,1624,1644,1664,1685,1704,1725,1744,1765,1785,1805,1825,1844,1866,1884,1904,1925,1944,1964,1984,2004,2024,2045,2064,2085],"xSR":741.5,"ySR":469.95,"xT1":424.9,"yT1":0,"xT2":1058.1,"yT2":0,"toosoon":0,"cond_shown":"randomdotsizeEA","ratio_trial":750,"smaller_num":"18","larger_num":"24","correct_side":1,"subjID":"danielfelipebarriospacheco32","gender":"0","age":"11","school":"6"},{"start_time":1551881288105,"click_time":1551881289216,"finger_time":1551881288836,"fix_duration":667.5577965981838,"trial":7,"RT":731,"MT":380,"sideResp":2,"stimulus":"img/500/equaldotsize/R/3_Ratio_500_L_10_R_20.png","xmouse":[780,780,780,780,780,780,780,780,780,780,781,781,781,781,781,781,781,781,781,781,781,781,781,781,781,781,781,781,781,781,781,781,781,784,787,802,840,872,936,974,995,1020,1030,1039,1048,1060,1081,1096,1105,1111,1118,1129,1132,1135,1139,1142],"ymouse":[515,515,515,510,507,506,506,506,506,505,503,503,503,503,503,503,503,503,503,503,503,503,503,503,503,503,503,503,503,503,503,503,503,500,498,487,460,442,410,395,378,344,329,314,298,281,242,212,193,177,160,140,131,122,107,91],"timestamp_mouse":[11,44,51,72,91,112,133,152,172,192,213,233,252,273,292,311,332,353,372,392,413,432,451,472,492,511,533,551,572,591,612,631,653,672,691,711,731,751,771,792,811,832,851,872,891,912,931,952,972,992,1011,1031,1052,1072,1092,1111],"xSR":741.5,"ySR":469.95,"xT1":424.9,"yT1":0,"xT2":1058.1,"yT2":0,"toosoon":0,"cond_shown":"equaldotsize","ratio_trial":500,"smaller_num":"10","larger_num":"20","correct_side":2,"subjID":"danielfelipebarriospacheco32","gender":"0","age":"11","school":"6"},{"start_time":1551881290315,"click_time":1551881291616,"finger_time":1551881291076,"fix_duration":478.8179045324136,"trial":8,"RT":761,"MT":540,"sideResp":2,"stimulus":"img/500/equaldotanddens/R/3_Ratio_500_L_10_R_20.png","xmouse":[802,802,802,802,802,802,802,802,802,802,802,802,802,802,802,802,802,802,802,802,802,802,802,802,802,802,802,802,802,802,802,802,802,802,802,802,805,814,869,908,928,931,931,929,929,931,945,956,975,989,1004,1055,1086,1104,1110,1112,1115,1116,1115,1109,1099,1083,1083,1081,1078,1075],"ymouse":[550,550,550,550,550,550,550,550,550,550,550,550,550,550,550,550,550,550,550,550,550,550,550,550,550,550,550,550,550,550,550,550,550,550,550,550,546,541,509,487,474,466,460,455,448,433,383,356,323,305,287,239,215,198,192,189,178,160,148,135,121,110,110,108,104,99],"timestamp_mouse":[9,20,41,69,82,101,120,142,161,181,201,221,242,262,281,300,320,342,360,382,400,421,442,462,480,501,522,541,562,580,600,621,641,661,682,700,721,742,761,781,801,821,840,860,880,901,921,941,961,980,1001,1020,1041,1061,1082,1101,1120,1141,1161,1181,1200,1220,1241,1261,1282,1301],"xSR":741.5,"ySR":469.95,"xT1":424.9,"yT1":0,"xT2":1058.1,"yT2":0,"toosoon":0,"cond_shown":"equaldotanddens","ratio_trial":500,"smaller_num":"10","larger_num":"20","correct_side":2,"subjID":"danielfelipebarriospacheco32","gender":"0","age":"11","school":"6"},{"start_time":1551881293164,"click_time":1551881294136,"finger_time":1551881293855,"fix_duration":745.7493015960125,"trial":9,"RT":691,"MT":281,"sideResp":2,"stimulus":"img/500/equaldotanddens/R/6_Ratio_500_L_9_R_18.png","xmouse":[782,782,782,782,782,782,782,782,782,782,782,782,782,782,782,782,782,782,782,782,782,782,782,782,782,782,782,782,782,782,782,784,786,798,812,830,846,869,920,952,978,994,1007,1022,1029,1040,1051,1062,1079],"ymouse":[502,502,502,502,502,502,502,502,502,502,502,502,502,502,502,502,502,502,502,502,502,502,502,502,502,502,502,502,502,502,502,502,499,482,459,435,413,383,309,262,226,205,190,171,161,146,130,110,80],"timestamp_mouse":[11,44,52,73,92,112,132,152,172,192,212,233,252,272,291,312,333,352,372,392,412,432,451,473,491,511,533,553,572,592,612,632,652,672,691,712,733,752,773,793,812,831,853,872,892,911,931,952,972],"xSR":741.5,"ySR":469.95,"xT1":424.9,"yT1":0,"xT2":1058.1,"yT2":0,"toosoon":0,"cond_shown":"equaldotanddens","ratio_trial":500,"smaller_num":"9","larger_num":"18","correct_side":2,"subjID":"danielfelipebarriospacheco32","gender":"0","age":"11","school":"6"},{"start_time":1551881295343,"click_time":1551881296296,"finger_time":1551881295955,"fix_duration":306.55916404869043,"trial":10,"RT":612,"MT":341,"sideResp":2,"stimulus":"img/500/equaldotsize/R/6_Ratio_500_L_9_R_18.png","xmouse":[800,800,800,800,800,800,800,800,800,800,800,800,800,800,800,800,800,800,800,800,800,800,800,800,800,800,800,801,804,825,843,867,893,920,961,989,1008,1025,1043,1059,1061,1062,1062,1062,1063,1068,1079,1090],"ymouse":[532,532,532,532,532,532,532,532,532,532,532,532,532,532,532,532,532,532,532,532,532,533,533,533,534,534,534,534,534,519,506,489,469,446,405,363,332,300,268,226,212,198,189,182,158,138,101,77],"timestamp_mouse":[12,40,53,73,94,114,133,154,172,193,212,233,253,272,294,313,332,353,373,393,413,433,454,473,493,513,533,554,573,592,612,632,653,674,693,713,732,753,772,792,813,832,853,874,893,914,933,952],"xSR":741.5,"ySR":469.95,"xT1":424.9,"yT1":0,"xT2":1058.1,"yT2":0,"toosoon":0,"cond_shown":"equaldotsize","ratio_trial":500,"smaller_num":"9","larger_num":"18","correct_side":2,"subjID":"danielfelipebarriospacheco32","gender":"0","age":"11","school":"6"},{"start_time":1551881297523,"click_time":1551881299595,"finger_time":1551881299235,"fix_duration":586.2774581876946,"trial":11,"RT":1712,"MT":360,"sideResp":1,"stimulus":"img/250/randomdotsizeEA/L/1_Ratio_250_L_8_R_2.png","xmouse":[795,795,795,795,795,795,795,795,795,795,795,795,795,795,795,795,795,795,795,795,795,795,795,795,795,795,795,795,795,795,795,795,795,795,795,795,795,795,795,795,795,795,795,795,795,795,795,795,795,795,795,795,795,794,793,789,785,783,782,782,781,780,780,780,780,780,780,780,780,780,780,780,780,780,780,780,780,780,780,780,780,780,780,780,780,757,745,698,660,578,548,525,507,502,498,496,489,483,480,478,474,473,472,469],"ymouse":[547,547,547,547,547,547,547,547,547,547,547,547,547,547,547,547,547,547,547,547,547,547,547,547,547,547,547,547,547,547,547,547,547,547,547,547,547,547,547,547,547,547,547,547,547,547,547,547,547,547,547,546,544,541,537,529,523,520,518,517,516,515,515,515,515,515,515,515,515,515,515,515,515,515,515,515,515,515,515,515,515,515,515,515,510,464,442,372,324,246,228,213,200,192,186,178,166,157,151,146,126,114,102,85],"timestamp_mouse":[17,44,53,73,93,112,133,152,174,193,213,233,253,273,293,313,333,353,372,394,413,432,454,472,493,513,532,554,573,593,614,633,653,674,693,712,732,754,773,793,813,833,853,872,892,913,933,953,973,992,1012,1033,1053,1073,1094,1113,1132,1152,1172,1193,1213,1233,1252,1273,1293,1313,1333,1353,1373,1393,1413,1432,1454,1473,1494,1513,1533,1553,1572,1592,1614,1632,1654,1674,1692,1712,1734,1753,1773,1795,1813,1833,1852,1873,1894,1913,1933,1952,1973,1993,2013,2033,2054,2072],"xSR":741.5,"ySR":469.95,"xT1":424.9,"yT1":0,"xT2":1058.1,"yT2":0,"toosoon":0,"cond_shown":"randomdotsizeEA","ratio_trial":250,"smaller_num":"2","larger_num":"8","correct_side":1,"subjID":"danielfelipebarriospacheco32","gender":"0","age":"11","school":"6"},{"start_time":1551881301868,"click_time":1551881303395,"finger_time":1551881303076,"fix_duration":1431.6973043850724,"trial":12,"RT":1208,"MT":319,"sideResp":2,"stimulus":"img/900/randomdotsizeEA/L/4_Ratio_900_L_20_R_18.png","xmouse":[811,811,811,811,811,811,811,811,811,811,811,811,811,811,811,811,811,811,811,811,811,811,811,811,811,811,811,811,811,811,811,811,811,811,811,811,811,811,811,811,811,811,811,811,811,811,811,811,811,811,811,811,811,811,811,811,811,811,812,829,852,884,917,944,946,948,951,957,986,1012,1033,1039,1041,1049,1057,1066,1079],"ymouse":[522,522,522,522,522,522,522,522,522,522,522,522,522,522,522,522,522,522,522,522,522,522,522,522,522,522,522,522,522,522,522,522,522,522,522,522,522,522,522,522,522,522,522,522,522,522,522,522,522,522,522,522,522,522,522,522,522,522,513,487,460,425,397,363,351,337,323,306,253,219,188,175,165,137,120,102,78],"timestamp_mouse":[11,27,48,68,87,108,127,148,169,189,208,229,249,269,288,308,327,349,368,387,407,428,449,469,487,508,528,549,567,588,609,628,647,668,688,708,727,749,769,787,809,828,849,867,889,908,929,947,967,988,1009,1028,1049,1067,1089,1109,1128,1149,1168,1187,1208,1229,1247,1267,1288,1308,1327,1347,1367,1388,1408,1429,1449,1468,1489,1507,1527],"xSR":741.5,"ySR":469.95,"xT1":424.9,"yT1":0,"xT2":1058.1,"yT2":0,"toosoon":0,"cond_shown":"randomdotsizeEA","ratio_trial":900,"smaller_num":"18","larger_num":"20","correct_side":1,"subjID":"danielfelipebarriospacheco32","gender":"0","age":"11","school":"6"},{"start_time":1551881304561,"click_time":1551881305716,"finger_time":1551881305335,"fix_duration":323.08238522167744,"trial":13,"RT":774,"MT":381,"sideResp":2,"stimulus":"img/250/equaldotsize/R/12_Ratio_250_L_5_R_20.png","xmouse":[809,809,809,809,809,809,809,809,809,809,809,809,809,809,809,809,809,809,809,809,809,809,809,809,809,809,809,809,809,809,809,809,809,809,809,809,814,820,840,857,884,911,929,949,956,957,960,965,982,993,1005,1015,1023,1031,1036,1042,1052,1069],"ymouse":[530,530,530,530,530,530,530,530,530,530,530,530,530,530,530,530,530,530,530,530,530,530,530,530,530,530,530,530,530,530,530,530,530,530,530,526,514,500,467,443,408,377,351,318,302,292,281,268,236,218,199,181,164,140,124,108,86,62],"timestamp_mouse":[15,34,56,76,96,114,135,155,174,195,214,235,256,275,295,316,335,356,374,396,415,435,455,476,494,515,535,554,576,595,616,635,655,675,695,715,735,755,774,794,814,834,855,875,896,915,934,955,975,996,1015,1036,1055,1074,1094,1115,1136,1155],"xSR":741.5,"ySR":469.95,"xT1":424.9,"yT1":0,"xT2":1058.1,"yT2":0,"toosoon":0,"cond_shown":"equaldotsize","ratio_trial":250,"smaller_num":"5","larger_num":"20","correct_side":2,"subjID":"danielfelipebarriospacheco32","gender":"0","age":"11","school":"6"},{"start_time":1551881307328,"click_time":1551881308536,"finger_time":1551881308136,"fix_duration":590.3907993667407,"trial":14,"RT":808,"MT":400,"sideResp":1,"stimulus":"img/750/equaldotsize/L/13_Ratio_750_L_8_R_6.png","xmouse":[803,803,803,803,803,803,803,803,803,803,803,803,803,803,803,803,803,803,803,803,803,803,803,803,803,803,803,803,803,803,803,803,803,803,803,803,803,796,787,773,754,743,725,705,683,621,566,529,502,480,455,445,437,432,430,427,426,425,425,426,446],"ymouse":[525,525,525,525,525,525,525,525,525,525,525,525,525,525,525,525,525,525,525,525,525,525,525,525,525,525,525,525,525,525,525,525,525,525,525,525,525,519,506,487,466,457,445,432,419,385,356,334,317,300,271,257,241,226,214,200,195,184,165,142,88],"timestamp_mouse":[8,28,48,69,88,107,127,148,169,188,208,227,249,267,288,308,328,349,367,388,407,428,447,468,488,509,527,548,569,588,608,629,649,669,688,708,729,748,769,787,808,827,848,868,888,907,928,947,967,988,1008,1028,1049,1067,1089,1107,1128,1148,1167,1187,1208],"xSR":741.5,"ySR":469.95,"xT1":424.9,"yT1":0,"xT2":1058.1,"yT2":0,"toosoon":0,"cond_shown":"equaldotsize","ratio_trial":750,"smaller_num":"6","larger_num":"8","correct_side":1,"subjID":"danielfelipebarriospacheco32","gender":"0","age":"11","school":"6"},{"start_time":1551881310767,"click_time":1551881312197,"finger_time":1551881311676,"fix_duration":1388.0050324472666,"trial":15,"RT":909,"MT":521,"sideResp":2,"stimulus":"img/250/randomdotsizeEA/R/11_Ratio_250_L_3_R_12.png","xmouse":[757,757,757,757,757,757,757,757,757,757,757,757,757,757,757,757,757,757,757,757,757,757,757,757,757,757,757,757,757,757,757,757,757,757,757,757,758,758,759,759,760,763,765,776,785,810,836,860,901,914,922,932,946,986,1007,1012,1014,1015,1019,1028,1046,1066,1066,1066,1066,1066,1066,1066,1066,1066,1116,1119],"ymouse":[506,506,506,506,506,506,506,506,506,506,506,506,506,506,506,506,506,506,506,506,506,506,506,506,506,506,506,506,506,506,506,506,506,506,506,506,506,506,506,506,506,506,504,491,478,446,409,374,317,295,276,252,220,156,125,116,112,109,97,73,34,0,0,0,0,0,0,0,0,0,0,7],"timestamp_mouse":[8,39,50,70,89,109,129,149,169,188,208,229,249,268,289,309,329,349,368,389,409,429,449,470,489,509,529,549,569,589,610,628,648,669,689,709,728,749,770,788,809,829,848,869,889,909,929,950,968,988,1009,1029,1050,1069,1090,1109,1128,1148,1169,1189,1208,1228,1248,1269,1289,1310,1329,1349,1368,1390,1410,1430],"xSR":741.5,"ySR":469.95,"xT1":424.9,"yT1":0,"xT2":1058.1,"yT2":0,"toosoon":0,"cond_shown":"randomdotsizeEA","ratio_trial":250,"smaller_num":"3","larger_num":"12","correct_side":2,"subjID":"danielfelipebarriospacheco32","gender":"0","age":"11","school":"6"},{"start_time":1551881313296,"click_time":1551881314476,"finger_time":1551881313997,"fix_duration":258.36318280934,"trial":16,"RT":701,"MT":479,"sideResp":2,"stimulus":"img/250/equaldotanddens/R/6_Ratio_250_L_6_R_24.png","xmouse":[775,775,775,778,779,781,782,783,783,784,784,784,784,784,784,784,784,784,785,785,785,785,785,785,785,785,785,785,785,785,785,785,788,800,830,881,947,1091,1168,1185,1188,1188,1188,1187,1185,1183,1181,1178,1178,1178,1178,1178,1178,1178,1178,1178,1178,1177,1171,1152],"ymouse":[565,565,565,563,562,561,560,560,560,560,560,558,558,557,557,557,557,557,557,557,557,557,557,557,557,557,557,557,557,557,557,557,552,531,489,425,347,178,78,54,47,44,39,35,31,24,22,19,19,19,19,19,19,19,19,19,19,19,22,45],"timestamp_mouse":[11,21,41,61,80,100,119,141,160,179,200,219,241,260,280,301,321,340,360,380,400,420,439,460,480,500,521,541,559,580,600,620,639,660,681,701,719,739,760,779,799,819,839,860,880,901,920,940,959,980,1000,1021,1040,1060,1081,1099,1120,1140,1160,1180],"xSR":741.5,"ySR":469.95,"xT1":424.9,"yT1":0,"xT2":1058.1,"yT2":0,"toosoon":0,"cond_shown":"equaldotanddens","ratio_trial":250,"smaller_num":"6","larger_num":"24","correct_side":2,"subjID":"danielfelipebarriospacheco32","gender":"0","age":"11","school":"6"},{"start_time":1551881317003,"click_time":1551881317936,"finger_time":1551881317756,"fix_duration":1426.7562391615497,"trial":17,"RT":753,"MT":180,"sideResp":2,"stimulus":"img/750/equaldotanddens/R/12_Ratio_750_L_3_R_4.png","xmouse":[783,783,783,783,783,783,783,783,783,783,783,783,783,783,783,783,783,783,783,783,783,783,783,784,784,784,784,784,784,784,784,784,784,784,784,789,803,810,821,840,860,891,920,944,973,1007,1095],"ymouse":[529,529,529,529,529,529,529,529,529,529,529,529,529,529,529,529,529,529,529,529,529,529,529,529,529,529,529,529,529,529,529,529,529,527,522,508,481,466,443,411,383,340,298,265,224,174,49],"timestamp_mouse":[14,40,54,73,92,113,132,152,174,194,212,232,254,273,293,313,334,353,372,393,414,433,452,473,494,512,532,553,573,594,613,633,653,673,694,714,734,753,773,794,813,832,852,872,894,913,933],"xSR":741.5,"ySR":469.95,"xT1":424.9,"yT1":0,"xT2":1058.1,"yT2":0,"toosoon":0,"cond_shown":"equaldotanddens","ratio_trial":750,"smaller_num":"3","larger_num":"4","correct_side":2,"subjID":"danielfelipebarriospacheco32","gender":"0","age":"11","school":"6"},{"start_time":1551881319969,"click_time":1551881321016,"finger_time":1551881320597,"fix_duration":1311.939239851355,"trial":18,"RT":628,"MT":419,"sideResp":2,"stimulus":"img/500/equaldotanddens/R/3_Ratio_500_L_10_R_20.png","xmouse":[762,762,762,762,762,762,762,762,762,762,762,762,762,762,762,762,762,762,762,762,762,762,762,762,762,762,762,762,762,769,788,837,912,1103,1196,1196,1196,1196,1196,1196,1196,1196,1196,1196,1196,1196,1196,1196,1196,1178,1172,1163,1158],"ymouse":[519,519,519,518,518,518,518,518,518,518,518,518,518,518,518,518,518,518,518,518,518,518,518,518,518,518,518,518,518,513,486,422,329,111,2,2,2,2,2,2,2,2,2,2,2,2,2,2,2,9,17,29,35],"timestamp_mouse":[10,34,47,68,87,107,128,146,167,187,207,227,247,267,287,307,327,347,366,388,406,428,448,466,487,507,526,547,568,586,607,628,646,666,687,707,727,746,767,787,807,828,847,866,887,907,927,947,968,987,1007,1026,1046],"xSR":741.5,"ySR":469.95,"xT1":424.9,"yT1":0,"xT2":1058.1,"yT2":0,"toosoon":0,"cond_shown":"equaldotanddens","ratio_trial":500,"smaller_num":"10","larger_num":"20","correct_side":2,"subjID":"danielfelipebarriospacheco32","gender":"0","age":"11","school":"6"},{"start_time":1551881323407,"click_time":1551881324736,"finger_time":1551881324356,"fix_duration":1269.4385565670877,"trial":19,"RT":949,"MT":380,"sideResp":1,"stimulus":"img/500/equaldotsize/L/8_Ratio_500_L_8_R_4.png","xmouse":[831,831,831,831,831,831,831,831,831,831,831,831,831,831,831,831,831,831,831,831,831,831,831,831,831,831,831,831,831,831,831,831,831,831,831,831,831,831,831,831,831,831,831,829,823,807,753,696,619,527,437,295,244,226,220,218,206,200,196,192,188,189,205,226,254,289,432],"ymouse":[517,517,517,517,517,517,517,517,517,517,517,517,517,517,517,517,517,517,517,517,517,517,517,517,517,517,517,517,517,517,517,517,517,517,517,517,517,517,517,517,517,517,517,516,513,510,510,510,507,493,480,466,470,474,474,473,435,404,372,341,315,268,232,202,172,141,32],"timestamp_mouse":[9,29,50,68,90,110,129,148,168,188,209,229,250,270,290,308,330,349,369,389,409,429,448,468,490,508,528,549,569,589,610,628,648,669,690,708,729,750,770,790,809,829,850,869,890,908,928,949,970,989,1010,1029,1049,1069,1090,1109,1129,1148,1169,1188,1209,1230,1249,1269,1289,1309,1329],"xSR":741.5,"ySR":469.95,"xT1":424.9,"yT1":0,"xT2":1058.1,"yT2":0,"toosoon":0,"cond_shown":"equaldotsize","ratio_trial":500,"smaller_num":"4","larger_num":"8","correct_side":1,"subjID":"danielfelipebarriospacheco32","gender":"0","age":"11","school":"6"},{"start_time":1551881328215,"click_time":1551881329416,"finger_time":1551881328956,"fix_duration":958.1450087111848,"trial":20,"RT":741,"MT":460,"sideResp":2,"stimulus":"img/900/equaldotanddens/R/6_Ratio_900_L_9_R_10.png","xmouse":[797,797,797,797,797,797,797,797,797,797,797,797,797,797,797,797,797,797,797,797,797,797,797,797,797,797,797,797,797,797,797,797,797,797,797,798,829,878,941,1007,1068,1122,1124,1123,1120,1117,1111,1103,1094,1087,1083,1079,1075,1073,1072,1072,1072,1073,1075,1075,1076],"ymouse":[541,541,541,541,541,541,541,541,541,541,541,541,541,541,541,541,541,541,541,541,541,541,541,541,541,541,541,541,541,541,541,541,541,541,541,540,506,452,389,335,288,242,237,235,235,233,226,216,206,199,195,188,180,172,161,149,126,117,109,102,97],"timestamp_mouse":[8,21,46,61,81,101,121,141,162,182,200,221,241,261,281,301,320,342,362,382,401,421,441,460,482,501,521,542,561,582,601,621,642,662,681,702,721,741,761,781,800,822,842,861,882,901,922,942,960,981,1002,1021,1041,1060,1082,1101,1121,1141,1161,1182,1201],"xSR":741.5,"ySR":469.95,"xT1":424.9,"yT1":0,"xT2":1058.1,"yT2":0,"toosoon":0,"cond_shown":"equaldotanddens","ratio_trial":900,"smaller_num":"9","larger_num":"10","correct_side":2,"subjID":"danielfelipebarriospacheco32","gender":"0","age":"11","school":"6"},{"start_time":1551881330427,"click_time":1551881331917,"finger_time":1551881331375,"fix_duration":250,"trial":21,"RT":948,"MT":542,"sideResp":1,"stimulus":"img/900/equaldotsize/L/10_Ratio_900_L_20_R_18.png","xmouse":[805,805,805,805,805,805,805,805,805,805,805,805,805,805,805,805,805,805,805,805,805,805,805,805,805,805,805,805,805,805,805,805,805,805,805,805,805,805,805,805,805,805,803,800,791,770,754,735,717,701,669,638,614,603,591,575,571,564,557,548,533,527,523,521,518,517,515,513,511,511,510,507,506,503,501],"ymouse":[518,518,518,518,518,518,518,518,518,518,518,518,518,518,518,518,518,518,518,518,518,518,518,518,518,518,518,518,518,518,518,518,518,518,518,518,518,518,518,518,518,518,518,513,505,486,475,466,457,447,424,386,349,322,295,257,242,226,208,189,154,137,131,128,123,122,119,116,115,114,112,108,105,101,95],"timestamp_mouse":[9,28,48,68,89,109,128,149,168,190,209,230,250,268,290,309,329,350,369,388,410,428,449,469,490,508,528,549,568,590,608,629,648,669,690,708,730,750,769,789,809,828,849,870,890,908,929,948,969,989,1008,1029,1048,1070,1088,1109,1130,1149,1169,1189,1209,1229,1249,1269,1290,1309,1329,1349,1370,1389,1408,1430,1449,1469,1490],"xSR":741.5,"ySR":469.95,"xT1":424.9,"yT1":0,"xT2":1058.1,"yT2":0,"toosoon":0,"cond_shown":"equaldotsize","ratio_trial":900,"smaller_num":"18","larger_num":"20","correct_side":1,"subjID":"danielfelipebarriospacheco32","gender":"0","age":"11","school":"6"},{"start_time":1551881333628,"click_time":1551881337577,"finger_time":1551881334616,"fix_duration":748.4548419416808,"trial":22,"RT":988,"MT":2961,"sideResp":1,"stimulus":"img/900/equaldotsize/L/8_Ratio_900_L_20_R_18.png","xmouse":[805,804,804,803,802,801,801,801,800,800,798,798,798,798,798,798,798,798,798,797,797,797,797,797,797,797,797,797,796,796,796,796,796,796,796,796,796,796,796,796,796,796,796,796,795,788,779,763,743,723,683,672,660,651,637,633,631,627,623,617,614,614,614,614,614,635,655,674,699,716,734,736,737,741,745,749,753,757,763,766,776,782,785,786,790,791,791,791,791,791,791,791,791,791,791,791,791,791,791,791,791,791,792,792,799,812,816,819,822,823,823,823,823,823,823,823,823,823,823,823,823,823,823,823,823,823,823,823,823,823,818,809,807,807,807,807,807,807,807,807,807,807,807,807,807,807,807,807,807,807,807,807,807,807,807,807,807,807,807,807,807,807,807,807,807,807,807,807,807,807,807,807,806,804,800,785,774,754,731,707,657,621,600,584,563,554,548,540,536,532,528,524,524,522,522,518,513,510],"ymouse":[527,527,527,527,526,526,526,526,525,525,523,523,523,523,523,523,523,523,523,523,522,522,522,522,522,522,522,522,522,522,522,522,521,519,517,516,516,516,516,516,516,516,516,516,515,513,509,498,481,462,412,398,378,360,333,324,319,311,306,294,290,290,290,290,290,303,314,322,333,338,345,346,347,348,350,353,354,355,356,356,357,357,357,357,356,354,354,354,354,354,354,354,354,354,354,354,354,354,354,354,354,354,355,356,365,384,391,397,401,404,404,404,404,404,404,404,404,404,404,404,404,404,404,404,404,404,404,404,404,404,395,381,379,379,379,379,379,379,379,379,379,379,379,379,379,379,379,379,379,379,379,379,379,379,379,379,379,379,379,379,379,379,379,379,379,379,379,379,379,379,379,379,379,379,379,385,385,385,383,368,326,292,266,244,216,205,198,189,184,179,168,158,153,150,144,123,107,91],"timestamp_mouse":[8,40,49,67,89,107,129,149,169,187,208,229,248,268,288,309,329,347,369,388,408,427,448,468,489,508,529,548,568,589,609,629,648,669,687,708,728,748,769,788,807,828,848,867,889,907,928,947,969,988,1007,1028,1048,1069,1089,1108,1129,1148,1169,1189,1207,1227,1248,1268,1287,1308,1328,1349,1369,1388,1408,1428,1448,1468,1488,1509,1529,1547,1567,1587,1608,1628,1648,1668,1689,1708,1727,1749,1768,1789,1808,1827,1847,1868,1888,1908,1928,1947,1968,1988,2008,2028,2048,2069,2089,2108,2128,2147,2168,2187,2208,2228,2247,2268,2289,2308,2327,2348,2368,2389,2407,2427,2449,2469,2488,2508,2529,2548,2568,2588,2608,2628,2648,2667,2688,2708,2728,2748,2768,2789,2809,2829,2849,2869,2888,2909,2928,2948,2967,2989,3008,3028,3048,3069,3089,3108,3129,3148,3168,3187,3208,3229,3248,3268,3288,3309,3329,3349,3368,3388,3408,3428,3449,3469,3489,3508,3527,3547,3568,3589,3609,3629,3648,3668,3689,3707,3728,3747,3768,3789,3808,3829,3848,3869,3889,3908,3929,3949],"xSR":741.5,"ySR":469.95,"xT1":424.9,"yT1":0,"xT2":1058.1,"yT2":0,"toosoon":0,"cond_shown":"equaldotsize","ratio_trial":900,"smaller_num":"18","larger_num":"20","correct_side":1,"subjID":"danielfelipebarriospacheco32","gender":"0","age":"11","school":"6"},{"start_time":1551881339572,"click_time":1551881341117,"finger_time":1551881340715,"fix_duration":1315.6617170926247,"trial":23,"RT":1143,"MT":402,"sideResp":1,"stimulus":"img/900/randomdotsizeEA/L/2_Ratio_900_L_20_R_18.png","xmouse":[776,776,776,776,776,776,776,776,776,776,776,776,776,776,776,776,776,776,776,776,776,776,776,776,776,776,776,776,776,776,776,776,776,776,776,776,776,776,776,776,776,776,776,776,776,776,776,776,776,776,776,776,776,775,769,760,749,729,692,681,672,666,660,651,646,642,637,630,613,601,589,573,540,513,504,478,461,449],"ymouse":[551,551,551,551,551,551,551,551,551,551,551,551,551,551,551,551,551,551,551,551,551,551,551,551,551,551,551,551,551,551,551,551,551,551,551,551,551,551,551,551,551,551,551,551,551,551,551,551,551,551,551,551,551,550,535,514,489,453,366,325,295,267,247,223,215,207,199,191,172,163,156,150,138,131,127,114,104,96],"timestamp_mouse":[11,24,44,64,84,103,125,145,164,185,204,224,244,263,285,305,325,343,365,385,404,423,443,464,485,505,524,544,564,584,603,623,644,663,684,705,723,745,765,784,804,825,844,863,885,904,925,944,963,983,1005,1025,1044,1063,1084,1104,1125,1143,1163,1184,1204,1223,1244,1263,1284,1304,1323,1343,1364,1383,1404,1425,1445,1464,1484,1504,1523,1545],"xSR":741.5,"ySR":469.95,"xT1":424.9,"yT1":0,"xT2":1058.1,"yT2":0,"toosoon":0,"cond_shown":"randomdotsizeEA","ratio_trial":900,"smaller_num":"18","larger_num":"20","correct_side":1,"subjID":"danielfelipebarriospacheco32","gender":"0","age":"11","school":"6"},{"start_time":1551881342427,"click_time":1551881344535,"finger_time":1551881344017,"fix_duration":388.71428932519257,"trial":24,"RT":1590,"MT":518,"sideResp":1,"stimulus":"img/750/equaldotanddens/L/9_Ratio_750_L_4_R_3.png","xmouse":[838,838,838,838,838,838,838,838,838,838,838,838,838,838,838,838,838,838,838,839,839,839,838,838,838,838,838,838,838,838,838,838,838,838,838,838,838,838,838,837,836,836,830,823,813,792,789,786,785,785,785,785,785,785,785,785,785,785,785,785,785,785,785,785,785,785,785,785,785,785,785,785,785,784,782,776,773,769,763,755,744,732,726,721,716,711,709,707,707,701,696,685,672,657,621,606,589,574,559,542,535,528,515,505,498,491],"ymouse":[551,551,551,551,551,551,551,551,551,551,551,551,551,551,551,551,551,551,551,551,550,549,548,548,548,548,548,548,548,548,548,548,548,548,548,548,548,548,548,547,546,545,539,533,525,509,505,503,502,502,502,502,502,502,502,502,502,502,502,502,502,502,502,502,502,502,502,502,502,502,502,502,502,501,495,485,482,478,471,462,445,413,386,365,355,347,345,343,341,332,325,314,305,294,268,253,238,225,212,196,186,174,144,121,103,80],"timestamp_mouse":[9,29,50,74,90,110,129,150,170,190,209,230,248,270,290,309,329,349,370,388,409,428,449,469,488,510,528,550,569,588,609,629,649,668,690,710,730,749,769,790,808,829,849,868,888,909,929,949,969,988,1009,1029,1048,1069,1088,1108,1130,1149,1169,1189,1208,1228,1249,1268,1290,1309,1329,1349,1369,1389,1409,1429,1449,1469,1490,1509,1530,1549,1568,1590,1609,1629,1649,1669,1688,1708,1729,1749,1769,1790,1808,1829,1848,1870,1890,1909,1930,1949,1969,1990,2009,2028,2049,2070,2088,2108],"xSR":741.5,"ySR":469.95,"xT1":424.9,"yT1":0,"xT2":1058.1,"yT2":0,"toosoon":0,"cond_shown":"equaldotanddens","ratio_trial":750,"smaller_num":"3","larger_num":"4","correct_side":1,"subjID":"danielfelipebarriospacheco32","gender":"0","age":"11","school":"6"},{"start_time":1551881346927,"click_time":1551881348118,"finger_time":1551881347596,"fix_duration":250,"trial":25,"RT":669,"MT":522,"sideResp":2,"stimulus":"img/750/equaldotanddens/R/5_Ratio_750_L_15_R_20.png","xmouse":[818,818,818,818,818,818,818,818,818,818,818,818,818,818,818,818,818,818,818,818,818,818,818,818,818,818,818,818,818,818,821,830,839,847,857,881,890,901,907,913,927,933,939,944,950,966,971,980,982,987,989,992,996,998,1001,1012,1025,1035,1046,1071],"ymouse":[544,544,544,544,544,544,544,544,544,544,544,544,544,544,544,544,544,544,544,544,544,544,544,544,544,544,544,544,544,538,515,497,480,464,445,404,388,369,357,342,308,290,273,255,240,203,195,179,171,163,160,157,154,152,149,133,118,105,93,70],"timestamp_mouse":[12,39,48,69,89,110,130,150,169,189,210,230,249,270,290,309,329,348,368,389,408,430,448,468,489,508,530,548,568,589,609,630,648,669,689,709,728,749,770,789,809,830,849,868,888,908,929,949,969,990,1010,1028,1049,1069,1089,1109,1129,1149,1169,1190],"xSR":741.5,"ySR":469.95,"xT1":424.9,"yT1":0,"xT2":1058.1,"yT2":0,"toosoon":0,"cond_shown":"equaldotanddens","ratio_trial":750,"smaller_num":"15","larger_num":"20","correct_side":2,"subjID":"danielfelipebarriospacheco32","gender":"0","age":"11","school":"6"},{"start_time":1551881350124,"click_time":1551881351636,"finger_time":1551881350856,"fix_duration":926.0391035310408,"trial":26,"RT":732,"MT":780,"sideResp":1,"stimulus":"img/250/randomdotsizeEA/L/1_Ratio_250_L_8_R_2.png","xmouse":[810,810,810,810,810,810,810,810,810,810,810,810,810,810,810,810,810,810,810,810,810,810,810,810,810,810,810,810,810,810,810,810,809,804,793,765,742,725,710,683,672,667,660,655,649,632,622,614,605,592,567,557,551,550,550,550,550,550,549,549,545,542,538,534,531,529,528,526,523,521,517,513,508,504,503,503],"ymouse":[504,504,504,504,504,504,504,504,504,504,504,504,504,504,504,504,504,504,504,504,504,504,504,504,504,504,504,504,504,504,504,504,504,500,491,471,453,437,418,387,371,359,347,337,321,281,256,239,218,197,152,135,123,123,123,122,120,119,117,117,115,114,113,113,113,113,112,112,112,112,110,109,107,104,102,95],"timestamp_mouse":[11,43,52,72,92,113,133,152,172,193,212,232,252,273,292,313,333,352,372,392,413,432,453,472,492,512,532,552,573,593,612,632,653,672,692,713,732,752,772,793,813,833,852,873,892,913,932,952,972,992,1012,1032,1052,1073,1093,1112,1132,1152,1172,1192,1213,1232,1253,1273,1292,1312,1332,1352,1373,1392,1412,1432,1453,1473,1492,1512],"xSR":741.5,"ySR":469.95,"xT1":424.9,"yT1":0,"xT2":1058.1,"yT2":0,"toosoon":0,"cond_shown":"randomdotsizeEA","ratio_trial":250,"smaller_num":"2","larger_num":"8","correct_side":1,"subjID":"danielfelipebarriospacheco32","gender":"0","age":"11","school":"6"},{"start_time":1551881352888,"click_time":1551881354057,"finger_time":1551881353717,"fix_duration":250,"trial":27,"RT":829,"MT":340,"sideResp":1,"stimulus":"img/500/equaldotanddens/L/7_Ratio_500_L_10_R_5.png","xmouse":[797,797,797,797,797,797,797,797,797,797,797,797,797,797,797,797,797,797,797,797,797,797,797,797,797,797,797,797,797,797,797,797,797,797,797,797,795,790,781,767,756,738,667,620,570,509,426,391,384,368,373,379,387,388,390,391,398,417,425],"ymouse":[556,556,556,556,556,556,556,556,556,556,556,556,556,556,556,556,556,556,556,556,556,556,556,556,556,556,556,556,556,556,556,556,556,556,556,556,556,552,541,527,515,496,440,406,375,342,282,245,232,178,146,100,45,36,32,30,30,30,30],"timestamp_mouse":[8,28,60,68,89,109,129,148,168,188,208,229,248,269,288,309,328,349,368,389,408,429,449,469,489,508,528,548,568,590,608,628,649,668,689,709,729,748,768,789,809,829,848,869,888,909,930,949,968,988,1008,1028,1048,1068,1088,1109,1128,1148,1169],"xSR":741.5,"ySR":469.95,"xT1":424.9,"yT1":0,"xT2":1058.1,"yT2":0,"toosoon":0,"cond_shown":"equaldotanddens","ratio_trial":500,"smaller_num":"5","larger_num":"10","correct_side":1,"subjID":"danielfelipebarriospacheco32","gender":"0","age":"11","school":"6"},{"start_time":1551881355291,"click_time":1551881356337,"finger_time":1551881355897,"fix_duration":434.7699645700619,"trial":28,"RT":606,"MT":440,"sideResp":2,"stimulus":"img/750/equaldotsize/R/2_Ratio_750_L_6_R_8.png","xmouse":[815,815,815,815,815,815,815,815,815,815,815,815,815,815,815,815,815,815,815,815,815,815,815,815,815,815,815,815,818,837,859,921,943,963,978,996,1014,1039,1046,1046,1046,1046,1046,1046,1046,1046,1046,1046,1046,1046,1046,1046,1096],"ymouse":[554,554,554,554,554,554,554,554,554,554,554,554,554,554,554,554,554,554,554,554,554,554,554,554,554,554,554,554,543,512,470,364,315,269,229,189,146,53,3,3,3,3,3,3,3,3,3,3,3,3,3,3,22],"timestamp_mouse":[8,25,45,65,86,106,127,146,166,185,205,225,247,266,286,305,325,345,365,385,405,426,447,465,485,505,525,546,566,585,606,627,645,666,686,705,725,745,766,787,805,825,845,866,885,905,926,945,966,985,1005,1025,1046],"xSR":741.5,"ySR":469.95,"xT1":424.9,"yT1":0,"xT2":1058.1,"yT2":0,"toosoon":0,"cond_shown":"equaldotsize","ratio_trial":750,"smaller_num":"6","larger_num":"8","correct_side":2,"subjID":"danielfelipebarriospacheco32","gender":"0","age":"11","school":"6"},{"start_time":1551881357487,"click_time":1551881359156,"finger_time":1551881358436,"fix_duration":250,"trial":29,"RT":949,"MT":720,"sideResp":1,"stimulus":"img/750/randomdotsizeEA/L/9_Ratio_750_L_4_R_3.png","xmouse":[814,814,814,814,814,814,814,814,814,814,814,814,814,814,814,814,814,814,814,814,814,813,813,813,813,813,813,813,813,813,813,813,813,813,813,813,813,813,813,811,810,808,804,801,795,789,782,776,776,776,778,789,824,843,863,876,880,879,874,856,840,794,771,747,724,700,676,635,607,585,562,532,469,445,444,441,438,437,437,437,439,447,486,522],"ymouse":[540,540,540,540,540,540,540,540,540,540,540,540,540,540,540,540,540,540,540,540,540,535,534,532,530,529,528,528,528,528,528,528,528,528,528,528,528,528,527,523,520,519,513,508,499,489,477,463,462,460,457,448,420,403,384,369,359,353,353,353,354,362,364,366,366,359,345,302,268,249,233,213,170,158,157,156,154,154,154,153,152,147,118,94],"timestamp_mouse":[9,30,49,69,89,110,129,149,170,190,209,229,249,269,290,309,331,349,371,390,409,430,450,470,491,509,529,549,569,590,609,630,651,670,689,709,730,749,769,789,810,829,850,870,890,910,929,949,969,989,1010,1030,1049,1070,1089,1109,1130,1149,1169,1189,1210,1231,1250,1270,1290,1309,1330,1349,1370,1389,1410,1429,1449,1470,1490,1511,1529,1550,1569,1589,1610,1630,1650,1669],"xSR":741.5,"ySR":469.95,"xT1":424.9,"yT1":0,"xT2":1058.1,"yT2":0,"toosoon":0,"cond_shown":"randomdotsizeEA","ratio_trial":750,"smaller_num":"3","larger_num":"4","correct_side":1,"subjID":"danielfelipebarriospacheco32","gender":"0","age":"11","school":"6"},{"start_time":1551881361676,"click_time":1551881362576,"finger_time":1551881362277,"fix_duration":1276.0429862222222,"trial":30,"RT":601,"MT":299,"sideResp":1,"stimulus":"img/750/equaldotanddens/L/13_Ratio_750_L_8_R_6.png","xmouse":[805,805,805,805,806,806,807,808,808,808,808,808,808,808,808,808,808,808,808,808,808,808,808,808,808,808,808,805,797,773,731,693,647,631,616,602,586,571,535,520,501,492,487,484,479,474],"ymouse":[543,543,543,543,543,543,543,544,544,544,544,544,544,544,544,544,544,544,544,544,544,544,544,544,544,544,544,543,535,495,425,377,335,323,315,306,294,281,250,235,205,180,134,114,101,92],"timestamp_mouse":[10,20,43,60,80,101,121,141,162,181,201,220,240,261,282,301,320,340,360,381,400,420,440,461,481,501,521,541,560,581,601,620,642,660,680,702,720,741,761,780,800,821,841,860,880,900],"xSR":741.5,"ySR":469.95,"xT1":424.9,"yT1":0,"xT2":1058.1,"yT2":0,"toosoon":0,"cond_shown":"equaldotanddens","ratio_trial":750,"smaller_num":"6","larger_num":"8","correct_side":1,"subjID":"danielfelipebarriospacheco32","gender":"0","age":"11","school":"6"},{"start_time":1551881365422,"click_time":1551881366297,"finger_time":1551881365998,"fix_duration":764.3218762215806,"trial":31,"RT":576,"MT":299,"sideResp":1,"stimulus":"img/250/randomdotsizeEA/L/1_Ratio_250_L_8_R_2.png","xmouse":[788,788,788,788,788,788,788,788,788,788,788,788,788,788,788,788,788,788,788,788,788,788,788,788,788,785,780,774,763,749,711,683,668,657,649,629,617,606,591,563,543,527,517,507],"ymouse":[539,539,539,539,539,539,539,539,539,539,539,539,539,539,539,539,539,539,539,539,539,539,539,539,539,526,509,486,451,394,305,248,223,204,189,163,149,138,131,120,113,106,103,99],"timestamp_mouse":[14,35,56,75,95,114,134,154,174,195,214,235,254,275,295,314,334,354,375,396,415,434,454,475,494,514,535,555,576,594,614,634,654,675,694,714,734,754,774,796,814,834,854,875],"xSR":741.5,"ySR":469.95,"xT1":424.9,"yT1":0,"xT2":1058.1,"yT2":0,"toosoon":0,"cond_shown":"randomdotsizeEA","ratio_trial":250,"smaller_num":"2","larger_num":"8","correct_side":1,"subjID":"danielfelipebarriospacheco32","gender":"0","age":"11","school":"6"},{"start_time":1551881367594,"click_time":1551881369276,"finger_time":1551881368356,"fix_duration":396.8417915738248,"trial":32,"RT":762,"MT":920,"sideResp":1,"stimulus":"img/250/equaldotsize/L/2_Ratio_250_L_16_R_4.png","xmouse":[783,783,783,783,783,783,783,783,783,783,783,783,783,783,783,783,783,783,783,783,783,783,783,783,783,783,783,783,783,783,783,783,783,783,782,777,772,765,762,759,755,748,736,728,722,714,705,698,691,685,679,673,657,640,625,608,585,544,525,504,487,469,439,426,410,402,401,401,401,402,404,408,414,414,414,414,414,414,414,414,414,414,414,456,458],"ymouse":[519,519,519,519,519,519,519,519,519,519,519,519,519,519,519,519,519,519,519,519,519,519,519,519,519,519,519,519,519,519,519,519,519,519,519,512,501,473,461,447,433,414,392,382,376,369,362,358,355,352,349,347,339,330,321,309,293,268,257,245,235,222,188,166,135,114,97,61,46,32,22,12,0,0,0,0,0,0,0,0,0,0,0,0,2],"timestamp_mouse":[11,22,48,63,83,102,123,142,162,183,203,222,242,263,283,302,323,342,362,383,402,422,442,462,482,502,522,543,562,582,602,622,642,662,683,702,722,742,762,784,803,823,843,862,883,903,924,942,963,982,1002,1022,1042,1062,1082,1102,1122,1142,1163,1182,1202,1222,1244,1262,1282,1302,1323,1342,1363,1383,1402,1422,1443,1462,1482,1502,1522,1543,1562,1583,1604,1623,1642,1662,1682],"xSR":741.5,"ySR":469.95,"xT1":424.9,"yT1":0,"xT2":1058.1,"yT2":0,"toosoon":0,"cond_shown":"equaldotsize","ratio_trial":250,"smaller_num":"4","larger_num":"16","correct_side":1,"subjID":"danielfelipebarriospacheco32","gender":"0","age":"11","school":"6"},{"start_time":1551881371484,"click_time":1551881373336,"finger_time":1551881372677,"fix_duration":1146.1862341990611,"trial":33,"RT":1193,"MT":659,"sideResp":1,"stimulus":"img/750/equaldotanddens/L/10_Ratio_750_L_4_R_3.png","xmouse":[828,828,828,828,828,828,828,828,828,828,828,828,828,828,828,828,828,828,828,828,828,828,828,828,821,817,814,814,814,814,814,814,814,814,814,814,814,814,814,814,814,814,814,814,814,814,814,814,814,814,814,814,814,814,814,812,810,784,765,732,709,644,591,530,459,393,332,332,332,332,332,332,332,332,332,332,332,332,332,332,332,332,332,332,332,332,332,332,332,332,332,435,454],"ymouse":[547,547,547,547,547,547,547,547,547,547,547,547,547,547,547,547,547,547,547,547,547,547,547,547,546,544,544,543,543,543,543,543,543,543,543,543,543,543,543,543,543,543,543,543,543,543,543,543,543,543,543,543,543,543,543,542,540,527,516,498,484,434,380,305,214,119,25,25,25,25,25,25,25,25,25,25,25,25,25,25,25,25,25,25,25,25,25,25,25,25,25,0,24],"timestamp_mouse":[13,37,52,72,93,112,133,152,173,192,212,232,252,272,292,312,332,352,373,392,412,433,453,473,493,513,532,553,572,592,612,634,652,673,694,713,733,752,772,792,812,834,852,872,892,913,932,953,974,993,1012,1032,1053,1072,1093,1112,1132,1152,1173,1193,1212,1233,1252,1272,1292,1313,1334,1352,1373,1392,1412,1434,1452,1473,1493,1512,1533,1553,1573,1592,1612,1632,1653,1673,1692,1712,1734,1754,1773,1793,1812,1832,1852],"xSR":741.5,"ySR":469.95,"xT1":424.9,"yT1":0,"xT2":1058.1,"yT2":0,"toosoon":0,"cond_shown":"equaldotanddens","ratio_trial":750,"smaller_num":"3","larger_num":"4","correct_side":1,"subjID":"danielfelipebarriospacheco32","gender":"0","age":"11","school":"6"},{"start_time":1551881375715,"click_time":1551881376678,"finger_time":1551881376357,"fix_duration":1077.6901634817618,"trial":34,"RT":642,"MT":321,"sideResp":1,"stimulus":"img/500/randomdotsizeEA/L/4_Ratio_500_L_18_R_9.png","xmouse":[803,803,803,803,803,803,803,803,803,803,803,803,803,803,803,803,803,803,803,803,803,803,803,803,803,803,803,803,803,800,794,758,738,719,704,692,672,657,644,630,617,596,588,578,571,560,534,504,487],"ymouse":[519,519,519,519,519,519,519,519,519,519,519,519,519,519,519,519,519,519,519,519,519,519,519,519,519,519,519,519,519,519,515,488,472,456,441,428,404,391,382,372,359,327,310,292,277,259,213,146,89],"timestamp_mouse":[8,21,50,61,81,103,121,141,162,181,202,222,241,262,281,301,322,341,362,381,402,422,441,462,481,501,521,541,562,581,601,622,642,661,681,702,721,741,762,782,801,821,841,861,881,902,921,941,963],"xSR":741.5,"ySR":469.95,"xT1":424.9,"yT1":0,"xT2":1058.1,"yT2":0,"toosoon":0,"cond_shown":"randomdotsizeEA","ratio_trial":500,"smaller_num":"9","larger_num":"18","correct_side":1,"subjID":"danielfelipebarriospacheco32","gender":"0","age":"11","school":"6"},{"start_time":1551881378266,"click_time":1551881379357,"finger_time":1551881378936,"fix_duration":726.8938481544652,"trial":35,"RT":670,"MT":421,"sideResp":2,"stimulus":"img/750/equaldotanddens/R/2_Ratio_750_L_6_R_8.png","xmouse":[822,822,822,822,822,822,822,822,822,822,822,822,822,822,822,822,822,822,822,822,822,822,822,822,822,822,822,822,822,820,820,820,823,848,862,878,895,903,910,910,910,910,910,910,911,911,921,936,967,993,1010,1023,1035,1052,1061],"ymouse":[547,547,547,547,547,547,547,547,547,547,547,547,547,547,547,547,547,547,547,547,547,547,547,547,547,547,547,547,547,544,527,504,474,387,333,275,213,159,104,88,83,81,81,81,80,80,77,73,68,65,61,57,54,45,39],"timestamp_mouse":[10,36,50,70,90,111,130,150,172,190,210,230,250,270,290,310,330,350,371,390,410,430,450,471,491,511,531,550,571,590,611,630,650,670,690,711,730,751,770,790,810,830,852,870,890,911,930,951,970,990,1010,1030,1050,1070,1091],"xSR":741.5,"ySR":469.95,"xT1":424.9,"yT1":0,"xT2":1058.1,"yT2":0,"toosoon":0,"cond_shown":"equaldotanddens","ratio_trial":750,"smaller_num":"6","larger_num":"8","correct_side":2,"subjID":"danielfelipebarriospacheco32","gender":"0","age":"11","school":"6"},{"start_time":1551881381362,"click_time":1551881383676,"finger_time":1551881382437,"fix_duration":1004.493423193402,"trial":36,"RT":1075,"MT":1239,"sideResp":2,"stimulus":"img/900/randomdotsizeEA/R/12_Ratio_900_L_18_R_20.png","xmouse":[804,804,804,804,804,804,804,804,804,804,804,804,804,804,804,804,804,804,804,804,804,804,804,804,804,804,804,804,804,804,804,804,804,804,804,804,804,804,804,804,804,804,804,804,804,804,804,804,804,803,807,821,834,850,850,850,850,850,850,850,850,850,850,843,827,816,808,803,797,795,795,795,795,795,792,788,783,780,779,779,779,779,779,779,779,779,779,779,779,779,779,779,779,778,778,786,802,862,897,928,946,960,969,973,974,977,981,988,996,999,1002,1002,1004,1011,1040,1062],"ymouse":[522,522,522,522,522,522,522,522,522,522,522,522,522,522,522,522,522,522,522,522,522,522,522,522,522,522,522,522,522,522,522,522,522,522,522,522,522,522,522,522,522,522,522,522,522,522,522,522,522,521,512,491,473,455,455,455,455,455,455,455,455,455,455,455,455,453,453,452,452,452,452,452,452,452,452,452,452,452,452,452,452,452,452,452,452,452,452,452,452,452,452,452,452,452,446,427,403,337,308,285,270,257,247,236,223,206,187,159,104,85,78,78,76,76,64,54],"timestamp_mouse":[15,36,54,74,95,115,134,155,174,194,215,234,255,274,294,314,334,354,375,395,414,434,454,475,494,514,534,555,574,594,614,634,656,675,695,715,735,755,775,794,816,835,855,874,894,915,934,954,975,994,1016,1034,1054,1075,1094,1114,1135,1154,1174,1195,1216,1234,1254,1274,1294,1314,1334,1355,1374,1394,1414,1434,1455,1474,1495,1514,1535,1555,1574,1595,1615,1634,1656,1676,1695,1714,1734,1755,1774,1795,1814,1836,1854,1874,1895,1915,1934,1955,1974,1995,2014,2036,2054,2075,2094,2114,2134,2154,2174,2195,2214,2235,2255,2274,2294,2314],"xSR":741.5,"ySR":469.95,"xT1":424.9,"yT1":0,"xT2":1058.1,"yT2":0,"toosoon":0,"cond_shown":"randomdotsizeEA","ratio_trial":900,"smaller_num":"18","larger_num":"20","correct_side":2,"subjID":"danielfelipebarriospacheco32","gender":"0","age":"11","school":"6"},{"start_time":1551881384945,"click_time":1551881386117,"finger_time":1551881385756,"fix_duration":427.4060052592834,"trial":37,"RT":811,"MT":361,"sideResp":2,"stimulus":"img/250/equaldotanddens/R/4_Ratio_250_L_3_R_12.png","xmouse":[787,787,787,787,787,787,787,787,787,787,787,787,787,787,787,787,787,787,787,787,787,787,787,787,787,787,787,787,787,787,787,787,787,787,787,787,787,787,787,794,826,865,919,1037,1118,1134,1149,1149,1150,1150,1145,1136,1130,1126,1124,1123,1122,1121,1118],"ymouse":[549,549,549,549,549,549,549,549,549,549,549,549,549,549,549,549,549,549,549,549,549,549,549,549,549,549,549,549,549,549,549,549,549,549,549,549,549,549,549,511,445,381,317,204,150,140,132,132,131,130,125,116,109,105,104,104,102,101,99],"timestamp_mouse":[11,37,53,71,92,112,131,152,171,192,211,232,251,271,292,312,331,351,371,392,411,431,451,472,491,511,531,552,571,592,612,632,651,672,692,711,733,751,771,791,811,831,851,873,892,911,931,952,973,991,1012,1031,1053,1072,1091,1111,1132,1151,1171],"xSR":741.5,"ySR":469.95,"xT1":424.9,"yT1":0,"xT2":1058.1,"yT2":0,"toosoon":0,"cond_shown":"equaldotanddens","ratio_trial":250,"smaller_num":"3","larger_num":"12","correct_side":2,"subjID":"danielfelipebarriospacheco32","gender":"0","age":"11","school":"6"},{"start_time":1551881387791,"click_time":1551881389018,"finger_time":1551881388717,"fix_duration":573.7437324971756,"trial":38,"RT":926,"MT":301,"sideResp":2,"stimulus":"img/500/randomdotsizeEA/R/3_Ratio_500_L_10_R_20.png","xmouse":[799,799,799,801,801,801,801,801,801,801,801,801,801,801,801,801,801,801,801,801,801,801,801,801,801,801,801,801,801,801,801,801,801,801,801,801,801,801,801,801,801,801,801,801,803,814,832,886,911,928,941,952,990,1010,1029,1047,1064,1085,1090,1092,1094,1096],"ymouse":[492,492,496,501,501,503,503,503,503,503,503,503,503,503,503,503,503,503,503,503,503,503,503,503,503,503,503,503,503,503,503,503,503,503,503,503,503,503,503,503,503,503,503,503,502,485,459,401,375,357,339,324,273,245,217,192,169,133,121,113,101,82],"timestamp_mouse":[8,25,45,78,85,107,126,147,166,185,205,226,247,265,285,306,327,345,367,385,406,425,445,466,485,507,525,546,566,585,606,625,645,665,686,705,725,745,765,786,807,825,845,866,885,905,926,945,966,985,1006,1025,1046,1065,1086,1105,1125,1145,1165,1186,1205,1226],"xSR":741.5,"ySR":469.95,"xT1":424.9,"yT1":0,"xT2":1058.1,"yT2":0,"toosoon":0,"cond_shown":"randomdotsizeEA","ratio_trial":500,"smaller_num":"10","larger_num":"20","correct_side":2,"subjID":"danielfelipebarriospacheco32","gender":"0","age":"11","school":"6"},{"start_time":1551881391038,"click_time":1551881392278,"finger_time":1551881391877,"fix_duration":1461.2531330028314,"trial":39,"RT":839,"MT":401,"sideResp":1,"stimulus":"img/750/equaldotsize/L/9_Ratio_750_L_4_R_3.png","xmouse":[829,829,829,829,829,829,829,829,829,829,829,829,829,829,829,829,829,829,829,829,829,829,829,829,829,829,829,829,829,829,829,829,829,828,821,814,805,794,783,762,750,741,730,722,705,697,684,668,625,590,579,542,520,504,483,479,477,475,466,462,455,454],"ymouse":[509,509,509,509,509,509,509,509,509,509,509,509,509,509,509,509,509,509,509,509,509,509,509,509,509,509,509,509,509,509,509,509,509,511,510,509,508,506,505,497,493,487,482,476,462,455,441,422,376,332,316,267,239,219,187,180,175,170,145,130,104,92],"timestamp_mouse":[18,38,58,79,99,118,140,158,179,200,218,239,258,278,298,319,338,358,379,399,418,438,460,479,498,518,540,558,579,599,618,638,660,678,698,719,740,758,778,798,819,839,858,879,898,918,939,959,979,999,1018,1038,1058,1078,1099,1118,1138,1158,1180,1198,1218,1240],"xSR":741.5,"ySR":469.95,"xT1":424.9,"yT1":0,"xT2":1058.1,"yT2":0,"toosoon":0,"cond_shown":"equaldotsize","ratio_trial":750,"smaller_num":"3","larger_num":"4","correct_side":1,"subjID":"danielfelipebarriospacheco32","gender":"0","age":"11","school":"6"},{"start_time":1551881394420,"click_time":1551881395417,"finger_time":1551881395057,"fix_duration":1263.971205276415,"trial":40,"RT":637,"MT":360,"sideResp":1,"stimulus":"img/250/equaldotsize/L/1_Ratio_250_L_8_R_2.png","xmouse":[774,774,774,774,774,774,774,774,774,774,774,774,774,774,774,774,774,774,774,774,774,774,774,774,774,774,774,774,774,771,760,742,731,717,693,680,667,654,644,633,609,587,568,548,529,510,506,504,498,449],"ymouse":[512,512,512,512,512,512,512,512,512,512,512,512,512,512,512,512,512,512,512,512,512,512,512,512,512,512,512,512,512,508,497,469,445,414,346,311,285,267,256,245,222,192,168,145,130,122,122,121,116,73],"timestamp_mouse":[17,37,56,77,97,117,137,156,176,197,216,236,256,276,297,316,336,356,376,396,417,438,456,477,497,517,536,556,577,597,617,637,657,676,698,716,737,757,777,796,816,836,856,877,896,916,936,956,976,997],"xSR":741.5,"ySR":469.95,"xT1":424.9,"yT1":0,"xT2":1058.1,"yT2":0,"toosoon":0,"cond_shown":"equaldotsize","ratio_trial":250,"smaller_num":"2","larger_num":"8","correct_side":1,"subjID":"danielfelipebarriospacheco32","gender":"0","age":"11","school":"6"},{"start_time":1551881398048,"click_time":1551881399736,"finger_time":1551881398796,"fix_duration":250,"trial":41,"RT":748,"MT":940,"sideResp":2,"stimulus":"img/900/equaldotsize/L/2_Ratio_900_L_20_R_18.png","xmouse":[808,808,808,808,808,808,808,808,808,808,808,808,808,808,808,808,808,808,808,808,808,808,808,808,808,808,808,808,808,808,808,808,808,808,815,826,840,850,868,871,875,879,881,883,890,895,903,908,915,924,930,933,940,948,963,969,974,977,993,1009,1019,1026,1030,1032,1037,1039,1042,1044,1044,1045,1046,1047,1048,1048,1048,1048,1048,1048,1048,1048,1048,1048,1048,1057,1065],"ymouse":[541,541,541,541,541,541,541,541,541,541,541,541,541,541,541,541,541,541,541,541,541,541,541,541,541,541,541,541,541,541,541,541,541,539,519,503,488,476,453,447,440,432,428,423,412,405,394,387,380,365,355,349,339,328,302,288,273,257,209,174,148,130,114,99,77,70,63,59,59,58,59,62,63,64,64,64,64,64,64,64,64,64,64,58,50],"timestamp_mouse":[14,36,48,68,88,110,130,149,169,188,208,228,248,268,289,309,328,349,368,388,409,428,449,469,489,508,530,549,568,590,608,629,649,670,690,709,729,748,770,788,808,830,848,869,888,909,928,949,970,988,1009,1028,1049,1068,1088,1108,1129,1148,1170,1188,1208,1228,1249,1269,1289,1308,1328,1348,1368,1389,1409,1429,1448,1469,1489,1508,1529,1548,1569,1589,1609,1628,1649,1670,1688],"xSR":741.5,"ySR":469.95,"xT1":424.9,"yT1":0,"xT2":1058.1,"yT2":0,"toosoon":0,"cond_shown":"equaldotsize","ratio_trial":900,"smaller_num":"18","larger_num":"20","correct_side":1,"subjID":"danielfelipebarriospacheco32","gender":"0","age":"11","school":"6"},{"start_time":1551881401760,"click_time":1551881402736,"finger_time":1551881402418,"fix_duration":621.6706180775784,"trial":42,"RT":658,"MT":318,"sideResp":1,"stimulus":"img/500/randomdotsizeEA/R/1_Ratio_500_L_9_R_18.png","xmouse":[766,766,766,766,766,766,766,766,766,766,766,766,766,766,766,766,766,766,766,766,766,766,766,766,766,766,766,766,766,766,752,743,703,685,666,637,620,597,591,585,577,564,549,511,482,467,461,459,457],"ymouse":[548,548,548,548,548,548,548,548,548,548,548,548,548,548,548,548,548,548,548,548,548,548,548,548,548,548,548,548,548,548,524,506,440,408,376,330,311,289,282,275,262,246,225,177,137,117,107,104,98],"timestamp_mouse":[16,43,57,76,97,117,136,157,176,197,216,237,256,277,297,317,336,356,376,396,416,436,457,476,496,517,537,556,576,597,616,636,658,676,696,716,737,757,776,796,816,837,857,876,896,916,936,956,976],"xSR":741.5,"ySR":469.95,"xT1":424.9,"yT1":0,"xT2":1058.1,"yT2":0,"toosoon":0,"cond_shown":"randomdotsizeEA","ratio_trial":500,"smaller_num":"9","larger_num":"18","correct_side":2,"subjID":"danielfelipebarriospacheco32","gender":"0","age":"11","school":"6"},{"start_time":1551881404674,"click_time":1551881405977,"finger_time":1551881405338,"fix_duration":876.6108092269379,"trial":43,"RT":664,"MT":639,"sideResp":2,"stimulus":"img/500/equaldotanddens/R/2_Ratio_500_L_3_R_6.png","xmouse":[816,816,816,815,813,810,809,809,809,809,809,809,809,809,809,809,809,809,809,809,809,809,809,809,809,809,809,809,809,809,808,808,811,840,867,905,947,981,1020,1044,1044,1044,1044,1044,1044,1044,1044,1044,1044,1044,1044,1044,1044,1044,1044,1170,1169,1168,1165,1165,1165,1165,1165,1163,1159,1148],"ymouse":[540,540,540,539,537,535,535,535,535,535,535,535,535,535,535,535,535,535,535,535,535,535,535,535,535,535,535,535,535,535,534,532,520,467,421,352,268,187,74,13,13,13,13,13,13,13,13,13,13,13,13,13,13,13,13,9,12,14,21,21,21,21,21,23,27,34],"timestamp_mouse":[8,22,42,62,82,102,123,142,163,183,203,222,242,262,282,302,324,342,362,383,402,423,443,462,482,502,522,543,563,582,603,623,642,664,682,702,724,742,762,783,802,822,842,863,882,902,923,943,964,982,1003,1023,1042,1062,1082,1102,1123,1142,1163,1182,1203,1222,1243,1262,1282,1303],"xSR":741.5,"ySR":469.95,"xT1":424.9,"yT1":0,"xT2":1058.1,"yT2":0,"toosoon":0,"cond_shown":"equaldotanddens","ratio_trial":500,"smaller_num":"3","larger_num":"6","correct_side":2,"subjID":"danielfelipebarriospacheco32","gender":"0","age":"11","school":"6"},{"start_time":1551881407560,"click_time":1551881408837,"finger_time":1551881408336,"fix_duration":662.6160544679736,"trial":44,"RT":776,"MT":501,"sideResp":1,"stimulus":"img/900/randomdotsizeEA/R/13_Ratio_900_L_18_R_20.png","xmouse":[810,810,810,810,810,810,810,810,810,810,810,810,810,810,810,810,810,810,810,810,810,810,810,810,810,810,810,810,810,810,810,810,809,807,804,797,782,754,686,657,637,618,602,569,544,526,508,488,467,467,467,467,467,467,467,467,468,469,472,474,477,480,482,485],"ymouse":[552,552,552,552,552,552,552,552,552,552,552,552,552,552,552,552,552,552,552,552,552,552,552,552,552,552,552,552,552,552,552,552,551,549,546,538,519,484,390,349,316,295,279,259,235,215,193,170,146,145,145,144,144,144,142,140,139,135,131,128,122,114,108,94],"timestamp_mouse":[17,44,57,77,97,117,137,156,176,197,216,236,256,276,297,317,337,356,377,397,416,436,457,477,496,517,537,556,576,596,617,636,656,677,697,716,736,756,776,797,817,837,857,876,897,916,936,956,976,996,1018,1038,1058,1077,1096,1116,1136,1156,1177,1196,1216,1236,1256,1276],"xSR":741.5,"ySR":469.95,"xT1":424.9,"yT1":0,"xT2":1058.1,"yT2":0,"toosoon":0,"cond_shown":"randomdotsizeEA","ratio_trial":900,"smaller_num":"18","larger_num":"20","correct_side":2,"subjID":"danielfelipebarriospacheco32","gender":"0","age":"11","school":"6"},{"start_time":1551881410842,"click_time":1551881411636,"finger_time":1551881411435,"fix_duration":1205.5177976290527,"trial":45,"RT":593,"MT":201,"sideResp":2,"stimulus":"img/500/equaldotanddens/R/1_Ratio_500_L_9_R_18.png","xmouse":[812,812,812,812,812,812,812,812,812,812,812,812,812,812,812,812,812,812,812,812,812,812,812,812,812,812,812,812,814,846,894,925,951,984,993,1003,1012,1026,1055,1081],"ymouse":[536,536,536,536,533,532,532,532,532,532,532,532,532,532,532,532,532,532,532,532,532,532,532,532,532,532,532,529,523,459,372,311,268,209,191,170,148,122,76,44],"timestamp_mouse":[13,39,53,74,93,113,134,154,174,193,213,233,253,273,293,313,334,353,373,395,414,434,453,474,493,514,534,553,573,593,613,633,654,674,693,714,733,753,775,793],"xSR":741.5,"ySR":469.95,"xT1":424.9,"yT1":0,"xT2":1058.1,"yT2":0,"toosoon":0,"cond_shown":"equaldotanddens","ratio_trial":500,"smaller_num":"9","larger_num":"18","correct_side":2,"subjID":"danielfelipebarriospacheco32","gender":"0","age":"11","school":"6"},{"start_time":1551881413659,"click_time":1551881414716,"finger_time":1551881414316,"fix_duration":1421.4293907189665,"trial":46,"RT":657,"MT":400,"sideResp":2,"stimulus":"img/900/equaldotanddens/R/3_Ratio_900_L_9_R_10.png","xmouse":[790,790,790,790,790,790,790,790,790,790,790,790,790,790,790,790,790,790,790,790,790,790,790,790,790,790,790,790,791,798,807,816,835,845,857,870,882,907,917,926,935,940,942,945,948,950,955,961,989,1014,1028,1041,1067],"ymouse":[542,542,542,542,542,542,542,542,542,542,542,542,542,542,542,542,542,542,542,542,542,542,542,542,542,542,542,542,535,516,499,485,456,442,425,405,386,351,332,316,297,289,284,273,265,259,247,231,183,140,121,102,70],"timestamp_mouse":[21,40,56,76,97,116,136,157,176,196,216,236,256,277,297,316,337,357,377,397,416,437,457,476,497,516,536,556,576,597,616,636,657,676,697,716,737,757,775,797,816,836,856,876,896,916,936,956,977,996,1016,1036,1057],"xSR":741.5,"ySR":469.95,"xT1":424.9,"yT1":0,"xT2":1058.1,"yT2":0,"toosoon":0,"cond_shown":"equaldotanddens","ratio_trial":900,"smaller_num":"9","larger_num":"10","correct_side":2,"subjID":"danielfelipebarriospacheco32","gender":"0","age":"11","school":"6"},{"start_time":1551881417074,"click_time":1551881418675,"finger_time":1551881417856,"fix_duration":1456.2686884116783,"trial":47,"RT":782,"MT":819,"sideResp":2,"stimulus":"img/500/randomdotsizeEA/R/9_Ratio_500_L_2_R_4.png","xmouse":[800,800,800,800,800,800,800,800,800,800,800,800,800,800,800,800,800,800,800,800,800,800,800,800,800,800,800,800,800,800,800,799,797,790,785,782,776,772,751,734,708,693,675,672,672,672,672,672,672,672,678,695,750,792,836,877,925,958,1031,1093,1132,1156,1167,1171,1171,1166,1160,1153,1141,1134,1132,1131,1130,1126,1124,1120,1115,1104,1097,1094,1084],"ymouse":[543,543,543,543,543,543,543,543,543,543,543,543,543,543,543,543,543,543,543,543,543,543,543,543,543,543,543,543,543,543,543,543,541,534,529,526,518,510,480,458,427,411,398,396,396,396,396,396,396,396,398,406,420,423,423,423,412,403,374,347,325,306,292,262,250,238,225,213,194,186,185,184,184,182,181,178,173,146,121,110,74],"timestamp_mouse":[8,21,41,61,81,101,121,141,162,181,201,222,243,261,281,300,321,342,362,382,401,422,442,462,481,502,521,541,561,581,602,621,641,662,682,702,721,741,762,782,801,821,842,861,881,901,921,941,961,981,1001,1021,1042,1062,1081,1101,1121,1141,1161,1182,1202,1221,1242,1261,1281,1301,1321,1342,1361,1381,1401,1422,1441,1461,1482,1502,1521,1542,1561,1581,1601],"xSR":741.5,"ySR":469.95,"xT1":424.9,"yT1":0,"xT2":1058.1,"yT2":0,"toosoon":0,"cond_shown":"randomdotsizeEA","ratio_trial":500,"smaller_num":"2","larger_num":"4","correct_side":2,"subjID":"danielfelipebarriospacheco32","gender":"0","age":"11","school":"6"},{"start_time":1551881420089,"click_time":1551881421236,"finger_time":1551881420796,"fix_duration":610.1008742166791,"trial":48,"RT":707,"MT":440,"sideResp":1,"stimulus":"img/250/equaldotanddens/L/5_Ratio_250_L_24_R_6.png","xmouse":[803,803,803,803,803,803,803,803,803,803,803,803,803,803,803,803,803,803,803,803,803,803,803,803,803,803,803,803,803,803,802,799,790,777,760,736,707,659,620,569,501,423,331,345,345,345,345,345,345,345,345,345,345,345,345,345,448,456],"ymouse":[548,548,548,548,548,548,548,548,548,548,548,548,548,548,548,548,548,548,548,548,548,548,548,548,548,548,548,548,548,548,548,546,540,533,522,506,488,461,438,407,359,291,124,13,13,13,13,13,13,13,13,13,13,13,13,13,0,21],"timestamp_mouse":[10,43,47,67,87,106,127,146,166,186,206,226,247,267,286,306,327,346,366,387,407,426,447,466,487,506,527,546,567,586,606,627,646,666,687,707,726,746,766,786,807,827,846,866,886,906,928,947,967,986,1007,1027,1046,1066,1086,1106,1127,1147],"xSR":741.5,"ySR":469.95,"xT1":424.9,"yT1":0,"xT2":1058.1,"yT2":0,"toosoon":0,"cond_shown":"equaldotanddens","ratio_trial":250,"smaller_num":"6","larger_num":"24","correct_side":1,"subjID":"danielfelipebarriospacheco32","gender":"0","age":"11","school":"6"},{"start_time":1551881422426,"click_time":1551881423335,"finger_time":1551881423195,"fix_duration":308.23760762833155,"trial":49,"RT":769,"MT":140,"sideResp":2,"stimulus":"img/900/randomdotsizeEA/L/1_Ratio_900_L_10_R_9.png","xmouse":[779,779,779,779,779,779,779,779,779,779,779,779,779,779,779,779,779,779,779,779,779,779,779,779,779,779,779,779,779,779,779,779,779,779,779,779,780,782,788,835,897,919,974,1009,1045,1108],"ymouse":[494,494,494,494,494,494,494,494,494,494,494,494,494,494,494,494,494,494,494,494,494,494,494,494,494,494,494,494,494,494,494,494,494,494,494,494,491,485,466,398,322,299,244,211,171,96],"timestamp_mouse":[9,37,49,70,90,109,130,149,171,189,210,229,250,269,290,310,330,349,371,389,409,429,449,469,489,510,529,549,569,590,610,629,649,670,690,710,729,750,769,790,809,829,849,870,889,909],"xSR":741.5,"ySR":469.95,"xT1":424.9,"yT1":0,"xT2":1058.1,"yT2":0,"toosoon":0,"cond_shown":"randomdotsizeEA","ratio_trial":900,"smaller_num":"9","larger_num":"10","correct_side":1,"subjID":"danielfelipebarriospacheco32","gender":"0","age":"11","school":"6"},{"start_time":1551881425967,"click_time":1551881426835,"finger_time":1551881426636,"fix_duration":250,"trial":50,"RT":669,"MT":199,"sideResp":1,"stimulus":"img/500/equaldotanddens/L/8_Ratio_500_L_8_R_4.png","xmouse":[798,798,798,798,798,798,798,798,798,798,798,798,798,798,798,798,798,798,798,798,798,798,798,798,798,798,798,798,798,790,779,768,753,726,714,699,689,677,647,628,602,566,527,451],"ymouse":[513,513,513,513,513,513,513,513,513,513,513,513,513,513,513,513,513,513,513,513,513,513,513,513,513,513,513,513,510,501,494,486,473,445,428,402,384,363,320,303,280,245,202,95],"timestamp_mouse":[8,37,48,68,88,108,128,149,168,188,208,229,249,268,288,308,328,348,369,388,409,428,449,468,489,509,529,548,569,589,609,628,648,669,688,709,728,748,768,789,808,828,848,868],"xSR":741.5,"ySR":469.95,"xT1":424.9,"yT1":0,"xT2":1058.1,"yT2":0,"toosoon":0,"cond_shown":"equaldotanddens","ratio_trial":500,"smaller_num":"4","larger_num":"8","correct_side":1,"subjID":"danielfelipebarriospacheco32","gender":"0","age":"11","school":"6"},{"start_time":1551881428707,"click_time":1551881430975,"finger_time":1551881429716,"fix_duration":1010.5366431762136,"trial":51,"RT":1009,"MT":1259,"sideResp":1,"stimulus":"img/750/randomdotsizeEA/L/10_Ratio_750_L_4_R_3.png","xmouse":[824,824,824,824,824,824,824,824,824,824,824,824,824,824,824,824,824,824,824,824,824,824,824,824,824,824,824,824,824,824,824,824,824,824,824,824,824,824,824,824,824,824,824,824,820,816,804,786,770,748,697,659,630,608,590,571,545,532,527,525,523,523,522,522,522,522,521,520,518,516,510,507,505,502,499,493,490,489,489,489,489,489,489,489,489,489,489,489,489,489,489,489,489,489,489,489,489,489,489,489,489,489,489,489,489,489,489,489,489,489,489,489,489,489],"ymouse":[532,532,532,532,532,532,532,532,532,532,532,532,532,532,532,532,532,532,532,532,532,532,532,532,532,532,532,532,532,532,532,532,532,532,532,532,532,532,532,532,532,532,532,532,532,530,522,509,496,480,437,403,379,358,339,316,275,251,240,234,227,223,221,218,216,215,210,204,198,192,179,172,168,162,155,140,128,122,117,114,112,110,109,108,106,106,106,106,106,106,106,106,106,106,106,106,106,106,105,105,104,104,104,104,104,104,104,104,104,104,103,102,100,99],"timestamp_mouse":[9,28,48,68,88,109,128,148,169,188,209,229,249,268,288,308,329,348,369,389,408,428,450,470,488,509,528,548,568,588,608,629,649,668,688,709,729,749,768,789,808,828,848,868,889,908,928,948,968,988,1009,1028,1049,1068,1088,1108,1128,1148,1169,1188,1209,1228,1248,1268,1288,1308,1328,1348,1368,1389,1410,1428,1448,1470,1488,1509,1528,1548,1568,1588,1608,1629,1649,1668,1689,1710,1729,1749,1768,1788,1809,1828,1848,1868,1888,1909,1928,1948,1968,1989,2008,2028,2048,2069,2088,2108,2129,2148,2169,2188,2208,2228,2248,2268],"xSR":741.5,"ySR":469.95,"xT1":424.9,"yT1":0,"xT2":1058.1,"yT2":0,"toosoon":0,"cond_shown":"randomdotsizeEA","ratio_trial":750,"smaller_num":"3","larger_num":"4","correct_side":1,"subjID":"danielfelipebarriospacheco32","gender":"0","age":"11","school":"6"},{"start_time":1551881433259,"click_time":1551881434175,"finger_time":1551881434036,"fix_duration":1162.0299471383971,"trial":52,"RT":777,"MT":139,"sideResp":2,"stimulus":"img/250/randomdotsizeEA/R/12_Ratio_250_L_5_R_20.png","xmouse":[791,791,791,791,791,791,791,791,791,791,791,791,791,791,791,791,791,791,791,791,791,791,791,791,791,791,791,791,791,791,791,791,791,791,792,794,803,816,861,921,959,994,1058,1086,1115,1139],"ymouse":[512,512,512,512,512,512,512,512,512,512,512,512,512,512,512,512,512,512,512,512,512,512,512,512,512,512,512,512,512,512,512,512,512,512,512,512,506,497,462,413,370,311,193,147,106,72],"timestamp_mouse":[17,37,58,76,97,117,137,156,176,196,216,236,257,277,297,316,337,357,376,396,416,437,456,477,496,517,536,556,576,596,616,636,657,676,696,717,736,756,777,797,817,836,857,876,897,916],"xSR":741.5,"ySR":469.95,"xT1":424.9,"yT1":0,"xT2":1058.1,"yT2":0,"toosoon":0,"cond_shown":"randomdotsizeEA","ratio_trial":250,"smaller_num":"5","larger_num":"20","correct_side":2,"subjID":"danielfelipebarriospacheco32","gender":"0","age":"11","school":"6"},{"start_time":1551881436548,"click_time":1551881438417,"finger_time":1551881437535,"fix_duration":250,"trial":53,"RT":987,"MT":882,"sideResp":2,"stimulus":"img/250/randomdotsizeEA/R/10_Ratio_250_L_4_R_16.png","xmouse":[789,789,789,789,789,789,789,789,789,789,789,789,789,789,789,789,789,789,789,789,789,789,789,789,789,789,789,789,789,789,789,789,789,789,789,789,789,789,789,789,789,789,789,789,789,790,799,817,840,879,889,894,894,894,894,894,894,894,894,894,894,893,883,864,823,818,807,803,802,801,802,808,814,821,842,858,882,896,908,925,929,933,937,947,956,977,992,1010,1032,1041,1045,1050,1055,1068],"ymouse":[522,522,522,522,522,522,522,522,522,522,522,522,522,522,522,522,522,522,522,522,522,522,522,522,522,522,522,522,522,522,522,522,522,522,522,522,522,522,522,522,522,522,522,522,522,520,512,497,482,460,455,452,452,452,452,452,452,452,452,452,451,450,443,432,406,402,392,384,377,358,350,342,333,326,308,293,272,258,246,222,215,209,204,192,183,169,160,148,133,126,123,119,113,99],"timestamp_mouse":[8,32,47,68,88,107,127,147,168,187,208,228,248,267,287,308,327,347,367,388,407,427,447,467,487,507,527,547,568,587,607,627,647,669,688,709,727,747,768,788,807,827,848,868,888,907,928,947,967,987,1008,1027,1048,1068,1088,1108,1128,1147,1168,1187,1207,1227,1247,1268,1287,1307,1327,1348,1368,1387,1408,1427,1447,1467,1488,1507,1527,1547,1568,1587,1608,1628,1647,1668,1687,1708,1727,1748,1768,1786,1808,1827,1847,1868],"xSR":741.5,"ySR":469.95,"xT1":424.9,"yT1":0,"xT2":1058.1,"yT2":0,"toosoon":0,"cond_shown":"randomdotsizeEA","ratio_trial":250,"smaller_num":"4","larger_num":"16","correct_side":2,"subjID":"danielfelipebarriospacheco32","gender":"0","age":"11","school":"6"},{"start_time":1551881440057,"click_time":1551881442155,"finger_time":1551881441335,"fix_duration":741.930556601904,"trial":54,"RT":1278,"MT":820,"sideResp":2,"stimulus":"img/250/randomdotsizeEA/R/11_Ratio_250_L_3_R_12.png","xmouse":[801,801,801,801,801,801,801,801,801,801,801,801,801,801,801,801,801,801,801,801,801,801,801,801,801,801,801,801,801,801,801,801,801,801,801,801,801,801,801,801,801,801,801,801,794,784,776,772,770,770,770,770,770,770,770,770,770,770,770,770,768,763,757,750,748,748,748,748,748,748,748,748,748,748,748,748,748,748,748,748,748,749,751,757,759,762,768,774,777,778,780,785,802,815,834,856,884,943,965,990,1011,1028,1062,1074,1083],"ymouse":[510,510,510,510,510,510,510,510,510,510,510,510,510,510,510,510,510,510,510,510,510,510,510,510,510,510,510,510,510,510,510,510,510,510,510,510,510,510,510,510,510,510,510,510,509,503,498,494,491,491,491,491,491,491,491,491,491,491,491,491,490,480,470,454,450,448,447,447,447,447,447,447,447,447,447,447,447,447,447,447,448,450,454,462,464,466,468,471,471,471,471,468,458,450,438,421,401,350,328,292,260,217,131,110,93],"timestamp_mouse":[19,42,58,78,98,118,139,158,180,199,218,239,258,279,298,319,338,359,379,398,418,439,459,480,499,519,538,559,578,598,619,639,658,679,698,718,738,759,780,798,819,839,858,879,898,918,939,959,978,998,1019,1039,1059,1079,1099,1118,1139,1158,1179,1198,1219,1239,1259,1278,1299,1318,1339,1358,1378,1398,1418,1438,1460,1478,1498,1518,1538,1559,1578,1598,1618,1638,1658,1678,1699,1718,1738,1759,1778,1798,1818,1838,1859,1878,1898,1918,1938,1959,1978,1999,2018,2038,2059,2078,2098],"xSR":741.5,"ySR":469.95,"xT1":424.9,"yT1":0,"xT2":1058.1,"yT2":0,"toosoon":0,"cond_shown":"randomdotsizeEA","ratio_trial":250,"smaller_num":"3","larger_num":"12","correct_side":2,"subjID":"danielfelipebarriospacheco32","gender":"0","age":"11","school":"6"},{"start_time":1551881444870,"click_time":1551881446175,"finger_time":1551881445535,"fix_duration":553.5441568740665,"trial":55,"RT":665,"MT":640,"sideResp":1,"stimulus":"img/250/randomdotsizeEA/L/14_Ratio_250_L_12_R_3.png","xmouse":[751,751,751,751,751,751,751,751,751,751,751,751,752,752,754,756,757,759,759,759,759,759,759,759,759,759,759,759,759,759,759,759,760,713,686,675,672,671,670,670,670,668,664,629,603,585,569,548,479,436,381,361,352,350,350,350,350,350,350,350,351,362,385,402,421,436],"ymouse":[526,526,526,526,526,526,526,526,526,526,526,526,527,527,528,528,529,530,530,530,530,530,530,530,530,530,530,530,530,530,530,530,523,401,309,271,259,256,253,253,251,249,245,229,219,211,201,187,150,130,108,103,99,98,98,98,98,98,98,98,98,98,98,98,98,98],"timestamp_mouse":[5,25,46,65,85,106,126,146,166,185,206,225,245,266,285,305,325,345,366,385,405,425,446,465,485,505,525,547,566,585,606,625,645,665,686,705,726,745,765,785,805,826,845,865,886,905,926,945,965,985,1005,1025,1047,1065,1085,1106,1125,1145,1165,1185,1206,1225,1246,1265,1285,1305],"xSR":741.5,"ySR":469.95,"xT1":424.9,"yT1":0,"xT2":1058.1,"yT2":0,"toosoon":0,"cond_shown":"randomdotsizeEA","ratio_trial":250,"smaller_num":"3","larger_num":"12","correct_side":1,"subjID":"danielfelipebarriospacheco32","gender":"0","age":"11","school":"6"},{"start_time":1551881447677,"click_time":1551881448836,"finger_time":1551881448616,"fix_duration":680.5201032252631,"trial":56,"RT":939,"MT":220,"sideResp":1,"stimulus":"img/900/equaldotanddens/R/5_Ratio_900_L_9_R_10.png","xmouse":[821,821,821,821,821,821,821,821,821,821,821,821,821,821,821,821,821,821,821,821,821,821,821,821,821,821,821,821,821,821,823,825,825,825,825,825,825,825,825,825,825,825,825,825,825,825,803,771,723,700,682,658,601,573,553,539,527,523],"ymouse":[488,488,488,488,488,488,488,488,488,488,488,488,488,488,488,488,488,488,488,488,488,488,488,488,488,488,488,488,488,487,485,483,482,482,482,482,482,482,482,482,482,482,482,482,482,476,438,380,311,284,262,229,142,110,89,77,58,52],"timestamp_mouse":[18,41,58,79,98,118,139,159,178,198,219,239,258,279,299,318,339,359,378,398,418,439,458,478,499,518,539,559,578,598,618,638,660,679,698,719,739,759,778,798,818,838,859,878,898,918,939,958,979,999,1018,1038,1059,1078,1098,1119,1139,1159],"xSR":741.5,"ySR":469.95,"xT1":424.9,"yT1":0,"xT2":1058.1,"yT2":0,"toosoon":0,"cond_shown":"equaldotanddens","ratio_trial":900,"smaller_num":"9","larger_num":"10","correct_side":2,"subjID":"danielfelipebarriospacheco32","gender":"0","age":"11","school":"6"},{"start_time":1551881451597,"click_time":1551881453135,"finger_time":1551881452616,"fix_duration":359.4616302954341,"trial":57,"RT":1019,"MT":519,"sideResp":2,"stimulus":"img/900/randomdotsizeEA/L/2_Ratio_900_L_20_R_18.png","xmouse":[782,782,782,782,782,782,782,782,782,782,782,782,782,782,782,782,782,782,782,782,782,782,782,782,782,782,782,782,782,782,782,782,782,782,782,782,782,782,782,782,782,782,782,782,782,782,782,782,782,791,801,842,868,874,876,876,876,876,876,876,876,876,878,879,881,883,887,899,906,915,927,961,993,1013,1024,1037,1048,1062],"ymouse":[542,542,542,542,542,542,542,542,542,542,542,542,542,542,542,542,542,542,542,542,542,542,542,542,542,542,542,542,542,542,542,542,542,542,542,542,542,542,542,542,542,542,542,542,542,542,542,542,542,533,527,503,488,483,483,483,483,483,483,483,483,483,481,476,468,458,446,417,401,381,352,273,215,176,148,120,95,60],"timestamp_mouse":[1,18,38,59,78,99,118,138,159,178,198,219,239,258,278,298,319,338,359,378,399,418,440,459,478,498,518,539,559,578,598,618,638,659,678,699,718,739,758,778,798,818,838,859,878,898,918,938,958,978,999,1019,1038,1058,1078,1098,1119,1138,1159,1179,1198,1218,1238,1258,1278,1298,1319,1338,1358,1379,1398,1419,1438,1459,1478,1498,1519,1538],"xSR":741.5,"ySR":469.95,"xT1":424.9,"yT1":0,"xT2":1058.1,"yT2":0,"toosoon":0,"cond_shown":"randomdotsizeEA","ratio_trial":900,"smaller_num":"18","larger_num":"20","correct_side":1,"subjID":"danielfelipebarriospacheco32","gender":"0","age":"11","school":"6"},{"start_time":1551881455339,"click_time":1551881456116,"finger_time":1551881456036,"fix_duration":1180.6462916177868,"trial":58,"RT":697,"MT":80,"sideResp":1,"stimulus":"img/900/equaldotsize/R/13_Ratio_900_L_18_R_20.png","xmouse":[814,814,814,814,814,814,814,814,814,814,814,814,814,814,814,814,814,814,814,814,814,814,814,814,814,814,814,814,814,814,814,814,814,815,799,697,609,537,503],"ymouse":[486,486,486,486,486,486,486,486,486,486,486,486,486,486,486,486,486,486,486,486,486,486,486,486,486,486,486,486,486,486,486,486,486,484,451,304,197,123,96],"timestamp_mouse":[17,45,56,76,97,116,136,156,176,196,216,236,256,276,296,317,336,356,377,396,416,436,456,477,496,517,537,557,576,597,616,636,656,677,697,716,737,756,777],"xSR":741.5,"ySR":469.95,"xT1":424.9,"yT1":0,"xT2":1058.1,"yT2":0,"toosoon":0,"cond_shown":"equaldotsize","ratio_trial":900,"smaller_num":"18","larger_num":"20","correct_side":2,"subjID":"danielfelipebarriospacheco32","gender":"0","age":"11","school":"6"},{"start_time":1551881460404,"click_time":1551881461535,"finger_time":1551881461156,"fix_duration":1266.817359972127,"trial":59,"RT":752,"MT":379,"sideResp":2,"stimulus":"img/500/equaldotanddens/R/2_Ratio_500_L_3_R_6.png","xmouse":[807,807,807,807,807,807,807,807,807,807,807,807,807,807,807,807,807,807,807,807,807,807,807,807,807,807,807,807,807,807,807,807,807,807,807,810,821,843,870,900,918,929,931,933,934,938,949,957,968,980,991,1012,1025,1034,1044,1062,1066],"ymouse":[508,508,508,508,508,508,508,508,508,508,508,508,508,508,508,508,508,508,508,508,508,508,508,508,508,508,508,508,508,508,508,508,508,508,508,503,486,456,417,378,352,328,323,321,316,307,281,263,241,220,199,166,148,136,125,100,92],"timestamp_mouse":[11,31,51,72,91,112,131,152,172,191,212,231,252,271,292,313,331,352,371,391,412,431,452,471,491,511,532,552,572,591,611,631,651,672,691,712,731,752,772,791,812,831,852,871,891,911,931,951,971,993,1011,1031,1052,1071,1092,1112,1131],"xSR":741.5,"ySR":469.95,"xT1":424.9,"yT1":0,"xT2":1058.1,"yT2":0,"toosoon":0,"cond_shown":"equaldotanddens","ratio_trial":500,"smaller_num":"3","larger_num":"6","correct_side":2,"subjID":"danielfelipebarriospacheco32","gender":"0","age":"11","school":"6"},{"start_time":1551881465863,"click_time":1551881467115,"finger_time":1551881466616,"fix_duration":1085.6989604409628,"trial":60,"RT":753,"MT":499,"sideResp":1,"stimulus":"img/750/randomdotsizeEA/R/2_Ratio_750_L_6_R_8.png","xmouse":[762,762,762,762,762,762,762,762,762,762,762,762,762,762,762,762,762,762,762,762,762,762,762,762,762,762,762,762,762,762,762,761,759,758,758,758,757,746,740,729,719,706,664,638,611,582,559,544,535,532,530,526,519,504,497,495,495,495,495,494,493,492,489],"ymouse":[546,546,546,546,546,546,546,546,546,546,546,546,546,546,546,546,546,546,546,546,546,546,546,546,546,546,546,546,546,546,540,530,519,513,512,510,504,468,446,410,386,362,290,254,216,179,156,144,136,133,130,126,123,117,115,114,114,114,114,113,109,102,92],"timestamp_mouse":[12,46,53,72,93,113,133,152,172,193,213,232,253,272,292,313,332,352,372,393,412,432,453,472,492,512,533,552,573,593,613,633,653,672,692,713,733,753,772,793,812,832,853,872,892,912,932,952,972,993,1012,1032,1052,1073,1092,1112,1132,1152,1172,1192,1212,1232,1252],"xSR":741.5,"ySR":469.95,"xT1":424.9,"yT1":0,"xT2":1058.1,"yT2":0,"toosoon":0,"cond_shown":"randomdotsizeEA","ratio_trial":750,"smaller_num":"6","larger_num":"8","correct_side":2,"subjID":"danielfelipebarriospacheco32","gender":"0","age":"11","school":"6"},{"start_time":1551881468626,"click_time":1551881469875,"finger_time":1551881469236,"fix_duration":790.7363112781181,"trial":61,"RT":610,"MT":639,"sideResp":2,"stimulus":"img/750/equaldotanddens/R/2_Ratio_750_L_6_R_8.png","xmouse":[775,775,775,775,775,775,775,775,775,775,775,775,775,775,775,775,775,775,775,775,775,775,775,775,775,775,775,775,781,789,888,967,1085,1138,1206,1221,1232,1236,1240,1247,1251,1251,1247,1241,1234,1228,1223,1218,1212,1210,1207,1207,1206,1206,1204,1204,1204,1203,1202,1199,1190,1171,1153],"ymouse":[524,524,524,524,524,524,524,524,524,524,524,524,524,524,524,524,524,524,524,524,524,524,524,524,524,524,524,524,519,511,425,367,297,265,213,198,183,174,163,137,116,94,61,42,28,17,14,10,7,7,6,6,6,7,10,11,11,12,17,21,31,40,45],"timestamp_mouse":[10,38,49,69,89,109,130,149,169,189,209,229,250,270,290,310,329,349,369,389,409,430,450,469,490,509,529,549,569,589,610,629,649,669,690,709,730,749,770,790,809,829,849,869,889,909,929,949,969,989,1009,1029,1049,1069,1091,1109,1130,1149,1169,1189,1210,1229,1249],"xSR":741.5,"ySR":469.95,"xT1":424.9,"yT1":0,"xT2":1058.1,"yT2":0,"toosoon":0,"cond_shown":"equaldotanddens","ratio_trial":750,"smaller_num":"6","larger_num":"8","correct_side":2,"subjID":"danielfelipebarriospacheco32","gender":"0","age":"11","school":"6"},{"start_time":1551881471893,"click_time":1551881472855,"finger_time":1551881472454,"fix_duration":1094.660911768979,"trial":62,"RT":561,"MT":401,"sideResp":2,"stimulus":"img/750/equaldotsize/R/4_Ratio_750_L_15_R_20.png","xmouse":[777,777,777,777,777,777,777,777,777,777,777,777,777,777,777,777,777,777,777,777,777,777,777,777,777,779,792,813,863,911,955,1028,1048,1060,1067,1072,1086,1098,1101,1114,1118,1122,1122,1122,1122,1122,1121,1118,1115],"ymouse":[537,537,537,537,537,537,537,537,537,537,537,537,537,537,537,537,537,537,537,537,537,537,537,537,537,536,522,504,468,437,409,352,334,320,306,296,266,243,235,204,189,163,155,147,142,135,122,100,91],"timestamp_mouse":[10,21,41,63,82,103,123,142,163,182,203,221,242,262,282,301,322,343,362,381,403,422,442,462,482,502,523,543,561,581,602,623,641,662,682,702,723,742,762,782,803,823,842,862,881,902,923,942,962],"xSR":741.5,"ySR":469.95,"xT1":424.9,"yT1":0,"xT2":1058.1,"yT2":0,"toosoon":0,"cond_shown":"equaldotsize","ratio_trial":750,"smaller_num":"15","larger_num":"20","correct_side":2,"subjID":"danielfelipebarriospacheco32","gender":"0","age":"11","school":"6"},{"start_time":1551881474320,"click_time":1551881475096,"finger_time":1551881474955,"fix_duration":464.9338336700547,"trial":63,"RT":635,"MT":141,"sideResp":1,"stimulus":"img/500/equaldotsize/L/10_Ratio_500_L_4_R_2.png","xmouse":[837,837,837,837,837,837,837,837,837,837,837,837,837,837,837,837,837,837,837,837,837,837,837,837,837,837,837,837,837,837,834,804,753,684,632,573,549,535,519],"ymouse":[504,504,504,504,504,504,504,504,504,504,504,504,504,504,504,504,504,504,504,504,504,504,504,504,504,504,504,504,504,504,501,457,372,276,193,119,94,83,71],"timestamp_mouse":[15,35,55,76,95,116,136,154,175,194,216,235,256,276,296,316,335,355,375,395,415,435,455,475,495,515,535,556,576,595,615,635,655,674,694,715,735,755,776],"xSR":741.5,"ySR":469.95,"xT1":424.9,"yT1":0,"xT2":1058.1,"yT2":0,"toosoon":0,"cond_shown":"equaldotsize","ratio_trial":500,"smaller_num":"2","larger_num":"4","correct_side":1,"subjID":"danielfelipebarriospacheco32","gender":"0","age":"11","school":"6"},{"start_time":1551881476601,"click_time":