[{"start_time":1551880552934,"click_time":1551880566855,"finger_time":1551880552942,"fix_duration":455.96762180303983,"trial":0,"RT":8,"MT":13913,"sideResp":2,"stimulus":[],"xmouse":[767,767,767,767,767,767,767,767,767,767,767,767,767,767,767,767,767,767,767,767,767,767,767,767,767,767,767,767,767,767,767,767,767,767,767,767,767,767,767,767,767,767,767,767,767,767,767,767,767,767,767,767,767,767,767,767,767,767,767,767,767,767,767,767,767,767,767,767,767,767,767,767,767,767,767,767,767,767,767,767,767,767,767,767,767,767,767,767,767,767,767,767,767,767,767,767,767,767,767,767,767,767,767,767,767,767,767,767,767,767,767,767,767,767,767,767,767,767,767,767,767,767,767,767,767,767,767,767,767,767,767,767,767,767,767,767,767,767,767,767,767,767,767,767,767,767,767,767,767,767,767,767,767,767,767,767,767,767,767,767,767,767,767,767,767,767,767,767,767,767,767,767,767,767,767,767,767,767,767,767,767,767,767,767,767,767,767,767,767,767,767,767,767,767,767,767,767,767,767,767,767,767,767,767,767,767,767,767,767,767,767,767,767,767,767,767,767,767,767,767,767,767,767,767,767,767,767,767,767,767,767,767,767,767,767,767,767,767,767,767,767,767,767,767,767,767,767,774,785,789,796,800,803,803,803,803,803,803,803,803,803,803,803,803,803,803,803,803,803,803,803,803,803,803,803,803,803,803,803,803,806,829,946,951,952,952,952,952,952,952,952,952,952,952,952,952,952,952,952,952,952,952,952,952,952,952,952,952,952,952,952,952,952,952,952,952,952,952,952,952,952,952,952,952,952,952,952,952,952,952,952,952,952,952,951,942,917,846,821,816,816,816,816,816,816,816,815,815,810,801,787,770,737,731,729,729,728,728,730,734,736,738,742,743,746,748,749,750,753,754,754,756,759,761,763,764,777,852,908,954,955,955,945,936,928,921,917,913,911,908,908,907,900,890,875,855,835,820,813,813,813,813,813,813,813,811,811,811,811,811,811,811,811,811,811,811,809,805,791,786,783,781,781,781,781,781,781,781,781,781,781,781,781,781,781,781,781,781,781,781,781,781,781,781,781,781,781,781,781,781,781,781,781,781,781,781,781,781,781,781,781,781,781,781,781,781,781,781,781,781,781,781,781,781,781,781,781,781,781,781,781,781,781,781,781,781,781,781,781,781,781,781,781,781,781,781,781,781,781,781,781,781,781,781,781,781,781,781,782,782,782,783,783,783,783,784,784,785,785,785,786,786,786,786,786,786,786,786,786,786,786,786,786,786,786,786,786,786,786,786,786,786,786,786,786,786,786,786,786,786,786,786,786,786,786,786,786,786,786,786,786,786,786,786,786,786,786,786,786,786,786,786,786,786,786,786,786,786,786,786,786,786,786,786,786,786,786,786,786,786,786,786,786,786,786,786,786,786,786,786,786,786,786,786,786,786,786,786,786,786,786,786,786,786,787,787,787,787,787,787,787,788,797,806,819,831,842,864,884,892,892,892,892,880,863,837,810,785,783,783,783,783,783,783,783,783,783,783,784,784,785,786,786,786,786,786,787,789,798,798,790,783,773,763,745,735,734,734,734,734,734,740,783,809,846,893,934,1027,1095,1130,1144,1146,1146,1154,1164,1174,1185,1194,1194,1194,1194,1194,1194,1182,1166,1160,1158],"ymouse":[559,559,559,559,559,559,559,559,559,559,559,559,559,559,559,559,559,559,559,559,559,559,559,559,559,559,559,559,559,559,559,559,559,559,559,559,559,559,559,559,559,559,559,559,559,559,559,559,559,559,559,559,559,559,559,559,559,559,559,559,559,559,559,559,559,559,559,559,559,559,559,559,559,559,559,559,559,559,559,559,559,559,559,559,559,559,559,559,559,559,559,559,559,559,559,559,559,559,559,559,559,559,559,559,559,559,559,559,559,559,559,559,559,559,559,559,559,559,559,559,559,559,559,559,559,559,559,559,559,559,559,559,559,559,559,559,559,559,559,559,559,559,559,559,559,559,559,559,559,559,559,559,559,559,559,559,559,559,559,559,559,559,559,559,559,559,559,559,559,559,559,559,559,559,559,559,559,559,559,559,559,559,559,559,559,559,559,559,559,559,559,559,559,559,559,559,559,559,559,559,559,559,559,559,559,559,559,559,559,559,559,559,559,559,559,559,559,559,559,559,559,559,559,559,559,559,559,559,559,559,559,559,559,559,559,559,559,559,559,559,559,559,559,559,559,559,559,565,580,588,599,608,615,616,616,616,616,616,616,616,616,616,616,616,616,616,616,616,616,616,616,616,616,616,616,616,616,616,616,616,616,597,501,498,498,498,498,498,498,498,498,498,498,498,498,498,498,498,498,498,498,498,498,498,498,498,498,498,498,498,498,498,498,498,498,498,498,498,498,498,498,498,498,498,498,498,498,498,498,498,498,498,498,498,504,526,576,664,680,682,682,682,682,682,682,682,682,682,678,666,649,633,614,611,611,611,610,610,615,617,619,620,626,628,631,632,633,633,635,636,636,637,638,638,638,638,642,665,685,698,699,699,695,691,687,686,685,684,684,684,684,684,684,686,689,694,697,698,698,698,698,698,698,698,698,699,702,705,705,705,705,705,705,705,699,688,673,656,622,614,608,605,602,602,602,602,602,602,602,602,602,602,602,602,602,602,602,602,602,602,602,602,602,602,602,602,602,602,602,602,602,602,602,602,602,602,602,602,602,602,602,602,602,602,602,602,602,602,602,602,602,602,602,602,602,602,602,602,602,602,602,602,602,602,602,602,602,602,602,602,602,602,602,602,602,602,602,602,602,602,602,602,602,602,602,602,602,592,588,586,580,574,571,564,561,558,557,554,552,551,550,550,550,550,550,550,550,550,550,550,550,550,550,550,550,550,550,550,550,550,550,550,550,550,550,550,550,550,550,550,550,550,550,550,550,550,550,550,550,550,550,550,550,550,550,550,550,550,550,550,550,550,550,550,550,550,550,550,550,550,550,550,550,550,550,550,550,550,550,550,550,550,550,550,550,550,550,550,550,550,550,550,550,550,550,550,550,550,550,550,550,550,550,550,550,550,550,550,550,550,550,551,572,589,610,630,646,690,747,765,767,767,767,731,700,657,620,592,589,589,589,589,589,589,589,589,592,596,603,605,607,609,609,609,609,609,611,616,681,718,742,752,759,764,768,769,769,769,754,731,703,640,465,386,295,185,90,0,0,0,0,0,0,0,0,0,0,2,2,3,3,3,3,8,13,15,15],"timestamp_mouse":[8,21,40,60,80,101,120,141,161,180,200,220,240,260,281,301,321,340,360,379,401,421,441,460,480,500,521,540,560,580,600,620,640,661,680,701,721,740,760,780,800,820,840,861,880,900,921,940,961,981,1000,1020,1040,1060,1079,1100,1121,1140,1160,1180,1201,1220,1240,1260,1280,1301,1319,1341,1361,1381,1401,1420,1440,1460,1481,1500,1521,1540,1560,1579,1600,1620,1640,1661,1680,1701,1721,1740,1761,1780,1800,1820,1841,1861,1879,1901,1921,1940,1960,1981,2000,2021,2040,2060,2081,2101,2120,2140,2160,2180,2201,2221,2240,2261,2280,2301,2320,2340,2360,2380,2400,2420,2440,2460,2480,2501,2521,2540,2560,2580,2600,2621,2640,2660,2681,2700,2721,2740,2760,2780,2801,2820,2840,2861,2881,2900,2920,2940,2960,2981,3001,3020,3041,3061,3080,3100,3121,3140,3161,3181,3200,3219,3241,3260,3280,3300,3320,3340,3360,3380,3400,3420,3440,3461,3480,3500,3520,3541,3560,3581,3600,3621,3641,3660,3680,3700,3720,3740,3761,3780,3800,3820,3840,3860,3880,3901,3920,3940,3960,3981,4000,4021,4041,4061,4081,4101,4120,4140,4159,4181,4201,4220,4241,4261,4280,4301,4320,4341,4361,4380,4400,4421,4441,4461,4481,4501,4520,4540,4560,4581,4600,4620,4641,4660,4680,4701,4720,4740,4761,4781,4801,4821,4841,4861,4880,4901,4921,4940,4961,4980,5000,5020,5040,5060,5081,5100,5121,5141,5160,5180,5200,5221,5241,5260,5280,5301,5321,5341,5361,5381,5400,5421,5440,5460,5480,5500,5520,5540,5560,5580,5600,5620,5640,5659,5681,5701,5720,5741,5760,5780,5800,5820,5841,5860,5881,5901,5920,5941,5961,5981,6000,6020,6040,6061,6081,6100,6121,6141,6161,6181,6200,6221,6241,6260,6280,6301,6321,6341,6361,6380,6400,6421,6440,6461,6480,6500,6520,6540,6559,6581,6599,6621,6641,6661,6680,6700,6721,6740,6760,6781,6800,6819,6840,6860,6881,6901,6920,6940,6961,6980,7001,7020,7040,7060,7080,7100,7121,7140,7160,7180,7201,7221,7241,7260,7280,7301,7320,7340,7360,7380,7400,7420,7440,7460,7480,7500,7520,7540,7561,7580,7601,7621,7639,7660,7681,7700,7720,7739,7759,7780,7800,7820,7840,7860,7880,7901,7920,7940,7960,7980,8000,8020,8041,8061,8080,8101,8120,8140,8159,8180,8201,8221,8240,8260,8281,8300,8320,8340,8360,8380,8400,8421,8440,8460,8480,8501,8520,8541,8560,8581,8600,8621,8640,8660,8681,8701,8721,8741,8761,8781,8801,8820,8841,8860,8880,8901,8920,8940,8960,8981,9001,9020,9041,9061,9080,9100,9120,9140,9160,9181,9199,9221,9241,9262,9281,9301,9321,9341,9360,9381,9401,9420,9440,9460,9480,9500,9520,9541,9560,9580,9600,9621,9641,9661,9680,9700,9720,9741,9760,9780,9800,9820,9841,9860,9881,9901,9920,9940,9961,9979,10001,10019,10040,10061,10079,10101,10120,10141,10161,10180,10200,10221,10240,10260,10280,10301,10321,10341,10360,10380,10400,10420,10440,10460,10481,10500,10520,10541,10560,10581,10601,10621,10640,10660,10681,10701,10721,10741,10760,10781,10800,10821,10840,10860,10880,10901,10920,10941,10960,10980,10999,11021,11040,11060,11081,11100,11120,11141,11161,11181,11201,11220,11240,11260,11281,11300,11321,11339,11359,11380,11401,11420,11440,11460,11480,11500,11520,11540,11560,11580,11601,11620,11640,11660,11680,11700,11721,11740,11760,11781,11800,11821,11840,11859,11881,11900,11921,11940,11960,11980,11999,12021,12041,12060,12080,12099,12120,12141,12161,12181,12200,12221,12239,12260,12280,12300,12321,12341,12360,12381,12400,12420,12439,12460,12480,12501,12520,12540,12560,12580,12601,12621,12640,12660,12680,12700,12721,12740,12761,12781,12801,12821,12840,12860,12880,12901,12921,12940,12960,12980,13000,13020,13041,13060,13080,13100,13121,13140,13160,13180,13201,13220,13241,13260,13280,13300,13320,13340,13360,13380,13402,13420,13440,13460,13480,13500,13520,13540,13560,13580,13601,13621,13640,13660,13681,13700,13721,13740,13760,13781,13800,13820,13841,13860,13880,13901,13921],"xSR":741.5,"ySR":501.8,"xT1":424.9,"yT1":0,"xT2":1058.1,"yT2":0,"toosoon":0,"cond_shown":"Congruent","ratio_trial":100,"L_num":15,"L_den":25,"R_num":13,"R_den":26,"correct_side":1,"subjID":"danielfelipebarriospacheco32","gender":"0","age":"11","school":"6","test":{"fix_dur":[250,1500],"timestim":1000,"targets_dim":[100,100],"targets_relative_coord":[0.3,0.7],"size_stim":[880,420],"start_dim":[100,100],"size_start":[300,300],"size_fix":60,"samplingrate":20,"img_types":["Congruent","Incongruent"],"ratios":[100,200,300],"rep_conds":19,"nTrials":120,"trials_to_rest":500,"Trials_order":[108,81,54,94,41,10,60,2,101,110,12,112,39,33,73,71,5,95,100,35,113,67,6,89,56,66,78,62,119,53,19,34,107,31,11,64,42,8,104,49,44,103,37,88,102,4,97,7,52,65,76,109,30,45,16,63,48,18,98,57,27,93,13,75,3,59,79,1,118,77,69,72,92,111,29,84,106,82,21,85,70,25,117,87,43,58,14,96,115,32,91,74,61,22,50,68,15,40,23,28,38,116,90,46,0,99,17,24,86,114,55,9,51,47,26,80,20,36,83,105],"cond_shown":["Congruent","Incongruent","Congruent","Congruent","Incongruent","Congruent","Congruent","Congruent","Incongruent","Congruent","Congruent","Congruent","Incongruent","Incongruent","Incongruent","Incongruent","Incongruent","Incongruent","Congruent","Incongruent","Incongruent","Incongruent","Congruent","Incongruent","Congruent","Congruent","Congruent","Congruent","Incongruent","Incongruent","Incongruent","Congruent","Incongruent","Incongruent","Incongruent","Congruent","Congruent","Congruent","Congruent","Incongruent","Congruent","Incongruent","Incongruent","Congruent","Congruent","Congruent","Incongruent","Incongruent","Congruent","Incongruent","Congruent","Incongruent","Congruent","Incongruent","Congruent","Incongruent","Congruent","Congruent","Congruent","Incongruent","Incongruent","Incongruent","Incongruent","Incongruent","Incongruent","Incongruent","Incongruent","Incongruent","Congruent","Incongruent","Incongruent","Congruent","Congruent","Incongruent","Incongruent","Congruent","Congruent","Congruent","Incongruent","Incongruent","Congruent","Incongruent","Incongruent","Incongruent","Incongruent","Congruent","Congruent","Congruent","Incongruent","Congruent","Incongruent","Congruent","Incongruent","Congruent","Congruent","Congruent","Incongruent","Congruent","Incongruent","Congruent","Congruent","Congruent","Congruent","Congruent","Congruent","Incongruent","Incongruent","Congruent","Congruent","Congruent","Incongruent","Incongruent","Incongruent","Incongruent","Congruent","Congruent","Congruent","Congruent","Incongruent","Incongruent"],"ratio_trial":[100,200,100,300,300,300,100,200,300,200,100,300,200,200,100,300,300,300,300,300,300,100,100,300,200,100,100,200,300,300,100,300,300,100,300,300,100,200,200,100,200,100,100,300,100,300,100,100,300,300,300,100,100,200,300,200,100,100,200,200,200,200,100,200,200,300,100,100,300,300,200,100,200,200,300,100,300,300,200,100,300,100,200,200,100,300,200,100,100,200,100,200,100,300,200,200,200,300,300,300,200,200,100,300,100,200,300,100,200,100,100,200,200,300,200,200,200,100,300,200],"left_num":[15,3,6,5,4,1,3,3,4,21,7,9,7,11,12,4,4,4,8,8,13,2,11,4,7,7,11,9,4,7,8,18,2,12,1,4,11,6,3,6,7,11,6,20,6,1,6,3,18,3,4,4,10,1,1,14,8,2,4,11,7,4,11,4,3,8,12,9,20,8,11,4,9,1,13,4,9,8,7,9,2,11,9,7,6,3,16,9,6,5,11,11,2,1,7,3,7,1,4,8,4,9,9,1,4,7,4,15,3,15,13,14,7,13,8,6,20,4,13,4],"right_num":[13,1,5,7,2,11,2,11,2,2,15,3,14,3,2,2,8,6,1,14,12,8,6,8,2,15,4,13,2,8,1,9,6,2,2,1,4,11,14,11,2,9,3,13,15,7,7,8,9,4,13,8,3,3,6,12,2,6,3,3,6,6,9,14,1,9,9,6,13,9,3,6,4,3,12,6,3,1,8,14,10,9,8,4,3,11,12,8,13,14,9,3,8,7,2,9,8,19,2,10,3,13,8,6,6,8,8,13,14,13,12,6,4,12,7,3,9,15,12,6],"left_den":[25,10,20,25,20,5,6,10,20,30,14,10,10,20,30,20,5,5,16,10,26,4,22,5,21,14,22,30,20,10,20,20,4,30,2,10,22,20,6,10,21,22,12,25,12,20,10,5,20,6,20,8,25,2,5,30,16,5,10,20,15,5,22,6,10,10,24,18,25,10,20,8,20,2,26,8,10,16,10,15,20,22,15,15,12,12,20,15,10,10,22,22,4,20,21,12,10,3,20,15,10,30,15,5,8,10,5,25,10,25,26,30,15,26,15,15,25,10,26,5],"right_den":[26,2,25,14,4,22,5,22,4,4,25,5,28,4,4,4,16,12,5,28,15,20,15,16,15,25,10,26,4,20,2,15,30,4,10,10,10,22,20,22,15,15,5,26,25,20,14,16,15,20,26,20,10,10,12,18,5,12,15,4,9,10,15,30,2,18,15,10,26,18,4,10,16,10,15,10,5,5,16,28,25,15,10,6,5,20,20,16,26,20,15,10,20,20,15,20,16,30,4,12,15,26,16,12,10,16,16,26,28,26,20,9,6,15,21,15,15,30,15,10],"correct_side":[1,2,1,2,2,2,1,2,2,1,2,1,1,2,2,2,1,1,1,1,2,1,1,1,1,2,1,2,2,1,2,1,1,2,1,1,1,2,2,1,1,2,2,1,2,2,1,1,1,1,2,1,1,1,2,2,1,2,1,2,2,1,2,1,2,1,2,2,1,1,2,2,1,1,2,2,1,1,1,1,2,2,2,2,2,2,1,1,1,2,2,1,1,2,1,2,1,2,2,2,1,2,1,2,2,1,1,1,2,1,2,2,2,2,1,1,1,2,2,1],"img_shown":["img2/100/Congruent/L/C_Dist_100_LN_15_LD_25_RN_13_RD_26_0.png","img2/200/Incongruent/R/I_Dist_200_LN_3_LD_10_RN_1_RD_2_1.png","img2/100/Congruent/L/C_Dist_100_LN_6_LD_20_RN_5_RD_25_0.png","img2/300/Congruent/R/C_Dist_300_LN_5_LD_25_RN_7_RD_14_1.png","img2/300/Incongruent/R/I_Dist_300_LN_4_LD_20_RN_2_RD_4_1.png","img2/300/Congruent/R/C_Dist_300_LN_1_LD_5_RN_11_RD_22_1.png","img2/100/Congruent/L/C_Dist_100_LN_3_LD_6_RN_2_RD_5_0.png","img2/200/Congruent/R/C_Dist_200_LN_3_LD_10_RN_11_RD_22_1.png","img2/300/Incongruent/R/I_Dist_300_LN_4_LD_20_RN_2_RD_4_1.png","img2/200/Congruent/L/C_Dist_200_LN_21_LD_30_RN_2_RD_4_0.png","img2/100/Congruent/R/C_Dist_100_LN_7_LD_14_RN_15_RD_25_1.png","img2/300/Congruent/L/C_Dist_300_LN_9_LD_10_RN_3_RD_5_0.png","img2/200/Incongruent/L/I_Dist_200_LN_7_LD_10_RN_14_RD_28_0.png","img2/200/Incongruent/R/I_Dist_200_LN_11_LD_20_RN_3_RD_4_1.png","img2/100/Incongruent/R/I_Dist_100_LN_12_LD_30_RN_2_RD_4_1.png","img2/300/Incongruent/R/I_Dist_300_LN_4_LD_20_RN_2_RD_4_1.png","img2/300/Incongruent/L/I_Dist_300_LN_4_LD_5_RN_8_RD_16_0.png","img2/300/Incongruent/L/I_Dist_300_LN_4_LD_5_RN_6_RD_12_0.png","img2/300/Congruent/L/C_Dist_300_LN_8_LD_16_RN_1_RD_5_0.png","img2/300/Incongruent/L/I_Dist_300_LN_8_LD_10_RN_14_RD_28_0.png","img2/300/Incongruent/R/I_Dist_300_LN_13_LD_26_RN_12_RD_15_1.png","img2/100/Incongruent/L/I_Dist_100_LN_2_LD_4_RN_8_RD_20_0.png","img2/100/Congruent/L/C_Dist_100_LN_11_LD_22_RN_6_RD_15_0.png","img2/300/Incongruent/L/I_Dist_300_LN_4_LD_5_RN_8_RD_16_0.png","img2/200/Congruent/L/C_Dist_200_LN_7_LD_21_RN_2_RD_15_0.png","img2/100/Congruent/R/C_Dist_100_LN_7_LD_14_RN_15_RD_25_1.png","img2/100/Congruent/L/C_Dist_100_LN_11_LD_22_RN_4_RD_10_0.png","img2/200/Congruent/R/C_Dist_200_LN_9_LD_30_RN_13_RD_26_1.png","img2/300/Incongruent/R/I_Dist_300_LN_4_LD_20_RN_2_RD_4_1.png","img2/300/Incongruent/L/I_Dist_300_LN_7_LD_10_RN_8_RD_20_0.png","img2/100/Incongruent/R/I_Dist_100_LN_8_LD_20_RN_1_RD_2_1.png","img2/300/Congruent/L/C_Dist_300_LN_18_LD_20_RN_9_RD_15_0.png","img2/300/Incongruent/L/I_Dist_300_LN_2_LD_4_RN_6_RD_30_0.png","img2/100/Incongruent/R/I_Dist_100_LN_12_LD_30_RN_2_RD_4_1.png","img2/300/Incongruent/L/I_Dist_300_LN_1_LD_2_RN_2_RD_10_0.png","img2/300/Congruent/L/C_Dist_300_LN_4_LD_10_RN_1_RD_10_0.png","img2/100/Congruent/L/C_Dist_100_LN_11_LD_22_RN_4_RD_10_0.png","img2/200/Congruent/R/C_Dist_200_LN_6_LD_20_RN_11_RD_22_1.png","img2/200/Congruent/R/C_Dist_200_LN_3_LD_6_RN_14_RD_20_1.png","img2/100/Incongruent/L/I_Dist_100_LN_6_LD_10_RN_11_RD_22_0.png","img2/200/Congruent/L/C_Dist_200_LN_7_LD_21_RN_2_RD_15_0.png","img2/100/Incongruent/R/I_Dist_100_LN_11_LD_22_RN_9_RD_15_1.png","img2/100/Incongruent/R/I_Dist_100_LN_6_LD_12_RN_3_RD_5_1.png","img2/300/Congruent/L/C_Dist_300_LN_20_LD_25_RN_13_RD_26_0.png","img2/100/Congruent/R/C_Dist_100_LN_6_LD_12_RN_15_RD_25_1.png","img2/300/Congruent/R/C_Dist_300_LN_1_LD_20_RN_7_RD_20_1.png","img2/100/Incongruent/L/I_Dist_100_LN_6_LD_10_RN_7_RD_14_0.png","img2/100/Incongruent/L/I_Dist_100_LN_3_LD_5_RN_8_RD_16_0.png","img2/300/Congruent/L/C_Dist_300_LN_18_LD_20_RN_9_RD_15_0.png","img2/300/Incongruent/L/I_Dist_300_LN_3_LD_6_RN_4_RD_20_0.png","img2/300/Congruent/R/C_Dist_300_LN_4_LD_20_RN_13_RD_26_1.png","img2/100/Incongruent/L/I_Dist_100_LN_4_LD_8_RN_8_RD_20_0.png","img2/100/Congruent/L/C_Dist_100_LN_10_LD_25_RN_3_RD_10_0.png","img2/200/Incongruent/L/I_Dist_200_LN_1_LD_2_RN_3_RD_10_0.png","img2/300/Congruent/R/C_Dist_300_LN_1_LD_5_RN_6_RD_12_1.png","img2/200/Incongruent/R/I_Dist_200_LN_14_LD_30_RN_12_RD_18_1.png","img2/100/Congruent/L/C_Dist_100_LN_8_LD_16_RN_2_RD_5_0.png","img2/100/Congruent/R/C_Dist_100_LN_2_LD_5_RN_6_RD_12_1.png","img2/200/Congruent/L/C_Dist_200_LN_4_LD_10_RN_3_RD_15_0.png","img2/200/Incongruent/R/I_Dist_200_LN_11_LD_20_RN_3_RD_4_1.png","img2/200/Incongruent/R/I_Dist_200_LN_7_LD_15_RN_6_RD_9_1.png","img2/200/Incongruent/L/I_Dist_200_LN_4_LD_5_RN_6_RD_10_0.png","img2/100/Incongruent/R/I_Dist_100_LN_11_LD_22_RN_9_RD_15_1.png","img2/200/Incongruent/L/I_Dist_200_LN_4_LD_6_RN_14_RD_30_0.png","img2/200/Incongruent/R/I_Dist_200_LN_3_LD_10_RN_1_RD_2_1.png","img2/300/Incongruent/L/I_Dist_300_LN_8_LD_10_RN_9_RD_18_0.png","img2/100/Incongruent/R/I_Dist_100_LN_12_LD_24_RN_9_RD_15_1.png","img2/100/Incongruent/R/I_Dist_100_LN_9_LD_18_RN_6_RD_10_1.png","img2/300/Congruent/L/C_Dist_300_LN_20_LD_25_RN_13_RD_26_0.png","img2/300/Incongruent/L/I_Dist_300_LN_8_LD_10_RN_9_RD_18_0.png","img2/200/Incongruent/R/I_Dist_200_LN_11_LD_20_RN_3_RD_4_1.png","img2/100/Congruent/R/C_Dist_100_LN_4_LD_8_RN_6_RD_10_1.png","img2/200/Congruent/L/C_Dist_200_LN_9_LD_20_RN_4_RD_16_0.png","img2/200/Incongruent/L/I_Dist_200_LN_1_LD_2_RN_3_RD_10_0.png","img2/300/Incongruent/R/I_Dist_300_LN_13_LD_26_RN_12_RD_15_1.png","img2/100/Congruent/R/C_Dist_100_LN_4_LD_8_RN_6_RD_10_1.png","img2/300/Congruent/L/C_Dist_300_LN_9_LD_10_RN_3_RD_5_0.png","img2/300/Congruent/L/C_Dist_300_LN_8_LD_16_RN_1_RD_5_0.png","img2/200/Incongruent/L/I_Dist_200_LN_7_LD_10_RN_8_RD_16_0.png","img2/100/Incongruent/L/I_Dist_100_LN_9_LD_15_RN_14_RD_28_0.png","img2/300/Congruent/R/C_Dist_300_LN_2_LD_20_RN_10_RD_25_1.png","img2/100/Incongruent/R/I_Dist_100_LN_11_LD_22_RN_9_RD_15_1.png","img2/200/Incongruent/R/I_Dist_200_LN_9_LD_15_RN_8_RD_10_1.png","img2/200/Incongruent/R/I_Dist_200_LN_7_LD_15_RN_4_RD_6_1.png","img2/100/Incongruent/R/I_Dist_100_LN_6_LD_12_RN_3_RD_5_1.png","img2/300/Congruent/R/C_Dist_300_LN_3_LD_12_RN_11_RD_20_1.png","img2/200/Congruent/L/C_Dist_200_LN_16_LD_20_RN_12_RD_20_0.png","img2/100/Congruent/L/C_Dist_100_LN_9_LD_15_RN_8_RD_16_0.png","img2/100/Incongruent/L/I_Dist_100_LN_6_LD_10_RN_13_RD_26_0.png","img2/200/Congruent/R/C_Dist_200_LN_5_LD_10_RN_14_RD_20_1.png","img2/100/Incongruent/R/I_Dist_100_LN_11_LD_22_RN_9_RD_15_1.png","img2/200/Congruent/L/C_Dist_200_LN_11_LD_22_RN_3_RD_10_0.png","img2/100/Incongruent/L/I_Dist_100_LN_2_LD_4_RN_8_RD_20_0.png","img2/300/Congruent/R/C_Dist_300_LN_1_LD_20_RN_7_RD_20_1.png","img2/200/Congruent/L/C_Dist_200_LN_7_LD_21_RN_2_RD_15_0.png","img2/200/Congruent/R/C_Dist_200_LN_3_LD_12_RN_9_RD_20_1.png","img2/200/Incongruent/L/I_Dist_200_LN_7_LD_10_RN_8_RD_16_0.png","img2/300/Congruent/R/C_Dist_300_LN_1_LD_3_RN_19_RD_30_1.png","img2/300/Incongruent/R/I_Dist_300_LN_4_LD_20_RN_2_RD_4_1.png","img2/300/Congruent/R/C_Dist_300_LN_8_LD_15_RN_10_RD_12_1.png","img2/200/Congruent/L/C_Dist_200_LN_4_LD_10_RN_3_RD_15_0.png","img2/200/Congruent/R/C_Dist_200_LN_9_LD_30_RN_13_RD_26_1.png","img2/100/Congruent/L/C_Dist_100_LN_9_LD_15_RN_8_RD_16_0.png","img2/300/Congruent/R/C_Dist_300_LN_1_LD_5_RN_6_RD_12_1.png","img2/100/Congruent/R/C_Dist_100_LN_4_LD_8_RN_6_RD_10_1.png","img2/200/Incongruent/L/I_Dist_200_LN_7_LD_10_RN_8_RD_16_0.png","img2/300/Incongruent/L/I_Dist_300_LN_4_LD_5_RN_8_RD_16_0.png","img2/100/Congruent/L/C_Dist_100_LN_15_LD_25_RN_13_RD_26_0.png","img2/200/Congruent/R/C_Dist_200_LN_3_LD_10_RN_14_RD_28_1.png","img2/100/Congruent/L/C_Dist_100_LN_15_LD_25_RN_13_RD_26_0.png","img2/100/Incongruent/R/I_Dist_100_LN_13_LD_26_RN_12_RD_20_1.png","img2/200/Incongruent/R/I_Dist_200_LN_14_LD_30_RN_6_RD_9_1.png","img2/200/Incongruent/R/I_Dist_200_LN_7_LD_15_RN_4_RD_6_1.png","img2/300/Incongruent/R/I_Dist_300_LN_13_LD_26_RN_12_RD_15_1.png","img2/200/Congruent/L/C_Dist_200_LN_8_LD_15_RN_7_RD_21_0.png","img2/200/Congruent/L/C_Dist_200_LN_6_LD_15_RN_3_RD_15_0.png","img2/200/Congruent/L/C_Dist_200_LN_20_LD_25_RN_9_RD_15_0.png","img2/100/Congruent/R/C_Dist_100_LN_4_LD_10_RN_15_RD_30_1.png","img2/300/Incongruent/R/I_Dist_300_LN_13_LD_26_RN_12_RD_15_1.png","img2/200/Incongruent/L/I_Dist_200_LN_4_LD_5_RN_6_RD_10_0.png"],"dist100_C":[["C_Dist_100_LN_10_LD_25_RN_3_RD_10_0.png","C_Dist_100_LN_11_LD_22_RN_4_RD_10_0.png","C_Dist_100_LN_11_LD_22_RN_6_RD_15_0.png","C_Dist_100_LN_15_LD_25_RN_13_RD_26_0.png","C_Dist_100_LN_3_LD_6_RN_2_RD_5_0.png","C_Dist_100_LN_6_LD_20_RN_5_RD_25_0.png","C_Dist_100_LN_8_LD_16_RN_2_RD_5_0.png","C_Dist_100_LN_9_LD_15_RN_8_RD_16_0.png"],["C_Dist_100_LN_1_LD_2_RN_18_RD_30_1.png","C_Dist_100_LN_1_LD_2_RN_3_RD_5_1.png","C_Dist_100_LN_12_LD_30_RN_13_RD_26_1.png","C_Dist_100_LN_2_LD_5_RN_11_RD_22_1.png","C_Dist_100_LN_2_LD_5_RN_6_RD_12_1.png","C_Dist_100_LN_3_LD_20_RN_4_RD_16_1.png","C_Dist_100_LN_4_LD_10_RN_15_RD_30_1.png","C_Dist_100_LN_4_LD_8_RN_6_RD_10_1.png","C_Dist_100_LN_6_LD_12_RN_15_RD_25_1.png","C_Dist_100_LN_7_LD_14_RN_15_RD_25_1.png","C_Dist_100_LN_7_LD_14_RN_9_RD_15_1.png"]],"dist100_I":[["I_Dist_100_LN_1_LD_2_RN_8_RD_20_0.png","I_Dist_100_LN_2_LD_4_RN_6_RD_15_0.png","I_Dist_100_LN_2_LD_4_RN_8_RD_20_0.png","I_Dist_100_LN_3_LD_5_RN_11_RD_22_0.png","I_Dist_100_LN_3_LD_5_RN_8_RD_16_0.png","I_Dist_100_LN_3_LD_6_RN_4_RD_10_0.png","I_Dist_100_LN_3_LD_9_RN_7_RD_30_0.png","I_Dist_100_LN_4_LD_8_RN_8_RD_20_0.png","I_Dist_100_LN_6_LD_10_RN_11_RD_22_0.png","I_Dist_100_LN_6_LD_10_RN_13_RD_26_0.png","I_Dist_100_LN_6_LD_10_RN_7_RD_14_0.png","I_Dist_100_LN_9_LD_10_RN_20_RD_25_0.png","I_Dist_100_LN_9_LD_15_RN_13_RD_26_0.png","I_Dist_100_LN_9_LD_15_RN_14_RD_28_0.png"],["I_Dist_100_LN_10_LD_25_RN_8_RD_16_1.png","I_Dist_100_LN_10_LD_25_RN_9_RD_18_1.png","I_Dist_100_LN_11_LD_22_RN_9_RD_15_1.png","I_Dist_100_LN_12_LD_24_RN_9_RD_15_1.png","I_Dist_100_LN_12_LD_30_RN_2_RD_4_1.png","I_Dist_100_LN_13_LD_26_RN_12_RD_20_1.png","I_Dist_100_LN_13_LD_26_RN_6_RD_10_1.png","I_Dist_100_LN_17_LD_30_RN_10_RD_15_1.png","I_Dist_100_LN_6_LD_12_RN_3_RD_5_1.png","I_Dist_100_LN_8_LD_16_RN_6_RD_10_1.png","I_Dist_100_LN_8_LD_20_RN_1_RD_2_1.png","I_Dist_100_LN_9_LD_18_RN_6_RD_10_1.png"]],"dist100_S":[["E_Dist_100_LN_2_LD_12_RN_2_RD_30_0.png","E_Dist_100_LN_6_LD_10_RN_6_RD_12_0.png"],["E_Dist_100_LN_6_LD_12_RN_6_RD_10_1.png"]],"dist200_C":[["C_Dist_200_LN_11_LD_22_RN_3_RD_10_0.png","C_Dist_200_LN_12_LD_15_RN_6_RD_10_0.png","C_Dist_200_LN_12_LD_20_RN_6_RD_15_0.png","C_Dist_200_LN_14_LD_28_RN_6_RD_20_0.png","C_Dist_200_LN_15_LD_25_RN_4_RD_10_0.png","C_Dist_200_LN_16_LD_20_RN_12_RD_20_0.png","C_Dist_200_LN_16_LD_30_RN_9_RD_27_0.png","C_Dist_200_LN_20_LD_25_RN_9_RD_15_0.png","C_Dist_200_LN_21_LD_30_RN_2_RD_4_0.png","C_Dist_200_LN_4_LD_10_RN_3_RD_15_0.png","C_Dist_200_LN_4_LD_8_RN_3_RD_10_0.png","C_Dist_200_LN_6_LD_15_RN_3_RD_15_0.png","C_Dist_200_LN_7_LD_21_RN_2_RD_15_0.png","C_Dist_200_LN_8_LD_15_RN_2_RD_6_0.png","C_Dist_200_LN_8_LD_15_RN_3_RD_9_0.png","C_Dist_200_LN_8_LD_15_RN_7_RD_21_0.png","C_Dist_200_LN_9_LD_20_RN_4_RD_16_0.png"],["C_Dist_200_LN_1_LD_2_RN_21_RD_30_1.png","C_Dist_200_LN_13_LD_26_RN_14_RD_20_1.png","C_Dist_200_LN_3_LD_10_RN_11_RD_22_1.png","C_Dist_200_LN_3_LD_10_RN_14_RD_28_1.png","C_Dist_200_LN_3_LD_10_RN_7_RD_14_1.png","C_Dist_200_LN_3_LD_12_RN_9_RD_20_1.png","C_Dist_200_LN_3_LD_6_RN_14_RD_20_1.png","C_Dist_200_LN_5_LD_10_RN_14_RD_20_1.png","C_Dist_200_LN_6_LD_12_RN_7_RD_10_1.png","C_Dist_200_LN_6_LD_20_RN_11_RD_22_1.png","C_Dist_200_LN_7_LD_15_RN_18_RD_27_1.png","C_Dist_200_LN_9_LD_30_RN_13_RD_26_1.png"]],"dist200_I":[["I_Dist_200_LN_1_LD_2_RN_3_RD_10_0.png","I_Dist_200_LN_1_LD_3_RN_2_RD_15_0.png","I_Dist_200_LN_3_LD_4_RN_11_RD_20_0.png","I_Dist_200_LN_4_LD_5_RN_6_RD_10_0.png","I_Dist_200_LN_4_LD_6_RN_14_RD_30_0.png","I_Dist_200_LN_7_LD_10_RN_12_RD_24_0.png","I_Dist_200_LN_7_LD_10_RN_14_RD_28_0.png","I_Dist_200_LN_7_LD_10_RN_8_RD_16_0.png"],["I_Dist_200_LN_11_LD_20_RN_3_RD_4_1.png","I_Dist_200_LN_14_LD_30_RN_12_RD_18_1.png","I_Dist_200_LN_14_LD_30_RN_6_RD_9_1.png","I_Dist_200_LN_3_LD_10_RN_1_RD_2_1.png","I_Dist_200_LN_4_LD_30_RN_1_RD_3_1.png","I_Dist_200_LN_6_LD_20_RN_3_RD_6_1.png","I_Dist_200_LN_7_LD_15_RN_4_RD_6_1.png","I_Dist_200_LN_7_LD_15_RN_6_RD_9_1.png","I_Dist_200_LN_9_LD_15_RN_8_RD_10_1.png"]],"dist200_S":[["E_Dist_200_LN_3_LD_6_RN_3_RD_10_0.png"],["E_Dist_200_LN_3_LD_10_RN_3_RD_6_1.png"]],"dist300_C":[["C_Dist_300_LN_11_LD_22_RN_1_RD_5_0.png","C_Dist_300_LN_11_LD_22_RN_2_RD_10_0.png","C_Dist_300_LN_11_LD_22_RN_4_RD_20_0.png","C_Dist_300_LN_12_LD_24_RN_2_RD_10_0.png","C_Dist_300_LN_18_LD_20_RN_9_RD_15_0.png","C_Dist_300_LN_20_LD_25_RN_13_RD_26_0.png","C_Dist_300_LN_20_LD_25_RN_14_RD_28_0.png","C_Dist_300_LN_20_LD_25_RN_5_RD_10_0.png","C_Dist_300_LN_20_LD_25_RN_8_RD_16_0.png","C_Dist_300_LN_20_LD_25_RN_9_RD_18_0.png","C_Dist_300_LN_24_LD_30_RN_2_RD_4_0.png","C_Dist_300_LN_24_LD_30_RN_8_RD_16_0.png","C_Dist_300_LN_3_LD_6_RN_2_RD_10_0.png","C_Dist_300_LN_4_LD_10_RN_1_RD_10_0.png","C_Dist_300_LN_4_LD_5_RN_2_RD_4_0.png","C_Dist_300_LN_8_LD_16_RN_1_RD_5_0.png","C_Dist_300_LN_9_LD_10_RN_3_RD_5_0.png"],["C_Dist_300_LN_1_LD_20_RN_7_RD_20_1.png","C_Dist_300_LN_1_LD_3_RN_19_RD_30_1.png","C_Dist_300_LN_1_LD_30_RN_8_RD_24_1.png","C_Dist_300_LN_1_LD_5_RN_11_RD_22_1.png","C_Dist_300_LN_1_LD_5_RN_3_RD_6_1.png","C_Dist_300_LN_1_LD_5_RN_6_RD_12_1.png","C_Dist_300_LN_2_LD_10_RN_12_RD_24_1.png","C_Dist_300_LN_2_LD_20_RN_10_RD_25_1.png","C_Dist_300_LN_3_LD_12_RN_11_RD_20_1.png","C_Dist_300_LN_3_LD_6_RN_4_RD_5_1.png","C_Dist_300_LN_4_LD_20_RN_13_RD_26_1.png","C_Dist_300_LN_5_LD_25_RN_6_RD_12_1.png","C_Dist_300_LN_5_LD_25_RN_7_RD_14_1.png","C_Dist_300_LN_7_LD_14_RN_20_RD_25_1.png","C_Dist_300_LN_8_LD_15_RN_10_RD_12_1.png"]],"dist300_I":[["I_Dist_300_LN_1_LD_2_RN_2_RD_10_0.png","I_Dist_300_LN_1_LD_2_RN_3_RD_15_0.png","I_Dist_300_LN_2_LD_4_RN_6_RD_30_0.png","I_Dist_300_LN_3_LD_6_RN_4_RD_20_0.png","I_Dist_300_LN_4_LD_5_RN_6_RD_12_0.png","I_Dist_300_LN_4_LD_5_RN_8_RD_16_0.png","I_Dist_300_LN_7_LD_10_RN_8_RD_20_0.png","I_Dist_300_LN_8_LD_10_RN_14_RD_28_0.png","I_Dist_300_LN_8_LD_10_RN_9_RD_18_0.png"],["I_Dist_300_LN_13_LD_26_RN_12_RD_15_1.png","I_Dist_300_LN_4_LD_20_RN_2_RD_4_1.png"]],"dist300_S":[["E_Dist_300_LN_9_LD_12_RN_9_RD_20_0.png"],["E_Dist_300_LN_18_LD_30_RN_18_RD_20_1.png","E_Dist_300_LN_3_LD_10_RN_3_RD_5_1.png","E_Dist_300_LN_9_LD_20_RN_9_RD_12_1.png"]],"dist500_C":[["C_Dist_500_LN_10_LD_13_RN_7_RD_26_0.png","C_Dist_500_LN_10_LD_15_RN_4_RD_24_0.png","C_Dist_500_LN_12_LD_16_RN_3_RD_12_0.png","C_Dist_500_LN_12_LD_18_RN_4_RD_24_0.png","C_Dist_500_LN_15_LD_18_RN_5_RD_15_0.png","C_Dist_500_LN_15_LD_20_RN_1_RD_4_0.png","C_Dist_500_LN_18_LD_27_RN_1_RD_6_0.png","C_Dist_500_LN_20_LD_24_RN_1_RD_3_0.png","C_Dist_500_LN_20_LD_24_RN_3_RD_9_0.png","C_Dist_500_LN_20_LD_24_RN_7_RD_21_0.png","C_Dist_500_LN_20_LD_28_RN_3_RD_14_0.png","C_Dist_500_LN_21_LD_28_RN_6_RD_24_0.png","C_Dist_500_LN_22_LD_28_RN_2_RD_7_0.png","C_Dist_500_LN_25_LD_30_RN_9_RD_27_0.png","C_Dist_500_LN_4_LD_6_RN_1_RD_6_0.png","C_Dist_500_LN_5_LD_6_RN_2_RD_6_0.png","C_Dist_500_LN_6_LD_9_RN_1_RD_6_0.png","C_Dist_500_LN_7_LD_10_RN_1_RD_5_0.png","C_Dist_500_LN_8_LD_12_RN_1_RD_6_0.png","C_Dist_500_LN_8_LD_12_RN_4_RD_24_0.png"],["C_Dist_500_LN_1_LD_4_RN_12_RD_16_1.png","C_Dist_500_LN_1_LD_4_RN_9_RD_12_1.png","C_Dist_500_LN_1_LD_9_RN_11_RD_18_1.png","C_Dist_500_LN_10_LD_24_RN_22_RD_24_1.png","C_Dist_500_LN_2_LD_12_RN_10_RD_15_1.png","C_Dist_500_LN_2_LD_12_RN_12_RD_18_1.png","C_Dist_500_LN_2_LD_12_RN_4_RD_6_1.png","C_Dist_500_LN_2_LD_24_RN_7_RD_12_1.png","C_Dist_500_LN_2_LD_5_RN_18_RD_20_1.png","C_Dist_500_LN_2_LD_5_RN_9_RD_10_1.png","C_Dist_500_LN_2_LD_8_RN_12_RD_16_1.png","C_Dist_500_LN_2_LD_8_RN_21_RD_28_1.png","C_Dist_500_LN_3_LD_10_RN_4_RD_5_1.png","C_Dist_500_LN_3_LD_12_RN_15_RD_20_1.png","C_Dist_500_LN_3_LD_30_RN_6_RD_10_1.png","C_Dist_500_LN_3_LD_8_RN_14_RD_16_1.png","C_Dist_500_LN_4_LD_16_RN_15_RD_20_1.png","C_Dist_500_LN_4_LD_24_RN_12_RD_18_1.png","C_Dist_500_LN_5_LD_14_RN_6_RD_7_1.png","C_Dist_500_LN_7_LD_21_RN_20_RD_24_1.png","C_Dist_500_LN_7_LD_28_RN_12_RD_16_1.png","C_Dist_500_LN_7_LD_28_RN_9_RD_12_1.png","C_Dist_500_LN_9_LD_27_RN_20_RD_24_1.png"]],"dist500_I":[["I_Dist_500_LN_2_LD_3_RN_4_RD_24_0.png","I_Dist_500_LN_5_LD_6_RN_6_RD_18_0.png","I_Dist_500_LN_7_LD_8_RN_9_RD_24_0.png"],["I_Dist_500_LN_7_LD_21_RN_5_RD_6_1.png"]],"dist500_S":[["E_Dist_500_LN_6_LD_8_RN_6_RD_24_0.png"],["E_Dist_500_LN_2_LD_12_RN_2_RD_3_1.png","E_Dist_500_LN_6_LD_24_RN_6_RD_8_1.png"]]}},{"start_time":1551880568885,"click_time":1551880570955,"finger_time":1551880570375,"fix_duration":908.0701498269749,"trial":1,"RT":1490,"MT":580,"sideResp":1,"stimulus":[],"xmouse":[804,804,804,804,804,804,804,804,804,804,804,804,804,804,804,804,804,804,804,804,804,804,804,804,804,804,804,804,804,804,804,804,804,804,804,804,804,804,804,804,804,804,804,804,804,804,804,804,804,804,804,804,804,804,804,804,804,804,804,804,804,804,804,804,804,804,804,804,804,804,804,804,804,804,797,797,797,793,788,746,702,679,654,631,618,596,583,568,555,546,546,546,547,547,547,547,547,547,546,543,538,531,526,520],"ymouse":[626,626,626,626,626,626,626,626,626,626,626,626,626,626,626,626,626,626,626,626,626,626,626,626,626,626,626,626,626,626,626,626,626,626,626,626,626,626,626,626,626,626,626,626,626,626,626,626,626,626,626,626,626,626,626,626,626,626,626,626,626,626,626,626,626,626,626,626,626,626,626,626,626,626,573,494,458,423,387,271,187,128,71,20,0,0,0,0,0,0,4,10,13,14,14,14,14,14,19,22,25,28,30,32],"timestamp_mouse":[9,29,60,69,89,110,130,149,169,190,210,229,250,270,290,309,330,348,370,390,409,430,449,468,489,509,530,550,570,590,609,630,648,669,689,710,729,749,769,790,810,829,849,870,890,909,929,949,969,989,1009,1029,1049,1069,1089,1108,1130,1149,1169,1188,1210,1229,1249,1269,1289,1309,1330,1348,1369,1389,1410,1430,1449,1469,1490,1509,1529,1549,1569,1589,1610,1629,1650,1670,1689,1709,1730,1749,1770,1789,1809,1829,1850,1869,1890,1910,1929,1949,1970,1990,2009,2029,2049,2070],"xSR":741.5,"ySR":573.95,"xT1":424.9,"yT1":0,"xT2":1058.1,"yT2":0,"toosoon":0,"cond_shown":"Incongruent","ratio_trial":200,"L_num":3,"L_den":10,"R_num":1,"R_den":2,"correct_side":2,"subjID":"danielfelipebarriospacheco32","gender":"0","school":"6","age":"11"},{"start_time":1551880572626,"click_time":1551880575054,"finger_time":1551880574155,"fix_duration":350.3281340576053,"trial":2,"RT":1529,"MT":899,"sideResp":2,"stimulus":[],"xmouse":[777,777,777,777,777,777,777,777,777,777,777,777,777,777,777,777,777,777,777,777,777,777,777,777,777,777,777,777,777,777,777,777,777,777,777,777,777,777,777,777,777,777,777,777,777,777,777,777,777,777,777,777,777,777,777,777,777,777,777,777,777,777,777,777,777,777,777,777,777,777,777,777,777,777,777,797,847,981,1025,1058,1093,1129,1181,1280,1309,1337,1360,1369,1359,1344,1333,1327,1324,1324,1324,1323,1319,1315,1308,1307,1306,1306,1304,1283,1271,1259,1248,1240,1236,1230,1223,1218,1208,1201,1195,1189,1181,1171,1166,1164,1159,1153],"ymouse":[643,643,643,643,643,643,643,643,643,643,643,643,643,643,643,643,643,643,643,643,643,643,643,643,643,643,643,643,643,643,643,643,643,643,643,643,643,643,643,643,643,643,643,643,643,643,643,643,643,643,643,643,643,643,643,643,643,643,643,643,643,643,643,643,643,643,643,643,643,643,643,643,643,643,643,626,586,542,529,513,486,449,383,217,150,83,26,0,0,0,0,0,0,0,0,0,4,10,16,17,17,17,18,23,27,30,32,33,34,35,36,38,42,45,47,49,50,51,51,51,51,51],"timestamp_mouse":[9,28,47,68,89,108,129,148,168,189,209,228,248,268,288,308,328,349,368,389,408,428,447,468,488,509,529,548,568,589,608,629,648,668,688,708,729,749,769,787,809,828,848,869,888,908,928,949,968,988,1009,1028,1049,1069,1089,1108,1128,1149,1169,1189,1209,1228,1248,1269,1289,1309,1328,1349,1368,1389,1409,1429,1448,1468,1488,1509,1529,1548,1568,1588,1608,1628,1648,1669,1688,1708,1728,1748,1768,1788,1809,1828,1849,1869,1888,1908,1929,1948,1969,1988,2009,2029,2048,2068,2088,2108,2128,2148,2168,2189,2208,2229,2248,2268,2288,2309,2328,2349,2368,2389,2408,2428],"xSR":741.5,"ySR":573.95,"xT1":424.9,"yT1":0,"xT2":1058.1,"yT2":0,"toosoon":0,"cond_shown":"Congruent","ratio_trial":100,"L_num":6,"L_den":20,"R_num":5,"R_den":25,"correct_side":1,"subjID":"danielfelipebarriospacheco32","gender":"0","school":"6","age":"11"},{"start_time":1551880577586,"click_time":1551880579354,"finger_time":1551880579034,"fix_duration":1149.9694698358012,"trial":3,"RT":1448,"MT":320,"sideResp":2,"stimulus":[],"xmouse":[782,782,782,782,782,782,782,782,782,782,782,782,782,782,782,782,782,782,782,782,782,782,782,782,782,782,782,782,782,782,782,782,782,782,782,782,782,782,782,782,782,782,782,782,782,782,782,782,782,782,782,782,782,782,782,782,782,782,782,782,782,782,782,782,782,782,782,782,782,782,782,810,869,907,940,1030,1056,1065,1066,1067,1068,1071,1072,1072,1073,1084,1096,1112,1126],"ymouse":[612,612,612,612,612,612,612,612,612,612,612,612,612,612,612,612,612,612,612,612,612,612,612,612,612,612,612,612,612,612,612,612,612,612,612,612,612,612,612,612,612,612,612,612,612,612,612,612,612,612,612,612,612,612,612,612,612,612,612,612,612,612,612,612,612,612,612,612,612,612,610,593,547,512,482,353,308,289,274,257,250,242,228,211,167,136,120,102,87],"timestamp_mouse":[9,28,52,68,88,108,129,148,169,188,209,228,249,267,288,308,328,348,368,388,408,428,449,468,488,508,529,548,568,588,608,628,648,669,688,708,728,749,768,788,808,828,848,868,888,909,929,948,968,988,1008,1028,1048,1069,1088,1109,1128,1148,1169,1189,1209,1229,1249,1269,1288,1309,1328,1348,1368,1388,1408,1429,1448,1469,1488,1508,1529,1549,1568,1589,1607,1628,1648,1668,1688,1708,1727,1748,1768],"xSR":741.5,"ySR":573.95,"xT1":424.9,"yT1":0,"xT2":1058.1,"yT2":0,"toosoon":0,"cond_shown":"Congruent","ratio_trial":300,"L_num":5,"L_den":25,"R_num":7,"R_den":14,"correct_side":2,"subjID":"danielfelipebarriospacheco32","gender":"0","school":"6","age":"11"},{"start_time":1551880581468,"click_time":1551880584254,"finger_time":1551880583054,"fix_duration":913.3521423731369,"trial":4,"RT":1586,"MT":1200,"sideResp":2,"stimulus":[],"xmouse":[825,825,825,825,825,825,825,825,825,825,825,825,825,825,825,825,825,825,825,825,825,825,825,825,825,825,825,825,825,825,825,825,825,825,825,825,825,825,825,825,825,825,825,825,825,825,825,825,825,825,825,825,825,825,825,825,825,825,825,825,825,825,825,825,825,825,825,825,825,825,825,825,825,825,825,825,825,825,825,849,919,936,949,956,958,958,958,958,958,958,958,958,958,958,959,968,970,971,971,971,971,971,971,971,971,971,971,971,971,971,971,971,971,971,971,971,971,971,971,971,971,971,971,971,971,972,979,985,997,1007,1035,1052,1060,1067,1072,1081,1083,1083,1083,1085],"ymouse":[599,599,599,599,599,599,599,599,599,599,599,599,599,599,599,599,599,599,599,599,599,599,599,599,599,599,599,599,599,599,599,599,599,599,599,599,599,599,599,599,599,599,599,599,599,599,599,599,599,599,599,599,599,599,599,599,599,599,599,599,599,599,599,599,599,599,599,599,599,599,599,599,599,599,599,599,599,599,599,574,479,446,415,398,391,391,391,391,391,391,391,391,391,390,389,373,368,366,365,365,365,365,365,365,365,365,365,365,365,365,365,365,365,365,365,365,365,365,365,365,365,365,365,365,364,361,354,345,332,318,279,250,231,212,194,153,136,117,101,86],"timestamp_mouse":[9,36,45,67,86,106,126,146,167,187,206,226,246,265,287,307,326,346,367,386,406,426,447,467,487,507,527,547,567,586,606,627,647,665,686,707,728,746,767,787,806,826,847,866,886,906,926,947,966,986,1006,1026,1046,1066,1086,1106,1126,1146,1166,1186,1206,1225,1246,1267,1287,1307,1326,1346,1367,1386,1406,1426,1447,1466,1486,1507,1526,1547,1566,1586,1606,1627,1646,1666,1686,1706,1728,1746,1767,1787,1806,1826,1845,1867,1886,1906,1926,1946,1967,1986,2007,2026,2046,2066,2086,2107,2127,2146,2166,2187,2207,2227,2246,2266,2285,2306,2326,2347,2366,2387,2407,2426,2446,2467,2486,2506,2526,2546,2566,2587,2606,2626,2646,2666,2686,2706,2726,2747,2766,2786],"xSR":741.5,"ySR":573.95,"xT1":424.9,"yT1":0,"xT2":1058.1,"yT2":0,"toosoon":0,"cond_shown":"Incongruent","ratio_trial":300,"L_num":4,"L_den":20,"R_num":2,"R_den":4,"correct_side":2,"subjID":"danielfelipebarriospacheco32","gender":"0","school":"6","age":"11"},{"start_time":1551880586874,"click_time":1551880588454,"finger_time":1551880588074,"fix_duration":1499.6392654630883,"trial":5,"RT":1200,"MT":380,"sideResp":2,"stimulus":[],"xmouse":[774,774,774,774,774,774,774,774,774,774,774,774,774,774,774,774,774,774,774,774,774,774,774,774,774,774,774,774,774,774,774,774,774,774,774,774,774,774,774,774,774,774,774,774,774,774,774,774,774,774,774,774,774,774,774,774,774,774,773,774,809,841,881,907,921,936,939,941,941,941,941,941,941,941,941,941,950,983,1050,1107],"ymouse":[629,629,629,629,629,629,629,629,629,629,629,629,629,629,629,629,629,629,629,629,629,629,629,629,629,629,629,629,629,629,629,629,629,629,629,629,629,629,629,629,629,629,629,629,629,629,629,629,629,629,629,629,629,629,629,629,629,629,628,617,497,424,329,267,225,154,130,116,107,102,102,102,102,102,102,100,94,80,53,35],"timestamp_mouse":[9,21,42,61,80,100,120,140,161,180,200,220,240,261,280,300,320,341,361,381,400,421,440,460,480,501,520,541,560,580,600,621,641,660,680,701,720,741,761,780,800,820,841,861,881,899,921,941,960,980,1000,1021,1040,1059,1080,1100,1120,1140,1160,1181,1200,1221,1240,1261,1280,1300,1320,1340,1360,1380,1401,1421,1440,1460,1480,1500,1520,1540,1561,1580],"xSR":741.5,"ySR":573.95,"xT1":424.9,"yT1":0,"xT2":1058.1,"yT2":0,"toosoon":0,"cond_shown":"Congruent","ratio_trial":300,"L_num":1,"L_den":5,"R_num":11,"R_den":22,"correct_side":2,"subjID":"danielfelipebarriospacheco32","gender":"0","school":"6","age":"11"},{"start_time":1551880590889,"click_time":1551880592774,"finger_time":1551880592214,"fix_duration":1292.3567392547225,"trial":6,"RT":1325,"MT":560,"sideResp":1,"stimulus":[],"xmouse":[827,827,827,827,827,827,827,827,827,827,827,827,827,827,827,827,827,827,827,827,827,827,827,827,827,827,827,827,827,827,827,827,827,827,827,827,827,827,827,827,827,827,827,827,827,827,827,827,827,827,827,827,827,827,827,827,827,827,827,827,827,827,826,824,774,752,738,728,719,713,707,705,703,701,701,692,686,676,662,587,533,514,498,479,431,407,381,364,362,364,395,409,414,420,441],"ymouse":[628,628,628,628,628,628,628,628,628,628,628,628,628,628,628,628,628,628,628,628,628,628,628,628,628,628,628,628,628,628,628,628,628,628,628,628,628,628,628,628,628,628,628,628,628,628,628,628,628,628,628,628,628,628,628,628,628,628,628,628,628,628,629,629,603,582,561,544,523,503,460,451,446,443,440,430,420,403,381,311,278,265,247,225,183,164,143,129,117,102,69,64,64,64,63],"timestamp_mouse":[9,33,45,65,85,106,125,146,165,186,205,225,246,265,285,305,326,345,365,385,404,425,445,464,486,506,525,544,565,586,605,625,645,665,685,705,726,745,765,786,805,826,845,866,886,905,926,946,965,985,1005,1026,1046,1066,1085,1106,1126,1146,1166,1186,1205,1225,1245,1265,1284,1305,1325,1345,1365,1385,1405,1425,1445,1465,1485,1505,1525,1545,1565,1585,1605,1625,1645,1665,1685,1705,1724,1745,1765,1785,1805,1825,1846,1866,1885],"xSR":741.5,"ySR":573.95,"xT1":424.9,"yT1":0,"xT2":1058.1,"yT2":0,"toosoon":0,"cond_shown":"Congruent","ratio_trial":100,"L_num":3,"L_den":6,"R_num":2,"R_den":5,"correct_side":1,"subjID":"danielfelipebarriospacheco32","gender":"0","school":"6","age":"11"},{"start_time":1551880594301,"click_time":1551880595655,"finger_time":1551880595374,"fix_duration":364.74146501874037,"trial":7,"RT":1073,"MT":281,"sideResp":2,"stimulus":[],"xmouse":[793,793,793,793,793,793,793,793,793,793,793,793,793,793,793,793,793,793,793,793,793,793,793,793,793,793,793,793,793,793,793,793,793,793,793,793,793,793,793,793,793,793,793,793,793,793,793,793,793,793,793,796,800,810,814,818,823,827,839,852,863,882,907,970,1004,1033,1056,1076],"ymouse":[605,605,605,605,605,605,605,605,605,605,605,605,605,605,605,605,605,605,605,605,605,605,605,605,605,605,605,605,605,605,605,605,605,605,605,605,605,605,605,605,605,605,605,605,605,605,605,605,605,605,605,599,587,565,558,551,545,536,506,469,435,394,350,238,179,119,66,10],"timestamp_mouse":[13,43,54,73,94,113,134,153,173,193,213,233,253,273,294,314,334,353,372,393,414,433,453,474,493,513,534,553,573,593,613,634,654,674,692,714,734,754,773,793,813,834,854,874,893,914,933,953,974,994,1013,1033,1053,1073,1093,1113,1134,1154,1173,1194,1213,1233,1254,1273,1293,1313,1333,1353],"xSR":741.5,"ySR":573.95,"xT1":424.9,"yT1":0,"xT2":1058.1,"yT2":0,"toosoon":0,"cond_shown":"Congruent","ratio_trial":200,"L_num":3,"L_den":10,"R_num":11,"R_den":22,"correct_side":2,"subjID":"danielfelipebarriospacheco32","gender":"0","school":"6","age":"11"},{"start_time":1551880597305,"click_time":1551880599094,"finger_time":1551880598794,"fix_duration":250,"trial":8,"RT":1489,"MT":300,"sideResp":1,"stimulus":[],"xmouse":[826,826,826,826,826,826,826,826,826,826,826,826,826,826,826,826,826,826,826,826,826,826,826,826,826,826,826,826,826,826,826,826,826,826,826,826,826,826,826,826,826,826,826,826,826,826,826,826,826,826,826,826,826,826,826,826,826,826,826,826,826,826,826,826,826,826,826,826,826,824,815,804,789,751,729,705,681,664,655,644,636,623,607,589,559,550,539,527,503,492],"ymouse":[655,655,655,655,655,655,655,655,655,655,655,655,655,655,655,655,655,655,655,655,655,655,655,655,655,655,655,655,655,655,655,655,655,655,655,655,655,655,655,655,655,655,655,655,655,655,655,655,655,655,655,655,655,655,655,655,655,655,655,655,655,655,655,655,655,655,655,655,655,655,650,642,630,584,555,528,499,481,470,455,441,425,404,375,312,274,234,188,108,65],"timestamp_mouse":[10,33,49,69,90,109,130,149,170,189,210,229,250,270,289,310,328,350,368,390,409,430,449,470,489,509,529,549,569,590,609,630,650,669,689,710,729,749,769,789,809,830,850,869,889,909,928,949,970,990,1009,1030,1049,1069,1089,1109,1129,1149,1170,1189,1210,1230,1250,1270,1290,1309,1330,1349,1369,1390,1409,1429,1450,1469,1489,1509,1529,1549,1570,1589,1609,1629,1649,1669,1689,1709,1730,1750,1769,1788],"xSR":741.5,"ySR":573.95,"xT1":424.9,"yT1":0,"xT2":1058.1,"yT2":0,"toosoon":0,"cond_shown":"Incongruent","ratio_trial":300,"L_num":4,"L_den":20,"R_num":2,"R_den":4,"correct_side":2,"subjID":"danielfelipebarriospacheco32","gender":"0","school":"6","age":"11"},{"start_time":1551880600646,"click_time":1551880602274,"finger_time":1551880601975,"fix_duration":250,"trial":9,"RT":1329,"MT":299,"sideResp":1,"stimulus":[],"xmouse":[809,809,809,809,809,809,809,809,809,809,809,809,809,809,809,809,809,809,809,809,809,809,809,809,809,809,809,809,809,809,809,809,809,809,809,809,809,809,809,809,809,809,809,809,809,809,809,809,809,809,809,809,809,809,809,809,809,809,809,809,809,809,809,809,807,771,645,590,552,531,520,512,496,487,474,465,456,454,454,457,459,459],"ymouse":[621,621,621,621,621,621,621,621,621,621,621,621,621,621,621,621,621,621,621,621,621,621,621,621,621,621,621,621,621,621,621,621,621,621,621,621,621,621,621,621,621,621,621,621,621,621,621,621,621,621,621,621,621,621,621,621,621,621,621,621,621,621,621,621,619,587,483,428,383,356,343,331,297,278,255,238,208,191,174,156,136,89],"timestamp_mouse":[9,41,48,68,89,108,129,149,168,188,209,229,248,269,288,308,328,349,369,388,409,428,449,467,487,507,527,547,567,587,609,629,648,669,688,709,728,748,769,789,809,829,848,868,889,908,928,949,969,988,1008,1028,1048,1068,1088,1108,1129,1148,1169,1189,1208,1229,1249,1269,1289,1308,1329,1348,1369,1388,1409,1428,1448,1467,1488,1509,1528,1548,1568,1589,1608,1628],"xSR":741.5,"ySR":573.95,"xT1":424.9,"yT1":0,"xT2":1058.1,"yT2":0,"toosoon":0,"cond_shown":"Congruent","ratio_trial":200,"L_num":21,"L_den":30,"R_num":2,"R_den":4,"correct_side":1,"subjID":"danielfelipebarriospacheco32","gender":"0","school":"6","age":"11"},{"start_time":1551880603861,"click_time":1551880605554,"finger_time":1551880605274,"fix_duration":806.1353360593417,"trial":10,"RT":1413,"MT":280,"sideResp":2,"stimulus":[],"xmouse":[792,792,792,792,792,792,792,792,792,792,792,792,792,792,792,792,792,792,792,792,792,792,792,792,792,792,792,792,792,792,792,792,792,792,792,792,792,792,792,792,792,792,792,792,792,792,792,792,792,792,792,792,792,792,792,792,792,792,792,792,792,792,792,792,792,792,792,792,793,798,810,847,867,884,900,931,951,972,996,1023,1056,1063,1065,1065,1065],"ymouse":[602,602,602,602,602,602,602,602,602,602,602,602,602,602,602,602,602,602,602,602,602,602,602,602,602,602,602,602,602,602,602,602,602,602,602,602,602,602,602,602,602,602,602,602,602,602,602,602,602,602,602,602,602,602,602,602,602,602,602,602,602,602,602,602,602,602,602,602,602,598,570,493,461,441,423,377,340,294,245,197,147,135,125,114,98],"timestamp_mouse":[13,33,61,74,94,113,133,153,174,193,214,234,254,273,294,313,334,353,373,394,413,434,454,474,493,514,533,554,573,594,613,632,653,674,693,713,734,753,773,794,814,833,853,873,893,913,933,953,973,993,1014,1034,1054,1073,1094,1114,1133,1154,1174,1194,1214,1233,1254,1273,1293,1314,1335,1354,1373,1393,1413,1434,1453,1474,1494,1513,1534,1553,1573,1594,1613,1634,1653,1674,1693],"xSR":741.5,"ySR":573.95,"xT1":424.9,"yT1":0,"xT2":1058.1,"yT2":0,"toosoon":0,"cond_shown":"Congruent","ratio_trial":100,"L_num":7,"L_den":14,"R_num":15,"R_den":25,"correct_side":2,"subjID":"danielfelipebarriospacheco32","gender":"0","school":"6","age":"11"},{"start_time":1551880607807,"click_time":1551880609474,"finger_time":1551880609194,"fix_duration":1350.3640973819497,"trial":11,"RT":1387,"MT":280,"sideResp":1,"stimulus":[],"xmouse":[827,827,827,827,827,827,827,827,827,827,827,827,827,827,827,827,827,827,827,827,827,827,827,827,827,827,827,827,827,827,827,827,827,827,827,827,827,827,827,827,827,827,827,827,827,827,827,827,827,827,827,827,827,827,827,827,827,827,827,827,827,827,827,827,827,823,813,797,782,746,719,690,665,623,604,595,590,584,575,566,554,540,525,514],"ymouse":[631,631,631,631,631,631,631,631,631,631,631,631,631,631,631,631,631,631,631,631,631,631,631,631,631,631,631,631,631,631,631,631,631,631,631,631,631,631,631,631,631,631,631,631,631,631,631,631,631,631,631,631,631,631,631,631,631,631,631,631,631,631,631,631,631,631,627,615,600,544,486,429,372,230,133,100,82,71,61,54,46,40,35,33],"timestamp_mouse":[8,27,48,67,87,107,127,147,168,187,208,228,247,267,287,307,328,348,368,388,408,427,447,467,488,508,527,548,568,587,607,628,648,667,687,707,728,747,767,787,808,827,847,868,887,908,927,948,967,987,1007,1027,1047,1067,1087,1108,1127,1148,1168,1188,1208,1227,1248,1268,1287,1307,1328,1347,1367,1387,1407,1427,1447,1467,1487,1507,1527,1547,1567,1587,1607,1627,1647,1667],"xSR":741.5,"ySR":573.95,"xT1":424.9,"yT1":0,"xT2":1058.1,"yT2":0,"toosoon":0,"cond_shown":"Congruent","ratio_trial":300,"L_num":9,"L_den":10,"R_num":3,"R_den":5,"correct_side":1,"subjID":"danielfelipebarriospacheco32","gender":"0","school":"6","age":"11"},{"start_time":1551880611785,"click_time":1551880613735,"finger_time":1551880613255,"fix_duration":1448.2465261468155,"trial":12,"RT":1470,"MT":480,"sideResp":2,"stimulus":[],"xmouse":[790,790,790,790,790,790,790,790,790,790,790,790,790,790,790,790,790,790,790,790,790,790,790,790,790,790,790,790,790,790,790,790,790,790,790,790,790,790,790,790,790,790,790,790,790,790,790,790,790,790,790,790,790,790,790,790,790,790,790,790,790,790,790,790,790,790,790,790,790,789,796,809,825,841,871,887,899,914,927,944,949,953,960,967,978,983,984,985,988,1010,1030,1052,1065,1070,1070,1071,1074,1082],"ymouse":[632,632,632,632,632,632,632,632,632,632,632,632,632,632,632,632,632,632,632,632,632,632,632,632,632,632,632,632,632,632,632,632,632,632,632,632,632,632,632,632,632,632,632,632,632,632,632,632,632,632,632,632,632,632,632,632,632,632,632,632,632,632,632,632,632,632,632,632,632,631,618,601,578,552,489,451,423,390,360,303,273,230,183,144,110,102,101,99,90,50,23,0,0,0,0,0,0,3],"timestamp_mouse":[9,35,49,69,90,110,129,149,170,189,209,229,250,270,290,309,330,349,369,389,410,429,450,470,489,510,530,549,570,589,610,630,649,669,689,711,729,749,769,790,809,829,850,869,890,910,929,949,969,990,1009,1029,1049,1069,1089,1109,1129,1149,1169,1190,1209,1230,1249,1269,1289,1310,1329,1350,1369,1389,1409,1430,1450,1470,1489,1509,1529,1550,1569,1590,1609,1630,1649,1669,1689,1709,1729,1750,1769,1789,1809,1830,1849,1870,1890,1910,1929,1950],"xSR":741.5,"ySR":573.95,"xT1":424.9,"yT1":0,"xT2":1058.1,"yT2":0,"toosoon":0,"cond_shown":"Incongruent","ratio_trial":200,"L_num":7,"L_den":10,"R_num":14,"R_den":28,"correct_side":1,"subjID":"danielfelipebarriospacheco32","gender":"0","school":"6","age":"11"},{"start_time":1551880615503,"click_time":1551880622955,"finger_time":1551880622374,"fix_duration":906.1844134575427,"trial":13,"RT":6871,"MT":581,"sideResp":1,"stimulus":[],"xmouse":[796,796,796,796,796,796,796,796,796,796,796,796,796,796,796,796,796,796,796,796,796,796,796,796,796,796,796,796,796,796,796,796,796,796,796,796,796,796,796,796,796,796,796,796,796,796,796,796,796,796,796,796,796,796,796,796,796,796,796,796,796,796,796,796,796,796,796,796,796,796,796,796,796,796,796,796,796,796,796,796,796,796,796,796,796,796,796,796,796,796,796,796,796,796,796,796,796,796,796,796,796,796,796,796,796,796,796,796,796,796,796,796,796,796,796,796,796,796,796,796,796,796,796,796,796,796,796,796,796,796,796,796,796,796,796,796,796,796,796,796,796,796,796,796,796,796,796,796,796,796,796,796,796,796,796,796,796,796,796,796,796,796,796,796,796,796,796,796,796,796,796,796,796,796,796,796,796,796,796,796,796,796,796,796,796,796,796,796,796,796,796,796,796,796,796,796,796,796,796,796,796,796,796,796,796,796,796,796,796,796,796,796,796,796,796,796,796,796,796,796,796,796,796,796,796,796,796,796,796,796,796,796,796,796,796,796,796,796,796,796,796,796,796,796,796,796,796,796,796,796,796,796,796,796,796,796,796,796,796,796,796,796,796,796,796,796,796,796,796,796,796,796,796,796,796,796,796,796,796,796,796,796,796,796,796,796,796,796,796,796,796,796,796,796,796,796,796,796,796,796,796,796,796,796,796,796,796,796,796,796,796,796,796,796,796,796,796,796,796,796,796,796,796,796,795,791,780,771,766,766,766,766,766,766,766,766,766,766,766,766,766,761,756,738,727,719,712,704,696,688,682,676,672,666,661,654,642,627,602,592,583,574,567,546,538,532,529,526,512,510,505,499,493],"ymouse":[610,610,610,610,610,610,610,610,610,610,610,610,610,610,610,610,610,610,610,610,610,610,610,610,610,610,610,610,610,610,610,610,610,610,610,610,610,610,610,610,610,610,610,610,610,610,610,610,610,610,610,610,610,610,610,610,610,610,610,610,610,610,610,610,610,610,610,610,610,610,610,610,610,610,610,610,610,610,610,610,610,610,610,610,610,610,610,610,610,610,610,610,610,610,610,610,610,610,610,610,610,610,610,610,610,610,610,610,610,610,610,610,610,610,610,610,610,610,610,610,610,610,610,610,610,610,610,610,610,610,610,610,610,610,610,610,610,610,610,610,610,610,610,610,610,610,610,610,610,610,610,610,610,610,610,610,610,610,610,610,610,610,610,610,610,610,610,610,610,610,610,610,610,610,610,610,610,610,610,610,610,610,610,610,610,610,610,610,610,610,610,610,610,610,610,610,610,610,610,610,610,610,610,610,610,610,610,610,610,610,610,610,610,610,610,610,610,610,610,610,610,610,610,610,610,610,610,610,610,610,610,610,610,610,610,610,610,610,610,610,610,610,610,610,610,610,610,610,610,610,610,610,610,610,610,610,610,610,610,610,610,610,610,610,610,610,610,610,610,610,610,610,610,610,610,610,610,610,610,610,610,610,610,610,610,610,610,610,610,610,610,610,610,610,610,610,610,610,610,610,610,610,610,610,610,610,610,610,610,610,610,610,610,610,610,610,610,610,610,610,610,610,610,610,610,607,599,594,592,592,592,592,592,592,592,592,592,592,592,592,592,588,586,568,555,543,530,515,500,479,466,456,445,430,421,409,393,373,330,314,298,283,271,240,231,227,225,221,173,155,138,116,94],"timestamp_mouse":[11,31,52,71,92,111,131,152,172,191,212,232,251,272,292,312,332,353,372,391,411,431,452,471,492,512,532,551,571,591,612,631,652,672,691,712,732,751,773,791,811,831,851,871,891,911,931,951,971,991,1011,1031,1051,1071,1091,1111,1132,1151,1171,1191,1212,1231,1251,1272,1291,1311,1333,1352,1372,1391,1412,1431,1452,1471,1492,1511,1547,1552,1571,1591,1613,1631,1652,1671,1692,1712,1732,1751,1771,1792,1812,1832,1851,1871,1891,1912,1931,1952,1971,1991,2011,2031,2052,2072,2091,2111,2131,2152,2171,2191,2212,2231,2251,2272,2291,2312,2331,2352,2371,2391,2411,2432,2451,2471,2492,2511,2531,2552,2571,2592,2611,2631,2652,2671,2691,2712,2731,2751,2772,2791,2812,2832,2851,2871,2892,2911,2932,2951,2971,2992,3013,3033,3052,3071,3092,3111,3131,3152,3171,3191,3212,3232,3251,3272,3291,3311,3331,3352,3373,3391,3411,3432,3452,3471,3491,3511,3532,3552,3571,3591,3611,3631,3651,3671,3692,3712,3731,3752,3771,3791,3812,3832,3851,3872,3892,3912,3931,3952,3971,3991,4012,4032,4052,4072,4091,4112,4131,4151,4171,4193,4212,4233,4252,4272,4291,4312,4332,4352,4372,4392,4412,4432,4452,4472,4492,4511,4531,4551,4571,4591,4611,4631,4651,4671,4691,4712,4732,4751,4771,4792,4812,4832,4851,4872,4891,4912,4931,4952,4971,4992,5011,5031,5051,5072,5091,5112,5131,5151,5171,5191,5211,5231,5251,5271,5292,5311,5331,5352,5372,5391,5411,5432,5452,5471,5491,5512,5531,5551,5572,5591,5611,5631,5651,5671,5692,5712,5731,5751,5771,5792,5811,5831,5852,5871,5892,5911,5931,5951,5972,5991,6011,6031,6051,6071,6092,6112,6131,6151,6171,6191,6211,6231,6251,6271,6291,6311,6331,6352,6372,6391,6411,6431,6452,6471,6490,6510,6530,6551,6571,6591,6611,6631,6651,6671,6691,6711,6731,6751,6771,6791,6811,6831,6852,6871,6892,6912,6931,6952,6971,6991,7011,7030,7051,7071,7092,7111,7132,7151,7171,7191,7211,7231,7251,7271,7291,7312,7331,7351,7371,7392,7411,7432,7452],"xSR":741.5,"ySR":573.95,"xT1":424.9,"yT1":0,"xT2":1058.1,"yT2":0,"toosoon":0,"cond_shown":"Incongruent","ratio_trial":200,"L_num":11,"L_den":20,"R_num":3,"R_den":4,"correct_side":2,"subjID":"danielfelipebarriospacheco32","gender":"0","school":"6","age":"11"},{"start_time":1551880625400,"click_time":1551880628416,"finger_time":1551880628034,"fix_duration":1124.8295585110388,"trial":14,"RT":2634,"MT":382,"sideResp":1,"stimulus":[],"xmouse":[769,769,769,769,769,769,769,769,769,769,769,769,769,769,769,769,769,769,769,769,769,769,769,769,769,769,769,769,769,769,769,769,769,769,769,769,769,769,769,769,769,769,769,769,769,769,769,769,769,769,769,769,769,769,769,769,769,769,769,769,769,769,769,769,769,769,769,769,769,769,769,769,769,769,769,769,769,769,769,769,769,769,769,769,769,769,769,769,769,769,769,769,769,769,769,769,769,769,769,769,769,769,769,769,769,769,769,769,769,769,769,769,769,769,769,769,769,769,769,769,769,769,769,769,769,768,767,764,757,755,749,739,726,668,598,552,519,499,457,425,390,375,371,371,372,375,380,387,404,418,434],"ymouse":[633,633,633,633,633,633,633,633,633,633,633,633,633,633,633,633,633,633,633,633,633,633,633,633,633,633,633,633,633,633,633,633,633,633,633,633,633,633,633,633,633,633,633,633,633,633,633,633,633,633,633,633,633,633,633,633,633,633,633,633,633,633,633,633,633,633,633,633,633,633,633,633,633,633,633,633,633,633,633,633,633,633,633,633,633,633,633,633,633,633,633,633,633,633,633,633,633,633,633,633,633,633,633,633,633,633,633,633,633,633,633,633,633,633,633,633,633,633,633,633,633,633,633,633,633,632,629,621,606,600,590,572,544,429,335,286,248,226,177,143,113,99,90,84,84,83,82,78,69,61,52],"timestamp_mouse":[14,38,54,75,94,114,134,154,174,194,214,235,255,274,295,314,334,354,375,394,414,435,455,475,496,514,557,557,574,595,614,634,655,674,694,715,734,754,775,794,815,834,855,874,894,915,934,955,974,995,1015,1034,1054,1075,1094,1115,1134,1155,1174,1195,1215,1235,1254,1275,1294,1315,1334,1355,1375,1396,1414,1434,1455,1475,1495,1514,1534,1554,1574,1594,1614,1634,1655,1676,1694,1715,1735,1754,1774,1794,1815,1835,1854,1875,1896,1915,1934,1955,1974,1995,2015,2035,2055,2075,2094,2114,2134,2156,2174,2194,2215,2235,2254,2275,2294,2315,2335,2354,2375,2395,2414,2435,2454,2474,2494,2514,2535,2555,2574,2594,2614,2634,2654,2674,2695,2714,2735,2754,2774,2794,2814,2834,2855,2874,2895,2914,2934,2955,2974,2994,3015],"xSR":741.5,"ySR":573.95,"xT1":424.9,"yT1":0,"xT2":1058.1,"yT2":0,"toosoon":0,"cond_shown":"Incongruent","ratio_trial":100,"L_num":12,"L_den":30,"R_num":2,"R_den":4,"correct_side":2,"subjID":"danielfelipebarriospacheco32","gender":"0","school":"6","age":"11"},{"start_time":1551880631547,"click_time":1551880633774,"finger_time":1551880633374,"fix_duration":250,"trial":15,"RT":1827,"MT":400,"sideResp":1,"stimulus":[],"xmouse":[796,796,796,796,796,796,796,796,796,796,796,796,796,796,796,796,796,796,796,796,796,796,796,796,796,796,796,796,796,796,796,796,796,796,796,796,796,796,796,796,796,796,796,796,796,796,796,796,796,796,796,796,796,796,796,796,796,796,796,796,796,796,796,796,796,796,796,796,796,796,796,796,796,796,796,796,796,796,796,796,796,796,796,796,796,796,796,794,789,780,771,749,737,723,708,692,649,625,617,608,598,582,574,567,560,551,539,534,525,515,503,485],"ymouse":[653,653,653,653,653,653,653,653,653,653,653,653,653,653,653,653,653,653,653,653,653,653,653,653,653,653,653,653,653,653,653,653,653,653,653,653,653,653,653,653,653,653,653,653,653,653,653,653,653,653,653,653,653,653,653,653,653,653,653,653,653,653,653,653,653,653,653,653,653,653,653,653,653,653,653,653,653,653,653,653,653,653,653,653,653,653,653,652,642,626,609,571,550,529,506,481,430,400,382,363,341,302,286,268,251,230,200,182,165,145,120,79],"timestamp_mouse":[10,43,47,67,87,107,128,148,168,188,208,227,247,268,288,307,328,348,367,388,408,427,447,468,488,508,528,548,567,588,607,628,649,668,688,708,728,747,768,788,808,828,847,867,887,908,928,947,968,988,1008,1028,1048,1067,1087,1108,1127,1148,1168,1188,1208,1227,1248,1267,1288,1308,1328,1347,1367,1388,1409,1429,1447,1467,1488,1507,1528,1548,1567,1587,1607,1627,1648,1668,1688,1707,1728,1747,1767,1787,1807,1827,1847,1867,1887,1907,1927,1948,1967,1988,2007,2027,2047,2068,2088,2107,2127,2148,2167,2187,2207,2227],"xSR":741.5,"ySR":573.95,"xT1":424.9,"yT1":0,"xT2":1058.1,"yT2":0,"toosoon":0,"cond_shown":"Incongruent","ratio_trial":300,"L_num":4,"L_den":20,"R_num":2,"R_den":4,"correct_side":2,"subjID":"danielfelipebarriospacheco32","gender":"0","school":"6","age":"11"},{"start_time":1551880637534,"click_time":1551880640774,"finger_time":1551880639794,"fix_duration":1197.4008216628179,"trial":16,"RT":2260,"MT":980,"sideResp":1,"stimulus":[],"xmouse":[774,774,774,774,774,774,774,774,774,774,774,774,774,774,774,774,774,774,774,774,774,774,774,774,774,774,774,774,774,774,774,774,774,774,774,774,774,774,774,774,774,774,774,774,774,774,774,774,774,774,774,774,774,774,774,774,774,774,774,774,774,774,774,774,774,774,774,774,774,774,774,774,774,774,774,774,774,774,774,774,774,774,774,774,774,774,774,774,774,774,774,774,774,774,774,774,774,774,774,774,774,774,774,774,774,774,774,774,774,774,775,774,754,749,745,742,738,730,728,726,724,723,719,717,715,714,711,704,700,698,696,696,694,694,693,693,693,692,689,689,689,689,689,689,689,689,689,689,689,689,689,689,689,689,688,686,680,650,607,566,528,492,468],"ymouse":[612,612,612,612,612,612,612,612,612,612,612,612,612,612,612,612,612,612,612,612,612,612,612,612,612,612,612,612,612,612,612,612,612,612,612,612,612,612,612,612,612,612,612,612,612,612,612,612,612,612,612,612,612,612,612,612,612,612,612,612,612,612,612,612,612,612,612,612,612,612,612,612,612,612,612,612,612,612,612,612,612,612,612,612,612,612,612,612,612,612,612,612,612,612,612,612,612,612,612,612,612,612,612,612,612,612,612,612,612,612,611,609,582,573,564,559,552,539,536,534,533,531,526,524,523,522,518,505,498,495,493,492,491,491,490,490,490,490,495,496,496,496,496,496,496,496,496,496,496,496,496,496,496,496,495,484,458,365,260,195,147,107,77],"timestamp_mouse":[8,20,41,60,80,100,121,140,161,180,201,220,241,262,281,301,321,340,360,380,401,420,441,460,481,501,520,540,561,580,601,620,641,660,681,700,720,740,760,781,800,820,840,861,881,901,921,940,960,981,1000,1020,1041,1062,1080,1101,1120,1141,1160,1181,1201,1220,1240,1260,1281,1301,1321,1340,1361,1380,1400,1421,1440,1461,1480,1500,1521,1542,1561,1582,1601,1621,1640,1661,1681,1701,1721,1740,1760,1781,1800,1821,1842,1861,1881,1900,1921,1940,1962,1980,2001,2020,2040,2060,2080,2100,2120,2141,2160,2182,2200,2221,2240,2260,2280,2300,2320,2341,2360,2380,2400,2420,2440,2460,2480,2500,2522,2540,2560,2580,2601,2621,2640,2660,2680,2700,2721,2740,2760,2780,2801,2822,2840,2860,2880,2900,2920,2941,2960,2980,3001,3020,3041,3061,3080,3100,3120,3140,3161,3180,3200,3221,3240],"xSR":741.5,"ySR":573.95,"xT1":424.9,"yT1":0,"xT2":1058.1,"yT2":0,"toosoon":0,"cond_shown":"Incongruent","ratio_trial":300,"L_num":4,"L_den":5,"R_num":8,"R_den":16,"correct_side":1,"subjID":"danielfelipebarriospacheco32","gender":"0","school":"6","age":"11"},{"start_time":1551880643778,"click_time":1551880646815,"finger_time":1551880645494,"fix_duration":483.6583372185489,"trial":17,"RT":1716,"MT":1321,"sideResp":2,"stimulus":[],"xmouse":[815,815,815,815,815,815,815,815,815,815,815,815,815,815,815,815,815,815,815,815,815,815,815,815,815,815,815,815,815,815,815,815,815,815,815,815,815,815,815,815,815,815,815,815,815,815,815,815,815,815,815,815,815,815,815,815,815,815,815,815,815,815,815,815,815,815,815,815,815,815,815,815,815,815,815,815,815,815,815,815,815,815,815,815,815,815,817,818,818,818,818,818,819,819,860,945,1014,1078,1143,1201,1290,1316,1331,1339,1342,1342,1343,1343,1343,1343,1343,1341,1338,1330,1304,1299,1298,1298,1297,1287,1280,1277,1275,1274,1271,1258,1243,1228,1222,1220,1220,1219,1218,1218,1218,1218,1217,1216,1209,1198,1186,1181,1180,1176,1171,1165,1165,1164,1164,1164,1161,1155],"ymouse":[641,641,641,641,641,641,641,641,641,641,641,641,641,641,641,641,641,641,641,641,641,641,641,641,641,641,641,641,641,641,641,641,641,641,641,641,641,641,641,641,641,641,641,641,641,641,641,641,641,641,641,641,641,641,641,641,641,641,641,641,641,641,641,641,641,641,641,641,641,641,641,641,641,641,641,641,641,641,641,641,641,641,641,637,590,539,524,522,522,522,522,522,521,520,499,449,383,288,193,114,2,0,0,0,0,0,0,0,0,0,0,0,0,5,17,19,20,20,20,26,29,31,32,32,33,34,34,34,34,34,34,34,34,34,34,34,34,34,37,43,49,51,51,52,53,54,54,54,54,54,54,57],"timestamp_mouse":[16,36,61,76,96,117,136,156,177,197,217,237,256,276,297,317,337,357,376,397,416,437,457,476,497,516,536,557,576,597,617,636,657,676,697,717,736,758,777,796,817,836,856,877,896,916,937,956,977,996,1016,1036,1056,1076,1096,1117,1136,1156,1176,1196,1216,1237,1257,1276,1296,1317,1336,1357,1376,1397,1417,1436,1456,1476,1496,1516,1536,1556,1577,1597,1616,1636,1657,1676,1696,1716,1736,1757,1777,1797,1817,1837,1856,1877,1896,1917,1936,1956,1977,1996,2016,2037,2056,2077,2097,2116,2136,2156,2177,2196,2217,2236,2256,2276,2297,2316,2336,2356,2377,2396,2416,2436,2457,2476,2496,2517,2536,2557,2576,2597,2617,2637,2656,2676,2696,2717,2737,2757,2776,2797,2816,2837,2856,2877,2896,2916,2936,2957,2976,2997,3016,3036],"xSR":741.5,"ySR":573.95,"xT1":424.9,"yT1":0,"xT2":1058.1,"yT2":0,"toosoon":0,"cond_shown":"Incongruent","ratio_trial":300,"L_num":4,"L_den":5,"R_num":6,"R_den":12,"correct_side":1,"subjID":"danielfelipebarriospacheco32","gender":"0","school":"6","age":"11"},{"start_time":1551880651422,"click_time":1551880654634,"finger_time":1551880654274,"fix_duration":1407.6759021207781,"trial":18,"RT":2852,"MT":360,"sideResp":2,"stimulus":[],"xmouse":[782,782,782,782,782,782,782,782,782,782,782,782,782,782,782,782,782,782,782,782,782,782,782,782,782,782,782,782,782,782,782,782,782,782,782,782,782,782,782,782,782,782,782,782,782,782,782,782,782,782,782,782,782,782,782,782,782,782,782,782,782,782,782,782,782,782,782,782,782,782,782,782,782,782,782,782,782,782,782,782,782,782,782,782,782,782,782,782,782,782,782,782,782,782,782,782,782,782,782,782,782,782,782,782,782,782,782,782,782,782,782,782,782,782,782,782,782,782,782,782,782,782,782,782,782,782,782,782,782,782,782,782,782,782,782,786,793,795,795,797,800,805,842,867,885,898,906,913,913,911,908,907,908,916,931,953,984,1047,1083,1110,1126],"ymouse":[631,631,631,631,631,631,631,631,631,631,631,631,631,631,631,631,631,631,631,631,631,631,631,631,631,631,631,631,631,631,631,631,631,631,631,631,631,631,631,631,631,631,631,631,631,631,631,631,631,631,631,631,631,631,631,631,631,631,631,631,631,631,631,631,631,631,631,631,631,631,631,631,631,631,631,631,631,631,631,631,631,631,631,631,631,631,631,631,631,631,631,631,631,631,631,631,631,631,631,631,631,631,631,631,631,631,631,631,631,631,631,631,631,631,631,631,631,631,631,631,631,631,631,631,631,631,631,631,631,631,631,631,631,631,631,633,637,637,637,637,633,616,493,439,396,362,324,272,252,236,225,218,209,201,194,185,172,142,124,108,94],"timestamp_mouse":[13,32,65,73,92,112,133,152,173,192,212,232,252,272,292,312,332,353,372,392,413,432,452,472,493,512,532,552,572,593,612,633,652,673,692,712,733,752,772,793,812,833,852,872,892,913,932,952,972,992,1012,1033,1052,1073,1093,1113,1133,1152,1172,1193,1212,1233,1253,1273,1292,1312,1333,1352,1372,1392,1413,1432,1452,1472,1492,1512,1533,1552,1572,1592,1612,1632,1653,1672,1692,1713,1732,1753,1773,1793,1812,1832,1852,1872,1893,1912,1932,1953,1972,1993,2012,2033,2052,2072,2093,2112,2132,2152,2172,2192,2212,2232,2252,2272,2293,2313,2333,2352,2373,2392,2412,2432,2453,2472,2492,2513,2532,2552,2572,2592,2613,2632,2653,2672,2692,2713,2732,2753,2773,2792,2813,2832,2852,2872,2892,2913,2933,2952,2972,2993,3012,3032,3052,3072,3092,3112,3132,3152,3173,3192,3212],"xSR":741.5,"ySR":573.95,"xT1":424.9,"yT1":0,"xT2":1058.1,"yT2":0,"toosoon":0,"cond_shown":"Congruent","ratio_trial":300,"L_num":8,"L_den":16,"R_num":1,"R_den":5,"correct_side":1,"subjID":"danielfelipebarriospacheco32","gender":"0","school":"6","age":"11"},{"start_time":1551880656416,"click_time":1551880658294,"finger_time":1551880657774,"fix_duration":559.3684572032681,"trial":19,"RT":1358,"MT":520,"sideResp":1,"stimulus":[],"xmouse":[762,762,762,763,765,767,771,789,798,801,801,801,801,801,801,801,801,801,801,801,801,801,801,801,801,801,801,801,801,801,801,801,801,801,801,801,801,801,801,801,801,801,801,801,801,801,801,801,801,801,801,801,801,801,801,801,801,801,801,801,801,801,801,801,801,790,772,729,699,667,630,591,532,503,492,484,484,484,484,484,480,473,449,442,442,442,442,442,442,442,442,442,448,457],"ymouse":[625,625,625,625,626,627,629,638,641,643,643,643,643,643,643,643,643,643,643,643,643,643,643,643,643,643,643,643,643,643,643,643,643,643,643,643,643,643,643,643,643,643,643,643,643,643,643,643,643,643,643,643,643,643,643,643,643,643,643,643,643,643,643,643,643,633,624,603,587,569,539,493,383,336,313,295,290,288,282,271,256,241,204,195,194,194,194,168,152,139,132,128,117,97],"timestamp_mouse":[19,51,59,78,98,118,138,159,179,198,218,238,259,278,299,318,339,359,380,399,419,438,458,479,498,519,539,558,578,599,618,638,658,679,699,719,739,760,778,799,818,839,858,878,899,919,939,959,979,999,1019,1038,1058,1079,1099,1120,1138,1158,1178,1199,1218,1238,1259,1278,1298,1319,1339,1358,1378,1398,1419,1439,1458,1478,1498,1519,1538,1558,1578,1598,1619,1638,1658,1679,1698,1718,1738,1758,1778,1798,1819,1838,1858,1878],"xSR":741.5,"ySR":573.95,"xT1":424.9,"yT1":0,"xT2":1058.1,"yT2":0,"toosoon":0,"cond_shown":"Incongruent","ratio_trial":300,"L_num":8,"L_den":10,"R_num":14,"R_den":28,"correct_side":1,"subjID":"danielfelipebarriospacheco32","gender":"0","school":"6","age":"11"},{"start_time":1551880659507,"click_time":1551880661414,"finger_time":1551880660894,"fix_duration":250,"trial":20,"RT":1387,"MT":520,"sideResp":2,"stimulus":[],"xmouse":[820,820,820,820,820,820,820,820,820,820,820,820,820,820,820,820,820,820,820,820,820,820,820,820,820,820,820,820,820,820,820,820,820,820,820,820,820,820,820,820,820,820,820,820,820,820,820,820,820,820,820,820,820,820,820,820,820,820,820,820,820,820,820,820,820,820,820,820,825,832,834,838,842,858,859,859,859,859,878,885,905,915,918,927,937,951,975,998,1021,1043,1044,1045,1045,1047,1056,1061],"ymouse":[605,605,605,605,605,605,605,605,605,605,605,605,605,605,605,605,605,605,605,605,605,605,605,605,605,605,605,605,605,605,605,605,605,605,605,605,605,605,605,605,605,605,605,605,605,605,605,605,605,605,605,605,605,605,605,605,605,605,605,605,605,605,605,605,605,605,605,605,584,539,521,499,478,448,446,446,442,430,369,358,328,317,311,291,268,234,192,154,123,92,86,78,64,43,15,8],"timestamp_mouse":[8,34,47,67,87,108,127,147,167,187,207,228,247,268,288,307,327,347,368,387,408,428,447,469,487,508,529,548,568,587,608,628,647,668,688,708,727,747,767,787,808,827,847,868,888,908,927,948,967,988,1007,1027,1048,1067,1088,1108,1127,1148,1167,1187,1207,1227,1247,1267,1288,1307,1328,1347,1367,1387,1407,1427,1447,1467,1487,1507,1528,1548,1568,1588,1607,1628,1647,1667,1687,1707,1728,1748,1767,1788,1807,1828,1848,1867,1887,1907],"xSR":741.5,"ySR":573.95,"xT1":424.9,"yT1":0,"xT2":1058.1,"yT2":0,"toosoon":0,"cond_shown":"Incongruent","ratio_trial":300,"L_num":13,"L_den":26,"R_num":12,"R_den":15,"correct_side":2,"subjID":"danielfelipebarriospacheco32","gender":"0","school":"6","age":"11"},{"start_time":1551880662748,"click_time":1551880664775,"finger_time":1551880664154,"fix_duration":250,"trial":21,"RT":1406,"MT":621,"sideResp":1,"stimulus":[],"xmouse":[812,812,812,812,812,812,812,812,812,812,812,812,811,810,810,810,810,810,810,810,810,810,810,810,810,810,810,810,810,810,810,810,810,810,810,810,810,810,810,810,810,810,810,810,810,810,810,810,810,810,810,810,810,810,810,810,810,810,810,810,810,810,810,810,810,810,810,810,798,765,713,605,566,548,540,537,536,536,536,536,536,536,536,536,536,535,526,521,518,516,513,509,494,486,481,476,472,469,466,465,464,461],"ymouse":[661,661,661,661,661,661,661,661,661,661,661,661,658,655,654,654,654,654,654,654,654,654,654,654,654,654,654,654,654,654,654,654,654,654,654,654,654,654,654,654,654,654,654,654,654,654,654,654,654,654,654,654,654,654,654,654,654,654,654,654,654,654,654,654,654,654,654,654,641,615,567,448,413,396,388,384,382,381,381,381,381,381,381,380,379,371,328,308,296,288,279,265,218,190,170,153,138,129,118,111,100,74],"timestamp_mouse":[9,26,47,66,87,106,126,146,166,187,207,227,246,266,286,306,327,346,367,387,406,427,447,467,486,506,526,546,567,588,607,626,647,667,687,707,727,746,767,787,806,826,847,868,887,906,926,946,967,986,1006,1027,1047,1066,1087,1107,1127,1147,1166,1187,1206,1226,1247,1267,1286,1306,1326,1347,1366,1386,1406,1426,1446,1466,1487,1506,1526,1546,1566,1586,1606,1627,1647,1666,1686,1707,1726,1747,1766,1787,1806,1826,1846,1867,1887,1907,1926,1946,1966,1987,2006,2026],"xSR":741.5,"ySR":573.95,"xT1":424.9,"yT1":0,"xT2":1058.1,"yT2":0,"toosoon":0,"cond_shown":"Incongruent","ratio_trial":100,"L_num":2,"L_den":4,"R_num":8,"R_den":20,"correct_side":1,"subjID":"danielfelipebarriospacheco32","gender":"0","school":"6","age":"11"},{"start_time":1551880666238,"click_time":1551880668635,"finger_time":1551880667815,"fix_duration":702.4452365679048,"trial":22,"RT":1577,"MT":820,"sideResp":2,"stimulus":[],"xmouse":[781,781,781,781,781,781,781,781,781,781,781,781,781,781,781,781,781,781,781,781,781,781,781,781,781,781,781,781,781,781,781,781,781,781,781,781,781,781,781,781,781,781,781,781,781,781,781,781,781,781,781,781,781,781,781,781,781,781,781,781,781,781,781,781,781,781,781,781,781,781,781,781,781,781,781,781,782,793,808,828,849,877,885,885,885,885,885,885,885,885,886,886,886,886,886,886,894,903,913,926,941,961,970,975,977,982,990,992,992,992,992,995,997,1001,1007,1011,1022,1036,1053,1063],"ymouse":[603,603,603,603,603,603,603,603,603,603,603,603,603,603,603,603,603,603,603,603,603,603,603,603,603,603,603,603,603,603,603,603,603,603,603,603,603,603,603,603,603,603,603,603,603,603,603,603,603,603,603,603,603,603,603,603,603,603,603,603,603,603,603,603,603,603,603,603,603,603,603,603,603,603,603,603,603,591,572,552,532,512,508,508,508,508,508,508,508,508,506,502,492,481,468,456,424,406,382,360,335,299,270,251,230,210,182,173,168,161,151,113,101,88,78,70,56,48,40,36],"timestamp_mouse":[17,37,66,76,96,116,136,156,176,196,217,236,256,276,297,316,336,356,377,396,416,436,456,477,496,516,537,556,576,596,616,636,656,677,696,716,737,757,776,797,816,837,856,877,896,917,936,957,976,997,1016,1036,1056,1076,1096,1116,1136,1156,1177,1196,1216,1237,1256,1276,1296,1317,1337,1356,1377,1397,1417,1437,1457,1477,1496,1516,1536,1556,1577,1597,1617,1636,1656,1676,1709,1716,1737,1756,1777,1797,1816,1836,1856,1876,1897,1916,1936,1956,1977,1997,2016,2036,2056,2076,2096,2116,2136,2156,2176,2196,2217,2236,2257,2276,2297,2316,2336,2355,2376,2397],"xSR":741.5,"ySR":573.95,"xT1":424.9,"yT1":0,"xT2":1058.1,"yT2":0,"toosoon":0,"cond_shown":"Congruent","ratio_trial":100,"L_num":11,"L_den":22,"R_num":6,"R_den":15,"correct_side":1,"subjID":"danielfelipebarriospacheco32","gender":"0","school":"6","age":"11"},{"start_time":1551880670602,"click_time":1551880672353,"finger_time":1551880671933,"fix_duration":1146.9641781902264,"trial":23,"RT":1331,"MT":420,"sideResp":1,"stimulus":[],"xmouse":[802,802,802,802,802,802,802,802,802,802,802,802,802,802,802,802,802,802,802,802,802,802,802,802,802,802,802,802,802,802,802,802,802,802,802,802,802,802,802,802,802,802,802,802,802,802,802,802,802,802,802,802,802,802,802,802,802,802,802,802,802,802,802,801,789,772,759,746,717,702,683,661,642,622,618,615,611,605,589,578,569,563,556,540,528,522,517,513],"ymouse":[618,618,618,618,618,618,618,618,618,618,618,618,618,618,618,618,618,618,618,618,618,618,618,618,618,618,618,618,618,618,618,618,618,618,618,618,618,618,618,618,618,618,618,618,618,618,618,618,618,618,618,618,618,618,618,618,618,618,618,618,618,618,618,618,605,586,568,550,510,488,459,422,388,353,347,340,331,318,278,253,231,212,194,157,131,115,103,94],"timestamp_mouse":[11,37,51,70,91,112,131,151,172,191,212,232,250,271,291,311,332,351,371,391,411,431,451,470,492,511,531,550,572,592,611,631,652,672,690,712,732,751,771,791,812,831,851,871,891,912,932,951,971,991,1011,1032,1050,1071,1092,1110,1131,1151,1172,1190,1211,1232,1251,1271,1292,1311,1331,1351,1371,1390,1412,1430,1451,1471,1491,1511,1531,1551,1571,1591,1611,1631,1651,1671,1691,1712,1732,1751],"xSR":741.5,"ySR":573.95,"xT1":424.9,"yT1":0,"xT2":1058.1,"yT2":0,"toosoon":0,"cond_shown":"Incongruent","ratio_trial":300,"L_num":4,"L_den":5,"R_num":8,"R_den":16,"correct_side":1,"subjID":"danielfelipebarriospacheco32","gender":"0","school":"6","age":"11"},{"start_time":1551880673914,"click_time":1551880676693,"finger_time":1551880675953,"fix_duration":799.3045869868249,"trial":24,"RT":2039,"MT":740,"sideResp":1,"stimulus":[],"xmouse":[797,797,797,797,797,797,797,797,797,797,797,797,797,797,797,797,797,797,797,797,797,797,797,797,797,797,797,797,797,797,797,797,797,797,797,797,797,797,797,797,797,797,797,797,797,797,797,797,797,797,797,797,797,797,797,797,797,797,797,797,797,797,797,797,797,797,797,797,797,797,797,797,797,797,797,797,797,797,797,797,797,797,797,797,797,797,797,797,797,797,797,797,797,797,797,797,797,797,797,794,777,760,730,680,667,660,657,655,648,638,630,621,613,592,581,569,553,539,527,527,527,527,527,527,527,527,527,527,527,527,527,527,527,527,527,527,527,527,526,514],"ymouse":[666,666,666,666,666,666,666,666,666,666,666,666,666,666,666,666,666,666,666,666,666,666,666,666,666,666,666,666,666,666,666,666,666,666,666,666,666,666,666,666,666,666,666,666,666,666,666,666,666,666,666,666,666,666,666,666,666,666,666,666,666,666,666,666,666,666,666,666,666,666,666,666,666,666,666,666,666,666,666,666,666,666,666,666,666,666,666,666,666,666,666,666,666,666,666,666,666,666,666,666,652,633,596,536,518,506,500,494,469,430,396,361,326,255,216,177,135,105,72,71,71,71,71,71,71,71,71,71,71,71,71,71,71,71,71,71,71,71,70,65],"timestamp_mouse":[1,20,39,59,80,100,119,140,160,179,200,219,239,260,279,299,320,339,360,380,399,420,439,460,480,500,520,539,559,579,600,619,639,660,680,700,720,739,760,780,799,820,840,860,879,900,920,940,960,980,1000,1019,1040,1060,1080,1100,1120,1140,1158,1180,1199,1220,1240,1259,1279,1299,1320,1340,1359,1378,1399,1419,1439,1459,1479,1500,1520,1540,1559,1580,1600,1620,1639,1660,1680,1699,1720,1739,1760,1780,1799,1818,1840,1860,1880,1900,1920,1940,1959,1978,1999,2020,2039,2058,2079,2099,2119,2138,2159,2179,2198,2219,2239,2259,2278,2299,2319,2340,2359,2380,2398,2419,2439,2459,2480,2499,2519,2540,2560,2579,2600,2619,2639,2659,2680,2699,2720,2739,2759,2779],"xSR":741.5,"ySR":573.95,"xT1":424.9,"yT1":0,"xT2":1058.1,"yT2":0,"toosoon":0,"cond_shown":"Congruent","ratio_trial":200,"L_num":7,"L_den":21,"R_num":2,"R_den":15,"correct_side":1,"subjID":"danielfelipebarriospacheco32","gender":"0","school":"6","age":"11"},{"start_time":1551880680843,"click_time":1551880682434,"finger_time":1551880682353,"fix_duration":1488.3264052763004,"trial":25,"RT":1510,"MT":81,"sideResp":2,"stimulus":[],"xmouse":[798,798,798,798,798,798,798,798,798,798,798,798,798,798,798,798,798,798,798,798,798,798,798,798,798,798,798,798,798,798,798,798,798,798,798,798,798,798,798,798,798,798,798,798,798,798,798,798,798,798,798,798,798,798,798,798,798,798,798,798,798,798,798,798,798,798,798,798,798,798,798,798,798,798,801,830,920,976,1029,1074],"ymouse":[629,629,629,629,629,629,629,629,629,629,629,629,629,629,629,629,629,629,629,629,629,629,629,629,629,629,629,629,629,629,629,629,629,629,629,629,629,629,629,629,629,629,629,629,629,629,629,629,629,629,629,629,629,629,629,629,629,629,629,629,629,629,629,629,629,629,629,629,629,629,629,629,628,627,613,560,373,262,158,81],"timestamp_mouse":[10,36,50,70,90,111,129,151,171,190,211,230,251,270,291,311,329,350,371,389,411,430,450,471,491,510,530,550,571,590,610,631,650,671,691,710,730,751,771,791,810,831,850,871,891,909,931,950,971,990,1010,1030,1049,1071,1091,1109,1130,1150,1170,1190,1210,1229,1251,1271,1290,1311,1330,1350,1369,1390,1411,1430,1450,1469,1490,1510,1530,1550,1570,1591],"xSR":741.5,"ySR":573.95,"xT1":424.9,"yT1":0,"xT2":1058.1,"yT2":0,"toosoon":0,"cond_shown":"Congruent","ratio_trial":100,"L_num":7,"L_den":14,"R_num":15,"R_den":25,"correct_side":2,"subjID":"danielfelipebarriospacheco32","gender":"0","school":"6","age":"11"},{"start_time":1551880684363,"click_time":1551880687493,"finger_time":1551880686512,"fix_duration":250,"trial":26,"RT":2149,"MT":981,"sideResp":1,"stimulus":[],"xmouse":[819,819,819,819,819,819,819,819,819,819,819,819,819,819,819,819,819,819,819,819,819,819,819,819,819,819,819,819,819,819,819,819,819,819,819,819,819,819,819,819,819,819,819,819,819,819,819,819,819,819,819,819,819,819,819,819,819,819,819,819,819,819,819,819,819,819,819,819,819,819,819,819,819,819,819,819,819,819,819,819,819,819,819,819,819,819,819,819,819,819,819,819,819,819,819,819,819,819,819,819,819,819,819,819,816,791,763,733,702,677,643,629,613,593,576,552,549,534,516,490,430,401,374,357,350,345,344,344,344,344,344,344,344,344,344,344,344,344,344,344,344,344,344,344,344,344,344,344,344,344,344,346,353,372,396,424,426],"ymouse":[627,627,627,627,627,627,627,627,627,627,627,627,627,627,627,627,627,627,627,627,627,627,627,627,627,627,627,627,627,627,627,627,627,627,627,627,627,627,627,627,627,627,627,627,627,627,627,627,627,627,627,627,627,627,627,627,627,627,627,627,627,627,627,627,627,627,627,627,627,627,627,627,627,627,627,627,627,627,627,627,627,627,627,627,627,627,627,627,627,627,627,627,627,627,627,627,627,627,627,627,627,627,627,627,625,607,587,565,544,530,508,498,488,476,463,439,433,397,342,278,116,38,0,0,0,0,0,0,0,0,0,0,0,0,0,0,0,0,0,0,0,0,0,0,0,0,0,0,0,0,0,0,1,9,19,25,26],"timestamp_mouse":[9,31,49,70,90,110,131,151,171,190,211,231,251,269,290,309,331,350,370,390,410,431,450,470,490,509,530,550,569,590,610,631,651,670,690,711,731,751,770,791,810,830,851,869,890,911,931,950,971,990,1010,1031,1050,1071,1091,1111,1131,1150,1170,1190,1210,1230,1250,1271,1290,1310,1330,1351,1370,1390,1411,1430,1450,1470,1490,1511,1530,1551,1570,1590,1609,1631,1650,1670,1690,1710,1731,1750,1771,1789,1809,1830,1851,1870,1890,1910,1931,1950,1970,1990,2010,2031,2050,2070,2091,2110,2131,2149,2171,2190,2210,2231,2250,2271,2291,2310,2331,2350,2370,2390,2410,2430,2450,2471,2490,2510,2530,2550,2570,2590,2611,2631,2650,2670,2690,2709,2731,2750,2770,2790,2810,2830,2850,2870,2890,2910,2930,2949,2970,2991,3011,3030,3050,3070,3091,3111,3130],"xSR":741.5,"ySR":573.95,"xT1":424.9,"yT1":0,"xT2":1058.1,"yT2":0,"toosoon":0,"cond_shown":"Congruent","ratio_trial":100,"L_num":11,"L_den":22,"R_num":4,"R_den":10,"correct_side":1,"subjID":"danielfelipebarriospacheco32","gender":"0","school":"6","age":"11"},{"start_time":1551880688724,"click_time":1551880690713,"finger_time":1551880690212,"fix_duration":250,"trial":27,"RT":1488,"MT":501,"sideResp":2,"stimulus":[],"xmouse":[820,820,820,820,820,820,820,820,820,820,820,820,820,820,820,820,820,820,820,820,820,820,820,820,820,820,820,820,820,820,820,820,820,820,820,820,820,820,820,820,820,820,820,820,820,820,820,820,820,820,820,820,820,820,820,820,820,820,820,820,820,820,820,820,820,820,820,820,820,820,820,820,821,829,841,862,901,1032,1125,1169,1192,1202,1209,1209,1208,1203,1196,1180,1178,1178,1178,1178,1178,1178,1178,1178,1178,1175,1167,1153],"ymouse":[614,614,614,614,614,614,614,614,614,614,614,614,614,614,614,614,614,614,614,614,614,614,614,614,614,614,614,614,614,614,614,614,614,614,614,614,614,614,614,614,614,614,614,614,614,614,614,614,614,614,614,614,614,614,614,614,614,614,614,614,614,614,614,614,614,614,614,614,614,614,614,614,614,592,546,488,426,309,239,196,165,143,104,85,69,51,36,9,7,6,6,6,6,6,6,6,8,19,34,61],"timestamp_mouse":[11,46,49,69,90,109,129,149,169,189,209,229,249,270,289,310,328,349,369,390,410,430,449,470,490,509,529,549,568,590,609,630,649,669,690,709,729,749,770,790,810,829,849,870,890,909,929,948,969,989,1009,1028,1049,1069,1089,1110,1130,1150,1170,1190,1209,1229,1249,1269,1289,1308,1330,1350,1370,1389,1408,1429,1449,1468,1488,1509,1530,1548,1570,1589,1610,1629,1649,1669,1690,1709,1729,1749,1770,1789,1809,1829,1849,1870,1889,1909,1930,1949,1969,1989],"xSR":741.5,"ySR":573.95,"xT1":424.9,"yT1":0,"xT2":1058.1,"yT2":0,"toosoon":0,"cond_shown":"Congruent","ratio_trial":200,"L_num":9,"L_den":30,"R_num":13,"R_den":26,"correct_side":2,"subjID":"danielfelipebarriospacheco32","gender":"0","school":"6","age":"11"},{"start_time":1551880692841,"click_time":1551880694873,"finger_time":1551880694072,"fix_duration":907.5779035524862,"trial":28,"RT":1231,"MT":801,"sideResp":2,"stimulus":[],"xmouse":[822,822,822,822,822,822,822,822,822,822,822,822,822,822,822,822,822,822,822,822,822,822,822,822,822,822,822,822,822,822,822,822,822,822,822,822,822,822,822,822,822,822,822,822,822,822,822,822,822,822,822,822,822,822,822,822,822,822,822,823,830,851,868,877,885,894,910,921,932,942,950,955,955,955,955,956,957,957,960,963,966,986,995,1002,1010,1017,1024,1025,1025,1025,1025,1025,1025,1025,1025,1025,1025,1030,1038,1047,1053,1067],"ymouse":[636,636,636,636,636,636,636,636,636,636,636,636,636,636,636,636,636,636,636,636,636,636,636,636,636,636,636,636,636,636,636,636,636,636,636,636,636,636,636,636,636,636,636,636,636,636,636,636,636,636,636,636,636,636,636,636,636,636,635,632,621,591,568,555,541,524,484,459,431,407,388,372,372,372,367,356,314,290,270,252,233,162,129,107,89,77,66,66,66,66,66,66,66,66,66,66,66,66,69,73,76,79],"timestamp_mouse":[13,32,53,72,92,113,132,152,173,193,213,232,251,272,292,312,331,352,372,391,412,432,452,473,493,512,532,552,573,591,612,632,652,672,692,711,732,752,773,791,812,833,852,873,892,912,932,953,971,993,1012,1033,1052,1073,1092,1112,1132,1152,1172,1192,1212,1231,1252,1272,1293,1312,1331,1351,1372,1392,1412,1432,1453,1471,1492,1512,1531,1553,1572,1592,1612,1632,1651,1672,1692,1712,1732,1753,1772,1792,1813,1833,1853,1872,1892,1912,1932,1951,1972,1991,2013,2032],"xSR":741.5,"ySR":573.95,"xT1":424.9,"yT1":0,"xT2":1058.1,"yT2":0,"toosoon":0,"cond_shown":"Incongruent","ratio_trial":300,"L_num":4,"L_den":20,"R_num":2,"R_den":4,"correct_side":2,"subjID":"danielfelipebarriospacheco32","gender":"0","school":"6","age":"11"},{"start_time":1551880697189,"click_time":1551880699133,"finger_time":1551880698793,"fix_duration":1214.6212334341587,"trial":29,"RT":1604,"MT":340,"sideResp":1,"stimulus":[],"xmouse":[822,822,822,822,822,822,822,822,822,822,822,822,822,822,822,822,822,822,822,822,822,822,822,822,822,822,822,822,822,822,822,822,822,822,822,822,822,822,822,822,822,822,822,822,822,822,822,822,822,822,822,822,822,822,822,822,822,822,822,822,822,822,822,822,822,822,822,822,822,822,822,822,822,822,822,822,822,821,816,764,720,671,623,581,549,545,545,545,545,545,545,545,544,539,493,467,459,456],"ymouse":[651,651,651,651,651,651,651,651,651,651,651,651,651,651,651,651,651,651,651,651,651,651,651,651,651,651,651,651,651,651,651,651,651,651,651,651,651,651,651,651,651,651,651,651,651,651,651,651,651,651,651,651,651,651,651,651,651,651,651,651,651,651,651,651,651,651,651,651,651,651,651,651,651,651,651,651,651,652,649,581,530,476,427,387,355,352,352,352,352,352,352,352,351,337,224,136,111,99],"timestamp_mouse":[9,39,44,64,85,105,124,144,165,185,205,224,244,264,285,303,325,344,364,384,404,424,444,464,484,505,525,543,564,584,604,624,644,664,684,704,724,744,764,783,805,824,844,865,885,904,924,945,964,984,1003,1025,1044,1064,1084,1103,1124,1144,1163,1185,1204,1223,1244,1264,1285,1305,1324,1345,1365,1384,1404,1424,1445,1465,1485,1504,1525,1544,1564,1584,1604,1624,1644,1665,1684,1704,1724,1744,1765,1785,1805,1824,1844,1865,1884,1904,1924,1944],"xSR":741.5,"ySR":573.95,"xT1":424.9,"yT1":0,"xT2":1058.1,"yT2":0,"toosoon":0,"cond_shown":"Incongruent","ratio_trial":300,"L_num":7,"L_den":10,"R_num":8,"R_den":20,"correct_side":1,"subjID":"danielfelipebarriospacheco32","gender":"0","school":"6","age":"11"},{"start_time":1551880701088,"click_time":1551880702793,"finger_time":1551880702433,"fix_duration":914.3324710734959,"trial":30,"RT":1345,"MT":360,"sideResp":2,"stimulus":[],"xmouse":[801,801,801,801,801,801,801,801,801,801,801,801,801,801,801,801,801,801,801,801,801,801,801,801,801,801,801,801,801,801,801,801,801,801,801,801,801,801,801,801,801,801,801,801,801,801,801,801,801,801,801,801,801,801,801,801,801,801,801,801,801,801,801,801,801,804,822,851,880,938,949,955,959,959,963,966,969,972,975,979,980,980,982,996,1045,1076],"ymouse":[645,645,645,645,645,645,645,645,645,645,645,645,645,645,645,645,645,645,645,645,645,645,645,645,645,645,645,645,645,645,645,645,645,645,645,645,645,645,645,645,645,645,645,645,645,645,645,645,645,645,645,645,645,645,645,645,645,645,645,645,645,645,645,645,645,637,610,569,521,397,351,300,244,192,121,99,83,71,61,51,49,47,46,43,39,39],"timestamp_mouse":[9,25,46,66,85,106,124,145,166,185,205,224,245,265,285,305,324,345,366,384,405,426,446,464,485,505,524,546,566,586,605,625,646,665,686,706,724,746,765,785,805,826,845,866,885,905,926,945,966,985,1006,1025,1046,1065,1085,1106,1125,1146,1166,1185,1206,1225,1246,1265,1285,1304,1324,1345,1366,1385,1405,1425,1445,1465,1484,1504,1525,1545,1566,1584,1605,1625,1646,1665,1685,1705],"xSR":741.5,"ySR":573.95,"xT1":424.9,"yT1":0,"xT2":1058.1,"yT2":0,"toosoon":0,"cond_shown":"Incongruent","ratio_trial":100,"L_num":8,"L_den":20,"R_num":1,"R_den":2,"correct_side":2,"subjID":"danielfelipebarriospacheco32","gender":"0","school":"6","age":"11"},{"start_time":1551880704914,"click_time":1551880706813,"finger_time":1551880706133,"fix_duration":1040.3743182365088,"trial":31,"RT":1219,"MT":680,"sideResp":1,"stimulus":[],"xmouse":[810,810,810,810,810,810,810,810,810,810,810,810,810,810,810,810,810,810,810,810,810,810,810,810,810,810,810,810,810,810,810,810,810,810,810,810,810,810,810,810,810,810,810,810,810,810,810,810,810,810,810,810,810,810,810,810,810,810,810,776,702,619,473,417,384,365,357,354,354,352,348,341,320,312,308,308,308,320,328,331,334,340,350,352,352,354,357,367,374,377,381,386,403,416,425],"ymouse":[644,644,644,644,644,644,644,644,644,644,644,644,644,644,644,644,644,644,644,644,644,644,644,644,644,644,644,644,644,644,644,644,644,644,644,644,644,644,644,644,644,644,644,644,644,644,644,644,644,644,644,644,644,644,644,644,644,644,644,613,556,508,442,421,409,401,395,392,392,388,381,365,311,290,274,260,249,226,207,199,189,178,164,162,162,161,159,148,140,136,129,121,100,85,72],"timestamp_mouse":[20,53,59,79,98,120,139,159,179,199,219,240,259,279,298,320,339,359,379,400,419,439,459,480,499,519,540,559,580,600,618,640,659,679,700,719,739,760,779,800,820,839,860,878,900,920,940,959,980,1000,1019,1039,1059,1080,1100,1120,1140,1159,1180,1199,1219,1239,1258,1279,1299,1319,1339,1360,1379,1398,1419,1439,1459,1480,1498,1519,1540,1558,1579,1599,1619,1639,1659,1679,1699,1719,1740,1758,1779,1799,1820,1839,1858,1878,1899],"xSR":741.5,"ySR":573.95,"xT1":424.9,"yT1":0,"xT2":1058.1,"yT2":0,"toosoon":0,"cond_shown":"Congruent","ratio_trial":300,"L_num":18,"L_den":20,"R_num":9,"R_den":15,"correct_side":1,"subjID":"danielfelipebarriospacheco32","gender":"0","school":"6","age":"11"},{"start_time":1551880709320,"click_time":1551880711114,"finger_time":1551880710614,"fix_duration":1486.966218984752,"trial":32,"RT":1294,"MT":500,"sideResp":1,"stimulus":[],"xmouse":[823,823,823,823,823,823,823,823,823,823,823,823,823,823,823,823,823,823,823,823,823,823,823,823,823,823,823,823,823,823,823,823,823,823,823,823,823,823,823,823,823,823,823,823,823,823,823,823,823,823,823,823,823,823,823,823,823,823,823,823,823,823,813,793,772,756,737,701,692,688,685,679,669,665,661,659,656,639,626,611,597,580,539,518,501,484,470,456,454,454],"ymouse":[635,635,635,635,635,635,635,635,635,635,635,635,635,635,635,635,635,635,635,635,635,635,635,635,635,635,635,635,635,635,635,635,635,635,635,635,635,635,635,635,635,635,635,635,635,635,635,635,635,635,635,635,635,635,635,635,635,635,635,635,635,635,620,593,562,536,502,417,387,361,344,328,308,299,291,286,280,266,260,252,242,233,210,197,187,175,166,145,118,98],"timestamp_mouse":[13,38,52,73,94,113,132,153,173,193,213,233,252,274,293,313,333,353,374,394,412,434,454,473,493,513,534,554,573,594,613,633,653,673,693,713,734,753,773,793,814,833,854,873,893,914,933,953,972,994,1014,1033,1052,1073,1094,1113,1133,1153,1173,1194,1213,1232,1253,1272,1294,1313,1334,1353,1374,1393,1413,1433,1453,1474,1492,1513,1533,1553,1574,1593,1614,1633,1652,1673,1693,1713,1733,1752,1772,1794],"xSR":741.5,"ySR":573.95,"xT1":424.9,"yT1":0,"xT2":1058.1,"yT2":0,"toosoon":0,"cond_shown":"Incongruent","ratio_trial":300,"L_num":2,"L_den":4,"R_num":6,"R_den":30,"correct_side":1,"subjID":"danielfelipebarriospacheco32","gender":"0","school":"6","age":"11"},{"start_time":1551880713835,"click_time":1551880715673,"finger_time":1551880715173,"fix_duration":319.92046412396314,"trial":33,"RT":1338,"MT":500,"sideResp":2,"stimulus":[],"xmouse":[838,838,838,838,838,838,838,838,838,838,838,838,838,838,838,838,838,838,838,838,838,838,838,838,838,838,838,838,838,838,838,838,838,838,838,838,838,838,838,838,838,838,838,838,838,838,838,838,838,838,838,838,838,838,838,838,838,838,838,838,838,838,838,838,838,838,838,849,872,896,923,952,991,999,1001,1002,1002,1006,1010,1014,1017,1020,1022,1024,1032,1044,1052,1056,1056,1056,1057,1057,1060],"ymouse":[655,655,655,655,655,655,655,655,655,655,655,655,655,655,655,655,655,655,655,655,655,655,655,655,655,655,655,655,655,655,655,655,655,655,655,655,655,655,655,655,655,655,655,655,655,655,655,655,655,655,655,655,655,655,655,655,655,655,655,655,655,655,655,655,655,655,653,564,475,409,352,303,233,194,175,165,157,141,128,114,103,94,87,86,76,65,58,54,54,54,54,54,54],"timestamp_mouse":[1,18,37,59,78,98,118,139,158,178,199,218,238,258,279,298,318,339,359,378,398,419,438,459,479,498,519,538,559,577,598,617,639,657,679,699,718,738,759,779,799,819,839,858,878,898,918,938,958,979,998,1018,1039,1057,1079,1099,1119,1139,1159,1178,1199,1219,1238,1257,1279,1299,1318,1338,1358,1378,1398,1418,1437,1458,1478,1498,1518,1538,1557,1578,1598,1618,1638,1659,1677,1699,1718,1738,1758,1778,1798,1818,1837],"xSR":741.5,"ySR":573.95,"xT1":424.9,"yT1":0,"xT2":1058.1,"yT2":0,"toosoon":0,"cond_shown":"Incongruent","ratio_trial":100,"L_num":12,"L_den":30,"R_num":2,"R_den":4,"correct_side":2,"subjID":"danielfelipebarriospacheco32","gender":"0","school":"6","age":"11"},{"start_time":1551880717059,"click_time":1551880718873,"finger_time":1551880718453,"fix_duration":504.10907190810116,"trial":34,"RT":1394,"MT":420,"sideResp":1,"stimulus":[],"xmouse":[796,796,796,796,796,796,796,796,796,796,796,796,796,796,796,796,796,796,796,796,796,796,796,796,796,796,796,796,796,796,796,796,796,796,796,796,796,796,796,796,796,796,796,796,796,796,796,796,796,796,796,796,796,796,796,796,796,796,796,796,796,796,796,796,796,796,787,768,750,729,681,646,622,604,585,554,542,532,522,516,508,499,492,484,477,467,466,465,465,465,465],"ymouse":[666,666,666,666,666,666,666,666,666,666,666,666,666,666,666,666,666,666,666,666,666,666,666,666,666,666,666,666,666,666,666,666,666,666,666,666,666,666,666,666,666,666,666,666,666,666,666,666,666,666,666,666,666,666,666,666,666,666,666,666,666,666,666,666,666,666,651,623,597,569,493,416,373,340,310,268,255,246,239,232,215,198,186,172,160,140,136,129,115,103,94],"timestamp_mouse":[15,34,54,75,95,114,135,153,175,195,214,234,254,274,294,315,334,355,374,395,415,434,454,475,493,514,534,555,575,594,615,635,654,675,695,715,735,754,773,795,814,835,855,873,895,914,934,953,975,994,1014,1034,1055,1074,1095,1114,1134,1154,1174,1194,1214,1234,1254,1274,1295,1314,1334,1355,1374,1394,1413,1434,1454,1473,1494,1514,1535,1554,1574,1593,1614,1634,1654,1674,1694,1714,1734,1754,1774,1794,1814],"xSR":741.5,"ySR":573.95,"xT1":424.9,"yT1":0,"xT2":1058.1,"yT2":0,"toosoon":0,"cond_shown":"Incongruent","ratio_trial":300,"L_num":1,"L_den":2,"R_num":2,"R_den":10,"correct_side":1,"subjID":"danielfelipebarriospacheco32","gender":"0","school":"6","age":"11"},{"start_time":1551880720279,"click_time":1551880722073,"finger_time":1551880721573,"fix_duration":364.0493219888976,"trial":35,"RT":1294,"MT":500,"sideResp":1,"stimulus":[],"xmouse":[786,786,786,786,786,786,786,786,786,786,786,786,786,786,786,786,786,786,786,786,786,786,786,786,786,786,786,786,786,786,786,786,786,786,786,786,786,786,786,786,786,786,786,786,786,786,786,786,786,786,786,786,786,786,786,786,786,786,786,786,784,777,767,756,726,711,697,685,673,642,621,607,594,586,565,553,539,523,508,485,477,472,466,460,448,444,440,438,438,439],"ymouse":[619,619,619,619,619,619,619,619,619,619,619,619,619,619,619,619,619,619,619,619,619,619,619,619,619,619,619,619,619,619,619,619,619,619,619,619,619,619,619,619,619,619,619,619,619,619,619,619,619,619,619,619,619,619,619,619,619,619,619,619,616,612,603,589,561,548,535,523,507,472,449,434,418,405,377,361,343,325,306,262,244,226,210,197,169,157,142,128,113,96],"timestamp_mouse":[14,42,55,75,95,115,134,154,175,194,215,235,254,274,294,315,334,355,374,394,413,435,455,475,495,514,535,555,575,594,615,635,654,674,694,715,735,755,774,795,815,835,854,875,894,915,935,955,974,995,1015,1034,1055,1074,1094,1115,1134,1154,1175,1195,1215,1233,1254,1274,1294,1314,1334,1353,1375,1394,1415,1433,1454,1474,1493,1514,1534,1554,1575,1594,1615,1634,1654,1673,1694,1715,1734,1754,1774,1794],"xSR":741.5,"ySR":573.95,"xT1":424.9,"yT1":0,"xT2":1058.1,"yT2":0,"toosoon":0,"cond_shown":"Congruent","ratio_trial":300,"L_num":4,"L_den":10,"R_num":1,"R_den":10,"correct_side":1,"subjID":"danielfelipebarriospacheco32","gender":"0","school":"6","age":"11"},{"start_time":1551880723800,"click_time":1551880726233,"finger_time":1551880725293,"fix_duration":1145.9488876120442,"trial":36,"RT":1493,"MT":940,"sideResp":1,"stimulus":[],"xmouse":[799,799,799,799,799,799,799,799,799,799,799,799,799,799,799,799,799,799,799,799,799,799,799,799,799,799,799,799,799,799,799,799,799,799,799,799,799,799,799,799,799,799,799,799,799,799,799,799,799,799,799,799,799,799,799,799,799,799,799,799,799,799,799,799,799,799,799,799,799,799,799,799,799,815,824,829,831,831,825,820,812,802,792,765,751,732,714,693,660,648,641,637,630,627,604,590,573,558,527,509,490,457,415,366,362,361,361,361,361,361,362,367,376,396,407,423,430,434,437,437,438,444],"ymouse":[641,641,641,641,641,641,641,641,641,641,641,641,641,641,641,641,641,641,641,641,641,641,641,641,641,641,641,641,641,641,641,641,641,641,641,641,641,641,641,641,641,641,641,641,641,641,641,641,641,641,641,641,641,641,641,641,641,641,641,641,641,641,641,641,641,641,641,641,641,641,641,641,636,586,564,546,536,533,530,528,524,519,513,500,494,485,474,461,435,425,418,413,402,396,356,335,310,289,246,224,205,180,147,109,102,97,95,95,94,88,75,60,43,16,5,0,0,0,0,0,0,3],"timestamp_mouse":[14,37,54,73,94,113,133,154,172,194,213,234,252,273,294,314,333,354,374,393,414,433,453,473,493,514,533,554,573,593,614,634,652,673,694,714,733,753,773,794,814,833,854,874,894,913,934,954,974,993,1014,1033,1053,1073,1093,1113,1133,1152,1174,1192,1213,1233,1254,1274,1293,1314,1333,1353,1373,1394,1414,1433,1453,1473,1493,1512,1534,1553,1572,1592,1613,1633,1653,1673,1693,1713,1734,1753,1773,1793,1813,1832,1853,1873,1893,1913,1933,1953,1973,1992,2013,2033,2053,2073,2092,2113,2133,2153,2173,2192,2214,2233,2254,2273,2292,2313,2333,2353,2373,2393,2413,2433],"xSR":741.5,"ySR":573.95,"xT1":424.9,"yT1":0,"xT2":1058.1,"yT2":0,"toosoon":0,"cond_shown":"Congruent","ratio_trial":100,"L_num":11,"L_den":22,"R_num":4,"R_den":10,"correct_side":1,"subjID":"danielfelipebarriospacheco32","gender":"0","school":"6","age":"11"},{"start_time":1551880729068,"click_time":1551880730654,"finger_time":1551880730292,"fix_duration":633.80788140463,"trial":37,"RT":1224,"MT":362,"sideResp":2,"stimulus":[],"xmouse":[746,746,746,746,746,746,746,746,746,746,746,746,746,746,746,746,746,746,746,746,746,746,746,746,746,746,746,746,746,746,746,746,746,746,746,746,746,746,746,746,746,746,746,746,746,746,746,746,746,746,746,746,746,746,746,746,746,746,746,746,752,778,806,836,871,948,975,993,1009,1024,1046,1055,1061,1068,1075,1076,1077,1077,1083,1090],"ymouse":[588,588,588,588,588,588,588,588,588,588,588,588,588,588,588,588,588,588,588,588,588,588,588,588,588,588,588,588,588,588,588,588,588,588,588,588,588,588,588,588,588,588,588,588,588,588,588,588,588,588,588,588,588,588,588,588,588,588,588,588,580,523,473,415,354,237,180,132,92,57,18,0,0,0,0,0,0,0,0,6],"timestamp_mouse":[8,25,51,65,85,105,125,146,165,186,205,225,245,265,285,306,325,345,366,385,405,425,445,465,486,506,524,545,566,585,606,625,646,664,685,706,726,745,765,786,805,825,846,866,885,905,925,946,965,984,1005,1025,1044,1066,1086,1105,1126,1145,1166,1186,1204,1224,1244,1265,1285,1305,1325,1345,1366,1385,1405,1424,1446,1465,1485,1505,1525,1547,1566,1586],"xSR":741.5,"ySR":573.95,"xT1":424.9,"yT1":0,"xT2":1058.1,"yT2":0,"toosoon":0,"cond_shown":"Congruent","ratio_trial":200,"L_num":6,"L_den":20,"R_num":11,"R_den":22,"correct_side":2,"subjID":"danielfelipebarriospacheco32","gender":"0","school":"6","age":"11"},{"start_time":1551880732192,"click_time":1551880734655,"finger_time":1551880733573,"fix_duration":295.61669547121494,"trial":38,"RT":1381,"MT":1082,"sideResp":1,"stimulus":[],"xmouse":[817,817,817,817,817,817,817,817,817,817,817,817,817,817,817,817,817,817,817,817,817,817,817,817,817,817,817,817,817,817,817,817,817,817,817,817,817,817,817,817,817,817,817,817,817,817,817,817,817,817,817,817,817,817,817,817,817,817,817,817,817,817,817,817,817,817,817,814,806,694,623,571,547,535,511,483,456,426,398,350,342,339,339,338,338,337,337,337,337,337,339,349,363,375,388,391,393,391,369,342,338,335,335,335,335,335,335,339,345,373,388,398,403,407,409,409,409,409,409,409,409,409,415,436],"ymouse":[618,618,618,618,618,618,618,618,618,618,618,618,618,618,618,618,618,618,618,618,618,618,618,618,618,618,618,618,618,618,618,618,618,618,618,618,618,618,618,6