[{"start_time":1551886980934,"click_time":1551886985322,"finger_time":1551886981981,"fix_duration":966.9766945580525,"trial":0,"RT":1047,"MT":3341,"sideResp":2,"stimulus":[],"xmouse":[812,812,812,812,812,812,812,812,812,812,812,812,812,812,812,812,812,812,812,812,812,812,812,813,813,813,813,813,813,813,813,813,813,813,813,813,813,813,813,813,813,813,813,813,813,813,813,814,816,826,831,836,847,871,877,879,882,884,887,888,889,892,892,896,903,903,903,903,903,891,876,861,836,828,791,777,760,747,737,728,728,728,728,728,728,728,732,737,741,745,746,747,747,748,748,748,748,748,748,748,748,748,748,748,748,748,748,748,748,748,748,748,748,748,748,748,748,748,748,748,748,748,748,748,748,749,749,749,749,752,757,762,767,770,770,770,770,770,770,770,770,770,770,770,770,770,770,770,770,770,770,770,770,770,770,770,770,770,770,770,770,770,770,770,770,770,770,770,770,770,770,770,770,770,770,770,770,770,770,770,770,770,770,770,776,780,783,785,789,806,821,836,854,887,923,937,948,957,968,983,987,990,994,1002,1027,1044,1068,1093,1119,1127,1134,1142,1148,1163,1166,1167,1167,1167,1167,1154],"ymouse":[488,488,488,488,488,488,488,488,488,488,488,488,488,488,488,488,488,488,488,488,488,487,484,482,479,478,476,475,474,474,474,474,474,474,474,474,474,474,474,474,474,474,474,474,474,473,471,471,468,464,463,460,460,459,458,457,457,456,455,455,455,453,453,452,449,449,449,449,449,448,446,443,443,443,451,455,460,466,471,475,475,475,475,475,475,475,475,475,475,475,475,475,475,475,475,475,475,475,475,475,475,475,475,475,475,475,475,475,475,475,475,475,475,475,475,475,475,475,475,475,475,475,475,475,475,475,475,475,475,475,475,475,475,475,475,475,475,475,475,475,475,475,475,475,475,475,475,475,475,475,475,475,475,475,475,475,475,475,475,475,475,475,475,475,475,475,475,475,475,475,475,475,475,475,475,475,475,475,475,475,475,475,475,475,475,475,475,475,475,474,473,471,467,457,446,442,438,434,427,418,415,412,409,400,364,339,310,279,242,223,203,183,161,123,115,108,105,102,100,95],"timestamp_mouse":[10,38,49,69,88,109,127,148,168,187,208,227,248,269,287,309,327,349,367,388,409,427,448,467,488,507,528,548,567,587,607,627,647,667,688,708,727,749,767,788,807,827,849,867,887,907,928,948,968,987,1007,1027,1047,1069,1087,1107,1128,1147,1169,1187,1208,1227,1248,1267,1287,1307,1327,1348,1368,1387,1408,1428,1447,1468,1487,1508,1527,1547,1569,1587,1607,1628,1647,1667,1688,1707,1727,1747,1768,1787,1807,1828,1849,1868,1888,1907,1929,1948,1968,1988,2008,2028,2047,2067,2088,2108,2127,2147,2168,2189,2208,2227,2249,2269,2287,2307,2328,2347,2368,2389,2407,2427,2447,2468,2488,2508,2528,2549,2567,2587,2608,2627,2647,2669,2687,2708,2728,2748,2769,2787,2807,2829,2848,2868,2887,2907,2927,2948,2968,2988,3007,3027,3048,3067,3089,3107,3128,3147,3169,3187,3207,3227,3249,3267,3287,3309,3328,3347,3367,3388,3407,3428,3448,3468,3488,3509,3528,3547,3567,3587,3608,3628,3648,3668,3688,3707,3727,3747,3768,3787,3807,3828,3848,3869,3887,3907,3927,3947,3967,3987,4007,4027,4048,4068,4088,4107,4127,4147,4168,4187,4207,4227,4249,4268,4287,4307,4328,4348,4367,4387],"xSR":741.5,"ySR":449.15000000000003,"xT1":424.9,"yT1":0,"xT2":1058.1,"yT2":0,"toosoon":0,"cond_shown":"Incongruent","ratio_trial":100,"L_num":9,"L_den":15,"R_num":13,"R_den":26,"correct_side":1,"subjID":"danielfelipecortesmora14","gender":"No_gender","age":"10","school":"colegiocafam","test":{"fix_dur":[250,1500],"timestim":1000,"targets_dim":[100,100],"targets_relative_coord":[0.3,0.7],"size_stim":[880,420],"start_dim":[100,100],"size_start":[300,300],"size_fix":60,"samplingrate":20,"img_types":["Congruent","Incongruent"],"ratios":[100,200,300],"rep_conds":19,"nTrials":120,"trials_to_rest":500,"Trials_order":[25,55,23,26,115,63,68,58,107,37,75,11,87,56,18,119,35,66,1,36,40,77,5,65,10,110,31,79,27,39,13,57,104,91,0,78,100,80,53,90,99,64,6,38,19,114,14,17,93,86,2,113,94,34,117,76,48,88,111,116,74,70,47,46,12,42,82,81,24,62,60,73,92,85,84,33,102,3,69,4,41,22,15,43,96,50,83,32,89,118,97,72,20,109,108,7,16,51,44,98,28,71,101,61,52,30,9,21,29,112,106,54,67,49,59,8,105,103,95,45],"cond_shown":["Incongruent","Incongruent","Incongruent","Congruent","Incongruent","Incongruent","Congruent","Congruent","Incongruent","Incongruent","Incongruent","Incongruent","Incongruent","Congruent","Congruent","Incongruent","Incongruent","Congruent","Incongruent","Congruent","Congruent","Incongruent","Incongruent","Incongruent","Congruent","Congruent","Incongruent","Incongruent","Incongruent","Incongruent","Incongruent","Incongruent","Congruent","Incongruent","Congruent","Congruent","Congruent","Congruent","Incongruent","Congruent","Incongruent","Congruent","Congruent","Congruent","Incongruent","Congruent","Congruent","Incongruent","Incongruent","Congruent","Congruent","Incongruent","Congruent","Congruent","Incongruent","Congruent","Congruent","Congruent","Incongruent","Congruent","Congruent","Congruent","Incongruent","Congruent","Congruent","Congruent","Congruent","Incongruent","Congruent","Congruent","Congruent","Incongruent","Congruent","Incongruent","Congruent","Incongruent","Congruent","Incongruent","Incongruent","Congruent","Incongruent","Congruent","Incongruent","Incongruent","Congruent","Congruent","Incongruent","Congruent","Incongruent","Congruent","Incongruent","Congruent","Congruent","Incongruent","Congruent","Incongruent","Congruent","Incongruent","Congruent","Congruent","Congruent","Incongruent","Incongruent","Incongruent","Congruent","Congruent","Incongruent","Incongruent","Incongruent","Congruent","Congruent","Congruent","Incongruent","Incongruent","Incongruent","Congruent","Incongruent","Incongruent","Incongruent","Incongruent"],"ratio_trial":[100,100,300,200,100,200,200,300,300,100,200,300,200,200,100,300,300,100,100,100,300,300,300,300,300,200,100,100,200,200,100,200,200,100,100,100,300,200,300,100,200,300,100,200,100,100,200,300,200,200,200,300,300,300,200,300,100,300,200,200,200,300,300,300,100,100,300,200,100,200,100,100,200,100,100,200,100,200,200,300,300,300,200,100,100,200,300,200,300,300,100,100,200,100,100,100,300,200,200,200,300,300,300,100,300,100,200,200,300,300,300,100,100,100,300,200,200,100,300,200],"left_num":[9,12,8,15,9,4,12,20,4,2,1,8,4,6,2,13,1,1,6,12,20,13,4,4,1,3,10,8,3,3,3,7,6,9,8,11,4,6,13,3,7,3,12,4,9,12,20,7,14,8,6,2,5,1,9,11,11,4,4,3,5,1,8,1,2,1,2,1,3,3,11,12,15,2,12,3,3,4,4,2,13,1,7,3,4,3,3,6,7,1,3,3,7,9,2,4,2,9,6,7,18,4,1,1,1,6,7,7,7,9,5,6,6,17,1,13,9,10,4,7],"right_num":[13,9,14,4,6,6,6,9,2,6,3,14,14,3,11,12,2,3,3,13,9,12,2,6,11,7,9,1,1,11,7,14,11,20,2,6,2,7,12,4,8,4,13,3,20,13,9,8,6,3,11,6,6,8,8,2,4,1,1,11,14,19,9,3,11,18,10,2,2,9,4,9,4,8,13,11,2,14,1,10,12,8,8,7,15,14,4,3,8,8,11,4,18,20,11,8,10,8,7,18,9,2,2,8,8,5,4,14,8,3,7,15,13,10,2,14,8,8,2,12],"left_den":[15,24,10,25,18,5,15,25,20,4,2,10,6,15,5,26,2,2,12,30,25,26,20,5,5,10,25,20,10,4,9,10,20,10,16,22,5,12,26,20,10,6,30,10,10,30,25,10,30,15,20,4,25,30,15,22,22,10,30,10,10,3,10,5,5,2,20,3,6,12,22,24,25,4,30,4,6,6,30,20,26,30,10,9,10,6,6,15,10,30,5,20,15,10,5,8,20,15,12,15,20,20,2,2,30,20,15,10,10,10,25,12,10,30,2,26,15,25,20,10],"right_den":[26,15,28,10,10,10,10,18,4,15,10,28,30,15,22,15,10,5,5,26,18,15,4,12,22,14,18,2,2,20,30,28,22,25,5,15,4,10,15,16,16,5,26,15,25,26,15,20,9,9,22,30,12,24,10,10,10,10,3,22,20,30,18,6,22,30,25,15,5,20,10,15,10,20,26,20,5,30,3,25,15,24,16,30,30,20,20,15,20,24,22,16,27,25,22,20,25,10,10,27,15,4,10,20,24,25,6,28,20,5,14,25,26,15,10,20,10,16,4,24],"correct_side":[1,2,1,1,2,1,1,1,2,1,1,1,1,1,2,2,1,2,2,2,1,2,2,1,2,2,2,2,2,1,1,1,2,1,1,1,1,2,2,2,1,2,2,1,1,2,1,1,2,1,2,1,2,2,2,1,1,1,2,2,2,2,1,2,2,2,2,1,1,2,1,2,1,1,2,1,1,1,2,2,2,2,1,1,2,2,1,1,1,2,1,2,2,1,2,1,2,2,2,2,1,2,1,1,2,1,2,1,1,1,2,2,1,2,1,2,2,2,2,1],"img_shown":["img2/100/Incongruent/L/I_Dist_100_LN_9_LD_15_RN_13_RD_26_0.png","img2/100/Incongruent/R/I_Dist_100_LN_12_LD_24_RN_9_RD_15_1.png","img2/300/Incongruent/L/I_Dist_300_LN_8_LD_10_RN_14_RD_28_0.png","img2/200/Congruent/L/C_Dist_200_LN_15_LD_25_RN_4_RD_10_0.png","img2/100/Incongruent/R/I_Dist_100_LN_9_LD_18_RN_6_RD_10_1.png","img2/200/Incongruent/L/I_Dist_200_LN_4_LD_5_RN_6_RD_10_0.png","img2/200/Congruent/L/C_Dist_200_LN_12_LD_15_RN_6_RD_10_0.png","img2/300/Congruent/L/C_Dist_300_LN_20_LD_25_RN_9_RD_18_0.png","img2/300/Incongruent/R/I_Dist_300_LN_4_LD_20_RN_2_RD_4_1.png","img2/100/Incongruent/L/I_Dist_100_LN_2_LD_4_RN_6_RD_15_0.png","img2/200/Incongruent/L/I_Dist_200_LN_1_LD_2_RN_3_RD_10_0.png","img2/300/Incongruent/L/I_Dist_300_LN_8_LD_10_RN_14_RD_28_0.png","img2/200/Incongruent/L/I_Dist_200_LN_4_LD_6_RN_14_RD_30_0.png","img2/200/Congruent/L/C_Dist_200_LN_6_LD_15_RN_3_RD_15_0.png","img2/100/Congruent/R/C_Dist_100_LN_2_LD_5_RN_11_RD_22_1.png","img2/300/Incongruent/R/I_Dist_300_LN_13_LD_26_RN_12_RD_15_1.png","img2/300/Incongruent/L/I_Dist_300_LN_1_LD_2_RN_2_RD_10_0.png","img2/100/Congruent/R/C_Dist_100_LN_1_LD_2_RN_3_RD_5_1.png","img2/100/Incongruent/R/I_Dist_100_LN_6_LD_12_RN_3_RD_5_1.png","img2/100/Congruent/R/C_Dist_100_LN_12_LD_30_RN_13_RD_26_1.png","img2/300/Congruent/L/C_Dist_300_LN_20_LD_25_RN_9_RD_18_0.png","img2/300/Incongruent/R/I_Dist_300_LN_13_LD_26_RN_12_RD_15_1.png","img2/300/Incongruent/R/I_Dist_300_LN_4_LD_20_RN_2_RD_4_1.png","img2/300/Incongruent/L/I_Dist_300_LN_4_LD_5_RN_6_RD_12_0.png","img2/300/Congruent/R/C_Dist_300_LN_1_LD_5_RN_11_RD_22_1.png","img2/200/Congruent/R/C_Dist_200_LN_3_LD_10_RN_7_RD_14_1.png","img2/100/Incongruent/R/I_Dist_100_LN_10_LD_25_RN_9_RD_18_1.png","img2/100/Incongruent/R/I_Dist_100_LN_8_LD_20_RN_1_RD_2_1.png","img2/200/Incongruent/R/I_Dist_200_LN_3_LD_10_RN_1_RD_2_1.png","img2/200/Incongruent/L/I_Dist_200_LN_3_LD_4_RN_11_RD_20_0.png","img2/100/Incongruent/L/I_Dist_100_LN_3_LD_9_RN_7_RD_30_0.png","img2/200/Incongruent/L/I_Dist_200_LN_7_LD_10_RN_14_RD_28_0.png","img2/200/Congruent/R/C_Dist_200_LN_6_LD_20_RN_11_RD_22_1.png","img2/100/Incongruent/L/I_Dist_100_LN_9_LD_10_RN_20_RD_25_0.png","img2/100/Congruent/L/C_Dist_100_LN_8_LD_16_RN_2_RD_5_0.png","img2/100/Congruent/L/C_Dist_100_LN_11_LD_22_RN_6_RD_15_0.png","img2/300/Congruent/L/C_Dist_300_LN_4_LD_5_RN_2_RD_4_0.png","img2/200/Congruent/R/C_Dist_200_LN_6_LD_12_RN_7_RD_10_1.png","img2/300/Incongruent/R/I_Dist_300_LN_13_LD_26_RN_12_RD_15_1.png","img2/100/Congruent/R/C_Dist_100_LN_3_LD_20_RN_4_RD_16_1.png","img2/200/Incongruent/L/I_Dist_200_LN_7_LD_10_RN_8_RD_16_0.png","img2/300/Congruent/R/C_Dist_300_LN_3_LD_6_RN_4_RD_5_1.png","img2/100/Congruent/R/C_Dist_100_LN_12_LD_30_RN_13_RD_26_1.png","img2/200/Congruent/L/C_Dist_200_LN_4_LD_10_RN_3_RD_15_0.png","img2/100/Incongruent/L/I_Dist_100_LN_9_LD_10_RN_20_RD_25_0.png","img2/100/Congruent/R/C_Dist_100_LN_12_LD_30_RN_13_RD_26_1.png","img2/200/Congruent/L/C_Dist_200_LN_20_LD_25_RN_9_RD_15_0.png","img2/300/Incongruent/L/I_Dist_300_LN_7_LD_10_RN_8_RD_20_0.png","img2/200/Incongruent/R/I_Dist_200_LN_14_LD_30_RN_6_RD_9_1.png","img2/200/Congruent/L/C_Dist_200_LN_8_LD_15_RN_3_RD_9_0.png","img2/200/Congruent/R/C_Dist_200_LN_6_LD_20_RN_11_RD_22_1.png","img2/300/Incongruent/L/I_Dist_300_LN_2_LD_4_RN_6_RD_30_0.png","img2/300/Congruent/R/C_Dist_300_LN_5_LD_25_RN_6_RD_12_1.png","img2/300/Congruent/R/C_Dist_300_LN_1_LD_30_RN_8_RD_24_1.png","img2/200/Incongruent/R/I_Dist_200_LN_9_LD_15_RN_8_RD_10_1.png","img2/300/Congruent/L/C_Dist_300_LN_11_LD_22_RN_2_RD_10_0.png","img2/100/Congruent/L/C_Dist_100_LN_11_LD_22_RN_4_RD_10_0.png","img2/300/Congruent/L/C_Dist_300_LN_4_LD_10_RN_1_RD_10_0.png","img2/200/Incongruent/R/I_Dist_200_LN_4_LD_30_RN_1_RD_3_1.png","img2/200/Congruent/R/C_Dist_200_LN_3_LD_10_RN_11_RD_22_1.png","img2/200/Congruent/R/C_Dist_200_LN_5_LD_10_RN_14_RD_20_1.png","img2/300/Congruent/R/C_Dist_300_LN_1_LD_3_RN_19_RD_30_1.png","img2/300/Incongruent/L/I_Dist_300_LN_8_LD_10_RN_9_RD_18_0.png","img2/300/Congruent/R/C_Dist_300_LN_1_LD_5_RN_3_RD_6_1.png","img2/100/Congruent/R/C_Dist_100_LN_2_LD_5_RN_11_RD_22_1.png","img2/100/Congruent/R/C_Dist_100_LN_1_LD_2_RN_18_RD_30_1.png","img2/300/Congruent/R/C_Dist_300_LN_2_LD_20_RN_10_RD_25_1.png","img2/200/Incongruent/L/I_Dist_200_LN_1_LD_3_RN_2_RD_15_0.png","img2/100/Congruent/L/C_Dist_100_LN_3_LD_6_RN_2_RD_5_0.png","img2/200/Congruent/R/C_Dist_200_LN_3_LD_12_RN_9_RD_20_1.png","img2/100/Congruent/L/C_Dist_100_LN_11_LD_22_RN_4_RD_10_0.png","img2/100/Incongruent/R/I_Dist_100_LN_12_LD_24_RN_9_RD_15_1.png","img2/200/Congruent/L/C_Dist_200_LN_15_LD_25_RN_4_RD_10_0.png","img2/100/Incongruent/L/I_Dist_100_LN_2_LD_4_RN_8_RD_20_0.png","img2/100/Congruent/R/C_Dist_100_LN_12_LD_30_RN_13_RD_26_1.png","img2/200/Incongruent/L/I_Dist_200_LN_3_LD_4_RN_11_RD_20_0.png","img2/100/Congruent/L/C_Dist_100_LN_3_LD_6_RN_2_RD_5_0.png","img2/200/Incongruent/L/I_Dist_200_LN_4_LD_6_RN_14_RD_30_0.png","img2/200/Incongruent/R/I_Dist_200_LN_4_LD_30_RN_1_RD_3_1.png","img2/300/Congruent/R/C_Dist_300_LN_2_LD_20_RN_10_RD_25_1.png","img2/300/Incongruent/R/I_Dist_300_LN_13_LD_26_RN_12_RD_15_1.png","img2/300/Congruent/R/C_Dist_300_LN_1_LD_30_RN_8_RD_24_1.png","img2/200/Incongruent/L/I_Dist_200_LN_7_LD_10_RN_8_RD_16_0.png","img2/100/Incongruent/L/I_Dist_100_LN_3_LD_9_RN_7_RD_30_0.png","img2/100/Congruent/R/C_Dist_100_LN_4_LD_10_RN_15_RD_30_1.png","img2/200/Congruent/R/C_Dist_200_LN_3_LD_6_RN_14_RD_20_1.png","img2/300/Incongruent/L/I_Dist_300_LN_3_LD_6_RN_4_RD_20_0.png","img2/200/Congruent/L/C_Dist_200_LN_6_LD_15_RN_3_RD_15_0.png","img2/300/Incongruent/L/I_Dist_300_LN_7_LD_10_RN_8_RD_20_0.png","img2/300/Congruent/R/C_Dist_300_LN_1_LD_30_RN_8_RD_24_1.png","img2/100/Incongruent/L/I_Dist_100_LN_3_LD_5_RN_11_RD_22_0.png","img2/100/Congruent/R/C_Dist_100_LN_3_LD_20_RN_4_RD_16_1.png","img2/200/Congruent/R/C_Dist_200_LN_7_LD_15_RN_18_RD_27_1.png","img2/100/Incongruent/L/I_Dist_100_LN_9_LD_10_RN_20_RD_25_0.png","img2/100/Congruent/R/C_Dist_100_LN_2_LD_5_RN_11_RD_22_1.png","img2/100/Incongruent/L/I_Dist_100_LN_4_LD_8_RN_8_RD_20_0.png","img2/300/Congruent/R/C_Dist_300_LN_2_LD_20_RN_10_RD_25_1.png","img2/200/Incongruent/R/I_Dist_200_LN_9_LD_15_RN_8_RD_10_1.png","img2/200/Congruent/R/C_Dist_200_LN_6_LD_12_RN_7_RD_10_1.png","img2/200/Congruent/R/C_Dist_200_LN_7_LD_15_RN_18_RD_27_1.png","img2/300/Congruent/L/C_Dist_300_LN_18_LD_20_RN_9_RD_15_0.png","img2/300/Incongruent/R/I_Dist_300_LN_4_LD_20_RN_2_RD_4_1.png","img2/300/Incongruent/L/I_Dist_300_LN_1_LD_2_RN_2_RD_10_0.png","img2/100/Incongruent/L/I_Dist_100_LN_1_LD_2_RN_8_RD_20_0.png","img2/300/Congruent/R/C_Dist_300_LN_1_LD_30_RN_8_RD_24_1.png","img2/100/Congruent/L/C_Dist_100_LN_6_LD_20_RN_5_RD_25_0.png","img2/200/Incongruent/R/I_Dist_200_LN_7_LD_15_RN_4_RD_6_1.png","img2/200/Incongruent/L/I_Dist_200_LN_7_LD_10_RN_14_RD_28_0.png","img2/300/Incongruent/L/I_Dist_300_LN_7_LD_10_RN_8_RD_20_0.png","img2/300/Congruent/L/C_Dist_300_LN_9_LD_10_RN_3_RD_5_0.png","img2/300/Congruent/R/C_Dist_300_LN_5_LD_25_RN_7_RD_14_1.png","img2/100/Congruent/R/C_Dist_100_LN_6_LD_12_RN_15_RD_25_1.png","img2/100/Incongruent/L/I_Dist_100_LN_6_LD_10_RN_13_RD_26_0.png","img2/100/Incongruent/R/I_Dist_100_LN_17_LD_30_RN_10_RD_15_1.png","img2/300/Incongruent/L/I_Dist_300_LN_1_LD_2_RN_2_RD_10_0.png","img2/200/Congruent/R/C_Dist_200_LN_13_LD_26_RN_14_RD_20_1.png","img2/200/Incongruent/R/I_Dist_200_LN_9_LD_15_RN_8_RD_10_1.png","img2/100/Incongruent/R/I_Dist_100_LN_10_LD_25_RN_8_RD_16_1.png","img2/300/Incongruent/R/I_Dist_300_LN_4_LD_20_RN_2_RD_4_1.png","img2/200/Incongruent/L/I_Dist_200_LN_7_LD_10_RN_12_RD_24_0.png"],"dist100_C":[["C_Dist_100_LN_10_LD_25_RN_3_RD_10_0.png","C_Dist_100_LN_11_LD_22_RN_4_RD_10_0.png","C_Dist_100_LN_11_LD_22_RN_6_RD_15_0.png","C_Dist_100_LN_15_LD_25_RN_13_RD_26_0.png","C_Dist_100_LN_3_LD_6_RN_2_RD_5_0.png","C_Dist_100_LN_6_LD_20_RN_5_RD_25_0.png","C_Dist_100_LN_8_LD_16_RN_2_RD_5_0.png","C_Dist_100_LN_9_LD_15_RN_8_RD_16_0.png"],["C_Dist_100_LN_1_LD_2_RN_18_RD_30_1.png","C_Dist_100_LN_1_LD_2_RN_3_RD_5_1.png","C_Dist_100_LN_12_LD_30_RN_13_RD_26_1.png","C_Dist_100_LN_2_LD_5_RN_11_RD_22_1.png","C_Dist_100_LN_2_LD_5_RN_6_RD_12_1.png","C_Dist_100_LN_3_LD_20_RN_4_RD_16_1.png","C_Dist_100_LN_4_LD_10_RN_15_RD_30_1.png","C_Dist_100_LN_4_LD_8_RN_6_RD_10_1.png","C_Dist_100_LN_6_LD_12_RN_15_RD_25_1.png","C_Dist_100_LN_7_LD_14_RN_15_RD_25_1.png","C_Dist_100_LN_7_LD_14_RN_9_RD_15_1.png"]],"dist100_I":[["I_Dist_100_LN_1_LD_2_RN_8_RD_20_0.png","I_Dist_100_LN_2_LD_4_RN_6_RD_15_0.png","I_Dist_100_LN_2_LD_4_RN_8_RD_20_0.png","I_Dist_100_LN_3_LD_5_RN_11_RD_22_0.png","I_Dist_100_LN_3_LD_5_RN_8_RD_16_0.png","I_Dist_100_LN_3_LD_6_RN_4_RD_10_0.png","I_Dist_100_LN_3_LD_9_RN_7_RD_30_0.png","I_Dist_100_LN_4_LD_8_RN_8_RD_20_0.png","I_Dist_100_LN_6_LD_10_RN_11_RD_22_0.png","I_Dist_100_LN_6_LD_10_RN_13_RD_26_0.png","I_Dist_100_LN_6_LD_10_RN_7_RD_14_0.png","I_Dist_100_LN_9_LD_10_RN_20_RD_25_0.png","I_Dist_100_LN_9_LD_15_RN_13_RD_26_0.png","I_Dist_100_LN_9_LD_15_RN_14_RD_28_0.png"],["I_Dist_100_LN_10_LD_25_RN_8_RD_16_1.png","I_Dist_100_LN_10_LD_25_RN_9_RD_18_1.png","I_Dist_100_LN_11_LD_22_RN_9_RD_15_1.png","I_Dist_100_LN_12_LD_24_RN_9_RD_15_1.png","I_Dist_100_LN_12_LD_30_RN_2_RD_4_1.png","I_Dist_100_LN_13_LD_26_RN_12_RD_20_1.png","I_Dist_100_LN_13_LD_26_RN_6_RD_10_1.png","I_Dist_100_LN_17_LD_30_RN_10_RD_15_1.png","I_Dist_100_LN_6_LD_12_RN_3_RD_5_1.png","I_Dist_100_LN_8_LD_16_RN_6_RD_10_1.png","I_Dist_100_LN_8_LD_20_RN_1_RD_2_1.png","I_Dist_100_LN_9_LD_18_RN_6_RD_10_1.png"]],"dist100_S":[["E_Dist_100_LN_2_LD_12_RN_2_RD_30_0.png","E_Dist_100_LN_6_LD_10_RN_6_RD_12_0.png"],["E_Dist_100_LN_6_LD_12_RN_6_RD_10_1.png"]],"dist200_C":[["C_Dist_200_LN_11_LD_22_RN_3_RD_10_0.png","C_Dist_200_LN_12_LD_15_RN_6_RD_10_0.png","C_Dist_200_LN_12_LD_20_RN_6_RD_15_0.png","C_Dist_200_LN_14_LD_28_RN_6_RD_20_0.png","C_Dist_200_LN_15_LD_25_RN_4_RD_10_0.png","C_Dist_200_LN_16_LD_20_RN_12_RD_20_0.png","C_Dist_200_LN_16_LD_30_RN_9_RD_27_0.png","C_Dist_200_LN_20_LD_25_RN_9_RD_15_0.png","C_Dist_200_LN_21_LD_30_RN_2_RD_4_0.png","C_Dist_200_LN_4_LD_10_RN_3_RD_15_0.png","C_Dist_200_LN_4_LD_8_RN_3_RD_10_0.png","C_Dist_200_LN_6_LD_15_RN_3_RD_15_0.png","C_Dist_200_LN_7_LD_21_RN_2_RD_15_0.png","C_Dist_200_LN_8_LD_15_RN_2_RD_6_0.png","C_Dist_200_LN_8_LD_15_RN_3_RD_9_0.png","C_Dist_200_LN_8_LD_15_RN_7_RD_21_0.png","C_Dist_200_LN_9_LD_20_RN_4_RD_16_0.png"],["C_Dist_200_LN_1_LD_2_RN_21_RD_30_1.png","C_Dist_200_LN_13_LD_26_RN_14_RD_20_1.png","C_Dist_200_LN_3_LD_10_RN_11_RD_22_1.png","C_Dist_200_LN_3_LD_10_RN_14_RD_28_1.png","C_Dist_200_LN_3_LD_10_RN_7_RD_14_1.png","C_Dist_200_LN_3_LD_12_RN_9_RD_20_1.png","C_Dist_200_LN_3_LD_6_RN_14_RD_20_1.png","C_Dist_200_LN_5_LD_10_RN_14_RD_20_1.png","C_Dist_200_LN_6_LD_12_RN_7_RD_10_1.png","C_Dist_200_LN_6_LD_20_RN_11_RD_22_1.png","C_Dist_200_LN_7_LD_15_RN_18_RD_27_1.png","C_Dist_200_LN_9_LD_30_RN_13_RD_26_1.png"]],"dist200_I":[["I_Dist_200_LN_1_LD_2_RN_3_RD_10_0.png","I_Dist_200_LN_1_LD_3_RN_2_RD_15_0.png","I_Dist_200_LN_3_LD_4_RN_11_RD_20_0.png","I_Dist_200_LN_4_LD_5_RN_6_RD_10_0.png","I_Dist_200_LN_4_LD_6_RN_14_RD_30_0.png","I_Dist_200_LN_7_LD_10_RN_12_RD_24_0.png","I_Dist_200_LN_7_LD_10_RN_14_RD_28_0.png","I_Dist_200_LN_7_LD_10_RN_8_RD_16_0.png"],["I_Dist_200_LN_11_LD_20_RN_3_RD_4_1.png","I_Dist_200_LN_14_LD_30_RN_12_RD_18_1.png","I_Dist_200_LN_14_LD_30_RN_6_RD_9_1.png","I_Dist_200_LN_3_LD_10_RN_1_RD_2_1.png","I_Dist_200_LN_4_LD_30_RN_1_RD_3_1.png","I_Dist_200_LN_6_LD_20_RN_3_RD_6_1.png","I_Dist_200_LN_7_LD_15_RN_4_RD_6_1.png","I_Dist_200_LN_7_LD_15_RN_6_RD_9_1.png","I_Dist_200_LN_9_LD_15_RN_8_RD_10_1.png"]],"dist200_S":[["E_Dist_200_LN_3_LD_6_RN_3_RD_10_0.png"],["E_Dist_200_LN_3_LD_10_RN_3_RD_6_1.png"]],"dist300_C":[["C_Dist_300_LN_11_LD_22_RN_1_RD_5_0.png","C_Dist_300_LN_11_LD_22_RN_2_RD_10_0.png","C_Dist_300_LN_11_LD_22_RN_4_RD_20_0.png","C_Dist_300_LN_12_LD_24_RN_2_RD_10_0.png","C_Dist_300_LN_18_LD_20_RN_9_RD_15_0.png","C_Dist_300_LN_20_LD_25_RN_13_RD_26_0.png","C_Dist_300_LN_20_LD_25_RN_14_RD_28_0.png","C_Dist_300_LN_20_LD_25_RN_5_RD_10_0.png","C_Dist_300_LN_20_LD_25_RN_8_RD_16_0.png","C_Dist_300_LN_20_LD_25_RN_9_RD_18_0.png","C_Dist_300_LN_24_LD_30_RN_2_RD_4_0.png","C_Dist_300_LN_24_LD_30_RN_8_RD_16_0.png","C_Dist_300_LN_3_LD_6_RN_2_RD_10_0.png","C_Dist_300_LN_4_LD_10_RN_1_RD_10_0.png","C_Dist_300_LN_4_LD_5_RN_2_RD_4_0.png","C_Dist_300_LN_8_LD_16_RN_1_RD_5_0.png","C_Dist_300_LN_9_LD_10_RN_3_RD_5_0.png"],["C_Dist_300_LN_1_LD_20_RN_7_RD_20_1.png","C_Dist_300_LN_1_LD_3_RN_19_RD_30_1.png","C_Dist_300_LN_1_LD_30_RN_8_RD_24_1.png","C_Dist_300_LN_1_LD_5_RN_11_RD_22_1.png","C_Dist_300_LN_1_LD_5_RN_3_RD_6_1.png","C_Dist_300_LN_1_LD_5_RN_6_RD_12_1.png","C_Dist_300_LN_2_LD_10_RN_12_RD_24_1.png","C_Dist_300_LN_2_LD_20_RN_10_RD_25_1.png","C_Dist_300_LN_3_LD_12_RN_11_RD_20_1.png","C_Dist_300_LN_3_LD_6_RN_4_RD_5_1.png","C_Dist_300_LN_4_LD_20_RN_13_RD_26_1.png","C_Dist_300_LN_5_LD_25_RN_6_RD_12_1.png","C_Dist_300_LN_5_LD_25_RN_7_RD_14_1.png","C_Dist_300_LN_7_LD_14_RN_20_RD_25_1.png","C_Dist_300_LN_8_LD_15_RN_10_RD_12_1.png"]],"dist300_I":[["I_Dist_300_LN_1_LD_2_RN_2_RD_10_0.png","I_Dist_300_LN_1_LD_2_RN_3_RD_15_0.png","I_Dist_300_LN_2_LD_4_RN_6_RD_30_0.png","I_Dist_300_LN_3_LD_6_RN_4_RD_20_0.png","I_Dist_300_LN_4_LD_5_RN_6_RD_12_0.png","I_Dist_300_LN_4_LD_5_RN_8_RD_16_0.png","I_Dist_300_LN_7_LD_10_RN_8_RD_20_0.png","I_Dist_300_LN_8_LD_10_RN_14_RD_28_0.png","I_Dist_300_LN_8_LD_10_RN_9_RD_18_0.png"],["I_Dist_300_LN_13_LD_26_RN_12_RD_15_1.png","I_Dist_300_LN_4_LD_20_RN_2_RD_4_1.png"]],"dist300_S":[["E_Dist_300_LN_9_LD_12_RN_9_RD_20_0.png"],["E_Dist_300_LN_18_LD_30_RN_18_RD_20_1.png","E_Dist_300_LN_3_LD_10_RN_3_RD_5_1.png","E_Dist_300_LN_9_LD_20_RN_9_RD_12_1.png"]],"dist500_C":[["C_Dist_500_LN_10_LD_13_RN_7_RD_26_0.png","C_Dist_500_LN_10_LD_15_RN_4_RD_24_0.png","C_Dist_500_LN_12_LD_16_RN_3_RD_12_0.png","C_Dist_500_LN_12_LD_18_RN_4_RD_24_0.png","C_Dist_500_LN_15_LD_18_RN_5_RD_15_0.png","C_Dist_500_LN_15_LD_20_RN_1_RD_4_0.png","C_Dist_500_LN_18_LD_27_RN_1_RD_6_0.png","C_Dist_500_LN_20_LD_24_RN_1_RD_3_0.png","C_Dist_500_LN_20_LD_24_RN_3_RD_9_0.png","C_Dist_500_LN_20_LD_24_RN_7_RD_21_0.png","C_Dist_500_LN_20_LD_28_RN_3_RD_14_0.png","C_Dist_500_LN_21_LD_28_RN_6_RD_24_0.png","C_Dist_500_LN_22_LD_28_RN_2_RD_7_0.png","C_Dist_500_LN_25_LD_30_RN_9_RD_27_0.png","C_Dist_500_LN_4_LD_6_RN_1_RD_6_0.png","C_Dist_500_LN_5_LD_6_RN_2_RD_6_0.png","C_Dist_500_LN_6_LD_9_RN_1_RD_6_0.png","C_Dist_500_LN_7_LD_10_RN_1_RD_5_0.png","C_Dist_500_LN_8_LD_12_RN_1_RD_6_0.png","C_Dist_500_LN_8_LD_12_RN_4_RD_24_0.png"],["C_Dist_500_LN_1_LD_4_RN_12_RD_16_1.png","C_Dist_500_LN_1_LD_4_RN_9_RD_12_1.png","C_Dist_500_LN_1_LD_9_RN_11_RD_18_1.png","C_Dist_500_LN_10_LD_24_RN_22_RD_24_1.png","C_Dist_500_LN_2_LD_12_RN_10_RD_15_1.png","C_Dist_500_LN_2_LD_12_RN_12_RD_18_1.png","C_Dist_500_LN_2_LD_12_RN_4_RD_6_1.png","C_Dist_500_LN_2_LD_24_RN_7_RD_12_1.png","C_Dist_500_LN_2_LD_5_RN_18_RD_20_1.png","C_Dist_500_LN_2_LD_5_RN_9_RD_10_1.png","C_Dist_500_LN_2_LD_8_RN_12_RD_16_1.png","C_Dist_500_LN_2_LD_8_RN_21_RD_28_1.png","C_Dist_500_LN_3_LD_10_RN_4_RD_5_1.png","C_Dist_500_LN_3_LD_12_RN_15_RD_20_1.png","C_Dist_500_LN_3_LD_30_RN_6_RD_10_1.png","C_Dist_500_LN_3_LD_8_RN_14_RD_16_1.png","C_Dist_500_LN_4_LD_16_RN_15_RD_20_1.png","C_Dist_500_LN_4_LD_24_RN_12_RD_18_1.png","C_Dist_500_LN_5_LD_14_RN_6_RD_7_1.png","C_Dist_500_LN_7_LD_21_RN_20_RD_24_1.png","C_Dist_500_LN_7_LD_28_RN_12_RD_16_1.png","C_Dist_500_LN_7_LD_28_RN_9_RD_12_1.png","C_Dist_500_LN_9_LD_27_RN_20_RD_24_1.png"]],"dist500_I":[["I_Dist_500_LN_2_LD_3_RN_4_RD_24_0.png","I_Dist_500_LN_5_LD_6_RN_6_RD_18_0.png","I_Dist_500_LN_7_LD_8_RN_9_RD_24_0.png"],["I_Dist_500_LN_7_LD_21_RN_5_RD_6_1.png"]],"dist500_S":[["E_Dist_500_LN_6_LD_8_RN_6_RD_24_0.png"],["E_Dist_500_LN_2_LD_12_RN_2_RD_3_1.png","E_Dist_500_LN_6_LD_24_RN_6_RD_8_1.png"]]}},{"start_time":1551886987377,"click_time":1551886989922,"finger_time":1551886989303,"fix_duration":654.0337665708863,"trial":1,"RT":1926,"MT":619,"sideResp":1,"stimulus":[],"xmouse":[811,811,811,811,811,811,811,811,811,811,811,811,811,811,811,811,811,811,811,811,811,811,811,811,811,811,811,811,811,811,811,811,811,811,811,811,811,811,811,811,811,811,811,811,811,811,811,811,811,811,811,811,811,811,811,811,811,811,811,811,811,811,811,811,811,811,811,811,811,811,811,811,811,811,811,811,811,811,811,811,811,811,811,811,811,811,811,811,811,811,811,811,811,811,811,811,806,804,799,792,787,775,757,751,743,736,714,699,682,666,649,624,589,575,563,551,539,526,524,523,522,520,520,520,520,518,516,503],"ymouse":[461,461,461,461,461,461,461,461,461,461,461,461,461,461,461,461,461,461,461,461,461,461,461,461,461,461,461,461,461,461,461,461,461,461,461,461,461,461,461,461,461,461,461,461,461,461,461,461,461,461,461,461,461,461,461,461,461,461,461,461,461,461,461,461,461,461,461,461,461,461,461,461,461,461,461,461,461,461,461,461,461,461,461,461,461,461,461,461,461,461,461,461,461,461,461,461,448,438,425,411,402,385,363,355,343,334,307,293,278,265,249,225,193,177,162,147,134,116,112,109,106,104,104,104,104,102,102,96],"timestamp_mouse":[9,24,46,65,85,106,124,144,164,184,204,224,244,265,285,306,324,344,365,385,404,425,446,464,484,506,525,544,566,584,604,625,646,665,685,704,726,744,765,785,805,825,844,865,884,905,926,944,964,985,1004,1024,1046,1065,1084,1105,1126,1146,1164,1184,1206,1224,1244,1266,1284,1304,1326,1345,1364,1385,1404,1425,1445,1464,1485,1504,1524,1546,1565,1585,1605,1626,1646,1665,1685,1705,1726,1746,1765,1785,1805,1825,1846,1866,1884,1904,1926,1945,1964,1984,2005,2025,2044,2064,2085,2104,2125,2144,2164,2185,2205,2225,2244,2264,2284,2304,2324,2344,2365,2384,2404,2425,2445,2464,2484,2505,2524,2544],"xSR":741.5,"ySR":449.15000000000003,"xT1":424.9,"yT1":0,"xT2":1058.1,"yT2":0,"toosoon":0,"cond_shown":"Incongruent","ratio_trial":100,"L_num":12,"L_den":24,"R_num":9,"R_den":15,"correct_side":2,"subjID":"danielfelipecortesmora14","gender":"No_gender","school":"colegiocafam","age":"10"},{"start_time":1551886993695,"click_time":1551887002603,"finger_time":1551886996962,"fix_duration":811.2286566588895,"trial":2,"RT":3267,"MT":5641,"sideResp":1,"stimulus":[],"xmouse":[758,758,758,758,758,758,758,758,758,758,758,758,758,758,758,758,758,758,758,758,758,758,758,758,758,758,758,758,758,758,758,758,758,758,758,758,758,758,758,758,758,758,758,758,758,758,758,758,758,758,758,758,758,758,758,758,758,758,758,758,758,758,758,758,758,758,758,758,758,758,758,758,758,758,758,758,758,758,758,758,758,758,758,758,758,758,758,758,757,757,757,757,757,757,757,757,759,762,765,768,770,771,771,771,772,773,774,774,774,774,775,775,775,775,775,775,775,774,770,766,765,761,761,761,761,761,761,761,761,761,761,761,761,761,761,761,761,761,761,761,761,761,761,761,761,761,761,761,761,761,761,761,761,761,761,761,761,761,765,769,782,821,835,856,874,902,998,1041,1062,1062,1062,1062,1062,1062,1062,1062,1062,1062,1062,1062,1062,1062,1062,1062,1062,1065,1048,1034,1018,995,973,953,952,952,951,943,927,922,919,916,913,898,888,873,862,839,832,827,824,823,822,811,801,791,784,772,761,759,759,759,759,764,766,769,773,775,779,780,783,786,793,794,794,794,794,794,794,794,795,795,795,794,794,793,793,793,792,792,792,791,790,789,789,789,789,789,788,788,788,788,788,788,788,787,787,786,773,768,765,765,765,765,765,765,765,765,757,742,726,710,695,663,646,634,628,625,625,625,625,625,625,625,625,625,636,654,706,747,794,824,840,844,844,844,844,844,844,844,844,844,844,838,828,814,807,774,717,706,705,705,704,704,705,710,713,723,729,747,779,815,847,873,873,873,873,873,873,873,873,873,873,871,857,846,836,827,804,804,804,804,804,804,804,804,804,804,804,804,804,804,804,804,804,809,818,858,918,949,983,1026,1105,1133,1161,1183,1195,1208,1222,1226,1228,1228,1223,1195,1183,1173,1162,1145,1132,1130,1125,1121,1117,1113,1111,1105,1103,1095,1083,1069,1051,1027,998,947,929,915,914,912,910,908,903,897,890,878,873,868,866,864,857,850,838,822,772,731,689,655,623,586,561,560,560,560,560,560,560,560,560,560,560,560,559,556,554,553,551,549,537,524],"ymouse":[454,454,454,454,454,454,454,454,454,454,454,454,454,454,454,454,454,454,454,454,454,454,454,454,454,454,454,454,454,454,454,454,454,454,454,454,454,454,454,454,454,454,454,454,454,454,454,454,454,454,454,454,454,454,454,454,454,454,454,454,454,454,454,454,454,454,454,454,454,454,454,454,454,454,454,454,454,454,454,454,454,454,454,454,454,454,454,454,456,457,458,460,462,465,474,484,514,526,535,541,544,544,544,544,544,544,544,544,544,544,544,544,544,544,542,536,531,525,515,502,495,484,484,484,484,484,484,484,484,484,484,484,484,484,484,484,484,484,484,484,484,484,484,484,484,484,484,484,484,484,484,484,484,484,484,484,484,484,483,484,488,502,509,519,529,551,618,654,689,689,689,689,689,689,689,689,689,689,689,689,689,689,689,689,689,672,656,652,648,641,634,630,630,630,630,628,627,626,625,625,625,625,625,625,625,624,623,623,623,623,623,621,619,619,616,614,606,605,601,595,588,569,561,556,549,544,539,539,538,537,536,536,536,536,536,536,536,536,534,534,532,531,529,529,528,527,527,527,526,526,526,525,525,525,524,523,521,520,519,519,519,519,519,518,518,518,514,512,512,512,512,512,512,512,512,512,512,512,512,512,513,513,512,509,508,507,507,507,507,507,507,507,507,507,507,507,508,508,508,508,508,508,508,508,508,508,508,508,508,508,508,507,506,503,502,496,488,486,486,486,486,486,486,486,486,486,486,486,489,495,498,502,502,502,502,502,502,502,502,502,502,502,502,500,498,497,494,494,494,494,494,494,494,494,494,494,494,494,494,494,494,494,494,491,488,480,460,448,431,413,389,378,368,359,351,337,311,297,281,263,245,203,188,179,169,159,153,152,151,149,149,147,147,145,145,143,145,149,154,158,162,164,162,157,156,154,152,151,150,147,146,146,146,146,146,146,146,146,146,146,143,137,130,125,121,111,102,101,101,101,101,101,99,98,98,95,95,94,92,90,89,88,88,87,84,81],"timestamp_mouse":[23,36,47,67,87,106,127,147,166,186,208,226,247,266,287,306,327,346,368,386,408,426,447,466,486,508,527,546,567,587,607,626,647,667,687,707,727,746,767,787,807,827,847,866,887,907,927,946,968,987,1006,1026,1047,1067,1087,1107,1126,1147,1168,1187,1207,1226,1248,1267,1286,1307,1328,1346,1366,1386,1408,1426,1447,1468,1487,1506,1527,1548,1567,1586,1608,1626,1647,1667,1686,1706,1726,1746,1768,1787,1807,1826,1846,1867,1887,1907,1927,1946,1967,1986,2006,2028,2047,2066,2086,2106,2126,2146,2168,2186,2206,2226,2247,2266,2286,2308,2326,2346,2367,2387,2407,2426,2447,2466,2486,2507,2526,2547,2567,2587,2607,2626,2648,2668,2687,2706,2727,2747,2766,2787,2806,2826,2848,2866,2886,2906,2927,2947,2966,2987,3008,3026,3046,3068,3087,3106,3126,3146,3167,3186,3206,3226,3247,3267,3286,3307,3327,3347,3366,3387,3407,3427,3446,3467,3486,3507,3526,3547,3567,3587,3608,3627,3647,3666,3687,3706,3727,3746,3767,3787,3807,3826,3846,3866,3886,3906,3926,3946,3966,3986,4007,4026,4047,4066,4088,4108,4126,4147,4166,4186,4207,4226,4246,4267,4288,4307,4326,4346,4367,4386,4407,4426,4447,4468,4486,4507,4527,4546,4567,4587,4608,4626,4646,4667,4686,4707,4726,4746,4766,4786,4807,4826,4847,4868,4886,4906,4926,4946,4966,4986,5006,5027,5046,5066,5087,5106,5127,5146,5168,5186,5206,5227,5246,5266,5286,5306,5326,5346,5367,5386,5406,5426,5446,5466,5487,5506,5528,5546,5567,5586,5606,5626,5648,5667,5687,5706,5727,5747,5766,5786,5807,5828,5846,5866,5887,5908,5926,5946,5968,5986,6006,6026,6046,6067,6087,6107,6126,6146,6166,6187,6207,6227,6246,6266,6287,6307,6326,6346,6366,6386,6407,6428,6446,6466,6487,6507,6526,6546,6566,6587,6607,6626,6646,6666,6687,6706,6726,6746,6766,6787,6807,6826,6847,6867,6886,6907,6927,6947,6966,6986,7007,7026,7046,7066,7087,7106,7127,7146,7167,7186,7207,7226,7246,7266,7286,7307,7326,7347,7366,7387,7407,7426,7446,7466,7487,7506,7526,7547,7568,7586,7606,7626,7647,7667,7687,7706,7726,7746,7766,7786,7807,7826,7847,7866,7886,7907,7926,7946,7968,7987,8007,8027,8047,8066,8086,8108,8129,8146,8166,8186,8206,8226,8246,8266,8286,8306,8326,8346,8368,8387,8407,8426,8448,8467,8486,8507,8526,8546,8567,8588,8606,8626,8646,8667,8686,8707,8726,8754,8767,8786,8807,8826,8847,8866,8886,8907],"xSR":741.5,"ySR":449.15000000000003,"xT1":424.9,"yT1":0,"xT2":1058.1,"yT2":0,"toosoon":0,"cond_shown":"Incongruent","ratio_trial":300,"L_num":8,"L_den":10,"R_num":14,"R_den":28,"correct_side":1,"subjID":"danielfelipecortesmora14","gender":"No_gender","school":"colegiocafam","age":"10"},{"start_time":1551887004553,"click_time":1551887012202,"finger_time":1551887010862,"fix_duration":630.7481737759801,"trial":3,"RT":6309,"MT":1340,"sideResp":2,"stimulus":[],"xmouse":[796,794,794,793,791,790,789,789,789,789,789,789,789,789,789,789,789,789,789,789,789,789,789,789,789,789,789,789,789,789,789,789,789,789,789,789,789,789,789,789,789,789,789,788,788,788,788,788,788,788,788,788,788,788,788,788,788,788,788,788,788,788,788,788,788,788,788,788,788,788,788,788,788,788,788,788,788,788,788,788,788,788,788,788,788,788,788,788,788,788,788,788,788,788,788,788,788,788,788,788,788,788,788,788,788,788,788,788,788,788,788,788,788,788,788,788,788,788,788,788,788,788,788,788,788,788,788,788,788,788,788,788,788,788,788,788,788,788,788,788,788,788,788,788,788,788,788,788,788,788,788,788,788,788,788,788,788,788,788,788,788,788,788,788,788,788,788,788,788,788,788,788,788,788,788,788,788,788,788,788,788,788,788,788,788,788,788,788,788,788,788,788,788,788,788,788,788,788,788,788,788,788,788,788,788,788,788,788,788,788,788,788,788,788,788,788,788,788,788,788,788,788,788,788,788,788,788,788,788,788,788,788,788,788,788,788,788,788,788,788,788,788,788,788,788,788,788,788,788,788,788,788,788,788,788,788,788,788,788,788,788,788,788,788,788,788,788,788,788,788,788,788,788,788,788,788,788,788,788,788,788,788,788,788,788,788,788,788,788,788,788,788,788,788,788,788,788,788,788,788,788,788,788,788,788,788,788,788,788,788,788,788,787,804,831,851,881,907,920,920,920,920,920,920,920,920,920,920,920,920,920,920,920,880,823,765,705,566,489,417,355,334,327,326,336,358,389,427,511,544,570,605,660,671,672,672,675,685,699,720,757,793,841,925,1032,1159,1264,1298,1309,1309,1309,1309,1309,1299,1275,1245,1213,1186,1181,1178,1174,1168,1156],"ymouse":[465,465,465,465,465,465,465,465,465,465,465,465,465,465,465,465,465,465,465,465,465,465,465,465,465,465,465,465,465,465,465,465,465,465,465,465,465,465,465,465,465,465,465,465,465,465,465,465,465,465,465,465,465,465,465,465,465,465,465,465,465,465,465,465,465,465,465,465,465,465,465,465,465,465,465,465,465,465,465,465,465,465,465,465,465,465,465,465,465,465,465,465,465,465,465,465,465,465,465,465,465,465,465,465,465,465,465,465,465,465,465,465,465,465,465,465,465,465,465,465,465,465,465,465,465,465,465,465,465,465,465,465,465,465,465,465,465,465,465,465,465,465,465,465,465,465,465,465,465,465,465,465,465,465,465,465,465,465,465,465,465,465,465,465,465,465,465,465,465,465,465,465,465,465,465,465,465,465,465,465,465,465,465,465,465,465,465,465,465,465,465,465,465,465,465,465,465,465,465,465,465,465,465,465,465,465,465,465,465,465,465,465,465,465,465,465,465,465,465,465,465,465,465,465,465,465,465,465,465,465,465,465,465,465,465,465,465,465,465,465,465,465,465,465,465,465,465,465,465,465,465,465,465,465,465,465,465,465,465,465,465,465,465,465,465,465,465,465,465,465,465,465,465,465,465,465,465,465,465,465,465,465,465,465,465,465,465,465,465,465,465,465,465,465,465,465,465,465,465,465,465,465,465,465,465,465,465,465,465,465,465,465,465,474,486,495,503,507,512,512,512,512,512,512,512,512,512,512,512,512,512,512,509,470,445,415,372,288,249,222,203,199,198,198,200,204,210,216,220,217,209,200,184,178,178,178,178,178,178,179,184,186,186,188,196,196,196,196,195,194,192,192,189,171,153,132,113,90,85,81,77,74,70],"timestamp_mouse":[8,29,51,68,88,108,129,148,169,189,209,228,248,269,288,308,330,349,369,389,408,428,448,469,489,509,528,549,568,589,608,630,648,669,688,709,729,748,768,789,808,828,849,870,889,908,929,949,970,988,1010,1028,1048,1068,1089,1110,1128,1149,1169,1189,1209,1228,1248,1268,1289,1310,1329,1349,1369,1389,1409,1428,1449,1470,1489,1509,1530,1550,1568,1589,1609,1628,1649,1668,1688,1710,1729,1748,1770,1788,1809,1828,1849,1870,1888,1909,1928,1948,1970,1988,2008,2029,2049,2068,2089,2108,2128,2149,2168,2190,2210,2228,2249,2268,2288,2310,2328,2349,2370,2388,2409,2430,2449,2468,2489,2509,2529,2550,2568,2588,2610,2628,2649,2670,2688,2709,2730,2748,2768,2789,2809,2829,2850,2868,2889,2909,2928,2948,2969,2990,3009,3029,3048,3069,3088,3110,3129,3149,3170,3189,3209,3228,3249,3270,3289,3310,3328,3348,3368,3389,3409,3428,3449,3468,3489,3508,3528,3550,3568,3589,3609,3629,3650,3668,3689,3710,3729,3750,3768,3789,3809,3828,3849,3868,3888,3909,3929,3949,3969,3988,4008,4029,4048,4068,4088,4108,4129,4149,4169,4188,4209,4229,4249,4268,4289,4309,4328,4348,4369,4390,4409,4428,4450,4470,4488,4510,4529,4550,4568,4589,4609,4628,4648,4668,4688,4709,4728,4748,4769,4790,4808,4828,4850,4869,4889,4908,4928,4949,4970,4989,5009,5029,5048,5069,5090,5109,5129,5148,5168,5190,5209,5230,5248,5268,5288,5308,5328,5348,5369,5388,5409,5429,5448,5469,5489,5510,5529,5549,5570,5588,5608,5629,5648,5668,5689,5710,5728,5749,5768,5789,5810,5828,5849,5868,5888,5909,5928,5948,5968,5988,6010,6029,6049,6068,6088,6108,6128,6149,6170,6188,6209,6230,6248,6268,6288,6309,6328,6348,6368,6388,6410,6428,6449,6468,6490,6508,6528,6548,6568,6588,6608,6629,6649,6668,6688,6708,6729,6750,6769,6789,6808,6828,6848,6869,6888,6908,6928,6948,6968,6988,7009,7028,7049,7068,7089,7109,7128,7150,7169,7190,7209,7229,7248,7268,7288,7308,7329,7349,7368,7388,7410,7429,7449,7468,7488,7508,7528,7549,7568,7589,7608,7629,7649],"xSR":741.5,"ySR":449.15000000000003,"xT1":424.9,"yT1":0,"xT2":1058.1,"yT2":0,"toosoon":0,"cond_shown":"Congruent","ratio_trial":200,"L_num":15,"L_den":25,"R_num":4,"R_den":10,"correct_side":1,"subjID":"danielfelipecortesmora14","gender":"No_gender","school":"colegiocafam","age":"10"},{"start_time":1551887014456,"click_time":1551887015982,"finger_time":1551887015342,"fix_duration":1013.8135492904365,"trial":4,"RT":886,"MT":640,"sideResp":1,"stimulus":[],"xmouse":[802,802,802,802,802,802,802,802,802,802,802,802,802,802,802,802,802,802,802,802,802,802,802,802,802,802,802,802,802,802,802,802,802,802,802,802,802,802,802,802,802,797,792,777,769,760,754,743,734,730,727,723,717,712,705,697,688,671,650,636,623,610,597,582,580,579,579,579,578,575,572,564,554,524,514,505,499],"ymouse":[513,513,513,513,513,513,513,513,513,513,513,513,513,513,513,513,513,513,513,513,513,513,513,513,513,513,513,513,513,513,513,513,513,513,513,513,513,513,513,513,513,503,494,463,442,422,406,383,361,352,346,339,326,317,305,294,281,257,223,204,187,169,152,134,132,130,130,130,128,125,122,119,114,106,102,100,99],"timestamp_mouse":[10,34,45,66,85,107,125,145,165,185,206,227,246,265,287,305,326,346,366,385,405,425,446,466,485,506,525,545,566,585,605,625,645,665,686,706,727,746,765,786,806,825,846,865,886,906,926,946,965,986,1007,1026,1046,1065,1085,1106,1126,1145,1166,1185,1205,1226,1245,1265,1285,1306,1327,1345,1365,1385,1405,1426,1445,1465,1486,1506,1526],"xSR":741.5,"ySR":449.15000000000003,"xT1":424.9,"yT1":0,"xT2":1058.1,"yT2":0,"toosoon":0,"cond_shown":"Incongruent","ratio_trial":100,"L_num":9,"L_den":18,"R_num":6,"R_den":10,"correct_side":2,"subjID":"danielfelipecortesmora14","gender":"No_gender","school":"colegiocafam","age":"10"},{"start_time":1551887021187,"click_time":1551887023421,"finger_time":1551887022742,"fix_duration":1163.1855086340938,"trial":5,"RT":1555,"MT":679,"sideResp":2,"stimulus":[],"xmouse":[778,778,778,778,778,778,778,778,778,778,778,778,778,778,778,778,778,778,778,778,778,778,778,778,778,778,778,778,778,778,778,778,778,778,778,778,778,778,778,778,778,778,778,778,778,778,778,778,778,778,778,778,778,778,778,778,778,778,778,778,778,778,778,778,778,778,778,778,778,778,779,782,786,792,799,809,822,832,846,867,889,898,904,911,916,924,950,969,985,1000,1017,1032,1034,1037,1041,1044,1048,1051,1052,1052,1053,1053,1053,1056,1061,1068,1088,1093,1095,1095,1095,1091],"ymouse":[483,483,483,483,483,483,483,483,483,483,483,483,483,483,483,483,483,483,483,483,483,483,483,483,483,483,483,483,483,483,483,483,483,483,483,483,483,483,483,483,483,483,483,483,483,483,483,483,483,483,483,483,483,483,483,483,483,483,483,483,483,483,483,483,483,483,483,483,483,481,481,480,478,475,472,465,455,442,427,407,381,367,356,346,338,327,300,283,264,247,225,202,200,197,193,189,178,172,168,167,166,166,164,159,154,144,117,113,110,107,102,78],"timestamp_mouse":[15,41,54,74,95,115,134,155,175,195,215,235,256,275,294,315,335,355,374,394,414,436,455,475,495,515,534,554,576,594,615,636,656,675,696,714,734,755,775,794,815,835,855,875,896,915,934,956,974,994,1014,1036,1055,1075,1095,1114,1134,1156,1174,1194,1216,1234,1256,1274,1295,1314,1334,1356,1375,1395,1415,1434,1454,1475,1495,1515,1534,1555,1574,1595,1615,1634,1654,1674,1694,1714,1734,1755,1774,1794,1814,1834,1855,1874,1895,1914,1934,1954,1974,1994,2014,2034,2054,2076,2096,2114,2134,2155,2175,2195,2215,2234],"xSR":741.5,"ySR":449.15000000000003,"xT1":424.9,"yT1":0,"xT2":1058.1,"yT2":0,"toosoon":0,"cond_shown":"Incongruent","ratio_trial":200,"L_num":4,"L_den":5,"R_num":6,"R_den":10,"correct_side":1,"subjID":"danielfelipecortesmora14","gender":"No_gender","school":"colegiocafam","age":"10"},{"start_time":1551887027931,"click_time":1551887030021,"finger_time":1551887029241,"fix_duration":1207.715875855221,"trial":6,"RT":1310,"MT":780,"sideResp":2,"stimulus":[],"xmouse":[786,786,786,786,786,786,786,786,786,786,786,786,786,786,786,786,786,786,786,786,786,786,786,786,786,786,786,786,786,786,786,786,786,786,786,786,786,786,786,786,786,786,786,786,786,786,786,786,786,786,786,786,786,786,786,786,786,786,786,786,786,786,786,786,819,860,920,983,1064,1078,1087,1090,1090,1096,1099,1101,1101,1100,1085,1075,1064,1053,1040,1032,1025,1022,1020,1020,1019,1019,1019,1021,1024,1028,1031,1032,1032,1032,1033,1033,1033,1033,1035,1045,1060],"ymouse":[487,487,487,487,487,487,487,487,487,487,487,487,487,487,487,487,487,487,487,487,487,487,487,487,487,487,487,487,487,487,487,487,487,487,487,487,487,487,487,487,487,487,487,487,487,487,487,487,487,487,487,487,487,487,487,487,487,487,487,487,487,487,487,488,486,477,460,438,402,394,389,386,385,357,335,316,299,283,257,246,236,226,215,201,178,164,157,148,136,132,130,123,119,111,102,99,95,93,91,91,90,88,88,87,85],"timestamp_mouse":[11,38,50,71,90,111,130,151,170,190,211,230,250,270,290,312,331,352,370,390,411,431,450,470,491,512,531,551,571,590,611,630,651,670,691,711,732,751,771,791,812,831,851,872,890,911,931,950,971,992,1011,1030,1051,1071,1091,1110,1130,1151,1171,1191,1211,1230,1250,1271,1290,1310,1330,1350,1371,1391,1411,1430,1450,1471,1490,1510,1530,1551,1572,1590,1610,1631,1651,1671,1690,1710,1731,1750,1771,1790,1811,1831,1851,1871,1891,1910,1930,1950,1970,1990,2010,2030,2050,2070,2090],"xSR":741.5,"ySR":449.15000000000003,"xT1":424.9,"yT1":0,"xT2":1058.1,"yT2":0,"toosoon":0,"cond_shown":"Congruent","ratio_trial":200,"L_num":12,"L_den":15,"R_num":6,"R_den":10,"correct_side":1,"subjID":"danielfelipecortesmora14","gender":"No_gender","school":"colegiocafam","age":"10"},{"start_time":1551887033179,"click_time":1551887035102,"finger_time":1551887034661,"fix_duration":1455.9241427741583,"trial":7,"RT":1482,"MT":441,"sideResp":1,"stimulus":[],"xmouse":[815,815,815,814,814,814,814,814,814,814,814,814,814,814,813,813,813,813,813,813,813,813,813,813,813,813,813,813,813,813,813,813,813,813,813,813,813,813,813,813,813,813,813,813,813,813,813,813,813,813,813,813,813,813,813,813,813,813,813,813,813,813,813,813,813,813,813,813,813,813,813,813,809,797,778,749,688,675,667,663,659,650,635,627,618,609,597,575,571,570,568,561,554,546,535,525,512],"ymouse":[475,475,475,474,474,474,474,474,474,474,474,474,474,474,473,473,473,473,473,473,473,473,473,473,473,473,473,473,473,473,473,473,473,473,473,473,473,473,473,473,473,473,473,473,473,473,473,473,473,473,473,473,473,473,473,473,473,473,473,473,473,473,473,473,473,473,473,473,473,473,473,473,466,450,425,394,320,299,283,270,259,232,190,165,141,119,99,69,65,63,63,63,63,63,63,63,63],"timestamp_mouse":[10,22,43,63,83,102,123,143,163,183,203,222,242,263,283,304,324,343,364,383,404,423,444,463,482,502,523,542,563,584,602,622,642,662,683,703,723,743,762,783,803,822,842,864,882,903,924,943,962,982,1002,1023,1042,1062,1083,1102,1122,1142,1162,1183,1202,1223,1242,1262,1284,1303,1323,1343,1363,1382,1402,1422,1442,1462,1482,1502,1523,1542,1562,1583,1602,1623,1642,1662,1682,1703,1723,1742,1763,1782,1802,1823,1843,1863,1883,1902,1923],"xSR":741.5,"ySR":449.15000000000003,"xT1":424.9,"yT1":0,"xT2":1058.1,"yT2":0,"toosoon":0,"cond_shown":"Congruent","ratio_trial":300,"L_num":20,"L_den":25,"R_num":9,"R_den":18,"correct_side":1,"subjID":"danielfelipecortesmora14","gender":"No_gender","school":"colegiocafam","age":"10"},{"start_time":1551887039120,"click_time":1551887041321,"finger_time":1551887040821,"fix_duration":837.6155355461216,"trial":8,"RT":1701,"MT":500,"sideResp":1,"stimulus":[],"xmouse":[809,809,809,809,809,809,809,809,809,809,809,809,809,809,809,809,809,809,809,809,809,809,809,809,809,809,809,809,809,809,809,809,809,809,809,809,809,809,809,809,809,809,809,809,809,809,809,809,810,812,814,814,814,814,814,814,814,814,814,814,814,814,814,814,814,814,814,814,815,815,819,820,821,821,821,823,823,823,823,823,823,820,814,806,795,720,655,582,515,429,408,399,392,384,380,378,378,380,384,387,392,394,394,394,394,394,396,399,405,412,433],"ymouse":[509,509,509,509,509,509,509,509,509,509,509,509,509,509,509,509,509,509,509,509,509,509,509,509,509,509,509,509,509,509,509,509,509,509,509,509,509,509,509,509,509,509,509,509,509,509,509,508,507,506,505,505,505,505,505,505,505,505,505,505,505,505,505,505,505,505,505,505,504,503,499,498,497,497,497,495,494,494,493,491,487,483,477,469,458,402,363,326,286,224,200,180,160,143,121,91,81,71,61,54,44,42,42,42,42,42,42,45,52,59,73],"timestamp_mouse":[11,40,41,63,81,102,122,142,161,182,202,222,242,261,281,301,321,341,362,382,401,422,442,461,481,501,521,541,561,581,601,621,642,662,681,701,722,741,761,781,802,822,841,861,881,902,921,941,961,981,1002,1022,1041,1061,1081,1103,1122,1141,1161,1181,1202,1221,1241,1261,1283,1301,1321,1341,1361,1381,1401,1422,1443,1463,1482,1502,1522,1542,1561,1582,1601,1621,1641,1662,1682,1701,1721,1742,1761,1783,1801,1821,1841,1861,1881,1902,1921,1941,1961,1981,2001,2021,2042,2061,2081,2101,2121,2141,2161,2181,2201],"xSR":741.5,"ySR":449.15000000000003,"xT1":424.9,"yT1":0,"xT2":1058.1,"yT2":0,"toosoon":0,"cond_shown":"Incongruent","ratio_trial":300,"L_num":4,"L_den":20,"R_num":2,"R_den":4,"correct_side":2,"subjID":"danielfelipecortesmora14","gender":"No_gender","school":"colegiocafam","age":"10"},{"start_time":1551887055555,"click_time":1551887057503,"finger_time":1551887056841,"fix_duration":250,"trial":9,"RT":1286,"MT":662,"sideResp":2,"stimulus":[],"xmouse":[771,771,771,771,771,771,771,771,771,771,771,771,771,771,771,771,771,771,771,771,771,771,771,771,771,771,771,771,771,771,771,771,771,771,771,771,771,771,771,771,771,771,771,771,771,771,771,771,771,771,771,771,771,771,771,771,771,772,774,777,782,787,804,837,864,894,927,973,1058,1080,1095,1106,1115,1147,1163,1182,1199,1216,1237,1241,1242,1242,1242,1239,1239,1237,1233,1228,1224,1221,1220,1219,1207,1200,1191,1181,1169,1143],"ymouse":[519,519,519,519,519,519,519,519,519,519,519,519,519,519,519,519,519,519,519,519,519,519,519,519,519,519,519,519,519,519,519,519,519,519,519,519,519,519,519,519,519,519,519,519,519,519,519,519,519,519,519,519,519,519,519,519,519,519,519,517,515,513,508,500,497,487,478,465,441,432,426,421,417,396,382,365,344,321,290,280,269,257,234,197,177,160,142,119,110,105,103,101,97,95,91,87,81,66],"timestamp_mouse":[10,29,47,67,86,106,126,146,167,186,206,226,246,266,287,306,327,346,366,387,406,426,446,466,487,506,526,547,566,586,606,626,646,666,686,706,726,747,766,788,808,827,847,867,886,906,926,947,966,987,1006,1026,1047,1066,1087,1106,1126,1147,1166,1187,1206,1227,1247,1266,1286,1307,1327,1346,1366,1386,1417,1428,1446,1467,1488,1507,1526,1546,1566,1586,1607,1626,1646,1666,1686,1706,1727,1747,1766,1786,1807,1826,1847,1866,1886,1906,1927,1947],"xSR":741.5,"ySR":449.15000000000003,"xT1":424.9,"yT1":0,"xT2":1058.1,"yT2":0,"toosoon":0,"cond_shown":"Incongruent","ratio_trial":100,"L_num":2,"L_den":4,"R_num":6,"R_den":15,"correct_side":1,"subjID":"danielfelipecortesmora14","gender":"No_gender","school":"colegiocafam","age":"10"},{"start_time":1551887062915,"click_time":1551887076603,"finger_time":1551887075102,"fix_duration":893.1154274976896,"trial":10,"RT":12187,"MT":1501,"sideResp":1,"stimulus":[],"xmouse":[769,769,769,769,769,769,769,769,769,769,769,769,769,769,769,769,769,769,769,769,769,769,769,769,769,769,769,769,769,769,769,769,769,769,769,769,769,769,769,769,769,769,769,769,769,769,769,769,769,769,769,769,769,769,769,769,769,769,769,769,769,769,769,769,769,769,769,769,769,769,769,769,769,769,769,769,769,769,769,769,769,769,769,769,769,769,769,769,769,769,769,769,769,769,769,769,769,769,769,769,769,769,769,769,769,769,769,769,769,769,769,769,769,769,769,769,769,769,769,769,769,769,769,769,769,769,769,769,769,769,769,769,769,769,769,769,769,769,769,769,769,769,769,769,769,769,769,769,769,769,769,769,769,769,769,769,769,769,769,769,769,769,769,769,769,769,769,769,769,769,769,769,769,769,769,769,769,769,769,769,769,769,769,769,769,769,769,769,769,769,769,769,769,769,769,769,769,769,769,769,769,769,769,769,769,769,769,769,769,769,769,769,769,769,769,769,769,769,769,769,769,769,769,769,769,769,769,769,769,769,769,769,769,769,769,769,769,769,769,769,769,769,769,769,769,769,769,769,769,769,769,769,769,769,769,769,769,769,769,769,769,769,769,769,769,769,769,769,769,769,769,769,769,769,769,769,769,769,769,769,769,769,769,769,769,769,769,769,769,769,769,769,769,769,769,769,769,769,769,769,769,769,769,769,769,769,769,769,769,769,769,769,769,769,769,769,769,769,769,769,769,769,769,769,769,769,769,769,769,769,769,769,769,769,769,769,769,769,769,769,769,769,769,769,769,769,769,769,769,769,769,769,769,769,769,769,769,769,769,769,769,769,769,769,769,769,769,769,769,769,769,769,769,769,769,769,769,769,769,769,769,769,769,769,769,769,769,769,769,769,769,769,769,769,769,769,769,769,769,769,769,769,769,769,769,769,769,769,769,769,769,769,769,769,769,769,769,769,769,769,769,769,769,769,769,769,769,769,769,769,769,769,769,769,769,769,769,769,769,769,769,769,769,769,769,769,769,769,769,769,769,769,769,769,769,769,769,769,769,769,769,769,769,769,769,769,769,769,769,769,769,769,769,769,769,769,769,769,769,769,769,769,769,769,769,769,769,769,769,769,769,769,769,769,769,769,769,769,769,769,769,769,769,769,769,769,769,769,769,769,769,769,769,769,769,769,769,769,769,769,769,769,769,769,769,769,769,769,769,769,769,769,769,769,769,769,769,769,769,769,769,769,769,769,769,769,769,769,769,769,769,769,769,769,769,769,769,769,769,769,769,769,769,769,769,769,769,769,769,769,769,769,769,769,769,769,769,769,769,769,769,769,769,769,769,769,771,772,772,773,773,773,774,774,774,774,774,774,774,771,769,765,762,762,762,761,761,764,766,776,782,786,790,792,797,806,809,814,817,822,835,845,852,854,855,855,855,855,855,855,855,856,856,856,853,839,830,825,817,809,795,790,786,783,779,776,772,766,758,741,731,720,706,689,668,652,651,649,647,644,642,641,641,640,639,636,632,627,620,600,588,579,570,567,563,563,559,552,543,535,523,517,511,507,499],"ymouse":[499,499,499,499,499,499,499,499,499,499,499,499,499,499,499,499,499,499,499,499,499,499,499,499,499,499,499,499,499,499,499,499,499,499,499,499,499,499,499,499,499,499,499,499,499,499,499,499,499,499,499,499,499,499,499,499,499,499,499,499,499,499,499,499,499,499,499,499,499,499,499,499,499,499,499,499,499,499,499,499,499,499,499,499,499,499,499,499,499,499,499,499,499,499,499,499,499,499,499,499,499,499,499,499,499,499,499,499,499,499,499,499,499,499,499,499,499,499,499,499,499,499,499,499,499,499,499,499,499,499,499,499,499,499,499,499,499,499,499,499,499,499,499,499,499,499,499,499,499,499,499,499,499,499,499,499,499,499,499,499,499,499,499,499,499,499,499,499,499,499,499,499,499,499,499,499,499,499,499,499,499,499,499,499,499,499,499,499,499,499,499,499,499,499,499,499,499,499,499,499,499,499,499,499,499,499,499,499,499,499,499,499,499,499,499,499,499,499,499,499,499,499,499,499,499,499,499,499,499,499,499,499,499,499,499,499,499,499,499,499,499,499,499,499,499,499,499,499,499,499,499,499,499,499,499,499,499,499,499,499,499,499,499,499,499,499,499,499,499,499,499,499,499,499,499,499,499,499,499,499,499,499,499,499,499,499,499,499,499,499,499,499,499,499,499,499,499,499,499,499,499,499,499,499,499,499,499,499,499,499,499,499,499,499,499,499,499,499,499,499,499,499,499,499,499,499,499,499,499,499,499,499,499,499,499,499,499,499,499,499,499,499,499,499,499,499,499,499,499,499,499,499,499,499,499,499,499,499,499,499,499,499,499,499,499,499,499,499,499,499,499,499,499,499,499,499,499,499,499,499,499,499,499,499,499,499,499,499,499,499,499,499,499,499,499,499,499,499,499,499,499,499,499,499,499,499,499,499,499,499,499,499,499,499,499,499,499,499,499,499,499,499,499,499,499,499,499,499,499,499,499,499,499,499,499,499,499,499,499,499,499,499,499,499,499,499,499,499,499,499,499,499,499,499,499,499,499,499,499,499,499,499,499,499,499,499,499,499,499,499,499,499,499,499,499,499,499,499,499,499,499,499,499,499,499,499,499,499,499,499,499,499,499,499,499,499,499,499,499,499,499,499,499,499,499,499,499,499,499,499,499,499,499,499,499,499,499,499,499,499,499,499,499,499,499,499,499,499,499,499,499,499,499,499,499,499,499,499,499,499,499,499,499,499,499,499,499,499,499,499,499,499,499,499,499,499,499,499,499,499,499,499,499,499,499,499,499,499,499,499,499,499,499,499,499,499,499,499,499,499,499,499,499,499,499,499,496,493,489,486,483,482,482,480,478,474,472,470,467,463,461,459,457,457,457,457,456,454,452,448,445,444,444,442,442,440,439,439,439,438,436,435,433,432,432,432,432,431,431,431,428,426,423,420,415,407,403,401,397,394,389,387,384,384,379,376,372,366,357,341,329,320,309,297,278,258,252,246,242,236,233,231,229,225,219,204,193,183,174,157,151,145,139,137,132,132,130,128,124,120,112,107,103,100,97],"timestamp_mouse":[10,36,46,67,87,108,126,146,167,187,207,226,246,266,286,308,327,347,367,387,407,426,447,466,488,506,526,547,566,586,607,626,646,667,687,706,727,746,768,786,807,827,847,868,886,906,927,946,967,987,1006,1026,1046,1067,1086,1107,1126,1148,1167,1187,1208,1226,1247,1267,1287,1308,1327,1347,1366,1388,1407,1428,1446,1466,1486,1507,1526,1547,1567,1586,1606,1628,1646,1666,1687,1706,1727,1748,1766,1786,1808,1827,1847,1866,1887,1906,1927,1947,1966,1988,2007,2026,2048,2066,2086,2107,2128,2146,2168,2187,2206,2227,2247,2268,2286,2307,2327,2347,2367,2386,2406,2427,2446,2467,2487,2506,2527,2546,2567,2586,2606,2627,2647,2667,2687,2706,2727,2746,2767,2786,2808,2827,2846,2868,2886,2906,2926,2946,2966,2987,3007,3028,3047,3067,3087,3106,3127,3146,3167,3187,3206,3227,3247,3266,3287,3307,3326,3346,3367,3388,3406,3427,3447,3466,3486,3507,3526,3546,3567,3586,3607,3626,3647,3666,3687,3706,3727,3747,3767,3788,3807,3828,3848,3866,3886,3907,3926,3947,3966,3986,4006,4026,4047,4066,4086,4106,4126,4146,4166,4188,4206,4227,4247,4266,4288,4306,4326,4346,4366,4388,4406,4426,4447,4466,4487,4507,4527,4548,4566,4586,4607,4626,4647,4668,4687,4706,4726,4747,4767,4786,4807,4826,4846,4866,4887,4906,4926,4946,4966,4986,5006,5027,5047,5066,5086,5107,5127,5146,5166,5186,5206,5228,5248,5266,5286,5308,5327,5346,5366,5388,5406,5428,5447,5466,5487,5506,5526,5546,5566,5587,5606,5628,5647,5666,5686,5707,5728,5746,5767,5787,5807,5826,5846,5866,5887,5906,5927,5946,5967,5988,6007,6026,6047,6066,6086,6106,6126,6146,6166,6187,6207,6227,6247,6267,6286,6308,6326,6346,6367,6386,6407,6426,6446,6467,6486,6506,6526,6546,6566,6586,6607,6628,6647,6667,6687,6706,6726,6747,6766,6787,6808,6827,6846,6867,6887,6906,6926,6947,6968,6986,7007,7027,7046,7067,7086,7107,7126,7147,7166,7186,7208,7226,7246,7266,7286,7306,7327,7346,7366,7386,7406,7427,7446,7466,7486,7507,7527,7547,7566,7587,7606,7626,7648,7666,7686,7706,7727,7746,7766,7786,7806,7826,7847,7866,7886,7907,7926,7946,7967,7986,8007,8027,8046,8067,8087,8106,8126,8147,8166,8186,8206,8226,8246,8268,8286,8308,8327,8348,8367,8386,8407,8426,8448,8466,8487,8507,8526,8547,8568,8586,8606,8627,8646,8666,8686,8706,8727,8746,8766,8786,8807,8826,8846,8866,8888,8906,8927,8947,8967,8987,9008,9026,9046,9067,9086,9107,9127,9146,9166,9186,9207,9227,9246,9266,9286,9306,9327,9347,9366,9388,9406,9427,9447,9466,9487,9507,9527,9547,9567,9587,9606,9628,9647,9666,9687,9706,9727,9746,9767,9787,9806,9827,9847,9867,9887,9906,9926,9946,9966,9987,10008,10026,10048,10066,10087,10106,10127,10146,10166,10186,10206,10227,10248,10267,10287,10306,10327,10348,10367,10387,10406,10427,10446,10466,10486,10508,10526,10547,10567,10586,10607,10626,10646,10666,10686,10706,10727,10748,10767,10787,10807,10826,10847,10867,10886,10907,10926,10946,10966,10986,11006,11027,11046,11066,11087,11106,11127,11146,11167,11187,11206,11227,11246,11267,11287,11306,11326,11347,11367,11388,11406,11426,11447,11466,11486,11507,11526,11548,11566,11586,11606,11626,11646,11666,11687,11707,11726,11746,11767,11786,11806,11827,11846,11867,11886,11906,11926,11947,11967,11987,12006,12027,12047,12066,12086,12107,12126,12148,12167,12187,12206,12227,12247,12267,12286,12308,12326,12346,12367,12386,12406,12427,12446,12466,12487,12508,12527,12546,12566,12586,12606,12627,12646,12666,12687,12706,12726,12747,12766,12786,12806,12827,12846,12866,12887,12906,12926,12947,12967,12987,13006,13026,13047,13066,13087,13108,13128,13146,13166,13187,13207,13227,13247,13267,13286,13307,13326,13347,13366,13387,13406,13426,13446,13468,13488,13506,13527,13548,13566,13586,13606,13627,13646,13667,13687],"xSR":741.5,"ySR":449.15000000000003,"xT1":424.9,"yT1":0,"xT2":1058.1,"yT2":0,"toosoon":0,"cond_shown":"Incongruent","ratio_trial":200,"L_num":1,"L_den":2,"R_num":3,"R_den":10,"correct_side":1,"subjID":"danielfelipecortesmora14","gender":"No_gender","school":"colegiocafam","age":"10"},{"start_time":1551887079916,"click_time":1551887082561,"finger_time":1551887082022,"fix_duration":614.6304169910647,"trial":11,"RT":2106,"MT":539,"sideResp":1,"stimulus":[],"xmouse":[762,762,762,762,762,762,762,762,762,762,762,762,762,762,762,762,762,762,762,762,762,762,762,762,762,762,762,762,762,762,762,762,762,762,762,762,762,762,762,762,762,762,762,762,762,762,762,762,762,762,762,762,762,762,762,762,762,762,762,762,762,762,762,762,762,762,762,762,762,762,762,762,762,762,762,762,762,762,762,762,762,762,762,762,762,762,762,762,762,762,762,762,762,762,762,762,762,762,762,762,762,762,762,762,759,731,717,702,690,679,664,661,658,656,652,650,650,649,646,640,624,614,606,597,580,574,568,563,558,546,539,530,517],"ymouse":[515,515,515,515,515,515,515,515,515,515,515,515,515,515,515,515,515,515,515,515,515,515,515,515,515,515,515,515,515,515,515,515,515,515,515,515,515,515,515,515,515,515,515,515,515,515,515,515,515,515,515,515,515,515,515,515,515,515,515,515,515,515,515,515,515,515,515,515,515,515,515,515,515,515,515,515,515,515,515,515,515,515,515,515,515,515,515,515,515,515,515,515,515,515,515,515,515,515,515,515,515,515,515,509,500,412,363,311,270,232,182,167,149,143,130,128,127,126,125,124,122,121,119,116,110,107,105,102,99,92,88,81,73],"timestamp_mouse":[10,34,46,66,86,105,125,146,166,187,205,225,246,265,285,305,327,345,367,386,405,427,446,466,486,505,527,545,566,585,605,625,646,665,685,706,727,745,766,785,805,826,846,867,885,905,927,945,965,986,1005,1026,1045,1065,1086,1105,1127,1145,1165,1185,1205,1226,1245,1266,1286,1306,1325,1345,1365,1386,1405,1425,1445,1465,1486,1505,1525,1546,1567,1585,1605,1626,1646,1665,1686,1706,1725,1745,1765,1787,1806,1826,1846,1865,1885,1905,1927,1945,1965,1985,2005,2026,2045,2066,2085,2106,2125,2146,2165,2187,2205,2227,2245,2265,2286,2305,2325,2346,2365,2386,2405,2426,2446,2465,2486,2505,2525,2546,2566,2586,2605,2625,2645],"xSR":741.5,"ySR":449.15000000000003,"xT1":424.9,"yT1":0,"xT2":1058.1,"yT2":0,"toosoon":0,"cond_shown":"Incongruent","ratio_trial":300,"L_num":8,"L_den":10,"R_num":14,"R_den":28,"correct_side":1,"subjID":"danielfelipecortesmora14","gender":"No_gender","school":"colegiocafam","age":"10"},{"start_time":1551887083974,"click_time":1551887086622,"finger_time":1551887085481,"fix_duration":250,"trial":12,"RT":1507,"MT":1141,"sideResp":2,"stimulus":[],"xmouse":[781,781,781,781,781,781,781,781,781,781,781,781,781,781,781,780,779,778,778,778,778,778,778,778,778,778,778,778,778,778,778,778,778,778,778,778,778,778,778,778,777,777,777,777,777,777,777,777,777,777,777,777,777,777,777,777,777,777,777,777,777,777,777,777,777,777,777,777,777,777,777,775,767,759,752,741,722,712,706,697,688,676,660,652,645,644,637,631,631,631,631,630,631,635,639,646,654,674,685,696,704,718,736,743,749,756,776,787,803,817,836,877,937,961,990,1006,1024,1028,1031,1034,1035,1038,1042,1043,1043,1043,1043,1045,1047,1049,1050,1054,1063],"ymouse":[524,524,524,524,524,524,524,524,524,524,524,524,524,524,524,523,522,521,520,520,520,520,520,520,520,520,520,520,520,520,520,520,520,520,520,520,520,520,520,520,519,519,519,519,519,519,519,519,519,519,519,519,519,519,519,519,519,519,519,519,519,519,519,519,519,519,519,519,519,519,517,510,490,471,453,432,387,369,345,326,305,287,254,237,224,217,206,196,196,196,196,195,199,205,212,222,241,280,299,319,339,369,404,420,432,445,471,479,486,487,487,487,468,455,441,421,383,365,347,324,297,255,202,174,147,124,96,92,91,91,91,91,91],"timestamp_mouse":[8,29,48,68,87,108,127,147,168,187,208,228,248,267,288,307,327,347,369,388,407,428,448,467,488,508,528,548,567,587,607,628,648,667,688,708,728,747,767,788,808,828,849,868,887,907,927,948,968,989,1009,1027,1047,1067,1087,1108,1127,1148,1167,1187,1208,1228,1247,1267,1287,1307,1328,1347,1368,1387,1409,1428,1448,1467,1488,1507,1528,1547,1568,1587,1607,1628,1648,1667,1687,1708,1727,1747,1767,1788,1807,1828,1848,1867,1887,1908,1928,1947,1967,1988,2007,2027,2047,2067,2089,2108,2128,2147,2167,2188,2207,2227,2249,2267,2287,2308,2329,2347,2368,2387,2408,2428,2448,2467,2489,2507,2529,2547,2568,2587,2607,2627,2648],"xSR":741.5,"ySR":449.15000000000003,"xT1":424.9,"yT1":0,"xT2":1058.1,"yT2":0,"toosoon":0,"cond_shown":"Incongruent","ratio_trial":200,"L_num":4,"L_den":6,"R_num":14,"R_den":30,"correct_side":1,"subjID":"danielfelipecortesmora14","gender":"No_gender","school":"colegiocafam","age":"10"},{"start_time":1551887089920,"click_time":1551887092002,"finger_time":1551887091462,"fix_duration":1337.3319299069135,"trial":13,"RT":1542,"MT":540,"sideResp":1,"stimulus":[],"xmouse":[801,801,801,801,801,801,801,801,801,801,801,801,801,801,801,801,801,801,801,801,801,801,801,801,801,801,801,801,801,801,801,801,801,801,801,801,801,801,801,801,801,801,801,801,801,801,801,801,801,801,801,801,801,801,801,801,801,801,801,801,801,801,801,801,801,801,801,801,801,801,801,801,801,801,800,795,787,776,761,730,719,709,697,685,671,656,650,641,630,602,591,579,565,550,531,510,504,503,503,503,503,503,503,502,501],"ymouse":[490,490,490,490,490,490,490,490,490,490,490,490,490,490,490,490,490,490,490,490,490,490,490,490,490,489,489,489,488,488,488,488,488,488,488,488,488,488,488,488,488,488,488,488,488,488,488,488,488,488,488,488,488,488,488,488,488,488,488,488,488,488,488,488,488,488,488,488,488,488,488,488,488,488,486,473,460,440,416,365,342,317,292,264,231,197,185,172,159,139,133,128,124,119,114,107,105,104,104,104,104,104,103,102,99],"timestamp_mouse":[8,21,41,61,81,103,121,141,161,182,201,221,241,263,282,301,321,342,361,382,401,421,442,461,481,502,521,543,563,581,601,622,642,661,681,701,722,741,762,781,802,821,841,861,881,901,922,943,961,981,1001,1021,1041,1063,1082,1101,1122,1142,1162,1182,1202,1223,1241,1261,1281,1302,1322,1341,1363,1382,1401,1421,1441,1462,1481,1502,1521,1542,1561,1583,1601,1621,1641,1662,1682,1701,1721,1742,1761,1782,1801,1822,1841,1862,1881,1901,1921,1941,1962,1982,2001,2021,2041,2062,2082],"xSR":741.5,"ySR":449.15000000000003,"xT1":424.9,"yT1":0,"xT2":1058.1,"yT2":0,"toosoon":0,"cond_shown":"Congruent","ratio_trial":200,"L_num":6,"L_den":15,"R_num":3,"R_den":15,"correct_side":1,"subjID":"danielfelipecortesmora14","gender":"No_gender","school":"colegiocafam","age":"10"},{"start_time":1551887094627,"click_time":1551887097102,"finger_time":1551887096101,"fix_duration":666.0598359336924,"trial":14,"RT":1474,"MT":1001,"sideResp":1,"stimulus":[],"xmouse":[820,820,820,820,820,820,820,820,820,820,820,820,820,820,820,820,820,820,820,820,820,820,820,820,820,820,820,820,820,820,820,820,820,820,820,820,820,820,820,820,820,820,820,820,820,820,820,820,820,820,820,820,820,820,820,820,820,820,820,820,820,820,820,820,820,820,820,820,820,820,820,818,814,802,794,787,778,775,761,740,730,722,715,696,688,679,673,670,668,665,663,662,662,662,662,662,662,662,662,662,662,662,662,662,661,660,659,657,649,640,625,610,595,584,573,569,566,564,562,561,561,560,552,516],"ymouse":[461,461,461,461,461,461,461,461,461,461,461,461,461,461,461,461,461,461,461,461,461,461,461,461,461,461,461,461,461,461,461,461,461,461,461,461,461,461,461,461,461,461,461,461,461,461,461,461,461,461,461,461,461,461,461,461,461,461,461,461,461,461,461,461,461,461,461,461,461,461,461,459,451,422,408,396,377,371,348,310,288,271,251,220,208,198,193,191,189,189,189,189,189,189,189,189,189,189,189,189,189,189,189,189,189,189,189,189,185,181,174,166,157,148,135,128,124,121,117,114,114,112,109,99],"timestamp_mouse":[13,43,53,74,93,115,133,153,172,193,214,233,254,272,294,313,334,353,373,394,412,433,452,474,493,514,534,554,573,594,614,634,653,672,693,713,733,754,774,794,812,834,853,873,893,913,933,952,973,993,1014,1033,1053,1073,1093,1112,1134,1152,1174,1192,1214,1232,1253,1272,1293,1313,1334,1353,1373,1393,1414,1434,1453,1474,1493,1513,1532,1552,1573,1593,1612,1634,1653,1675,1692,1714,1733,1753,1772,1793,1813,1834,1852,1873,1893,1914,1933,1953,1974,1993,2013,2034,2054,2074,2093,2113,2133,2153,2174,2192,2213,2234,2253,2273,2292,2313,2333,2353,2373,2393,2413,2433,2453,2475],"xSR":741.5,"ySR":449.15000000000003,"xT1":424.9,"yT1":0,"xT2":1058.1,"yT2":0,"toosoon":0,"cond_shown":"Congruent","ratio_trial":100,"L_num":2,"L_den":5,"R_num":11,"R_den":22,"correct_side":2,"subjID":"danielfelipecortesmora14","gender":"No_gender","school":"colegiocafam","age":"10"},{"start_time":1551887101992,"click_time":1551887107301,"finger_time":1551887104221,"fix_duration":1491.6492655059453,"trial":15,"RT":2229,"MT":3080,"sideResp":2,"stimulus":[],"xmouse":[819,807,800,793,787,786,786,786,786,786,786,786,786,786,786,786,786,786,786,786,786,786,786,786,786,786,786,786,786,786,786,786,786,786,786,786,786,786,786,786,786,786,786,786,786,786,786,786,786,786,786,786,786,786,786,786,786,786,786,786,786,786,786,786,786,786,786,786,786,786,786,786,786,786,786,786,786,786,786,786,786,786,786,786,786,786,786,786,786,786,786,786,786,786,786,786,785,784,784,784,785,786,787,789,790,796,800,807,815,824,834,840,844,847,853,854,854,854,854,854,854,854,852,851,845,843,840,838,837,836,836,836,837,840,843,851,856,861,869,882,899,906,915,933,950,982,1000,1022,1045,1093,1109,1119,1127,1130,1134,1136,1136,1136,1136,1133,1133,1133,1132,1131,1131,1130,1130,1130,1130,1130,1129,1129,1129,1129,1129,1129,1129,1129,1129,1128,1128,1128,1128,1128,1128,1128,1128,1128,1128,1128,1128,1128,1128,1128,1128,1128,1128,1128,1128,1128,1128,1128,1128,1128,1128,1128,1128,1128,1128,1128,1128,1128,1128,1128,1128,1128,1128,1128,1128,1128,1128,1128,1127,1127,1127,1127,1127,1126,1126,1126,1126,1126,1125,1125,1125,1125,1124,1124,1124,1124,1124,1124,1123,1122,1120,1117,1116,1115,1115,1114,1114,1114,1114,1114,1114,1114,1114,1114,1114,1114,1114,1114,1113,1110,1075],"ymouse":[513,514,515,515,515,515,516,516,516,516,516,516,516,516,516,516,516,516,516,516,516,516,516,516,516,516,516,516,516,516,516,516,516,516,516,516,516,516,516,516,516,516,516,516,516,516,516,516,516,516,516,516,516,516,516,516,516,516,516,516,516,516,516,516,516,516,516,516,516,516,516,516,516,516,516,516,516,516,516,516,516,516,516,516,516,516,516,516,516,516,516,516,516,516,513,507,501,497,492,489,484,480,478,475,474,469,466,462,457,452,445,440,436,431,425,423,421,419,419,418,416,416,415,414,407,403,398,394,391,386,379,376,373,368,363,354,348,344,339,334,331,329,326,325,325,325,325,324,324,324,324,321,318,315,311,303,296,286,284,268,262,259,253,249,245,237,235,232,230,227,224,223,222,221,220,216,214,213,211,205,201,199,197,195,192,191,190,189,188,186,185,183,183,182,181,177,174,170,167,165,165,165,165,165,165,165,165,165,163,162,159,158,157,154,152,149,149,149,148,146,141,140,138,137,137,136,134,134,133,131,130,129,128,128,127,125,125,125,125,125,125,124,124,122,120,115,113,112,112,112,111,111,111,111,111,109,108,107,107,107,107,107,105,104,97],"timestamp_mouse":[29,48,67,88,109,128,148,168,189,208,229,248,267,289,309,328,349,368,388,408,429,448,469,488,509,528,548,569,589,609,628,648,669,688,708,728,748,768,789,809,828,848,868,889,908,928,948,968,987,1008,1028,1048,1067,1088,1107,1128,1147,1168,1188,1208,1229,1248,1268,1289,1309,1328,1348,1368,1388,1407,1428,1449,1467,1489,1507,1528,1548,1568,1588,1608,1628,1648,1669,1688,1708,1728,1749,1768,1788,1808,1829,1848,1867,1888,1908,1927,1949,1968,1989,2008,2027,2048,2069,2088,2108,2129,2147,2168,2188,2207,2229,2248,2268,2288,2309,2327,2348,2368,2388,2408,2428,2447,2468,2488,2509,2528,2548,2569,2588,2608,2629,2648,2668,2687,2708,2727,2748,2767,2789,2808,2828,2848,2868,2887,2907,2929,2947,2968,2989,3009,3028,3048,3068,3089,3108,3128,3148,3169,3188,3209,3228,3248,3268,3288,3309,3328,3348,3368,3389,3408,3429,3448,3468,3488,3509,3528,3549,3568,3588,3609,3628,3648,3668,3688,3708,3727,3748,3769,3788,3808,3827,3848,3868,3888,3908,3929,3949,3968,3988,4008,4028,4048,4068,4088,4109,4129,4147,4168,4188,4207,4228,4247,4268,4289,4308,4328,4349,4368,4388,4408,4428,4448,4468,4489,4508,4528,4549,4568,4588,4609,4628,4649,4668,4688,4708,4728,4748,4768,4787,4809,4829,4848,4869,4888,4907,4929,4948,4969,4989,5008,5028,5048,5068,5089,5108,5128,5148,5169,5187,5209,5229,5248,5268,5288,5309],"xSR":741.5,"ySR":449.15000000000003,"xT1":424.9,"yT1":0,"xT2":1058.1,"yT2":0,"toosoon":0,"cond_shown":"Incongruent","ratio_trial":300,"L_num":13,"L_den":26,"R_num":12,"R_den":15,"correct_side":2,"subjID":"danielfelipecortesmora14","gender":"No_gender","school":"colegiocafam","age":"10"},{"start_time":1551887111028,"click_time":1551887112740,"finger_time":1551887112120,"fix_duration":507.15113915842534,"trial":16,"RT":1092,"MT":620,"sideResp":1,"stimulus":[],"xmouse":[784,784,784,784,784,784,784,784,784,784,784,784,784,784,784,784,784,784,784,784,784,784,784,784,784,784,784,784,784,784,784,784,784,784,784,784,784,784,784,784,784,784,784,784,784,784,784,784,784,784,784,781,770,757,719,690,659,628,574,497,472,448,432,407,400,394,392,390,390,390,390,390,391,396,397,397,397,397,397,402,403,405,405,410,416,425],"ymouse":[524,524,524,524,524,524,524,524,524,524,524,524,524,524,524,524,524,524,524,524,524,524,524,524,524,524,524,524,524,524,524,524,524,524,524,524,524,524,524,524,524,524,524,524,524,524,524,524,524,524,524,519,500,480,427,392,357,322,263,187,159,130,111,83,72,64,60,57,56,53,52,51,49,49,49,49,49,49,49,49,51,52,52,53,54,55],"timestamp_mouse":[11,39,52,71,92,112,133,153,172,192,213,232,252,273,293,312,333,352,373,391,412,432,452,473,491,513,533,552,571,592,612,632,652,672,693,712,732,752,773,792,812,833,853,873,892,912,931,952,972,993,1012,1032,1053,1072,1092,1113,1132,1152,1172,1193,1211,1233,1252,1273,1291,1313,1332,1352,1372,1392,1412,1432,1451,1473,1492,1512,1533,1551,1571,1593,1612,1633,1652,1673,1692,1712],"xSR":741.5,"ySR":449.15000000000003,"xT1":424.9,"yT1":0,"xT2":1058.1,"yT2":0,"toosoon":0,"cond_shown":"Incongruent","ratio_trial":300,"L_num":1,"L_den":2,"R_num":2,"R_den":10,"correct_side":1,"subjID":"danielfelipecortesmora14","gender":"No_gender","school":"colegiocafam","age":"10"},{"start_time":1551887116239,"click_time":1551887118200,"finger_time":1551887117740,"fix_duration":1257.8505548637672,"trial":17,"RT":1501,"MT":460,"sideResp":1,"stimulus":[],"xmouse":[797,797,797,797,797,797,797,797,797,797,797,797,797,797,797,797,797,797,797,797,797,797,797,797,797,797,797,797,797,797,797,797,797,797,797,797,797,797,797,797,797,797,797,797,797,797,797,797,797,797,797,797,797,797,797,797,797,797,797,797,797,797,797,797,797,797,797,797,797,797,795,793,786,779,761,750,740,726,687,675,665,658,653,646,642,632,623,603,590,571,563,558,553,540,533,528,525,525,523],"ymouse":[529,529,529,529,529,529,529,529,529,529,529,529,529,529,529,529,529,529,529,529,529,529,529,529,529,529,529,529,529,529,529,529,529,529,529,529,529,529,529,529,529,529,529,529,529,529,529,529,529,529,529,529,529,529,529,529,529,529,529,529,529,529,529,529,529,529,529,529,529,529,526,518,508,496,451,418,387,354,287,272,261,253,249,243,240,234,226,211,199,177,167,155,141,112,97,86,80,78,75],"timestamp_mouse":[9,31,41,62,80,102,122,141,162,181,201,222,241,261,281,302,322,341,361,381,401,422,441,461,480,501,521,542,562,582,602,621,641,662,682,701,721,742,761,781,801,822,840,861,882,902,921,941,961,982,1001,1021,1041,1061,1081,1102,1121,1141,1162,1182,1200,1222,1241,1261,1282,1302,1320,1341,1361,1381,1400,1422,1441,1461,1481,1501,1521,1540,1561,1580,1600,1622,1641,1662,1681,1701,1721,1742,1761,1782,1800,1821,1841,1862,1880,1901,1920,1941,1961],"xSR":741.5,"ySR":449.15000000000003,"xT1":424.9,"yT1":0,"xT2":1058.1,"yT2":0,"toosoon":0,"cond_shown":"Congruent","ratio_trial":100,"L_num":1,"L_den":2,"R_num":3,"R_den":5,"correct_side":2,"subjID":"danielfelipecortesmora14","gender":"No_gender","school":"colegiocafam","age":"10"},{"start_time":1551887120795,"click_time":1551887122719,"finger_time":1551887122200,"fix_duration":492.4124732721379,"trial":18,"RT":1405,"MT":519,"sideResp":2,"stimulus":[],"xmouse":[790,790,790,790,790,790,790,790,790,790,790,790,790,790,790,790,790,790,790,790,790,790,790,790,790,790,790,790,790,790,790,790,790,790,790,790,790,790,790,790,790,790,790,790,790,790,790,790,790,790,790,790,790,790,790,790,790,790,790,790,790,790,790,790,790,790,790,795,802,820,840,901,942,979,1001,1027,1033,1041,1055,1065,1099,1145,1156,1162,1164,1165,1165,1165,1165,1165,1162,1159,1154,1148,1143,1140,1135],"ymouse":[488,488,488,488,488,488,488,488,488,488,488,488,488,488,488,488,488,488,488,488,488,488,488,488,488,488,488,488,488,488,488,488,488,488,488,488,488,488,488,488,488,488,488,488,488,488,488,488,488,488,488,488,488,488,488,488,488,488,488,488,488,488,488,488,488,488,486,483,477,458,445,415,404,390,380,359,352,343,326,320,302,272,257,239,223,208,195,193,190,183,165,151,139,125,114,105,92],"timestamp_mouse":[14,37,44,65,86,105,125,145,165,185,205,226,246,265,285,305,325,346,366,386,405,424,446,466,486,506,526,545,566,585,606,625,646,665,686,706,726,744,766,785,806,826,846,865,886,906,924,946,966,985,1006,1025,1044,1065,1085,1105,1125,1145,1166,1186,1205,1225,1245,1265,1286,1305,1325,1345,1365,1386,1405,1425,1444,1465,1485,1506,1525,1546,1564,1584,1605,1624,1644,1666,1685,1705,1724,1745,1765,1786,1807,1825,1845,1865,1885,1906,1924],"xSR":741.5,"ySR":449.15000000000003,"xT1":424.9,"yT1":0,"xT2":1058.1,"yT2":0,"toosoon":0,"cond_shown":"Incongruent","ratio_trial":100,"L_num":6,"L_den":12,"R_num":3,"R_den":5,"correct_side":2,"subjID":"danielfelipecortesmora14","gender":"No_gender","school":"colegiocafam","age":"10"},{"start_time":1551887127714,"click_time":1551887129921,"finger_time":1551887129400,"fix_duration":412.08488556844827,"trial":19,"RT":1686,"MT":521,"sideResp":1,"stimulus":[],"xmouse":[792,792,792,792,792,792,792,792,792,792,792,792,792,792,792,792,792,792,792,792,792,792,792,792,792,792,792,792,792,792,792,792,792,792,792,792,792,792,792,792,792,792,792,792,792,792,792,792,792,792,792,792,792,792,792,792,792,792,792,792,792,792,792,792,792,792,792,792,792,792,792,792,792,792,792,792,792,792,792,790,786,779,773,762,748,731,722,707,695,679,655,641,632,629,617,605,599,592,586,570,561,552,544,534,528,527,527,526,526,524,519],"ymouse":[512,512,512,512,512,512,512,512,512,512,512,512,512,512,512,512,512,512,512,512,512,512,512,512,512,512,512,512,512,512,512,512,512,512,512,512,512,512,512,512,512,512,512,512,512,512,512,512,512,512,512,512,512,512,512,512,512,512,512,512,512,512,512,512,512,512,512,512,512,512,512,512,512,512,512,512,512,512,512,511,506,497,487,466,435,397,380,354,332,309,267,236,216,207,177,139,119,98,79,44,29,18,11,3,0,0,0,0,0,0,3],"timestamp_mouse":[8,25,47,65,87,107,127,146,166,186,205,226,247,266,286,305,327,346,366,386,405,427,447,467,487,507,526,546,566,585,606,627,646,667,686,706,726,746,766,787,806,826,845,866,887,906,926,947,965,986,1006,1026,1047,1066,1085,1106,1126,1146,1166,1186,1206,1226,1246,1266,1287,1306,1327,1347,1367,1386,1406,1427,1445,1467,1486,1506,1525,1547,1566,1587,1606,1626,1646,1667,1686,1706,1726,1746,1766,1787,1805,1830,1845,1867,1886,1906,1926,1947,1966,1987,2006,2026,2047,2066,2087,2106,2126,2146,2166,2186,2207],"xSR":741.5,"ySR":449.15000000000003,"xT1":424.9,"yT1":0,"xT2":1058.1,"yT2":0,"toosoon":0,"cond_shown":"Congruent","ratio_trial":100,"L_num":12,"L_den":30,"R_num":13,"R_den":26,"correct_side":2,"subjID":"danielfelipecortesmora14","gender":"No_gender","school":"colegiocafam","age":"10"},{"start_time":1551887134672,"click_time":1551887137380,"finger_time":1551887136421,"fix_duration":1491.9201839682196,"trial":20,"RT":1749,"MT":959,"sideResp":1,"stimulus":[],"xmouse":[815,815,815,815,815,815,815,815,815,815,815,815,815,815,815,815,815,815,815,815,815,815,815,815,815,815,815,815,815,815,815,815,815,815,815,815,815,815,815,815,815,815,815,815,815,815,815,815,815,815,815,815,815,815,815,815,815,815,815,815,815,815,815,815,815,815,815,815,815,815,815,815,815,815,815,815,815,815,815,815,815,815,815,815,816,816,816,813,807,801,793,787,775,770,766,761,751,731,716,700,683,648,632,617,605,590,586,579,578,578,576,575,574,572,570,566,555,548,540,530,525,521,516,514,511,510,508,507,506,505,505,505,504,503,502,501],"ymouse":[524,524,524,524,524,524,524,524,524,524,524,524,524,524,524,524,524,524,524,524,524,524,524,524,524,524,524,524,524,524,524,524,524,524,524,524,524,524,524,524,524,524,524,524,524,524,524,524,524,524,524,524,524,524,524,524,524,524,524,524,524,524,524,524,524,524,524,524,524,524,524,524,524,524,524,524,524,522,515,511,506,502,491,487,477,467,450,425,411,398,383,374,357,353,348,342,332,316,304,292,279,249,235,222,211,196,192,185,183,183,181,180,179,176,175,171,162,157,151,144,140,136,131,125,121,118,113,112,111,110,109,108,105,103,102,99],"timestamp_mouse":[11,34,48,68,87,109,127,148,168,187,208,229,249,268,289,308,328,349,368,388,409,428,448,468,488,509,529,548,568,589,608,628,649,668,688,708,729,748,769,789,809,828,849,869,889,908,929,948,968,989,1008,1029,1048,1068,1087,1109,1127,1149,1169,1189,1209,1228,1249,1269,1289,1309,1329,1349,1368,1387,1408,1429,1449,1468,1489,1508,1529,1549,1567,1589,1608,1629,1648,1668,1688,1708,1727,1749,1768,1788,1808,1828,1847,1868,1888,1908,1928,1948,1968,1988,2008,2029,2048,2068,2088,2109,2128,2148,2169,2189,2207,2227,2247,2269,2288,2308,2330,2347,2369,2388,2408,2428,2448,2468,2488,2508,2530,2548,2568,2588,2608,2629,2647,2668,2688,2707],"xSR":741.5,"ySR":449.15000000000003,"xT1":424.9,"yT1":0,"xT2":1058.1,"yT2":0,"toosoon":0,"cond_shown":"Congruent","ratio_trial":300,"L_num":20,"L_den":25,"R_num":9,"R_den":18,"correct_side":1,"subjID":"danielfelipecortesmora14","gender":"No_gender","school":"colegiocafam","age":"10"},{"start_time":1551887140225,"click_time":1551887144400,"finger_time":1551887142380,"fix_duration":1441.426068047794,"trial":21,"RT":2155,"MT":2020,"sideResp":2,"stimulus":[],"xmouse":[816,816,816,816,816,816,816,816,816,816,816,816,816,816,816,816,816,816,816,816,816,816,816,816,816,816,816,816,816,816,816,816,816,816,816,816,816,816,816,816,816,816,816,816,816,816,816,816,816,816,816,816,816,816,816,816,816,816,816,816,816,816,816,816,816,816,816,816,816,816,816,816,816,816,816,816,816,816,816,816,816,816,816,816,816,816,816,816,816,816,816,816,816,816,816,816,816,816,816,816,816,816,816,816,816,821,830,847,878,899,906,911,917,927,930,932,933,933,935,936,937,938,939,940,941,941,942,943,943,943,944,945,946,948,951,954,955,957,961,964,966,968,970,971,974,975,976,978,982,983,986,990,998,1020,1069,1087,1095,1098,1099,1100,1100,1100,1100,1100,1100,1100,1100,1100,1098,1096,1096,1096,1096,1096,1096,1096,1096,1096,1096,1096,1096,1096,1096,1096,1105,1119,1123,1131,1131,1131,1131,1131,1132,1134,1138,1142,1144,1149,1178,1187,1192,1194,1194,1194,1195,1191,1183,1168,1077],"ymouse":[473,473,473,473,473,473,473,473,473,473,473,473,473,473,473,473,473,473,473,473,473,473,473,473,473,473,473,473,473,473,473,473,473,473,473,473,473,473,473,473,473,473,473,473,473,473,473,473,473,473,473,473,473,473,473,473,473,473,473,473,473,473,473,473,473,473,473,473,473,473,473,473,473,473,473,473,473,473,473,473,473,473,473,473,473,473,473,473,473,473,473,473,473,473,473,473,473,473,473,473,473,473,473,473,473,472,467,459,444,432,423,417,410,401,396,391,387,382,374,363,358,354,350,342,339,335,331,324,324,322,320,319,318,316,314,311,309,304,295,291,285,280,274,270,264,261,258,255,247,246,241,236,231,226,218,212,209,208,208,207,207,207,206,206,202,202,200,199,193,186,184,180,176,172,168,166,165,165,164,164,164,164,164,163,163,163,163,161,161,161,161,161,161,161,160,159,158,158,156,155,154,154,154,153,149,140,128,114,55],"timestamp_mouse":[15,41,56,76,96,116,135,155,175,195,215,235,256,275,296,316,336,354,375,395,416,435,454,475,496,516,535,556,576,595,615,635,655,676,696,714,736,755,774,795,815,835,856,875,896,916,936,955,976,995,1015,1035,1054,1076,1096,1115,1136,1155,1175,1195,1214,1236,1255,1275,1296,1314,1335,1356,1376,1396,1415,1436,1455,1476,1495,1515,1536,1555,1575,1596,1616,1636,1655,1676,1695,1715,1735,1756,1775,1795,1815,1835,1856,1875,1895,1915,1935,1954,1976,1996,2016,2036,2055,2076,2096,2115,2135,2155,2175,2195,2214,2235,2255,2276,2295,2315,2335,2355,2375,2394,2415,2435,2455,2476,2495,2515,2534,2563,2574,2595,2615,2635,2655,2676,2695,2715,2735,2755,2776,2795,2815,2834,2854,2875,2895,2914,2935,2955,2975,2995,3015,3035,3055,3074,3095,3116,3135,3155,3175,3196,3216,3236,3255,3275,3296,3315,3334,3355,3375,3394,3414,3435,3455,3475,3496,3515,3535,3555,3587,3594,3616,3636,3656,3675,3694,3716,3735,3755,3775,3796,3815,3836,3854,3874,3894,3916,3935,3955,3976,3995,4015,4035,4055,4075,4094,4115,4135,4156,4175],"xSR":741.5,"ySR":449.15000000000003,"xT1":424.9,"yT1":0,"xT2":1058.1,"yT2":0,"toosoon":0,"cond_shown":"Incongruent","ratio_trial":300,"L_num":13,"L_den":26,"R_num":12,"R_den":15,"correct_side":2,"subjID":"danielfelipecortesmora14","gender":"No_gender","school":"colegiocafam","age":"10"},{"start_time":1551887147385,"click_time":1551887149620,"finger_time":1551887148620,"fix_duration":423.1675122747187,"trial":22,"RT":1235,"MT":1000,"sideResp":1,"stimulus":[],"xmouse":[820,820,820,820,820,820,820,820,820,820,820,820,820,820,820,820,820,820,820,820,820,820,820,820,820,820,820,820,820,820,820,820,820,820,820,820,820,820,820,820,820,820,820,820,820,820,820,820,820,820,820,820,820,820,820,820,820,820,827,830,837,869,885,906,932,961,1020,1041,1070,1080,1123,1136,1143,1149,1154,1159,1161,1161,1161,1161,1160,1159,1157,1157,1156,1155,1155,1155,1155,1155,1155,1155,1155,1155,1155,1155,1155,1155,1155,1150,1146,1132,1122,1108,1085,1046,907,819,735,660,561,459],"ymouse":[513,513,513,513,513,513,513,513,513,513,513,513,513,513,513,513,513,513,513,513,513,513,513,513,513,513,513,513,513,513,513,513,513,513,513,513,513,513,513,513,513,513,513,513,513,513,513,513,513,513,513,513,513,513,513,513,513,513,510,509,506,490,480,468,454,438,406,393,371,363,328,316,304,292,280,261,253,247,240,234,231,228,226,225,225,224,223,223,223,223,223,223,223,223,223,223,223,223,223,223,223,223,221,217,211,200,161,143,128,112,88,63],"timestamp_mouse":[32,35,55,76,94,116,136,154,175,196,216,235,255,274,296,315,335,354,376,396,415,435,455,476,495,516,536,554,576,595,615,636,655,676,695,715,736,755,775,796,816,836,855,876,896,916,936,955,976,996,1016,1036,1056,1076,1096,1116,1135,1156,1175,1195,1215,1235,1255,1275,1295,1316,1335,1355,1375,1395,1416,1435,1455,1475,1495,1516,1535,1555,1575,1595,1615,1635,1655,1675,1695,1716,1735,1756,1775,1795,1816,1836,1855,1876,1895,1916,1935,1955,1975,1995,2015,2036,2055,2076,2095,2115,2136,2155,2176,2195,2215,2235],"xSR":741.5,"ySR":449.15000000000003,"xT1":424.9,"yT1":0,"xT2":1058.1,"yT2":0,"toosoon":0,"cond_shown":"Incongruent","ratio_trial":300,"L_num":4,"L_den":20,"R_num":2,"R_den":4,"correct_side":2,"subjID":"danielfelipecortesmora14","gender":"No_gender","school":"colegiocafam","age":"10"},{"start_time":1551887151052,"click_time":1551887152840,"finger_time":1551887151980,"fix_duration":250,"trial":23,"RT":928,"MT":860,"sideResp":2,"stimulus":[],"xmouse":[742,743,745,749,752,755,767,773,793,795,796,798,804,817,823,824,825,826,826,826,826,826,826,826,826,826,826,826,826,826,826,826,826,826,826,826,826,826,826,826,826,826,826,826,822,815,808,790,786,784,783,783,783,783,783,783,783,783,783,783,783,784,792,795,800,804,812,880,910,946,980,1013,1036,1083,1108,1127,1136,1141,1143,1144,1144,1144,1144,1139,1132,1127,1122,1114,1110,1105],"ymouse":[465,465,465,465,464,463,462,462,472,475,478,482,486,486,484,483,482,481,481,481,481,481,481,481,481,481,481,481,481,481,481,481,481,481,481,481,481,481,481,481,481,481,479,474,465,453,440,411,404,401,399,397,397,397,397,397,397,397,397,397,396,394,391,387,383,377,365,305,279,253,228,204,189,167,158,153,150,147,146,145,145,145,144,139,134,130,126,114,104,94],"timestamp_mouse":[9,28,48,68,88,108,128,148,168,188,208,228,249,267,289,309,328,349,368,389,408,428,448,468,488,509,527,549,569,588,608,629,649,669,688,708,729,749,767,789,807,829,848,868,888,908,928,948,968,987,1009,1028,1048,1069,1088,1108,1127,1147,1168,1188,1208,1228,1248,1267,1288,1309,1327,1348,1367,1388,1408,1428,1449,1468,1488,1508,1528,1547,1568,1589,1608,1628,1648,1668,1688,1709,1729,1748,1768,1788],"xSR":741.5,"ySR":449.15000000000003,"xT1":424.9,"yT1":0,"xT2":1058.1,"yT2":0,"toosoon":0,"cond_shown":"Incongruent","ratio_trial":300,"L_num":4,"L_den":5,"R_num":6,"R_den":12,"correct_side":1,"subjID":"danielfelipecortesmora14","gender":"No_gender","school":"colegiocafam","age":"10"},{"start_time":1551887154818,"click_time":1551887157140,"finger_time":1551887156399,"fix_duration":397.798073414938,"trial":24,"RT":1581,"MT":741,"sideResp":2,"stimulus":[],"xmouse":[819,819,819,819,819,819,819,819,819,819,819,819,819,819,819,819,819,819,819,819,819,819,819,819,819,819,819,819,819,819,819,819,819,819,819,819,819,819,819,819,819,819,819,819,819,819,819,819,819,819,819,819,819,819,819,819,819,819,819,819,819,819,819,819,819,819,819,819,820,821,823,824,826,826,828,832,834,835,840,847,863,873,884,897,916,953,964,970,975,976,980,983,987,996,1005,1007,1007,1007,1007,1007,1014,1019,1022,1025,1029,1041,1048,1053,1056,1064,1064,1067,1069,1070,1073,1078,1083],"ymouse":[479,479,479,479,479,479,479,479,479,479,479,479,479,479,479,479,479,479,479,479,479,479,479,479,479,479,479,479,479,479,479,479,479,479,479,479,479,479,479,479,479,479,479,479,479,479,479,479,479,479,479,479,479,479,479,479,479,479,479,479,479,479,479,479,479,479,479,479,479,478,478,477,476,476,474,471,470,468,457,446,419,400,381,357,335,285,266,253,243,240,237,236,234,230,225,217,210,208,208,208,203,197,188,177,163,137,126,119,116,113,113,112,112,111,108,103,98],"timestamp_mouse":[11,39,42,61,82,101,121,141,161,183,202,221,243,262,282,303,322,342,361,382,403,422,442,462,481,502,522,541,562,582,601,622,642,661,683,701,721,742,762,782,801,821,843,862,882,901,921,942,962,982,1002,1022,1042,1061,1082,1102,1122,1141,1162,1182,1201,1221,1243,1262,1281,1302,1321,1341,1361,1381,1402,1421,1442,1461,1482,1502,1521,1541,1562,1581,1601,1621,1641,1662,1683,1701,1721,1741,1761,1781,1801,1821,1842,1861,1881,1901,1921,1941,1961,1981,2001,2021,2041,2061,2081,2102,2122,2141,2162,2182,2201,2222,2241,2261,2282,2301,2321],"xSR":741.5,"ySR":449.15000000000003,"xT1":424.9,"yT1":0,"xT2":1058.1,"yT2":0,"toosoon":0,"cond_shown":"Congruent","ratio_trial":300,"L_num":1,"L_den":5,"R_num":11,"R_den":22,"correct_side":2,"subjID":"danielfelipecortesmora14","gender":"No_gender","school":"colegiocafam","age":"10"},{"start_time":1551887158588,"click_time":1551887164740,"finger_time":1551887160519,"fix_duration":486.1348354800999,"trial":25,"RT":1931,"MT":4221,"sideResp":2,"stimulus":[],"xmouse":[801,803,804,804,804,804,804,804,804,802,781,775,775,775,775,775,775,774,773,772,772,772,772,772,772,772,772,772,772,772,772,772,772,772,772,772,772,772,772,772,772,772,773,773,775,776,776,776,776,776,776,776,776,776,776,776,776,776,776,776,776,776,776,776,776,776,776,776,776,776,776,776,778,778,778,778,777,777,777,777,777,777,777,777,775,774,758,754,754,754,754,754,754,754,756,760,772,788,813,841,898,910,914,919,922,925,931,938,948,959,990,992,993,993,993,993,993,994,994,998,1014,1033,1039,1041,1041,1041,1042,1042,1043,1043,1044,1045,1046,1046,1047,1051,1054,1057,1058,1058,1058,1058,1058,1058,1058,1058,1058,1058,1058,1058,1058,1058,1059,1060,1061,1061,1061,1062,1062,1062,1063,1065,1065,1066,1067,1067,1067,1067,1067,1067,1064,1061,1055,1046,1033,991,955,938,932,932,931,931,931,934,939,944,950,954,957,958,959,963,967,970,973,974,974,974,975,975,983,990,997,1002,1006,1014,1029,1030,1031,1032,1035,1035,1035,1035,1035,1035,1030,1027,1022,1019,1010,998,996,996,996,996,1000,1007,1017,1018,1021,1022,1026,1031,1034,1035,1036,1036,1037,1040,1043,1043,1043,1043,1043,1043,1044,1044,1044,1044,1044,1044,1044,1044,1044,1044,1044,1044,1044,1044,1044,1047,1047,1047,1047,1040,1027,1016,1011,1004,987,941,923,913,906,888,872,852,834,815,771,756,745,737,733,730,720,716,714,714,730,755,796,859,927,1009,1025,1034,1037,1037,1037,1039,1042,1044,1047,1054,1057,1062],"ymouse":[479,478,477,477,477,477,477,477,477,480,502,509,510,510,510,510,510,510,513,513,513,513,513,513,513,513,513,513,513,513,513,513,513,513,513,513,513,513,513,513,513,513,513,511,509,508,508,508,508,508,508,508,508,508,508,508,508,508,508,508,508,508,508,504,497,493,493,493,493,493,493,493,491,485,481,479,474,473,473,473,473,473,473,473,472,471,461,459,459,459,459,459,459,457,456,452,433,415,396,375,318,304,295,288,283,280,272,265,251,238,205,201,200,200,200,200,200,199,199,198,190,180,177,177,176,176,175,175,174,172,167,164,163,162,160,153,147,140,135,131,130,130,130,130,130,129,126,124,124,123,123,123,122,121,121,121,121,120,120,120,119,119,118,117,116,116,116,116,116,116,113,112,111,107,102,81,61,51,49,49,49,51,55,63,71,77,83,85,87,87,87,87,87,87,86,86,85,85,85,85,83,81,78,78,78,78,78,78,77,76,75,75,75,75,75,75,73,73,73,76,82,91,92,92,93,93,93,94,95,95,95,95,95,95,95,95,94,94,94,93,93,93,93,93,93,93,93,93,93,93,93,93,93,93,93,93,93,93,93,93,93,93,93,93,93,91,86,86,86,88,89,84,82,81,81,81,81,81,81,81,91,94,95,96,96,98,101,102,103,103,107,107,98,88,82,82,82,82,83,83,83,83,83,83,82,80,79,77],"timestamp_mouse":[19,43,52,72,92,113,132,152,171,191,212,232,251,272,291,312,332,351,371,392,413,432,451,471,491,513,532,552,571,593,612,631,651,672,691,712,733,751,772,792,811,833,852,872,892,912,931,951,971,992,1013,1032,1051,1071,1091,1112,1132,1152,1172,1191,1211,1232,1251,1272,1291,1312,1331,1351,1372,1393,1411,1431,1451,1472,1492,1511,1531,1552,1571,1591,1611,1632,1651,1672,1691,1713,1731,1752,1771,1792,1811,1833,1851,1871,1892,1911,1931,1951,1971,1992,2012,2031,2051,2072,2091,2112,2131,2152,2172,2191,2212,2231,2252,2271,2291,2311,2331,2352,2372,2391,2411,2431,2451,2471,2492,2511,2531,2552,2571,2593,2612,2631,2651,2671,2691,2712,2731,2752,2771,2791,2812,2833,2851,2871,2891,2912,2933,2952,2971,2991,3011,3031,3052,3071,3091,3112,3132,3151,3173,3193,3211,3231,3251,3273,3291,3312,3331,3351,3373,3392,3413,3431,3451,3471,3492,3513,3531,3551,3571,3591,3611,3631,3651,3671,3691,3712,3732,3751,3772,3793,3812,3831,3851,3871,3891,3912,3933,3951,3971,3992,4013,4031,4051,4073,4091,4111,4132,4151,4172,4191,4212,4231,4251,4271,4292,4311,4332,4352,4371,4391,4412,4431,4452,4473,4493,4511,4532,4551,4571,4593,4611,4631,4651,4672,4692,4712,4731,4752,4772,4791,4812,4831,4851,4871,4891,4911,4931,4951,4977,4991,5012,5031,5051,5071,5093,5112,5131,5151,5171,5192,5211,5232,5252,5272,5293,5312,5331,5353,5371,5391,5411,5433,5452,5471,5491,5512,5531,5551,5571,5593,5612,5631,5651,5671,5691,5712,5732,5752,5772,5793,5813,5831,5851,5873,5893,5912,5931,5951,5972,5993,6012,6031,6052,6072,6092,6112,6131,6152],"xSR":741.5,"ySR":449.15000000000003,"xT1":424.9,"yT1":0,"xT2":1058.1,"yT2":0,"toosoon":0,"cond_shown":"Congruent","ratio_trial":200,"L_num":3,"L_den":10,"R_num":7,"R_den":14,"correct_side":2,"subjID":"danielfelipecortesmora14","gender":"No_gender","school":"colegiocafam","age":"10"},{"start_time":1551887169892,"click_time":1551887172320,"finger_time":1551887171420,"fix_duration":250,"trial":26,"RT":1528,"MT":900,"sideResp":1,"stimulus":[],"xmouse":[807,807,807,807,807,807,807,807,807,807,807,807,807,807,807,807,807,807,807,807,807,807,807,807,807,807,807,807,807,807,807,807,807,807,807,807,807,807,807,807,807,807,807,807,807,807,807,807,807,807,807,807,807,807,807,807,807,807,807,807,807,807,807,807,807,807,807,807,807,807,807,805,794,780,755,705,675,643,614,581,537,521,508,503,502,503,506,508,509,512,512,512,512,512,509,509,509,509,507,506,500,497,495,492,491,491,491,491,491,491,491,489,485,483,482,482,482,482,482,482,482],"ymouse":[528,528,528,528,528,528,528,528,528,528,528,528,528,528,528,528,528,528,528,528,528,528,528,528,528,528,528,528,528,528,528,528,528,528,528,528,528,528,528,528,528,528,528,528,528,528,528,528,528,528,528,528,528,528,528,528,528,528,528,528,528,528,528,528,528,528,528,528,528,528,527,519,507,495,473,442,427,410,394,374,343,330,319,314,307,301,297,296,294,291,287,286,284,281,270,263,256,250,243,236,215,204,197,190,186,186,186,186,184,177,158,146,136,130,126,124,121,115,109,101,98],"timestamp_mouse":[33,49,68,87,108,129,148,167,189,207,229,247,269,288,307,327,347,368,387,407,427,448,467,487,507,528,548,568,587,608,628,649,668,687,707,727,749,768,787,808,829,847,867,887,907,928,948,968,989,1007,1028,1048,1067,1087,1108,1128,1147,1168,1187,1207,1227,1248,1267,1288,1309,1327,1347,1367,1388,1408,1428,1447,1468,1488,1507,1528,1547,1567,1587,1608,1628,1648,1667,1688,1707,1727,1747,1767,1787,1808,1827,1847,1868,1888,1907,1927,1947,1967,1988,2007,2027,2047,2069,2088,2108,2128,2148,2167,2187,2207,2227,2248,2268,2289,2307,2327,2347,2368,2389,2407,2427],"xSR":741.5,"ySR":449.15000000000003,"xT1":424.9,"yT1":0,"xT2":1058.1,"yT2":0,"toosoon":0,"cond_shown":"Incongruent","ratio_trial":100,"L_num":10,"L_den":25,"R_num":9,"R_den":18,"correct_side":2,"subjID":"danielfelipecortesmora14","gender":"No_gender","school":"colegiocafam","age":"10"},{"start_time":1551887178290,"click_time":1551887181160,"finger_time":1551887179940,"fix_duration":308.0494480560245,"trial":27,"RT":1650,"MT":1220,"sideResp":1,"stimulus":[],"xmouse":[795,795,795,795,795,795,795,795,795,795,795,795,795,795,795,795,795,795,795,795,795,795,795,795,795,795,795,795,795,795,795,795,795,795,795,795,795,795,795,795,795,795,795,795,795,795,795,795,795,795,795,795,795,795,795,795,795,795,795,795,795,795,795,795,795,795,795,795,795,795,795,795,795,795,795,795,795,797,799,804,810,832,849,863,877,931,972,1022,1069,1101,1117,1132,1133,1134,1135,1135,1135,1135,1135,1134,1130,1119,1112,1099,1081,1049,993,957,916,872,831,763,734,716,701,692,692,692,692,692,692,691,690,690,688,681,664,652,638,622,590,576,565,555,548,540,540,540,540,540,535,531,526,523],"ymouse":[517,517,517,517,517,517,517,517,517,517,517,517,517,517,517,517,517,517,517,517,517,517,517,517,517,517,517,517,517,517,517,517,517,517,517,517,517,517,517,517,517,517,517,517,517,517,517,517,517,517,517,517,517,517,517,517,517,517,517,517,517,517,517,517,517,517,517,517,517,517,517,517,517,517,517,517,517,514,511,505,496,472,457,441,417,318,272,230,196,173,158,140,135,132,129,128,126,125,124,124,124,124,124,124,124,130,138,143,148,148,148,136,125,117,109,102,99,94,89,85,80,73,73,72,72,72,72,74,76,78,83,85,87,88,89,89,89,89,89,89,87,84,81,78],"timestamp_mouse":[10,41,49,69,91,110,131,149,170,190,209,230,250,271,290,310,329,351,369,389,410,429,450,469,489,509,529,550,570,589,609,630,649,671,690,709,730,750,770,789,809,829,850,869,889,910,931,950,970,989,1009,1029,1050,1070,1089,1109,1130,1151,1170,1189,1210,1229,1250,1269,1289,1309,1329,1349,1369,1389,1409,1430,1449,1469,1490,1509,1529,1550,1569,1590,1609,1630,1650,1670,1689,1710,1729,1750,1770,1789,1811,1830,1849,1869,1889,1909,1931,1949,1970,1989,2009,2029,2050,2070,2089,2109,2129,2149,2170,2189,2211,2230,2250,2270,2289,2310,2329,2349,2370,2389,2409,2429,2450,2469,2491,2509,2529,2549,2570,2590,2610,2629,2649,2670,2690,2710,2729,2749,2769,2790,2810,2829,2849,2870],"xSR":741.5,"ySR":449.15000000000003,"xT1":424.9,"yT1":0,"xT2":1058.1,"yT2":0,"toosoon":0,"cond_shown":"Incongruent","ratio_trial":100,"L_num":8,"L_den":20,"R_num":1,"R_den":2,"correct_side":2,"subjID":"danielfelipecortesmora14","gender":"No_gender","school":"colegiocafam","age":"10"},{"start_time":1551887189405,"click_time":1551887192219,"finger_time":1551887190999,"fix_duration":1443.4362295845783,"trial":28,"RT":1594,"MT":1220,"sideResp":2,"stimulus":[],"xmouse":[798,799,799,803,805,807,807,807,807,807,807,807,807,807,807,807,807,807,807,807,807,807,807,807,807,807,807,807,807,807,807,807,807,807,807,807,807,807,807,807,807,807,807,807,807,807,807,807,807,807,807,807,807,807,807,807,807,807,807,807,807,807,807,807,807,807,807,807,807,807,807,807,807,807,809,809,809,811,812,816,824,831,843,861,909,930,946,958,960,963,965,965,965,965,965,965,965,965,965,965,965,965,965,964,962,962,962,962,962,962,962,962,965,974,988,1050,1106,1213,1245,1364,1374,1376,1377,1377,1377,1375,1368,1356,1345,1326,1295,1276,1260,1245,1230,1194,1180,1170,1164,1162,1149],"ymouse":[503,499,499,489,486,482,482,482,482,482,482,482,482,482,482,482,482,482,482,482,482,482,482,482,482,482,482,482,482,482,482,482,482,482,482,482,482,482,482,482,482,482,482,482,482,482,482,482,482,482,482,482,482,482,482,482,482,482,482,482,482,482,482,482,482,482,482,482,482,482,482,478,476,474,466,464,460,457,452,444,427,411,394,373,339,323,312,300,297,291,288,287,287,287,287,287,287,287,287,287,287,287,287,287,287,287,287,287,287,287,287,287,285,280,274,247,224,192,183,148,144,142,142,142,141,137,136,133,131,128,123,118,116,112,109,103,101,100,98,97,96],"timestamp_mouse":[14,45,55,74,94,114,135,156,175,196,215,234,254,275,294,314,334,355,375,395,414,434,454,474,496,514,535,556,576,594,616,635,654,674,696,714,734,754,774,794,815,834,854,874,894,914,934,956,974,995,1014,1034,1054,1074,1096,1116,1135,1154,1176,1194,1215,1235,1254,1275,1294,1316,1335,1354,1374,1396,1414,1434,1455,1474,1495,1515,1534,1554,1576,1594,1614,1634,1654,1675,1695,1714,1735,1754,1774,1794,1814,1835,1854,1874,1895,1916,1935,1955,1974,1995,2014,2034,2054,2074,2096,2114,2136,2155,2175,2194,2214,2236,2254,2274,2295,2314,2335,2354,2375,2395,2414,2435,2454,2474,2494,2514,2534,2555,2575,2594,2615,2635,2654,2675,2694,2714,2734,2754,2774,2794,2814],"xSR":741.5,"ySR":449.15000000000003,"xT1":424.9,"yT1":0,"xT2":1058.1,"yT2":0,"toosoon":0,"cond_shown":"Incongruent","ratio_trial":200,"L_num":3,"L_den":10,"R_num":1,"R_den":2,"correct_side":2,"subjID":"danielfelipecortesmora14","gender":"No_gender","school":"colegiocafam","age":"10"},{"start_time":1551887194173,"click_time":1551887196980,"finger_time":1551887195560,"fix_duration":1092.8749965168315,"trial":29,"RT":1387,"MT":1420,"sideResp":1,"stimulus":[],"xmouse":[817,817,817,817,817,817,817,817,817,817,817,817,817,817,817,817,817,817,817,817,817,817,817,817,817,817,817,817,817,817,817,817,817,817,817,817,817,817,817,817,817,817,817,817,817,817,817,817,817,817,817,817,817,817,817,817,817,817,817,817,817,817,817,817,817,817,817,825,839,852,868,918,939,959,974,985,995,1007,1007,1008,1008,1008,1008,1008,1008,1008,1009,1009,1009,1010,1012,1013,1018,1021,1025,1027,1029,1030,1030,1030,1030,1030,1031,1031,1032,1032,1034,1035,1035,1035,1035,1035,1035,1035,1033,1029,1024,1009,994,973,937,847,693,626,571,538,518,503,501,501,501,501,499,499,499,499,500,500,500,500,500],"ymouse":[493,493,493,493,493,493,493,493,493,493,493,493,493,493,493,493,493,493,493,493,493,493,493,493,493,493,493,493,493,493,493,493,493,493,493,493,493,493,493,493,493,493,493,493,493,493,493,493,493,493,493,493,493,493,493,493,493,493,493,493,493,493,493,493,493,493,493,487,476,466,453,419,406,392,379,365,353,336,334,332,332,332,332,332,332,332,329,328,326,324,321,317,309,303,298,293,290,286,285,285,285,285,284,282,281,278,274,272,271,270,270,270,270,270,270,271,272,277,278,280,280,271,242,225,209,199,194,189,189,189,189,189,182,178,173,169,155,141,125,107,87],"timestamp_mouse":[10,41,46,67,86,106,127,147,167,187,206,226,248,266,288,306,326,347,366,387,406,426,448,467,486,507,528,546,567,587,606,627,648,667,686,706,726,746,766,786,807,827,846,866,887,906,927,948,967,987,1007,1026,1046,1067,1086,1106,1127,