[{"start_time":1551887791211,"click_time":1551887794415,"finger_time":1551887792515,"fix_duration":587.8194627304608,"trial":0,"RT":1304,"MT":1900,"sideResp":1,"stimulus":"img/900/equaldotsize/R/13_Ratio_900_L_18_R_20.png","xmouse":[767,767,767,768,770,771,772,773,774,774,774,774,774,774,774,774,774,774,774,774,774,774,774,774,774,774,774,774,774,774,774,774,774,774,774,774,774,774,774,774,774,774,774,774,774,774,774,774,774,774,774,774,774,774,774,774,774,774,774,774,773,768,763,753,746,734,727,719,711,702,694,691,688,684,680,673,670,667,664,659,651,647,645,644,644,644,644,644,644,646,649,651,651,651,651,651,651,651,651,651,651,652,653,654,654,655,655,655,655,653,651,649,646,645,638,634,627,618,612,600,586,579,574,570,566,557,554,550,547,544,544,544,544,544,544,544,544,544,544,544,544,543,543,543,542,541,541,538,538,535,531,530,528,526,524,522,522,521,521,520,517],"ymouse":[479,479,479,479,479,479,479,479,479,479,479,479,479,479,479,479,479,479,479,479,479,479,479,479,479,479,479,479,479,479,479,479,479,479,479,479,479,479,479,479,479,479,479,479,479,479,479,479,479,479,479,479,479,479,479,479,479,479,479,479,479,482,486,491,496,505,507,510,511,513,514,514,514,515,516,517,517,517,518,519,519,520,520,520,520,520,520,520,520,520,520,520,520,520,520,520,520,520,520,520,520,520,520,516,512,501,495,490,485,473,464,456,450,445,425,410,393,374,358,331,298,282,269,255,240,214,203,194,186,181,180,180,180,180,180,180,180,180,179,176,170,168,166,165,161,154,150,142,140,131,121,117,112,109,105,102,102,101,101,100,98],"timestamp_mouse":[9,37,44,65,84,106,124,145,166,184,204,225,246,265,286,305,325,345,365,385,404,425,446,464,485,504,525,546,565,584,606,624,644,664,685,705,724,745,764,784,806,824,844,864,885,904,925,945,965,984,1005,1025,1045,1064,1084,1104,1126,1145,1164,1184,1205,1225,1246,1265,1284,1304,1324,1345,1366,1384,1404,1424,1445,1464,1486,1504,1525,1546,1565,1584,1605,1626,1645,1664,1685,1705,1725,1744,1764,1784,1804,1825,1845,1865,1884,1904,1925,1944,1964,1985,2005,2025,2045,2064,2084,2104,2124,2144,2165,2185,2204,2225,2244,2264,2286,2304,2324,2344,2365,2386,2406,2424,2444,2464,2485,2505,2526,2545,2566,2584,2605,2624,2645,2665,2684,2705,2726,2745,2766,2784,2805,2825,2844,2865,2884,2904,2925,2944,2965,2985,3005,3026,3044,3065,3085,3104,3126,3145,3164,3184,3204],"xSR":741.5,"ySR":449.15000000000003,"xT1":424.9,"yT1":0,"xT2":1058.1,"yT2":0,"toosoon":0,"cond_shown":"equaldotsize","ratio_trial":900,"smaller_num":"18","larger_num":"20","correct_side":2,"subjID":"danielfelipecortesmora14","gender":"0","age":"10","school":"colegiocafam","test":{"fix_dur":[250,1500],"timestim":300,"targets_dim":[100,100],"targets_relative_coord":[0.3,0.7],"size_stim":[880,420],"start_dim":[100,100],"size_start":[300,300],"size_fix":60,"samplingrate":20,"img_types":["equaldotsize","equaldotanddens","randomdotsizeEA"],"ratios":[250,500,750,900],"rep_conds":9,"nTrials":120,"trials_to_rest":500,"Trials_order":[21,112,8,51,94,59,93,104,99,35,82,101,85,33,27,17,97,81,3,113,100,109,74,44,115,118,30,53,77,28,16,111,70,57,60,110,2,69,88,32,90,79,107,117,83,40,18,37,36,15,4,24,86,46,95,0,66,55,41,89,65,52,116,12,13,26,23,1,54,47,56,29,11,48,106,108,38,39,42,64,7,49,72,10,103,71,19,73,58,25,105,91,20,63,6,14,96,76,22,102,62,75,31,87,80,45,68,78,84,43,98,114,119,34,9,67,92,50,5,61],"cond_shown":["equaldotsize","equaldotanddens","randomdotsizeEA","equaldotsize","equaldotanddens","randomdotsizeEA","equaldotsize","randomdotsizeEA","equaldotsize","randomdotsizeEA","equaldotanddens","randomdotsizeEA","equaldotanddens","equaldotsize","equaldotsize","randomdotsizeEA","equaldotanddens","equaldotsize","equaldotsize","randomdotsizeEA","equaldotanddens","equaldotanddens","randomdotsizeEA","randomdotsizeEA","equaldotanddens","equaldotanddens","equaldotsize","randomdotsizeEA","randomdotsizeEA","equaldotanddens","equaldotanddens","equaldotsize","equaldotanddens","equaldotsize","equaldotsize","randomdotsizeEA","randomdotsizeEA","equaldotsize","equaldotanddens","randomdotsizeEA","equaldotsize","equaldotanddens","randomdotsizeEA","equaldotsize","randomdotsizeEA","equaldotanddens","equaldotsize","equaldotanddens","equaldotsize","equaldotsize","equaldotanddens","equaldotsize","randomdotsizeEA","equaldotanddens","randomdotsizeEA","equaldotsize","equaldotsize","equaldotanddens","randomdotsizeEA","randomdotsizeEA","randomdotsizeEA","equaldotanddens","randomdotsizeEA","equaldotsize","equaldotanddens","randomdotsizeEA","randomdotsizeEA","equaldotanddens","equaldotsize","randomdotsizeEA","randomdotsizeEA","randomdotsizeEA","randomdotsizeEA","equaldotsize","equaldotanddens","equaldotsize","randomdotsizeEA","equaldotsize","equaldotsize","equaldotanddens","equaldotanddens","equaldotanddens","equaldotsize","equaldotanddens","equaldotanddens","randomdotsizeEA","equaldotanddens","equaldotanddens","equaldotanddens","equaldotanddens","equaldotsize","equaldotanddens","randomdotsizeEA","equaldotsize","equaldotsize","randomdotsizeEA","equaldotsize","equaldotanddens","equaldotanddens","equaldotsize","randomdotsizeEA","equaldotsize","equaldotanddens","equaldotsize","randomdotsizeEA","equaldotsize","randomdotsizeEA","equaldotsize","equaldotsize","equaldotanddens","randomdotsizeEA","equaldotsize","randomdotsizeEA","equaldotanddens","equaldotsize","equaldotanddens","randomdotsizeEA","randomdotsizeEA","randomdotsizeEA","equaldotanddens"],"ratio_trial":[900,500,750,500,900,900,900,750,500,900,900,500,250,900,500,500,250,900,500,500,500,250,250,750,750,900,750,500,500,500,500,500,900,900,250,250,250,900,500,750,750,750,900,900,900,500,750,250,250,500,500,250,250,900,900,250,750,750,500,500,500,500,750,250,250,250,900,250,750,900,750,500,900,250,900,250,250,500,750,500,750,250,250,900,750,900,750,250,900,250,900,750,750,500,750,250,250,500,900,750,250,500,750,500,750,900,750,750,250,750,250,750,900,900,900,750,750,250,500,250],"smaller_num":["18","1","3","3","18","18","18","6","5","18","9","1","6","18","2","5","2","18","3","10","10","3","3","18","3","9","3","1","6","4","2","3","9","18","2","3","4","9","1","6","9","3","18","18","18","3","6","5","2","5","6","4","4","18","18","6","3","3","6","9","1","9","15","6","1","6","9","4","15","18","15","6","9","5","18","6","3","6","3","9","6","2","3","9","3","18","9","2","18","4","18","9","18","2","6","6","1","9","18","18","3","5","3","9","6","18","3","3","5","15","2","3","9","18","18","15","6","6","9","4"],"larger_num":["20","2","4","6","20","20","20","8","10","20","10","2","24","20","4","10","8","20","6","20","20","12","12","24","4","10","4","2","12","8","4","6","10","20","8","12","16","10","2","8","12","4","20","20","20","6","8","20","8","10","12","16","16","20","20","24","4","4","12","18","2","18","20","24","4","24","10","16","20","20","20","12","10","20","20","24","12","12","4","18","8","8","12","10","4","20","12","8","20","16","20","12","24","4","8","24","4","18","20","24","12","10","4","18","8","20","4","4","20","20","8","4","10","20","20","20","8","24","18","16"],"correct_side":[2,2,2,2,1,2,1,1,2,1,2,2,2,2,1,1,1,1,2,2,2,2,2,1,1,2,1,2,1,1,1,2,1,1,1,2,2,2,2,1,2,2,1,1,1,2,1,2,1,2,1,2,2,1,1,1,1,2,1,1,2,1,2,1,2,1,2,2,2,2,1,1,2,2,1,1,1,1,1,2,1,2,1,2,2,1,2,1,1,1,1,2,1,1,1,2,2,2,1,1,2,2,1,1,1,2,2,2,2,2,2,2,1,2,2,2,1,2,2,2],"img_shown":["img/900/equaldotsize/R/13_Ratio_900_L_18_R_20.png","img/500/equaldotanddens/R/12_Ratio_500_L_1_R_2.png","img/750/randomdotsizeEA/R/12_Ratio_750_L_3_R_4.png","img/500/equaldotsize/R/2_Ratio_500_L_3_R_6.png","img/900/equaldotanddens/L/10_Ratio_900_L_20_R_18.png","img/900/randomdotsizeEA/R/11_Ratio_900_L_18_R_20.png","img/900/equaldotsize/L/2_Ratio_900_L_20_R_18.png","img/750/randomdotsizeEA/L/14_Ratio_750_L_8_R_6.png","img/500/equaldotsize/R/14_Ratio_500_L_5_R_10.png","img/900/randomdotsizeEA/L/2_Ratio_900_L_20_R_18.png","img/900/equaldotanddens/R/3_Ratio_900_L_9_R_10.png","img/500/randomdotsizeEA/R/15_Ratio_500_L_1_R_2.png","img/250/equaldotanddens/R/6_Ratio_250_L_6_R_24.png","img/900/equaldotsize/R/9_Ratio_900_L_18_R_20.png","img/500/equaldotsize/L/10_Ratio_500_L_4_R_2.png","img/500/randomdotsizeEA/L/7_Ratio_500_L_10_R_5.png","img/250/equaldotanddens/L/1_Ratio_250_L_8_R_2.png","img/900/equaldotsize/L/10_Ratio_900_L_20_R_18.png","img/500/equaldotsize/R/2_Ratio_500_L_3_R_6.png","img/500/randomdotsizeEA/R/3_Ratio_500_L_10_R_20.png","img/500/equaldotanddens/R/3_Ratio_500_L_10_R_20.png","img/250/equaldotanddens/R/4_Ratio_250_L_3_R_12.png","img/250/randomdotsizeEA/R/11_Ratio_250_L_3_R_12.png","img/750/randomdotsizeEA/L/6_Ratio_750_L_24_R_18.png","img/750/equaldotanddens/L/9_Ratio_750_L_4_R_3.png","img/900/equaldotanddens/R/5_Ratio_900_L_9_R_10.png","img/750/equaldotsize/L/8_Ratio_750_L_4_R_3.png","img/500/randomdotsizeEA/R/15_Ratio_500_L_1_R_2.png","img/500/randomdotsizeEA/L/11_Ratio_500_L_12_R_6.png","img/500/equaldotanddens/L/8_Ratio_500_L_8_R_4.png","img/500/equaldotanddens/L/5_Ratio_500_L_4_R_2.png","img/500/equaldotsize/R/2_Ratio_500_L_3_R_6.png","img/900/equaldotanddens/L/1_Ratio_900_L_10_R_9.png","img/900/equaldotsize/L/8_Ratio_900_L_20_R_18.png","img/250/equaldotsize/L/7_Ratio_250_L_8_R_2.png","img/250/randomdotsizeEA/R/4_Ratio_250_L_3_R_12.png","img/250/randomdotsizeEA/R/10_Ratio_250_L_4_R_16.png","img/900/equaldotsize/R/15_Ratio_900_L_9_R_10.png","img/500/equaldotanddens/R/15_Ratio_500_L_1_R_2.png","img/750/randomdotsizeEA/L/13_Ratio_750_L_8_R_6.png","img/750/equaldotsize/R/15_Ratio_750_L_9_R_12.png","img/750/equaldotanddens/R/7_Ratio_750_L_3_R_4.png","img/900/randomdotsizeEA/L/8_Ratio_900_L_20_R_18.png","img/900/equaldotsize/L/4_Ratio_900_L_20_R_18.png","img/900/randomdotsizeEA/L/10_Ratio_900_L_20_R_18.png","img/500/equaldotanddens/R/2_Ratio_500_L_3_R_6.png","img/750/equaldotsize/L/13_Ratio_750_L_8_R_6.png","img/250/equaldotanddens/R/12_Ratio_250_L_5_R_20.png","img/250/equaldotsize/L/1_Ratio_250_L_8_R_2.png","img/500/equaldotsize/R/14_Ratio_500_L_5_R_10.png","img/500/equaldotanddens/L/13_Ratio_500_L_12_R_6.png","img/250/equaldotsize/R/10_Ratio_250_L_4_R_16.png","img/250/randomdotsizeEA/R/10_Ratio_250_L_4_R_16.png","img/900/equaldotanddens/L/10_Ratio_900_L_20_R_18.png","img/900/randomdotsizeEA/L/2_Ratio_900_L_20_R_18.png","img/250/equaldotsize/L/5_Ratio_250_L_24_R_6.png","img/750/equaldotsize/L/8_Ratio_750_L_4_R_3.png","img/750/equaldotanddens/R/7_Ratio_750_L_3_R_4.png","img/500/randomdotsizeEA/L/13_Ratio_500_L_12_R_6.png","img/500/randomdotsizeEA/L/4_Ratio_500_L_18_R_9.png","img/500/randomdotsizeEA/R/12_Ratio_500_L_1_R_2.png","img/500/equaldotanddens/L/4_Ratio_500_L_18_R_9.png","img/750/randomdotsizeEA/R/5_Ratio_750_L_15_R_20.png","img/250/equaldotsize/L/5_Ratio_250_L_24_R_6.png","img/250/equaldotanddens/R/8_Ratio_250_L_1_R_4.png","img/250/randomdotsizeEA/L/5_Ratio_250_L_24_R_6.png","img/900/randomdotsizeEA/R/5_Ratio_900_L_9_R_10.png","img/250/equaldotanddens/R/10_Ratio_250_L_4_R_16.png","img/750/equaldotsize/R/5_Ratio_750_L_15_R_20.png","img/900/randomdotsizeEA/R/14_Ratio_900_L_18_R_20.png","img/750/randomdotsizeEA/L/1_Ratio_750_L_20_R_15.png","img/500/randomdotsizeEA/L/13_Ratio_500_L_12_R_6.png","img/900/randomdotsizeEA/R/5_Ratio_900_L_9_R_10.png","img/250/equaldotsize/R/12_Ratio_250_L_5_R_20.png","img/900/equaldotanddens/L/4_Ratio_900_L_20_R_18.png","img/250/equaldotsize/L/5_Ratio_250_L_24_R_6.png","img/250/randomdotsizeEA/L/15_Ratio_250_L_12_R_3.png","img/500/equaldotsize/L/13_Ratio_500_L_12_R_6.png","img/750/equaldotsize/L/8_Ratio_750_L_4_R_3.png","img/500/equaldotanddens/R/6_Ratio_500_L_9_R_18.png","img/750/equaldotanddens/L/14_Ratio_750_L_8_R_6.png","img/250/equaldotanddens/R/13_Ratio_250_L_2_R_8.png","img/250/equaldotsize/L/14_Ratio_250_L_12_R_3.png","img/900/equaldotanddens/R/15_Ratio_900_L_9_R_10.png","img/750/equaldotanddens/R/12_Ratio_750_L_3_R_4.png","img/900/randomdotsizeEA/L/2_Ratio_900_L_20_R_18.png","img/750/equaldotanddens/R/15_Ratio_750_L_9_R_12.png","img/250/equaldotanddens/L/1_Ratio_250_L_8_R_2.png","img/900/equaldotanddens/L/10_Ratio_900_L_20_R_18.png","img/250/equaldotanddens/L/2_Ratio_250_L_16_R_4.png","img/900/equaldotsize/L/8_Ratio_900_L_20_R_18.png","img/750/equaldotanddens/R/15_Ratio_750_L_9_R_12.png","img/750/randomdotsizeEA/L/6_Ratio_750_L_24_R_18.png","img/500/equaldotsize/L/10_Ratio_500_L_4_R_2.png","img/750/equaldotsize/L/13_Ratio_750_L_8_R_6.png","img/250/randomdotsizeEA/R/6_Ratio_250_L_6_R_24.png","img/250/equaldotsize/R/8_Ratio_250_L_1_R_4.png","img/500/equaldotanddens/R/6_Ratio_500_L_9_R_18.png","img/900/equaldotanddens/L/8_Ratio_900_L_20_R_18.png","img/750/equaldotsize/L/6_Ratio_750_L_24_R_18.png","img/250/randomdotsizeEA/R/4_Ratio_250_L_3_R_12.png","img/500/equaldotsize/R/14_Ratio_500_L_5_R_10.png","img/750/equaldotanddens/L/10_Ratio_750_L_4_R_3.png","img/500/equaldotsize/L/4_Ratio_500_L_18_R_9.png","img/750/randomdotsizeEA/L/13_Ratio_750_L_8_R_6.png","img/900/equaldotsize/R/9_Ratio_900_L_18_R_20.png","img/750/randomdotsizeEA/R/7_Ratio_750_L_3_R_4.png","img/750/equaldotsize/R/7_Ratio_750_L_3_R_4.png","img/250/equaldotsize/R/12_Ratio_250_L_5_R_20.png","img/750/equaldotanddens/R/3_Ratio_750_L_15_R_20.png","img/250/randomdotsizeEA/R/13_Ratio_250_L_2_R_8.png","img/750/equaldotsize/R/12_Ratio_750_L_3_R_4.png","img/900/randomdotsizeEA/L/1_Ratio_900_L_10_R_9.png","img/900/equaldotanddens/R/9_Ratio_900_L_18_R_20.png","img/900/equaldotsize/R/14_Ratio_900_L_18_R_20.png","img/750/equaldotanddens/R/4_Ratio_750_L_15_R_20.png","img/750/randomdotsizeEA/L/13_Ratio_750_L_8_R_6.png","img/250/randomdotsizeEA/R/6_Ratio_250_L_6_R_24.png","img/500/randomdotsizeEA/R/6_Ratio_500_L_9_R_18.png","img/250/equaldotanddens/R/10_Ratio_250_L_4_R_16.png"],"Rat0":[["12_Ratio_0_L_9_R_0.png","13_Ratio_0_L_6_R_0.png","5_Ratio_0_L_2_R_0.png","6_Ratio_0_L_4_R_0.png","8_Ratio_0_L_6_R_0.png"],["1_Ratio_0_L_0_R_17.png","10_Ratio_0_L_0_R_22.png","11_Ratio_0_L_0_R_1.png","14_Ratio_0_L_0_R_24.png","15_Ratio_0_L_0_R_4.png","2_Ratio_0_L_0_R_5.png","3_Ratio_0_L_0_R_17.png","4_Ratio_0_L_0_R_7.png","7_Ratio_0_L_0_R_19.png","9_Ratio_0_L_0_R_15.png"]],"Rat250":[["1_Ratio_250_L_8_R_2.png","14_Ratio_250_L_12_R_3.png","15_Ratio_250_L_12_R_3.png","2_Ratio_250_L_16_R_4.png","3_Ratio_250_L_8_R_2.png","5_Ratio_250_L_24_R_6.png","7_Ratio_250_L_8_R_2.png"],["10_Ratio_250_L_4_R_16.png","11_Ratio_250_L_3_R_12.png","12_Ratio_250_L_5_R_20.png","13_Ratio_250_L_2_R_8.png","4_Ratio_250_L_3_R_12.png","6_Ratio_250_L_6_R_24.png","8_Ratio_250_L_1_R_4.png","9_Ratio_250_L_3_R_12.png"]],"Rat500":[["10_Ratio_500_L_4_R_2.png","11_Ratio_500_L_12_R_6.png","13_Ratio_500_L_12_R_6.png","4_Ratio_500_L_18_R_9.png","5_Ratio_500_L_4_R_2.png","7_Ratio_500_L_10_R_5.png","8_Ratio_500_L_8_R_4.png"],["1_Ratio_500_L_9_R_18.png","12_Ratio_500_L_1_R_2.png","14_Ratio_500_L_5_R_10.png","15_Ratio_500_L_1_R_2.png","2_Ratio_500_L_3_R_6.png","3_Ratio_500_L_10_R_20.png","6_Ratio_500_L_9_R_18.png","9_Ratio_500_L_2_R_4.png"]],"Rat750":[["1_Ratio_750_L_20_R_15.png","10_Ratio_750_L_4_R_3.png","13_Ratio_750_L_8_R_6.png","14_Ratio_750_L_8_R_6.png","6_Ratio_750_L_24_R_18.png","8_Ratio_750_L_4_R_3.png","9_Ratio_750_L_4_R_3.png"],["11_Ratio_750_L_12_R_16.png","12_Ratio_750_L_3_R_4.png","15_Ratio_750_L_9_R_12.png","2_Ratio_750_L_6_R_8.png","3_Ratio_750_L_15_R_20.png","4_Ratio_750_L_15_R_20.png","5_Ratio_750_L_15_R_20.png","7_Ratio_750_L_3_R_4.png"]],"Rat900":[["1_Ratio_900_L_10_R_9.png","10_Ratio_900_L_20_R_18.png","2_Ratio_900_L_20_R_18.png","4_Ratio_900_L_20_R_18.png","8_Ratio_900_L_20_R_18.png"],["11_Ratio_900_L_18_R_20.png","12_Ratio_900_L_18_R_20.png","13_Ratio_900_L_18_R_20.png","14_Ratio_900_L_18_R_20.png","15_Ratio_900_L_9_R_10.png","3_Ratio_900_L_9_R_10.png","5_Ratio_900_L_9_R_10.png","6_Ratio_900_L_9_R_10.png","7_Ratio_900_L_9_R_10.png","9_Ratio_900_L_18_R_20.png"]],"Rat1000":[["10_Ratio_1000_L_16_R_16.png","11_Ratio_1000_L_6_R_6.png","12_Ratio_1000_L_14_R_14.png","13_Ratio_1000_L_20_R_20.png","15_Ratio_1000_L_15_R_15.png","2_Ratio_1000_L_17_R_17.png","4_Ratio_1000_L_9_R_9.png","5_Ratio_1000_L_6_R_6.png","6_Ratio_1000_L_19_R_19.png","8_Ratio_1000_L_14_R_14.png","9_Ratio_1000_L_25_R_25.png"],["1_Ratio_1000_L_1_R_1.png","14_Ratio_1000_L_17_R_17.png","3_Ratio_1000_L_17_R_17.png","7_Ratio_1000_L_6_R_6.png"]]}},{"start_time":1551887797308,"click_time":1551887798916,"finger_time":1551887798175,"fix_duration":250,"trial":1,"RT":867,"MT":741,"sideResp":2,"stimulus":"img/500/equaldotanddens/R/12_Ratio_500_L_1_R_2.png","xmouse":[798,798,799,799,799,799,799,799,799,799,799,799,799,799,799,799,799,799,799,799,799,799,799,799,799,799,799,799,799,799,799,799,803,805,812,817,819,821,824,824,815,804,791,779,780,786,793,797,801,811,814,815,817,817,817,819,823,827,838,899,972,1062,1137,1192,1262,1274,1284,1291,1295,1297,1298,1298,1298,1296,1290,1273,1258,1238,1217,1170,1157],"ymouse":[531,531,531,531,531,531,531,531,531,531,531,531,531,531,531,531,531,531,531,531,531,531,531,531,531,531,531,531,531,531,531,531,531,529,521,514,510,505,498,491,474,463,454,447,442,437,430,426,421,407,404,402,399,398,396,394,390,385,378,340,305,256,215,172,90,70,52,35,23,13,6,6,4,4,4,10,20,29,38,59,66],"timestamp_mouse":[11,34,47,67,89,107,127,149,168,187,207,227,248,268,287,308,329,347,369,387,407,429,448,468,488,508,528,547,567,588,608,627,647,667,687,708,728,748,768,787,807,828,847,867,888,907,927,948,967,989,1007,1028,1047,1068,1087,1107,1127,1147,1167,1188,1207,1227,1247,1268,1289,1307,1327,1348,1367,1388,1408,1429,1448,1467,1487,1508,1527,1548,1568,1588,1607],"xSR":741.5,"ySR":449.15000000000003,"xT1":424.9,"yT1":0,"xT2":1058.1,"yT2":0,"toosoon":0,"cond_shown":"equaldotanddens","ratio_trial":500,"smaller_num":"1","larger_num":"2","correct_side":2,"subjID":"danielfelipecortesmora14","gender":"0","age":"10","school":"colegiocafam"},{"start_time":1551887801586,"click_time":1551887803597,"finger_time":1551887802996,"fix_duration":250,"trial":2,"RT":1410,"MT":601,"sideResp":1,"stimulus":"img/750/randomdotsizeEA/R/12_Ratio_750_L_3_R_4.png","xmouse":[794,794,794,794,794,794,794,794,794,794,794,794,794,794,794,794,794,794,794,794,794,794,794,794,794,794,794,794,794,794,794,794,794,794,794,794,794,794,794,794,794,794,794,794,794,794,794,794,794,794,794,794,794,794,794,794,794,794,794,794,794,794,794,794,793,793,793,793,796,806,818,820,821,821,813,785,767,751,734,721,693,682,666,647,628,589,575,562,553,547,540,532,528,525,520,513,511,511,509,509,504],"ymouse":[530,530,530,530,530,530,530,530,530,530,530,530,530,530,530,530,530,530,530,530,530,530,530,530,530,530,530,530,530,530,530,530,530,530,530,530,530,530,530,530,530,530,530,530,530,530,530,530,530,530,530,530,530,530,530,530,530,530,530,530,530,530,530,530,530,527,517,509,499,477,439,420,399,380,361,328,315,305,295,286,263,253,240,226,212,179,166,155,147,142,138,134,133,129,125,118,115,114,111,110,99],"timestamp_mouse":[9,44,50,70,91,109,130,149,170,189,210,230,249,269,291,310,330,349,369,391,410,429,450,469,490,510,531,549,570,591,610,630,649,670,689,710,730,750,769,791,810,830,850,870,890,909,931,949,970,989,1009,1029,1050,1069,1090,1110,1131,1149,1169,1191,1210,1231,1251,1270,1289,1309,1330,1349,1369,1390,1410,1429,1449,1470,1490,1510,1529,1549,1569,1590,1611,1629,1650,1670,1689,1710,1729,1749,1770,1790,1809,1831,1849,1869,1890,1910,1929,1949,1969,1990,2011],"xSR":741.5,"ySR":449.15000000000003,"xT1":424.9,"yT1":0,"xT2":1058.1,"yT2":0,"toosoon":0,"cond_shown":"randomdotsizeEA","ratio_trial":750,"smaller_num":"3","larger_num":"4","correct_side":2,"subjID":"danielfelipecortesmora14","gender":"0","age":"10","school":"colegiocafam"},{"start_time":1551887807395,"click_time":1551887809875,"finger_time":1551887809296,"fix_duration":958.1403209828626,"trial":3,"RT":1901,"MT":579,"sideResp":2,"stimulus":"img/500/equaldotsize/R/2_Ratio_500_L_3_R_6.png","xmouse":[802,802,802,802,802,802,802,802,801,801,799,798,798,797,797,797,797,797,797,797,797,797,797,797,797,797,797,797,797,797,797,797,797,797,797,797,797,797,797,797,797,797,797,797,797,797,797,797,797,797,797,797,797,797,797,797,797,797,797,797,797,797,795,793,790,787,787,787,787,787,787,787,787,787,787,787,787,787,787,787,787,787,787,787,787,787,787,787,787,787,787,788,793,801,820,883,921,990,1074,1121,1164,1169,1172,1176,1177,1177,1177,1177,1177,1178,1178,1176,1175,1173,1171,1169,1161,1157,1152,1149,1141,1139,1139,1137,1135],"ymouse":[498,498,498,498,498,498,498,498,498,499,500,500,500,501,501,501,501,501,501,501,501,501,501,501,501,501,501,501,501,501,501,501,501,501,501,501,501,501,501,501,501,501,501,501,501,501,501,501,501,501,501,501,501,501,501,501,501,501,501,501,501,501,501,501,501,501,501,501,501,501,501,501,501,501,501,501,501,501,501,501,501,501,501,501,501,501,501,501,501,501,501,501,498,491,473,407,364,298,224,179,134,130,127,124,123,123,123,123,123,122,122,121,121,120,119,119,114,111,108,105,101,100,100,100,98],"timestamp_mouse":[1,31,41,60,81,101,120,140,162,180,201,220,240,261,281,301,321,346,361,381,400,420,440,462,480,500,521,540,562,581,602,620,642,662,682,700,720,740,761,780,800,821,842,862,880,901,920,941,962,980,1001,1020,1040,1060,1082,1101,1120,1141,1161,1182,1200,1220,1240,1260,1281,1300,1321,1340,1362,1380,1401,1421,1441,1461,1480,1500,1520,1542,1560,1581,1602,1621,1641,1660,1680,1701,1720,1740,1761,1781,1801,1821,1840,1860,1881,1901,1921,1940,1960,1982,2002,2020,2040,2060,2081,2102,2120,2140,2160,2180,2202,2221,2240,2261,2280,2300,2320,2342,2360,2380,2402,2420,2442,2460,2480],"xSR":741.5,"ySR":449.15000000000003,"xT1":424.9,"yT1":0,"xT2":1058.1,"yT2":0,"toosoon":0,"cond_shown":"equaldotsize","ratio_trial":500,"smaller_num":"3","larger_num":"6","correct_side":2,"subjID":"danielfelipecortesmora14","gender":"0","age":"10","school":"colegiocafam"},{"start_time":1551887811469,"click_time":1551887813097,"finger_time":1551887812416,"fix_duration":350.00112934598684,"trial":4,"RT":947,"MT":681,"sideResp":2,"stimulus":"img/900/equaldotanddens/L/10_Ratio_900_L_20_R_18.png","xmouse":[802,802,802,802,802,802,802,802,802,802,802,802,802,802,802,802,802,802,802,802,802,802,802,802,802,802,802,802,802,802,802,802,802,802,802,802,802,802,802,802,804,806,815,817,821,826,832,838,842,851,923,1020,1127,1146,1161,1180,1221,1233,1246,1258,1265,1269,1272,1272,1271,1267,1252,1225,1219,1217,1216,1215,1211,1208,1207,1204,1185,1175,1168,1163,1160,1158],"ymouse":[513,513,513,513,513,513,513,513,513,513,513,513,513,513,513,513,513,513,513,513,513,513,513,513,512,512,512,512,512,512,512,512,512,512,512,512,512,512,512,512,511,510,501,496,488,477,460,442,437,429,386,322,233,208,188,167,128,116,106,94,85,78,73,73,72,72,72,74,75,75,75,75,75,75,75,75,73,71,70,69,69,69],"timestamp_mouse":[8,27,60,68,86,106,126,147,166,186,206,226,246,266,288,308,328,348,368,388,407,428,447,467,487,507,527,547,567,587,607,628,646,666,687,707,726,748,767,788,806,826,846,866,887,907,926,947,966,987,1007,1026,1046,1066,1087,1107,1127,1148,1167,1187,1208,1227,1247,1266,1286,1306,1326,1347,1367,1387,1407,1426,1446,1467,1486,1508,1527,1546,1567,1587,1606,1627],"xSR":741.5,"ySR":449.15000000000003,"xT1":424.9,"yT1":0,"xT2":1058.1,"yT2":0,"toosoon":0,"cond_shown":"equaldotanddens","ratio_trial":900,"smaller_num":"18","larger_num":"20","correct_side":1,"subjID":"danielfelipecortesmora14","gender":"0","age":"10","school":"colegiocafam"},{"start_time":1551887815878,"click_time":1551887817297,"finger_time":1551887816936,"fix_duration":1281.386600731617,"trial":5,"RT":1058,"MT":361,"sideResp":1,"stimulus":"img/900/randomdotsizeEA/R/11_Ratio_900_L_18_R_20.png","xmouse":[782,782,782,782,782,782,782,782,782,782,782,782,782,782,782,782,782,782,782,782,782,782,782,782,782,782,782,782,782,782,782,782,782,782,782,782,782,782,782,782,782,782,782,782,782,782,782,782,782,778,775,755,728,683,630,506,472,452,437,429,419,416,414,411,411,411,411,411,413,418,440],"ymouse":[479,479,479,479,479,479,479,479,479,479,479,479,479,479,479,479,479,479,479,479,479,479,479,479,479,479,479,479,479,479,479,479,479,479,479,479,479,479,479,479,479,479,479,479,479,479,479,479,479,478,474,455,433,397,354,241,205,183,165,149,128,119,114,109,107,104,103,102,101,101,98],"timestamp_mouse":[18,39,57,77,97,117,139,157,177,198,218,237,259,278,297,317,337,359,378,398,417,437,457,478,497,517,538,557,577,597,618,637,658,677,698,717,739,757,778,799,818,838,858,879,897,917,939,957,978,998,1017,1038,1058,1077,1097,1119,1138,1157,1178,1197,1218,1237,1258,1277,1297,1318,1339,1357,1377,1397,1419],"xSR":741.5,"ySR":449.15000000000003,"xT1":424.9,"yT1":0,"xT2":1058.1,"yT2":0,"toosoon":0,"cond_shown":"randomdotsizeEA","ratio_trial":900,"smaller_num":"18","larger_num":"20","correct_side":2,"subjID":"danielfelipecortesmora14","gender":"0","age":"10","school":"colegiocafam"},{"start_time":1551887819528,"click_time":1551887821535,"finger_time":1551887820596,"fix_duration":1229.6895129882519,"trial":6,"RT":1068,"MT":939,"sideResp":2,"stimulus":"img/900/equaldotsize/L/2_Ratio_900_L_20_R_18.png","xmouse":[781,781,781,781,781,781,781,781,781,781,781,781,781,781,781,781,781,781,781,781,781,781,781,781,781,781,781,781,781,781,781,781,781,781,781,781,781,781,781,781,781,781,781,781,781,781,781,783,787,801,809,817,835,846,848,851,857,864,875,881,887,894,898,904,912,916,922,927,931,943,955,984,992,1008,1015,1018,1021,1022,1023,1028,1030,1033,1036,1041,1048,1053,1056,1060,1062,1084,1103,1121,1143,1146,1146,1146,1146,1146,1146,1147,1147],"ymouse":[530,530,530,530,530,530,530,530,530,530,530,530,530,530,530,530,530,530,530,530,530,530,530,530,530,530,530,530,530,530,530,530,530,530,530,530,530,530,530,530,530,530,530,530,530,530,529,527,524,512,505,497,479,465,462,455,446,434,414,404,394,382,372,357,341,335,326,319,314,298,281,249,241,219,209,205,201,199,196,189,185,179,173,164,149,142,138,132,129,119,113,108,105,104,104,104,104,104,102,100,99],"timestamp_mouse":[10,40,48,68,88,107,129,148,168,188,207,227,247,267,288,308,327,347,368,387,408,427,448,468,487,507,529,549,568,588,608,629,647,667,689,709,728,749,767,788,808,829,847,868,888,909,929,947,967,987,1008,1027,1047,1068,1087,1109,1129,1147,1168,1187,1208,1227,1247,1267,1288,1309,1327,1348,1368,1387,1407,1428,1447,1467,1488,1507,1528,1547,1569,1588,1608,1628,1648,1667,1687,1708,1727,1747,1768,1789,1808,1827,1847,1867,1888,1908,1927,1948,1967,1987,2007],"xSR":741.5,"ySR":449.15000000000003,"xT1":424.9,"yT1":0,"xT2":1058.1,"yT2":0,"toosoon":0,"cond_shown":"equaldotsize","ratio_trial":900,"smaller_num":"18","larger_num":"20","correct_side":1,"subjID":"danielfelipecortesmora14","gender":"0","age":"10","school":"colegiocafam"},{"start_time":1551887822877,"click_time":1551887826576,"finger_time":1551887824776,"fix_duration":519.7383155143074,"trial":7,"RT":1899,"MT":1800,"sideResp":2,"stimulus":"img/750/randomdotsizeEA/L/14_Ratio_750_L_8_R_6.png","xmouse":[759,759,759,759,759,759,759,759,759,759,759,759,759,759,759,759,759,759,759,759,759,759,759,759,759,759,759,759,759,759,759,759,759,759,759,759,759,759,759,759,759,759,759,759,759,759,759,759,759,759,759,759,759,759,759,759,759,759,759,759,759,759,759,759,759,759,759,759,759,759,759,759,759,759,759,759,759,759,759,759,759,759,759,759,759,759,759,759,759,759,759,759,759,760,760,737,737,737,737,737,737,737,737,737,737,737,737,737,755,794,824,852,857,860,862,865,884,890,892,892,886,878,855,841,825,808,790,783,783,783,783,783,782,782,782,782,782,782,782,782,782,782,782,782,782,782,782,782,782,782,782,782,782,782,786,793,803,821,830,839,852,868,902,914,926,939,953,966,972,977,982,993,999,1005,1009,1015,1032,1036,1043,1049,1055,1061,1068,1071,1072,1073],"ymouse":[528,528,528,528,528,528,528,528,528,528,528,528,528,528,528,528,528,528,528,528,528,528,528,528,528,528,528,528,528,528,528,528,528,528,528,528,528,528,528,528,528,528,528,528,528,528,528,528,528,528,528,528,528,528,528,528,528,528,528,528,528,528,528,528,528,528,528,528,528,528,528,528,528,528,528,528,528,528,528,528,528,528,528,528,528,528,528,528,528,528,528,528,528,532,541,641,641,641,641,641,641,641,641,641,641,641,641,641,673,651,638,620,616,613,610,605,583,572,559,544,527,511,493,489,487,484,481,477,477,477,477,477,476,476,476,476,477,477,477,477,477,477,477,477,477,477,477,477,477,477,477,477,477,478,478,473,469,455,446,436,423,407,378,363,348,334,315,295,285,277,267,250,242,230,218,204,170,161,149,140,132,124,110,106,101,98],"timestamp_mouse":[1,19,39,58,78,99,120,139,158,178,198,218,240,259,278,298,319,340,358,379,400,419,438,459,479,498,519,538,559,579,599,618,639,659,679,699,719,738,760,779,799,820,838,858,880,898,919,940,959,980,998,1019,1040,1059,1080,1099,1119,1140,1158,1179,1199,1219,1239,1259,1278,1298,1319,1338,1360,1379,1398,1419,1439,1458,1479,1499,1519,1540,1560,1578,1599,1619,1639,1659,1679,1699,1719,1740,1759,1779,1800,1819,1839,1859,1878,1899,1920,1938,1958,1979,2000,2018,2038,2058,2080,2098,2119,2138,2158,2178,2198,2218,2240,2259,2280,2299,2318,2338,2358,2378,2398,2418,2438,2458,2480,2499,2518,2538,2559,2579,2598,2618,2639,2658,2680,2698,2718,2739,2758,2778,2800,2818,2838,2860,2879,2898,2918,2940,2958,2979,2998,3020,3040,3059,3079,3099,3118,3139,3158,3180,3198,3220,3239,3259,3278,3299,3318,3338,3358,3379,3398,3420,3438,3459,3478,3498,3520,3538,3558,3579,3598,3620,3639,3658,3678,3699],"xSR":741.5,"ySR":449.15000000000003,"xT1":424.9,"yT1":0,"xT2":1058.1,"yT2":0,"toosoon":0,"cond_shown":"randomdotsizeEA","ratio_trial":750,"smaller_num":"6","larger_num":"8","correct_side":1,"subjID":"danielfelipecortesmora14","gender":"0","age":"10","school":"colegiocafam"},{"start_time":1551887828972,"click_time":1551887831496,"finger_time":1551887829875,"fix_duration":1235.6331391919698,"trial":8,"RT":903,"MT":1621,"sideResp":2,"stimulus":"img/500/equaldotsize/R/14_Ratio_500_L_5_R_10.png","xmouse":[764,764,764,764,764,764,764,764,764,764,764,764,764,764,764,764,764,764,764,764,764,764,764,764,764,764,764,764,764,764,764,764,764,764,764,764,764,764,764,764,764,764,764,761,750,730,649,621,603,588,587,584,582,582,582,582,582,582,588,590,597,602,627,656,692,727,764,775,785,796,810,838,853,866,877,886,901,907,911,914,920,927,930,930,932,934,938,947,953,957,961,974,983,993,1005,1013,1020,1034,1042,1048,1059,1074,1079,1083,1087,1088,1089,1091,1091,1091,1091,1091,1091,1091,1091,1091,1091,1091,1091,1091,1091,1091,1091,1091,1093,1094,1099],"ymouse":[474,474,474,474,474,474,474,474,474,474,474,474,474,474,474,474,474,474,474,474,474,474,474,474,474,474,474,474,474,474,474,474,474,474,474,474,474,474,474,474,474,474,474,468,456,443,407,392,383,371,370,357,351,347,345,344,344,342,340,339,335,332,326,321,316,308,288,280,271,262,246,220,205,191,180,172,159,153,149,146,144,141,139,139,137,136,134,126,122,119,116,111,109,106,104,104,104,104,104,104,105,105,105,105,105,105,105,105,105,105,104,104,104,104,104,104,104,104,104,104,104,104,104,104,103,101,93],"timestamp_mouse":[10,39,43,63,83,104,124,143,163,183,205,225,244,263,284,303,325,344,363,384,403,424,443,463,485,503,525,543,564,585,603,625,643,663,683,703,723,743,765,783,803,823,844,863,884,903,924,943,963,983,1004,1024,1043,1063,1084,1104,1124,1144,1164,1184,1203,1223,1244,1264,1284,1305,1324,1343,1364,1384,1405,1424,1443,1463,1483,1504,1524,1543,1563,1583,1603,1623,1643,1663,1684,1703,1723,1743,1764,1784,1805,1824,1843,1863,1884,1905,1923,1944,1964,1984,2004,2023,2043,2063,2083,2103,2124,2143,2164,2185,2204,2223,2244,2263,2284,2303,2323,2345,2364,2384,2403,2424,2444,2464,2484,2505,2524],"xSR":741.5,"ySR":449.15000000000003,"xT1":424.9,"yT1":0,"xT2":1058.1,"yT2":0,"toosoon":0,"cond_shown":"equaldotsize","ratio_trial":500,"smaller_num":"5","larger_num":"10","correct_side":2,"subjID":"danielfelipecortesmora14","gender":"0","age":"10","school":"colegiocafam"},{"start_time":1551887832668,"click_time":1551887834417,"finger_time":1551887834016,"fix_duration":250,"trial":9,"RT":1348,"MT":401,"sideResp":2,"stimulus":"img/900/randomdotsizeEA/L/2_Ratio_900_L_20_R_18.png","xmouse":[807,807,807,807,807,807,807,807,807,807,807,807,807,807,807,807,807,807,807,807,807,807,807,807,807,807,807,807,807,807,807,807,807,807,807,807,807,807,807,807,807,807,807,807,807,807,807,807,807,807,807,807,807,807,807,807,807,807,807,807,808,810,812,815,817,822,826,851,866,882,898,914,952,973,993,1010,1032,1052,1062,1073,1081,1103,1119,1131,1131,1146,1146,1144],"ymouse":[488,488,488,488,488,488,488,488,488,488,488,488,488,488,488,488,488,488,488,488,488,488,488,488,488,488,488,488,488,488,488,488,488,488,488,488,488,488,488,488,488,488,488,488,488,488,488,488,488,488,488,488,488,488,488,488,488,488,488,488,486,485,484,481,478,471,466,449,441,434,428,420,404,393,381,367,346,316,302,286,269,229,203,179,179,123,106,88],"timestamp_mouse":[10,30,49,68,87,107,127,148,168,188,207,228,249,267,289,307,328,348,368,387,407,429,447,467,488,509,528,547,569,587,608,629,648,669,689,708,727,749,767,787,808,827,848,868,888,907,927,948,969,988,1008,1027,1048,1068,1089,1108,1128,1147,1168,1188,1208,1228,1247,1268,1287,1307,1327,1348,1367,1388,1408,1427,1447,1468,1488,1507,1527,1548,1567,1587,1607,1629,1647,1669,1688,1707,1727,1748],"xSR":741.5,"ySR":449.15000000000003,"xT1":424.9,"yT1":0,"xT2":1058.1,"yT2":0,"toosoon":0,"cond_shown":"randomdotsizeEA","ratio_trial":900,"smaller_num":"18","larger_num":"20","correct_side":1,"subjID":"danielfelipecortesmora14","gender":"0","age":"10","school":"colegiocafam"},{"start_time":1551887836121,"click_time":1551887837736,"finger_time":1551887837096,"fix_duration":623.2559133969651,"trial":10,"RT":975,"MT":640,"sideResp":2,"stimulus":"img/900/equaldotanddens/R/3_Ratio_900_L_9_R_10.png","xmouse":[759,759,754,751,751,750,750,750,750,750,750,750,750,750,750,750,750,750,750,750,750,750,750,750,750,750,750,750,750,750,750,750,750,750,750,750,750,750,750,750,750,750,750,756,764,774,781,795,857,916,988,1060,1153,1211,1227,1234,1239,1241,1245,1255,1260,1262,1265,1265,1263,1260,1250,1242,1230,1212,1207,1205,1202,1196,1191,1184,1175,1168,1162,1156,1148],"ymouse":[499,499,503,505,506,507,509,509,509,509,509,509,509,509,509,509,509,509,509,509,509,509,509,509,509,509,509,509,509,509,509,509,509,509,509,507,506,505,504,502,502,502,501,496,491,484,479,473,451,430,401,372,332,297,286,280,277,275,273,263,256,249,237,229,226,218,206,197,187,165,156,149,144,133,127,122,115,110,106,100,96],"timestamp_mouse":[32,34,55,75,95,114,136,154,175,196,215,235,255,275,296,316,334,354,375,395,415,434,455,475,495,516,536,556,575,595,614,635,654,674,695,715,735,754,774,796,816,836,855,875,894,915,935,954,975,995,1014,1034,1054,1076,1094,1114,1134,1154,1174,1195,1215,1234,1254,1275,1294,1315,1335,1356,1375,1394,1414,1435,1456,1475,1494,1514,1534,1555,1575,1595,1615],"xSR":741.5,"ySR":449.15000000000003,"xT1":424.9,"yT1":0,"xT2":1058.1,"yT2":0,"toosoon":0,"cond_shown":"equaldotanddens","ratio_trial":900,"smaller_num":"9","larger_num":"10","correct_side":2,"subjID":"danielfelipecortesmora14","gender":"0","age":"10","school":"colegiocafam"},{"start_time":1551887839512,"click_time":1551887841376,"finger_time":1551887840756,"fix_duration":815.5621125210573,"trial":11,"RT":1244,"MT":620,"sideResp":2,"stimulus":"img/500/randomdotsizeEA/R/15_Ratio_500_L_1_R_2.png","xmouse":[764,764,764,764,764,764,764,764,764,764,764,764,764,764,764,764,764,764,764,764,764,764,764,764,764,764,764,764,764,764,764,764,764,764,764,764,764,764,764,764,764,764,764,764,766,776,784,789,793,794,797,798,800,802,806,814,818,821,823,825,834,840,845,851,870,882,892,902,915,951,969,988,1008,1036,1150,1308,1362,1382,1398,1418,1422,1423,1423,1423,1422,1413,1404,1391,1372,1337,1243,1204,1163,1137],"ymouse":[520,520,520,520,520,520,520,520,520,520,520,520,520,520,520,520,520,520,520,520,520,520,520,520,520,520,520,520,520,520,520,520,520,520,520,520,520,520,520,520,520,520,520,520,520,519,517,516,514,513,511,510,509,507,504,499,496,494,491,490,485,483,480,476,454,439,426,414,395,350,331,312,295,278,245,198,175,161,149,129,121,116,112,109,102,91,84,81,75,66,43,36,32,28],"timestamp_mouse":[9,24,44,64,84,104,125,143,164,184,204,225,243,264,283,304,323,345,363,384,405,424,443,465,484,505,524,544,563,585,604,623,643,664,684,704,724,744,764,784,805,824,843,865,884,904,923,944,963,984,1003,1024,1043,1066,1084,1104,1124,1145,1164,1184,1205,1224,1244,1265,1285,1304,1324,1346,1364,1385,1404,1424,1444,1466,1485,1505,1524,1545,1565,1585,1604,1625,1644,1665,1684,1704,1724,1744,1765,1785,1804,1824,1845,1864],"xSR":741.5,"ySR":449.15000000000003,"xT1":424.9,"yT1":0,"xT2":1058.1,"yT2":0,"toosoon":0,"cond_shown":"randomdotsizeEA","ratio_trial":500,"smaller_num":"1","larger_num":"2","correct_side":2,"subjID":"danielfelipecortesmora14","gender":"0","age":"10","school":"colegiocafam"},{"start_time":1551887846840,"click_time":1551887848337,"finger_time":1551887847717,"fix_duration":1061.4426946750214,"trial":12,"RT":877,"MT":620,"sideResp":2,"stimulus":"img/250/equaldotanddens/R/6_Ratio_250_L_6_R_24.png","xmouse":[786,786,786,786,786,786,786,786,786,786,786,786,786,786,786,786,786,786,786,786,786,786,786,786,786,786,786,786,786,786,786,786,786,786,786,786,786,786,786,787,792,808,825,859,876,903,913,941,966,977,990,1005,1030,1040,1051,1064,1077,1109,1124,1140,1154,1166,1183,1186,1188,1188,1188,1188,1188,1187,1185,1183,1179,1162,1153],"ymouse":[534,534,534,534,534,534,534,534,534,534,534,534,534,534,534,534,534,534,534,534,534,534,534,534,534,534,534,534,534,534,534,534,534,534,534,534,534,534,534,534,532,521,509,483,470,453,446,429,400,385,367,349,311,294,274,253,232,176,152,130,110,92,68,63,60,59,59,59,58,58,58,58,58,61,64],"timestamp_mouse":[18,38,57,77,98,117,136,158,176,196,217,237,257,277,296,316,338,357,377,396,416,436,457,478,497,517,536,557,577,597,618,637,658,676,697,718,737,756,777,797,817,836,856,877,897,916,936,956,976,997,1017,1036,1058,1076,1097,1116,1137,1158,1176,1196,1217,1236,1258,1276,1297,1316,1336,1357,1378,1398,1417,1436,1456,1476,1497],"xSR":741.5,"ySR":449.15000000000003,"xT1":424.9,"yT1":0,"xT2":1058.1,"yT2":0,"toosoon":0,"cond_shown":"equaldotanddens","ratio_trial":250,"smaller_num":"6","larger_num":"24","correct_side":2,"subjID":"danielfelipecortesmora14","gender":"0","age":"10","school":"colegiocafam"},{"start_time":1551887851322,"click_time":1551887854917,"finger_time":1551887852138,"fix_duration":844.2695058070532,"trial":13,"RT":816,"MT":2779,"sideResp":2,"stimulus":"img/900/equaldotsize/R/9_Ratio_900_L_18_R_20.png","xmouse":[786,786,786,786,786,786,786,786,786,786,786,786,786,786,786,786,786,786,786,786,786,786,786,786,786,787,788,790,791,791,791,791,791,791,791,792,793,796,798,801,801,799,795,794,794,794,795,796,798,798,799,801,803,807,815,819,824,829,834,843,849,854,861,877,884,892,903,911,928,934,938,941,942,943,943,943,944,947,952,974,983,989,996,1009,1015,1021,1027,1036,1058,1066,1073,1077,1080,1083,1087,1090,1093,1098,1104,1112,1114,1115,1116,1116,1116,1116,1116,1116,1116,1116,1116,1116,1116,1116,1116,1116,1116,1116,1116,1116,1116,1116,1116,1116,1116,1116,1116,1116,1116,1116,1116,1116,1116,1116,1117,1117,1117,1117,1117,1117,1117,1117,1117,1117,1117,1117,1117,1117,1117,1117,1117,1117,1117,1117,1117,1117,1117,1117,1117,1117,1117,1117,1117,1117,1117,1117,1117,1117,1117,1117,1117,1117,1117,1117,1117,1117,1117,1117,1117,1120],"ymouse":[510,510,510,510,510,510,510,510,510,510,510,510,510,510,510,510,510,510,510,510,510,510,510,510,510,507,504,502,499,499,499,499,499,499,499,496,491,486,478,459,447,434,419,407,404,400,398,397,395,394,393,391,387,379,364,354,343,333,324,310,302,294,284,263,252,241,225,212,187,177,172,168,166,165,165,165,164,161,158,152,149,147,147,147,147,147,147,146,146,145,143,143,141,140,139,137,135,133,129,123,121,120,119,119,119,119,119,119,119,119,119,119,119,119,119,119,119,119,119,119,119,119,119,119,119,119,119,119,119,119,119,117,117,114,111,110,110,110,110,110,110,110,110,110,110,110,110,110,110,110,110,110,110,110,110,110,110,110,110,110,110,110,110,110,110,110,110,110,110,110,110,110,110,110,110,110,110,108,102,93],"timestamp_mouse":[15,40,54,75,96,114,134,155,175,194,214,236,254,275,295,315,334,355,374,396,414,435,456,476,495,514,535,555,575,594,614,635,656,675,695,714,735,755,774,794,816,835,856,874,894,914,934,954,975,994,1015,1034,1054,1074,1094,1115,1134,1154,1174,1194,1216,1234,1254,1275,1294,1314,1334,1354,1376,1394,1415,1434,1455,1475,1495,1514,1535,1554,1574,1595,1615,1635,1656,1675,1694,1714,1734,1754,1775,1794,1814,1836,1855,1874,1894,1914,1935,1954,1974,1995,2014,2034,2054,2074,2095,2114,2134,2155,2175,2194,2215,2234,2255,2275,2295,2314,2335,2355,2375,2394,2414,2436,2455,2476,2495,2515,2535,2555,2575,2594,2615,2635,2654,2674,2695,2714,2735,2756,2775,2796,2816,2835,2855,2874,2895,2914,2935,2955,2976,2994,3014,3034,3055,3075,3096,3114,3134,3156,3175,3195,3216,3235,3254,3274,3294,3314,3335,3355,3374,3395,3414,3434,3455,3475,3496,3514,3534,3554,3575,3594],"xSR":741.5,"ySR":449.15000000000003,"xT1":424.9,"yT1":0,"xT2":1058.1,"yT2":0,"toosoon":0,"cond_shown":"equaldotsize","ratio_trial":900,"smaller_num":"18","larger_num":"20","correct_side":2,"subjID":"danielfelipecortesmora14","gender":"0","age":"10","school":"colegiocafam"},{"start_time":1551887857699,"click_time":1551887859256,"finger_time":1551887858497,"fix_duration":501.9226069282218,"trial":14,"RT":798,"MT":759,"sideResp":1,"stimulus":"img/500/equaldotsize/L/10_Ratio_500_L_4_R_2.png","xmouse":[747,747,747,747,747,747,747,747,747,747,747,747,747,747,747,747,747,747,747,747,747,747,747,747,747,747,747,747,747,747,747,747,747,747,747,747,747,747,744,732,720,706,696,691,668,654,637,618,601,574,569,566,566,564,552,544,540,538,538,538,538,536,533,531,530,530,530,525,513,494,493,493,491,487,470,470,469,469],"ymouse":[518,518,518,518,518,518,518,518,518,518,518,518,518,518,518,518,518,518,518,518,518,518,518,518,518,518,518,518,518,518,518,518,518,518,518,518,518,518,515,496,480,462,447,439,408,395,381,367,356,335,328,321,313,305,271,255,244,236,230,219,211,204,194,187,185,185,184,184,184,183,182,177,165,150,116,110,103,95],"timestamp_mouse":[33,38,58,77,99,119,138,157,177,197,219,237,257,277,297,319,337,358,377,398,418,437,458,478,499,517,539,557,578,599,619,639,659,678,697,718,738,759,778,798,817,837,857,878,899,917,937,958,978,998,1017,1037,1058,1078,1098,1117,1138,1158,1178,1198,1217,1239,1257,1278,1298,1319,1337,1359,1379,1398,1417,1437,1457,1478,1497,1518,1537,1557],"xSR":741.5,"ySR":449.15000000000003,"xT1":424.9,"yT1":0,"xT2":1058.1,"yT2":0,"toosoon":0,"cond_shown":"equaldotsize","ratio_trial":500,"smaller_num":"2","larger_num":"4","correct_side":1,"subjID":"danielfelipecortesmora14","gender":"0","age":"10","school":"colegiocafam"},{"start_time":1551887860671,"click_time":1551887862457,"finger_time":1551887861516,"fix_duration":472.45298310998993,"trial":15,"RT":845,"MT":941,"sideResp":1,"stimulus":"img/500/randomdotsizeEA/L/7_Ratio_500_L_10_R_5.png","xmouse":[797,797,797,797,797,797,797,797,797,797,797,797,797,797,797,797,797,797,797,797,797,797,797,797,797,797,797,797,797,797,797,797,797,797,797,797,797,797,803,807,809,812,811,805,796,783,764,757,754,752,752,752,752,752,753,754,756,756,756,756,756,756,756,756,756,751,721,704,690,674,657,625,612,596,584,567,561,546,539,531,526,521,519,518,515,512,507,496,488,479],"ymouse":[541,541,541,541,541,541,541,541,541,541,541,541,541,541,541,541,541,541,541,541,541,541,541,541,541,541,541,541,541,541,541,541,541,541,541,541,541,532,518,504,487,451,430,409,392,365,337,329,325,323,323,322,321,319,316,313,305,302,301,300,300,299,299,299,296,293,280,270,260,250,238,214,205,194,187,179,173,165,160,154,150,145,143,141,139,134,128,114,102,88],"timestamp_mouse":[10,39,46,66,86,106,126,147,165,185,206,227,246,266,286,307,326,347,366,385,406,425,447,466,486,507,526,546,565,585,605,626,647,666,686,706,726,746,765,787,807,826,845,866,886,906,926,945,966,985,1006,1026,1045,1066,1086,1105,1126,1145,1166,1186,1206,1226,1245,1266,1285,1305,1327,1345,1365,1385,1405,1426,1445,1466,1485,1505,1525,1545,1566,1585,1605,1626,1645,1665,1685,1706,1725,1745,1765,1785],"xSR":741.5,"ySR":449.15000000000003,"xT1":424.9,"yT1":0,"xT2":1058.1,"yT2":0,"toosoon":0,"cond_shown":"randomdotsizeEA","ratio_trial":500,"smaller_num":"5","larger_num":"10","correct_side":1,"subjID":"danielfelipecortesmora14","gender":"0","age":"10","school":"colegiocafam"},{"start_time":1551887869608,"click_time":1551887871316,"finger_time":1551887870418,"fix_duration":250,"trial":16,"RT":810,"MT":898,"sideResp":1,"stimulus":"img/250/equaldotanddens/L/1_Ratio_250_L_8_R_2.png","xmouse":[773,773,773,773,773,773,773,773,773,773,773,773,773,773,773,773,773,773,773,773,773,773,773,773,773,773,773,773,773,773,773,773,773,773,773,773,773,773,772,768,738,707,660,602,481,426,372,319,262,262,262,262,262,262,262,262,262,262,262,262,262,262,262,262,262,262,262,262,262,262,262,356,362,373,388,389,389,389,389,389,389,389,389,390,419,436],"ymouse":[471,471,471,471,471,471,471,471,471,471,471,471,471,471,471,471,471,471,471,471,471,471,471,471,471,471,471,471,471,471,471,471,471,471,471,471,471,471,471,470,449,428,394,354,250,194,134,73,10,10,10,10,10,10,10,10,10,10,10,10,10,10,10,10,10,10,10,10,10,10,10,2,8,19,39,42,43,44,44,44,44,44,44,45,46,46],"timestamp_mouse":[11,38,48,70,88,109,129,148,169,189,208,230,248,268,290,310,328,350,368,388,410,430,448,470,488,508,529,548,569,588,610,628,649,668,690,708,728,749,769,788,810,828,849,869,889,908,928,949,969,988,1008,1029,1048,1068,1088,1108,1128,1148,1169,1189,1209,1229,1248,1268,1288,1309,1329,1349,1368,1389,1408,1428,1448,1469,1489,1508,1529,1548,1569,1589,1608,1629,1649,1669,1689,1708],"xSR":741.5,"ySR":449.15000000000003,"xT1":424.9,"yT1":0,"xT2":1058.1,"yT2":0,"toosoon":0,"cond_shown":"equaldotanddens","ratio_trial":250,"smaller_num":"2","larger_num":"8","correct_side":1,"subjID":"danielfelipecortesmora14","gender":"0","age":"10","school":"colegiocafam"},{"start_time":1551887874115,"click_time":1551887876637,"finger_time":1551887874797,"fix_duration":1435.0598832196624,"trial":17,"RT":682,"MT":1840,"sideResp":2,"stimulus":"img/900/equaldotsize/L/10_Ratio_900_L_20_R_18.png","xmouse":[772,772,772,772,772,772,772,772,772,772,772,772,772,772,772,772,772,772,772,772,772,772,772,772,772,772,772,772,772,772,772,772,771,767,714,683,658,644,639,636,636,636,640,643,687,749,812,853,877,894,895,896,897,902,904,905,905,905,905,905,905,906,907,910,922,930,936,940,943,944,944,946,948,968,1073,1095,1099,1101,1102,1106,1115,1115,1115,1115,1115,1115,1115,1115,1114,1114,1111,1109,1108,1108,1107,1107,1107,1107,1107,1107,1107,1107,1107,1107,1105,1099,1093,1082,1073,1069,1069,1067,1065,1065,1065,1065,1064,1064,1064,1064,1064,1064,1064,1064,1064,1066,1067],"ymouse":[538,538,538,538,538,538,538,538,538,538,538,538,538,538,538,538,538,538,538,538,538,538,538,538,538,538,538,538,538,538,538,538,536,535,520,510,501,495,491,487,485,483,479,477,465,459,451,445,440,427,420,411,403,390,379,374,370,364,360,348,342,335,324,308,284,271,262,251,244,238,232,231,229,224,214,209,207,205,201,198,190,188,185,183,182,182,182,182,180,180,173,169,166,164,162,162,162,162,162,162,162,162,162,162,160,157,154,148,142,136,133,130,126,125,125,125,125,125,125,125,125,125,120,117,112,101,97],"timestamp_mouse":[9,31,41,61,82,101,122,141,161,181,202,223,241,261,282,301,321,343,362,382,402,422,443,463,482,503,522,542,561,582,603,621,641,663,682,702,721,741,761,782,801,822,841,861,882,901,921,941,961,983,1001,1022,1042,1062,1081,1101,1121,1141,1161,1181,1202,1222,1241,1261,1283,1302,1321,1342,1361,1382,1401,1421,1441,1462,1481,1501,1522,1541,1561,1581,1601,1621,1642,1661,1682,1702,1723,1742,1762,1781,1801,1821,1842,1862,1883,1902,1923,1942,1961,1982,2003,2022,2041,2061,2082,2101,2123,2141,2161,2183,2202,2223,2243,2261,2282,2302,2322,2343,2362,2383,2402,2422,2442,2461,2481,2502,2522],"xSR":741.5,"ySR":449.15000000000003,"xT1":424.9,"yT1":0,"xT2":1058.1,"yT2":0,"toosoon":0,"cond_shown":"equaldotsize","ratio_trial":900,"smaller_num":"18","larger_num":"20","correct_side":1,"subjID":"danielfelipecortesmora14","gender":"0","age":"10","school":"colegiocafam"},{"start_time":1551887880578,"click_time":1551887881798,"finger_time":1551887881316,"fix_duration":1078.4249172730263,"trial":18,"RT":738,"MT":482,"sideResp":2,"stimulus":"img/500/equaldotsize/R/2_Ratio_500_L_3_R_6.png","xmouse":[804,804,804,804,804,804,804,804,804,804,804,804,804,804,804,804,804,804,804,804,804,804,804,804,804,804,804,804,804,804,804,804,804,803,802,801,801,891,995,1101,1113,1123,1112,1110,1110,1110,1110,1110,1110,1110,1110,1110,1110,1110,1111,1113,1114,1116,1117,1120,1123,1128],"ymouse":[544,544,544,544,544,544,544,544,544,544,544,544,544,544,544,544,544,544,544,544,544,544,544,544,544,544,544,544,544,544,544,544,544,544,544,541,539,482,438,386,376,342,288,274,264,259,255,254,254,252,248,239,223,217,212,206,193,183,170,155,126,83],"timestamp_mouse":[4,32,38,58,80,99,118,139,159,179,198,219,239,258,279,298,318,340,360,378,398,418,438,459,480,498,518,539,559,579,598,620,638,659,678,698,718,738,759,778,798,819,839,858,878,898,919,939,958,978,999,1018,1038,1058,1078,1098,1120,1138,1159,1180,1198,1219],"xSR":741.5,"ySR":449.15000000000003,"xT1":424.9,"yT1":0,"xT2":1058.1,"yT2":0,"toosoon":0,"cond_shown":"equaldotsize","ratio_trial":500,"smaller_num":"3","larger_num":"6","correct_side":2,"subjID":"danielfelipecortesmora14","gender":"0","age":"10","school":"colegiocafam"},{"start_time":1551887889255,"click_time":1551887891058,"finger_time":1551887890196,"fix_duration":1455.5180968063776,"trial":19,"RT":941,"MT":862,"sideResp":2,"stimulus":"img/500/randomdotsizeEA/R/3_Ratio_500_L_10_R_20.png","xmouse":[800,800,800,800,800,800,800,800,800,800,800,800,800,800,800,800,800,800,800,800,800,800,800,800,800,800,800,800,800,800,800,800,800,800,800,800,800,800,800,800,800,801,806,818,823,829,839,857,882,897,914,933,966,976,983,984,986,987,995,1004,1018,1032,1051,1055,1057,1059,1060,1062,1063,1066,1070,1075,1087,1092,1098,1101,1105,1109,1111,1112,1112,1112,1112,1112,1112,1112,1112,1111,1109,1105,1102],"ymouse":[513,513,513,513,513,513,513,513,513,513,513,513,513,513,513,513,513,513,513,513,513,513,513,513,513,513,513,513,513,513,513,513,513,513,513,513,513,513,513,513,513,513,509,498,494,487,473,451,416,397,375,353,317,309,305,304,304,303,298,290,278,262,235,228,224,220,218,214,210,206,198,189,169,159,151,145,137,128,125,122,122,122,122,122,122,121,121,118,113,104,96],"timestamp_mouse":[9,21,42,67,81,103,121,141,163,181,203,222,242,263,282,301,321,342,362,382,401,423,442,462,481,502,522,541,561,582,602,621,641,661,681,702,722,743,761,781,802,821,841,862,882,901,921,941,961,981,1002,1021,1042,1061,1081,1102,1122,1143,1162,1181,1202,1223,1242,1261,1281,1301,1322,1342,1361,1381,1401,1423,1442,1461,1482,1502,1523,1542,1561,1581,1601,1622,1642,1662,1682,1702,1722,1741,1762,1783,1803],"xSR":741.5,"ySR":449.15000000000003,"xT1":424.9,"yT1":0,"xT2":1058.1,"yT2":0,"toosoon":0,"cond_shown":"randomdotsizeEA","ratio_trial":500,"smaller_num":"10","larger_num":"20","correct_side":2,"subjID":"danielfelipecortesmora14","gender":"0","age":"10","school":"colegiocafam"},{"start_time":1551887892377,"click_time":1551887893716,"finger_time":1551887893257,"fix_duration":559.5682492208618,"trial":20,"RT":880,"MT":459,"sideResp":2,"stimulus":"img/500/equaldotanddens/R/3_Ratio_500_L_10_R_20.png","xmouse":[781,781,781,781,781,781,781,781,781,781,780,780,780,780,780,780,780,780,780,780,780,780,780,780,780,780,780,780,780,780,780,780,780,780,780,780,780,780,780,780,780,789,819,856,877,907,928,952,975,997,1007,1018,1023,1031,1041,1055,1065,1072,1078,1084,1093,1104,1109,1115,1120,1129,1135],"ymouse":[529,529,529,529,529,529,529,529,529,529,529,529,529,529,529,529,529,529,529,529,529,529,529,529,529,529,529,529,529,529,529,529,529,529,529,529,529,529,529,529,529,520,495,467,453,430,413,393,370,347,336,320,313,302,290,268,251,241,227,216,194,167,158,145,133,110,97],"timestamp_mouse":[36,39,59,80,99,119,139,159,181,200,219,241,261,279,301,320,339,360,379,400,419,441,459,479,499,521,539,560,579,599,619,641,660,679,699,719,739,759,781,799,820,841,860,880,899,920,939,959,980,999,1019,1041,1059,1079,1100,1120,1139,1159,1180,1200,1219,1240,1259,1281,1300,1320,1339],"xSR":741.5,"ySR":449.15000000000003,"xT1":424.9,"yT1":0,"xT2":1058.1,"yT2":0,"toosoon":0,"cond_shown":"equaldotanddens","ratio_trial":500,"smaller_num":"10","larger_num":"20","correct_side":2,"subjID":"danielfelipecortesmora14","gender":"0","age":"10","school":"colegiocafam"},{"start_time":1551887895301,"click_time":1551887896797,"finger_time":1551887895377,"fix_duration":283.6521134007132,"trial":21,"RT":76,"MT":1420,"sideResp":2,"stimulus":"img/250/equaldotanddens/R/4_Ratio_250_L_3_R_12.png","xmouse":[779,779,776,776,775,775,775,775,775,775,775,775,775,775,775,775,775,775,775,775,775,775,775,775,775,776,779,783,790,794,800,801,803,805,807,808,808,809,809,809,809,809,809,809,809,809,816,822,835,861,877,900,927,948,973,995,1003,1011,1019,1042,1053,1060,1065,1074,1083,1085,1086,1087,1087,1087,1087,1087,1089,1091,1100],"ymouse":[529,529,544,550,554,554,554,554,554,554,554,554,554,554,554,554,554,554,554,554,554,554,554,554,554,553,550,545,538,534,526,524,522,519,515,514,513,512,512,512,512,512,512,512,512,512,504,498,483,447,424,393,359,331,295,263,253,241,233,215,205,196,188,172,148,140,135,132,131,130,129,128,122,115,95],"timestamp_mouse":[35,35,55,76,96,115,136,155,176,197,216,235,255,276,297,315,337,357,377,395,416,436,456,476,497,516,535,557,576,595,615,637,657,675,696,716,735,755,777,796,816,836,856,877,895,916,936,955,976,996,1016,1037,1055,1075,1095,1116,1135,1157,1177,1196,1215,1236,1256,1275,1296,1315,1335,1356,1377,1395,1416,1436,1455,1476,1495],"xSR":741.5,"ySR":449.15000000000003,"xT1":424.9,"yT1":0,"xT2":1058.1,"yT2":0,"toosoon":0,"cond_shown":"equaldotanddens","ratio_trial":250,"smaller_num":"3","larger_num":"12","correct_side":2,"subjID":"danielfelipecortesmora14","gender":"0","age":"10","school":"colegiocafam"},{"start_time":1551887898987,"click_time":1551887902278,"finger_time":1551887899817,"fix_duration":950.399601699429,"trial":22,"RT":830,"MT":2461,"sideResp":1,"stimulus":"img/250/randomdotsizeEA/R/11_Ratio_250_L_3_R_12.png","xmouse":[817,817,817,817,817,817,817,817,817,817,817,817,817,817,817,817,817,817,817,817,817,817,817,817,817,817,817,817,817,817,817,817,817,817,817,817,817,817,817,818,838,856,870,885,899,911,912,912,911,908,901,898,898,898,897,906,913,920,926,929,929,925,919,912,908,902,890,883,872,851,804,769,727,696,659,608,590,578,573,569,561,556,550,545,540,535,534,533,532,531,529,528,528,526,526,524,522,522,522,522,522,522,522,522,522,522,522,521,520,517,516,516,516,516,516,516,516,516,516,516,516,516,516,516,516,517,518,518,518,519,519,519,519,519,519,519,519,519,519,519,519,519,519,519,519,519,519,519,519,519,519,519,519,519,519,519,519,519,519,519,519,519,519,519,519],"ymouse":[494,494,494,494,494,494,494,494,494,494,494,494,494,494,494,494,494,494,494,494,494,494,494,494,494,494,494,494,494,494,494,494,494,494,494,494,494,494,494,494,481,466,447,426,406,384,378,377,375,375,373,373,373,373,372,355,343,329,314,304,296,289,288,286,285,285,283,282,281,274,255,240,226,217,205,189,180,174,171,168,163,160,156,152,148,140,139,136,134,131,128,127,126,125,124,121,120,120,120,120,120,120,120,120,120,120,120,118,115,111,109,105,104,104,104,104,104,104,104,104,103,103,103,103,103,102,101,101,100,100,100,100,100,100,100,100,100,100,100,100,100,100,100,100,100,100,100,100,100,100,100,100,100,100,100,100,100,100,100,100,100,100,100,100,99],"timestamp_mouse":[15,34,49,69,91,109,130,149,170,191,211,230,249,271,289,310,330,349,370,390,409,431,449,471,490,510,531,549,571,589,609,630,650,669,691,710,731,749,770,790,810,830,849,870,889,910,929,949,969,989,1009,1029,1050,1070,1090,1110,1129,1150,1169,1189,1209,1230,1250,1269,1289,1310,1329,1349,1369,1389,1410,1429,1450,1470,1490,1510,1529,1549,1570,1590,1612,1630,1650,1671,1690,1710,1730,1752,1772,1792,1811,1831,1850,1871,1892,1911,1930,1951,1971,1990,2011,2031,2051,2070,2091,2111,2132,2152,2171,2191,2211,2230,2251,2272,2292,2311,2330,2351,2370,2390,2412,2432,2450,2470,2491,2510,2530,2551,2570,2590,2610,2631,2652,2671,2692,2710,2731,2751,2770,2791,2811,2830,2851,2871,2891,2910,2930,2951,2971,2991,3011,3031,3051,3070,3091,3111,3131,3151,3171,3191,3212,3231,3250,3271,3291],"xSR":741.5,"ySR":449.15000000000003,"xT1":424.9,"yT1":0,"xT2":1058.1,"yT2":0,"toosoon":0,"cond_shown":"randomdotsizeEA","ratio_trial":250,"smaller_num":"3","larger_num":"12","correct_side":2,"subjID":"danielfelipecortesmora14","gender":"0","age":"10","school":"colegiocafam"},{"start_time":1551887906372,"click_time":1551887908039,"finger_time":1551887906978,"fix_duration":254.55976689144154,"trial":23,"RT":606,"MT":1061,"sideResp":2,"stimulus":"img/750/randomdotsizeEA/L/6_Ratio_750_L_24_R_18.png","xmouse":[753,753,753,753,753,753,753,753,753,753,753,753,753,754,754,754,754,755,755,755,755,755,755,758,760,762,764,767,771,775,785,790,800,802,804,805,808,810,811,811,814,857,871,881,889,892,894,900,904,909,911,921,923,926,927,929,931,943,952,960,971,990,996,1000,1005,1010,1028,1040,1066,1083,1093,1132,1146,1159,1174,1188,1211,1216,1221,1222,1222,1219,1190,1153],"ymouse":[484,484,484,484,484,484,484,484,484,484,484,484,484,484,484,484,484,484,484,484,484,484,484,482,480,478,476,473,468,463,449,441,426,422,418,414,407,403,401,399,392,347,328,316,307,303,301,293,288,284,280,269,266,263,262,260,257,249,243,238,232,221,218,215,213,211,202,195,180,170,165,135,123,112,98,83,52,42,34,32,31,30,41,64],"timestamp_mouse":[9,40,47,65,86,107,127,145,167,185,206,227,246,265,286,305,326,345,366,386,406,426,445,465,485,505,525,545,565,587,606,625,645,666,686,707,726,751,765,785,805,826,846,865,885,905,926,947,965,985,1005,1025,1045,1066,1086,1105,1126,1145,1165,1187,1206,1226,1245,1265,1285,1307,1326,1345,1365,1386,1406,1425,1445,1465,1485,1505,1525,1546,1565,1586,1607,1626,1646,1666],"xSR":741.5,"ySR":449.15000000000003,"xT1":424.9,"yT1":0,"xT2":1058.1,"yT2":0,"toosoon":0,"cond_shown":"randomdotsizeEA","ratio_trial":750,"smaller_num":"18","larger_num":"24","correct_side":1,"subjID":"danielfelipecortesmora14","gender":"0","age":"10","school":"colegiocafam"},{"start_time":1551887910645,"click_time":1551887912197,"finger_time":1551887911498,"fix_duration":265.1361675756405,"trial":24,"RT":853,"MT":699,"sideResp":1,"stimulus":"img/750/equaldotanddens/L/9_Ratio_750_L_4_R_3.png","xmouse":[810,810,810,810,810,809,809,808,808,807,807,806,806,806,806,806,806,806,811,812,813,813,813,814,814,815,815,816,816,816,816,816,816,816,816,816,816,816,817,817,815,807,777,765,752,742,732,706,692,679,665,653,643,626,621,608,604,588,583,575,565,550,515,493,476,461,452,449,449,449,449,449,453,455,458,463,465,473],"ymouse":[512,512,512,512,512,513,513,514,514,514,515,515,515,515,515,515,515,515,516,517,517,517,517,517,517,517,517,517,517,517,517,517,517,517,517,517,517,514,507,499,488,473,437,416,389,366,342,289,271,252,237,226,217,202,196,183,179,172,171,169,168,166,157,152,148,143,141,140,140,140,139,137,123,119,114,110,107,98],"timestamp_mouse":[14,36,53,72,93,112,133,153,173,192,213,233,253,274,292,313,332,352,373,393,413,432,452,472,493,512,533,552,572,592,612,632,653,673,693,713,732,752,773,794,812,834,853,873,892,912,932,953,972,992,1014,1032,1053,1072,1093,1113,1133,1153,1172,1193,1213,1232,1253,1272,1293,1313,1332,1352,1372,1394,1412,1432,1452,1472,1493,1512,1532,1552],"xSR":741.5,"ySR":449.15000000000003,"xT1":424.9,"yT1":0,"xT2":1058.1,"yT2":0,"toosoon":0,"cond_shown":"equaldotanddens","ratio_trial":750,"smaller_num":"3","larger_num":"4","correct_side":1,"subjID":"danielfelipecortesmora14","gender":"0","age":"10","school":"colegiocafam"},{"start_time":1551887919250,"click_time":1551887920898,"finger_time":1551887920057,"fix_duration":250,"trial":25,"RT":807,"MT":841,"sideResp":2,"stimulus":"img/900/equaldotanddens/R/5_Ratio_900_L_9_R_10.png","xmouse":[790,790,790,790,790,790,790,790,790,790,790,790,790,790,790,790,790,790,790,790,790,790,790,790,790,790,790,790,790,790,790,792,794,797,799,800,802,804,809,813,817,822,832,836,837,838,839,840,843,845,849,854,862,868,873,887,910,950,986,998,1011,1018,1030,1043,1052,1056,1077,1092,1094,1096,1100,1101,1104,1104,1104,1104,1104,1104,1103,1103,1102,1101,1088],"ymouse":[494,494,494,494,494,494,494,494,494,494,494,494,494,494,494,494,494,494,494,494,494,494,494,494,494,494,494,494,494,494,494,494,494,493,493,491,490,485,471,459,445,426,390,377,367,356,344,319,311,303,296,289,267,254,242,228,218,202,187,181,176,174,170,167,165,165,160,153,150,143,134,127,116,113,112,111,109,107,104,103,101,100,97],"timestamp_mouse":[15,32,47,69,88,108,127,147,168,187,207,228,248,268,289,307,327,347,367,387,407,428,447,469,487,507,527,548,568,589,607,627,648,667,689,707,728,747,767,788,807,827,847,868,887,907,927,947,968,987,1009,1027,1048,1067,1087,1107,1128,1148,1167,1187,1208,1228,1247,1267,1287,1309,1329,1348,1367,1388,1408,1427,1448,1468,1487,1507,1528,1547,1568,1588,1607,1628,1647],"xSR":741.5,"ySR":449.15000000000003,"xT1":424.9,"yT1":0,"xT2":1058.1,"yT2":0,"toosoon":0,"cond_shown":"equaldotanddens","ratio_trial":900,"smaller_num":"9","larger_num":"10","correct_side":2,"subjID":"danielfelipecortesmora14","gender":"0","age":"10","school":"colegiocafam"},{"start_time":1551887934127,"click_time":1551887935557,"finger_time":1551887934997,"fix_duration":626.6954136591302,"trial":26,"RT":870,"MT":560,"sideResp":1,"stimulus":"img/750/equaldotsize/L/8_Ratio_750_L_4_R_3.png","xmouse":[800,800,800,800,800,800,800,800,800,800,800,800,800,800,800,800,800,800,800,800,800,800,800,800,800,800,800,800,800,800,800,800,800,800,799,797,795,789,770,760,754,747,742,730,693,658,569,466,308,254,207,174,144,112,89,80,74,69,63,60,64,80,101,178,206,238,271,307,368,392,412,426],"ymouse":[512,512,512,512,512,512,512,512,512,512,512,512,512,512,512,512,512,512,512,512,512,512,512,512,512,512,512,512,512,512,512,512,512,512,512,512,512,510,500,491,484,473,466,454,439,435,440,440,440,440,440,433,421,396,365,343,319,296,274,238,220,202,188,134,115,97,81,69,54,51,48,47],"timestamp_mouse":[11,36,51,70,90,112,131,151,172,191,211,232,251,270,290,311,330,351,371,390,410,430,450,470,492,511,530,551,571,590,610,630,650,672,691,711,731,750,770,792,811,830,851,870,891,911,931,950,970,990,1010,1030,1050,1070,1090,1111,1131,1152,1171,1190,1210,1230,1251,1270,1291,1310,1331,1351,1371,1390,1411,1430],"xSR":741.5,"ySR":449.15000000000003,"xT1":424.9,"yT1":0,"xT2":1058.1,"yT2":0,"toosoon":0,"cond_shown":"equaldotsize","ratio_trial":750,"smaller_num":"3","larger_num":"4","correct_side":1,"subjID":"danielfelipecortesmora14","gender":"0","age":"10","school":"colegiocafam"},{"start_time":1551887938472,"click_time":1551887939517,"finger_time":1551887939338,"fix_duration":433.2079827190094,"trial":27,"RT":866,"MT":179,"sideResp":2,"stimulus":"img/500/randomdotsizeEA/R/15_Ratio_500_L_1_R_2.png","xmouse":[785,785,785,785,785,785,785,785,785,785,785,785,785,785,785,785,785,785,785,785,785,785,785,785,785,785,785,785,785,785,786,787,788,791,792,794,795,798,801,806,811,827,838,852,867,886,930,950,973,1005,1047,1104,1141],"ymouse":[509,509,509,509,509,509,509,510,510,510,510,510,510,510,510,510,510,510,510,510,510,510,510,510,510,510,510,510,511,511,511,511,511,511,511,510,509,506,503,497,491,470,455,435,414,390,332,308,281,242,193,109,56],"timestamp_mouse":[10,39,46,67,85,107,127,146,166,186,206,226,245,267,285,307,326,346,365,386,407,425,446,465,485,506,525,546,567,585,606,626,645,667,687,705,725,746,767,785,805,826,845,866,885,906,925,945,966,987,1005,1025,1045],"xSR":741.5,"ySR":449.15000000000003,"xT1":424.9,"yT1":0,"xT2":1058.1,"yT2":0,"toosoon":0,"cond_shown":"randomdotsizeEA","ratio_trial":500,"smaller_num":"1","larger_num":"2","correct_side":2,"subjID":"danielfelipecortesmora14","gender":"0","age":"10","school":"colegiocafam"},{"start_time":1551887941821,"click_time":1551887943698,"finger_time":1551887943119,"fix_duration":741.9631562740803,"trial":28,"RT":1298,"MT":579,"sideResp":1,"stimulus":"img/500/randomdotsizeEA/L/11_Ratio_500_L_12_R_6.png","xmouse":[791,791,791,791,791,791,791,791,791,791,791,791,791,791,791,791,791,791,791,791,791,791,791,791,791,791,791,791,791,791,791,791,791,791,791,791,791,791,791,791,791,788,787,785,784,784,784,783,783,782,781,779,774,767,763,760,757,756,756,756,756,756,755,751,737,708,631,577,484,444,407,382,360,327,314,304,302,300,300,304,311,322,339,379,405,427,450,454,461,461,461,461,461,461],"ymouse":[517,517,517,517,517,517,517,517,517,517,517,517,517,517,517,517,517,517,517,517,517,517,517,517,517,517,517,517,517,517,517,517,517,517,517,517,517,517,517,517,517,517,517,517,517,517,517,516,516,515,514,512,510,509,509,509,509,509,509,509,509,509,509,508,504,496,471,446,411,400,387,376,364,336,322,306,295,285,271,266,259,249,235,203,183,166,147,143,132,125,117,109,102,96],"timestamp_mouse":[16,39,57,76,97,116,136,157,176,198,216,237,258,277,297,317,336,356,376,396,417,436,457,478,498,517,538,556,576,596,617,637,657,677,696,717,737,757,777,797,816,836,857,877,897,916,938,957,977,997,1017,1036,1058,1077,1096,1116,1137,1156,1177,1197,1217,1236,1256,1276,1298,1317,1336,1357,1377,1396,1416,1437,1457,1477,1496,1516,1536,1556,1577,1596,1617,1637,1656,1677,1697,1717,1737,1757,1776,1798,1816,1836,1858,1877],"xSR":741.5,"ySR":449.15000000000003,"xT1":424.9,"yT1":0,"xT2":1058.1,"yT2":0,"toosoon":0,"cond_shown":"randomdotsizeEA","ratio_trial":500,"smaller_num":"6","larger_num":"12","correct_side":1,"subjID":"danielfelipecortesmora14","gender":"0","age":"10","school":"colegiocafam"},{"start_time":1551887945633,"click_time":1551887947157,"finger_time":1551887946439,"fix_duration":893.0094273450079,"trial":29,"RT":806,"MT":718,"sideResp":1,"stimulus":"img/500/equaldotanddens/L/8_Ratio_500_L_8_R_4.png","xmouse":[771,771,771,771,771,771,771,771,771,771,771,771,771,771,771,771,771,771,771,771,771,771,771,771,771,771,771,771,771,771,771,771,771,771,771,771,769,766,756,749,741,728,704,647,624,605,589,576,563,549,540,532,523,506,501,497,493,490,484,481,478,477,476,475,474,473,473,473,473,473,473,473,474,476,477,477,477],"ymouse":[475,475,475,475,475,475,475,475,475,475,475,475,475,475,475,475,475,475,475,475,475,475,475,475,475,475,475,475,475,475,475,475,475,475,475,476,476,475,469,464,458,449,441,422,414,408,399,391,382,366,355,343,329,295,279,265,249,224,190,175,162,152,147,144,141,139,138,136,132,131,127,125,121,115,109,103,95],"timestamp_mouse":[10,32,44,65,85,104,125,144,165,184,204,224,245,264,284,304,325,345,364,384,404,424,445,464,485,504,524,544,565,584,605,626,646,664,685,705,726,744,765,784,806,824,846,866,884,904,925,944,964,984,1005,1026,1044,1065,1085,1105,1125,1145,1164,1184,1205,1224,1246,1265,1284,1304,1325,1345,1365,1386,1405,1425,1445,1465,1484,1504,1524],"xSR":741.5,"ySR":449.15000000000003,"xT1":424.9,"yT1":0,"xT2":1058.1,"yT2":0,"toosoon":0,"cond_shown":"equaldotanddens","ratio_trial":500,"smaller_num":"4","larger_num":"8","correct_side":1,"subjID":"danielfelipecortesmora14","gender":"0","age":"10","school":"colegiocafam"},{"start_time":1551887949562,"click_time":1551887951079,"finger_time":1551887950318,"fix_duration":1122.4575070748317,"trial":30,"RT":756,"MT":761,"sideResp":1,"stimulus":"img/500/equaldotanddens/L/5_Ratio_500_L_4_R_2.png","xmouse":[788,788,788,788,788,788,788,788,788,788,788,788,788,788,788,788,788,788,788,788,788,788,788,788,788,788,788,788,788,788,788,788,790,794,799,804,812,819,825,831,834,833,830,822,814,807,792,764,742,733,722,681,661,641,621,604,577,567,560,557,554,547,543,539,534,529,518,508,500,493,488,478,474,472,469,467],"ymouse":[488,488,488,488,488,488,488,488,488,488,488,488,488,488,488,488,488,488,488,488,488,488,488,488,488,488,488,488,488,488,488,488,486,479,471,465,454,445,434,422,413,397,388,379,371,365,359,350,343,341,337,316,304,290,275,261,238,228,218,211,202,176,165,157,149,143,134,129,124,120,117,110,107,106,102,99],"timestamp_mouse":[16,35,55,75,96,115,136,157,175,195,216,235,255,277,295,317,336,356,376,395,415,435,455,475,495,515,535,555,575,596,617,635,656,677,696,715,735,756,775,795,816,835,855,876,895,917,936,955,976,995,1016,1036,1055,1075,1096,1116,1136,1155,1175,1195,1215,1235,1255,1276,1296,1315,1336,1357,1376,1395,1415,1435,1455,1475,1495,1516],"xSR":741.5,"ySR":449.15000000000003,"xT1":424.9,"yT1":0,"xT2":1058.1,"yT2":0,"toosoon":0,"cond_shown":"equaldotanddens","ratio_trial":500,"smaller_num":"2","larger_num":"4","correct_side":1,"subjID":"danielfelipecortesmora14","gender":"0","age":"10","school":"colegiocafam"},{"start_time":1551887953912,"click_time":1551887955159,"finger_time":1551887954797,"fix_duration":1471.1410158232657,"trial":31,"RT":885,"MT":362,"sideResp":2,"stimulus":"img/500/equaldotsize/R/2_Ratio_500_L_3_R_6.png","xmouse":[760,760,760,760,761,761,761,761,761,761,761,761,761,761,762,762,762,762,762,762,762,762,762,763,763,763,763,763,763,763,763,763,763,763,763,763,764,765,766,773,777,781,783,788,796,810,822,834,849,879,889,897,903,908,918,942,962,985,1017,1071,1094,1113,1131],"ymouse":[483,483,483,483,483,483,483,483,483,483,483,483,483,483,483,483,483,483,483,483,483,483,483,483,483,483,483,483,483,483,483,483,483,483,483,483,483,483,482,478,474,469,465,458,447,423,406,391,372,338,325,314,303,294,276,242,222,204,180,136,121,106,92],"timestamp_mouse":[10,32,45,66,87,106,126,147,166,186,206,225,247,265,286,305,325,345,365,386,406,426,447,465,487,507,525,546,567,586,606,626,645,665,685,705,725,746,767,785,806,827,845,866,885,905,926,946,965,986,1005,1026,1045,1065,1085,1107,1125,1146,1166,1186,1205,1226,1247],"xSR":741.5,"ySR":449.15000000000003,"xT1":424.9,"yT1":0,"xT2":1058.1,"yT2":0,"toosoon":0,"cond_shown":"equaldotsize","ratio_trial":500,"smaller_num":"3","larger_num":"6","correct_side":2,"subjID":"danielfelipecortesmora14","gender":"0","age":"10","school":"colegiocafam"},{"start_time":1551887956893,"click_time":1551887958579,"finger_time":1551887957959,"fix_duration":454.22280465203403,"trial":32,"RT":1066,"MT":620,"sideResp":2,"stimulus":"img/900/equaldotanddens/L/1_Ratio_900_L_10_R_9.png","xmouse":[784,784,784,784,784,784,784,784,784,784,784,784,784,784,783,783,783,783,783,783,783,783,783,783,783,783,783,783,783,783,783,783,783,783,783,783,783,783,783,783,783,783,783,783,783,789,798,809,817,824,826,830,833,842,845,872,887,904,919,935,951,984,997,1007,1019,1028,1029,1031,1031,1031,1032,1034,1034,1036,1037,1039,1040,1041,1043,1044,1048,1051,1053,1057,1059],"ymouse":[521,521,521,521,521,521,521,521,521,521,521,521,521,521,521,521,521,521,521,521,521,521,521,521,521,521,521,521,521,521,521,521,521,521,521,521,521,521,521,521,521,521,521,521,521,514,506,498,491,487,485,481,479,472,468,440,421,402,381,359,336,290,269,252,230,211,205,200,195,192,187,179,174,171,166,163,160,156,151,143,129,119,110,102,92],"timestamp_mouse":[10,39,46,65,86,104,125,146,164,184,204,226,244,265,285,304,325,346,365,385,406,424,444,464,485,504,525,544,566,584,604,626,644,666,684,704,726,744,764,786,804,825,844,865,885,904,925,944,965,986,1004,1025,1045,1066,1084,1104,1124,1145,1166,1185,1205,1226,1244,1266,1286,1305,1324,1345,1366,1384,1405,1424,1444,1465,1484,1505,1524,1544,1565,1584,1604,1624,1644,1666,1685],"xSR":741.5,"ySR":449.15000000000003,"xT1":424.9,"yT1":0,"xT2":1058.1,"yT2":0,"toosoon":0,"cond_shown":"equaldotanddens","ratio_trial":900,"smaller_num":"9","larger_num":"10","correct_side":1,"subjID":"danielfelipecortesmora14","gender":"0","age":"10","school":"colegiocafam"},{"start_time":1551887959750,"click_time":1551887966899,"finger_time":1551887960799,"fix_duration":250,"trial":33,"RT":1049,"MT":6100,"sideResp":2,"stimulus":"img/900/equaldotsize/L/8_Ratio_900_L_20_R_18.png","xmouse":[759,759,759,759,759,759,759,759,759,759,759,759,759,759,759,759,759,760,760,760,760,761,761,762,762,762,762,763,763,763,763,763,763,763,763,763,763,763,763,763,763,763,763,763,763,762,760,757,752,749,747,744,731,721,713,705,695,676,666,659,653,646,639,630,626,621,616,603,595,583,573,565,544,540,536,533,530,528,527,524,522,522,518,516,515,513,513,511,511,511,511,511,511,510,510,510,510,509,509,508,508,508,508,508,508,508,508,507,507,507,507,507,507,507,507,507,507,507,507,507,507,507,507,506,506,506,506,506,506,505,505,505,505,505,505,505,505,505,504,504,504,504,504,503,503,503,503,503,503,503,503,503,503,503,503,503,503,506,518,535,557,593,635,648,654,658,660,662,664,666,671,680,702,718,738,759,778,795,820,827,833,839,842,843,845,847,850,853,859,862,865,866,867,869,871,873,875,879,883,886,890,896,899,905,909,911,912,915,919,923,928,936,948,953,957,961,965,968,976,979,984,987,995,996,997,998,1000,1002,1004,1006,1009,1010,1016,1017,1018,1018,1018,1019,1021,1022,1024,1026,1026,1029,1030,1030,1030,1030,1030,1030,1031,1031,1035,1036,1037,1039,1039,1040,1040,1041,1041,1042,1044,1044,1045,1045,1045,1045,1045,1045,1045,1046,1047,1047,1048,1049,1049,1049,1050,1050,1050,1050,1050,1051,1051,1051,1051,1051,1051,1051,1051,1051,1051,1052,1052,1052,1052,1053,1053,1053,1053,1053,1053,1053,1053,1053,1053,1053,1053,1053,1053,1053,1053,1053,1053,1053,1053,1053,1053,1053,1053,1053,1053,1053,1053,1053,1053,1053,1053,1053,1053,1053,1054,1054,1054,1054,1054,1054,1054,1054,1054,1054,1054,1054,1055,1055,1055,1055,1055,1055,1056,1056,1056,1057,1057,1057,1057,1059],"ymouse":[523,523,523,523,523,523,523,523,523,523,523,523,523,523,523,523,523,523,522,522,522,522,521,519,518,517,517,516,516,516,515,515,514,514,514,512,512,512,512,512,512,512,512,509,508,505,503,498,492,489,487,485,474,470,464,459,451,435,426,419,411,402,391,378,373,366,360,343,334,323,314,305,287,282,278,272,268,259,253,245,238,230,200,190,181,173,167,160,159,159,159,159,158,156,155,153,152,151,147,146,146,146,145,142,141,139,138,134,134,133,133,133,133,133,133,133,133,133,132,132,130,130,129,128,128,128,127,126,125,124,123,123,122,121,121,121,121,121,119,119,118,117,116,115,115,114,114,113,113,113,112,112,112,112,112,112,111,111,113,125,143,175,205,211,212,213,213,213,213,213,211,208,199,191,181,170,159,149,127,119,109,99,91,88,84,79,72,67,57,52,48,47,46,43,43,42,41,40,39,38,38,38,38,38,38,38,38,38,38,38,38,38,38,38,38,37,36,36,35,34,34,34,32,32,32,32,32,31,31,31,31,31,30,30,30,30,30,30,30,30,30,30,30,30,30,30,30,30,30,30,30,30,31,31,32,32,33,33,33,33,34,34,34,35,36,36,36,36,36,36,36,37,37,38,38,38,39,39,40,40,40,40,40,40,40,40,40,40,41,41,41,41,41,42,42,42,42,43,43,43,43,43,43,43,43,43,43,43,43,43,43,43,43,43,43,43,43,43,43,43,43,43,43,43,43,43,43,43,43,43,44,46,50,51,53,54,54,55,56,57,57,58,58,59,61,61,62,63,63,63,63,63,64,65,65,65,65,65],"timestamp_mouse":[10,32,48,68,88,107,129,147,167,187,207,228,248,268,288,307,327,347,368,387,407,428,447,468,488,508,528,547,568,587,609,628,647,667,689,709,727,747,768,788,807,828,847,869,889,908,930,949,968,989,1008,1029,1049,1069,1089,1108,1129,1149,1170,1188,1208,1228,1248,1269,1289,1309,1328,1348,1368,1389,1408,1428,1448,1468,1489,1509,1529,1549,1568,1588,1610,1629,1648,1668,1689,1709,1729,1749,1769,1789,1810,1830,1849,1868,1889,1909,1929,1949,1968,1988,2010,2030,2049,2069,2088,2110,2130,2149,2168,2188,2210,2229,2248,2268,2288,2310,2330,2349,2369,2389,2408,2429,2449,2470,2490,2509,2529,2548,2569,2590,2608,2628,2650,2669,2690,2710,2728,2749,2769,2788,2809,2830,2849,2870,2890,2909,2929,2949,2969,2989,3010,3030,3050,3069,3089,3108,3129,3148,3168,3189,3210,3230,3250,3269,3289,3310,3329,3349,3369,3390,3410,3428,3448,3468,3489,3509,3530,3548,3569,3588,3610,3630,3649,3668,3690,3710,3729,3749,3770,3789,3809,3829,3849,3868,3889,3910,3929,3949,3968,3989,4009,4030,4049,4069,4090,4108,4129,4148,4169,4189,4209,4230,4250,4270,4288,4310,4329,4348,4368,4389,4408,4428,4448,4468,4489,4510,4530,4549,4568,4590,4608,4628,4649,4670,4689,4708,4728,4748,4770,4789,4809,4829,4848,4869,4889,4909,4930,4950,4969,4989,5009,5029,5048,5070,5089,5109,5129,5149,5169,5188,5209,5228,5248,5269,5289,5310,5329,5349,5369,5389,5409,5430,5449,5470,5490,5509,5529,5549,5569,5588,5610,5630,5649,5669,5688,5708,5728,5749,5770,5790,5809,5829,5849,5869,5889,5909,5928,5949,5969,5990,6008,6029,6050,6069,6090,6109,6128,6149,6168,6189,6209,6230,6250,6269,6288,6309,6330,6349,6369,6389,6408,6428,6449,6469,6489,6509,6529,6550,6570,6589,6609,6629,6650,6668,6688,6709,6729,6750,6769,6788,6808,6829,6848,6868,6888,6910,6929,6951,6968,6989,7009,7029,7050,7069,7089,7109,7130,7148],"xSR":741.5,"ySR":449.15000000000003,"xT1":424.9,"yT1":0,"xT2":1058.1,"yT2":0,"toosoon":0,"cond_shown":"equaldotsize","ratio_trial":900,"smaller_num":"18","larger_num":"20","correct_side":1,"subjID":"danielfelipecortesmora14","gender":"0","age":"10","school":"colegiocafam"},{"start_time":1551887973085,"click_time":1551887974480,"finger_time":1551887973838,"fix_duration":963.7428844548404,"trial":34,"RT":753,"MT":642,"sideResp":1,"stimulus":"img/250/equaldotsize/L/7_Ratio_250_L_8_R_2.png","xmouse":[784,784,784,784,784,784,784,784,784,784,784,784,784,784,784,784,784,784,784,784,784,784,784,784,784,784,784,784,784,784,784,784,784,779,778,769,756,749,741,731,687,630,547,484,459,451,451,451,450,444,428,421,414,410,405,404,404,403,402,401,397,397,397,397,397,406,411,419,424,434],"ymouse":[490,490,490,490,490,490,490,490,490,490,490,490,490,490,490,490,490,490,490,490,490,490,490,490,490,490,490,490,490,490,490,486,483,477,475,466,451,441,430,417,392,369,333,314,301,289,286,284,280,270,241,228,215,204,190,174,166,156,148,141,132,130,129,127,123,111,104,97,91,84],"timestamp_mouse":[14,34,54,75,93,113,134,155,175,193,214,234,253,275,294,314,334,354,374,394,415,434,454,475,493,515,533,554,575,593,614,635,654,673,695,713,735,753,773,794,814,833,854,873,893,913,933,954,974,994,1014,1033,1053,1075,1094,1114,1133,1154,1175,1195,1214,1233,1254,1275,1295,1314,1335,1353,1374,1395],"xSR":741.5,"ySR":449.15000000000003,"xT1":424.9,"yT1":0,"xT2":1058.1,"yT2":0,"toosoon":0,"cond_shown":"equaldotsize","ratio_trial":250,"smaller_num":"2","larger_num":"8","correct_side":1,"subjID":"danielfelipecortesmora14","gender":"0","age":"10","school":"colegiocafam"},{"start_time":1551887975650,"click_time":1551887977138,"finger_time":1551887976739,"fix_duration":250,"trial":35,"RT":1089,"MT":399,"sideResp":2,"stimulus":"img/250/randomdotsizeEA/R/4_Ratio_250_L_3_R_12.png","xmouse":[807,807,807,807,805,805,805,805,805,805,805,805,805,805,805,805,805,805,805,805,805,805,805,805,805,805,805,805,805,805,805,805,805,805,805,805,805,805,805,805,805,805,803,798,789,782,774,771,768,767,767,766,766,767,770,774,777,789,795,804,813,822,841,851,861,871,892,925,950,977,1001,1024,1058,1072,1084],"ymouse":[486,487,487,487,488,488,488,488,489,490,490,490,490,490,490,490,490,490,490,490,490,490,490,490,490,490,490,490,490,490,490,490,490,490,490,490,490,490,490,490,490,490,490,490,487,483,479,477,475,474,472,469,459,453,446,437,429,410,401,388,375,363,340,328,317,304,281,244,220,195,174,152,116,100,86],"timestamp_mouse":[9,29,48,68,89,109,129,149,169,188,208,229,249,268,288,310,330,349,368,389,409,430,448,469,489,510,530,548,570,589,608,629,649,670,690,709,728,750,769,788,810,829,849,870,889,908,930,948,969,990,1009,1029,1048,1069,1089,1110,1130,1149,1169,1190,1209,1229,1249,1270,1289,1310,1330,1349,1369,1389,1409,1428,1448,1468,1488],"xSR":741.5,"ySR":449.15000000000003,"xT1":424.9,"yT1":0,"xT2":1058.1,"yT2":0,"toosoon":0,"cond_shown":"randomdotsizeEA","ratio_trial":250,"smaller_num":"3","larger_num":"12","correct_side":2,"subjID":"danielfelipecortesmora14","gender":"0","age":"10","school":"colegiocafam"},{"start_time":1551887979049,"click_time":1551887980779,"finger_time":1551887980219,"fix_duration":628.7296056391709,"trial":36,"RT":1170,"MT":560,"sideResp":2,"stimulus":"img/250/randomdotsizeEA/R/10_Ratio_250_L_4_R_16.png","xmouse":[816,816,816,816,816,816,817,817,817,817,817,817,817,817,817,817,817,817,817,817,817,817,817,817,817,817,817,817,817,817,817,817,817,817,817,817,817,817,817,817,817,817,817,817,817,816,813,795,791,789,788,787,787,787,787,787,788,790,798,804,813,825,861,890,922,943,958,990,1001,1012,1019,1027,1038,1041,1043,1045,1046,1052,1056,1061,1065,1069,1072,1073,1074,1074,1076],"ymouse":[509,509,509,507,506,506,505,505,505,505,505,505,505,505,505,505,505,505,505,505,505,505,505,505,505,505,505,505,505,505,505,505,505,505,505,505,505,505,505,505,505,505,505,503,502,501,499,491,489,489,488,487,487,487,486,482,475,467,448,437,424,409,371,342,312,292,276,245,232,220,209,197,181,175,172,166,165,150,141,129,119,114,106,104,102,101,97],"timestamp_mouse":[10,42,50,71,91,109,131,151,169,190,209,231,249,270,289,310,331,349,369,389,411,429,451,470,490,511,529,551,569,589,610,631,649,671,690,709,731,750,770,790,809,830,850,870,890,909,930,950,970,990,1010,1030,1049,1071,1090,1111,1130,1149,1170,1190,1210,1231,1250,1271,1290,1309,1329,1350,1369,1390,1411,1431,1450,1469,1490,1509,1529,1551,1569,1589,1610,1630,1650,1670,1689,1711,1730],"xSR":741.5,"ySR":449.15000000000003,"xT1":424.9,"yT1":0,"xT2":1058.1,"yT2":0,"toosoon":0,"cond_shown":"randomdotsizeEA","ratio_trial":250,"smaller_num":"4","larger_num":"16","correct_side":2,"subjID":"danielfelipecortesmora14","gender":"0","age":"10","school":"colegiocafam"},{"start_time":1551887983773,"click_time":1551887985299,"finger_time":1551887984799,"fix_duration":733.6055674882803,"trial":37,"RT":1026,"MT":500,"sideResp":2,"stimulus":"img/900/equaldotsize/R/15_Ratio_900_L_9_R_10.png","xmouse":[782,782,782,782,782,782,782,782,782,782,782,782,782,782,782,781,776,774,772,772,772,772,772,772,772,772,772,772,772,772,772,772,772,772,772,772,772,772,772,772,772,772,772,775,777,780,785,787,791,797,805,820,854,879,906,926,958,974,989,1000,1020,1039,1045,1048,1051,1051,1051,1052,1052,1052,1052,1052,1052,1053,1055,1056,1061],"ymouse":[519,519,519,519,520,520,520,520,520,520,520,520,520,522,524,528,533,535,536,537,537,537,537,537,537,537,537,537,537,537,537,537,537,537,537,537,537,537,537,537,537,537,537,531,527,521,505,495,481,467,452,432,400,382,364,348,325,311,298,287,262,227,214,203,195,190,185,175,169,163,154,142,135,128,116,112,94],"timestamp_mouse":[8,39,45,66,86,106,125,147,166,186,206,226,246,266,287,305,326,347,366,386,405,425,447,467,487,505,525,546,565,587,606,627,646,666,686,707,725,746,766,787,805,825,846,865,885,907,926,947,966,987,1006,1026,1046,1065,1087,1107,1126,1146,1165,1187,1205,1226,1245,1266,1286,1307,1326,1347,1365,1387,1407,1426,1445,1467,1485,1507,1526],"xSR":741.5,"ySR":449.15000000000003,"xT1":424.9,"yT1":0,"xT2":1058.1,"yT2":0,"toosoon":0,"cond_shown":"equaldotsize","ratio_trial":900,"smaller_num":"9","larger_num":"10","correct_side":2,"subjID":"danielfelipecortesmora14","gender":"0","age":"10","school":"colegiocafam"},{"start_time":1551887987863,"click_time":1551887989099,"finger_time":1551887988599,"fix_duration":1462.7400283498603,"trial":38,"RT":736,"MT":500,"sideResp":2,"stimulus":"img/500/equaldotanddens/R/15_Ratio_500_L_1_R_2.png","xmouse":[802,801,801,800,799,799,799,799,799,799,799,798,797,797,796,796,795,795,795,795,795,795,795,795,795,795,795,795,795,795,796,798,801,804,813,817,851,871,890,910,933,969,985,998,1010,1019,1037,1043,1049,1054,1058,1063,1063,1065,1066,1066,1068,1070,1074,1079,1083,1094],"ymouse":[540,537,537,536,536,536,535,535,534,533,533,532,531,530,529,529,529,529,529,529,528,528,528,528,528,528,528,528,527,525,524,516,511,505,491,484,446,431,417,400,380,341,322,305,288,270,228,213,200,189,179,161,155,148,142,139,130,126,119,111,105,86],"timestamp_mouse":[16,52,56,76,96,115,135,155,176,196,217,237,256,277,295,317,336,356,376,397,416,437,455,477,496,515,537,556,575,597,617,636,655,676,696,715,736,757,776,796,815,836,856,876,895,917,936,956,977,996,1017,1036,1057,1077,1097,1116,1136,1155,1177,1196,1217,1236],"xSR":741.5,"ySR":449.15000000000003,"xT1":424.9,"yT1":0,"xT2":1058.1,"yT2":0,"toosoon":0,"cond_shown":"equaldotanddens","ratio_trial":500,"smaller_num":"1","larger_num":"2","correct_side":2,"subjID":"danielfelipecortesmora14","gender":"0","age":"10","school":"colegiocafam"},{"start_time":1551887992420,"click_time":1551887994299,"finger_time":1551887993558,"fix_duration":739.898563982398,"trial":39,"RT":1138,"MT":741,"sideResp":1,"stimulus":"img/750/randomdotsizeEA/L/13_Ratio_750_L_8_R_6.png","xmouse":[800,800,800,800,800,800,800,800,800,800,800,800,800,800,800,800,800,800,800,800,800,800,800,800,800,800,800,800,800,800,800,800,800,800,800,800,800,800,800,800,800,800,800,800,800,800,800,800,800,799,794,789,779,759,753,743,737,730,715,709,700,678,656,619,603,587,568,563,547,543,539,535,529,519,513,509,506,503,493,486,480,476,474,471,470,469,469,469,469,469,469,469,469,471],"ymouse":[523,523,523,523,523,523,524,524,524,524,524,524,525,525,525,525,525,525,525,525,525,525,525,525,525,525,525,525,525,525,525,525,525,525,525,525,525,525,525,525,525,525,525,525,525,525,525,525,525,525,524,522,518,510,504,498,493,487,474,469,464,455,447,424,410,397,377,370,339,328,314,298,280,242,224,211,200,191,167,155,144,135,129,118,115,113,110,106,103,101,101,101,100,98],"timestamp_mouse":[31,39,58,78,99,120,138,160,179,198,219,240,260,279,300,319,338,360,379,399,419,438,460,480,500,519,540,558,579,600,620,639,659,679,699,718,739,758,778,799,820,838,860,880,899,919,939,959,979,1000,1018,1039,1058,1079,1098,1119,1138,1160,1179,1198,1219,1239,1260,1278,1298,1320,1340,1360,1379,1399,1419,1438,1460,1479,1500,1518,1540,1559,1579,1600,1618,1639,1659,1678,1699,1718,1739,1759,1780,1799,1819,1840,1859,1879],"xSR":741.5,"ySR":449.15000000000003,"xT1":424.9,"yT1":0,"xT2":1058.1,"yT2":0,"toosoon":0,"cond_shown":"randomdotsizeEA","ratio_trial":750,"smaller_num":"6","larger_num":"8","correct_side":1,"subjID":"danielfelipecortesmora14","gender":"0","age":"10","school":"colegiocafam"},{"start_time":1551887995907,"click_time":1551887998998,"finger_time":1551887997120,"fix_duration":466.78091976688876,"trial":40,"RT":1213,"MT":1878,"sideResp":2,"stimulus":"img/750/equaldotsize/R/15_Ratio_750_L_9_R_12.png","xmouse":[803,803,803,803,803,803,803,803,803,803,803,803,803,803,803,803,803,803,803,803,803,803,803,803,803,803,803,803,803,803,803,803,803,803,803,803,803,803,803,803,803,803,803,803,803,803,803,803,803,803,803,803,803,803,803,803,802,801,799,790,776,758,739,710,681,669,659,650,637,613,602,590,580,569,558,554,551,548,547,544,544,543,543,543,543,543,543,543,543,543,543,543,543,543,548,554,563,573,583,606,616,625,635,657,693,717,745,773,805,860,882,900,917,932,954,958,959,961,965,971,975,981,985,994,1004,1012,1019,1027,1034,1047,1055,1058,1058,1058,1058,1058,1058,1058,1058,1058,1058,1058,1056,1054,1054,1054,1054,1054,1054,1054,1054,1054,1054,1057,1064],"ymouse":[477,477,477,477,477,477,477,477,477,477,477,477,477,477,477,477,477,477,477,477,477,477,477,477,477,477,477,477,477,477,477,477,477,477,477,477,477,477,477,477,477,477,477,477,477,477,477,477,477,477,477,477,477,477,477,477,476,474,471,460,448,436,424,403,379,367,353,334,311,274,260,246,234,213,187,178,169,163,159,152,151,151,149,149,149,149,149,149,149,149,149,149,149,149,153,158,165,170,174,180,181,181,181,175,168,165,163,160,158,151,147,144,139,135,128,127,127,126,124,119,115,110,106,100,93,87,83,80,75,67,62,61,61,61,61,61,61,61,61,61,61,64,70,74,76,77,77,77,77,77,77,78,78,77,74],"timestamp_mouse":[12,41,51,73,92,112,132,152,173,192,213,232,252,273,292,312,332,352,372,391,412,433,452,473,492,512,532,552,571,593,611,632,652,671,693,712,732,752,771,793,811,833,852,873,892,911,932,951,972,991,1012,1031,1053,1071,1092,1111,1131,1153,1172,1191,1213,1232,1251,1271,1292,1312,1333,1352,1373,1392,1411,1432,1451,1472,1492,1511,1531,1552,1572,1592,1611,1631,1651,1673,1693,1713,1732,1752,1771,1792,1811,1832,1853,1873,1891,1911,1932,1952,1973,1992,2013,2031,2053,2071,2091,2111,2132,2151,2173,2192,2213,2232,2253,2272,2292,2312,2332,2352,2373,2392,2413,2432,2452,2472,2491,2512,2533,2553,2572,2592,2611,2632,2652,2673,2692,2713,2732,2752,2771,2792,2812,2832,2851,2871,2891,2911,2932,2952,2972,2992,3011,3033,3051,3071,3091],"xSR":741.5,"ySR":449.15000000000003,"xT1":424.9,"yT1":0,"xT2":1058.1,"yT2":0,"toosoon":0,"cond_shown":"equaldotsize","ratio_trial":750,"smaller_num":"9","larger_num":"12","correct_side":2,"subjID":"danielfelipecortesmora14","gender":"0","age":"10","school":"colegiocafam"},{"start_time":1551888001166,"click_time":1551888002680,"finger_time":1551888001939,"fix_duration":1066.9663902131726,"trial":41,"RT":773,"MT":741,"sideResp":2,"stimulus":"img/750/equaldotanddens/R/7_Ratio_750_L_3_R_4.png","xmouse":[803,803,803,803,803,803,803,803,803,803,803,803,803,803,803,803,803,803,803,803,803,803,803,803,803,803,803,803,803,803,803,803,803,806,809,813,826,841,861,881,927,1016,1062,1108,1145,1180,1222,1234,1243,1248,1251,1251,1251,1251,1251,1251,1251,1248,1243,1239,1234,1217,1208,1201,1193,1188,1180,1176,1173,1170,1166,1160,1159,1157,1155,1152],"ymouse":[504,504,504,504,504,504,504,504,504,504,504,504,504,504,504,504,504,504,504,504,504,504,504,504,504,504,504,504,504,504,504,504,504,503,500,496,485,472,457,441,407,340,299,262,228,200,164,154,146,140,134,129,128,127,126,125,122,121,120,119,117,117,117,117,118,119,119,118,116,115,112,107,106,104,100,96],"timestamp_mouse":[12,32,53,72,92,113,134,153,174,192,213,234,252,273,294,313,333,353,373,393,413,432,454,473,492,512,534,553,572,592,614,633,654,673,693,712,732,754,773,792,812,832,852,872,894,913,933,952,972,993,1013,1033,1053,1073,1094,1112,1133,1154,1173,1192,1213,1232,1253,1273,1292,1314,1333,1353,1373,1392,1413,1433,1453,1473,1493,1514],"xSR":741.5,"ySR":449.15000000000003,"xT1":424.9,"yT1":0,"xT2":1058.1,"yT2":0,"toosoon":0,"cond_shown":"equaldotanddens","ratio_trial":750,"smaller_num":"3","larger_num":"4","correct_side":2,"subjID":"danielfelipecortesmora14","gender":"0","age":"10","school":"colegiocafam"},{"start_time":1551888004605,"click_time":1551888006558,"finger_time":1551888005940,"fix_duration":584.6900230767776,"trial":42,"RT":1335,"MT":618,"sideResp":1,"stimulus":"img/900/randomdotsizeEA/L/8_Ratio_900_L_20_R_18.png","xmouse":[783,783,783,783,783,783,783,783,783,783,783,783,783,783,783,783,783,783,783,783,783,783,783,783,783,783,783,783,783,783,783,783,783,783,783,783,783,783,783,783,783,783,783,783,783,783,783,783,783,781,780,777,773,771,770,769,769,769,769,770,770,770,770,770,770,770,771,771,771,761,744,722,692,657,605,587,574,567,563,555,549,542,534,526,511,504,499,493,489,485,479,477,475,473,467,463,462,458],"ymouse":[510,510,510,510,510,510,510,510,510,510,510,510,510,510,510,510,510,510,510,510,510,510,510,510,510,510,510,510,510,510,510,510,510,510,510,510,510,510,510,510,510,510,510,510,510,510,510,510,510,510,510,508,506,504,502,496,492,488,482,476,474,472,470,466,458,453,448,442,436,424,414,404,394,385,371,365,360,353,347,319,302,286,271,256,231,219,210,199,192,184,169,161,155,146,126,114,106,97],"timestamp_mouse":[14,44,53,74,94,113,135,153,174,193,215,233,253,275,295,314,334,354,375,394,413,435,453,475,494,514,534,553,574,595,613,635,655,673,695,715,733,753,775,793,815,835,854,873,894,914,933,955,975,994,1014,1034,1053,1074,1093,1114,1135,1153,1175,1194,1214,1235,1254,1275,1294,1315,1335,1354,1375,1394,1415,1434,1454,1474,1494,1514,1534,1554,1573,1593,1614,1634,1654,1674,1695,1714,1735,1754,1774,1794,1815,1835,1854,1875,1894,1915,1935,1953],"xSR":741.5,"ySR":449.15000000000003,"xT1":424.9,"yT1":0,"xT2":1058.1,"yT2":0,"toosoon":0,"cond_shown":"randomdotsizeEA","ratio_trial":900,"smaller_num":"18","larger_num":"20","correct_side":1,"subjID":"danielfelipecortesmora14","gender":"0","age":"10","school":"colegiocafam"},{"start_time":1551888009425,"click_time":1551888013799,"finger_time":1551888011020,"fix_duration":724.6087888944684,"trial":43,"RT":1595,"MT":2779,"sideResp":1,"stimulus":"img/900/equaldotsize/L/4_Ratio_900_L_20_R_18.png","xmouse":[791,791,791,791,791,791,791,791,791,791,791,791,791,791,791,791,791,791,791,791,791,791,791,791,791,791,791,791,791,791,791,791,791,791,791,791,791,791,791,791,791,791,791,791,791,791,791,791,791,791,791,791,791,791,791,791,791,791,791,791,791,791,791,791,791,791,791,791,788,786,782,779,776,773,772,770,767,759,749,741,734,724,716,699,691,687,679,669,658,653,646,639,631,623,609,604,600,599,593,590,588,585,583,577,574,571,566,565,562,561,560,558,557,555,554,552,550,543,529,520,511,500,490,470,459,447,434,417,399,390,387,384,383,383,382,382,382,383,394,402,411,421,432,444,513,581,654,654,654,654,654,654,654,654,654,654,654,654,654,654,654,654,654,654,654,654,654,654,654,654,654,993,985,977,959,937,911,865,865,865,865,865,865,865,865,865,865,865,865,865,865,865,865,865,865,865,865,865,865,865,661,648,644,633,632,630,629,629,626,622,616,607,596,581,575,568,556,538,512],"ymouse":[536,536,536,536,536,536,536,536,536,536,536,536,536,536,536,536,536,536,536,536,536,536,536,536,536,536,536,536,536,536,536,536,536,536,536,536,536,536,536,536,536,536,536,536,536,536,536,536,536,536,536,536,536,536,536,536,536,536,536,536,536,536,536,536,536,536,535,534,528,524,517,511,507,500,498,493,488,477,458,445,432,420,406,383,371,362,353,339,320,312,300,289,277,266,246,239,233,232,223,219,216,211,208,199,194,190,183,181,180,180,180,180,180,180,180,180,179,179,179,179,179,179,179,179,179,179,181,185,187,189,189,190,190,190,190,190,190,190,190,191,191,193,197,206,288,379,494,494,494,494,494,494,494,494,494,494,494,494,494,494,494,494,494,494,494,494,494,494,494,494,494,665,609,359,258,177,110,11,11,11,11,11,11,11,11,11,11,11,11,11,11,11,11,11,11,11,11,11,11,11,12,20,22,26,26,26,26,26,26,26,26,28,29,32,32,33,37,41,45],"timestamp_mouse":[14,39,54,73,95,115,135,154,174,195,213,234,255,273,295,315,334,353,374,393,415,435,454,473,495,515,533,554,573,593,613,634,655,673,693,714,734,754,774,794,814,834,853,874,893,914,933,955,973,993,1014,1035,1055,1073,1093,1114,1133,1154,1173,1193,1214,1234,1254,1273,1293,1314,1334,1353,1374,1394,1415,1434,1453,1474,1495,1513,1535,1555,1574,1595,1614,1634,1655,1675,1693,1714,1733,1754,1774,1794,1814,1834,1854,1874,1895,1914,1934,1954,1974,1993,2014,2035,2055,2073,2093,2114,2133,2153,2173,2193,2214,2233,2253,2273,2293,2314,2335,2354,2374,2394,2414,2434,2455,2475,2493,2514,2533,2553,2573,2593,2614,2634,2654,2674,2694,2713,2734,2755,2774,2793,2815,2834,2854,2874,2895,2915,2935,2955,2975,2994,3013,3033,3054,3074,3095,3115,3134,3155,3173,3194,3213,3234,3255,3275,3295,3314,3334,3355,3374,3394,3415,3434,3455,3474,3495,3514,3534,3554,3573,3593,3614,3634,3654,3674,3693,3713,3734,3753,3773,3794,3814,3834,3853,3873,3893,3914,3935,3955,3975,3993,4013,4035,4054,4074,4094,4114,4134,4155,4174,4194,4213,4233,4255,4274,4295,4314,4334,4354,4374],"xSR":741.5,"ySR":449.15000000000003,"xT1":424.9,"yT1":0,"xT2":1058.1,"yT2":0,"toosoon":0,"cond_shown":"equaldotsize","ratio_trial":900,"smaller_num":"18","larger_num":"20","correct_side":1,"subjID":"danielfelipecortesmora14","gender":"0","age":"10","school":"colegiocafam"},{"start_time":1551888016351,"click_time":1551888018899,"finger_time":1551888018100,"fix_duration":250,"trial":44,"RT":1749,"MT":799,"sideResp":1,"stimulus":"img/900/randomdotsizeEA/L/10_Ratio_900_L_20_R_18.png","xmouse":[811,811,811,811,811,811,811,811,811,811,811,811,811,811,811,811,811,811,811,811,811,811,811,811,811,811,811,811,811,811,811,811,811,811,811,811,811,811,811,811,811,811,811,811,811,811,811,811,812,812,812,812,812,812,812,812,812,812,812,812,812,812,812,812,812,812,812,812,812,812,812,812,812,812,812,812,812,812,812,811,810,807,800,794,789,782,776,752,738,724,703,697,676,669,664,657,652,639,632,626,617,613,606,590,582,577,571,568,566,566,565,565,563,562,560,559,556,549,545,542,539,537,533,531,530,528,527,524],"ymouse":[485,485,485,485,485,485,485,485,485,485,485,485,485,485,485,485,485,485,485,485,485,485,485,485,485,485,485,485,485,485,485,485,485,485,485,485,485,485,485,485,485,485,485,485,485,485,485,485,486,486,486,486,486,486,486,486,486,486,486,486,486,486,486,486,486,486,486,486,486,486,486,486,486,486,486,486,486,486,485,484,483,480,474,469,464,457,451,431,418,404,382,376,333,315,295,275,254,208,184,162,135,121,109,93,86,83,80,79,77,77,77,77,77,77,77,77,77,77,77,77,77,77,76,76,76,76,75,75],"timestamp_mouse":[15,34,48,68,87,107,128,148,168,189,207,229,249,267,288,308,327,348,369,389,408,428,447,467,487,509,528,547,568,589,607,627,649,667,688,708,728,748,769,789,809,829,849,867,888,908,928,947,969,989,1009,1029,1048,1068,1087,1108,1127,1149,1167,1188,1208,1229,1248,1268,1289,1307,1327,1349,1367,1388,1408,1427,1448,1467,1488,1509,1528,1547,1569,1589,1608,1629,1647,1668,1688,1709,1727,1749,1769,1788,1808,1828,1848,1868,1887,1908,1928,1948,1969,1988,2009,2029,2048,2069,2087,2108,2129,2148,2168,2188,2209,2228,2248,2269,2288,2307,2327,2347,2367,2388,2408,2428,2448,2467,2487,2508,2529,2548],"xSR":741.5,"ySR":449.15000000000003,"xT1":424.9,"yT1":0,"xT2":1058.1,"yT2":0,"toosoon":0,"cond_shown":"randomdotsizeEA","ratio_trial":900,"smaller_num":"18","larger_num":"20","correct_side":1,"subjID":"danielfelipecortesmora14","gender":"0","age":"10","school":"colegiocafam"},{"start_time":1551888020299,"click_time":1551888021599,"finger_time":1551888021020,"fix_duration":299.6327028507407,"trial":45,"RT":721,"MT":579,"sideResp":2,"stimulus":"img/500/equaldotanddens/R/2_Ratio_500_L_3_R_6.png","xmouse":[788,788,788,788,788,789,789,789,789,789,789,789,789,790,790,790,790,790,790,790,790,790,790,791,791,791,791,791,791,791,791,791,791,791,792,802,809,819,829,840,863,873,882,890,903,911,927,938,949,959,979,989,1001,1015,1031,1045,1051,1054,1056,1059,1062,1065,1067,1069,1075,1081],"ymouse":[472,472,472,472,472,473,473,473,473,473,473,473,473,473,473,473,473,474,474,474,474,474,474,475,475,475,475,475,475,475,475,475,475,475,475,455,442,426,413,400,376,364,350,339,320,308,283,268,254,242,219,209,197,184,168,152,147,143,140,136,132,127,122,116,105,89],"timestamp_mouse":[1,20,40,63,79,99,121,140,161,179,200,221,241,259,281,299,320,340,361,379,400,420,439,459,481,500,521,540,559,581,601,620,641,660,680,699,721,740,759,781,800,820,840,860,881,900,920,939,960,981,1000,1020,1040,1059,1080,1100,1120,1140,1159,1181,1200,1221,1240,1260,1280,1300],"xSR":741.5,"ySR":449.15000000000003,"xT1":424.9,"yT1":0,"xT2":1058.1,"yT2":0,"toosoon":0,"cond_shown":"equaldotanddens","ratio_trial":500,"smaller_num":"3","larger_num":"6","correct_side":2,"subjID":"danielfelipecortesmora14","gender":"0","age":"10","school":"colegiocafam"},{"start_time":1551888022911,"click_time":1551888024460,"finger_time":1551888023899,"fix_duration":529.3928299466336,"trial":46,"RT":988,"MT":561,"sideResp":1,"stimulus":"img/750/equaldotsize/L/13_Ratio_750_L_8_R_6.png","xmouse":[793,793,793,793,793,793,793,793,793,793,793,793,793,793,793,793,793,793,793,793,793,793,793,793,793,793,793,793,793,793,793,793,793,793,793,793,793,793,793,793,793,793,793,793,793,789,779,767,754,732,720,709,697,684,614,592,575,557,547,526,519,513,509,502,494,492,491,491,490,490,490,489,488,487,484,482,479,476],"ymouse":[496,496,496,496,496,496,496,496,496,496,496,496,496,496,496,496,496,496,496,496,496,496,496,496,496,496,496,496,496,496,496,496,496,496,496,496,496,496,496,496,496,496,496,496,496,496,492,486,480,467,459,451,443,431,385,366,346,323,303,268,253,238,221,195,166,157,152,148,147,144,141,138,134,128,118,111,105,99],"timestamp_mouse":[9,37,48,67,89,108,127,148,168,187,209,228,249,268,288,308,327,347,368,388,408,428,448,469,489,508,528,549,568,588,608,628,649,669,688,708,729,748,767,787,809,829,847,869,888,907,929,948,969,988,1009,1029,1048,1067,1087,1107,1128,1148,1169,1189,1208,1227,1248,1268,1288,1307,1328,1349,1368,1388,1408,1427,1449,1468,1488,1508,1529,1549],"xSR":741.5,"ySR":449.15000000000003,"xT1":424.9,"yT1":0,"xT2":1058.1,"yT2":0,"toosoon":0,"cond_shown":"equaldotsize","ratio_trial":750,"smaller_num":"6","larger_num":"8","correct_side":1,"subjID":"danielfelipecortesmora14","gender":"0","age":"10","school":"colegiocafam"},{"start_time":1551888025772,"click_time":1551888026899,"finger_time":1551888026560,"fix_duration":250,"trial":47,"RT":788,"MT":339,"sideResp":2,"stimulus":"img/250/equaldotanddens/R/12_Ratio_250_L_5_R_20.png","xmouse":[770,771,771,771,772,772,774,774,775,775,776,776,776,776,776,776,777,777,777,777,777,777,777,778,779,779,780,780,780,780,780,780,780,780,781,783,797,813,835,863,878,901,912,923,938,956,993,1011,1030,1051,1072,1084,1084,1084,1081,1078,1076],"ymouse":[491,491,491,491,491,492,493,493,493,493,493,494,494,494,494,494,494,494,494,494,494,494,495,495,496,496,497,497,497,497,497,497,497,497,497,497,493,486,474,459,451,435,426,416,399,377,326,298,275,247,213,177,160,142,122,102,72],"timestamp_mouse":[9,41,47,67,88,108,127,146,167,187,208,228,247,268,288,307,327,348,367,387,407,426,448,467,487,508,528,548,568,587,607,628,647,667,688,706,727,747,767,788,808,827,847,867,888,907,928,948,966,988,1007,1027,1047,1067,1088,1107,1127],"xSR":741.5,"ySR":449.15000000000003,"xT1":424.9,"yT1":0,"xT2":1058.1,"yT2":0,"toosoon":0,"cond_shown":"equaldotandde