[{"start_time":1551886947239,"click_time":1551886948782,"finger_time":1551886948322,"fix_duration":1315.2234603629568,"trial":0,"RT":1083,"MT":460,"sideResp":2,"stimulus":[],"xmouse":[810,810,810,810,810,810,810,810,810,810,810,810,810,810,810,810,810,810,810,810,810,810,810,810,810,810,810,810,810,810,810,810,810,810,810,810,810,810,810,810,810,810,810,810,810,810,810,810,810,810,810,810,826,841,856,879,888,908,922,934,940,942,942,942,954,971,995,1009,1022,1027,1036,1043,1059,1067,1070,1075,1078,1081],"ymouse":[547,547,547,547,547,547,547,547,547,547,547,547,547,547,547,547,547,547,547,547,547,547,547,547,547,547,547,547,547,547,547,547,547,547,547,547,547,547,547,547,547,547,547,547,547,547,547,547,547,547,547,546,519,498,477,441,422,381,360,345,337,335,334,333,327,319,303,292,278,269,259,248,224,209,191,159,136,89],"timestamp_mouse":[3,23,44,64,83,103,123,143,164,184,202,224,243,262,282,302,323,342,364,383,402,422,444,462,483,503,522,542,563,583,604,622,642,664,682,704,723,743,762,784,803,823,843,863,882,903,923,944,963,983,1004,1023,1043,1064,1083,1103,1123,1142,1163,1183,1203,1223,1243,1264,1283,1303,1323,1343,1363,1383,1403,1422,1442,1463,1483,1503,1522,1542],"xSR":741.5,"ySR":501.8,"xT1":424.9,"yT1":0,"xT2":1058.1,"yT2":0,"toosoon":0,"cond_shown":"Congruent","ratio_trial":300,"L_num":1,"L_den":3,"R_num":19,"R_den":30,"correct_side":2,"subjID":"DanielJimenezAngel20","gender":"0","age":"10","school":"sexto","test":{"fix_dur":[250,1500],"timestim":1000,"targets_dim":[100,100],"targets_relative_coord":[0.3,0.7],"size_stim":[880,420],"start_dim":[100,100],"size_start":[300,300],"size_fix":60,"samplingrate":20,"img_types":["Congruent","Incongruent"],"ratios":[100,200,300],"rep_conds":19,"nTrials":120,"trials_to_rest":500,"Trials_order":[46,91,25,105,107,13,69,16,108,9,64,40,50,20,17,21,89,88,67,115,23,73,94,85,119,53,111,8,55,27,72,60,90,114,22,112,76,75,35,61,83,96,45,14,0,33,71,65,74,10,41,30,18,57,26,36,62,54,102,51,31,118,29,79,80,1,11,6,24,113,84,28,93,56,77,101,78,68,19,58,7,48,82,37,70,87,47,38,98,39,15,34,66,4,32,3,99,117,103,12,43,42,5,97,100,2,92,95,110,106,49,81,109,86,52,44,104,59,63,116],"cond_shown":["Congruent","Incongruent","Incongruent","Incongruent","Incongruent","Incongruent","Incongruent","Congruent","Congruent","Incongruent","Congruent","Congruent","Congruent","Congruent","Incongruent","Incongruent","Incongruent","Congruent","Incongruent","Incongruent","Incongruent","Incongruent","Congruent","Incongruent","Incongruent","Incongruent","Incongruent","Congruent","Incongruent","Incongruent","Congruent","Congruent","Congruent","Congruent","Congruent","Congruent","Congruent","Incongruent","Incongruent","Incongruent","Incongruent","Congruent","Incongruent","Congruent","Congruent","Incongruent","Incongruent","Incongruent","Congruent","Congruent","Incongruent","Congruent","Congruent","Incongruent","Congruent","Congruent","Congruent","Congruent","Congruent","Incongruent","Incongruent","Congruent","Incongruent","Incongruent","Congruent","Incongruent","Incongruent","Congruent","Congruent","Incongruent","Congruent","Congruent","Incongruent","Congruent","Incongruent","Incongruent","Congruent","Congruent","Incongruent","Congruent","Incongruent","Congruent","Congruent","Incongruent","Congruent","Incongruent","Incongruent","Congruent","Congruent","Incongruent","Incongruent","Congruent","Congruent","Congruent","Congruent","Incongruent","Incongruent","Incongruent","Incongruent","Congruent","Incongruent","Congruent","Incongruent","Incongruent","Congruent","Congruent","Congruent","Incongruent","Congruent","Congruent","Incongruent","Incongruent","Incongruent","Congruent","Congruent","Congruent","Congruent","Incongruent","Incongruent","Congruent"],"ratio_trial":[300,100,100,200,300,100,200,300,100,200,300,300,200,200,300,200,300,300,100,100,300,100,300,100,300,300,200,200,100,200,100,100,100,100,300,300,300,200,300,100,300,100,200,200,100,200,300,300,200,300,300,100,100,200,200,100,200,100,100,200,100,300,300,100,200,100,300,100,100,300,100,300,200,200,300,300,100,200,100,300,100,100,300,100,300,200,300,200,200,200,200,300,100,300,200,200,200,200,100,100,100,100,300,100,300,200,200,300,200,300,100,200,100,200,300,200,200,300,200,200],"left_num":[1,11,3,7,4,6,1,3,1,1,20,7,3,3,4,14,13,11,12,9,2,6,2,1,7,4,7,4,3,14,8,6,11,6,9,20,2,4,7,10,13,8,3,16,1,1,2,13,3,20,13,11,6,7,4,8,6,3,1,3,6,11,4,13,20,6,3,7,6,4,7,20,14,21,3,13,4,6,2,20,9,3,7,12,1,4,2,1,6,7,1,20,2,1,12,7,3,7,3,6,12,11,13,3,11,12,11,4,4,1,12,1,10,3,2,7,13,8,7,1],"right_num":[19,9,8,12,2,13,2,2,3,3,14,20,14,9,2,12,12,1,9,6,6,7,12,8,8,2,6,3,11,6,2,5,4,5,3,14,10,14,8,8,12,2,1,9,18,3,6,12,7,8,12,4,5,4,3,2,11,4,3,1,7,4,6,6,9,13,4,15,15,2,15,9,6,2,4,12,15,3,6,9,20,4,20,9,8,6,6,21,7,6,3,9,6,11,6,8,1,14,11,5,2,4,12,11,1,6,3,2,3,8,2,2,9,14,12,18,14,9,12,21],"left_den":[3,22,5,10,20,10,3,6,2,2,25,14,10,12,20,30,26,22,24,18,4,10,10,2,10,20,15,10,5,30,16,20,22,20,10,25,20,6,10,25,26,16,10,30,2,2,4,26,10,25,26,22,20,15,10,16,20,20,2,10,10,22,5,26,25,10,6,14,12,20,14,25,30,30,6,26,10,15,4,25,10,20,14,24,30,5,4,2,12,15,2,25,5,5,20,10,10,10,5,20,30,22,26,5,22,15,22,20,8,30,30,3,25,6,10,15,26,10,10,2],"right_den":[30,15,16,24,4,26,15,10,5,10,28,25,28,20,4,18,15,5,15,10,30,14,24,20,20,4,9,15,22,9,5,25,10,25,5,28,25,30,20,16,15,5,2,27,30,10,30,15,14,16,15,10,25,6,15,5,22,16,5,2,14,20,12,10,15,26,20,25,25,4,25,18,9,4,20,15,30,15,15,18,25,16,25,15,24,10,30,30,10,9,10,18,12,22,15,16,2,28,22,25,4,10,15,22,5,10,10,4,10,24,4,15,18,20,24,27,20,18,24,30],"correct_side":[2,2,1,1,2,1,1,1,2,1,1,2,2,2,2,2,2,1,2,2,1,1,2,1,1,2,2,1,1,2,1,1,1,1,1,1,2,1,1,2,2,1,2,1,2,1,1,2,2,1,2,1,1,2,1,1,2,2,2,2,1,1,1,2,1,1,1,2,2,2,2,1,2,1,1,2,2,1,1,1,1,2,2,2,2,1,1,2,2,2,1,1,2,2,1,1,2,1,1,1,2,1,2,1,1,1,1,2,1,2,2,1,2,2,2,2,2,1,1,2],"img_shown":["img2/300/Congruent/R/C_Dist_300_LN_1_LD_3_RN_19_RD_30_1.png","img2/100/Incongruent/R/I_Dist_100_LN_11_LD_22_RN_9_RD_15_1.png","img2/100/Incongruent/L/I_Dist_100_LN_3_LD_5_RN_8_RD_16_0.png","img2/200/Incongruent/L/I_Dist_200_LN_7_LD_10_RN_12_RD_24_0.png","img2/300/Incongruent/R/I_Dist_300_LN_4_LD_20_RN_2_RD_4_1.png","img2/100/Incongruent/L/I_Dist_100_LN_6_LD_10_RN_13_RD_26_0.png","img2/200/Incongruent/L/I_Dist_200_LN_1_LD_3_RN_2_RD_15_0.png","img2/300/Congruent/L/C_Dist_300_LN_3_LD_6_RN_2_RD_10_0.png","img2/100/Congruent/R/C_Dist_100_LN_1_LD_2_RN_3_RD_5_1.png","img2/200/Incongruent/L/I_Dist_200_LN_1_LD_2_RN_3_RD_10_0.png","img2/300/Congruent/L/C_Dist_300_LN_20_LD_25_RN_14_RD_28_0.png","img2/300/Congruent/R/C_Dist_300_LN_7_LD_14_RN_20_RD_25_1.png","img2/200/Congruent/R/C_Dist_200_LN_3_LD_10_RN_14_RD_28_1.png","img2/200/Congruent/R/C_Dist_200_LN_3_LD_12_RN_9_RD_20_1.png","img2/300/Incongruent/R/I_Dist_300_LN_4_LD_20_RN_2_RD_4_1.png","img2/200/Incongruent/R/I_Dist_200_LN_14_LD_30_RN_12_RD_18_1.png","img2/300/Incongruent/R/I_Dist_300_LN_13_LD_26_RN_12_RD_15_1.png","img2/300/Congruent/L/C_Dist_300_LN_11_LD_22_RN_1_RD_5_0.png","img2/100/Incongruent/R/I_Dist_100_LN_12_LD_24_RN_9_RD_15_1.png","img2/100/Incongruent/R/I_Dist_100_LN_9_LD_18_RN_6_RD_10_1.png","img2/300/Incongruent/L/I_Dist_300_LN_2_LD_4_RN_6_RD_30_0.png","img2/100/Incongruent/L/I_Dist_100_LN_6_LD_10_RN_7_RD_14_0.png","img2/300/Congruent/R/C_Dist_300_LN_2_LD_10_RN_12_RD_24_1.png","img2/100/Incongruent/L/I_Dist_100_LN_1_LD_2_RN_8_RD_20_0.png","img2/300/Incongruent/L/I_Dist_300_LN_7_LD_10_RN_8_RD_20_0.png","img2/300/Incongruent/R/I_Dist_300_LN_4_LD_20_RN_2_RD_4_1.png","img2/200/Incongruent/R/I_Dist_200_LN_7_LD_15_RN_6_RD_9_1.png","img2/200/Congruent/L/C_Dist_200_LN_4_LD_10_RN_3_RD_15_0.png","img2/100/Incongruent/L/I_Dist_100_LN_3_LD_5_RN_11_RD_22_0.png","img2/200/Incongruent/R/I_Dist_200_LN_14_LD_30_RN_6_RD_9_1.png","img2/100/Congruent/L/C_Dist_100_LN_8_LD_16_RN_2_RD_5_0.png","img2/100/Congruent/L/C_Dist_100_LN_6_LD_20_RN_5_RD_25_0.png","img2/100/Congruent/L/C_Dist_100_LN_11_LD_22_RN_4_RD_10_0.png","img2/100/Congruent/L/C_Dist_100_LN_6_LD_20_RN_5_RD_25_0.png","img2/300/Congruent/L/C_Dist_300_LN_9_LD_10_RN_3_RD_5_0.png","img2/300/Congruent/L/C_Dist_300_LN_20_LD_25_RN_14_RD_28_0.png","img2/300/Congruent/R/C_Dist_300_LN_2_LD_20_RN_10_RD_25_1.png","img2/200/Incongruent/L/I_Dist_200_LN_4_LD_6_RN_14_RD_30_0.png","img2/300/Incongruent/L/I_Dist_300_LN_7_LD_10_RN_8_RD_20_0.png","img2/100/Incongruent/R/I_Dist_100_LN_10_LD_25_RN_8_RD_16_1.png","img2/300/Incongruent/R/I_Dist_300_LN_13_LD_26_RN_12_RD_15_1.png","img2/100/Congruent/L/C_Dist_100_LN_8_LD_16_RN_2_RD_5_0.png","img2/200/Incongruent/R/I_Dist_200_LN_3_LD_10_RN_1_RD_2_1.png","img2/200/Congruent/L/C_Dist_200_LN_16_LD_30_RN_9_RD_27_0.png","img2/100/Congruent/R/C_Dist_100_LN_1_LD_2_RN_18_RD_30_1.png","img2/200/Incongruent/L/I_Dist_200_LN_1_LD_2_RN_3_RD_10_0.png","img2/300/Incongruent/L/I_Dist_300_LN_2_LD_4_RN_6_RD_30_0.png","img2/300/Incongruent/R/I_Dist_300_LN_13_LD_26_RN_12_RD_15_1.png","img2/200/Congruent/R/C_Dist_200_LN_3_LD_10_RN_7_RD_14_1.png","img2/300/Congruent/L/C_Dist_300_LN_20_LD_25_RN_8_RD_16_0.png","img2/300/Incongruent/R/I_Dist_300_LN_13_LD_26_RN_12_RD_15_1.png","img2/100/Congruent/L/C_Dist_100_LN_11_LD_22_RN_4_RD_10_0.png","img2/100/Congruent/L/C_Dist_100_LN_6_LD_20_RN_5_RD_25_0.png","img2/200/Incongruent/R/I_Dist_200_LN_7_LD_15_RN_4_RD_6_1.png","img2/200/Congruent/L/C_Dist_200_LN_4_LD_10_RN_3_RD_15_0.png","img2/100/Congruent/L/C_Dist_100_LN_8_LD_16_RN_2_RD_5_0.png","img2/200/Congruent/R/C_Dist_200_LN_6_LD_20_RN_11_RD_22_1.png","img2/100/Congruent/R/C_Dist_100_LN_3_LD_20_RN_4_RD_16_1.png","img2/100/Congruent/R/C_Dist_100_LN_1_LD_2_RN_3_RD_5_1.png","img2/200/Incongruent/R/I_Dist_200_LN_3_LD_10_RN_1_RD_2_1.png","img2/100/Incongruent/L/I_Dist_100_LN_6_LD_10_RN_7_RD_14_0.png","img2/300/Congruent/L/C_Dist_300_LN_11_LD_22_RN_4_RD_20_0.png","img2/300/Incongruent/L/I_Dist_300_LN_4_LD_5_RN_6_RD_12_0.png","img2/100/Incongruent/R/I_Dist_100_LN_13_LD_26_RN_6_RD_10_1.png","img2/200/Congruent/L/C_Dist_200_LN_20_LD_25_RN_9_RD_15_0.png","img2/100/Incongruent/L/I_Dist_100_LN_6_LD_10_RN_13_RD_26_0.png","img2/300/Incongruent/L/I_Dist_300_LN_3_LD_6_RN_4_RD_20_0.png","img2/100/Congruent/R/C_Dist_100_LN_7_LD_14_RN_15_RD_25_1.png","img2/100/Congruent/R/C_Dist_100_LN_6_LD_12_RN_15_RD_25_1.png","img2/300/Incongruent/R/I_Dist_300_LN_4_LD_20_RN_2_RD_4_1.png","img2/100/Congruent/R/C_Dist_100_LN_7_LD_14_RN_15_RD_25_1.png","img2/300/Congruent/L/C_Dist_300_LN_20_LD_25_RN_9_RD_18_0.png","img2/200/Incongruent/R/I_Dist_200_LN_14_LD_30_RN_6_RD_9_1.png","img2/200/Congruent/L/C_Dist_200_LN_21_LD_30_RN_2_RD_4_0.png","img2/300/Incongruent/L/I_Dist_300_LN_3_LD_6_RN_4_RD_20_0.png","img2/300/Incongruent/R/I_Dist_300_LN_13_LD_26_RN_12_RD_15_1.png","img2/100/Congruent/R/C_Dist_100_LN_4_LD_10_RN_15_RD_30_1.png","img2/200/Congruent/L/C_Dist_200_LN_6_LD_15_RN_3_RD_15_0.png","img2/100/Incongruent/L/I_Dist_100_LN_2_LD_4_RN_6_RD_15_0.png","img2/300/Congruent/L/C_Dist_300_LN_20_LD_25_RN_9_RD_18_0.png","img2/100/Incongruent/L/I_Dist_100_LN_9_LD_10_RN_20_RD_25_0.png","img2/100/Congruent/R/C_Dist_100_LN_3_LD_20_RN_4_RD_16_1.png","img2/300/Congruent/R/C_Dist_300_LN_7_LD_14_RN_20_RD_25_1.png","img2/100/Incongruent/R/I_Dist_100_LN_12_LD_24_RN_9_RD_15_1.png","img2/300/Congruent/R/C_Dist_300_LN_1_LD_30_RN_8_RD_24_1.png","img2/200/Incongruent/L/I_Dist_200_LN_4_LD_5_RN_6_RD_10_0.png","img2/300/Incongruent/L/I_Dist_300_LN_2_LD_4_RN_6_RD_30_0.png","img2/200/Congruent/R/C_Dist_200_LN_1_LD_2_RN_21_RD_30_1.png","img2/200/Congruent/R/C_Dist_200_LN_6_LD_12_RN_7_RD_10_1.png","img2/200/Incongruent/R/I_Dist_200_LN_7_LD_15_RN_6_RD_9_1.png","img2/200/Incongruent/L/I_Dist_200_LN_1_LD_2_RN_3_RD_10_0.png","img2/300/Congruent/L/C_Dist_300_LN_20_LD_25_RN_9_RD_18_0.png","img2/100/Congruent/R/C_Dist_100_LN_2_LD_5_RN_6_RD_12_1.png","img2/300/Congruent/R/C_Dist_300_LN_1_LD_5_RN_11_RD_22_1.png","img2/200/Congruent/L/C_Dist_200_LN_12_LD_20_RN_6_RD_15_0.png","img2/200/Incongruent/L/I_Dist_200_LN_7_LD_10_RN_8_RD_16_0.png","img2/200/Incongruent/R/I_Dist_200_LN_3_LD_10_RN_1_RD_2_1.png","img2/200/Incongruent/L/I_Dist_200_LN_7_LD_10_RN_14_RD_28_0.png","img2/100/Incongruent/L/I_Dist_100_LN_3_LD_5_RN_11_RD_22_0.png","img2/100/Congruent/L/C_Dist_100_LN_6_LD_20_RN_5_RD_25_0.png","img2/100/Incongruent/R/I_Dist_100_LN_12_LD_30_RN_2_RD_4_1.png","img2/100/Congruent/L/C_Dist_100_LN_11_LD_22_RN_4_RD_10_0.png","img2/300/Incongruent/R/I_Dist_300_LN_13_LD_26_RN_12_RD_15_1.png","img2/100/Incongruent/L/I_Dist_100_LN_3_LD_5_RN_11_RD_22_0.png","img2/300/Congruent/L/C_Dist_300_LN_11_LD_22_RN_1_RD_5_0.png","img2/200/Congruent/L/C_Dist_200_LN_12_LD_15_RN_6_RD_10_0.png","img2/200/Congruent/L/C_Dist_200_LN_11_LD_22_RN_3_RD_10_0.png","img2/300/Incongruent/R/I_Dist_300_LN_4_LD_20_RN_2_RD_4_1.png","img2/200/Congruent/L/C_Dist_200_LN_4_LD_8_RN_3_RD_10_0.png","img2/300/Congruent/R/C_Dist_300_LN_1_LD_30_RN_8_RD_24_1.png","img2/100/Incongruent/R/I_Dist_100_LN_12_LD_30_RN_2_RD_4_1.png","img2/200/Incongruent/L/I_Dist_200_LN_1_LD_3_RN_2_RD_15_0.png","img2/100/Incongruent/R/I_Dist_100_LN_10_LD_25_RN_9_RD_18_1.png","img2/200/Congruent/R/C_Dist_200_LN_3_LD_6_RN_14_RD_20_1.png","img2/300/Congruent/R/C_Dist_300_LN_2_LD_10_RN_12_RD_24_1.png","img2/200/Congruent/R/C_Dist_200_LN_7_LD_15_RN_18_RD_27_1.png","img2/200/Congruent/R/C_Dist_200_LN_13_LD_26_RN_14_RD_20_1.png","img2/300/Incongruent/L/I_Dist_300_LN_8_LD_10_RN_9_RD_18_0.png","img2/200/Incongruent/L/I_Dist_200_LN_7_LD_10_RN_12_RD_24_0.png","img2/200/Congruent/R/C_Dist_200_LN_1_LD_2_RN_21_RD_30_1.png"],"dist100_C":[["C_Dist_100_LN_10_LD_25_RN_3_RD_10_0.png","C_Dist_100_LN_11_LD_22_RN_4_RD_10_0.png","C_Dist_100_LN_11_LD_22_RN_6_RD_15_0.png","C_Dist_100_LN_15_LD_25_RN_13_RD_26_0.png","C_Dist_100_LN_3_LD_6_RN_2_RD_5_0.png","C_Dist_100_LN_6_LD_20_RN_5_RD_25_0.png","C_Dist_100_LN_8_LD_16_RN_2_RD_5_0.png","C_Dist_100_LN_9_LD_15_RN_8_RD_16_0.png"],["C_Dist_100_LN_1_LD_2_RN_18_RD_30_1.png","C_Dist_100_LN_1_LD_2_RN_3_RD_5_1.png","C_Dist_100_LN_12_LD_30_RN_13_RD_26_1.png","C_Dist_100_LN_2_LD_5_RN_11_RD_22_1.png","C_Dist_100_LN_2_LD_5_RN_6_RD_12_1.png","C_Dist_100_LN_3_LD_20_RN_4_RD_16_1.png","C_Dist_100_LN_4_LD_10_RN_15_RD_30_1.png","C_Dist_100_LN_4_LD_8_RN_6_RD_10_1.png","C_Dist_100_LN_6_LD_12_RN_15_RD_25_1.png","C_Dist_100_LN_7_LD_14_RN_15_RD_25_1.png","C_Dist_100_LN_7_LD_14_RN_9_RD_15_1.png"]],"dist100_I":[["I_Dist_100_LN_1_LD_2_RN_8_RD_20_0.png","I_Dist_100_LN_2_LD_4_RN_6_RD_15_0.png","I_Dist_100_LN_2_LD_4_RN_8_RD_20_0.png","I_Dist_100_LN_3_LD_5_RN_11_RD_22_0.png","I_Dist_100_LN_3_LD_5_RN_8_RD_16_0.png","I_Dist_100_LN_3_LD_6_RN_4_RD_10_0.png","I_Dist_100_LN_3_LD_9_RN_7_RD_30_0.png","I_Dist_100_LN_4_LD_8_RN_8_RD_20_0.png","I_Dist_100_LN_6_LD_10_RN_11_RD_22_0.png","I_Dist_100_LN_6_LD_10_RN_13_RD_26_0.png","I_Dist_100_LN_6_LD_10_RN_7_RD_14_0.png","I_Dist_100_LN_9_LD_10_RN_20_RD_25_0.png","I_Dist_100_LN_9_LD_15_RN_13_RD_26_0.png","I_Dist_100_LN_9_LD_15_RN_14_RD_28_0.png"],["I_Dist_100_LN_10_LD_25_RN_8_RD_16_1.png","I_Dist_100_LN_10_LD_25_RN_9_RD_18_1.png","I_Dist_100_LN_11_LD_22_RN_9_RD_15_1.png","I_Dist_100_LN_12_LD_24_RN_9_RD_15_1.png","I_Dist_100_LN_12_LD_30_RN_2_RD_4_1.png","I_Dist_100_LN_13_LD_26_RN_12_RD_20_1.png","I_Dist_100_LN_13_LD_26_RN_6_RD_10_1.png","I_Dist_100_LN_17_LD_30_RN_10_RD_15_1.png","I_Dist_100_LN_6_LD_12_RN_3_RD_5_1.png","I_Dist_100_LN_8_LD_16_RN_6_RD_10_1.png","I_Dist_100_LN_8_LD_20_RN_1_RD_2_1.png","I_Dist_100_LN_9_LD_18_RN_6_RD_10_1.png"]],"dist100_S":[["E_Dist_100_LN_2_LD_12_RN_2_RD_30_0.png","E_Dist_100_LN_6_LD_10_RN_6_RD_12_0.png"],["E_Dist_100_LN_6_LD_12_RN_6_RD_10_1.png"]],"dist200_C":[["C_Dist_200_LN_11_LD_22_RN_3_RD_10_0.png","C_Dist_200_LN_12_LD_15_RN_6_RD_10_0.png","C_Dist_200_LN_12_LD_20_RN_6_RD_15_0.png","C_Dist_200_LN_14_LD_28_RN_6_RD_20_0.png","C_Dist_200_LN_15_LD_25_RN_4_RD_10_0.png","C_Dist_200_LN_16_LD_20_RN_12_RD_20_0.png","C_Dist_200_LN_16_LD_30_RN_9_RD_27_0.png","C_Dist_200_LN_20_LD_25_RN_9_RD_15_0.png","C_Dist_200_LN_21_LD_30_RN_2_RD_4_0.png","C_Dist_200_LN_4_LD_10_RN_3_RD_15_0.png","C_Dist_200_LN_4_LD_8_RN_3_RD_10_0.png","C_Dist_200_LN_6_LD_15_RN_3_RD_15_0.png","C_Dist_200_LN_7_LD_21_RN_2_RD_15_0.png","C_Dist_200_LN_8_LD_15_RN_2_RD_6_0.png","C_Dist_200_LN_8_LD_15_RN_3_RD_9_0.png","C_Dist_200_LN_8_LD_15_RN_7_RD_21_0.png","C_Dist_200_LN_9_LD_20_RN_4_RD_16_0.png"],["C_Dist_200_LN_1_LD_2_RN_21_RD_30_1.png","C_Dist_200_LN_13_LD_26_RN_14_RD_20_1.png","C_Dist_200_LN_3_LD_10_RN_11_RD_22_1.png","C_Dist_200_LN_3_LD_10_RN_14_RD_28_1.png","C_Dist_200_LN_3_LD_10_RN_7_RD_14_1.png","C_Dist_200_LN_3_LD_12_RN_9_RD_20_1.png","C_Dist_200_LN_3_LD_6_RN_14_RD_20_1.png","C_Dist_200_LN_5_LD_10_RN_14_RD_20_1.png","C_Dist_200_LN_6_LD_12_RN_7_RD_10_1.png","C_Dist_200_LN_6_LD_20_RN_11_RD_22_1.png","C_Dist_200_LN_7_LD_15_RN_18_RD_27_1.png","C_Dist_200_LN_9_LD_30_RN_13_RD_26_1.png"]],"dist200_I":[["I_Dist_200_LN_1_LD_2_RN_3_RD_10_0.png","I_Dist_200_LN_1_LD_3_RN_2_RD_15_0.png","I_Dist_200_LN_3_LD_4_RN_11_RD_20_0.png","I_Dist_200_LN_4_LD_5_RN_6_RD_10_0.png","I_Dist_200_LN_4_LD_6_RN_14_RD_30_0.png","I_Dist_200_LN_7_LD_10_RN_12_RD_24_0.png","I_Dist_200_LN_7_LD_10_RN_14_RD_28_0.png","I_Dist_200_LN_7_LD_10_RN_8_RD_16_0.png"],["I_Dist_200_LN_11_LD_20_RN_3_RD_4_1.png","I_Dist_200_LN_14_LD_30_RN_12_RD_18_1.png","I_Dist_200_LN_14_LD_30_RN_6_RD_9_1.png","I_Dist_200_LN_3_LD_10_RN_1_RD_2_1.png","I_Dist_200_LN_4_LD_30_RN_1_RD_3_1.png","I_Dist_200_LN_6_LD_20_RN_3_RD_6_1.png","I_Dist_200_LN_7_LD_15_RN_4_RD_6_1.png","I_Dist_200_LN_7_LD_15_RN_6_RD_9_1.png","I_Dist_200_LN_9_LD_15_RN_8_RD_10_1.png"]],"dist200_S":[["E_Dist_200_LN_3_LD_6_RN_3_RD_10_0.png"],["E_Dist_200_LN_3_LD_10_RN_3_RD_6_1.png"]],"dist300_C":[["C_Dist_300_LN_11_LD_22_RN_1_RD_5_0.png","C_Dist_300_LN_11_LD_22_RN_2_RD_10_0.png","C_Dist_300_LN_11_LD_22_RN_4_RD_20_0.png","C_Dist_300_LN_12_LD_24_RN_2_RD_10_0.png","C_Dist_300_LN_18_LD_20_RN_9_RD_15_0.png","C_Dist_300_LN_20_LD_25_RN_13_RD_26_0.png","C_Dist_300_LN_20_LD_25_RN_14_RD_28_0.png","C_Dist_300_LN_20_LD_25_RN_5_RD_10_0.png","C_Dist_300_LN_20_LD_25_RN_8_RD_16_0.png","C_Dist_300_LN_20_LD_25_RN_9_RD_18_0.png","C_Dist_300_LN_24_LD_30_RN_2_RD_4_0.png","C_Dist_300_LN_24_LD_30_RN_8_RD_16_0.png","C_Dist_300_LN_3_LD_6_RN_2_RD_10_0.png","C_Dist_300_LN_4_LD_10_RN_1_RD_10_0.png","C_Dist_300_LN_4_LD_5_RN_2_RD_4_0.png","C_Dist_300_LN_8_LD_16_RN_1_RD_5_0.png","C_Dist_300_LN_9_LD_10_RN_3_RD_5_0.png"],["C_Dist_300_LN_1_LD_20_RN_7_RD_20_1.png","C_Dist_300_LN_1_LD_3_RN_19_RD_30_1.png","C_Dist_300_LN_1_LD_30_RN_8_RD_24_1.png","C_Dist_300_LN_1_LD_5_RN_11_RD_22_1.png","C_Dist_300_LN_1_LD_5_RN_3_RD_6_1.png","C_Dist_300_LN_1_LD_5_RN_6_RD_12_1.png","C_Dist_300_LN_2_LD_10_RN_12_RD_24_1.png","C_Dist_300_LN_2_LD_20_RN_10_RD_25_1.png","C_Dist_300_LN_3_LD_12_RN_11_RD_20_1.png","C_Dist_300_LN_3_LD_6_RN_4_RD_5_1.png","C_Dist_300_LN_4_LD_20_RN_13_RD_26_1.png","C_Dist_300_LN_5_LD_25_RN_6_RD_12_1.png","C_Dist_300_LN_5_LD_25_RN_7_RD_14_1.png","C_Dist_300_LN_7_LD_14_RN_20_RD_25_1.png","C_Dist_300_LN_8_LD_15_RN_10_RD_12_1.png"]],"dist300_I":[["I_Dist_300_LN_1_LD_2_RN_2_RD_10_0.png","I_Dist_300_LN_1_LD_2_RN_3_RD_15_0.png","I_Dist_300_LN_2_LD_4_RN_6_RD_30_0.png","I_Dist_300_LN_3_LD_6_RN_4_RD_20_0.png","I_Dist_300_LN_4_LD_5_RN_6_RD_12_0.png","I_Dist_300_LN_4_LD_5_RN_8_RD_16_0.png","I_Dist_300_LN_7_LD_10_RN_8_RD_20_0.png","I_Dist_300_LN_8_LD_10_RN_14_RD_28_0.png","I_Dist_300_LN_8_LD_10_RN_9_RD_18_0.png"],["I_Dist_300_LN_13_LD_26_RN_12_RD_15_1.png","I_Dist_300_LN_4_LD_20_RN_2_RD_4_1.png"]],"dist300_S":[["E_Dist_300_LN_9_LD_12_RN_9_RD_20_0.png"],["E_Dist_300_LN_18_LD_30_RN_18_RD_20_1.png","E_Dist_300_LN_3_LD_10_RN_3_RD_5_1.png","E_Dist_300_LN_9_LD_20_RN_9_RD_12_1.png"]],"dist500_C":[["C_Dist_500_LN_10_LD_13_RN_7_RD_26_0.png","C_Dist_500_LN_10_LD_15_RN_4_RD_24_0.png","C_Dist_500_LN_12_LD_16_RN_3_RD_12_0.png","C_Dist_500_LN_12_LD_18_RN_4_RD_24_0.png","C_Dist_500_LN_15_LD_18_RN_5_RD_15_0.png","C_Dist_500_LN_15_LD_20_RN_1_RD_4_0.png","C_Dist_500_LN_18_LD_27_RN_1_RD_6_0.png","C_Dist_500_LN_20_LD_24_RN_1_RD_3_0.png","C_Dist_500_LN_20_LD_24_RN_3_RD_9_0.png","C_Dist_500_LN_20_LD_24_RN_7_RD_21_0.png","C_Dist_500_LN_20_LD_28_RN_3_RD_14_0.png","C_Dist_500_LN_21_LD_28_RN_6_RD_24_0.png","C_Dist_500_LN_22_LD_28_RN_2_RD_7_0.png","C_Dist_500_LN_25_LD_30_RN_9_RD_27_0.png","C_Dist_500_LN_4_LD_6_RN_1_RD_6_0.png","C_Dist_500_LN_5_LD_6_RN_2_RD_6_0.png","C_Dist_500_LN_6_LD_9_RN_1_RD_6_0.png","C_Dist_500_LN_7_LD_10_RN_1_RD_5_0.png","C_Dist_500_LN_8_LD_12_RN_1_RD_6_0.png","C_Dist_500_LN_8_LD_12_RN_4_RD_24_0.png"],["C_Dist_500_LN_1_LD_4_RN_12_RD_16_1.png","C_Dist_500_LN_1_LD_4_RN_9_RD_12_1.png","C_Dist_500_LN_1_LD_9_RN_11_RD_18_1.png","C_Dist_500_LN_10_LD_24_RN_22_RD_24_1.png","C_Dist_500_LN_2_LD_12_RN_10_RD_15_1.png","C_Dist_500_LN_2_LD_12_RN_12_RD_18_1.png","C_Dist_500_LN_2_LD_12_RN_4_RD_6_1.png","C_Dist_500_LN_2_LD_24_RN_7_RD_12_1.png","C_Dist_500_LN_2_LD_5_RN_18_RD_20_1.png","C_Dist_500_LN_2_LD_5_RN_9_RD_10_1.png","C_Dist_500_LN_2_LD_8_RN_12_RD_16_1.png","C_Dist_500_LN_2_LD_8_RN_21_RD_28_1.png","C_Dist_500_LN_3_LD_10_RN_4_RD_5_1.png","C_Dist_500_LN_3_LD_12_RN_15_RD_20_1.png","C_Dist_500_LN_3_LD_30_RN_6_RD_10_1.png","C_Dist_500_LN_3_LD_8_RN_14_RD_16_1.png","C_Dist_500_LN_4_LD_16_RN_15_RD_20_1.png","C_Dist_500_LN_4_LD_24_RN_12_RD_18_1.png","C_Dist_500_LN_5_LD_14_RN_6_RD_7_1.png","C_Dist_500_LN_7_LD_21_RN_20_RD_24_1.png","C_Dist_500_LN_7_LD_28_RN_12_RD_16_1.png","C_Dist_500_LN_7_LD_28_RN_9_RD_12_1.png","C_Dist_500_LN_9_LD_27_RN_20_RD_24_1.png"]],"dist500_I":[["I_Dist_500_LN_2_LD_3_RN_4_RD_24_0.png","I_Dist_500_LN_5_LD_6_RN_6_RD_18_0.png","I_Dist_500_LN_7_LD_8_RN_9_RD_24_0.png"],["I_Dist_500_LN_7_LD_21_RN_5_RD_6_1.png"]],"dist500_S":[["E_Dist_500_LN_6_LD_8_RN_6_RD_24_0.png"],["E_Dist_500_LN_2_LD_12_RN_2_RD_3_1.png","E_Dist_500_LN_6_LD_24_RN_6_RD_8_1.png"]]}},{"start_time":1551886950684,"click_time":1551886954982,"finger_time":1551886952522,"fix_duration":780.6964323115003,"trial":1,"RT":1838,"MT":2460,"sideResp":2,"stimulus":[],"xmouse":[805,805,805,805,805,805,805,805,805,805,805,805,805,805,805,805,805,805,805,805,805,805,805,805,805,805,805,805,805,805,805,805,805,805,805,805,805,805,805,805,805,805,805,805,805,805,805,805,805,805,805,805,805,805,805,805,805,805,805,805,805,805,805,805,805,805,805,805,805,805,805,805,805,805,805,805,805,805,805,805,805,805,805,805,805,805,805,805,800,772,751,730,713,711,711,711,711,711,711,711,711,711,712,717,723,749,765,787,845,1033,1109,1136,1146,1146,1146,1146,1146,1146,1129,1013,940,895,880,879,879,879,879,879,879,879,879,878,867,855,837,829,824,824,823,823,823,823,823,823,823,823,823,823,823,823,823,823,823,823,823,823,823,823,823,823,823,823,823,823,823,823,823,823,823,823,823,823,823,823,823,823,823,823,823,823,823,823,823,823,823,823,823,823,823,823,823,823,823,825,883,933,975,1001,1015,1033,1038,1039,1039,1039,1039,1039,1039,1038,1038,1040,1042,1044,1053,1059,1077],"ymouse":[494,494,494,494,494,494,494,494,494,494,494,494,494,494,494,494,494,494,494,494,494,494,494,494,494,494,494,494,494,494,494,494,494,494,494,494,494,494,494,494,494,494,494,494,494,494,494,494,494,494,494,494,494,494,494,494,494,494,494,494,494,494,494,494,494,494,494,494,494,494,494,494,494,494,494,494,494,494,494,494,494,494,494,494,494,494,494,494,505,548,565,575,579,580,580,580,580,580,580,580,580,580,578,576,571,557,548,534,511,447,414,405,402,402,402,402,402,403,418,487,519,540,546,546,546,546,546,546,546,546,546,546,546,546,546,547,548,548,548,548,548,548,548,548,548,548,548,548,548,548,548,548,548,548,548,548,548,548,548,548,548,548,548,548,548,548,548,548,548,548,548,548,548,548,548,548,548,548,548,548,548,548,548,548,548,548,548,548,548,548,548,548,548,547,473,411,354,317,295,253,234,221,207,199,193,187,177,167,150,129,126,121,109,101,82],"timestamp_mouse":[18,37,59,79,97,119,138,157,178,198,217,239,258,277,297,319,338,358,378,399,417,437,458,478,499,517,538,559,578,598,618,638,659,677,698,719,738,759,777,799,818,838,859,877,899,918,938,958,979,998,1017,1038,1059,1078,1097,1119,1139,1157,1178,1199,1217,1237,1258,1278,1298,1319,1337,1359,1379,1397,1418,1438,1458,1477,1499,1518,1537,1558,1579,1599,1618,1638,1659,1678,1697,1718,1738,1758,1779,1799,1818,1838,1857,1878,1898,1918,1939,1958,1979,1998,2017,2037,2058,2078,2098,2117,2138,2158,2177,2197,2219,2238,2258,2278,2297,2319,2337,2358,2378,2397,2418,2437,2458,2478,2499,2518,2539,2558,2579,2597,2618,2638,2657,2678,2697,2719,2737,2758,2778,2799,2817,2839,2859,2877,2897,2919,2939,2958,2977,2998,3018,3039,3058,3077,3099,3118,3137,3158,3178,3198,3217,3237,3258,3278,3298,3318,3338,3358,3377,3398,3418,3439,3458,3479,3498,3518,3539,3559,3577,3598,3618,3637,3659,3677,3698,3719,3738,3759,3779,3797,3818,3838,3859,3878,3897,3917,3939,3958,3977,3997,4018,4038,4058,4077,4098,4118,4139,4158,4178,4198,4218,4238,4258,4277,4297],"xSR":741.5,"ySR":469.95,"xT1":424.9,"yT1":0,"xT2":1058.1,"yT2":0,"toosoon":0,"cond_shown":"Incongruent","ratio_trial":100,"L_num":11,"L_den":22,"R_num":9,"R_den":15,"correct_side":2,"subjID":"DanielJimenezAngel20","gender":"0","school":"sexto","age":"10"},{"start_time":1551886956586,"click_time":1551886957821,"finger_time":1551886957481,"fix_duration":703.343173437269,"trial":2,"RT":895,"MT":340,"sideResp":2,"stimulus":[],"xmouse":[789,789,789,789,789,789,789,789,789,789,789,789,789,789,789,789,789,789,789,789,789,789,789,789,789,789,789,789,789,789,789,789,789,789,789,789,789,789,789,789,789,793,799,824,886,899,903,906,921,1022,1094,1159,1194,1204,1204,1204,1204,1203,1199,1174,1164,1153],"ymouse":[510,510,510,510,510,510,510,510,510,510,510,510,510,510,510,510,510,510,510,510,510,510,510,510,510,510,510,510,510,510,510,510,510,510,510,510,510,510,510,510,510,509,501,472,415,401,395,391,360,219,143,83,54,46,46,46,46,45,46,56,61,66],"timestamp_mouse":[18,36,55,76,96,115,136,156,175,195,216,237,256,277,296,317,336,356,375,395,416,435,455,475,496,516,536,556,575,595,615,636,655,675,695,715,735,757,776,795,816,836,855,876,895,916,936,956,976,996,1016,1035,1056,1075,1096,1116,1136,1155,1175,1195,1216,1235],"xSR":741.5,"ySR":469.95,"xT1":424.9,"yT1":0,"xT2":1058.1,"yT2":0,"toosoon":0,"cond_shown":"Incongruent","ratio_trial":100,"L_num":3,"L_den":5,"R_num":8,"R_den":16,"correct_side":1,"subjID":"DanielJimenezAngel20","gender":"0","school":"sexto","age":"10"},{"start_time":1551886960088,"click_time":1551886961621,"finger_time":1551886960982,"fix_duration":445.42438247350515,"trial":3,"RT":894,"MT":639,"sideResp":1,"stimulus":[],"xmouse":[790,790,790,790,790,790,790,790,790,790,790,790,790,790,790,790,790,790,790,790,790,790,790,790,790,790,790,790,790,790,790,790,790,790,790,790,790,790,790,790,790,790,790,788,686,595,509,425,366,344,341,341,340,339,335,334,332,332,332,338,346,357,371,382,394,399,399,399,401,407,409,409,411,413,421,425,427],"ymouse":[540,540,540,540,540,540,540,540,540,540,540,540,540,540,540,540,540,540,540,540,540,540,540,540,540,540,540,540,540,540,540,540,540,540,540,540,540,540,540,540,540,540,540,540,484,443,407,371,345,327,322,321,319,313,286,276,270,268,263,250,235,218,193,177,162,155,154,153,150,138,134,132,128,123,110,103,98],"timestamp_mouse":[14,34,54,74,94,114,134,155,174,193,215,234,254,275,294,315,333,353,373,394,414,433,454,475,494,514,535,553,573,595,614,634,653,673,695,713,735,753,774,793,813,835,853,874,894,915,933,954,975,994,1014,1034,1054,1074,1094,1114,1134,1154,1174,1193,1215,1234,1254,1274,1294,1313,1333,1354,1373,1393,1415,1434,1454,1473,1493,1514,1533],"xSR":741.5,"ySR":469.95,"xT1":424.9,"yT1":0,"xT2":1058.1,"yT2":0,"toosoon":0,"cond_shown":"Incongruent","ratio_trial":200,"L_num":7,"L_den":10,"R_num":12,"R_den":24,"correct_side":1,"subjID":"DanielJimenezAngel20","gender":"0","school":"sexto","age":"10"},{"start_time":1551886963853,"click_time":1551886965641,"finger_time":1551886965281,"fix_duration":250,"trial":4,"RT":1428,"MT":360,"sideResp":2,"stimulus":[],"xmouse":[748,748,748,748,748,748,748,748,748,748,748,748,748,748,748,748,748,748,748,748,748,748,748,748,748,748,748,748,748,748,748,748,748,748,748,748,748,748,748,748,748,748,748,748,748,748,748,748,748,748,748,748,748,748,748,748,748,748,748,748,748,748,748,748,748,748,748,748,748,748,749,766,801,855,956,1004,1031,1033,1033,1033,1035,1045,1051,1057,1059,1060,1062,1064,1066,1070],"ymouse":[480,480,480,480,480,480,480,480,480,480,480,480,480,480,480,480,480,480,480,480,480,480,480,480,480,480,480,480,480,480,480,480,480,480,480,480,480,480,480,480,480,480,480,480,480,480,480,480,480,480,480,480,480,480,480,480,480,480,480,480,480,480,480,480,480,480,480,480,480,480,479,461,428,381,289,240,194,184,178,173,163,140,131,119,111,108,106,103,100,95],"timestamp_mouse":[9,29,48,68,90,108,130,149,168,190,209,228,249,269,289,308,329,348,369,389,409,428,449,470,488,510,529,548,570,589,608,629,650,668,690,710,730,748,770,789,808,828,849,868,889,909,928,949,970,989,1009,1029,1048,1070,1089,1108,1129,1149,1169,1188,1209,1230,1250,1268,1289,1310,1329,1350,1368,1389,1409,1428,1450,1470,1489,1508,1529,1549,1569,1590,1608,1629,1649,1670,1689,1709,1729,1749,1769,1788],"xSR":741.5,"ySR":469.95,"xT1":424.9,"yT1":0,"xT2":1058.1,"yT2":0,"toosoon":0,"cond_shown":"Incongruent","ratio_trial":300,"L_num":4,"L_den":20,"R_num":2,"R_den":4,"correct_side":2,"subjID":"DanielJimenezAngel20","gender":"0","school":"sexto","age":"10"},{"start_time":1551886968058,"click_time":1551886969523,"finger_time":1551886969042,"fix_duration":1396.663727424144,"trial":5,"RT":984,"MT":481,"sideResp":2,"stimulus":[],"xmouse":[756,756,756,756,756,756,756,756,756,756,756,756,756,756,756,756,756,756,756,756,756,756,756,756,756,756,756,756,756,756,756,756,756,756,756,756,756,756,756,756,756,756,756,756,756,756,756,761,795,854,924,1083,1107,1108,1108,1108,1108,1108,1108,1108,1106,1100,1096,1089,1085,1081,1080,1077,1076,1075,1075,1075,1075,1075],"ymouse":[526,526,526,526,526,526,526,526,526,526,526,526,526,526,526,526,526,526,526,526,526,526,526,526,526,526,526,526,526,526,526,526,526,526,526,526,526,526,526,526,526,526,526,526,526,526,526,526,496,445,385,269,255,255,255,255,255,255,254,251,236,210,195,178,165,150,145,127,119,114,109,103,100,96],"timestamp_mouse":[4,24,45,63,85,104,124,143,164,185,203,223,243,263,284,305,324,343,364,383,405,424,444,463,485,503,523,543,564,584,603,623,645,663,685,704,723,743,764,784,803,824,843,865,884,904,924,943,964,984,1004,1024,1044,1065,1083,1103,1123,1144,1163,1184,1203,1223,1244,1264,1284,1304,1324,1344,1364,1384,1405,1424,1444,1464],"xSR":741.5,"ySR":469.95,"xT1":424.9,"yT1":0,"xT2":1058.1,"yT2":0,"toosoon":0,"cond_shown":"Incongruent","ratio_trial":100,"L_num":6,"L_den":10,"R_num":13,"R_den":26,"correct_side":1,"subjID":"DanielJimenezAngel20","gender":"0","school":"sexto","age":"10"},{"start_time":1551886972529,"click_time":1551886975182,"finger_time":1551886974723,"fix_duration":1187.1353688383217,"trial":6,"RT":2194,"MT":459,"sideResp":1,"stimulus":[],"xmouse":[762,762,762,762,762,762,762,762,762,762,762,762,762,762,762,762,762,762,762,762,762,762,762,762,762,762,762,762,762,762,762,762,762,762,762,762,762,762,762,762,762,762,762,762,762,762,762,762,762,762,762,762,762,762,762,762,762,762,762,762,762,762,762,762,762,762,762,762,762,762,762,762,762,762,762,762,762,762,762,762,762,762,763,764,767,767,767,767,767,767,767,767,767,767,767,767,767,767,767,767,767,767,767,767,767,767,767,762,744,694,571,503,442,437,433,430,426,416,412,411,411,412,421,429,438,449,460,465,465,466,466,470,472],"ymouse":[540,540,540,540,540,540,540,540,540,540,540,540,540,540,540,540,540,540,540,540,540,540,540,540,540,540,540,540,540,540,540,540,540,540,540,540,540,540,540,540,540,540,540,540,540,540,540,540,540,540,540,540,540,540,540,540,540,540,540,540,540,540,540,540,540,540,540,540,540,540,540,540,540,540,540,540,540,540,540,540,540,540,540,540,540,540,540,540,540,540,540,540,540,540,540,540,540,540,540,540,540,540,540,540,540,540,540,537,525,489,404,358,321,315,304,293,280,254,240,232,221,215,191,176,159,141,126,115,114,113,111,101,91],"timestamp_mouse":[12,33,53,73,93,114,132,153,174,192,214,234,252,272,293,313,332,354,372,394,412,432,453,474,494,512,533,553,574,594,613,633,653,673,693,714,732,754,774,793,813,833,853,874,892,913,933,953,972,993,1013,1032,1054,1073,1093,1112,1132,1153,1172,1194,1212,1232,1252,1272,1294,1314,1333,1353,1372,1394,1414,1432,1454,1473,1494,1512,1533,1554,1572,1593,1613,1632,1652,1672,1693,1713,1733,1753,1772,1794,1814,1834,1853,1873,1892,1913,1933,1953,1973,1994,2012,2033,2053,2073,2094,2112,2133,2152,2174,2194,2213,2232,2252,2272,2292,2314,2333,2353,2373,2393,2414,2432,2452,2472,2492,2512,2532,2553,2573,2592,2612,2632,2653],"xSR":741.5,"ySR":469.95,"xT1":424.9,"yT1":0,"xT2":1058.1,"yT2":0,"toosoon":0,"cond_shown":"Incongruent","ratio_trial":200,"L_num":1,"L_den":3,"R_num":2,"R_den":15,"correct_side":1,"subjID":"DanielJimenezAngel20","gender":"0","school":"sexto","age":"10"},{"start_time":1551886977630,"click_time":1551886979882,"finger_time":1551886979122,"fix_duration":1247.550118839556,"trial":7,"RT":1492,"MT":760,"sideResp":1,"stimulus":[],"xmouse":[791,791,791,791,791,791,791,791,791,791,791,791,791,791,791,791,791,791,791,791,791,791,791,791,791,791,791,791,791,791,791,791,791,791,791,791,791,791,791,791,791,791,791,791,791,791,791,791,791,791,791,791,791,791,791,791,791,791,791,791,791,791,791,791,791,791,791,791,791,791,791,791,783,750,721,682,671,660,654,648,642,639,635,635,631,623,617,607,595,574,550,521,476,469,466,464,461,460,460,460,460,460,460,460,461,462,462,462,462,462,462,462,464],"ymouse":[541,541,541,541,541,541,541,541,541,541,541,541,541,541,541,541,541,541,541,541,541,541,541,541,541,541,541,541,541,541,541,541,541,541,541,541,541,541,541,541,541,541,541,541,541,541,541,541,541,541,541,541,541,541,541,541,541,541,541,541,541,541,541,541,541,541,541,541,541,541,541,541,531,498,463,410,386,345,325,308,296,285,253,236,222,208,202,195,187,173,162,150,135,131,129,125,117,108,106,106,106,106,106,105,103,102,102,102,102,102,102,101,95],"timestamp_mouse":[12,32,52,72,92,111,131,153,172,192,212,232,251,272,293,311,332,352,372,392,412,432,452,473,493,511,532,552,572,593,612,633,652,673,691,711,733,751,772,792,812,832,852,872,891,913,932,951,973,993,1012,1033,1053,1071,1093,1113,1133,1152,1173,1192,1211,1232,1252,1271,1291,1312,1332,1352,1372,1391,1413,1431,1452,1472,1492,1511,1532,1551,1573,1592,1613,1631,1652,1672,1692,1712,1731,1751,1772,1792,1812,1832,1852,1872,1892,1911,1931,1951,1972,1992,2013,2032,2051,2073,2092,2113,2131,2152,2172,2192,2212,2231,2252],"xSR":741.5,"ySR":469.95,"xT1":424.9,"yT1":0,"xT2":1058.1,"yT2":0,"toosoon":0,"cond_shown":"Congruent","ratio_trial":300,"L_num":3,"L_den":6,"R_num":2,"R_den":10,"correct_side":1,"subjID":"DanielJimenezAngel20","gender":"0","school":"sexto","age":"10"},{"start_time":1551886981255,"click_time":1551886983141,"finger_time":1551886982881,"fix_duration":250,"trial":8,"RT":1626,"MT":260,"sideResp":1,"stimulus":[],"xmouse":[784,784,784,784,784,784,784,784,784,784,784,784,784,784,784,784,784,784,784,784,784,784,784,784,784,784,784,784,784,784,784,784,784,784,784,784,784,784,784,784,784,784,784,784,784,784,784,784,784,784,784,784,784,784,784,784,784,784,784,784,784,784,784,784,784,784,784,784,784,784,784,784,784,784,784,784,784,784,784,778,767,685,635,594,572,545,536,525,520,516,513,503,500,499,495],"ymouse":[510,510,510,510,510,510,510,510,510,510,510,510,510,510,510,510,510,510,510,510,510,510,510,510,510,510,510,510,510,510,510,510,510,510,510,510,510,510,510,510,510,510,510,510,510,510,510,510,510,510,510,510,510,510,510,510,510,510,510,510,510,510,510,510,510,510,510,510,510,510,510,510,510,510,510,510,510,510,510,501,488,391,330,277,238,181,161,144,138,134,129,117,112,107,96],"timestamp_mouse":[7,27,48,66,88,108,126,146,167,188,206,226,247,267,286,308,327,347,366,387,406,426,446,467,486,508,527,547,568,586,606,627,647,667,687,708,726,746,767,786,808,826,848,866,887,907,927,947,966,988,1008,1026,1046,1068,1086,1108,1127,1148,1167,1187,1208,1228,1246,1268,1288,1307,1327,1347,1366,1388,1407,1427,1447,1468,1486,1506,1527,1547,1567,1586,1606,1626,1646,1667,1687,1707,1727,1746,1767,1787,1806,1826,1847,1868,1886],"xSR":741.5,"ySR":469.95,"xT1":424.9,"yT1":0,"xT2":1058.1,"yT2":0,"toosoon":0,"cond_shown":"Congruent","ratio_trial":100,"L_num":1,"L_den":2,"R_num":3,"R_den":5,"correct_side":2,"subjID":"DanielJimenezAngel20","gender":"0","school":"sexto","age":"10"},{"start_time":1551886986144,"click_time":1551886987703,"finger_time":1551886987281,"fix_duration":1099.7138161763144,"trial":9,"RT":1137,"MT":422,"sideResp":1,"stimulus":[],"xmouse":[809,809,809,809,809,809,809,809,809,809,809,809,809,809,809,809,809,809,809,809,809,809,809,809,809,809,809,809,809,809,809,809,809,809,809,809,809,809,809,809,809,809,809,809,809,809,809,809,809,809,809,809,809,809,806,801,779,750,713,690,675,668,661,646,618,618,618,618,618,618,618,618,618,618,618,618,618,507],"ymouse":[506,506,506,506,506,506,506,506,506,506,506,506,506,506,506,506,506,506,506,506,506,506,506,506,506,506,506,506,506,506,506,506,506,506,506,506,506,506,506,506,506,506,506,506,506,506,506,506,506,506,506,506,506,506,493,481,414,339,251,179,146,127,109,72,5,5,5,5,5,5,5,5,5,5,5,5,5,3],"timestamp_mouse":[18,38,59,78,98,117,137,159,177,197,218,238,258,278,297,318,338,358,377,397,419,437,457,478,499,517,539,557,577,597,618,638,659,677,698,717,738,759,778,797,817,839,858,877,897,918,938,957,977,999,1018,1037,1059,1078,1098,1118,1137,1157,1178,1198,1218,1238,1257,1279,1298,1319,1338,1358,1377,1399,1418,1438,1458,1477,1497,1517,1538,1559],"xSR":741.5,"ySR":469.95,"xT1":424.9,"yT1":0,"xT2":1058.1,"yT2":0,"toosoon":0,"cond_shown":"Incongruent","ratio_trial":200,"L_num":1,"L_den":2,"R_num":3,"R_den":10,"correct_side":1,"subjID":"DanielJimenezAngel20","gender":"0","school":"sexto","age":"10"},{"start_time":1551886988853,"click_time":1551886990202,"finger_time":1551886989862,"fix_duration":250,"trial":10,"RT":1009,"MT":340,"sideResp":1,"stimulus":[],"xmouse":[754,754,754,754,754,754,754,754,754,754,754,754,754,754,754,754,754,754,754,754,754,754,754,754,754,754,754,754,754,754,754,754,754,754,754,754,754,754,754,754,754,754,754,754,754,754,754,754,755,750,728,680,644,610,585,575,551,540,533,526,518,508,505,504,504,504,504,504],"ymouse":[511,511,511,511,511,511,511,511,511,511,511,511,511,511,511,511,511,511,511,511,511,511,511,511,511,511,511,511,511,511,511,511,511,511,511,511,511,511,511,511,511,511,511,511,511,511,511,511,509,500,474,427,387,346,311,291,249,228,213,196,179,154,142,131,122,107,100,98],"timestamp_mouse":[8,29,50,68,88,110,129,149,168,188,210,229,248,269,290,308,328,350,368,388,410,428,449,469,488,510,528,550,568,588,609,628,649,670,689,709,729,750,770,789,809,828,848,869,890,908,929,948,970,988,1009,1028,1049,1069,1089,1108,1128,1148,1168,1188,1208,1229,1249,1268,1288,1308,1328,1348],"xSR":741.5,"ySR":469.95,"xT1":424.9,"yT1":0,"xT2":1058.1,"yT2":0,"toosoon":0,"cond_shown":"Congruent","ratio_trial":300,"L_num":20,"L_den":25,"R_num":14,"R_den":28,"correct_side":1,"subjID":"DanielJimenezAngel20","gender":"0","school":"sexto","age":"10"},{"start_time":1551886993441,"click_time":1551886994482,"finger_time":1551886994361,"fix_duration":719.7248000921995,"trial":11,"RT":920,"MT":121,"sideResp":2,"stimulus":[],"xmouse":[775,775,775,776,778,778,778,778,778,778,778,778,779,779,779,779,779,780,783,784,784,784,784,784,784,784,784,784,784,784,784,784,783,783,783,783,783,783,783,783,783,783,785,790,800,818,847,936,974,1020,1050,1064,1076],"ymouse":[523,523,522,521,517,515,514,513,513,513,513,513,513,513,513,512,505,495,483,478,478,478,478,478,477,477,477,477,477,477,477,479,480,480,480,480,480,480,480,480,483,486,491,493,492,482,456,351,282,202,135,102,71],"timestamp_mouse":[3,21,41,60,82,102,121,140,161,182,201,222,241,260,280,301,321,341,361,381,401,420,440,461,480,501,521,541,561,581,601,620,641,661,681,700,721,741,760,781,801,820,840,861,881,900,920,940,961,981,1001,1022,1041],"xSR":741.5,"ySR":469.95,"xT1":424.9,"yT1":0,"xT2":1058.1,"yT2":0,"toosoon":0,"cond_shown":"Congruent","ratio_trial":300,"L_num":7,"L_den":14,"R_num":20,"R_den":25,"correct_side":2,"subjID":"DanielJimenezAngel20","gender":"0","school":"sexto","age":"10"},{"start_time":1551886995812,"click_time":1551886997561,"finger_time":1551886997181,"fix_duration":250,"trial":12,"RT":1369,"MT":380,"sideResp":2,"stimulus":[],"xmouse":[818,818,818,818,818,818,818,818,818,818,818,818,818,818,818,818,818,818,818,818,818,818,818,818,818,818,818,818,818,818,818,818,818,818,818,818,818,818,818,818,818,818,818,818,818,818,818,818,818,818,818,818,818,818,818,818,818,818,818,818,818,818,818,818,818,818,818,823,870,909,941,954,957,957,957,958,960,968,983,991,996,1001,1006,1010,1025,1037,1052,1060],"ymouse":[495,495,495,495,495,495,495,495,495,495,495,495,495,495,495,495,495,495,495,495,495,495,495,495,495,495,495,495,495,495,495,495,495,495,495,495,495,495,495,495,495,495,495,495,495,495,495,495,495,495,495,495,495,495,495,495,495,495,495,495,495,495,495,495,495,495,492,483,405,350,306,287,279,278,278,267,255,224,172,154,142,133,124,118,98,84,66,59],"timestamp_mouse":[11,30,51,69,90,110,130,150,169,190,210,230,250,270,291,309,331,349,369,389,410,429,451,471,489,510,529,549,571,590,610,630,649,669,690,710,729,750,770,789,811,829,849,870,889,909,929,950,969,990,1010,1031,1049,1071,1089,1110,1129,1149,1169,1189,1210,1230,1249,1270,1289,1310,1329,1349,1369,1390,1409,1430,1451,1471,1490,1509,1530,1550,1570,1590,1609,1629,1650,1670,1689,1710,1730,1749],"xSR":741.5,"ySR":469.95,"xT1":424.9,"yT1":0,"xT2":1058.1,"yT2":0,"toosoon":0,"cond_shown":"Congruent","ratio_trial":200,"L_num":3,"L_den":10,"R_num":14,"R_den":28,"correct_side":2,"subjID":"DanielJimenezAngel20","gender":"0","school":"sexto","age":"10"},{"start_time":1551887001250,"click_time":1551887002882,"finger_time":1551887002282,"fix_duration":1148.8035787644433,"trial":13,"RT":1032,"MT":600,"sideResp":2,"stimulus":[],"xmouse":[778,778,778,778,778,778,778,778,778,778,778,778,778,778,778,778,778,778,778,778,778,778,778,778,778,778,778,778,778,778,778,778,778,778,778,778,778,778,778,778,778,779,779,779,779,779,779,779,779,781,786,843,902,953,986,997,1004,1008,1011,1016,1022,1024,1024,1025,1025,1026,1030,1032,1035,1037,1039,1048,1052,1057,1062,1065,1071,1074,1077,1080,1084,1089],"ymouse":[498,498,498,498,498,498,498,498,498,498,498,498,498,498,498,498,498,498,498,498,498,498,498,498,498,498,498,498,498,498,498,498,498,498,498,498,498,498,498,498,498,495,495,495,495,495,495,495,494,491,486,429,381,335,296,280,258,243,229,215,202,196,189,184,182,176,164,155,150,146,143,133,130,126,121,118,114,111,108,106,102,98],"timestamp_mouse":[12,33,51,72,92,111,131,152,172,193,211,233,253,272,291,312,331,353,373,391,411,432,452,472,491,512,532,551,571,592,613,632,652,672,692,712,732,753,772,791,812,833,853,871,893,913,931,951,972,993,1012,1032,1052,1072,1091,1111,1131,1152,1171,1192,1213,1232,1251,1272,1292,1312,1332,1352,1371,1391,1412,1431,1452,1473,1491,1512,1532,1551,1572,1592,1612,1632],"xSR":741.5,"ySR":469.95,"xT1":424.9,"yT1":0,"xT2":1058.1,"yT2":0,"toosoon":0,"cond_shown":"Congruent","ratio_trial":200,"L_num":3,"L_den":12,"R_num":9,"R_den":20,"correct_side":2,"subjID":"DanielJimenezAngel20","gender":"0","school":"sexto","age":"10"},{"start_time":1551887004234,"click_time":1551887005902,"finger_time":1551887005402,"fix_duration":250,"trial":14,"RT":1168,"MT":500,"sideResp":2,"stimulus":[],"xmouse":[806,806,806,806,806,806,806,806,806,806,806,806,806,806,806,806,806,806,806,806,806,806,806,806,806,806,806,806,806,806,806,806,806,806,806,806,806,806,806,806,806,806,806,806,806,806,806,806,806,806,806,806,806,806,806,806,806,809,827,854,876,890,900,903,907,917,931,972,985,988,988,988,988,988,990,992,998,1009,1022,1036,1046,1049,1055,1059],"ymouse":[531,531,531,531,531,531,531,531,531,531,531,531,531,531,531,531,531,531,531,531,531,531,531,531,531,531,531,531,531,531,531,531,531,531,531,531,531,531,531,531,531,531,531,531,531,531,531,531,531,531,531,531,531,531,531,531,531,508,465,417,368,332,298,288,273,231,194,133,117,112,111,111,111,110,109,105,99,89,80,73,68,67,65,63],"timestamp_mouse":[8,29,49,69,89,107,128,149,168,188,209,228,249,268,289,308,328,348,368,388,409,429,448,469,488,508,528,548,568,589,609,628,648,668,689,709,728,749,769,787,809,829,848,868,888,909,928,949,968,988,1008,1028,1048,1068,1088,1109,1128,1148,1168,1188,1208,1228,1248,1268,1288,1308,1328,1348,1368,1389,1408,1428,1449,1468,1488,1508,1528,1548,1568,1588,1609,1628,1647,1668],"xSR":741.5,"ySR":469.95,"xT1":424.9,"yT1":0,"xT2":1058.1,"yT2":0,"toosoon":0,"cond_shown":"Incongruent","ratio_trial":300,"L_num":4,"L_den":20,"R_num":2,"R_den":4,"correct_side":2,"subjID":"DanielJimenezAngel20","gender":"0","school":"sexto","age":"10"},{"start_time":1551887008512,"click_time":1551887010562,"finger_time":1551887010082,"fix_duration":250,"trial":15,"RT":1570,"MT":480,"sideResp":2,"stimulus":[],"xmouse":[776,776,776,776,776,776,776,776,776,776,776,776,776,776,776,776,776,776,776,776,776,776,776,776,776,776,776,776,776,776,776,776,776,776,776,776,776,776,776,776,776,776,776,776,776,776,776,776,776,776,776,776,776,778,781,781,781,781,781,781,781,781,781,781,781,781,781,781,781,781,781,781,782,783,783,785,789,796,812,879,907,928,948,953,962,974,986,996,1004,1005,1005,1007,1014,1023,1031,1032,1033,1036,1046,1052,1056,1058,1059],"ymouse":[506,506,506,506,506,506,506,506,506,506,506,506,506,506,506,506,506,506,506,506,506,506,506,506,506,506,506,506,506,506,506,506,506,506,506,506,506,506,506,506,506,506,506,506,506,506,506,506,506,506,506,506,506,502,497,494,493,493,493,493,493,493,493,493,493,493,493,493,493,493,498,507,511,512,512,512,508,490,451,312,260,213,148,118,109,99,88,73,61,60,59,58,55,52,50,49,49,49,49,49,49,49,49],"timestamp_mouse":[10,31,50,70,91,111,130,150,170,190,210,230,251,270,289,310,331,351,370,391,411,431,450,470,490,510,530,550,570,590,610,631,650,670,690,709,731,750,771,789,811,831,850,871,891,909,931,950,970,990,1010,1030,1049,1070,1090,1110,1130,1151,1170,1190,1210,1231,1250,1271,1291,1310,1331,1349,1370,1390,1410,1430,1450,1470,1490,1509,1530,1550,1570,1590,1610,1630,1650,1670,1690,1710,1731,1750,1770,1790,1810,1830,1851,1870,1890,1911,1931,1950,1970,1990,2010,2030,2050],"xSR":741.5,"ySR":469.95,"xT1":424.9,"yT1":0,"xT2":1058.1,"yT2":0,"toosoon":0,"cond_shown":"Incongruent","ratio_trial":200,"L_num":14,"L_den":30,"R_num":12,"R_den":18,"correct_side":2,"subjID":"DanielJimenezAngel20","gender":"0","school":"sexto","age":"10"},{"start_time":1551887014143,"click_time":1551887015762,"finger_time":1551887015182,"fix_duration":1220.5622484990615,"trial":16,"RT":1039,"MT":580,"sideResp":2,"stimulus":[],"xmouse":[788,788,788,788,788,788,788,788,788,788,788,788,788,788,788,788,788,788,788,788,788,788,788,788,788,788,788,788,788,788,788,788,788,788,788,788,788,788,788,788,788,788,788,788,788,788,788,788,788,791,802,829,837,839,844,849,857,885,901,919,925,940,956,977,1003,1029,1064,1070,1074,1076,1076,1081,1084,1085,1087,1087,1087,1087,1087,1088,1089],"ymouse":[521,521,521,521,521,521,521,521,521,521,521,521,521,521,521,521,521,521,521,521,521,521,521,521,521,521,521,521,521,521,521,521,521,521,521,521,521,521,521,521,521,521,521,521,521,521,521,521,521,514,498,465,452,445,435,424,410,372,352,330,322,301,284,265,246,228,194,186,175,172,166,154,148,140,130,123,113,108,105,101,96],"timestamp_mouse":[19,40,59,79,99,119,139,158,179,200,218,240,259,279,299,320,339,359,379,399,419,439,459,479,498,519,539,559,579,599,619,639,659,679,700,719,740,759,780,800,819,839,859,878,899,919,939,959,980,998,1019,1039,1059,1079,1100,1119,1139,1159,1180,1199,1219,1239,1259,1279,1299,1319,1339,1359,1379,1399,1419,1439,1459,1479,1499,1519,1539,1559,1579,1599,1619],"xSR":741.5,"ySR":469.95,"xT1":424.9,"yT1":0,"xT2":1058.1,"yT2":0,"toosoon":0,"cond_shown":"Incongruent","ratio_trial":300,"L_num":13,"L_den":26,"R_num":12,"R_den":15,"correct_side":2,"subjID":"DanielJimenezAngel20","gender":"0","school":"sexto","age":"10"},{"start_time":1551887018512,"click_time":1551887019802,"finger_time":1551887019662,"fix_duration":250,"trial":17,"RT":1150,"MT":140,"sideResp":1,"stimulus":[],"xmouse":[791,791,791,791,791,791,791,791,791,791,791,791,791,791,791,791,791,791,791,791,791,791,791,791,791,791,791,791,791,791,791,791,791,791,791,791,791,791,791,791,791,791,791,791,791,791,791,791,791,791,791,791,791,791,791,791,785,773,685,639,612,595,574,509,466],"ymouse":[487,487,487,487,487,487,487,487,487,487,487,487,487,487,487,487,487,487,487,487,487,487,487,487,487,487,487,487,487,487,487,487,487,487,487,487,487,487,487,487,487,487,487,487,487,487,487,487,487,487,487,487,487,487,487,487,473,453,305,245,215,197,168,114,85],"timestamp_mouse":[10,30,50,70,90,110,131,149,170,190,211,231,249,271,291,309,331,351,370,391,410,431,449,469,490,511,530,551,571,590,610,630,650,670,691,710,730,750,771,791,811,831,851,870,889,911,931,950,971,990,1010,1030,1050,1070,1090,1111,1130,1150,1170,1190,1211,1231,1250,1271,1290],"xSR":741.5,"ySR":469.95,"xT1":424.9,"yT1":0,"xT2":1058.1,"yT2":0,"toosoon":0,"cond_shown":"Congruent","ratio_trial":300,"L_num":11,"L_den":22,"R_num":1,"R_den":5,"correct_side":1,"subjID":"DanielJimenezAngel20","gender":"0","school":"sexto","age":"10"},{"start_time":1551887021204,"click_time":1551887022522,"finger_time":1551887022083,"fix_duration":461.0038177247665,"trial":18,"RT":879,"MT":439,"sideResp":2,"stimulus":[],"xmouse":[808,808,808,808,808,808,808,808,808,808,808,808,808,808,808,808,808,808,808,808,808,808,808,808,808,808,808,808,808,808,809,809,809,809,809,809,809,809,809,809,810,815,823,843,857,874,890,906,916,937,945,950,956,975,988,998,1006,1025,1058,1078,1093,1102,1109,1117,1125,1129],"ymouse":[526,526,526,526,526,526,526,526,526,526,526,526,523,521,521,521,521,521,521,521,521,521,521,521,521,521,521,521,521,521,521,521,521,521,521,521,521,521,521,521,520,516,509,476,428,364,319,287,273,251,245,240,236,223,217,213,209,199,184,174,165,156,145,122,105,92],"timestamp_mouse":[18,38,59,77,98,119,139,157,178,198,217,238,259,279,299,317,338,359,379,398,418,438,459,478,498,518,538,559,578,597,618,639,658,678,699,718,739,759,778,798,818,839,858,879,898,919,938,959,978,997,1018,1038,1058,1078,1097,1118,1138,1158,1179,1199,1218,1238,1259,1278,1298,1318],"xSR":741.5,"ySR":469.95,"xT1":424.9,"yT1":0,"xT2":1058.1,"yT2":0,"toosoon":0,"cond_shown":"Incongruent","ratio_trial":100,"L_num":12,"L_den":24,"R_num":9,"R_den":15,"correct_side":2,"subjID":"DanielJimenezAngel20","gender":"0","school":"sexto","age":"10"},{"start_time":1551887024000,"click_time":1551887025842,"finger_time":1551887025022,"fix_duration":615.9995434991207,"trial":19,"RT":1022,"MT":820,"sideResp":2,"stimulus":[],"xmouse":[748,748,748,748,748,748,748,748,748,748,748,748,748,748,748,748,748,748,748,748,748,748,748,748,748,748,748,748,748,748,748,748,748,748,748,748,748,748,748,748,748,748,748,748,748,748,748,748,748,748,748,737,715,688,648,643,641,641,641,641,639,636,633,627,608,598,586,557,543,534,534,534,534,549,656,745,846,945,1040,1071,1071,1071,1072,1073,1093,1113,1132,1145,1150,1151,1151,1151,1151],"ymouse":[513,513,513,513,513,513,513,513,513,513,513,513,513,513,513,513,513,513,513,513,513,513,513,513,513,513,513,513,513,513,513,513,513,513,513,513,513,513,513,513,513,513,513,513,513,513,513,513,513,513,510,497,484,465,435,423,412,400,381,371,352,342,331,313,279,266,252,229,219,209,209,209,209,207,207,207,207,196,181,173,173,173,173,171,157,150,140,134,130,121,113,105,98],"timestamp_mouse":[4,22,42,62,81,103,122,142,162,182,202,222,242,262,282,302,322,342,363,383,402,422,442,461,483,502,523,542,562,583,602,621,642,662,681,702,722,742,763,782,801,822,842,862,883,903,921,942,962,982,1002,1022,1042,1061,1082,1103,1123,1142,1162,1182,1202,1222,1243,1263,1282,1302,1323,1342,1362,1382,1402,1422,1442,1463,1482,1502,1523,1542,1562,1582,1602,1622,1642,1663,1683,1702,1721,1743,1762,1782,1802,1821,1842],"xSR":741.5,"ySR":469.95,"xT1":424.9,"yT1":0,"xT2":1058.1,"yT2":0,"toosoon":0,"cond_shown":"Incongruent","ratio_trial":100,"L_num":9,"L_den":18,"R_num":6,"R_den":10,"correct_side":2,"subjID":"DanielJimenezAngel20","gender":"0","school":"sexto","age":"10"},{"start_time":1551887027201,"click_time":1551887028742,"finger_time":1551887028103,"fix_duration":298.82992749383254,"trial":20,"RT":902,"MT":639,"sideResp":1,"stimulus":[],"xmouse":[763,768,773,781,784,784,784,784,784,784,784,784,784,784,784,784,784,784,784,784,784,784,784,784,784,784,784,784,784,784,784,784,783,780,769,768,768,768,768,768,768,768,768,763,750,738,727,720,709,699,659,628,603,583,552,535,516,500,496,487,478,472,470,469,469,469,469,468,468,468,468,471,472,472,472,472,473,475],"ymouse":[510,512,514,517,518,518,518,518,518,518,518,518,518,518,518,518,518,518,518,518,518,518,518,518,518,518,518,518,518,518,518,518,518,518,518,518,518,518,518,518,518,518,518,517,499,485,473,463,449,433,390,365,348,333,308,292,276,262,258,234,214,200,187,175,159,149,141,133,127,119,114,111,109,108,107,104,100,95],"timestamp_mouse":[0,22,41,62,82,101,121,140,161,180,202,221,242,261,281,301,321,341,362,381,400,421,441,461,481,502,521,540,561,581,601,621,641,660,681,701,722,742,761,781,800,822,842,861,880,902,920,941,961,981,1002,1020,1041,1061,1082,1101,1121,1141,1161,1181,1201,1221,1242,1261,1281,1302,1321,1341,1361,1382,1401,1420,1441,1461,1481,1502,1521,1541],"xSR":741.5,"ySR":469.95,"xT1":424.9,"yT1":0,"xT2":1058.1,"yT2":0,"toosoon":0,"cond_shown":"Incongruent","ratio_trial":300,"L_num":2,"L_den":4,"R_num":6,"R_den":30,"correct_side":1,"subjID":"DanielJimenezAngel20","gender":"0","school":"sexto","age":"10"},{"start_time":1551887030500,"click_time":1551887031862,"finger_time":1551887031483,"fix_duration":636.2707997058595,"trial":21,"RT":983,"MT":379,"sideResp":1,"stimulus":[],"xmouse":[815,815,815,815,815,815,815,815,815,815,815,815,815,815,815,815,815,815,815,815,815,815,815,815,815,815,815,815,815,815,815,815,815,815,815,815,815,815,815,815,815,815,815,815,815,815,815,815,797,737,691,650,638,626,613,590,579,574,569,559,556,554,550,541,534,534,533,529,524],"ymouse":[492,492,492,492,492,492,492,492,492,492,492,492,492,492,492,492,492,492,492,492,492,492,492,492,492,492,492,492,492,492,492,492,492,492,492,492,492,492,492,492,492,492,492,492,492,492,492,492,485,465,454,437,417,345,298,187,149,127,117,94,90,87,83,73,68,67,66,64,62],"timestamp_mouse":[5,28,42,61,82,102,121,143,162,182,202,222,242,262,282,303,322,343,363,382,403,423,442,462,482,502,522,542,562,582,602,622,643,662,682,703,722,743,762,782,802,822,842,863,882,902,922,942,963,983,1002,1022,1042,1062,1082,1101,1122,1142,1162,1182,1202,1222,1242,1262,1282,1302,1322,1343,1362],"xSR":741.5,"ySR":469.95,"xT1":424.9,"yT1":0,"xT2":1058.1,"yT2":0,"toosoon":0,"cond_shown":"Incongruent","ratio_trial":100,"L_num":6,"L_den":10,"R_num":7,"R_den":14,"correct_side":1,"subjID":"DanielJimenezAngel20","gender":"0","school":"sexto","age":"10"},{"start_time":1551887034246,"click_time":1551887035822,"finger_time":1551887035322,"fix_duration":1364.801236994548,"trial":22,"RT":1076,"MT":500,"sideResp":2,"stimulus":[],"xmouse":[787,787,787,787,787,787,787,787,787,787,787,787,787,787,787,787,787,787,787,787,787,787,787,787,787,787,787,787,787,787,787,787,787,787,787,787,787,787,787,787,787,787,787,787,787,787,787,787,787,787,789,801,809,820,828,847,901,922,931,936,938,938,940,946,956,968,974,974,974,974,974,974,974,974,974,1036,1050,1058,1065],"ymouse":[537,537,537,537,537,537,537,537,537,537,537,537,537,537,537,537,537,537,537,537,537,537,537,537,537,537,537,537,537,537,537,537,537,537,537,537,537,537,537,537,537,537,537,537,537,537,537,537,537,538,535,494,470,441,416,368,239,188,153,130,111,89,73,53,38,15,6,6,6,6,6,6,6,6,6,5,33,44,49],"timestamp_mouse":[16,36,56,76,97,115,135,156,176,196,216,237,255,276,297,316,335,357,377,395,417,437,456,476,497,516,537,556,575,596,616,636,657,677,695,716,736,757,776,796,817,836,856,876,895,916,936,956,977,996,1016,1035,1056,1076,1096,1116,1135,1156,1176,1197,1216,1235,1256,1276,1296,1316,1337,1356,1377,1396,1416,1436,1456,1475,1497,1516,1536,1556,1576],"xSR":741.5,"ySR":469.95,"xT1":424.9,"yT1":0,"xT2":1058.1,"yT2":0,"toosoon":0,"cond_shown":"Congruent","ratio_trial":300,"L_num":2,"L_den":10,"R_num":12,"R_den":24,"correct_side":2,"subjID":"DanielJimenezAngel20","gender":"0","school":"sexto","age":"10"},{"start_time":1551887036996,"click_time":1551887038662,"finger_time":1551887038242,"fix_duration":473.16363411649564,"trial":23,"RT":1246,"MT":420,"sideResp":1,"stimulus":[],"xmouse":[771,771,771,771,771,771,771,771,771,771,771,771,771,771,771,771,771,771,771,771,771,771,771,771,771,771,770,770,769,769,769,769,769,769,769,769,769,769,769,769,769,769,769,769,769,769,769,769,769,769,769,769,769,769,769,769,769,769,769,769,769,748,713,628,450,406,395,394,394,396,396,392,385,379,376,376,376,376,379,385,405,415,420,427],"ymouse":[543,543,543,543,543,543,543,543,543,543,543,543,543,543,543,543,543,543,543,543,543,543,543,543,543,543,544,544,544,544,544,544,544,544,544,544,544,544,544,544,544,544,544,544,544,544,544,544,544,544,544,544,544,544,544,544,544,544,544,544,544,528,502,441,322,282,264,251,228,192,177,167,154,143,131,119,108,104,98,92,77,72,69,65],"timestamp_mouse":[6,26,46,66,86,106,126,146,166,186,205,227,246,266,285,306,325,346,366,386,406,426,445,467,485,507,525,546,566,586,606,625,646,666,687,706,726,746,766,785,806,826,847,867,886,906,927,946,967,986,1007,1026,1046,1065,1086,1107,1127,1146,1167,1186,1207,1226,1246,1267,1286,1306,1326,1346,1366,1385,1407,1426,1446,1466,1486,1505,1526,1546,1567,1586,1606,1627,1646,1666],"xSR":741.5,"ySR":469.95,"xT1":424.9,"yT1":0,"xT2":1058.1,"yT2":0,"toosoon":0,"cond_shown":"Incongruent","ratio_trial":100,"L_num":1,"L_den":2,"R_num":8,"R_den":20,"correct_side":1,"subjID":"DanielJimenezAngel20","gender":"0","school":"sexto","age":"10"},{"start_time":1551887041507,"click_time":1551887042582,"finger_time":1551887042262,"fix_duration":303.149235740395,"trial":24,"RT":755,"MT":320,"sideResp":1,"stimulus":[],"xmouse":[774,774,774,774,774,774,774,774,774,774,774,774,774,774,774,774,774,774,774,774,774,774,774,774,774,774,774,774,774,774,774,774,774,774,774,772,764,734,620,589,569,558,557,545,536,527,522,520,517,517,517,515,494,463],"ymouse":[544,544,544,544,544,544,544,544,544,544,544,544,544,544,544,544,544,544,544,544,544,544,544,544,544,544,544,544,544,544,544,544,544,544,544,544,544,536,471,454,444,435,429,396,378,364,349,334,306,284,259,221,152,96],"timestamp_mouse":[16,35,55,75,96,114,135,156,175,195,215,235,255,275,295,316,335,356,376,396,415,435,455,476,495,515,535,554,576,596,615,635,656,675,695,715,736,755,775,796,815,834,855,874,895,915,935,955,975,995,1015,1035,1055,1075],"xSR":741.5,"ySR":469.95,"xT1":424.9,"yT1":0,"xT2":1058.1,"yT2":0,"toosoon":0,"cond_shown":"Incongruent","ratio_trial":300,"L_num":7,"L_den":10,"R_num":8,"R_den":20,"correct_side":1,"subjID":"DanielJimenezAngel20","gender":"0","school":"sexto","age":"10"},{"start_time":1551887045984,"click_time":1551887047782,"finger_time":1551887047482,"fix_duration":1179.7956296871944,"trial":25,"RT":1498,"MT":300,"sideResp":2,"stimulus":[],"xmouse":[779,779,779,779,779,779,779,779,779,779,779,779,779,779,779,779,779,779,779,779,779,779,779,779,779,779,779,779,779,779,779,779,779,779,779,779,779,779,779,779,779,779,779,788,802,806,807,807,807,807,807,807,807,807,807,807,807,807,807,807,807,807,807,807,807,807,807,806,802,799,799,799,803,813,864,903,934,967,984,996,1012,1025,1034,1043,1055,1055,1055,1055,1055,1072],"ymouse":[533,533,533,533,533,533,533,533,533,533,533,533,533,533,533,533,533,533,533,533,533,533,533,533,533,533,533,533,533,533,533,533,533,533,533,533,533,533,533,533,533,533,533,524,509,505,504,504,504,504,504,504,504,504,504,504,504,504,504,504,504,504,504,504,504,504,504,506,512,517,517,517,509,485,379,305,247,182,144,118,79,55,37,21,0,0,0,0,0,14],"timestamp_mouse":[18,38,58,78,98,118,139,158,178,199,218,239,258,279,299,318,337,359,379,397,418,438,459,478,498,517,539,558,578,599,619,638,658,678,698,719,737,758,779,798,818,839,857,878,897,918,938,959,979,999,1017,1038,1058,1078,1098,1118,1138,1159,1178,1198,1218,1239,1258,1279,1299,1317,1339,1358,1378,1399,1418,1439,1458,1479,1498,1517,1538,1558,1578,1598,1618,1638,1658,1678,1698,1718,1739,1758,1778,1798],"xSR":741.5,"ySR":469.95,"xT1":424.9,"yT1":0,"xT2":1058.1,"yT2":0,"toosoon":0,"cond_shown":"Incongruent","ratio_trial":300,"L_num":4,"L_den":20,"R_num":2,"R_den":4,"correct_side":2,"subjID":"DanielJimenezAngel20","gender":"0","school":"sexto","age":"10"},{"start_time":1551887049887,"click_time":1551887051883,"finger_time":1551887051282,"fix_duration":945.755267971149,"trial":26,"RT":1395,"MT":601,"sideResp":2,"stimulus":[],"xmouse":[777,777,777,777,777,777,777,777,777,777,777,777,777,777,777,777,777,777,777,777,777,777,777,777,777,777,777,777,777,777,777,777,777,777,777,777,777,777,777,777,777,777,777,777,777,777,777,777,777,777,777,777,777,777,777,777,777,777,777,777,777,777,777,777,777,777,781,785,805,862,886,900,901,904,909,912,917,925,938,951,951,951,951,953,962,971,984,996,1009,1038,1045,1045,1047,1047,1052,1055,1056,1057,1057,1063],"ymouse":[515,515,515,515,515,515,515,515,515,515,515,515,515,515,515,515,515,515,515,515,515,515,515,515,515,515,515,515,515,515,515,515,515,515,515,515,515,515,515,515,515,515,515,515,515,515,515,515,515,515,515,515,515,515,515,515,515,515,515,515,515,515,515,515,515,515,508,499,473,403,356,316,309,289,264,252,238,221,194,168,168,168,168,165,157,148,138,127,117,96,92,92,92,91,85,82,81,80,80,76],"timestamp_mouse":[16,35,55,75,96,114,135,155,175,195,216,235,256,275,295,316,335,356,374,395,416,435,455,476,496,515,535,554,575,596,615,636,656,675,696,716,736,756,776,796,816,836,855,876,896,916,936,955,976,995,1015,1034,1055,1076,1095,1115,1136,1155,1175,1196,1215,1236,1256,1275,1295,1316,1335,1356,1376,1395,1415,1435,1455,1475,1495,1516,1535,1554,1575,1595,1615,1635,1655,1675,1695,1715,1735,1754,1775,1796,1816,1835,1855,1875,1895,1915,1936,1955,1974,1995],"xSR":741.5,"ySR":469.95,"xT1":424.9,"yT1":0,"xT2":1058.1,"yT2":0,"toosoon":0,"cond_shown":"Incongruent","ratio_trial":200,"L_num":7,"L_den":15,"R_num":6,"R_den":9,"correct_side":2,"subjID":"DanielJimenezAngel20","gender":"0","school":"sexto","age":"10"},{"start_time":1551887053506,"click_time":1551887055623,"finger_time":1551887054542,"fix_duration":1044.276032162656,"trial":27,"RT":1036,"MT":1081,"sideResp":1,"stimulus":[],"xmouse":[793,793,793,793,793,793,793,793,793,793,793,793,793,793,793,793,793,793,793,793,793,793,793,793,793,793,793,793,789,777,768,768,768,768,768,768,768,768,768,768,768,768,768,768,768,768,768,768,768,773,797,809,843,878,883,883,883,883,883,883,883,883,883,881,864,840,806,764,734,689,676,656,637,576,535,474,403,370,370,370,370,370,370,370,370,370,370,370,370,370,370,370,370,370,370,370,379,386,388,388,388,389,395,405,424,430],"ymouse":[496,496,496,496,496,496,496,496,496,496,496,496,496,496,496,496,496,496,496,496,496,496,496,496,496,496,496,496,496,495,495,495,495,495,495,495,495,495,495,495,495,495,495,495,495,495,495,495,495,493,477,469,437,406,402,402,402,402,402,402,402,402,402,401,410,425,452,481,502,533,537,535,520,415,318,198,68,14,14,14,14,14,14,14,14,14,14,14,14,14,14,14,14,14,14,14,7,10,11,11,11,11,15,21,29,31],"timestamp_mouse":[17,36,56,76,96,116,136,157,176,196,216,237,257,275,296,317,336,355,376,396,416,436,456,477,496,516,537,556,576,596,616,637,655,676,697,717,736,756,776,795,817,836,857,876,896,916,937,957,976,997,1017,1036,1056,1076,1096,1115,1137,1156,1176,1197,1215,1236,1257,1276,1297,1316,1336,1356,1376,1396,1416,1436,1457,1476,1495,1515,1536,1557,1576,1595,1616,1637,1656,1677,1696,1716,1736,1756,1777,1797,1816,1836,1856,1877,1896,1916,1936,1956,1976,1997,2017,2037,2056,2076,2096,2117],"xSR":741.5,"ySR":469.95,"xT1":424.9,"yT1":0,"xT2":1058.1,"yT2":0,"toosoon":0,"cond_shown":"Congruent","ratio_trial":200,"L_num":4,"L_den":10,"R_num":3,"R_den":15,"correct_side":1,"subjID":"DanielJimenezAngel20","gender":"0","school":"sexto","age":"10"},{"start_time":1551887060594,"click_time":1551887061683,"finger_time":1551887061282,"fix_duration":731.9618739350879,"trial":28,"RT":688,"MT":401,"sideResp":1,"stimulus":[],"xmouse":[830,830,830,830,830,830,830,830,830,830,830,830,830,830,830,830,830,830,830,815,803,791,781,776,776,776,776,776,776,775,774,771,766,756,735,726,717,693,674,635,627,619,614,608,590,577,568,559,550,528,526,526,526,525,523],"ymouse":[498,498,498,498,498,498,498,498,498,498,498,498,498,498,498,498,498,498,498,498,498,501,503,505,505,505,505,505,505,505,505,503,498,485,458,448,432,384,343,272,250,229,210,193,152,128,113,92,75,41,39,39,39,38,36],"timestamp_mouse":[11,28,49,69,89,108,128,148,168,188,209,229,247,269,288,307,329,348,368,388,409,428,449,469,489,507,529,548,569,588,608,629,649,668,688,708,728,748,767,788,809,828,848,868,889,909,928,948,968,988,1009,1028,1048,1067,1089],"xSR":741.5,"ySR":469.95,"xT1":424.9,"yT1":0,"xT2":1058.1,"yT2":0,"toosoon":0,"cond_shown":"Incongruent","ratio_trial":100,"L_num":3,"L_den":5,"R_num":11,"R_den":22,"correct_side":1,"subjID":"DanielJimenezAngel20","gender":"0","school":"sexto","age":"10"},{"start_time":1551887067267,"click_time":1551887068542,"finger_time":1551887068202,"fix_duration":524.9828882494189,"trial":29,"RT":935,"MT":340,"sideResp":2,"stimulus":[],"xmouse":[761,761,761,761,761,761,761,761,761,761,761,761,761,761,761,761,761,761,761,761,761,761,761,761,761,761,761,761,770,778,803,805,805,805,805,805,805,805,805,805,805,807,807,810,821,826,826,826,827,831,848,865,891,914,953,1015,1035,1043,1047,1048,1049,1054,1058,1065],"ymouse":[540,540,540,540,540,540,540,540,540,540,540,540,540,540,540,540,540,540,540,540,540,540,540,540,540,540,540,540,529,522,503,502,502,502,502,502,502,502,502,502,502,502,501,494,476,470,461,452,442,428,385,344,285,229,150,51,26,17,13,12,12,12,11,10],"timestamp_mouse":[16,37,55,75,97,117,136,156,176,195,217,235,256,275,295,315,335,355,377,395,417,435,457,475,496,515,536,555,576,597,616,635,656,676,696,715,737,755,775,796,816,835,855,875,895,915,935,955,975,995,1016,1036,1055,1075,1095,1116,1136,1156,1175,1195,1215,1236,1255,1275],"xSR":741.5,"ySR":469.95,"xT1":424.9,"yT1":0,"xT2":1058.1,"yT2":0,"toosoon":0,"cond_shown":"Incongruent","ratio_trial":200,"L_num":14,"L_den":30,"R_num":6,"R_den":9,"correct_side":2,"subjID":"DanielJimenezAngel20","gender":"0","school":"sexto","age":"10"},{"start_time":1551887070074,"click_time":1551887071482,"finger_time":1551887070863,"fix_duration":250,"trial":30,"RT":789,"MT":619,"sideResp":1,"stimulus":[],"xmouse":[818,818,818,818,818,818,818,818,818,818,818,818,818,818,818,818,818,818,818,818,818,818,818,818,818,818,818,818,818,818,818,818,818,818,818,818,811,790,754,719,682,673,671,667,661,652,621,605,596,593,589,587,583,575,564,558,553,545,533,522,510,510,509,505,495,485,484,484,484,484,481],"ymouse":[519,519,519,519,519,519,519,519,519,519,519,519,519,519,519,519,519,519,519,519,519,519,519,519,519,519,519,519,519,519,519,519,519,519,519,519,519,516,505,490,471,464,461,453,429,407,348,325,312,303,279,265,253,238,216,199,182,164,146,135,127,126,125,120,108,102,101,101,101,101,98],"timestamp_mouse":[12,29,48,69,89,109,129,149,168,189,209,228,248,269,288,308,329,348,369,390,408,428,448,468,490,508,528,550,568,588,608,628,649,668,689,708,729,748,769,789,809,828,848,868,888,909,928,948,970,988,1008,1029,1048,1068,1088,1109,1129,1148,1168,1188,1208,1229,1249,1269,1289,1308,1328,1348,1369,1389,1408],"xSR":741.5,"ySR":469.95,"xT1":424.9,"yT1":0,"xT2":1058.1,"yT2":0,"toosoon":0,"cond_shown":"Congruent","ratio_trial":100,"L_num":8,"L_den":16,"R_num":2,"R_den":5,"correct_side":1,"subjID":"DanielJimenezAngel20","gender":"0","school":"sexto","age":"10"},{"start_time":1551887073319,"click_time":1551887075362,"finger_time":1551887074622,"fix_duration":714.3795897953256,"trial":31,"RT":1303,"MT":740,"sideResp":1,"stimulus":[],"xmouse":[748,748,748,748,748,748,748,748,748,748,748,748,748,748,748,748,748,748,748,748,748,748,748,748,748,748,748,748,748,748,748,748,748,748,748,748,748,748,748,748,747,747,747,747,747,747,747,747,747,747,747,747,747,747,747,747,747,747,747,747,747,747,747,747,743,736,728,717,688,651,636,591,570,555,547,545,542,540,538,534,531,526,513,505,503,502,500,493,467,462,462,462,462,462,462,462,462,462,462,465,469,481,497],"ymouse":[516,516,516,516,516,516,516,516,516,516,516,516,516,516,516,516,516,516,516,516,516,516,516,516,516,516,516,516,516,516,516,516,516,516,516,516,516,516,516,511,510,510,510,510,510,510,510,510,510,510,510,510,510,510,510,510,510,510,510,510,510,510,510,509,497,484,470,456,418,374,357,322,310,301,290,287,283,279,273,254,242,229,206,188,181,175,169,153,136,131,130,129,127,125,121,117,115,113,112,112,109,103,93],"timestamp_mouse":[4,24,43,63,83,104,123,144,165,183,203,223,244,263,284,305,323,343,365,383,404,425,443,463,485,503,523,543,564,584,604,625,643,664,685,703,724,744,764,783,804,823,844,863,884,904,924,943,964,984,1003,1023,1044,1063,1083,1104,1124,1144,1164,1183,1203,1224,1243,1264,1283,1303,1324,1344,1363,1383,1404,1424,1443,1464,1484,1504,1523,1544,1563,1584,1603,1624,1643,1663,1684,1703,1723,1743,1763,1784,1803,1823,1843,1864,1883,1904,1924,1943,1964,1983,2003,2023,2043],"xSR":741.5,"ySR":469.95,"xT1":424.9,"yT1":0,"xT2":1058.1,"yT2":0,"toosoon":0,"cond_shown":"Congruent","ratio_trial":100,"L_num":6,"L_den":20,"R_num":5,"R_den":25,"correct_side":1,"subjID":"DanielJimenezAngel20","gender":"0","school":"sexto","age":"10"},{"start_time":1551887076916,"click_time":1551887078342,"finger_time":1551887078002,"fix_duration":652.5360433823172,"trial":32,"RT":1086,"MT":340,"sideResp":2,"stimulus":[],"xmouse":[768,768,768,768,768,768,768,768,768,768,768,768,768,768,768,768,768,768,768,768,768,768,768,768,768,768,768,768,768,769,770,772,778,789,793,795,796,796,796,797,797,797,797,797,797,797,797,797,797,797,797,797,807,819,888,925,958,989,1021,1030,1038,1046,1053,1064,1068,1072,1077,1080,1083,1083,1083,1083],"ymouse":[539,539,539,539,539,539,539,539,539,539,539,539,539,539,539,539,539,539,539,539,539,538,536,536,535,535,535,535,534,533,532,530,524,515,511,509,508,508,508,507,507,507,507,507,507,507,507,507,507,507,507,507,496,488,438,406,370,322,239,216,203,189,178,163,153,142,132,123,113,108,102,96],"timestamp_mouse":[6,26,48,68,87,106,128,147,167,186,207,227,247,266,286,307,327,347,367,388,406,426,446,468,487,506,526,547,566,586,607,626,646,667,687,707,726,747,766,786,808,827,847,866,886,908,927,947,967,986,1007,1027,1046,1066,1086,1107,1126,1146,1166,1186,1207,1228,1246,1267,1286,1306,1326,1346,1366,1386,1406,1426],"xSR":741.5,"ySR":469.95,"xT1":424.9,"yT1":0,"xT2":1058.1,"yT2":0,"toosoon":0,"cond_shown":"Congruent","ratio_trial":100,"L_num":11,"L_den":22,"R_num":4,"R_den":10,"correct_side":1,"subjID":"DanielJimenezAngel20","gender":"0","school":"sexto","age":"10"},{"start_time":1551887080730,"click_time":1551887085183,"finger_time":1551887082562,"fix_duration":1385.0045764678516,"trial":33,"RT":1832,"MT":2621,"sideResp":2,"stimulus":[],"xmouse":[819,819,819,819,818,817,817,817,817,817,817,817,817,817,817,817,817,817,817,817,817,817,817,817,817,817,817,817,817,817,817,817,817,817,817,817,817,817,817,817,817,817,817,817,817,817,817,817,817,817,817,817,817,817,817,817,817,817,817,817,817,817,817,817,817,817,817,817,817,817,817,817,817,817,817,817,817,817,817,817,817,817,817,817,816,815,814,796,783,770,755,730,716,710,702,691,675,651,612,600,585,541,443,411,392,386,383,383,383,383,387,426,499,532,562,587,609,636,644,650,660,678,693,706,726,740,748,750,750,750,750,750,750,754,760,768,771,776,777,779,779,779,779,779,779,779,779,779,779,779,779,779,779,779,780,780,780,780,780,780,780,780,780,780,780,780,780,780,780,780,780,780,780,780,780,780,780,780,780,780,780,780,780,780,780,780,780,780,780,780,780,780,780,780,780,780,780,780,780,780,780,790,832,899,926,944,953,958,958,958,962,983,1006,1009,1010,1011,1017,1035,1046,1052,1056,1058,1071],"ymouse":[494,494,494,492,487,485,484,484,484,484,484,484,484,484,484,484,484,484,484,484,484,484,484,484,484,484,484,484,484,484,484,484,484,484,484,484,484,484,484,484,484,484,484,484,484,484,484,484,484,484,484,484,484,484,484,484,484,484,484,484,484,484,484,484,484,484,484,484,484,484,484,484,484,484,484,484,484,484,484,484,484,484,484,484,484,484,484,496,505,513,525,541,548,548,544,531,503,454,378,369,366,365,401,420,433,439,443,443,443,444,450,467,476,476,476,476,479,481,481,481,480,472,466,462,456,452,451,451,451,451,451,451,451,458,482,501,509,521,523,528,529,529,529,529,529,529,529,529,529,529,529,529,529,529,529,529,529,529,529,529,529,529,529,529,529,529,529,529,529,529,529,529,529,529,529,529,529,529,529,529,529,529,529,529,529,529,529,529,529,529,529,529,529,529,529,529,529,529,529,529,529,521,479,390,349,320,304,289,278,263,243,196,163,158,156,152,146,128,118,111,106,104,95],"timestamp_mouse":[13,33,54,72,92,112,132,153,174,192,212,234,253,273,293,312,333,353,373,392,412,433,452,472,492,512,532,553,573,592,613,634,652,673,693,714,732,752,774,794,812,832,853,872,893,913,932,952,972,994,1013,1033,1054,1072,1092,1114,1133,1152,1173,1192,1212,1232,1252,1274,1292,1313,1334,1352,1372,1393,1413,1433,1454,1472,1492,1514,1532,1553,1572,1592,1613,1633,1653,1672,1693,1712,1732,1753,1773,1792,1812,1832,1852,1873,1892,1913,1934,1952,1972,1993,2012,2033,2052,2072,2093,2112,2132,2152,2173,2192,2212,2232,2253,2273,2293,2312,2332,2352,2372,2393,2413,2433,2452,2473,2492,2512,2532,2554,2573,2593,2612,2633,2653,2672,2693,2713,2734,2752,2773,2792,2812,2832,2853,2872,2892,2914,2933,2952,2973,2992,3013,3034,3052,3072,3092,3112,3132,3152,3172,3193,3212,3232,3254,3273,3292,3312,3333,3352,3372,3392,3414,3433,3452,3474,3492,3512,3533,3553,3572,3593,3612,3632,3652,3674,3692,3712,3732,3753,3774,3792,3812,3832,3852,3872,3893,3914,3932,3952,3973,3992,4013,4033,4052,4072,4092,4113,4133,4152,4172,4193,4212,4233,4253,4272,4293,4313,4333,4353,4372,4393,4412,4432,4453],"xSR":741.5,"ySR":469.95,"xT1":424.9,"yT1":0,"xT2":1058.1,"yT2":0,"toosoon":0,"cond_shown":"Congruent","ratio_trial":100,"L_num":6,"L_den":20,"R_num":5,"R_den":25,"correct_side":1,"subjID":"DanielJimenezAngel20","gender":"0","school":"sexto","age":"10"},{"start_time":1551887087225,"click_time":1551887088463,"finger_time":1551887088083,"fix_duration":941.8722044717717,"trial":34,"RT":858,"MT":380,"sideResp":1,"stimulus":[],"xmouse":[768,768,768,768,768,768,768,768,768,768,768,768,768,768,768,768,768,768,768,768,768,768,768,768,768,768,768,768,768,768,768,768,768,768,768,768,768,768,768,768,768,768,747,721,699,684,666,646,638,631,618,601,586,572,560,554,534,506,499,496,494,492],"ymouse":[499,499,499,499,499,499,499,499,499,499,499,499,499,499,499,499,499,499,499,499,499,499,499,499,499,499,499,499,499,499,499,499,499,499,499,499,499,499,499,499,499,496,447,402,369,352,327,294,278,265,246,225,208,191,178,172,147,118,109,105,101,95],"timestamp_mouse":[18,38,57,77,97,119,139,157,178,197,218,237,259,277,297,317,337,359,377,398,417,437,458,477,498,517,537,558,578,598,617,639,657,678,698,717,738,757,777,799,818,837,858,877,897,917,937,958,978,997,1017,1037,1057,1079,1098,1117,1138,1158,1177,1197,1219,1238],"xSR":741.5,"ySR":469.95,"xT1":424.9,"yT1":0,"xT2":1058.1,"yT2":0,"toosoon":0,"cond_shown":"Congruent","ratio_trial":300,"L_num":9,"L_den":10,"R_num":3,"R_den":5,"correct_side":1,"subjID":"DanielJimenezAngel20","gender":"0","school":"sexto","age":"10"},{"start_time":1551887091729,"click_time":1551887093902,"finger_time":1551887093842,"fix_duration":1086.1678706302282,"trial":35,"RT":2113,"MT":60,"sideResp":1,"stimulus":[],"xmouse":[779,779,779,779,779,779,779,779,779,779,779,779,779,779,779,779,779,779,779,779,779,779,779,779,779,779,779,779,779,779,779,779,779,779,779,779,779,779,779,779,779,779,779,779,779,779,779,779,779,779,779,779,779,779,779,779,779,779,779,779,779,779,779,779,779,779,779,779,779,779,779,779,777,777,777,777,777,777,777,777,777,777,777,777,777,777,777,777,777,777,777,777,777,777,777,777,777,777,777,777,777,777,777,777,767,730,676,540,478],"ymouse":[523,523,523,523,523,523,523,523,523,523,523,523,523,523,523,523,523,523,523,523,523,523,523,523,523,523,523,523,523,523,523,523,523,523,523,523,523,523,523,523,523,523,523,523,523,523,523,523,523,523,523,523,523,523,523,523,523,523,523,523,523,523,523,523,523,523,523,523,523,523,523,523,522,521,521,521,521,521,521,521,521,521,521,521,521,521,521,521,521,521,521,521,521,521,521,521,521,521,520,504,502,502,502,502,495,461,401,208,96],"timestamp_mouse":[13,33,53,74,93,114,134,154,173,195,213,233,253,273,294,314,334,353,374,393,414,433,454,473,495,514,533,554,573,594,615,635,653,674,694,714,733,753,775,795,814,833,853,873,894,914,934,953,973,993,1014,1033,1053,1074,1094,1114,1133,1153,1175,1194,1214,1233,1253,1273,1295,1313,1334,1353,1373,1393,1414,1434,1454,1474,1495,1513,1533,1553,1573,1593,1613,1633,1653,1674,1693,1714,1733,1753,1773,1794,1813,1834,1853,1873,1893,1913,1933,1953,1974,1993,2014,2034,2054,2073,2093,2113,2133,2153,2173],"xSR":741.5,"ySR":469.95,"xT1":424.9,"yT1":0,"xT2":1058.1,"yT2":0,"toosoon":0,"cond_shown":"Congruent","ratio_trial":300,"L_num":20,"L_den":25,"R_num":14,"R_den":28,"correct_side":1,"subjID":"DanielJimenezAngel20","gender":"0","school":"sexto","age":"10"},{"start_time":1551887096864,"click_time":1551887098043,"finger_time":1551887097822,"fix_duration":461.30673193993033,"trial":36,"RT":958,"MT":221,"sideResp":2,"stimulus":[],"xmouse":[754,754,754,754,754,754,754,754,754,754,754,754,754,754,754,754,754,754,754,754,754,754,754,754,754,754,754,754,754,754,754,754,754,754,754,754,754,754,754,754,754,754,754,754,754,754,770,809,854,901,991,1015,1030,1045,1068,1098,1105,1110,1116],"ymouse":[554,554,554,554,554,554,554,554,554,554,554,554,554,554,554,554,554,554,554,554,554,554,554,554,554,554,554,554,554,554,554,554,554,554,554,554,554,554,554,554,554,554,554,554,554,552,519,457,394,328,228,203,184,165,140,117,110,103,98],"timestamp_mouse":[23,39,60,79,99,119,138,159,179,198,218,239,260,279,300,319,338,358,378,400,418,439,459,480,498,518,538,558,578,599,620,639,659,680,699,719,739,759,779,798,820,838,859,879,900,919,939,958,979,998,1018,1038,1059,1078,1098,1118,1139,1158,1179],"xSR":741.5,"ySR":469.95,"xT1":424.9,"yT1":0,"xT2":1058.1,"yT2":0,"toosoon":0,"cond_shown":"Congruent","ratio_trial":300,"L_num":2,"L_den":20,"R_num":10,"R_den":25,"correct_side":2,"subjID":"DanielJimenezAngel20","gender":"0","school":"sexto","age":"10"},{"start_time":1551887098933,"click_time":1551887099943,"finger_time":1551887099582,"fix_duration":250,"trial":37,"RT":649,"MT":361,"sideResp":1,"stimulus":[],"xmouse":[781,781,781,781,781,781,781,781,781,781,781,781,781,781,781,781,781,781,781,781,781,781,781,781,781,781,781,781,781,781,772,752,710,690,672,665,665,651,642,642,641,634,622,617,615,614,613,588,550,506,463],"ymouse":[498,498,498,498,498,498,498,498,498,498,498,498,498,498,498,498,498,498,498,498,498,498,498,498,498,498,498,498,498,498,497,485,462,451,441,435,425,373,318,291,241,204,163,155,152,152,151,136,119,104,94],"timestamp_mouse":[10,29,49,69,89,110,129,149,169,189,209,230,249,270,290,309,329,350,370,390,409,430,449,469,489,511,529,550,569,589,610,629,649,669,690,709,729,749,769,789,809,830,850,869,889,910,930,949,969,990,1010],"xSR":741.5,"ySR":469.95,"xT1":424.9,"yT1":0,"xT2":1058.1,"yT2":0,"toosoon":0,"cond_shown":"Incongruent","ratio_trial":200,"L_num":4,"L_den":6,"R_num":14,"R_den":30,"correct_side":1,"subjID":"DanielJimenezAngel20","gender":"0","school":"sexto","age":"10"},{"start_time":1551887102263,"click_time":1551887103162,"finger_time":1551887102982,"fix_duration":958.3146495075467,"trial":38,"RT":719,"MT":180,"sideResp":1,"stimulus":[],"xmouse":[772,772,772,772,773,775,778,779,779,779,779,779,779,779,779,779,779,779,779,779,779,779,779,779,779,779,779,779,779,779,779,779,779,779,779,771,740,626,563,525,511,509,507,501,487,482],"ymouse":[533,533,533,533,533,533,533,533,533,533,533,533,533,533,533,533,533,533,533,533,533,533,533,533,533,533,533,533,533,533,533,533,533,533,532,511,460,324,251,199,171,157,148,131,108,98],"timestamp_mouse":[0,25,40,59,80,99,120,139,160,179,200,219,240,261,279,300,319,340,360,381,399,420,439,461,479,500,519,539,560,579,601,619,639,660,680,699,719,740,759,779,801,820,839,859,879,899],"xSR":741.5,"ySR":469.95,"xT1":424.9,"yT1":0,"xT2":1058.1,"yT2":0,"toosoon":0,"cond_shown":"Incongruent","ratio_trial":300,"L_num":7,"L_den":10,"R_num":8,"R_den":20,"correct_side":1,"subjID":"DanielJimenezAngel20","gender":"0","school":"sexto","age":"10"},{"start_time":1551887105292,"click_time":1551887106383,"finger_time":1551887105963,"fix_duration":1388.3536467478607,"trial":39,"RT":671,"MT":420,"sideResp":2,"stimulus":[],"xmouse":[813,813,813,813,813,813,813,813,813,813,813,813,813,813,813,813,813,813,813,813,813,813,813,813,813,813,813,813,813,813,815,819,836,863,950,967,978,986,995,1013,1023,1040,1044,1052,1055,1057,1057,1057,1057,1057,1057,1057,1057,1057,1059],"ymouse":[529,529,529,529,529,529,529,529,529,529,529,529,529,529,529,529,529,529,529,529,529,529,529,529,529,529,529,529,529,529,521,515,488,442,267,218,184,160,140,109,95,76,70,61,59,58,58,58,58,58,58,58,58,58,58],"timestamp_mouse":[11,31,51,70,90,110,131,150,171,191,211,230,250,271,290,311,330,350,371,391,411,431,450,471,490,511,532,550,570,590,610,631,651,671,691,711,732,750,770,790,810,830,850,870,890,910,931,950,971,990,1010,1031,1050,1071,1090],"xSR":741.5,"ySR":469.95,"xT1":424.9,"yT1":0,"xT2":1058.1,"yT2":0,"toosoon":0,"cond_shown":"Incongruent","ratio_trial":100,"L_num":10,"L_den":25,"R_num":8,"R_den":16,"correct_side":2,"subjID":"DanielJimenezAngel20","gender":"0","school":"sexto","age":"10"},{"start_time":1551887107929,"click_time":1551887109242,"finger_time":1551887108102,"fix_duration":866.0096279595152,"trial":40,"RT":173,"MT":1140,"sideResp":2,"stimulus":[],"xmouse":[749,749,749,749,749,749,749,749,730,661,575,563,563,563,563,563,563,563,563,563,563,563,562,560,560,560,560,599,621,656,668,690,694,706,721,757,797,821,821,819,812,803,800,791,790,797,837,993,1090,1187,1235,1235,1235,1235,1235,1235,1235,1235,1235,1235,1235,1235,1231,1201,1174,1156],"ymouse":[509,509,509,509,509,509,509,509,509,491,459,456,456,456,456,456,456,456,456,456,456,456,455,453,453,453,453,473,483,493,495,498,499,503,508,512,514,510,510,508,506,502,500,482,456,424,354,189,106,42,18,18,18,18,18,18,18,18,18,18,18,18,9,27,40,47],"timestamp_mouse":[14,34,53,74,94,114,134,154,173,193,214,234,254,273,293,313,333,355,375,393,414,434,453,473,494,514,533,554,573,594,613,633,653,674,693,714,733,753,773,793,813,833,853,874,894,914,933,953,973,993,1013,1034,1053,1073,1094,1113,1133,1153,1174,1193,1215,1235,1253,1274,1293,1313],"xSR":741.5,"ySR":469.95,"xT1":424.9,"yT1":0,"xT2":1058.1,"yT2":0,"toosoon":0,"cond_shown":"Incongruent","ratio_trial":300,"L_num":13,"L_den":26,"R_num":12,"R_den":15,"correct_side":2,"subjID":"DanielJimenezAngel20","gender":"0","school":"sexto","age":"10"},{"start_time":1551887114976,"click_time":1551887117122,"finger_time":1551887116662,"fix_duration":691.3912104719474,"trial":41,"RT":1686,"MT":460,"sideResp":1,"stimulus":[],"xmouse":[759,759,759,759,759,759,759,759,759,759,759,759,759,759,759,759,759,759,759,759,759,759,759,759,759,759,759,759,759,759,759,759,759,759,759,759,759,759,759,759,759,759,759,759,759,759,759,759,759,759,759,759,759,759,759,759,759,759,759,759,759,759,759,759,759,759,759,759,759,759,760,763,765,767,768,768,768,768,768,768,768,768,764,759,754,732,721,713,699,688,670,660,648,634,620,590,584,577,563,556,543,534,524,515,511,498,485,476],"ymouse":[489,489,489,489,489,489,489,489,489,489,489,489,489,489,489,489,489,489,489,489,489,489,489,489,489,489,489,489,489,489,489,489,489,489,489,489,489,489,489,489,489,489,489,489,489,489,489,489,489,489,489,489,489,489,489,489,489,489,489,489,489,489,489,489,489,489,489,489,489,489,489,489,489,489,489,489,489,489,489,489,489,487,480,472,465,440,423,409,381,360,324,311,293,273,255,220,213,205,190,182,166,157,143,133,128,113,104,96],"timestamp_mouse":[11,26,46,67,87,106,126,147,166,186,206,226,246,267,287,307,328,346,366,387,408,427,446,466,486,506,526,546,568,587,607,626,647,666,686,707,727,746,767,786,807,827,846,866,888,907,927,947,966,986,1006,1027,1046,1066,1087,1106,1127,1147,1166,1187,1208,1226,1247,1268,1286,1306,1326,1346,1367,1387,1406,1426,1447,1466,1486,1506,1526,1546,1567,1586,1608,1626,1647,1666,1686,1706,1726,1746,1767,1786,1806,1826,1846,1866,1886,1907,1926,1946,1967,1986,2007,2026,2048,2067,2086,2106,2127,2146],"xSR":741.5,"ySR":469.95,"xT1":424.9,"yT1":0,"xT2":1058.1,"yT2":0,"toosoon":0,"cond_shown":"Congruent","ratio_trial":100,"L_num":8,"L_den":16,"R_num":2,"R_den":5,"correct_side":1,"subjID":"DanielJimenezAngel20","gender":"0","school":"sexto","age":"10"},{"start_time":1551887119030,"click_time":1551887120043,"finger_time":1551887119862,"fix_duration":768.5122716823993,"trial":42,"RT":832,"MT":181,"sideResp":1,"stimulus":[],"xmouse":[775,775,775,775,775,775,775,775,775,775,775,775,775,775,775,775,775,775,775,775,775,775,775,775,775,775,775,775,775,775,775,775,775,775,775,775,775,775,775,767,758,736,644,592,570,558,548,527,510,493,481],"ymouse":[530,530,530,530,530,530,530,530,530,530,530,530,530,530,530,530,530,530,530,530,530,530,530,530,530,530,530,530,530,530,530,530,530,530,530,530,530,530,530,519,497,463,354,303,281,267,246,198,162,124,95],"timestamp_mouse":[12,32,52,72,94,113,132,153,174,193,213,232,253,272,292,313,332,352,373,393,412,433,452,473,492,513,534,553,572,592,613,632,652,673,694,712,732,753,773,793,812,832,853,873,893,913,934,953,973,992,1013],"xSR":741.5,"ySR":469.95,"xT1":424.9,"yT1":0,"xT2":1058.1,"yT2":0,"toosoon":0,"cond_shown":"Incongruent","ratio_trial":200,"L_num":3,"L_den":10,"R_num":1,"R_den":2,"correct_side":2,"subjID":"DanielJimenezAngel20","gender":"0","school":"sexto","age":"10"},{"start_time":1551887121629,"click_time":1551887123143,"finger_time":1551887122742,"fix_duration":446.3699573947759,"trial":43,"RT":1113,"MT":401,"sideResp":1,"stimulus":[],"xmouse":[764,764,764,764,764,764,764,764,764,764,764,764,764,764,764,764,764,764,764,764,764,764,764,764,764,764,764,764,764,764,764,764,764,764,764,764,764,764,764,764,764,764,764,764,764,764,764,764,764,764,764,764,764,765,762,741,678,606,595,588,586,585,582,582,579,570,562,554,552,551,547,544,535,529,525,521],"ymouse":[519,519,519,519,519,519,519,519,519,519,519,519,519,519,519,519,519,519,519,519,519,519,519,519,519,519,519,519,519,519,519,519,519,519,519,519,519,519,519,519,519,519,519,519,519,519,519,519,519,519,519,519,519,518,513,483,373,246,217,195,177,166,150,146,139,115,98,77,74,73,71,71,69,68,67,66],"timestamp_mouse":[13,34,53,74,95,113,133,153,173,194,214,233,254,273,294,314,333,355,373,393,413,433,453,474,493,514,533,553,573,593,614,633,653,673,694,714,733,754,774,794,813,833,855,873,893,915,933,953,974,993,1013,1033,1054,1074,1093,1113,1134,1153,1174,1194,1215,1233,1253,1274,1293,1313,1333,1353,1374,1393,1413,1433,1453,1474,1493,1514],"xSR":741.5,"ySR":469.95,"xT1":424.9,"yT1":0,"xT2":1058.1,"yT2":0,"toosoon":0,"cond_shown":"Congruent","ratio_trial":200,"L_num":16,"L_den":30,"R_num":9,"R_den":27,"correct_side":1,"subjID":"DanielJimenezAngel20","gender":"0","school":"sexto","age":"10"},{"start_time":1551887124939,"click_time":1551887125783,"finger_time":1551887125483,"fix_duration":1154.2550409012408,"trial":44,"RT":544,"MT":300,"sideResp":2,"stimulus":[],"xmouse":[816,816,816,816,816,816,815,815,815,815,815,815,815,815,815,815,815,815,815,815,815,815,815,815,815,817,825,876,936,988,1025,1061,1075,1090,1101,1111,1118,1125,1130,1138,1147,1148,1149],"ymouse":[519,519,518,518,518,517,517,516,516,515,514,514,514,513,512,512,511,510,510,510,510,510,510,509,504,502,492,453,414,375,343,292,267,228,206,183,164,139,127,115,103,101,98],"timestamp_mouse":[4,24,43,63,83,103,123,144,163,184,203,223,243,263,284,303,323,344,363,384,403,424,443,463,483,503,524,544,563,583,603,623,643,664,683,703,723,743,763,783,804,823,844],"xSR":741.5,"ySR":469.95,"xT1":424.9,"yT1":0,"xT2":1058.1,"yT2":0,"toosoon":0,"cond_shown":"Congruent","ratio_trial":100,"L_num":1,"L_den":2,"R_num":18,"R_den":30,"correct_side":2,"subjID":"DanielJimenezAngel20","gender":"0","school":"sexto","age":"10"},{"start_time":1551887127052,"click_time":1551887128842,"finger_time":1551887128181,"fix_duration":310.0196841787861,"trial":45,"RT":1129,"MT":661,"sideResp":1,"stimulus":[],"xmouse":[770,770,772,772,774,776,777,778,778,778,778,778,778,778,778,778,778,778,778,778,778,778,778,778,778,778,778,778,778,778,778,778,778,778,778,778,778,778,778,778,778,778,778,778,778,778,778,778,778,778,778,778,778,778,777,770,699,629,571,541,513,420,349,243,228,224,224,224,224,224,224,237,256,281,281,281,281,281,281,281,281,281,281,281,281,281,281,281,281,431],"ymouse":[508,508,506,504,500,498,496,495,495,495,495,495,495,495,495,495,495,495,495,495,495,495,495,495,495,495,495,495,495,495,495,495,495,495,495,495,495,495,495,495,495,495,495,495,495,495,495,495,495,495,495,495,495,495,495,495,495,495,495,486,464,314,221,105,92,87,87,87,87,86,86,55,31,1,1,1,1,1,1,1,1,1,1,1,1,1,1,1,1,3],"timestamp_mouse":[10,30,51,71,90,110,130,150,171,190,210,230,250,270,291,311,331,350,371,391,410,430,451,470,491,510,530,550,570,590,611,630,650,670,691,710,731,750,771,790,810,830,850,870,892,910,931,950,970,990,1010,1030,1050,1071,1090,1110,1129,1150,1170,1190,1210,1230,1251,1270,1290,1310,1330,1350,1371,1390,1411,1430,1451,1471,1491,1510,1530,1551,1571,1591,1611,1631,1651,1670,1690,1711,1730,1750,1771,1790],"xSR":741.5,"ySR":469.95,"xT1":424.9,"yT1":0,"xT2":1058.1,"yT2":0,"toosoon":0,"cond_shown":"Incongruent","ratio_trial":200,"L_num":1,"L_den":2,"R_num":3,"R_den":10,"correct_side":1,"subjID":"DanielJimenezAngel20","gender":"0","school":"sexto","age":"10"},{"start_time":1551887132470,"click_time":1551887134103,"finger_time":1551887133542,"fix_duration":1408.312564446959,"trial":46,"RT":1072,"MT":561,"sideResp":1,"stimulus":[],"xmouse":[786,786,786,786,786,786,786,786,786,786,786,786,786,786,786,786,786,786,786,786,786,786,786,786,786,786,786,786,786,786,786,786,786,786,786,786,786,786,786,786,786,786,786,786,786,786,786,786,786,786,783,770,742,690,666,624,602,585,572,560,542,535,529,522,520,514,512,510,508,505,502,501,498,496,495,492,490,488,485,482,478,473],"ymouse":[518,518,518,518,518,518,518,518,518,518,518,518,518,518,518,518,518,518,518,518,518,518,518,518,518,518,518,518,518,518,518,518,518,518,518,518,518,518,518,518,518,518,518,518,518,518,518,518,518,518,518,517,508,487,475,443,425,405,388,369,344,330,319,302,294,278,268,261,253,243,218,208,199,187,175,153,142,129,119,112,105,89],"timestamp_mouse":[17,32,53,72,92,112,132,152,172,192,212,232,252,272,292,312,332,353,373,392,412,432,452,472,492,512,532,552,572,593,612,632,652,672,692,712,733,752,772,793,812,832,852,872,892,912,932,952,973,992,1012,1032,1052,1072,1092,1112,1132,1152,1173,1192,1212,1233,1252,1273,1292,1312,1332,1353,1372,1393,1413,1432,1452,1472,1492,1513,1533,1552,1572,1592,1612,1633],"xSR":741.5,"ySR":469.95,"xT1":424.9,"yT1":0,"xT2":1058.1,"yT2":0,"toosoon":0,"cond_shown":"Incongruent","ratio_trial":300,"L_num":2,"L_den":4,"R_num":6,"R_den":30,"correct_side":1,"subjID":"DanielJimenezAngel20","gender":"0","school":"sexto","age":"10"},{"start_time":1551887135574,"click_time":1551887136642,"finger_time":1551887136162,"fix_duration":390.47451597980256,"trial":47,"RT":588,"MT":480,"sideResp":2,"stimulus":[],"xmouse":[774,774,774,774,774,774,774,774,774,774,774,774,774,774,774,774,774,774,774,774,774,774,774,774,774,775,779,782,798,819,897,945,979,999,1009,1031,1044,1053,1065,1067,1077,1080,1081,1081,1081,1081,1081,1081,1081,1081,1083,1084,1084,1084],"ymouse":[499,499,499,499,499,499,499,499,499,499,499,499,499,499,499,499,499,499,499,499,499,499,499,499,499,500,498,496,480,461,394,356,327,309,297,273,262,251,230,220,191,179,169,162,159,156,153,151,137,122,106,102,100,97],"timestamp_mouse":[14,29,48,68,88,108,128,149,168,189,208,228,248,268,288,308,328,348,368,388,409,428,449,468,488,510,528,548,568,588,608,628,648,669,688,708,728,748,768,788,808,829,849,868,888,909,929,949,968,988,1008,1029,1048,1068],"xSR":741.5,"ySR":469.95,"xT1":424.9,"yT1":0,"xT2":1058.1,"yT2":0,"toosoon":0,"cond_shown":"Incongruent","ratio_trial":300,"L_num":13,"L_den":26,"R_num":12,"R_den":15,"correct_side":2,"subjID":"DanielJimenezAngel20","gender":"0","school":"sexto","age":"10"},{"start_time":1551887137723,"click_time":1551887138843,"finger_time":1551887138642,"fix_duration":260.7467685549031,"trial":48,"RT":919,"MT":201,"sideResp":2,"stimulus":[],"xmouse":[792,791,790,790,790,790,790,790,790,790,790,790,790,790,790,790,790,790,790,790,790,790,790,790,790,790,790,790,790,790,790,790,790,790,790,790,790,790,790,790,790,790,801,810,823,839,865,893,946,968,990,1041,1103,1119,1129,1133],"ymouse":[538,538,538,537,536,536,536,536,536,536,536,536,536,536,536,536,536,536,536,536,536,536,536,536,536,536,536,536,536,536,536,536,536,536,536,536,536,536,536,534,532,524,502,488,470,449,420,387,329,307,281,229,152,123,103,91],"timestamp_mouse":[19,40,59,80,99,120,140,160,179,200,219,240,260,279,299,320,339,359,379,399,420,439,459,479,499,519,539,561,580,600,620,639,659,679,700,719,740,759,779,799,819,839,859,879,899,919,939,959,979,999,1019,1039,1060,1080,1100,1120],"xSR":741.5,"ySR":469.95,"xT1":424.9,"yT1":0,"xT2":1058.1,"yT2":0,"toosoon":0,"cond_shown":"Congruent","ratio_trial":200,"L_num":3,"L_den":10,"R_num":7,"R_den":14,"correct_side":2,"subjID":"DanielJimenezAngel20","gender":"0","school":"sexto","age":"10"},{"start_time":1551887139913,"click_time":1551887141322,"finger_time":1551887140582,"fix_duration":250,"trial":49,"RT":669,"MT":740,"sideResp":1,"stimulus":[],"xmouse":[817,817,817,817,817,817,817,816,816,816,816,816,816,816,816,816,816,816,816,816,816,816,816,816,816,816,816,814,808,801,789,774,751,738,733,724,713,699,675,669,664,663,660,655,652,643,631,616,587,570,554,543,527,519,516,512,507,502,499,499,499,498,495,492,491,490,490,490,489,489,489],"ymouse":[520,520,520,520,520,520,520,520,520,520,520,519,519,519,518,518,518,518,518,518,518,518,518,518,518,518,518,517,517,516,516,516,513,513,510,501,478,452,398,382,364,356,346,333,327,317,299,279,237,219,203,193,178,166,160,156,150,143,138,137,137,134,130,122,112,109,108,107,104,102,98],"timestamp_mouse":[9,29,50,69,89,109,130,149,169,189,209,229,249,269,289,309,329,349,370,389,409,429,449,470,489,509,530,549,569,589,609,630,650,669,689,709,729,749,770,789,809,829,849,869,889,910,929,949,969,990,1009,1029,1049,1069,1089,1109,1129,1149,1169,1190,1209,1229,1249,1269,1289,1310,1330,1349,1369,1390,1409],"xSR":741.5,"ySR":469.95,"xT1":424.9,"yT1":0,"xT2":1058.1,"yT2":0,"toosoon":0,"cond_shown":"Congruent","ratio_trial":300,"L_num":20,"L_den":25,"R_num":8,"R_den":16,"correct_side":1,"subjID":"DanielJimenezAngel20","gender":"0","school":"sexto","age":"10"},{"start_time":1551887143090,"click_time":1551887143922,"finger_time":1551887143702,"fix_duration":766.4634937237626,"trial":50,"RT":612,"MT":220,"sideResp":2,"stimulus":[],"xmouse":[774,774,774,774,774,774,774,774,774,774,774,774,774,774,774,774,774,774,774,774,774,774,774,774,774,774,774,774,776,786,802,837,877,925,979,1000,1013,1026,1043,1056,1058,1059],"ymouse":[502,502,502,502,502,502,502,502,502,502,502,502,502,502,502,502,502,502,502,502,502,502,502,502,502,502,502,502,503,480,452,400,350,288,209,174,152,125,89,53,47,42],"timestamp_mouse":[13,32,52,72,92,112,132,152,172,192,212,233,252,272,293,312,332,352,372,392,412,433,452,472,492,512,532,552,572,592,612,632,652,672,693,713,732,752,772,792,813,832],"xSR":741.5,"ySR":469.95,"xT1":424.9,"yT1":0,"xT2":1058.1,"yT2":0,"toosoon":0,"cond_shown":"Incongruent","ratio_trial":300,"L_num":13,"L_den":26,"R_num":12,"R_den":15,"correct_side":2,"subjID":"DanielJimenezAngel20","gender":"0","school":"sexto","age":"10"},{"start_time":1551887145909,"click_time":1551887147142,"finger_time":1551887146722,"fix_duration":985.9117293698058,"trial":51,"RT":813,"MT":420,"sideResp":1,"stimulus":[],"xmouse":[789,789,789,789,789,789,789,789,789,789,789,789,789,789,789,789,789,789,789,789,789,789,789,789,789,789,789,789,789,789,789,789,789,789,789,789,789,789,783,766,731,687,659,628,592,581,569,559,547,542,536,530,526,517,511,504,499,495,490,488,484,478],"ymouse":[510,510,510,510,510,510,510,510,510,510,510,510,510,510,510,510,510,510,510,510,510,510,510,510,510,510,510,510,510,510,510,510,510,510,510,510,510,510,509,498,475,445,425,400,367,350,334,317,293,279,265,246,236,206,188,166,150,136,116,110,101,86],"timestamp_mouse":[13,35,54,73,93,113,133,154,173,194,214,233,254,273,293,313,333,353,374,393,413,433,454,473,493,514,534,553,573,593,613,633,654,673,693,714,733,754,773,794,813,833,853,873,894,913,933,953,973,993,1013,1033,1053,1073,1093,1113,1135,1153,1173,1193,1214,1233],"xSR":741.5,"ySR":469.95,"xT1":424.9,"yT1":0,"xT2":1058.1,"yT2":0,"toosoon":0,"cond_shown":"Congruent","ratio_trial":100,"L_num":11,"L_den":22,"R_num":4,"R_den":10,"correct_side":1,"subjID":"DanielJimenezAngel20","gender":"0","school":"sexto","age":"10"},{"start_time":1551887149206,"click_time":1551887150764,"finger_time":1551887150282,"fix_duration":1444.999848540169,"trial":52,"RT":1076,"MT":482,"sideResp":1,"stimulus":[],"xmouse":[802,802,802,802,802,802,802,802,802,802,802,802,802,802,802,802,802,802,802,802,802,802,802,802,802,801,800,800,799,799,798,798,798,798,798,798,798,798,798,798,798,798,798,798,798,798,798,798,798,798,797,789,760,736,700,684,667,660,649,644,639,632,622,592,570,554,540,531,517,512,506,502,499,497,496,493,491,489],"ymouse":[543,543,543,543,543,543,543,543,543,543,542,542,542,542,542,542,542,542,542,542,542,542,542,542,542,540,538,538,537,536,536,536,536,536,536,536,536,536,536,536,536,536,536,536,536,536,536,536,536,536,535,529,510,497,459,434,406,390,373,366,358,347,331,291,256,233,207,190,164,154,143,136,131,124,118,110,101,97],"timestamp_mouse":[17,36,57,76,96,117,137,156,176,196,217,237,256,277,296,317,336,356,377,396,417,436,457,476,496,517,536,556,576,597,616,637,657,676,697,717,736,756,777,796,817,836,856,876,896,916,936,956,976,997,1016,1036,1056,1076,1096,1117,1136,1156,1177,1196,1217,1236,1257,1277,1296,1316,1337,1357,1376,1396,1416,1437,1457,1476,1496,1516,1537,1558],"xSR":741.5,"ySR":469.95,"xT1":424.9,"yT1":0,"xT2":1058.1,"yT2":0,"toosoon":0,"cond_shown":"Congruent","ratio_trial":100,"L_num":6,"L_den":20,"R_num":5,"R_den":25,"correct_side":1,"subjID":"DanielJimenezAngel20","gender":"0","school":"sexto","age":"10"},{"start_time":1551887152201,"click_time":1551887155522,"finger_time":1551887155023,"fix_duration":458.38488328404145,"trial":53,"RT":2822,"MT":499,"sideResp":2,"stimulus":[],"xmouse":[803,803,803,803,803,803,803,803,803,803,803,803,803,803,803,803,803,803,803,803,803,803,803,803,803,803,803,803,803,803,803,803,803,803,803,803,803,803,803,803,803,803,803,803,803,803,803,803,803,803,803,803,803,803,803,803,803,803,803,803,803,803,803,803,803,803,803,803,803,803,803,803,803,803,803,803,803,803,803,803,803,803,803,803,803,803,803,803,803,803,803,803,803,803,803,803,803,803,803,803,803,803,803,803,803,803,803,803,803,803,803,803,803,803,803,803,803,803,803,803,803,803,803,803,803,803,803,803,803,803,803,803,803,803,803,803,803,803,803,803,803,807,826,854,908,924,930,933,934,937,951,987,1020,1039,1047,1047,1047,1047,1048,1048,1048,1048,1048,1048,1048,1051,1059],"ymouse":[505,505,505,505,505,505,505,505,505,505,505,505,505,505,505,505,505,505,505,505,505,505,505,505,505,505,505,505,505,505,505,505,505,505,505,505,505,505,505,505,505,505,505,505,505,505,505,505,505,505,505,505,505,505,505,505,505,505,505,505,505,505,505,505,505,505,505,505,505,505,505,505,505,505,505,505,505,505,505,505,505,505,505,505,505,505,505,505,505,505,505,505,505,505,505,505,505,505,505,505,505,505,505,505,505,505,505,505,505,505,505,505,505,505,505,505,505,505,505,505,505,505,505,505,505,505,505,505,505,505,505,505,505,505,505,505,505,505,505,505,494,467,421,357,247,222,213,209,208,205,192,167,139,122,114,113,113,113,110,105,103,103,103,103,100,95,88],"timestamp_mouse":[3,22,41,62,81,101,121,142,162,181,201,222,242,261,281,301,321,341,362,381,401,422,441,462,482,501,521,542,562,581,602,622,642,662,681,701,722,741,761,782,802,821,842,861,881,901,922,941,962,982,1001,1021,1041,1062,1081,1102,1122,1142,1161,1182,1202,1222,1241,1262,1281,1301,1321,1342,1361,1381,1402,1422,1441,1462,1481,1502,1521,1542,1561,1581,1602,1622,1642,1663,1682,1702,1721,1741,1762,1782,1802,1821,1843,1862,1881,1902,1922,1941,1961,1981,2002,2021,2041,2062,2082,2102,2122,2141,2162,2182,2201,2221,2241,2262,2282