[{"start_time":1551887472231,"click_time":1551887473694,"finger_time":1551887473174,"fix_duration":675.2790619531073,"trial":0,"RT":943,"MT":520,"sideResp":1,"stimulus":"img/750/randomdotsizeEA/L/6_Ratio_750_L_24_R_18.png","xmouse":[800,800,800,800,800,800,800,800,800,800,800,800,800,800,800,800,800,800,799,799,799,798,798,798,797,797,797,797,797,797,797,797,796,796,796,796,796,796,796,796,796,796,796,796,794,780,766,756,754,718,696,632,573,501,346,332,332,332,334,334,334,334,334,334,334,335,335,337,342,365,376,396,414,427],"ymouse":[536,536,536,536,536,536,536,536,536,536,536,536,536,536,536,536,536,536,536,536,536,536,536,536,536,536,536,536,536,536,536,536,536,536,536,536,536,536,536,536,536,536,536,536,536,516,485,453,441,365,321,251,195,156,140,133,132,128,127,127,127,127,127,126,118,112,107,101,95,71,63,54,47,42],"timestamp_mouse":[3,24,43,63,82,102,124,142,162,183,204,222,244,263,283,303,323,343,363,383,402,422,443,463,483,502,522,544,562,582,603,624,642,662,684,704,722,743,764,783,804,822,842,863,882,903,923,943,963,983,1004,1023,1042,1063,1084,1104,1123,1144,1163,1183,1203,1223,1243,1264,1284,1303,1323,1343,1363,1384,1402,1422,1443,1463],"xSR":741.5,"ySR":501.8,"xT1":424.9,"yT1":0,"xT2":1058.1,"yT2":0,"toosoon":0,"cond_shown":"randomdotsizeEA","ratio_trial":750,"smaller_num":"18","larger_num":"24","correct_side":1,"subjID":"DanielJimenezAngel20","gender":"0","age":"10","school":"6","test":{"fix_dur":[250,1500],"timestim":300,"targets_dim":[100,100],"targets_relative_coord":[0.3,0.7],"size_stim":[880,420],"start_dim":[100,100],"size_start":[300,300],"size_fix":60,"samplingrate":20,"img_types":["equaldotsize","equaldotanddens","randomdotsizeEA"],"ratios":[250,500,750,900],"rep_conds":9,"nTrials":120,"trials_to_rest":500,"Trials_order":[116,97,111,92,4,46,88,29,6,48,54,11,51,93,41,103,65,69,107,44,8,7,53,45,83,36,91,42,109,55,15,26,100,110,95,34,75,71,67,85,86,112,62,38,70,20,31,113,27,82,96,102,108,94,14,104,18,66,0,99,114,78,5,56,59,12,50,40,47,76,60,25,79,84,39,77,57,22,1,2,72,90,61,87,117,33,13,52,101,73,24,119,105,21,16,63,32,89,43,98,23,58,35,68,3,74,81,30,37,28,49,9,64,10,106,115,19,80,118,17],"cond_shown":["randomdotsizeEA","equaldotanddens","equaldotsize","randomdotsizeEA","equaldotanddens","equaldotanddens","equaldotanddens","randomdotsizeEA","equaldotsize","equaldotsize","equaldotsize","randomdotsizeEA","equaldotsize","equaldotsize","randomdotsizeEA","equaldotanddens","randomdotsizeEA","equaldotsize","randomdotsizeEA","randomdotsizeEA","randomdotsizeEA","equaldotanddens","randomdotsizeEA","equaldotsize","randomdotsizeEA","equaldotsize","equaldotanddens","equaldotsize","equaldotanddens","equaldotanddens","equaldotsize","randomdotsizeEA","equaldotanddens","randomdotsizeEA","randomdotsizeEA","equaldotanddens","equaldotsize","randomdotsizeEA","equaldotanddens","equaldotanddens","randomdotsizeEA","equaldotanddens","randomdotsizeEA","randomdotsizeEA","equaldotanddens","randomdotsizeEA","equaldotanddens","randomdotsizeEA","equaldotsize","equaldotanddens","equaldotsize","equaldotsize","equaldotsize","equaldotanddens","randomdotsizeEA","randomdotsizeEA","equaldotsize","equaldotsize","equaldotsize","equaldotsize","equaldotsize","equaldotsize","randomdotsizeEA","randomdotsizeEA","randomdotsizeEA","equaldotsize","randomdotsizeEA","equaldotanddens","randomdotsizeEA","equaldotanddens","equaldotsize","equaldotanddens","equaldotanddens","equaldotsize","equaldotsize","randomdotsizeEA","equaldotsize","equaldotanddens","equaldotanddens","randomdotsizeEA","equaldotsize","equaldotsize","equaldotanddens","equaldotsize","equaldotsize","equaldotsize","equaldotanddens","equaldotanddens","randomdotsizeEA","equaldotanddens","equaldotsize","randomdotsizeEA","equaldotsize","equaldotsize","equaldotanddens","equaldotsize","randomdotsizeEA","randomdotsizeEA","equaldotanddens","randomdotsizeEA","randomdotsizeEA","equaldotanddens","randomdotsizeEA","randomdotsizeEA","equaldotsize","randomdotsizeEA","equaldotsize","equaldotsize","equaldotanddens","equaldotanddens","equaldotanddens","equaldotsize","equaldotanddens","equaldotanddens","equaldotanddens","equaldotanddens","equaldotanddens","randomdotsizeEA","equaldotanddens","randomdotsizeEA"],"ratio_trial":[750,250,500,750,500,900,500,500,750,250,750,900,500,900,500,750,500,900,900,750,750,750,500,900,900,250,750,750,250,750,500,250,500,250,900,900,500,900,750,250,250,500,250,250,900,750,750,500,500,900,250,750,250,900,250,750,750,750,250,500,750,750,500,750,900,250,250,500,900,500,250,250,750,250,500,500,900,900,250,250,250,750,250,500,900,900,250,500,500,250,250,900,900,900,500,500,750,500,750,250,900,900,900,750,500,250,900,750,250,500,250,900,500,900,900,750,750,750,900,500],"smaller_num":["18","4","2","3","3","9","6","1","6","1","15","18","6","18","9","9","5","18","9","3","9","15","6","9","18","4","6","3","4","6","9","3","2","4","18","18","3","18","3","3","2","6","3","1","9","3","15","4","5","9","2","15","3","18","4","15","15","15","3","9","6","9","9","3","9","3","2","6","18","2","6","3","15","5","2","1","18","18","3","3","4","9","3","2","18","18","3","9","5","4","3","18","18","9","6","3","15","6","6","2","18","18","9","15","5","3","9","15","2","9","2","18","2","9","18","9","12","12","9","2"],"larger_num":["24","16","4","4","6","10","12","2","8","4","20","20","12","20","18","12","10","20","10","4","12","20","12","10","20","16","8","4","16","8","18","12","4","16","20","20","6","20","4","12","8","12","12","4","10","4","20","8","10","10","8","20","12","20","16","20","20","20","12","18","8","12","18","4","10","12","8","12","20","4","24","12","20","20","4","2","20","20","12","12","16","12","12","4","20","20","12","18","10","16","12","20","20","10","12","6","20","12","8","8","20","20","10","20","10","12","10","20","8","18","8","20","4","10","20","12","16","16","10","4"],"correct_side":[1,2,2,1,2,2,1,2,2,2,2,2,1,1,2,2,1,1,1,1,2,2,1,2,1,1,1,1,1,2,2,2,1,1,2,1,2,2,2,2,1,1,2,2,1,1,2,1,1,1,1,2,2,2,1,2,2,2,1,2,1,2,1,2,2,1,2,1,1,1,1,1,2,2,2,2,1,1,2,2,1,2,2,2,1,2,1,2,2,2,1,2,1,2,1,2,2,1,1,1,1,1,2,1,2,1,1,2,1,2,1,1,2,2,2,2,2,2,2,1],"img_shown":["img/750/randomdotsizeEA/L/6_Ratio_750_L_24_R_18.png","img/250/equaldotanddens/R/10_Ratio_250_L_4_R_16.png","img/500/equaldotsize/R/9_Ratio_500_L_2_R_4.png","img/750/randomdotsizeEA/L/9_Ratio_750_L_4_R_3.png","img/500/equaldotanddens/R/2_Ratio_500_L_3_R_6.png","img/900/equaldotanddens/R/7_Ratio_900_L_9_R_10.png","img/500/equaldotanddens/L/13_Ratio_500_L_12_R_6.png","img/500/randomdotsizeEA/R/12_Ratio_500_L_1_R_2.png","img/750/equaldotsize/R/2_Ratio_750_L_6_R_8.png","img/250/equaldotsize/R/8_Ratio_250_L_1_R_4.png","img/750/equaldotsize/R/4_Ratio_750_L_15_R_20.png","img/900/randomdotsizeEA/R/9_Ratio_900_L_18_R_20.png","img/500/equaldotsize/L/13_Ratio_500_L_12_R_6.png","img/900/equaldotsize/L/8_Ratio_900_L_20_R_18.png","img/500/randomdotsizeEA/R/6_Ratio_500_L_9_R_18.png","img/750/equaldotanddens/R/15_Ratio_750_L_9_R_12.png","img/500/randomdotsizeEA/L/7_Ratio_500_L_10_R_5.png","img/900/equaldotsize/L/2_Ratio_900_L_20_R_18.png","img/900/randomdotsizeEA/L/1_Ratio_900_L_10_R_9.png","img/750/randomdotsizeEA/L/8_Ratio_750_L_4_R_3.png","img/750/randomdotsizeEA/R/15_Ratio_750_L_9_R_12.png","img/750/equaldotanddens/R/3_Ratio_750_L_15_R_20.png","img/500/randomdotsizeEA/L/11_Ratio_500_L_12_R_6.png","img/900/equaldotsize/R/7_Ratio_900_L_9_R_10.png","img/900/randomdotsizeEA/L/2_Ratio_900_L_20_R_18.png","img/250/equaldotsize/L/2_Ratio_250_L_16_R_4.png","img/750/equaldotanddens/L/14_Ratio_750_L_8_R_6.png","img/750/equaldotsize/L/9_Ratio_750_L_4_R_3.png","img/250/equaldotanddens/L/2_Ratio_250_L_16_R_4.png","img/750/equaldotanddens/R/2_Ratio_750_L_6_R_8.png","img/500/equaldotsize/R/1_Ratio_500_L_9_R_18.png","img/250/randomdotsizeEA/R/4_Ratio_250_L_3_R_12.png","img/500/equaldotanddens/L/10_Ratio_500_L_4_R_2.png","img/250/randomdotsizeEA/L/2_Ratio_250_L_16_R_4.png","img/900/randomdotsizeEA/R/12_Ratio_900_L_18_R_20.png","img/900/equaldotanddens/L/10_Ratio_900_L_20_R_18.png","img/500/equaldotsize/R/2_Ratio_500_L_3_R_6.png","img/900/randomdotsizeEA/R/9_Ratio_900_L_18_R_20.png","img/750/equaldotanddens/R/7_Ratio_750_L_3_R_4.png","img/250/equaldotanddens/R/9_Ratio_250_L_3_R_12.png","img/250/randomdotsizeEA/L/1_Ratio_250_L_8_R_2.png","img/500/equaldotanddens/L/11_Ratio_500_L_12_R_6.png","img/250/randomdotsizeEA/R/11_Ratio_250_L_3_R_12.png","img/250/randomdotsizeEA/R/8_Ratio_250_L_1_R_4.png","img/900/equaldotanddens/L/1_Ratio_900_L_10_R_9.png","img/750/randomdotsizeEA/L/10_Ratio_750_L_4_R_3.png","img/750/equaldotanddens/R/4_Ratio_750_L_15_R_20.png","img/500/randomdotsizeEA/L/8_Ratio_500_L_8_R_4.png","img/500/equaldotsize/L/7_Ratio_500_L_10_R_5.png","img/900/equaldotanddens/L/1_Ratio_900_L_10_R_9.png","img/250/equaldotsize/L/1_Ratio_250_L_8_R_2.png","img/750/equaldotsize/R/4_Ratio_750_L_15_R_20.png","img/250/equaldotsize/R/4_Ratio_250_L_3_R_12.png","img/900/equaldotanddens/R/14_Ratio_900_L_18_R_20.png","img/250/randomdotsizeEA/L/2_Ratio_250_L_16_R_4.png","img/750/randomdotsizeEA/R/3_Ratio_750_L_15_R_20.png","img/750/equaldotsize/R/5_Ratio_750_L_15_R_20.png","img/750/equaldotsize/R/4_Ratio_750_L_15_R_20.png","img/250/equaldotsize/L/14_Ratio_250_L_12_R_3.png","img/500/equaldotsize/R/6_Ratio_500_L_9_R_18.png","img/750/equaldotsize/L/14_Ratio_750_L_8_R_6.png","img/750/equaldotsize/R/15_Ratio_750_L_9_R_12.png","img/500/randomdotsizeEA/L/4_Ratio_500_L_18_R_9.png","img/750/randomdotsizeEA/R/7_Ratio_750_L_3_R_4.png","img/900/randomdotsizeEA/R/6_Ratio_900_L_9_R_10.png","img/250/equaldotsize/L/15_Ratio_250_L_12_R_3.png","img/250/randomdotsizeEA/R/13_Ratio_250_L_2_R_8.png","img/500/equaldotanddens/L/11_Ratio_500_L_12_R_6.png","img/900/randomdotsizeEA/L/4_Ratio_900_L_20_R_18.png","img/500/equaldotanddens/L/10_Ratio_500_L_4_R_2.png","img/250/equaldotsize/L/5_Ratio_250_L_24_R_6.png","img/250/equaldotanddens/L/15_Ratio_250_L_12_R_3.png","img/750/equaldotanddens/R/5_Ratio_750_L_15_R_20.png","img/250/equaldotsize/R/12_Ratio_250_L_5_R_20.png","img/500/equaldotsize/R/9_Ratio_500_L_2_R_4.png","img/500/randomdotsizeEA/R/15_Ratio_500_L_1_R_2.png","img/900/equaldotsize/L/8_Ratio_900_L_20_R_18.png","img/900/equaldotanddens/L/4_Ratio_900_L_20_R_18.png","img/250/equaldotanddens/R/9_Ratio_250_L_3_R_12.png","img/250/randomdotsizeEA/R/4_Ratio_250_L_3_R_12.png","img/250/equaldotsize/L/2_Ratio_250_L_16_R_4.png","img/750/equaldotsize/R/15_Ratio_750_L_9_R_12.png","img/250/equaldotanddens/R/9_Ratio_250_L_3_R_12.png","img/500/equaldotsize/R/9_Ratio_500_L_2_R_4.png","img/900/equaldotsize/L/4_Ratio_900_L_20_R_18.png","img/900/equaldotsize/R/11_Ratio_900_L_18_R_20.png","img/250/equaldotanddens/L/14_Ratio_250_L_12_R_3.png","img/500/equaldotanddens/R/6_Ratio_500_L_9_R_18.png","img/500/randomdotsizeEA/R/14_Ratio_500_L_5_R_10.png","img/250/equaldotanddens/R/10_Ratio_250_L_4_R_16.png","img/250/equaldotsize/L/14_Ratio_250_L_12_R_3.png","img/900/randomdotsizeEA/R/11_Ratio_900_L_18_R_20.png","img/900/equaldotsize/L/2_Ratio_900_L_20_R_18.png","img/900/equaldotsize/R/3_Ratio_900_L_9_R_10.png","img/500/equaldotanddens/L/11_Ratio_500_L_12_R_6.png","img/500/equaldotsize/R/2_Ratio_500_L_3_R_6.png","img/750/randomdotsizeEA/R/3_Ratio_750_L_15_R_20.png","img/500/randomdotsizeEA/L/13_Ratio_500_L_12_R_6.png","img/750/equaldotanddens/L/14_Ratio_750_L_8_R_6.png","img/250/randomdotsizeEA/L/7_Ratio_250_L_8_R_2.png","img/900/randomdotsizeEA/L/2_Ratio_900_L_20_R_18.png","img/900/equaldotanddens/L/8_Ratio_900_L_20_R_18.png","img/900/randomdotsizeEA/R/3_Ratio_900_L_9_R_10.png","img/750/randomdotsizeEA/L/1_Ratio_750_L_20_R_15.png","img/500/equaldotsize/R/14_Ratio_500_L_5_R_10.png","img/250/randomdotsizeEA/L/14_Ratio_250_L_12_R_3.png","img/900/equaldotsize/L/1_Ratio_900_L_10_R_9.png","img/750/equaldotsize/R/3_Ratio_750_L_15_R_20.png","img/250/equaldotanddens/L/3_Ratio_250_L_8_R_2.png","img/500/equaldotanddens/R/1_Ratio_500_L_9_R_18.png","img/250/equaldotanddens/L/3_Ratio_250_L_8_R_2.png","img/900/equaldotsize/L/4_Ratio_900_L_20_R_18.png","img/500/equaldotanddens/R/9_Ratio_500_L_2_R_4.png","img/900/equaldotanddens/R/7_Ratio_900_L_9_R_10.png","img/900/equaldotanddens/R/9_Ratio_900_L_18_R_20.png","img/750/equaldotanddens/R/15_Ratio_750_L_9_R_12.png","img/750/equaldotanddens/R/11_Ratio_750_L_12_R_16.png","img/750/randomdotsizeEA/R/11_Ratio_750_L_12_R_16.png","img/900/equaldotanddens/R/3_Ratio_900_L_9_R_10.png","img/500/randomdotsizeEA/L/10_Ratio_500_L_4_R_2.png"],"Rat0":[["12_Ratio_0_L_9_R_0.png","13_Ratio_0_L_6_R_0.png","5_Ratio_0_L_2_R_0.png","6_Ratio_0_L_4_R_0.png","8_Ratio_0_L_6_R_0.png"],["1_Ratio_0_L_0_R_17.png","10_Ratio_0_L_0_R_22.png","11_Ratio_0_L_0_R_1.png","14_Ratio_0_L_0_R_24.png","15_Ratio_0_L_0_R_4.png","2_Ratio_0_L_0_R_5.png","3_Ratio_0_L_0_R_17.png","4_Ratio_0_L_0_R_7.png","7_Ratio_0_L_0_R_19.png","9_Ratio_0_L_0_R_15.png"]],"Rat250":[["1_Ratio_250_L_8_R_2.png","14_Ratio_250_L_12_R_3.png","15_Ratio_250_L_12_R_3.png","2_Ratio_250_L_16_R_4.png","3_Ratio_250_L_8_R_2.png","5_Ratio_250_L_24_R_6.png","7_Ratio_250_L_8_R_2.png"],["10_Ratio_250_L_4_R_16.png","11_Ratio_250_L_3_R_12.png","12_Ratio_250_L_5_R_20.png","13_Ratio_250_L_2_R_8.png","4_Ratio_250_L_3_R_12.png","6_Ratio_250_L_6_R_24.png","8_Ratio_250_L_1_R_4.png","9_Ratio_250_L_3_R_12.png"]],"Rat500":[["10_Ratio_500_L_4_R_2.png","11_Ratio_500_L_12_R_6.png","13_Ratio_500_L_12_R_6.png","4_Ratio_500_L_18_R_9.png","5_Ratio_500_L_4_R_2.png","7_Ratio_500_L_10_R_5.png","8_Ratio_500_L_8_R_4.png"],["1_Ratio_500_L_9_R_18.png","12_Ratio_500_L_1_R_2.png","14_Ratio_500_L_5_R_10.png","15_Ratio_500_L_1_R_2.png","2_Ratio_500_L_3_R_6.png","3_Ratio_500_L_10_R_20.png","6_Ratio_500_L_9_R_18.png","9_Ratio_500_L_2_R_4.png"]],"Rat750":[["1_Ratio_750_L_20_R_15.png","10_Ratio_750_L_4_R_3.png","13_Ratio_750_L_8_R_6.png","14_Ratio_750_L_8_R_6.png","6_Ratio_750_L_24_R_18.png","8_Ratio_750_L_4_R_3.png","9_Ratio_750_L_4_R_3.png"],["11_Ratio_750_L_12_R_16.png","12_Ratio_750_L_3_R_4.png","15_Ratio_750_L_9_R_12.png","2_Ratio_750_L_6_R_8.png","3_Ratio_750_L_15_R_20.png","4_Ratio_750_L_15_R_20.png","5_Ratio_750_L_15_R_20.png","7_Ratio_750_L_3_R_4.png"]],"Rat900":[["1_Ratio_900_L_10_R_9.png","10_Ratio_900_L_20_R_18.png","2_Ratio_900_L_20_R_18.png","4_Ratio_900_L_20_R_18.png","8_Ratio_900_L_20_R_18.png"],["11_Ratio_900_L_18_R_20.png","12_Ratio_900_L_18_R_20.png","13_Ratio_900_L_18_R_20.png","14_Ratio_900_L_18_R_20.png","15_Ratio_900_L_9_R_10.png","3_Ratio_900_L_9_R_10.png","5_Ratio_900_L_9_R_10.png","6_Ratio_900_L_9_R_10.png","7_Ratio_900_L_9_R_10.png","9_Ratio_900_L_18_R_20.png"]],"Rat1000":[["10_Ratio_1000_L_16_R_16.png","11_Ratio_1000_L_6_R_6.png","12_Ratio_1000_L_14_R_14.png","13_Ratio_1000_L_20_R_20.png","15_Ratio_1000_L_15_R_15.png","2_Ratio_1000_L_17_R_17.png","4_Ratio_1000_L_9_R_9.png","5_Ratio_1000_L_6_R_6.png","6_Ratio_1000_L_19_R_19.png","8_Ratio_1000_L_14_R_14.png","9_Ratio_1000_L_25_R_25.png"],["1_Ratio_1000_L_1_R_1.png","14_Ratio_1000_L_17_R_17.png","3_Ratio_1000_L_17_R_17.png","7_Ratio_1000_L_6_R_6.png"]]}},{"start_time":1551887476234,"click_time":1551887477795,"finger_time":1551887477034,"fix_duration":1298.5508484593156,"trial":1,"RT":800,"MT":761,"sideResp":2,"stimulus":"img/250/equaldotanddens/R/10_Ratio_250_L_4_R_16.png","xmouse":[774,774,774,774,774,774,774,774,774,774,774,774,774,774,774,774,774,774,774,774,774,774,774,774,774,774,774,774,774,774,774,774,774,774,774,774,774,780,788,798,799,802,805,837,862,879,883,886,887,888,894,902,914,921,939,946,954,967,990,1038,1050,1050,1050,1050,1050,1050,1050,1050,1050,1047,1044,1044,1045,1047,1047,1047,1050,1055,1060],"ymouse":[499,499,499,499,499,499,499,499,499,499,499,499,499,499,499,499,499,499,499,499,499,499,499,499,499,499,499,499,499,499,499,499,499,499,499,499,499,499,495,472,464,438,433,385,316,291,281,269,261,255,230,212,194,181,158,147,136,107,70,22,11,9,9,9,9,9,9,9,11,34,48,59,65,69,69,69,70,67,62],"timestamp_mouse":[0,21,40,60,80,100,120,139,159,179,199,220,240,260,279,299,319,340,359,381,400,419,440,460,479,501,520,539,561,579,600,620,640,660,680,700,720,739,761,780,800,820,841,859,881,899,919,940,961,980,1000,1020,1039,1060,1080,1100,1120,1140,1161,1180,1200,1220,1239,1260,1279,1300,1320,1341,1360,1381,1400,1419,1439,1460,1481,1500,1520,1540,1561],"xSR":741.5,"ySR":469.95,"xT1":424.9,"yT1":0,"xT2":1058.1,"yT2":0,"toosoon":0,"cond_shown":"equaldotanddens","ratio_trial":250,"smaller_num":"4","larger_num":"16","correct_side":2,"subjID":"DanielJimenezAngel20","gender":"0","age":"10","school":"6"},{"start_time":1551887481355,"click_time":1551887483595,"finger_time":1551887482154,"fix_duration":1300.6154461777649,"trial":2,"RT":799,"MT":1441,"sideResp":2,"stimulus":"img/500/equaldotsize/R/9_Ratio_500_L_2_R_4.png","xmouse":[791,791,791,791,791,791,791,791,791,791,791,791,791,791,791,791,791,791,791,791,791,791,791,791,791,791,791,791,791,791,791,791,791,791,791,791,791,791,800,839,872,905,918,934,936,938,941,947,958,962,965,966,970,984,987,993,997,1000,1000,1001,1001,1001,1003,1004,1004,1006,1007,1007,1007,1007,1006,1008,1008,1008,1008,1008,1008,1008,1008,1008,1008,1008,1008,1008,1008,1008,1008,1008,1008,1008,1008,1008,1008,1010,1012,1015,1021,1024,1034,1041,1047,1047,1047,1047,1047,1047,1047,1047,1047,1047,1047,1092],"ymouse":[536,536,536,536,536,536,536,536,536,536,536,536,536,536,536,536,536,536,536,536,536,536,536,536,536,536,536,536,536,536,536,536,536,536,536,536,536,536,513,449,405,370,355,332,321,316,308,294,272,249,235,227,218,181,176,168,160,157,157,156,156,153,149,145,144,143,142,142,142,142,142,141,141,139,139,139,139,137,137,137,137,137,137,137,137,137,137,137,137,137,137,137,135,129,124,113,98,82,44,26,6,6,6,6,6,6,6,6,6,6,6,18],"timestamp_mouse":[19,39,59,80,98,118,138,159,180,198,220,238,260,278,298,319,338,359,379,399,418,438,459,479,499,520,538,560,579,599,619,638,659,679,698,718,739,758,778,799,820,839,860,879,899,918,939,959,979,999,1018,1040,1059,1079,1098,1118,1139,1160,1179,1199,1219,1239,1259,1279,1299,1319,1339,1360,1379,1399,1419,1438,1459,1480,1499,1518,1540,1559,1579,1599,1618,1638,1660,1679,1698,1718,1738,1759,1778,1799,1818,1840,1859,1879,1899,1919,1938,1958,1980,1999,2019,2039,2058,2078,2098,2118,2140,2160,2179,2199,2218,2240],"xSR":741.5,"ySR":469.95,"xT1":424.9,"yT1":0,"xT2":1058.1,"yT2":0,"toosoon":0,"cond_shown":"equaldotsize","ratio_trial":500,"smaller_num":"2","larger_num":"4","correct_side":2,"subjID":"DanielJimenezAngel20","gender":"0","age":"10","school":"6"},{"start_time":1551887484984,"click_time":1551887486655,"finger_time":1551887485474,"fix_duration":410.6999069021107,"trial":3,"RT":490,"MT":1181,"sideResp":2,"stimulus":"img/750/randomdotsizeEA/L/9_Ratio_750_L_4_R_3.png","xmouse":[822,822,822,821,820,820,820,820,820,820,820,820,820,820,820,820,820,820,820,819,819,819,817,811,796,768,629,629,629,629,629,629,629,629,629,629,629,629,629,629,629,629,629,629,629,629,629,51,101,171,210,210,210,210,210,210,210,210,210,210,210,210,210,210,210,210,210,210,210,210,210,1275,1234,1220,1206,1190,1178,1173,1172,1171,1170,1168,1157,1146],"ymouse":[524,524,524,525,526,526,526,526,526,526,526,526,526,526,526,526,526,526,526,527,530,535,541,553,570,596,713,713,713,713,713,713,713,713,713,713,713,713,713,713,713,713,713,713,713,713,713,573,385,187,86,86,86,86,86,86,86,86,86,86,86,86,86,86,86,86,86,86,86,86,86,6,82,98,107,112,114,115,115,115,115,115,105,93],"timestamp_mouse":[9,29,49,70,90,109,129,149,169,190,209,231,250,270,290,310,330,350,369,391,411,431,449,470,490,511,531,549,569,589,610,630,650,670,689,711,730,750,769,790,809,831,850,870,890,909,929,949,970,991,1010,1031,1050,1069,1090,1109,1131,1149,1169,1189,1210,1231,1251,1270,1291,1309,1329,1349,1370,1390,1410,1430,1450,1471,1490,1509,1529,1549,1569,1590,1611,1630,1650,1671],"xSR":741.5,"ySR":469.95,"xT1":424.9,"yT1":0,"xT2":1058.1,"yT2":0,"toosoon":0,"cond_shown":"randomdotsizeEA","ratio_trial":750,"smaller_num":"3","larger_num":"4","correct_side":1,"subjID":"DanielJimenezAngel20","gender":"0","age":"10","school":"6"},{"start_time":1551887487900,"click_time":1551887489195,"finger_time":1551887488835,"fix_duration":265.36107900348736,"trial":4,"RT":935,"MT":360,"sideResp":2,"stimulus":"img/500/equaldotanddens/R/2_Ratio_500_L_3_R_6.png","xmouse":[773,773,773,773,773,773,773,773,773,774,774,775,775,775,775,775,775,775,775,775,775,775,775,775,775,775,775,775,775,775,775,775,775,775,775,775,775,775,775,775,775,775,775,775,784,827,888,961,1036,1108,1181,1189,1192,1199,1210,1236,1236,1236,1236,1236,1236,1236,1236,1236,1119],"ymouse":[533,533,533,533,533,533,533,533,532,532,532,532,532,532,532,532,532,532,532,532,532,532,532,532,532,532,532,532,532,532,532,532,532,532,532,532,532,532,532,532,532,532,532,532,528,492,443,382,319,256,169,136,109,85,62,11,11,11,11,11,11,11,11,11,22],"timestamp_mouse":[15,35,55,74,93,113,133,154,174,193,214,234,254,274,293,315,334,354,374,394,413,433,453,474,495,514,534,554,574,594,614,634,654,674,694,714,734,754,774,795,814,834,854,874,894,915,935,954,974,994,1015,1035,1055,1074,1094,1115,1134,1155,1174,1194,1215,1234,1255,1275,1295],"xSR":741.5,"ySR":469.95,"xT1":424.9,"yT1":0,"xT2":1058.1,"yT2":0,"toosoon":0,"cond_shown":"equaldotanddens","ratio_trial":500,"smaller_num":"3","larger_num":"6","correct_side":2,"subjID":"DanielJimenezAngel20","gender":"0","age":"10","school":"6"},{"start_time":1551887490087,"click_time":1551887491414,"finger_time":1551887490955,"fix_duration":250,"trial":5,"RT":868,"MT":459,"sideResp":1,"stimulus":"img/900/equaldotanddens/R/7_Ratio_900_L_9_R_10.png","xmouse":[802,802,802,801,801,801,801,801,801,801,801,801,801,801,801,801,801,801,801,801,801,801,801,801,801,801,801,801,798,796,796,796,795,795,795,795,795,795,795,794,793,779,745,686,617,535,444,294,270,263,259,258,256,257,261,272,286,330,349,360,370,381,392,400,409,417,425],"ymouse":[544,544,544,543,543,543,543,543,543,543,543,543,543,543,543,543,543,543,543,543,543,543,543,543,543,543,543,543,543,543,543,543,543,543,543,543,543,543,543,541,539,519,486,452,412,353,279,130,97,80,68,64,61,60,55,45,34,14,9,8,8,15,25,34,40,45,48],"timestamp_mouse":[7,28,48,68,88,108,127,148,168,187,207,227,247,267,287,308,328,347,367,387,408,427,447,468,488,507,528,547,568,587,608,627,647,667,687,707,727,746,767,787,807,828,848,868,888,908,928,948,967,987,1007,1028,1047,1068,1087,1107,1127,1147,1168,1188,1207,1228,1247,1268,1288,1307,1327],"xSR":741.5,"ySR":469.95,"xT1":424.9,"yT1":0,"xT2":1058.1,"yT2":0,"toosoon":0,"cond_shown":"equaldotanddens","ratio_trial":900,"smaller_num":"9","larger_num":"10","correct_side":2,"subjID":"DanielJimenezAngel20","gender":"0","age":"10","school":"6"},{"start_time":1551887492525,"click_time":1551887493594,"finger_time":1551887493355,"fix_duration":250,"trial":6,"RT":830,"MT":239,"sideResp":1,"stimulus":"img/500/equaldotanddens/L/13_Ratio_500_L_12_R_6.png","xmouse":[780,780,780,780,780,780,780,780,780,780,780,780,780,780,780,780,780,780,780,780,780,780,780,780,780,780,780,780,780,780,780,780,780,780,780,780,780,780,780,780,758,711,654,571,501,442,435,429,424,422,421,422,424,426],"ymouse":[497,497,497,497,497,497,497,497,497,497,497,497,497,497,497,497,497,497,497,497,497,497,497,497,497,497,497,497,497,497,497,497,497,497,497,497,497,497,497,497,475,421,347,262,201,141,126,113,102,96,88,83,78,74],"timestamp_mouse":[14,30,49,69,89,109,130,148,169,190,209,230,250,269,290,309,330,349,369,389,410,429,450,469,489,509,529,549,569,591,609,630,649,669,690,709,729,749,769,790,808,830,849,869,890,909,929,950,969,989,1009,1029,1049,1069],"xSR":741.5,"ySR":469.95,"xT1":424.9,"yT1":0,"xT2":1058.1,"yT2":0,"toosoon":0,"cond_shown":"equaldotanddens","ratio_trial":500,"smaller_num":"6","larger_num":"12","correct_side":1,"subjID":"DanielJimenezAngel20","gender":"0","age":"10","school":"6"},{"start_time":1551887495387,"click_time":1551887497694,"finger_time":1551887497414,"fix_duration":1171.0000387866578,"trial":7,"RT":2027,"MT":280,"sideResp":2,"stimulus":"img/500/randomdotsizeEA/R/12_Ratio_500_L_1_R_2.png","xmouse":[828,828,828,828,828,828,828,828,828,828,828,828,828,828,828,828,828,828,828,828,828,828,828,828,828,828,828,828,828,828,828,828,828,828,828,828,828,828,828,828,828,828,828,828,828,828,828,828,828,828,828,828,828,828,828,828,828,828,828,828,828,828,828,828,828,828,828,828,828,828,828,828,828,828,828,828,828,828,828,828,828,828,828,828,828,828,828,828,828,828,828,828,828,828,828,828,828,828,828,830,836,845,858,862,865,874,924,976,1008,1031,1046,1051,1055,1058,1063,1071],"ymouse":[547,545,545,545,545,545,545,545,545,545,545,545,545,545,545,545,545,545,545,545,545,545,545,544,544,542,541,539,538,538,538,538,538,538,538,538,538,538,538,538,538,538,538,538,538,538,538,538,538,538,538,538,538,538,538,538,538,538,538,538,538,538,538,538,538,538,538,538,538,538,538,538,538,538,538,538,538,538,538,538,538,538,538,538,538,538,538,538,538,538,538,538,538,538,538,538,538,538,536,527,514,498,472,458,441,418,348,276,232,199,176,164,146,132,117,98],"timestamp_mouse":[8,27,47,68,87,108,127,147,167,187,207,227,248,268,287,307,328,347,367,387,407,427,447,467,487,507,527,546,567,587,607,627,648,668,687,707,727,747,767,788,807,827,847,867,887,907,927,948,967,987,1007,1027,1048,1067,1087,1107,1127,1148,1167,1187,1208,1228,1248,1267,1288,1307,1328,1347,1368,1387,1407,1427,1447,1467,1488,1507,1527,1547,1567,1587,1607,1627,1647,1667,1687,1707,1728,1748,1767,1787,1807,1827,1847,1867,1888,1907,1927,1947,1967,1987,2007,2027,2047,2067,2087,2107,2128,2147,2167,2187,2207,2227,2248,2267,2287,2307],"xSR":741.5,"ySR":469.95,"xT1":424.9,"yT1":0,"xT2":1058.1,"yT2":0,"toosoon":0,"cond_shown":"randomdotsizeEA","ratio_trial":500,"smaller_num":"1","larger_num":"2","correct_side":2,"subjID":"DanielJimenezAngel20","gender":"0","age":"10","school":"6"},{"start_time":1551887499644,"click_time":1551887500715,"finger_time":1551887500514,"fix_duration":1048.4741583448947,"trial":8,"RT":870,"MT":201,"sideResp":2,"stimulus":"img/750/equaldotsize/R/2_Ratio_750_L_6_R_8.png","xmouse":[804,804,803,803,801,801,801,801,800,800,800,800,800,800,800,800,800,800,800,800,800,800,800,800,800,800,800,800,800,800,800,800,800,800,800,800,800,800,800,800,800,802,812,842,924,937,941,943,946,963,986,1015,1048,1067],"ymouse":[494,494,494,494,493,493,493,493,492,492,492,492,492,492,491,491,491,491,491,491,491,491,491,491,491,491,491,491,491,491,491,491,491,491,491,491,491,491,491,491,491,487,479,449,340,308,289,277,259,216,179,137,95,63],"timestamp_mouse":[10,30,50,70,91,111,130,151,171,190,210,231,250,271,291,310,330,351,370,389,410,431,450,471,490,510,530,551,570,590,610,630,651,671,690,710,731,750,770,790,811,830,849,870,891,911,930,950,971,990,1011,1030,1050,1071],"xSR":741.5,"ySR":469.95,"xT1":424.9,"yT1":0,"xT2":1058.1,"yT2":0,"toosoon":0,"cond_shown":"equaldotsize","ratio_trial":750,"smaller_num":"6","larger_num":"8","correct_side":2,"subjID":"DanielJimenezAngel20","gender":"0","age":"10","school":"6"},{"start_time":1551887502118,"click_time":1551887503694,"finger_time":1551887503495,"fix_duration":503.41775321760116,"trial":9,"RT":1377,"MT":199,"sideResp":2,"stimulus":"img/250/equaldotsize/R/8_Ratio_250_L_1_R_4.png","xmouse":[782,782,782,782,782,782,782,782,782,782,782,782,782,782,782,782,782,782,782,782,782,782,782,782,782,782,782,782,782,782,782,782,782,782,782,782,782,782,782,782,782,782,782,782,782,782,782,782,782,782,782,782,782,782,782,782,782,782,782,782,782,782,782,782,782,782,783,786,797,813,874,891,904,915,941,967,1004,1042,1074],"ymouse":[483,483,483,483,483,483,483,483,483,483,483,483,483,483,483,483,483,483,483,483,483,483,483,483,483,483,483,483,483,483,483,483,483,483,483,483,483,483,483,483,483,483,483,483,483,483,483,483,483,483,483,483,483,483,483,483,483,483,483,483,483,483,483,483,483,483,480,477,466,446,361,340,319,300,255,219,169,128,92],"timestamp_mouse":[17,36,56,76,96,117,136,156,176,196,216,237,256,276,296,317,337,356,376,397,416,437,456,476,496,516,536,556,576,597,617,636,657,676,696,716,737,757,776,796,817,836,856,875,897,917,936,956,977,997,1016,1036,1056,1076,1097,1117,1136,1156,1176,1196,1216,1237,1256,1276,1296,1316,1337,1357,1377,1397,1417,1436,1456,1477,1497,1517,1537,1556,1576],"xSR":741.5,"ySR":469.95,"xT1":424.9,"yT1":0,"xT2":1058.1,"yT2":0,"toosoon":0,"cond_shown":"equaldotsize","ratio_trial":250,"smaller_num":"1","larger_num":"4","correct_side":2,"subjID":"DanielJimenezAngel20","gender":"0","age":"10","school":"6"},{"start_time":1551887504886,"click_time":1551887505675,"finger_time":1551887505514,"fix_duration":250,"trial":10,"RT":628,"MT":161,"sideResp":2,"stimulus":"img/750/equaldotsize/R/4_Ratio_750_L_15_R_20.png","xmouse":[809,809,809,809,809,809,809,809,809,809,809,809,809,809,809,809,809,809,809,809,809,809,809,809,809,809,809,809,809,809,818,837,965,1026,1059,1072,1076,1077,1077,1084],"ymouse":[493,493,493,493,493,493,493,493,493,493,493,493,493,493,493,493,493,493,493,493,493,493,493,493,493,493,493,493,493,493,479,452,282,212,170,145,135,120,101,75],"timestamp_mouse":[8,28,49,69,88,108,128,149,169,188,209,229,247,269,288,309,328,348,368,388,408,429,448,468,488,508,528,549,569,588,608,628,648,668,688,708,728,749,768,789],"xSR":741.5,"ySR":469.95,"xT1":424.9,"yT1":0,"xT2":1058.1,"yT2":0,"toosoon":0,"cond_shown":"equaldotsize","ratio_trial":750,"smaller_num":"15","larger_num":"20","correct_side":2,"subjID":"DanielJimenezAngel20","gender":"0","age":"10","school":"6"},{"start_time":1551887506866,"click_time":1551887507994,"finger_time":1551887507655,"fix_duration":250,"trial":11,"RT":789,"MT":339,"sideResp":2,"stimulus":"img/900/randomdotsizeEA/R/9_Ratio_900_L_18_R_20.png","xmouse":[809,809,809,809,809,809,809,809,809,809,809,809,809,809,809,809,809,809,809,809,809,809,809,809,809,809,809,809,809,809,809,809,809,809,809,809,809,809,814,824,840,862,884,915,933,951,966,982,1009,1025,1039,1051,1057,1057,1057,1058,1062],"ymouse":[490,490,490,490,490,490,490,490,490,490,490,490,490,490,490,490,490,490,490,490,490,490,490,490,490,490,490,490,490,490,490,490,490,490,490,490,490,490,477,459,433,391,354,282,249,219,195,172,131,111,94,80,70,68,68,67,65],"timestamp_mouse":[8,28,48,68,88,109,128,148,168,189,208,228,249,268,288,308,328,348,368,388,408,428,448,468,488,508,528,549,569,589,608,628,649,668,688,708,728,748,768,789,808,828,848,869,889,908,929,948,969,987,1008,1028,1048,1068,1088,1109,1128],"xSR":741.5,"ySR":469.95,"xT1":424.9,"yT1":0,"xT2":1058.1,"yT2":0,"toosoon":0,"cond_shown":"randomdotsizeEA","ratio_trial":900,"smaller_num":"18","larger_num":"20","correct_side":2,"subjID":"DanielJimenezAngel20","gender":"0","age":"10","school":"6"},{"start_time":1551887508945,"click_time":1551887510054,"finger_time":1551887509735,"fix_duration":250,"trial":12,"RT":790,"MT":319,"sideResp":1,"stimulus":"img/500/equaldotsize/L/13_Ratio_500_L_12_R_6.png","xmouse":[811,811,811,811,811,811,811,811,811,811,811,811,811,811,811,811,811,811,811,811,811,811,811,811,811,811,811,811,811,811,811,811,811,811,811,811,811,811,809,780,721,642,569,523,514,510,508,506,501,497,497,498,502,507,512,512],"ymouse":[497,497,497,497,497,497,497,497,497,497,497,497,497,497,497,497,497,497,497,497,497,497,497,497,497,497,497,497,497,497,497,497,497,497,497,497,497,497,494,463,398,319,258,209,192,182,173,167,159,147,144,140,132,123,104,98],"timestamp_mouse":[10,30,49,69,88,110,129,149,169,189,210,230,249,269,289,309,330,349,369,389,410,430,448,470,490,509,530,549,569,590,609,629,650,670,689,710,729,749,769,790,809,829,849,870,890,909,929,949,970,989,1009,1030,1049,1070,1090,1109],"xSR":741.5,"ySR":469.95,"xT1":424.9,"yT1":0,"xT2":1058.1,"yT2":0,"toosoon":0,"cond_shown":"equaldotsize","ratio_trial":500,"smaller_num":"6","larger_num":"12","correct_side":1,"subjID":"DanielJimenezAngel20","gender":"0","age":"10","school":"6"},{"start_time":1551887511346,"click_time":1551887512514,"finger_time":1551887512055,"fix_duration":591.7796163883911,"trial":13,"RT":709,"MT":459,"sideResp":2,"stimulus":"img/900/equaldotsize/L/8_Ratio_900_L_20_R_18.png","xmouse":[767,767,767,767,767,766,766,766,766,766,766,766,766,766,766,766,766,766,766,766,766,766,766,766,766,766,766,766,766,766,766,766,766,766,779,806,834,860,897,943,951,955,955,957,969,978,982,984,991,998,1009,1021,1029,1035,1040,1042,1048,1058,1072],"ymouse":[524,524,524,524,524,524,524,524,524,524,524,524,524,524,524,524,524,524,524,524,524,524,524,524,524,524,524,524,524,524,524,524,524,517,487,442,389,344,278,189,169,155,146,138,113,101,93,91,85,80,74,67,63,62,60,60,60,60,60],"timestamp_mouse":[8,29,49,69,88,108,129,148,169,189,208,229,249,268,289,308,328,348,368,389,408,428,448,468,488,508,528,548,568,588,608,629,649,668,688,709,728,749,768,789,809,828,848,868,889,908,929,948,969,988,1008,1029,1048,1068,1089,1108,1129,1148,1168],"xSR":741.5,"ySR":469.95,"xT1":424.9,"yT1":0,"xT2":1058.1,"yT2":0,"toosoon":0,"cond_shown":"equaldotsize","ratio_trial":900,"smaller_num":"18","larger_num":"20","correct_side":1,"subjID":"DanielJimenezAngel20","gender":"0","age":"10","school":"6"},{"start_time":1551887514130,"click_time":1551887514894,"finger_time":1551887514754,"fix_duration":896.950707883837,"trial":14,"RT":624,"MT":140,"sideResp":2,"stimulus":"img/500/randomdotsizeEA/R/6_Ratio_500_L_9_R_18.png","xmouse":[781,781,781,781,781,781,781,781,781,781,781,781,781,781,781,781,781,781,781,781,781,781,781,781,781,781,781,781,781,781,787,804,837,882,928,1003,1043,1076,1097],"ymouse":[500,500,500,500,500,500,500,500,500,500,500,500,500,500,500,500,500,500,500,500,500,500,500,500,500,500,500,500,500,500,490,467,422,369,320,233,176,125,88],"timestamp_mouse":[4,24,44,65,84,104,124,144,164,184,204,224,245,264,284,304,324,344,364,385,404,424,444,464,485,505,524,544,564,584,605,624,645,665,684,704,724,744,764],"xSR":741.5,"ySR":469.95,"xT1":424.9,"yT1":0,"xT2":1058.1,"yT2":0,"toosoon":0,"cond_shown":"randomdotsizeEA","ratio_trial":500,"smaller_num":"9","larger_num":"18","correct_side":2,"subjID":"DanielJimenezAngel20","gender":"0","age":"10","school":"6"},{"start_time":1551887516636,"click_time":1551887517494,"finger_time":1551887517174,"fix_duration":601.5870463469652,"trial":15,"RT":538,"MT":320,"sideResp":2,"stimulus":"img/750/equaldotanddens/R/15_Ratio_750_L_9_R_12.png","xmouse":[804,804,804,804,804,804,804,804,804,804,804,804,804,804,804,804,804,804,804,804,804,804,804,804,804,805,822,859,964,1004,1027,1036,1039,1039,1039,1039,1040,1040,1041,1041,1043,1048,1059],"ymouse":[488,488,488,488,488,488,488,488,488,488,488,488,488,488,488,488,488,488,488,488,488,488,488,488,488,485,459,397,243,176,129,109,96,91,91,89,82,75,70,70,68,64,59],"timestamp_mouse":[18,38,58,78,98,119,138,158,179,198,218,239,259,279,298,318,339,358,379,399,418,438,459,479,498,518,538,558,579,598,618,638,658,679,698,718,738,758,779,799,818,838,858],"xSR":741.5,"ySR":469.95,"xT1":424.9,"yT1":0,"xT2":1058.1,"yT2":0,"toosoon":0,"cond_shown":"equaldotanddens","ratio_trial":750,"smaller_num":"9","larger_num":"12","correct_side":2,"subjID":"DanielJimenezAngel20","gender":"0","age":"10","school":"6"},{"start_time":1551887518387,"click_time":1551887519134,"finger_time":1551887518935,"fix_duration":250,"trial":16,"RT":548,"MT":199,"sideResp":1,"stimulus":"img/500/randomdotsizeEA/L/7_Ratio_500_L_10_R_5.png","xmouse":[762,762,762,762,762,762,762,762,762,762,762,762,762,762,762,762,762,762,762,762,762,762,762,762,762,762,759,735,708,670,633,568,555,549,545,541,536,517],"ymouse":[526,526,526,526,526,526,526,526,526,526,526,526,526,526,526,526,526,526,526,526,526,526,526,526,526,518,507,442,394,337,285,209,188,175,163,150,134,96],"timestamp_mouse":[7,27,47,67,87,107,127,148,166,188,207,227,247,267,288,308,327,348,366,387,409,428,447,467,487,508,527,548,568,587,608,628,646,668,688,707,728,747],"xSR":741.5,"ySR":469.95,"xT1":424.9,"yT1":0,"xT2":1058.1,"yT2":0,"toosoon":0,"cond_shown":"randomdotsizeEA","ratio_trial":500,"smaller_num":"5","larger_num":"10","correct_side":1,"subjID":"DanielJimenezAngel20","gender":"0","age":"10","school":"6"},{"start_time":1551887521706,"click_time":1551887522475,"finger_time":1551887522415,"fix_duration":250,"trial":17,"RT":709,"MT":60,"sideResp":2,"stimulus":"img/900/equaldotsize/L/2_Ratio_900_L_20_R_18.png","xmouse":[772,772,772,772,772,772,772,772,772,772,772,772,772,772,772,772,772,772,772,772,772,772,772,772,772,772,772,772,772,772,772,772,772,774,796,842,978,1058,1149],"ymouse":[548,548,548,548,548,548,548,548,548,548,548,548,548,548,548,548,548,548,548,548,548,548,548,548,548,548,548,548,548,548,548,548,548,545,517,451,273,177,82],"timestamp_mouse":[8,29,48,68,88,108,128,148,168,188,209,228,248,268,288,309,328,349,368,389,408,428,448,469,488,508,529,548,569,588,608,628,648,669,688,709,729,748,769],"xSR":741.5,"ySR":469.95,"xT1":424.9,"yT1":0,"xT2":1058.1,"yT2":0,"toosoon":0,"cond_shown":"equaldotsize","ratio_trial":900,"smaller_num":"18","larger_num":"20","correct_side":1,"subjID":"DanielJimenezAngel20","gender":"0","age":"10","school":"6"},{"start_time":1551887524746,"click_time":1551887525874,"finger_time":1551887525455,"fix_duration":651.2978085607941,"trial":18,"RT":709,"MT":419,"sideResp":1,"stimulus":"img/900/randomdotsizeEA/L/1_Ratio_900_L_10_R_9.png","xmouse":[829,829,829,829,829,827,825,820,810,809,809,809,809,809,809,809,809,809,809,809,809,809,809,809,809,809,809,809,809,809,809,809,809,807,770,733,701,673,638,630,621,612,602,590,564,556,554,554,553,543,533,519,503,475,462,445,427],"ymouse":[531,531,531,531,531,531,529,525,519,518,518,518,518,518,518,518,518,518,518,518,518,518,518,518,518,518,518,518,518,518,518,518,518,516,477,445,417,392,353,341,327,311,294,278,246,236,234,233,232,227,221,213,201,171,149,122,97],"timestamp_mouse":[8,29,49,69,88,108,128,149,169,188,208,229,248,269,289,308,329,349,368,389,407,429,449,469,488,508,529,549,569,588,608,628,648,669,688,709,728,749,769,788,808,828,848,868,888,909,928,948,969,988,1008,1028,1048,1069,1088,1108,1128],"xSR":741.5,"ySR":469.95,"xT1":424.9,"yT1":0,"xT2":1058.1,"yT2":0,"toosoon":0,"cond_shown":"randomdotsizeEA","ratio_trial":900,"smaller_num":"9","larger_num":"10","correct_side":1,"subjID":"DanielJimenezAngel20","gender":"0","age":"10","school":"6"},{"start_time":1551887527086,"click_time":1551887528134,"finger_time":1551887527915,"fix_duration":250,"trial":19,"RT":829,"MT":219,"sideResp":2,"stimulus":"img/750/randomdotsizeEA/L/8_Ratio_750_L_4_R_3.png","xmouse":[753,753,753,753,753,753,753,753,753,753,753,753,753,753,753,753,753,753,753,753,753,753,753,753,753,753,753,753,753,753,753,753,753,753,753,753,753,753,762,769,778,797,803,803,803,806,815,836,847,863,880,915,1111],"ymouse":[519,519,519,519,519,519,519,519,519,519,519,519,519,519,519,519,519,519,519,519,519,519,519,519,519,519,519,519,519,519,519,519,519,519,519,519,519,519,506,498,478,406,352,319,294,279,261,225,207,189,173,149,14],"timestamp_mouse":[9,29,48,68,88,108,129,149,168,188,208,228,248,269,289,309,328,348,368,388,409,429,447,468,488,508,528,549,567,588,608,628,648,668,689,708,729,748,769,788,809,829,849,868,889,909,928,948,968,988,1009,1028,1048],"xSR":741.5,"ySR":469.95,"xT1":424.9,"yT1":0,"xT2":1058.1,"yT2":0,"toosoon":0,"cond_shown":"randomdotsizeEA","ratio_trial":750,"smaller_num":"3","larger_num":"4","correct_side":1,"subjID":"DanielJimenezAngel20","gender":"0","age":"10","school":"6"},{"start_time":1551887530016,"click_time":1551887531634,"finger_time":1551887530695,"fix_duration":1020.9787130050371,"trial":20,"RT":679,"MT":939,"sideResp":2,"stimulus":"img/750/randomdotsizeEA/R/15_Ratio_750_L_9_R_12.png","xmouse":[808,808,808,808,808,808,808,808,808,808,808,808,808,808,808,808,808,808,808,808,808,808,808,808,808,808,808,808,808,808,808,809,809,813,834,854,866,874,881,886,909,925,940,955,983,1010,1014,1014,1014,1016,1016,1016,1018,1020,1024,1035,1039,1042,1045,1046,1047,1047,1047,1047,1047,1047,1047,1047,1047,1047,1047,1047,1047,1047,1047,1047,1047,1048,1049,1051,1059],"ymouse":[494,494,494,494,494,494,494,494,494,494,494,494,494,494,494,494,494,494,494,494,494,493,493,493,493,493,493,493,493,493,493,491,485,463,410,358,329,311,299,287,240,211,183,155,107,67,63,63,63,62,62,62,61,61,60,58,58,58,58,57,57,57,57,57,57,57,57,57,57,57,57,57,57,57,57,57,57,56,56,55,53],"timestamp_mouse":[20,39,58,78,98,119,138,158,178,198,218,238,259,278,298,318,338,358,379,398,419,438,459,478,498,519,538,558,578,599,619,638,659,679,699,718,737,758,778,798,818,838,859,878,899,918,938,958,979,999,1019,1039,1058,1078,1098,1118,1138,1158,1179,1199,1219,1238,1258,1278,1299,1318,1338,1358,1378,1399,1418,1438,1459,1479,1498,1518,1539,1557,1578,1598,1618],"xSR":741.5,"ySR":469.95,"xT1":424.9,"yT1":0,"xT2":1058.1,"yT2":0,"toosoon":0,"cond_shown":"randomdotsizeEA","ratio_trial":750,"smaller_num":"9","larger_num":"12","correct_side":2,"subjID":"DanielJimenezAngel20","gender":"0","age":"10","school":"6"},{"start_time":1551887534856,"click_time":1551887535934,"finger_time":1551887535734,"fix_duration":880.3457111250045,"trial":21,"RT":878,"MT":200,"sideResp":2,"stimulus":"img/750/equaldotanddens/R/3_Ratio_750_L_15_R_20.png","xmouse":[795,795,795,795,795,795,795,795,795,795,795,795,795,795,795,795,795,795,795,795,795,795,795,795,795,795,795,795,795,795,795,795,795,795,795,795,795,795,795,778,771,766,758,751,753,753,753,759,777,794,820,876,1014,1117],"ymouse":[495,495,495,495,495,495,495,495,495,495,495,495,495,495,495,495,495,495,495,495,495,495,495,495,495,495,495,495,495,495,495,495,495,495,495,495,495,495,495,499,499,493,474,359,319,291,267,245,208,190,172,140,62,11],"timestamp_mouse":[18,39,58,78,98,118,139,159,179,198,219,239,259,278,299,318,339,358,378,399,419,437,458,478,499,519,538,559,578,598,618,638,658,678,699,718,738,759,779,799,818,838,858,878,898,917,938,958,979,999,1018,1038,1059,1078],"xSR":741.5,"ySR":469.95,"xT1":424.9,"yT1":0,"xT2":1058.1,"yT2":0,"toosoon":0,"cond_shown":"equaldotanddens","ratio_trial":750,"smaller_num":"15","larger_num":"20","correct_side":2,"subjID":"DanielJimenezAngel20","gender":"0","age":"10","school":"6"},{"start_time":1551887537993,"click_time":1551887540274,"finger_time":1551887539735,"fix_duration":998.4596090042073,"trial":22,"RT":1742,"MT":539,"sideResp":2,"stimulus":"img/500/randomdotsizeEA/L/11_Ratio_500_L_12_R_6.png","xmouse":[810,810,810,810,810,810,810,810,810,810,810,810,810,810,810,810,810,810,810,810,810,810,810,810,810,810,810,810,810,810,810,810,810,810,810,810,810,810,810,810,810,810,810,810,810,810,810,810,810,810,810,810,810,810,810,810,810,810,810,810,810,810,810,810,810,810,810,810,810,810,810,810,810,810,810,810,810,810,810,810,810,810,810,810,810,812,818,846,858,871,881,911,937,968,991,1004,1009,1010,1010,1011,1013,1016,1029,1035,1041,1043,1044,1046,1048,1050,1052,1057,1058,1058,1059],"ymouse":[533,533,533,533,533,533,533,533,533,533,533,533,533,533,533,533,533,533,533,533,533,533,533,533,533,533,533,533,533,533,533,533,533,533,533,533,533,533,533,533,533,533,533,533,533,533,533,533,533,533,533,533,533,533,533,533,533,533,533,533,533,533,533,533,533,533,533,533,533,533,533,533,533,533,533,533,533,533,533,533,533,533,533,533,533,530,521,474,453,432,415,373,335,289,251,230,218,211,208,201,189,172,137,122,107,101,98,96,92,88,85,79,78,78,77],"timestamp_mouse":[3,22,42,61,81,102,122,142,162,182,202,221,241,262,282,301,321,342,362,381,402,421,441,461,482,502,521,541,561,581,601,622,640,662,681,701,721,741,761,782,802,822,841,861,881,902,921,942,961,981,1001,1021,1041,1061,1082,1102,1121,1142,1161,1181,1201,1222,1241,1261,1281,1301,1322,1341,1361,1382,1402,1421,1441,1462,1482,1501,1521,1541,1561,1581,1601,1621,1640,1662,1681,1701,1721,1742,1761,1781,1801,1822,1841,1861,1881,1901,1922,1941,1961,1982,2001,2022,2042,2062,2081,2101,2122,2142,2161,2180,2201,2222,2242,2261,2281],"xSR":741.5,"ySR":469.95,"xT1":424.9,"yT1":0,"xT2":1058.1,"yT2":0,"toosoon":0,"cond_shown":"randomdotsizeEA","ratio_trial":500,"smaller_num":"6","larger_num":"12","correct_side":1,"subjID":"DanielJimenezAngel20","gender":"0","age":"10","school":"6"},{"start_time":1551887545244,"click_time":1551887546435,"finger_time":1551887545954,"fix_duration":1089.3965341464377,"trial":23,"RT":710,"MT":481,"sideResp":2,"stimulus":"img/900/equaldotsize/R/7_Ratio_900_L_9_R_10.png","xmouse":[776,776,776,776,776,776,776,776,776,776,776,776,776,776,776,776,776,776,776,776,776,776,776,776,776,776,776,776,776,776,776,776,776,776,794,835,868,898,937,1019,1044,1052,1055,1054,1053,1052,1051,1050,1046,1045,1045,1045,1045,1045,1045,1045,1045,1045,1047,1060],"ymouse":[507,507,507,507,507,507,507,507,507,507,507,507,507,507,507,507,507,507,507,507,507,507,507,507,507,507,507,507,507,507,507,507,507,507,490,446,397,353,298,181,138,110,94,84,83,82,81,80,74,73,73,73,73,73,73,73,73,73,72,73],"timestamp_mouse":[10,31,50,71,90,110,130,150,170,190,211,230,251,270,290,310,330,351,371,391,410,431,450,471,491,510,530,550,570,590,611,631,650,670,691,710,730,750,770,790,811,830,851,871,890,910,930,950,971,991,1011,1031,1050,1071,1091,1110,1131,1150,1170,1190],"xSR":741.5,"ySR":469.95,"xT1":424.9,"yT1":0,"xT2":1058.1,"yT2":0,"toosoon":0,"cond_shown":"equaldotsize","ratio_trial":900,"smaller_num":"9","larger_num":"10","correct_side":2,"subjID":"DanielJimenezAngel20","gender":"0","age":"10","school":"6"},{"start_time":1551887548829,"click_time":1551887550074,"finger_time":1551887549634,"fix_duration":1453.1242185646292,"trial":24,"RT":805,"MT":440,"sideResp":1,"stimulus":"img/900/randomdotsizeEA/L/2_Ratio_900_L_20_R_18.png","xmouse":[790,790,790,790,790,790,790,790,790,790,790,790,790,790,790,790,790,790,790,790,790,790,790,790,790,790,790,790,790,790,790,790,790,790,790,790,790,790,790,758,714,661,589,511,457,415,403,392,384,378,376,378,378,379,383,401,410,413,414,417,421,424,429],"ymouse":[503,503,503,503,503,503,503,503,503,503,503,503,503,503,503,503,503,503,503,503,503,503,503,503,503,503,503,503,503,503,503,503,503,503,503,503,503,503,503,489,449,394,353,322,299,268,250,231,212,197,170,163,162,159,152,134,124,120,116,110,103,98,91],"timestamp_mouse":[5,24,44,64,84,105,124,144,166,186,205,226,245,265,286,305,325,345,364,385,406,424,446,465,485,504,524,545,565,584,606,626,645,665,685,706,724,744,765,785,805,825,845,865,886,905,925,946,965,986,1005,1024,1045,1066,1085,1104,1124,1145,1166,1186,1205,1224,1245],"xSR":741.5,"ySR":469.95,"xT1":424.9,"yT1":0,"xT2":1058.1,"yT2":0,"toosoon":0,"cond_shown":"randomdotsizeEA","ratio_trial":900,"smaller_num":"18","larger_num":"20","correct_side":1,"subjID":"DanielJimenezAngel20","gender":"0","age":"10","school":"6"},{"start_time":1551887551770,"click_time":1551887553694,"finger_time":1551887553335,"fix_duration":754.6602144218261,"trial":25,"RT":1565,"MT":359,"sideResp":2,"stimulus":"img/250/equaldotsize/L/2_Ratio_250_L_16_R_4.png","xmouse":[788,788,788,788,787,787,787,787,786,784,782,782,782,782,782,782,782,782,782,782,782,782,782,782,782,782,782,782,782,782,782,781,781,781,781,781,781,781,781,781,778,778,778,778,778,778,778,778,778,778,778,778,778,778,778,778,778,778,778,778,778,779,779,780,780,781,782,783,783,783,783,783,783,783,783,783,783,788,833,890,955,1033,1033,1033,1033,1033,1033,1033,1033,1033,1033,1033,1033,1033,1033,1147,1140],"ymouse":[492,492,492,491,490,490,490,490,489,487,485,485,485,485,485,485,485,485,485,485,485,485,485,485,485,485,485,485,485,485,485,484,484,484,484,484,484,484,484,484,482,482,482,482,482,482,482,482,482,482,482,482,482,482,482,482,482,482,482,482,483,483,484,484,484,484,484,484,484,484,484,484,484,484,484,484,484,476,380,258,133,17,17,17,17,17,17,17,17,17,17,17,17,17,17,0,22],"timestamp_mouse":[3,24,44,64,85,103,123,144,164,184,205,224,243,265,284,304,324,343,364,384,404,424,444,464,484,503,523,543,563,584,604,624,644,664,684,703,724,743,765,784,803,825,845,864,884,904,923,943,963,984,1004,1023,1043,1063,1084,1105,1125,1144,1164,1184,1203,1224,1243,1265,1284,1304,1324,1344,1363,1384,1404,1423,1444,1463,1484,1505,1524,1544,1565,1584,1604,1624,1644,1663,1683,1704,1724,1745,1764,1784,1804,1823,1843,1864,1884,1903,1924],"xSR":741.5,"ySR":469.95,"xT1":424.9,"yT1":0,"xT2":1058.1,"yT2":0,"toosoon":0,"cond_shown":"equaldotsize","ratio_trial":250,"smaller_num":"4","larger_num":"16","correct_side":1,"subjID":"DanielJimenezAngel20","gender":"0","age":"10","school":"6"},{"start_time":1551887557885,"click_time":1551887558834,"finger_time":1551887558454,"fix_duration":1349.7200431988458,"trial":26,"RT":569,"MT":380,"sideResp":1,"stimulus":"img/750/equaldotanddens/L/14_Ratio_750_L_8_R_6.png","xmouse":[814,814,814,814,814,814,814,814,814,814,814,814,814,814,814,814,814,814,814,814,814,814,814,814,814,813,811,786,755,723,674,659,589,568,544,524,506,482,474,469,464,455,449,449,449,449,449,449],"ymouse":[529,529,529,529,529,529,529,529,529,529,529,529,529,529,529,529,529,529,529,529,529,529,529,529,529,527,526,498,460,425,371,356,285,258,229,203,178,147,139,129,122,113,105,105,105,105,104,98],"timestamp_mouse":[8,30,50,69,88,108,129,149,169,188,210,230,250,268,289,309,333,349,370,389,410,430,449,468,489,509,529,548,569,589,609,630,649,669,689,709,730,748,768,790,809,829,850,868,889,909,928,949],"xSR":741.5,"ySR":469.95,"xT1":424.9,"yT1":0,"xT2":1058.1,"yT2":0,"toosoon":0,"cond_shown":"equaldotanddens","ratio_trial":750,"smaller_num":"6","larger_num":"8","correct_side":1,"subjID":"DanielJimenezAngel20","gender":"0","age":"10","school":"6"},{"start_time":1551887561037,"click_time":1551887562054,"finger_time":1551887561614,"fix_duration":1303.3611277675097,"trial":27,"RT":577,"MT":440,"sideResp":1,"stimulus":"img/750/equaldotsize/L/9_Ratio_750_L_4_R_3.png","xmouse":[788,788,788,788,788,788,788,788,788,788,788,788,788,788,788,788,788,788,788,788,788,788,788,788,782,774,762,751,732,714,689,652,612,577,499,485,479,476,473,465,459,456,454,449,444,443,442,441,439,438,438],"ymouse":[497,497,497,497,497,497,497,497,497,497,497,497,497,497,497,497,497,497,497,497,497,497,497,497,490,486,479,473,456,438,408,370,336,305,236,223,215,210,206,195,189,187,184,172,158,152,144,134,112,103,94],"timestamp_mouse":[17,37,58,77,98,116,136,157,177,198,218,237,257,278,296,318,338,357,376,396,417,437,457,476,497,517,537,558,577,597,618,637,656,677,697,717,737,757,776,797,817,836,856,877,897,917,938,958,978,997,1017],"xSR":741.5,"ySR":469.95,"xT1":424.9,"yT1":0,"xT2":1058.1,"yT2":0,"toosoon":0,"cond_shown":"equaldotsize","ratio_trial":750,"smaller_num":"3","larger_num":"4","correct_side":1,"subjID":"DanielJimenezAngel20","gender":"0","age":"10","school":"6"},{"start_time":1551887563215,"click_time":1551887564154,"finger_time":1551887563854,"fix_duration":301.79233173933227,"trial":28,"RT":639,"MT":300,"sideResp":1,"stimulus":"img/250/equaldotanddens/L/2_Ratio_250_L_16_R_4.png","xmouse":[752,752,752,752,752,752,752,752,752,752,752,752,752,752,752,752,752,751,749,748,748,748,748,748,748,748,748,748,748,748,743,737,736,734,723,707,698,690,681,636,592,555,528,512,502,469,458],"ymouse":[540,540,540,540,540,540,540,540,540,540,540,540,540,540,540,540,540,538,536,534,534,534,534,534,534,534,534,534,534,534,534,534,534,533,529,519,510,497,470,338,261,209,179,159,145,101,89],"timestamp_mouse":[21,39,58,79,98,120,138,158,178,199,218,239,258,280,299,319,339,359,380,399,420,438,460,480,498,520,540,559,580,600,619,639,659,679,698,719,739,759,778,799,820,839,859,880,900,919,939],"xSR":741.5,"ySR":469.95,"xT1":424.9,"yT1":0,"xT2":1058.1,"yT2":0,"toosoon":0,"cond_shown":"equaldotanddens","ratio_trial":250,"smaller_num":"4","larger_num":"16","correct_side":1,"subjID":"DanielJimenezAngel20","gender":"0","age":"10","school":"6"},{"start_time":1551887568385,"click_time":1551887569454,"finger_time":1551887569014,"fix_duration":250,"trial":29,"RT":629,"MT":440,"sideResp":2,"stimulus":"img/750/equaldotanddens/R/2_Ratio_750_L_6_R_8.png","xmouse":[749,749,749,749,749,749,749,749,749,749,749,750,750,750,750,750,750,750,750,750,750,750,750,750,750,750,750,750,754,763,773,803,823,839,857,872,905,928,944,956,967,973,976,976,980,988,1001,1018,1020,1023,1030,1052,1058,1062],"ymouse":[528,528,528,528,528,528,528,528,528,528,528,528,528,525,524,524,524,524,524,524,524,524,524,524,524,524,524,523,516,504,486,444,415,392,369,345,300,262,235,214,195,185,176,171,164,150,136,111,108,104,98,82,77,74],"timestamp_mouse":[9,30,48,69,89,109,128,149,168,189,209,229,249,269,290,310,329,349,369,389,409,429,448,469,488,509,528,548,569,589,608,629,650,670,690,708,729,750,769,790,809,830,849,868,889,909,929,950,969,988,1008,1029,1049,1069],"xSR":741.5,"ySR":469.95,"xT1":424.9,"yT1":0,"xT2":1058.1,"yT2":0,"toosoon":0,"cond_shown":"equaldotanddens","ratio_trial":750,"smaller_num":"6","larger_num":"8","correct_side":2,"subjID":"DanielJimenezAngel20","gender":"0","age":"10","school":"6"},{"start_time":1551887571370,"click_time":1551887572274,"finger_time":1551887571974,"fix_duration":1235.7752229655316,"trial":30,"RT":604,"MT":300,"sideResp":2,"stimulus":"img/500/equaldotsize/R/1_Ratio_500_L_9_R_18.png","xmouse":[820,820,820,820,820,820,820,820,820,820,820,820,820,820,820,820,820,820,820,820,820,820,820,820,820,820,820,820,820,823,845,889,1036,1120,1201,1201,1201,1201,1201,1201,1201,1201,1201,1201,1160,1148],"ymouse":[533,533,533,533,533,533,533,533,533,533,533,533,533,533,533,533,533,533,533,533,533,533,533,533,533,533,533,533,533,530,498,430,224,110,6,6,6,6,6,6,6,6,6,6,3,21],"timestamp_mouse":[4,25,44,64,84,105,124,144,163,184,205,223,243,265,284,304,324,344,365,384,404,423,444,464,484,503,524,544,563,584,604,625,644,663,685,705,724,743,763,785,804,825,844,865,883,904],"xSR":741.5,"ySR":469.95,"xT1":424.9,"yT1":0,"xT2":1058.1,"yT2":0,"toosoon":0,"cond_shown":"equaldotsize","ratio_trial":500,"smaller_num":"9","larger_num":"18","correct_side":2,"subjID":"DanielJimenezAngel20","gender":"0","age":"10","school":"6"},{"start_time":1551887574797,"click_time":1551887575475,"finger_time":1551887575335,"fix_duration":1423.092878167635,"trial":31,"RT":538,"MT":140,"sideResp":1,"stimulus":"img/250/randomdotsizeEA/R/4_Ratio_250_L_3_R_12.png","xmouse":[791,791,791,791,791,791,791,791,791,791,791,791,791,791,791,791,791,791,791,791,791,791,791,791,791,777,716,670,629,591,537,515,490,466],"ymouse":[496,496,496,496,496,496,496,496,496,496,496,496,496,496,496,496,496,496,496,496,496,496,496,496,496,475,410,369,333,290,211,159,103,63],"timestamp_mouse":[18,38,58,77,98,117,137,158,178,197,218,237,257,276,297,318,338,357,377,397,416,437,457,477,496,517,538,557,577,597,618,638,658,678],"xSR":741.5,"ySR":469.95,"xT1":424.9,"yT1":0,"xT2":1058.1,"yT2":0,"toosoon":0,"cond_shown":"randomdotsizeEA","ratio_trial":250,"smaller_num":"3","larger_num":"12","correct_side":2,"subjID":"DanielJimenezAngel20","gender":"0","age":"10","school":"6"},{"start_time":1551887576705,"click_time":1551887577834,"finger_time":1551887577054,"fix_duration":250,"trial":32,"RT":349,"MT":780,"sideResp":1,"stimulus":"img/500/equaldotanddens/L/10_Ratio_500_L_4_R_2.png","xmouse":[792,792,792,792,792,792,792,792,792,792,792,792,792,792,797,803,818,829,845,857,891,933,956,973,986,995,1007,1011,1015,1019,1019,1019,1019,1017,999,912,850,781,725,689,665,617,596,570,547,500,489,485,484,484,484,483,483,483,484,488,497],"ymouse":[550,550,550,550,550,550,549,547,546,545,544,541,538,531,519,505,475,460,444,427,373,290,245,205,173,146,114,98,84,73,66,64,64,63,71,124,163,201,225,234,235,214,200,186,174,161,159,158,158,158,157,151,147,141,133,121,93],"timestamp_mouse":[8,28,49,69,88,110,129,149,169,190,209,230,248,268,290,309,329,349,369,389,409,430,449,469,490,509,529,549,568,589,608,629,648,669,690,710,729,749,769,789,808,830,849,869,889,910,929,950,969,989,1010,1028,1049,1069,1090,1110,1129],"xSR":741.5,"ySR":469.95,"xT1":424.9,"yT1":0,"xT2":1058.1,"yT2":0,"toosoon":0,"cond_shown":"equaldotanddens","ratio_trial":500,"smaller_num":"2","larger_num":"4","correct_side":1,"subjID":"DanielJimenezAngel20","gender":"0","age":"10","school":"6"},{"start_time":1551887579449,"click_time":1551887581174,"finger_time":1551887580174,"fix_duration":834.7433912172056,"trial":33,"RT":725,"MT":1000,"sideResp":1,"stimulus":"img/250/randomdotsizeEA/L/2_Ratio_250_L_16_R_4.png","xmouse":[787,787,787,787,787,787,787,787,787,787,787,787,787,787,787,787,787,787,787,787,787,787,787,787,787,787,787,787,787,787,787,787,787,787,787,789,798,812,841,921,946,958,964,967,970,973,981,991,1010,1016,1018,1019,1021,1024,1030,1031,1031,1032,1032,1032,1032,1032,1032,1032,1032,1032,1032,1032,1026,986,960,927,894,832,783,747,718,698,678,670,651,622,591,567,542,529,513],"ymouse":[494,494,494,494,494,494,494,494,494,494,494,494,494,494,494,494,494,494,494,494,494,494,494,494,494,494,494,494,494,494,494,494,494,494,494,486,469,444,401,279,225,191,168,154,135,123,103,82,51,44,42,40,40,38,38,38,38,38,38,38,38,38,38,38,38,38,38,38,42,50,53,58,63,67,67,67,67,67,69,69,69,69,69,70,70,70,70],"timestamp_mouse":[8,26,45,66,84,105,124,145,165,186,204,224,245,264,284,304,325,345,365,384,404,425,445,465,486,505,524,545,565,585,605,625,644,664,685,705,725,745,766,785,806,825,845,866,886,905,925,945,966,985,1004,1026,1045,1064,1086,1105,1125,1145,1164,1186,1206,1224,1245,1266,1285,1305,1325,1345,1364,1385,1404,1425,1444,1466,1485,1505,1525,1545,1566,1586,1605,1624,1645,1664,1686,1705,1725],"xSR":741.5,"ySR":469.95,"xT1":424.9,"yT1":0,"xT2":1058.1,"yT2":0,"toosoon":0,"cond_shown":"randomdotsizeEA","ratio_trial":250,"smaller_num":"4","larger_num":"16","correct_side":1,"subjID":"DanielJimenezAngel20","gender":"0","age":"10","school":"6"},{"start_time":1551887583821,"click_time":1551887584935,"finger_time":1551887584513,"fix_duration":1406.4755558197544,"trial":34,"RT":692,"MT":422,"sideResp":2,"stimulus":"img/900/randomdotsizeEA/R/12_Ratio_900_L_18_R_20.png","xmouse":[763,763,763,763,763,763,763,763,763,763,763,763,763,763,763,763,763,763,763,763,763,763,763,763,763,763,763,763,763,763,763,771,774,788,809,927,976,1003,1013,1020,1022,1022,1022,1023,1033,1034,1034,1034,1034,1037,1040,1044,1049,1053,1054,1061],"ymouse":[537,537,537,537,537,537,537,537,537,537,537,537,537,537,537,537,537,537,537,537,537,537,537,537,537,537,537,537,537,537,537,528,518,489,445,283,210,156,132,118,106,100,93,85,70,70,70,70,70,70,70,70,69,68,68,68],"timestamp_mouse":[15,33,54,74,92,112,132,154,174,192,214,233,253,272,293,314,333,352,374,393,414,434,452,472,493,513,532,553,573,592,612,634,653,673,692,714,733,753,774,793,813,833,853,873,893,914,933,953,973,994,1013,1032,1054,1073,1094,1114],"xSR":741.5,"ySR":469.95,"xT1":424.9,"yT1":0,"xT2":1058.1,"yT2":0,"toosoon":0,"cond_shown":"randomdotsizeEA","ratio_trial":900,"smaller_num":"18","larger_num":"20","correct_side":2,"subjID":"DanielJimenezAngel20","gender":"0","age":"10","school":"6"},{"start_time":1551887586945,"click_time":1551887588834,"finger_time":1551887588414,"fix_duration":1410.2988048530076,"trial":35,"RT":1469,"MT":420,"sideResp":1,"stimulus":"img/900/equaldotanddens/L/10_Ratio_900_L_20_R_18.png","xmouse":[803,803,803,803,803,803,803,803,803,803,803,803,803,803,803,803,803,803,803,803,803,803,803,803,803,803,803,803,803,803,803,803,803,803,803,803,803,803,803,803,803,803,803,803,803,803,803,803,803,803,803,803,803,803,803,803,803,803,803,803,803,803,803,803,803,803,803,803,803,803,803,801,795,783,732,703,674,643,624,595,592,588,585,579,575,570,564,559,551,542,536,527,519,513,502],"ymouse":[511,511,511,511,511,511,511,511,511,511,511,511,511,511,511,511,511,511,511,511,511,511,511,511,511,511,511,511,511,511,511,511,511,511,511,511,511,511,511,511,511,511,511,511,511,511,511,511,511,511,511,511,511,511,511,511,511,510,509,508,508,508,508,508,508,508,508,508,508,508,505,499,486,463,373,325,284,248,229,205,200,194,191,183,177,172,164,159,151,142,134,123,114,107,96],"timestamp_mouse":[9,29,49,70,90,108,130,150,170,188,210,229,248,269,289,309,329,349,369,388,409,430,450,468,490,509,529,548,569,590,609,630,648,669,690,708,728,749,770,790,808,829,849,870,889,909,929,950,968,988,1009,1029,1048,1070,1090,1108,1128,1149,1169,1189,1208,1230,1249,1268,1290,1310,1328,1348,1370,1389,1409,1430,1449,1469,1489,1510,1530,1550,1570,1588,1609,1629,1649,1670,1689,1710,1728,1748,1769,1789,1808,1829,1849,1870,1889],"xSR":741.5,"ySR":469.95,"xT1":424.9,"yT1":0,"xT2":1058.1,"yT2":0,"toosoon":0,"cond_shown":"equaldotanddens","ratio_trial":900,"smaller_num":"18","larger_num":"20","correct_side":1,"subjID":"DanielJimenezAngel20","gender":"0","age":"10","school":"6"},{"start_time":1551887589824,"click_time":1551887590893,"finger_time":1551887590493,"fix_duration":250,"trial":36,"RT":669,"MT":400,"sideResp":2,"stimulus":"img/500/equaldotsize/R/2_Ratio_500_L_3_R_6.png","xmouse":[837,837,837,836,836,836,835,834,833,833,831,830,830,830,829,829,828,827,826,825,823,822,821,820,819,819,819,819,819,819,819,819,823,839,886,902,907,913,915,917,917,922,931,947,965,1006,1017,1025,1030,1039,1045,1050,1056,1063],"ymouse":[526,526,526,525,525,524,523,522,520,519,516,516,515,514,513,513,512,510,509,508,505,502,500,498,498,497,497,497,497,497,497,489,477,450,356,284,254,233,223,218,216,210,199,179,158,120,112,106,103,97,92,89,86,83],"timestamp_mouse":[12,31,49,70,90,109,130,151,170,191,210,230,249,271,291,310,329,349,370,390,410,430,449,469,490,511,530,551,571,591,610,630,651,669,690,710,730,751,770,790,811,830,850,870,889,910,930,950,970,991,1010,1030,1049,1069],"xSR":741.5,"ySR":469.95,"xT1":424.9,"yT1":0,"xT2":1058.1,"yT2":0,"toosoon":0,"cond_shown":"equaldotsize","ratio_trial":500,"smaller_num":"3","larger_num":"6","correct_side":2,"subjID":"DanielJimenezAngel20","gender":"0","age":"10","school":"6"},{"start_time":1551887592579,"click_time":1551887593334,"finger_time":1551887593154,"fix_duration":1044.2854087189435,"trial":37,"RT":575,"MT":180,"sideResp":2,"stimulus":"img/900/randomdotsizeEA/R/9_Ratio_900_L_18_R_20.png","xmouse":[790,790,790,790,790,790,790,790,790,790,790,790,790,790,790,790,790,790,790,790,790,790,790,790,790,790,790,801,830,888,962,1098,1122,1129,1130,1130,1130,1130],"ymouse":[512,512,512,512,512,512,512,512,512,512,512,512,512,512,512,512,512,512,512,512,512,512,512,512,512,512,512,496,458,388,305,151,125,115,114,114,114,99],"timestamp_mouse":[15,35,56,76,96,116,135,155,175,194,215,235,254,275,294,315,335,355,375,395,414,436,454,475,496,514,535,555,575,595,614,636,654,674,695,716,735,755],"xSR":741.5,"ySR":469.95,"xT1":424.9,"yT1":0,"xT2":1058.1,"yT2":0,"toosoon":0,"cond_shown":"randomdotsizeEA","ratio_trial":900,"smaller_num":"18","larger_num":"20","correct_side":2,"subjID":"DanielJimenezAngel20","gender":"0","age":"10","school":"6"},{"start_time":1551887595130,"click_time":1551887596034,"finger_time":1551887595714,"fix_duration":875.5855298384495,"trial":38,"RT":584,"MT":320,"sideResp":2,"stimulus":"img/750/equaldotanddens/R/7_Ratio_750_L_3_R_4.png","xmouse":[788,788,788,788,788,788,788,788,788,788,788,788,788,788,788,788,788,788,788,788,788,788,788,788,788,789,793,803,825,865,940,945,949,954,956,959,962,965,967,973,981,992,1009,1029,1052,1077],"ymouse":[543,543,543,543,543,543,543,543,543,543,543,543,543,543,543,543,543,543,543,543,543,543,543,543,540,534,527,510,478,421,291,274,260,249,241,229,220,213,204,191,179,167,153,138,118,95],"timestamp_mouse":[4,24,44,64,85,103,124,144,163,184,204,225,243,265,285,304,323,343,364,384,403,425,445,465,484,504,524,543,565,584,604,623,643,664,684,704,724,745,763,784,804,823,844,865,884,904],"xSR":741.5,"ySR":469.95,"xT1":424.9,"yT1":0,"xT2":1058.1,"yT2":0,"toosoon":0,"cond_shown":"equaldotanddens","ratio_trial":750,"smaller_num":"3","larger_num":"4","correct_side":2,"subjID":"DanielJimenezAngel20","gender":"0","age":"10","school":"6"},{"start_time":1551887598308,"click_time":1551887599154,"finger_time":1551887598834,"fix_duration":932.1010207733258,"trial":39,"RT":526,"MT":320,"sideResp":2,"stimulus":"img/250/equaldotanddens/R/9_Ratio_250_L_3_R_12.png","xmouse":[814,814,814,814,814,814,814,814,814,814,814,814,814,814,814,814,814,814,814,814,814,814,814,814,816,823,849,875,897,921,934,952,956,962,968,984,990,994,999,1004,1029,1045,1065],"ymouse":[516,516,516,516,516,516,516,516,516,516,516,516,516,516,516,516,516,516,516,516,516,516,516,517,514,496,439,393,354,312,282,240,229,215,203,180,171,162,154,147,125,113,99],"timestamp_mouse":[10,26,46,65,87,107,126,145,166,187,205,226,245,265,286,307,325,347,367,385,406,426,446,466,486,506,526,546,566,586,606,626,646,665,686,707,726,746,766,787,807,826,846],"xSR":741.5,"ySR":469.95,"xT1":424.9,"yT1":0,"xT2":1058.1,"yT2":0,"toosoon":0,"cond_shown":"equaldotanddens","ratio_trial":250,"smaller_num":"3","larger_num":"12","correct_side":2,"subjID":"DanielJimenezAngel20","gender":"0","age":"10","school":"6"},{"start_time":1551887601126,"click_time":1551887603634,"finger_time":1551887603134,"fix_duration":1090.3518836187372,"trial":40,"RT":2008,"MT":500,"sideResp":2,"stimulus":"img/250/randomdotsizeEA/L/1_Ratio_250_L_8_R_2.png","xmouse":[819,819,819,819,819,819,819,819,819,819,819,819,819,819,819,819,819,819,819,819,819,819,819,819,819,819,819,819,819,819,819,819,819,819,819,819,819,819,819,819,819,819,819,819,819,819,819,819,819,819,819,819,819,819,819,818,817,817,817,817,817,817,817,817,817,817,817,817,816,813,811,811,811,811,811,811,811,811,811,811,811,811,811,811,811,811,811,811,811,811,811,811,811,811,811,811,811,811,816,820,849,870,907,943,995,1006,1014,1018,1024,1026,1038,1042,1048,1051,1052,1052,1052,1052,1052,1052,1052,1052,1052,1052,1052,1059],"ymouse":[485,485,485,485,485,485,485,485,485,485,485,485,485,485,485,485,485,485,485,485,485,485,485,485,485,485,485,485,485,485,485,485,485,485,485,485,485,485,485,485,485,485,485,485,485,485,485,485,485,485,485,485,485,485,485,485,485,485,485,485,485,485,485,485,485,485,485,485,485,485,485,485,485,485,485,485,485,485,485,485,485,485,485,485,485,485,485,485,485,485,485,485,485,485,485,485,485,485,481,479,435,400,333,267,177,154,137,121,104,87,48,38,25,16,15,15,15,15,15,15,15,15,15,15,15,21],"timestamp_mouse":[13,27,47,68,88,108,128,147,167,188,208,227,247,269,288,308,328,348,369,389,408,428,447,469,487,507,529,548,567,587,608,628,649,668,687,707,729,747,768,787,808,828,848,869,889,909,928,949,969,989,1008,1028,1048,1069,1088,1108,1128,1148,1167,1187,1207,1228,1248,1268,1289,1309,1327,1349,1367,1388,1409,1429,1448,1468,1489,1507,1528,1549,1569,1588,1609,1628,1647,1669,1689,1708,1728,1748,1769,1787,1808,1828,1848,1868,1888,1909,1927,1948,1967,1988,2008,2028,2048,2068,2089,2108,2129,2148,2168,2188,2208,2227,2248,2268,2289,2309,2328,2347,2368,2389,2408,2427,2448,2468,2488,2507],"xSR":741.5,"ySR":469.95,"xT1":424.9,"yT1":0,"xT2":1058.1,"yT2":0,"toosoon":0,"cond_shown":"randomdotsizeEA","ratio_trial":250,"smaller_num":"2","larger_num":"8","correct_side":1,"subjID":"DanielJimenezAngel20","gender":"0","age":"10","school":"6"},{"start_time":1551887604785,"click_time":1551887605793,"finger_time":1551887605374,"fix_duration":250,"trial":41,"RT":589,"MT":419,"sideResp":1,"stimulus":"img/500/equaldotanddens/L/11_Ratio_500_L_12_R_6.png","xmouse":[803,803,803,803,803,803,803,803,803,803,803,803,803,803,803,802,799,797,797,797,797,797,797,797,797,797,794,778,755,719,678,637,584,568,551,535,514,507,498,491,484,480,479,479,477,475,473,471,468,466,465],"ymouse":[473,473,473,473,473,473,473,473,473,473,473,473,473,473,476,479,491,504,511,514,516,516,516,516,516,517,517,507,491,465,438,409,368,348,325,304,275,258,243,231,223,218,215,212,203,191,174,136,119,104,90],"timestamp_mouse":[9,30,50,69,89,110,129,148,170,188,208,229,249,269,289,309,330,349,369,389,409,429,449,469,489,509,529,550,568,589,609,629,649,670,688,709,730,749,769,789,809,828,849,869,888,909,930,950,969,988,1008],"xSR":741.5,"ySR":469.95,"xT1":424.9,"yT1":0,"xT2":1058.1,"yT2":0,"toosoon":0,"cond_shown":"equaldotanddens","ratio_trial":500,"smaller_num":"6","larger_num":"12","correct_side":1,"subjID":"DanielJimenezAngel20","gender":"0","age":"10","school":"6"},{"start_time":1551887607019,"click_time":1551887608115,"finger_time":1551887607573,"fix_duration":384.0712306654174,"trial":42,"RT":554,"MT":542,"sideResp":2,"stimulus":"img/250/randomdotsizeEA/R/11_Ratio_250_L_3_R_12.png","xmouse":[777,777,777,777,777,777,777,777,777,777,777,777,777,777,777,777,777,777,777,777,777,777,777,777,777,777,776,772,761,723,682,639,593,553,528,510,510,510,510,510,510,510,510,510,510,518,532,567,654,907,1024,1104,1138,1144,1144],"ymouse":[476,476,476,476,476,476,476,476,476,476,476,476,476,476,476,476,476,476,476,476,476,476,476,476,476,476,473,468,456,428,399,365,326,292,270,245,244,244,244,244,244,244,244,243,243,244,247,252,252,219,178,137,112,104,99],"timestamp_mouse":[18,35,54,74,95,116,134,155,175,195,215,236,255,274,294,315,335,355,375,396,415,436,455,474,495,516,535,554,575,595,615,635,656,674,696,714,735,756,775,796,815,834,855,876,895,915,935,955,975,996,1015,1034,1054,1075,1095],"xSR":741.5,"ySR":469.95,"xT1":424.9,"yT1":0,"xT2":1058.1,"yT2":0,"toosoon":0,"cond_shown":"randomdotsizeEA","ratio_trial":250,"smaller_num":"3","larger_num":"12","correct_side":2,"subjID":"DanielJimenezAngel20","gender":"0","age":"10","school":"6"},{"start_time":1551887609676,"click_time":1551887611134,"finger_time":1551887610495,"fix_duration":661.0123888169685,"trial":43,"RT":819,"MT":639,"sideResp":2,"stimulus":"img/250/randomdotsizeEA/R/8_Ratio_250_L_1_R_4.png","xmouse":[799,799,799,799,799,799,799,799,799,799,799,799,799,799,799,799,799,799,799,799,799,799,799,799,799,799,799,799,799,799,799,799,799,799,799,799,798,790,771,746,721,710,709,709,709,709,709,711,715,723,729,767,804,857,910,945,974,1034,1053,1053,1053,1053,1053,1053,1053,1053,1053,1053,1053,1053,1053,1053,1068],"ymouse":[540,540,540,540,540,540,540,540,540,540,539,539,539,539,539,539,539,539,539,539,539,539,539,539,539,539,539,539,539,539,539,539,539,539,539,539,538,536,526,510,488,469,466,466,466,466,466,465,466,469,472,473,459,418,352,278,191,44,0,0,0,0,0,0,0,0,0,0,0,0,0,0,14],"timestamp_mouse":[18,37,58,79,98,117,139,158,178,197,218,239,258,279,299,319,339,357,379,398,417,438,459,478,498,517,538,559,578,598,617,639,658,679,697,719,739,758,778,799,819,837,858,878,899,919,938,957,978,998,1018,1039,1057,1078,1098,1119,1137,1158,1179,1198,1217,1239,1258,1278,1298,1318,1339,1358,1377,1397,1418,1438,1458],"xSR":741.5,"ySR":469.95,"xT1":424.9,"yT1":0,"xT2":1058.1,"yT2":0,"toosoon":0,"cond_shown":"randomdotsizeEA","ratio_trial":250,"smaller_num":"1","larger_num":"4","correct_side":2,"subjID":"DanielJimenezAngel20","gender":"0","age":"10","school":"6"},{"start_time":1551887611985,"click_time":1551887613134,"finger_time":1551887612494,"fix_duration":250,"trial":44,"RT":509,"MT":640,"sideResp":2,"stimulus":"img/900/equaldotanddens/L/1_Ratio_900_L_10_R_9.png","xmouse":[770,770,770,771,771,771,771,771,771,771,771,771,771,771,771,771,771,771,771,771,771,771,774,785,800,822,845,871,880,894,911,930,966,978,983,984,988,1002,1008,1013,1015,1016,1018,1023,1029,1033,1038,1038,1039,1041,1046,1050,1053,1054,1054,1056,1057,1059],"ymouse":[562,561,561,560,560,560,560,560,559,559,559,559,559,559,559,559,559,559,559,559,559,557,539,518,497,466,435,378,359,336,306,274,211,188,174,167,153,118,105,96,93,91,90,87,81,78,75,75,75,75,75,75,75,75,75,75,75,75],"timestamp_mouse":[10,29,49,70,88,108,130,149,168,188,209,229,250,269,288,308,328,349,370,388,408,429,449,469,488,509,530,549,569,588,609,628,649,670,689,708,729,749,769,789,809,829,849,868,889,909,930,948,969,989,1008,1028,1049,1069,1089,1109,1129,1149],"xSR":741.5,"ySR":469.95,"xT1":424.9,"yT1":0,"xT2":1058.1,"yT2":0,"toosoon":0,"cond_shown":"equaldotanddens","ratio_trial":900,"smaller_num":"9","larger_num":"10","correct_side":1,"subjID":"DanielJimenezAngel20","gender":"0","age":"10","school":"6"},{"start_time":1551887636100,"click_time":1551887637133,"finger_time":1551887636614,"fix_duration":1265.2601711437858,"trial":45,"RT":514,"MT":519,"sideResp":2,"stimulus":"img/750/randomdotsizeEA/L/10_Ratio_750_L_4_R_3.png","xmouse":[793,793,793,793,793,793,793,793,793,793,793,793,793,793,793,793,793,793,793,793,793,793,793,795,791,765,724,724,731,736,753,780,821,887,955,1028,1110,1110,1110,1110,1110,1110,1110,1110,1110,1110,1110,1110,1110,1184,1178,1148],"ymouse":[520,520,520,520,520,520,520,520,520,520,520,520,520,520,520,520,520,520,520,520,520,520,520,513,499,438,279,225,199,183,153,128,109,86,63,34,0,0,0,0,0,0,0,0,0,0,0,0,0,2,9,38],"timestamp_mouse":[18,33,54,74,94,113,135,155,174,194,215,234,254,273,295,315,333,354,374,393,414,435,454,475,494,514,534,554,574,593,614,633,654,674,694,715,735,755,774,794,813,833,853,875,895,915,934,953,974,994,1013,1033],"xSR":741.5,"ySR":469.95,"xT1":424.9,"yT1":0,"xT2":1058.1,"yT2":0,"toosoon":0,"cond_shown":"randomdotsizeEA","ratio_trial":750,"smaller_num":"3","larger_num":"4","correct_side":1,"subjID":"DanielJimenezAngel20","gender":"0","age":"10","school":"6"},{"start_time":1551887639993,"click_time":1551887640815,"finger_time":1551887640614,"fix_duration":1317.4694478315675,"trial":46,"RT":621,"MT":201,"sideResp":2,"stimulus":"img/750/equaldotanddens/R/4_Ratio_750_L_15_R_20.png","xmouse":[821,821,819,816,814,812,810,808,808,808,808,808,808,808,808,807,806,804,804,804,804,803,803,803,803,803,803,803,803,808,828,892,1047,1088,1094,1094,1093,1085,1085,1090,1098,1110],"ymouse":[509,509,510,511,511,512,514,514,514,514,514,514,514,514,514,514,514,514,514,514,514,514,514,514,514,514,514,514,514,509,488,425,264,214,197,194,191,171,155,137,122,96],"timestamp_mouse":[0,21,41,60,82,101,121,141,162,181,200,222,242,261,280,300,321,341,362,381,401,422,442,460,481,502,521,541,561,582,602,621,641,662,682,701,721,741,761,781,801,822],"xSR":741.5,"ySR":469.95,"xT1":424.9,"yT1":0,"xT2":1058.1,"yT2":0,"toosoon":0,"cond_shown":"equaldotanddens","ratio_trial":750,"smaller_num":"15","larger_num":"20","correct_side":2,"subjID":"DanielJimenezAngel20","gender":"0","age":"10","school":"6"},{"start_time":1551887643004,"click_time":1551887644034,"finger_time":1551887643734,"fix_duration":1210.2776125381013,"trial":47,"RT":730,"MT":300,"sideResp":1,"stimulus":"img/500/randomdotsizeEA/L/8_Ratio_500_L_8_R_4.png","xmouse":[777,778,779,779,779,779,779,779,779,779,779,779,779,779,779,779,779,779,779,779,779,779,779,779,778,778,778,778,778,778,778,778,778,777,775,763,694,646,600,574,557,531,519,506,497,479,472,467,462,462,462,462],"ymouse":[518,518,518,518,518,518,518,518,518,518,518,518,518,518,518,518,518,518,518,518,518,518,517,516,515,515,515,515,515,515,515,515,515,514,513,504,456,427,397,377,361,325,305,284,265,222,203,180,154,128,101,59],"timestamp_mouse":[9,30,51,69,90,110,130,150,169,190,210,229,251,269,291,311,330,349,370,390,410,430,450,469,489,510,531,549,571,590,610,630,650,669,690,710,730,750,771,790,809,830,850,871,891,911,929,949,970,991,1010,1030],"xSR":741.5,"ySR":469.95,"xT1":424.9,"yT1":0,"xT2":1058.1,"yT2":0,"toosoon":0,"cond_shown":"randomdotsizeEA","ratio_trial":500,"smaller_num":"4","larger_num":"8","correct_side":1,"subjID":"DanielJimenezAngel20","gender":"0","age":"10","school":"6"},{"start_time":1551887646815,"click_time":1551887647854,"finger_time":1551887647414,"fix_duration":559.2802319433165,"trial":48,"RT":599,"MT":440,"sideResp":1,"stimulus":"img/500/equaldotsize/L/7_Ratio_500_L_10_R_5.png","xmouse":[762,762,762,762,762,762,762,762,762,762,762,762,762,762,762,762,762,762,762,762,762,762,762,762,762,762,760,757,749,696,648,613,598,590,582,560,542,515,483,433,422,413,404,396,392,391,391,391,394,403,419,426],"ymouse":[527,527,527,527,527,527,527,527,527,527,527,527,527,527,527,527,527,527,527,527,527,527,527,527,527,527,526,523,515,464,423,394,380,374,358,315,292,260,232,196,184,169,149,127,112,102,102,102,100,93,80,74],"timestamp_mouse":[22,40,58,80,100,118,139,159,179,198,218,239,260,278,299,319,339,359,378,398,420,439,458,478,498,519,539,558,580,599,619,640,659,678,698,718,739,758,778,800,819,840,858,879,898,919,939,958,978,998,1019,1039],"xSR":741.5,"ySR":469.95,"xT1":424.9,"yT1":0,"xT2":1058.1,"yT2":0,"toosoon":0,"cond_shown":"equaldotsize","ratio_trial":500,"smaller_num":"5","larger_num":"10","correct_side":1,"subjID":"DanielJimenezAngel20","gender":"0","age":"10","school":"6"},{"start_time":1551887650245,"click_time":1551887651413,"finger_time":1551887650973,"fix_duration":250,"trial":49,"RT":728,"MT":440,"sideResp":1,"stimulus":"img/900/equaldotanddens/L/1_Ratio_900_L_10_R_9.png","xmouse":[804,804,803,802,800,799,794,792,792,792,792,792,792,792,792,792,792,792,792,792,792,792,792,792,794,794,794,794,794,794,794,794,794,794,781,761,735,701,666,620,606,592,579,564,525,516,509,508,509,513,514,514,514,514,514,514,511,509,502],"ymouse":[555,555,555,555,555,554,553,553,553,553,553,553,553,553,553,553,553,553,553,553,553,553,553,553,553,553,553,553,553,553,553,553,553,552,532,510,478,438,399,361,348,338,325,310,274,258,235,215,202,184,173,159,141,125,112,110,106,101,92],"timestamp_mouse":[8,29,49,69,90,109,129,149,169,190,208,229,249,269,290,310,328,349,369,389,408,428,449,468,490,509,529,550,569,588,608,628,650,669,688,709,728,749,768,788,809,829,850,870,889,909,929,949,968,989,1009,1029,1048,1068,1090,1109,1128,1149,1168],"xSR":741.5,"ySR":469.95,"xT1":424.9,"yT1":0,"xT2":1058.1,"yT2":0,"toosoon":0,"cond_shown":"equaldotanddens","ratio_trial":900,"smaller_num":"9","larger_num":"10","correct_side":1,"subjID":"DanielJimenezAngel20","gender":"0","age":"10","school":"6"},{"start_time":1551887653725,"click_time":1551887654634,"finger_time":1551887654154,"fix_duration":1450.2261517334848,"trial":50,"RT":429,"MT":480,"sideResp":1,"stimulus":"img/250/equaldotsize/L/1_Ratio_250_L_8_R_2.png","xmouse":[794,794,794,794,794,794,794,794,794,794,794,794,794,794,794,794,794,794,794,787,777,761,747,739,716,692,651,596,533,452,422,405,392,382,378,376,376,376,376,385,408,412,416,419,421,426],"ymouse":[501,501,501,501,501,501,501,501,501,501,501,501,501,501,501,501,501,501,501,489,474,455,440,432,412,391,355,312,267,197,165,145,126,111,105,101,101,101,100,96,85,82,81,80,78,75],"timestamp_mouse":[11,29,48,68,89,110,128,149,168,188,210,229,249,269,288,308,329,348,370,389,409,429,448,468,489,509,528,548,570,590,610,629,648,668,688,708,729,748,769,790,809,829,848,869,888,909],"xSR":741.5,"ySR":469.95,"xT1":424.9,"yT1":0,"xT2":1058.1,"yT2":0,"toosoon":0,"cond_shown":"equaldotsize","ratio_trial":250,"smaller_num":"2","larger_num":"8","correct_side":1,"subjID":"DanielJimenezAngel20","gender":"0","age":"10","school":"6"},{"start_time":1551887657222,"click_time":1551887659454,"finger_time":1551887657813,"fix_duration":268.88205366498494,"trial":51,"RT":591,"MT":1641,"sideResp":2,"stimulus":"img/750/equaldotsize/R/4_Ratio_750_L_15_R_20.png","xmouse":[818,818,818,818,818,818,818,818,818,818,818,818,818,818,818,818,818,818,818,818,818,818,818,818,818,818,817,818,833,906,1024,1024,1024,1024,1024,1024,1024,1024,1024,1024,1024,1024,1024,1024,1024,1462,1385,1291,1210,1054,1054,1054,1054,1054,1054,1054,1054,1054,1054,1054,1054,1054,1054,1054,1054,1054,1054,1054,1054,1054,1054,1054,1054,1054,1054,1054,1054,1054,1054,1054,1054,1054,1054,1054,1054,1054,1054,1054,1054,1054,1054,1054,1054,1054,1054,1054,1054,1014,1028,1035,1045,1047,1047,1047,1051,1054,1054,1055,1055,1055,1058,1067],"ymouse":[530,530,530,530,530,530,530,530,530,530,530,530,530,530,530,530,530,530,530,530,530,530,530,530,530,530,529,518,529,599,693,693,693,693,693,693,693,693,693,693,693,693,693,693,693,712,565,394,250,20,20,20,20,20,20,20,20,20,20,20,20,20,20,20,20,20,20,20,20,20,20,20,20,20,20,20,20,20,20,20,20,20,20,20,20,20,20,20,20,20,20,20,20,20,20,20,20,10,12,13,15,16,16,16,18,19,20,21,21,21,22,29],"timestamp_mouse":[14,33,51,71,92,111,132,152,173,192,212,232,252,272,292,313,332,351,371,392,413,433,453,473,492,512,531,553,572,591,613,631,653,672,693,712,731,753,773,793,811,831,852,871,892,911,931,952,973,993,1011,1032,1053,1073,1093,1112,1133,1152,1173,1193,1212,1233,1252,1271,1291,1311,1331,1351,1373,1393,1412,1432,1452,1471,1492,1512,1531,1551,1573,1592,1613,1632,1652,1672,1691,1712,1732,1752,1772,1793,1812,1832,1852,1871,1893,1912,1931,1952,1971,1992,2011,2032,2053,2072,2092,2113,2132,2152,2172,2191,2211,2232],"xSR":741.5,"ySR":469.95,"xT1":424.9,"yT1":0,"xT2":1058.1,"yT2":0,"toosoon":0,"cond_shown":"equaldotsize","ratio_trial":750,"smaller_num":"15","larger_num":"20","correct_side":2,"subjID":"DanielJimenezAngel20","gender":"0","age":"10","school":"6"},{"start_time":1551887660915,"click_time":1551887661834,"finger_time":1551887661414,"fix_duration":500.5800962027611,"trial":52,"RT":499,"MT":420,"sideResp":2,"stimulus":"img/250/equaldotsize/R/4_Ratio_250_L_3_R_12.png","xmouse":[798,798,798,798,798,798,798,798,798,798,798,798,798,798,798,798,798,798,798,798,798,798,803,816,971,1057,1144,1220,1261,1276,1276,1276,1276,1276,1273,1271,1268,1265,1260,1216,1203,1194,1188,1184,1178,1158],"ymouse":[521,521,521,521,521,521,521,521,521,521,521,521,521,521,521,521,521,521,521,521,521,521,517,502,359,278,202,149,120,107,107,107,107,103,92,87,83,82,80,70,66,63,61,60,59,58],"timestamp_mouse":[22,39,59,79,99,120,138,159,178,199,218,240,258,280,299,318,339,360,380,400,418,439,459,478,499,519,539,559,579,599,620,639,659,679,700,718,738,760,780,800,819,838,859,879,900,919],"xSR":741.5,"ySR":469.95,"xT1":424.9,"yT1":0,"xT2":1058.1,"yT2":0,"toosoon":0,"cond_shown":"equaldotsize","ratio_trial":250,"smaller_num":"3","larger_num":"12","correct_side":2,"subjID":"DanielJimenezAngel20","gender":"0","age":"10","school":"6"},{"start_time":1551887663930,"click_time":1551887664814,"finger_time":1551887664653,"fix_duration":1275.8441501299308,"trial":53,"RT":723,"MT":161,"sideResp":2,"stimulus":"img/900/equaldotanddens/R/14_Ratio_900_L_18_R_20.png","xmouse":[780,780,780,780,780,780,780,780,780,780,780,780,780,780,780,780,780,780,780,780,780,780,780,780,780,780,780,780,780,780,780,780,780,780,780,780,792,795,808,824,909,953,991,1031,1088],"ymouse":[479,479,479,479,479,479,479,479,479,479,479,479,479,479,479,479,479,479,479,479,479,479,479,479,479,479,479,479,479,479,479,479,479,479,479,479,455,442,402,360,246,208,174,140,91],"timestamp_mouse":[4,23,45,64,84,104,124,144,165,183,205,223,245,264,284,305,324,344,363,385,404,423,444,463,484,504,524,544,564,585,605,624,644,664,684,705,723,744,764,783,804,824,843,863,884],"xSR":741.5,"ySR":469.95,"xT1":424.9,"yT1":0,"xT2":1058.1,"yT2":0,"toosoon":0,"cond_shown":"equaldotanddens","ratio_trial":900,"smaller_num":"18","larger_num":"20","correct_side":2,"subjID":"DanielJimenezAngel20","gender":"0","age":"10","school":"6"},{"start_time":1551887666095,"click_time":1551887667514,"finger_time":1551887667193,"fix_duration":398.5252591026522,"trial":54,"RT":1098,"MT":321,"sideResp":1,"stimulus":"img/250/randomdotsizeEA/L/2_Ratio_250_L_16_R_4.png","xmouse":[772,772,772,772,772,772,772,772,772,772,772,772,772,772,772,772,772,772,772,772,772,772,772,772,772,772,772,772,772,772,772,772,772,772,772,772,772,772,772,772,772,772,772,772,772,772,772,772,772,772,772,772,772,772,765,742,663,626,610,603,598,592,575,567,560,554,551,541,535,529,519,512],"ymouse":[483,483,483,483,483,483,483,483,483,483,483,483,483,483,483,483,483,483,483,483,483,483,483,483,483,483,483,483,483,483,483,483,483,483,483,483,483,483,483,483,483,483,483,483,483,483,483,483,483,483,483,483,483,483,479,438,317,274,250,234,224,214,180,165,153,143,138,126,121,113,105,98],"timestamp_mouse":[0,24,40,59,78,99,118,138,159,179,199,219,238,259,279,299,320,339,359,379,398,419,438,459,479,500,520,538,558,580,599,619,639,658,680,699,718,738,759,780,799,818,840,858,878,900,919,938,959,978,998,1020,1038,1058,1078,1098,1120,1139,1159,1180,1199,1219,1240,1259,1279,1300,1318,1339,1359,1380,1400,1419],"xSR":741.5,"ySR":469.95,"xT1":424.9,"yT1":0,"xT2":1058.1,"yT2":0,"toosoon":0,"cond_shown":"randomdotsizeEA","ratio_trial":250,"smaller_num":"4","larger_num":"16","correct_side":1,"subjID":"DanielJimenezAngel20","gender":"0","age":"10","school":"6"},{"start_time":1551887669722,"click_time":1551887670414,"finger_time":1551887670273,"fix_duration":1387.5861960189684,"trial":55,"RT":551,"MT":141,"sideResp":2,"stimulus":"img/750/randomdotsizeEA/R/3_Ratio_750_L_15_R_20.png","xmouse":[769,768,767,767,767,767,767,767,767,767,767,767,767,767,767,767,767,767,767,767,767,767,767,770,771,796,840,915,997,1105,1121,1122,1122,1119,1117],"ymouse":[515,515,515,515,515,515,515,515,515,515,515,515,515,515,515,515,515,515,515,515,515,515,515,515,515,504,470,408,326,179,136,125,120,114,94],"timestamp_mouse":[16,32,53,72,91,111,132,152,171,193,213,232,251,272,292,312,331,352,372,392,411,433,452,471,491,512,532,551,572,593,613,632,651,672,692],"xSR":741.5,"ySR":469.95,"xT1":424.9,"yT1":0,"xT2":1058.1,"yT2":0,"toosoon":0,"cond_shown":"randomdotsizeEA","ratio_trial":750,"smaller_num":"15","larger_num":"20","correct_side":2,"subjID":"DanielJimenezAngel20","gender":"0","age":"10","school":"6"},{"start_time":1551887672688,"click_time":1551887673694,"finger_time":1551887673314,"fix_duration":1472.139238329925,"trial":56,"RT":626,"MT":380,"sideResp":2,"stimulus":"img/750/equaldotsize/R/5_Ratio_750_L_15_R_20.png","xmouse":[816,816,816,816,816,816,816,816,816,816,816,816,816,816,816,816,816,816,816,816,816,816,816,816,816,816,816,816,816,824,832,852,975,1016,1032,1035,1033,1029,1028,1028,1033,1037,1037,1038,1042,1052,1061,1078,1084,1090,1091],"ymouse":[502,502,502,502,502,502,502,502,502,502,502,502,502,502,502,502,502,502,502,502,502,502,502,502,502,502,502,502,502,500,492,464,311,247,207,188,171,160,146,135,125,119,119,118,117,113,111,104,102,100,99],"timestamp_mouse":[6,27,45,66,86,106,127,147,167,185,207,226,247,265,287,306,326,347,365,387,406,427,445,466,486,505,526,547,567,586,606,626,647,666,686,705,726,746,766,786,806,827,846,866,885,905,926,946,966,986,1006],"xSR":741.5,"ySR":469.95,"xT1":424.9,"yT1":0,"xT2":1058.1,"yT2":0,"toosoon":0,"cond_shown":"equaldotsize","ratio_trial":750,"smaller_num":"15","larger_num":"20","correct_side":2,"subjID":"DanielJimenezAngel20","gender":"0","age":"10","school":"6"},{"start_time":1551887674685,"click_time":1551887675514,"finger_time":1551887675314,"fix_duration":250,"trial":57,"RT":629,"MT":200,"sideResp":2,"stimulus":"img/750/equaldotsize/R/4_Ratio_750_L_15_R_20.png","xmouse":[797,797,797,797,797,797,797,797,797,797,797,797,797,797,797,797,797,797,797,797,797,797,797,797,797,797,797,797,797,797,809,856,928,982,1021,1041,1048,1050,1052,1057,1063,1083],"ymouse":[527,527,527,527,527,527,527,527,527,527,527,527,527,527,527,527,527,527,527,527,527,527,527,527,527,527,527,527,527,527,511,444,343,274,228,199,185,179,172,159,142,97],"timestamp_mouse":[8,28,49,69,88,108,128,149,168,188,209,229,248,268,289,309,329,349,370,390,409,428,450,469,489,509,529,549,569,589,609,629,649,668,689,708,728,749,769,788,808,829],"xSR":741.5,"ySR":469.95,"xT1":424.9,"yT1":0,"xT2":1058.1,"yT2":0,"toosoon":0,"cond_shown":"equaldotsize","ratio_trial":750,"smaller_num":"15","larger_num":"20","correct_side":2,"subjID":"DanielJimenezAngel20","gender":"0","age":"10","school":"6"},{"start_time":1551887676871,"click_time":1551887677854,"finger_time":1551887677434,"fix_duration":637.555279720447,"trial":58,"RT":563,"MT":420,"sideResp":1,"stimulus":"img/250/equaldotsize/L/14_Ratio_250_L_12_R_3.png","xmouse":[802,802,802,802,802,802,802,802,802,802,802,802,802,802,802,802,802,802,802,802,802,802,802,795,790,785,778,764,706,672,633,596,567,523,509,496,481,466,464,463,463,463,463,463,463,462,462,461,461,461],"ymouse":[484,484,484,484,484,484,484,484,484,484,484,484,484,484,484,484,484,484,484,484,484,484,484,487,489,490,490,483,436,393,336,284,240,175,149,133,118,109,108,107,107,107,107,107,107,107,107,106,100,96],"timestamp_mouse":[5,24,42,63,84,102,123,143,164,183,203,223,243,263,283,304,323,343,363,383,404,424,443,463,483,503,523,543,563,582,602,623,644,662,683,703,722,743,763,784,804,822,843,864,882,903,922,942,963,983],"xSR":741.5,"ySR":469.95,"xT1":424.9,"yT1":0,"xT2":1058.1,"yT2":0,"toosoon":0,"cond_shown":"equaldotsize","ratio_trial":250,"smaller_num":"3","larger_num":"12","correct_side":1,"subjID":"DanielJimenezAngel20","gender":"0","age":"10","school":"6"},{"start_time":1551887679205,"click_time":1551887680014,"finger_time":1551887679735,"fix_duration":250,"trial":59,"RT":530,"MT":279,"sideResp":2,"stimulus":"img/500/equaldotsize/R/6_Ratio_500_L_9_R_18.png","xmouse":[770,770,770,770,770,770,770,770,770,770,770,770,770,770,770,770,770,770,770,770,770,770,771,774,790,821,936,976,994,1000,1001,1003,1006,1007,1014,1016,1035,1043,1049,1057,1070],"ymouse":[553,553,553,553,553,553,553,553,553,553,553,553,553,553,553,553,553,553,553,553,553,553,552,548,529,490,295,225,190,175,167,153,144,137,121,115,85,73,65,57,46],"timestamp_mouse":[9,28,48,69,88,109,128,148,170,189,209,228,249,269,290,310,329,349,370,388,410,428,449,469,490,509,530,549,570,590,610,628,648,669,690,710,729,749,769,790,809],"xSR":741.5,"ySR":469.95,"xT1":424.9,"yT1":0,"xT2":1058.1,"yT2":0,"toosoon":0,"cond_shown":"equaldotsize","ratio_trial":500,"smaller_num":"9","larger_num":"18","correct_side":2,"subjID":"DanielJimenezAngel20","gender":"0","age":"10","school":"6"},{"start_time":1551887681849,"click_time":1551887683234,"finger_time":1551887682794,"fix_duration":1194.2719196852292,"trial":60,"RT":945,"MT":440,"sideResp":1,"stimulus":"img/750/equaldotsize/L/14_Ratio_750_L_8_R_6.png","xmouse":[812,812,812,812,812,812,812,812,812,812,812,812,812,812,812,812,812,812,812,812,812,812,812,812,812,812,812,812,812,812,812,812,812,812,812,812,812,812,812,812,812,812,812,812,810,800,781,744,634,577,535,506,481,453,445,444,444,444,444,443,443,443,445,450,461,463,463,464,470,472],"ymouse":[512,512,512,512,512,512,512,512,512,512,512,512,512,512,512,512,512,512,512,512,512,512,512,512,512,512,512,512,512,512,512,512,512,512,512,512,512,512,512,512,512,512,512,512,513,506,491,465,386,349,318,295,272,247,235,234,234,234,234,232,224,209,191,174,151,148,143,134,105,88],"timestamp_mouse":[5,26,45,65,84,104,125,145,164,186,205,224,245,265,286,304,326,345,364,386,404,426,445,464,486,505,525,545,565,586,605,625,645,665,685,704,724,744,765,786,806,825,844,865,885,905,924,945,965,985,1006,1024,1045,1064,1084,1105,1125,1145,1165,1185,1204,1225,1244,1264,1285,1305,1325,1345,1365,1385],"xSR":741.5,"ySR":469.95,"xT1":424.9,"yT1":0,"xT2":1058.1,"yT2":0,"toosoon":0,"cond_shown":"equaldotsize","ratio_trial":750,"smaller_num":"6","larger_num":"8","correct_side":1,"subjID":"DanielJimenezAngel20","gender":"0","age":"10","school":"6"},{"start_time":1551887689912,"click_time":1551887690615,"finger_time":1551887690513,"fix_duration":837.7254491390528,"trial":61,"RT":601,"MT":102,"sideResp":2,"stimulus":"img/750/equaldotsize/R/15_Ratio_750_L_9_R_12.png","xmouse":[764,764,764,764,764,764,764,764,764,764,764,764,764,764,764,764,764,764,764,764,764,764,764,764,764,764,764,764,768,778,844,960,1003,1043,1073,1093],"ymouse":[497,497,497,497,497,497,497,497,497,497,497,497,497,497,497,497,497,497,497,497,497,497,497,497,497,497,497,497,497,488,395,249,196,145,112,69],"timestamp_mouse":[3,23,42,62,82,101,122,142,162,181,203,222,241,263,283,301,322,342,361,382,402,423,443,463,482,503,521,542,562,582,601,623,642,662,683,702],"xSR":741.5,"ySR":469.95,"xT1":424.9,"yT1":0,"xT2":1058.1,"yT2":0,"toosoon":0,"cond_shown":"equaldotsize","ratio_trial":750,"smaller_num":"9","larger_num":"12","correct_side":2,"subjID":"DanielJimenezAngel20","gender":"0","age":"10","school":"6"},{"start_time":1551887693773,"click_time":1551887710415,"finger_time":1551887709454,"fix_duration":978.1129472672325,"trial":62,"RT":15681,"MT":961,"sideResp":1,"stimulus":"img/500/randomdotsizeEA/L/4_Ratio_500_L_18_R_9.png","xmouse":[753,753,753,753,753,753,753,753,753,753,753,753,753,753,753,753,753,753,753,753,753,753,753,753,753,753,753,753,753,753,753,753,753,753,753,753,753,753,753,753,753,753,753,753,753,753,753,753,753,753,753,753,753,753,753,753,753,753,753,753,753,753,753,753,753,753,753,753,753,753,753,753,753,753,753,753,753,753,753,753,753,753,753,753,753,753,753,753,753,753,753,753,753,753,753,753,753,753,753,753,753,753,753,753,753,753,753,753,753,753,753,753,753,753,753,753,753,753,753,753,753,753,753,753,753,753,753,753,753,753,753,753,753,753,753,753,753,753,753,753,753,753,753,753,753,753,753,753,753,753,753,753,753,753,753,753,753,753,753,753,753,753,753,753,753,753,753,753,753,753,753,753,753,753,753,753,753,753,753,753,753,753,753,753,753,753,753,753,753,753,753,753,753,753,753,753,753,753,753,753,753,753,753,753,753,753,753,753,753,753,753,753,753,753,753,753,753,753,753,753,753,753,753,753,753,753,753,753,753,753,753,753,753,753,753,753,753,753,753,753,753,753,753,753,753,753,753,753,753,753,753,753,753,753,753,753,753,753,753,753,753,753,753,753,753,753,753,753,753,753,753,753,753,753,753,753,753,753,753,753,753,753,753,753,753,753,753,753,753,753,753,753,753,753,753,753,753,753,753,753,753,753,753,753,753,753,753,753,753,753,753,753,753,753,753,753,753,753,753,753,753,753,753,753,753,753,753,753,753,753,753,753,753,753,753,753,753,753,753,753,753,753,753,753,753,753,753,753,753,753,753,753,753,753,753,753,753,753,753,753,753,753,753,753,753,753,753,753,753,753,753,753,753,753,753,753,753,753,753,753,753,753,753,753,753,753,753,753,753,753,753,753,753,753,753,753,753,753,753,753,753,753,753,753,753,753,753,753,753,753,753,753,753,753,753,753,753,753,753,753,753,753,753,753,753,753,753,753,753,753,753,753,753,753,753,753,753,753,753,753,753,753,753,753,753,753,753,753,753,753,753,753,753,753,753,753,753,753,753,753,753,753,753,753,753,753,753,753,753,753,753,753,753,753,753,753,753,753,753,753,753,753,753,753,753,753,753,753,753,753,753,753,753,753,753,753,753,753,753,753,753,753,753,753,753,753,753,753,753,753,753,753,753,753,753,753,753,753,753,753,753,753,753,753,753,753,753,753,753,753,753,753,753,753,753,753,753,753,753,753,753,753,753,753,753,753,753,753,753,753,753,753,753,753,753,753,753,753,753,753,753,753,753,753,753,753,753,753,753,753,753,753,753,753,753,753,753,753,753,753,753,753,753,753,753,753,753,753,753,753,753,753,753,753,753,753,753,753,753,753,753,753,753,753,753,753,753,753,753,753,753,753,753,753,753,753,753,753,753,753,753,753,753,753,753,753,753,753,753,753,753,753,753,753,753,753,753,753,753,753,753,753,753,753,753,753,753,753,753,753,753,753,753,753,753,753,753,753,753,753,753,753,753,753,753,753,753,753,753,753,753,753,753,753,753,753,753,753,753,753,753,753,753,753,753,753,753,753,753,753,753,753,753,753,753,753,753,753,753,753,753,753,753,753,753,753,753,753,753,753,753,753,753,753,753,753,753,753,753,753,753,753,753,753,753,753,753,753,753,753,753,753,753,753,753,753,753,753,753,753,753,753,753,753,753,753,753,753,753,753,753,753,753,753,753,753,753,753,753,753,753,753,753,753,753,753,753,753,753,753,753,753,753,753,753,753,753,753,753,753,753,753,753,748,741,736,736,736,736,736,736,736,736,736,736,736,736,736,736,736,736,736,731,703,687,675,661,641,471,404,386,376,340,327,325,325,325,325,325,325,325,325,325,325,325,325,325,325,418,421,421,421,427],"ymouse":[502,502,502,502,502,502,502,502,502,502,502,502,502,502,502,502,502,502,502,502,502,502,502,502,502,502,502,502,502,502,502,502,502,502,502,502,502,502,502,502,502,502,502,502,502,502,502,502,502,502,502,502,502,502,502,502,502,502,502,502,502,502,502,502,502,502,502,502,502,502,502,502,502,502,502,502,502,502,502,502,502,502,502,502,502,502,502,502,502,502,502,502,502,502,502,502,502,502,502,502,502,502,502,502,502,502,502,502,502,502,502,502,502,502,502,502,502,502,502,502,502,502,502,502,502,502,502,502,502,502,502,502,502,502,502,502,502,502,502,502,502,502,502,502,502,502,502,502,502,502,502,502,502,502,502,502,502,502,502,502,502,502,502,502,502,502,502,502,502,502,502,502,502,502,502,502,502,502,502,502,502,502,502,502,502,502,502,502,502,502,502,502,502,502,502,502,502,502,502,502,502,502,502,502,502,502,502,502,502,502,502,502,502,502,502,502,502,502,502,502,502,502,502,502,502,502,502,502,502,502,502,502,502,502,502,502,502,502,502,502,502,502,502,502,502,502,502,502,502,502,502,502,502,502,502,502,502,502,502,502,502,502,502,502,502,502,502,502,502,502,502,502,502,502,502,502,502,502,502,502,502,502,502,502,502,502,502,502,502,502,502,502,502,502,502,502,502,502,502,502,502,502,502,502,502,502,502,502,502,502,502,502,502,502,502,502,502,502,502,502,502,502,502,502,502,502,502,502,502,502,502,502,502,502,502,502,502,502,502,502,502,502,502,502,502,502,502,502,502,502,502,502,502,502,502,502,502,502,502,502,502,502,502,502,502,502,502,502,502,502,502,502,502,502,502,502,502,502,502,502,502,502,502,502,502,502,502,502,502,502,502,502,502,502,502,502,502,502,502,502,502,502,502,502,502,502,502,502,502,502,502,502,502,502,502,502,502,502,502,502,502,502,502,502,502,502,502,502,502,502,502,502,502,502,502,502,502,502,502,502,502,502,502,502,502,502,502,502,502,502,502,502,502,502,502,502,502,502,502,502,502,502,502,502,502,502,502,502,502,502,502,502,502,502,502,502,502,502,502,502,502,502,502,502,502,502,502,502,502,502,502,502,502,502,502,502,502,502,502,502,502,502,502,502,502,502,502,502,502,502,502,502,502,502,502,502,502,502,502,502,502,502,502,502,502,502,502,502,502,502,502,502,502,502,502,502,502,502,502,502,502,502,502,502,502,502,502,502,502,502,502,502,502,502,502,502,502,502,502,502,502,502,502,502,502,502,502,502,502,502,502,502,502,502,502,502,502,502,502,502,502,502,502,502,502,502,502,502,502,502,502,502,502,502,502,502,502,502,502,502,502,502,502,502,502,502,502,502,502,502,502,502,502,502,502,502,502,502,502,502,502,502,502,502,502,502,502,502,502,502,502,502,502,502,502,502,502,502,502,502,502,502,502,502,502,502,502,502,502,502,502,502,502,502,502,502,502,502,502,502,502,502,502,502,502,502,502,502,502,502,502,502,502,502,502,502,502,502,502,502,502,502,502,502,502,502,502,502,502,502,502,502,502,502,502,502,502,502,502,502,502,502,502,502,502,502,502,502,502,502,502,502,502,502,502,502,502,502,502,502,502,502,502,502,502,502,502,502,502,502,502,502,502,502,502,502,502,502,502,502,502,502,502,502,502,502,502,502,502,502,502,502,502,502,502,502,502,502,502,502,502,502,502,502,502,502,502,502,502,502,502,502,502,502,502,502,502,502,502,502,502,502,502,498,493,491,491,491,491,491,491,491,491,491,491,491,491,491,491,491,491,491,490,474,442,408,375,329,172,142,129,114,64,35,11,0,0,0,0,0,0,0,0,0,0,0,0,0,6,17,23,27,48],"timestamp_mouse":[3,22,41,60,82,101,122,140,162,181,201,221,240,262,281,300,321,341,361,380,402,421,441,461,481,501,521,540,560,581,601,621,642,661,681,701,722,740,762,781,800,822,840,860,882,901,922,941,960,982,1001,1021,1042,1062,1082,1102,1120,1141,1162,1182,1202,1220,1241,1261,1280,1300,1320,1341,1361,1381,1401,1421,1441,1462,1482,1501,1522,1542,1561,1580,1601,1621,1641,1662,1681,1700,1720,1742,1761,1780,1802,1822,1840,1862,1882,1900,1922,1941,1960,1980,2002,2022,2042,2061,2081,2102,2122,2140,2162,2182,2200,2221,2242,2261,2280,2301,2322,2340,2362,2381,2401,2420,2442,2462,2480,2500,2521,2542,2560,2581,2600,2622,2642,2660,2680,2702,2722,2740,2760,2781,2801,2820,2842,2860,2880,2902,2921,2942,2961,2982,3001,3021,3041,3061,3081,3101,3122,3140,3162,3180,3201,3222,3242,3262,3281,3301,3322,3341,3361,3380,3402,3422,3440,3462,3481,3501,3522,3542,3560,3582,3602,3622,3641,3660,3680,3701,3722,3740,3761,3781,3802,3822,3842,3861,3880,3901,3921,3941,3961,3981,4001,4022,4042,4061,4081,4100,4122,4140,4161,4181,4201,4222,4240,4261,4281,4301,4321,4342,4362,4382,4401,4420,4440,4461,4482,4502,4520,4541,4561,4581,4602,4621,4640,4660,4681,4701,4721,4740,4760,4781,4801,4820,4842,4862,4880,4900,4922,4940,4962,4981,5002,5021,5040,5061,5081,5101,5120,5140,5161,5181,5200,5221,5240,5260,5281,5302,5320,5341,5362,5381,5401,5421,5442,5460,5481,5502,5520,5542,5561,5580,5602,5621,5640,5661,5681,5701,5721,5740,5762,5780,5800,5820,5842,5860,5882,5902,5922,5941,5960,5981,6002,6020,6040,6060,6081,6101,6122,6140,6161,6181,6201,6221,6241,6261,6280,6301,6322,6340,6360,6381,6402,6420,6440,6461,6480,6502,6520,6540,6561,6582,6600,6622,6641,6660,6680,6701,6722,6740,6761,6781,6802,6820,6841,6860,6881,6901,6922,6940,6962,6980,7001,7021,7041,7060,7082,7100,7122,7141,7161,7181,7202,7222,7242,7262,7280,7300,7320,7341,7361,7382,7401,7420,7441,7460,7480,7500,7521,7542,7562,7580,7601,7622,7641,7660,7681,7701,7721,7742,7760,7780,7800,7821,7842,7860,7881,7901,7920,7941,7962,7981,8001,8022,8042,8061,8081,8100,8122,8141,8161,8180,8201,8222,8240,8260,8281,8301,8321,8342,8360,8381,8401,8421,8440,8461,8482,8502,8520,8542,8560,8582,8602,8620,8640,8662,8681,8701,8720,8741,8760,8782,8801,8821,8841,8861,8881,8902,8921,8941,8961,8980,9000,9020,9042,9062,9081,9102,9121,9140,9160,9181,9200,9222,9241,9260,9281,9302,9321,9341,9361,9380,9401,9421,9441,9461,9481,9500,9520,9542,9561,9581,9601,9621,9642,9660,9681,9701,9720,9742,9762,9780,9802,9822,9840,9862,9882,9900,9921,9941,9962,9980,10002,10022,10042,10060,10081,10102,1