[{"start_time":1551801594477,"click_time":1551801596375,"finger_time":1551801595194,"fix_duration":677.7355578025537,"trial":0,"RT":717,"MT":1181,"sideResp":1,"stimulus":"img/250/randomdotsizeEA/R/12_Ratio_250_L_5_R_20.png","xmouse":[814,814,814,814,814,814,814,814,814,814,814,814,814,814,814,814,814,814,814,814,814,814,814,814,814,814,814,814,814,814,814,814,814,814,817,823,847,865,870,874,876,877,877,878,878,879,887,893,898,904,912,965,993,1024,1041,1052,1061,1062,1062,1062,1062,1062,1062,1062,1061,1047,984,954,915,890,864,809,783,767,762,758,755,751,745,736,725,702,679,640,604,582,571,570,567,565,560,544,534,529,525,522],"ymouse":[496,496,496,496,496,496,496,496,496,496,496,496,496,496,496,496,496,496,496,496,496,496,496,496,496,496,496,496,496,496,496,496,496,496,492,485,463,445,435,431,427,424,424,423,423,421,408,397,385,373,360,298,272,241,219,203,181,177,176,176,176,176,176,176,175,175,165,161,155,152,147,140,134,132,130,130,129,129,129,129,129,129,128,128,128,126,124,123,122,120,119,112,107,104,101,98],"timestamp_mouse":[9,28,36,56,78,98,116,136,157,176,197,216,236,256,277,297,317,337,356,377,396,417,436,456,478,496,517,536,556,578,597,616,636,656,676,697,717,736,756,777,797,817,837,856,877,896,917,936,956,976,996,1017,1037,1056,1077,1096,1117,1138,1157,1176,1197,1216,1236,1257,1276,1298,1317,1337,1356,1377,1396,1416,1436,1457,1478,1496,1516,1537,1556,1577,1597,1616,1636,1657,1676,1696,1716,1738,1757,1777,1796,1816,1836,1857,1876,1897],"xSR":741.5,"ySR":469.95,"xT1":424.9,"yT1":0,"xT2":1058.1,"yT2":0,"toosoon":0,"cond_shown":"randomdotsizeEA","ratio_trial":250,"smaller_num":"5","larger_num":"20","correct_side":2,"subjID":"Aleixer Camacho Bernal 1","gender":"0","age":"11","school":"6","test":{"fix_dur":[250,1500],"timestim":300,"targets_dim":[100,100],"targets_relative_coord":[0.3,0.7],"size_stim":[880,420],"start_dim":[100,100],"size_start":[300,300],"size_fix":60,"samplingrate":20,"img_types":["equaldotsize","equaldotanddens","randomdotsizeEA"],"ratios":[250,500,750,900],"rep_conds":9,"nTrials":120,"trials_to_rest":500,"Trials_order":[50,93,65,27,87,102,41,25,96,86,82,55,44,63,22,38,66,69,101,85,97,104,71,72,83,89,90,60,19,48,74,29,68,4,43,16,23,114,62,98,2,100,79,61,84,64,58,111,12,91,95,34,45,75,80,119,51,8,67,105,81,1,10,9,18,0,6,35,88,37,5,28,39,42,112,49,13,17,20,94,24,107,103,118,40,26,33,76,53,99,73,59,21,57,54,31,47,46,30,14,106,78,116,11,56,113,36,7,117,52,110,32,70,108,3,15,109,77,92,115],"cond_shown":["randomdotsizeEA","equaldotsize","randomdotsizeEA","equaldotsize","equaldotsize","equaldotsize","randomdotsizeEA","equaldotanddens","equaldotsize","randomdotsizeEA","equaldotanddens","equaldotanddens","randomdotsizeEA","equaldotsize","equaldotanddens","randomdotsizeEA","equaldotsize","equaldotsize","randomdotsizeEA","equaldotanddens","equaldotanddens","randomdotsizeEA","randomdotsizeEA","equaldotsize","randomdotsizeEA","randomdotsizeEA","equaldotsize","equaldotsize","equaldotanddens","equaldotsize","randomdotsizeEA","randomdotsizeEA","randomdotsizeEA","equaldotanddens","equaldotanddens","equaldotanddens","randomdotsizeEA","equaldotsize","randomdotsizeEA","randomdotsizeEA","randomdotsizeEA","equaldotanddens","equaldotanddens","equaldotanddens","equaldotsize","equaldotanddens","equaldotanddens","equaldotsize","equaldotsize","equaldotanddens","randomdotsizeEA","equaldotanddens","equaldotsize","equaldotsize","randomdotsizeEA","randomdotsizeEA","equaldotsize","randomdotsizeEA","equaldotanddens","equaldotsize","equaldotsize","equaldotanddens","equaldotanddens","equaldotsize","equaldotsize","equaldotsize","equaldotsize","randomdotsizeEA","equaldotanddens","equaldotanddens","randomdotsizeEA","equaldotanddens","equaldotsize","equaldotsize","equaldotanddens","equaldotanddens","equaldotanddens","randomdotsizeEA","randomdotsizeEA","equaldotanddens","equaldotsize","randomdotsizeEA","equaldotanddens","equaldotanddens","equaldotanddens","randomdotsizeEA","equaldotsize","equaldotanddens","randomdotsizeEA","equaldotsize","equaldotanddens","randomdotsizeEA","equaldotsize","equaldotsize","equaldotsize","equaldotanddens","randomdotsizeEA","equaldotanddens","equaldotsize","randomdotsizeEA","equaldotanddens","equaldotsize","randomdotsizeEA","randomdotsizeEA","randomdotsizeEA","randomdotsizeEA","equaldotsize","equaldotanddens","equaldotsize","equaldotanddens","randomdotsizeEA","randomdotsizeEA","equaldotanddens","equaldotsize","equaldotsize","equaldotsize","equaldotanddens","randomdotsizeEA","randomdotsizeEA","equaldotanddens"],"ratio_trial":[250,900,500,500,500,750,500,250,250,250,900,750,750,500,900,250,750,900,500,250,250,750,900,250,900,500,750,250,750,250,250,500,750,500,750,500,900,750,250,250,250,500,750,250,250,500,900,500,250,750,900,900,900,500,750,900,500,750,750,900,900,250,900,900,750,250,750,900,500,250,500,500,500,750,500,250,250,500,750,900,250,900,750,900,500,250,900,500,500,500,250,900,900,900,750,750,900,900,750,250,900,750,750,900,750,500,250,750,900,500,250,750,900,250,500,500,250,500,750,750],"smaller_num":["5","18","5","3","9","3","5","2","4","5","9","15","15","2","18","3","6","9","3","3","1","3","9","2","18","9","6","3","15","3","4","5","3","2","3","1","18","9","1","3","2","2","3","3","3","4","18","2","2","18","18","18","9","6","15","18","3","6","15","18","9","2","18","18","6","6","15","9","3","4","10","9","2","3","5","3","2","9","15","18","2","18","3","18","3","5","18","9","6","1","6","18","9","18","9","6","9","9","3","3","9","15","3","9","15","9","3","6","18","9","3","15","9","4","6","2","6","2","15","3"],"larger_num":["20","20","10","6","18","4","10","8","16","20","10","20","20","4","20","12","8","10","6","12","4","4","10","8","20","18","8","12","20","12","16","10","4","4","4","2","20","12","4","12","8","4","4","12","12","8","20","4","8","24","20","20","10","12","20","20","6","8","20","20","10","8","20","20","8","24","20","10","6","16","20","18","4","4","10","12","8","18","20","20","8","20","4","20","6","20","20","18","12","2","24","20","10","20","12","8","10","10","4","12","10","20","4","10","20","18","12","8","20","18","12","20","10","16","12","4","24","4","20","4"],"correct_side":[2,1,1,2,2,2,1,2,2,2,1,2,2,1,1,2,2,2,2,1,2,2,2,1,1,1,1,2,2,1,1,1,1,1,1,2,2,2,2,1,1,1,2,1,2,1,1,1,1,1,1,1,2,1,2,1,2,1,1,2,2,1,1,1,2,2,2,1,2,1,2,2,1,2,1,1,1,2,2,1,1,1,1,1,2,2,1,2,1,2,2,2,2,1,2,1,2,2,1,2,1,1,2,2,2,2,2,1,2,2,2,2,2,1,1,1,2,1,2,1],"img_shown":["img/250/randomdotsizeEA/R/12_Ratio_250_L_5_R_20.png","img/900/equaldotsize/L/4_Ratio_900_L_20_R_18.png","img/500/randomdotsizeEA/L/7_Ratio_500_L_10_R_5.png","img/500/equaldotsize/R/2_Ratio_500_L_3_R_6.png","img/500/equaldotsize/R/6_Ratio_500_L_9_R_18.png","img/750/equaldotsize/R/12_Ratio_750_L_3_R_4.png","img/500/randomdotsizeEA/L/7_Ratio_500_L_10_R_5.png","img/250/equaldotanddens/R/13_Ratio_250_L_2_R_8.png","img/250/equaldotsize/R/10_Ratio_250_L_4_R_16.png","img/250/randomdotsizeEA/R/12_Ratio_250_L_5_R_20.png","img/900/equaldotanddens/L/1_Ratio_900_L_10_R_9.png","img/750/equaldotanddens/R/4_Ratio_750_L_15_R_20.png","img/750/randomdotsizeEA/R/4_Ratio_750_L_15_R_20.png","img/500/equaldotsize/L/5_Ratio_500_L_4_R_2.png","img/900/equaldotanddens/L/10_Ratio_900_L_20_R_18.png","img/250/randomdotsizeEA/R/4_Ratio_250_L_3_R_12.png","img/750/equaldotsize/R/2_Ratio_750_L_6_R_8.png","img/900/equaldotsize/R/6_Ratio_900_L_9_R_10.png","img/500/randomdotsizeEA/R/2_Ratio_500_L_3_R_6.png","img/250/equaldotanddens/L/15_Ratio_250_L_12_R_3.png","img/250/equaldotanddens/R/8_Ratio_250_L_1_R_4.png","img/750/randomdotsizeEA/R/12_Ratio_750_L_3_R_4.png","img/900/randomdotsizeEA/R/15_Ratio_900_L_9_R_10.png","img/250/equaldotsize/L/1_Ratio_250_L_8_R_2.png","img/900/randomdotsizeEA/L/8_Ratio_900_L_20_R_18.png","img/500/randomdotsizeEA/L/4_Ratio_500_L_18_R_9.png","img/750/equaldotsize/L/14_Ratio_750_L_8_R_6.png","img/250/equaldotsize/R/9_Ratio_250_L_3_R_12.png","img/750/equaldotanddens/R/5_Ratio_750_L_15_R_20.png","img/250/equaldotsize/L/14_Ratio_250_L_12_R_3.png","img/250/randomdotsizeEA/L/2_Ratio_250_L_16_R_4.png","img/500/randomdotsizeEA/L/7_Ratio_500_L_10_R_5.png","img/750/randomdotsizeEA/L/9_Ratio_750_L_4_R_3.png","img/500/equaldotanddens/L/5_Ratio_500_L_4_R_2.png","img/750/equaldotanddens/L/8_Ratio_750_L_4_R_3.png","img/500/equaldotanddens/R/15_Ratio_500_L_1_R_2.png","img/900/randomdotsizeEA/R/9_Ratio_900_L_18_R_20.png","img/750/equaldotsize/R/15_Ratio_750_L_9_R_12.png","img/250/randomdotsizeEA/R/8_Ratio_250_L_1_R_4.png","img/250/randomdotsizeEA/L/15_Ratio_250_L_12_R_3.png","img/250/randomdotsizeEA/L/7_Ratio_250_L_8_R_2.png","img/500/equaldotanddens/L/5_Ratio_500_L_4_R_2.png","img/750/equaldotanddens/R/7_Ratio_750_L_3_R_4.png","img/250/equaldotanddens/L/15_Ratio_250_L_12_R_3.png","img/250/equaldotsize/R/11_Ratio_250_L_3_R_12.png","img/500/equaldotanddens/L/8_Ratio_500_L_8_R_4.png","img/900/equaldotanddens/L/8_Ratio_900_L_20_R_18.png","img/500/equaldotsize/L/5_Ratio_500_L_4_R_2.png","img/250/equaldotsize/L/1_Ratio_250_L_8_R_2.png","img/750/equaldotanddens/L/6_Ratio_750_L_24_R_18.png","img/900/randomdotsizeEA/L/8_Ratio_900_L_20_R_18.png","img/900/equaldotanddens/L/10_Ratio_900_L_20_R_18.png","img/900/equaldotsize/R/7_Ratio_900_L_9_R_10.png","img/500/equaldotsize/L/11_Ratio_500_L_12_R_6.png","img/750/randomdotsizeEA/R/4_Ratio_750_L_15_R_20.png","img/900/randomdotsizeEA/L/4_Ratio_900_L_20_R_18.png","img/500/equaldotsize/R/2_Ratio_500_L_3_R_6.png","img/750/randomdotsizeEA/L/14_Ratio_750_L_8_R_6.png","img/750/equaldotanddens/L/1_Ratio_750_L_20_R_15.png","img/900/equaldotsize/R/12_Ratio_900_L_18_R_20.png","img/900/equaldotsize/R/15_Ratio_900_L_9_R_10.png","img/250/equaldotanddens/L/7_Ratio_250_L_8_R_2.png","img/900/equaldotanddens/L/2_Ratio_900_L_20_R_18.png","img/900/equaldotsize/L/8_Ratio_900_L_20_R_18.png","img/750/equaldotsize/R/2_Ratio_750_L_6_R_8.png","img/250/equaldotsize/R/6_Ratio_250_L_6_R_24.png","img/750/equaldotsize/R/5_Ratio_750_L_15_R_20.png","img/900/randomdotsizeEA/L/1_Ratio_900_L_10_R_9.png","img/500/equaldotanddens/R/2_Ratio_500_L_3_R_6.png","img/250/equaldotanddens/L/2_Ratio_250_L_16_R_4.png","img/500/randomdotsizeEA/R/3_Ratio_500_L_10_R_20.png","img/500/equaldotanddens/R/6_Ratio_500_L_9_R_18.png","img/500/equaldotsize/L/10_Ratio_500_L_4_R_2.png","img/750/equaldotsize/R/7_Ratio_750_L_3_R_4.png","img/500/equaldotanddens/L/7_Ratio_500_L_10_R_5.png","img/250/equaldotanddens/L/14_Ratio_250_L_12_R_3.png","img/250/equaldotanddens/L/1_Ratio_250_L_8_R_2.png","img/500/randomdotsizeEA/R/6_Ratio_500_L_9_R_18.png","img/750/randomdotsizeEA/R/3_Ratio_750_L_15_R_20.png","img/900/equaldotanddens/L/8_Ratio_900_L_20_R_18.png","img/250/equaldotsize/L/1_Ratio_250_L_8_R_2.png","img/900/randomdotsizeEA/L/2_Ratio_900_L_20_R_18.png","img/750/equaldotanddens/L/10_Ratio_750_L_4_R_3.png","img/900/equaldotanddens/L/4_Ratio_900_L_20_R_18.png","img/500/equaldotanddens/R/2_Ratio_500_L_3_R_6.png","img/250/randomdotsizeEA/R/12_Ratio_250_L_5_R_20.png","img/900/equaldotsize/L/2_Ratio_900_L_20_R_18.png","img/500/equaldotanddens/R/1_Ratio_500_L_9_R_18.png","img/500/randomdotsizeEA/L/13_Ratio_500_L_12_R_6.png","img/500/equaldotsize/R/12_Ratio_500_L_1_R_2.png","img/250/equaldotanddens/R/6_Ratio_250_L_6_R_24.png","img/900/randomdotsizeEA/R/13_Ratio_900_L_18_R_20.png","img/900/equaldotsize/R/6_Ratio_900_L_9_R_10.png","img/900/equaldotsize/L/2_Ratio_900_L_20_R_18.png","img/750/equaldotsize/R/15_Ratio_750_L_9_R_12.png","img/750/equaldotanddens/L/14_Ratio_750_L_8_R_6.png","img/900/randomdotsizeEA/R/3_Ratio_900_L_9_R_10.png","img/900/equaldotanddens/R/5_Ratio_900_L_9_R_10.png","img/750/equaldotsize/L/9_Ratio_750_L_4_R_3.png","img/250/randomdotsizeEA/R/9_Ratio_250_L_3_R_12.png","img/900/equaldotanddens/L/1_Ratio_900_L_10_R_9.png","img/750/equaldotsize/L/1_Ratio_750_L_20_R_15.png","img/750/randomdotsizeEA/R/12_Ratio_750_L_3_R_4.png","img/900/randomdotsizeEA/R/6_Ratio_900_L_9_R_10.png","img/750/randomdotsizeEA/R/3_Ratio_750_L_15_R_20.png","img/500/randomdotsizeEA/R/6_Ratio_500_L_9_R_18.png","img/250/equaldotsize/R/4_Ratio_250_L_3_R_12.png","img/750/equaldotanddens/L/13_Ratio_750_L_8_R_6.png","img/900/equaldotsize/R/9_Ratio_900_L_18_R_20.png","img/500/equaldotanddens/R/6_Ratio_500_L_9_R_18.png","img/250/randomdotsizeEA/R/11_Ratio_250_L_3_R_12.png","img/750/randomdotsizeEA/R/5_Ratio_750_L_15_R_20.png","img/900/equaldotanddens/R/7_Ratio_900_L_9_R_10.png","img/250/equaldotsize/L/2_Ratio_250_L_16_R_4.png","img/500/equaldotsize/L/11_Ratio_500_L_12_R_6.png","img/500/equaldotsize/L/10_Ratio_500_L_4_R_2.png","img/250/equaldotanddens/R/6_Ratio_250_L_6_R_24.png","img/500/randomdotsizeEA/L/10_Ratio_500_L_4_R_2.png","img/750/randomdotsizeEA/R/5_Ratio_750_L_15_R_20.png","img/750/equaldotanddens/L/9_Ratio_750_L_4_R_3.png"],"Rat0":[["12_Ratio_0_L_9_R_0.png","13_Ratio_0_L_6_R_0.png","5_Ratio_0_L_2_R_0.png","6_Ratio_0_L_4_R_0.png","8_Ratio_0_L_6_R_0.png"],["1_Ratio_0_L_0_R_17.png","10_Ratio_0_L_0_R_22.png","11_Ratio_0_L_0_R_1.png","14_Ratio_0_L_0_R_24.png","15_Ratio_0_L_0_R_4.png","2_Ratio_0_L_0_R_5.png","3_Ratio_0_L_0_R_17.png","4_Ratio_0_L_0_R_7.png","7_Ratio_0_L_0_R_19.png","9_Ratio_0_L_0_R_15.png"]],"Rat250":[["1_Ratio_250_L_8_R_2.png","14_Ratio_250_L_12_R_3.png","15_Ratio_250_L_12_R_3.png","2_Ratio_250_L_16_R_4.png","3_Ratio_250_L_8_R_2.png","5_Ratio_250_L_24_R_6.png","7_Ratio_250_L_8_R_2.png"],["10_Ratio_250_L_4_R_16.png","11_Ratio_250_L_3_R_12.png","12_Ratio_250_L_5_R_20.png","13_Ratio_250_L_2_R_8.png","4_Ratio_250_L_3_R_12.png","6_Ratio_250_L_6_R_24.png","8_Ratio_250_L_1_R_4.png","9_Ratio_250_L_3_R_12.png"]],"Rat500":[["10_Ratio_500_L_4_R_2.png","11_Ratio_500_L_12_R_6.png","13_Ratio_500_L_12_R_6.png","4_Ratio_500_L_18_R_9.png","5_Ratio_500_L_4_R_2.png","7_Ratio_500_L_10_R_5.png","8_Ratio_500_L_8_R_4.png"],["1_Ratio_500_L_9_R_18.png","12_Ratio_500_L_1_R_2.png","14_Ratio_500_L_5_R_10.png","15_Ratio_500_L_1_R_2.png","2_Ratio_500_L_3_R_6.png","3_Ratio_500_L_10_R_20.png","6_Ratio_500_L_9_R_18.png","9_Ratio_500_L_2_R_4.png"]],"Rat750":[["1_Ratio_750_L_20_R_15.png","10_Ratio_750_L_4_R_3.png","13_Ratio_750_L_8_R_6.png","14_Ratio_750_L_8_R_6.png","6_Ratio_750_L_24_R_18.png","8_Ratio_750_L_4_R_3.png","9_Ratio_750_L_4_R_3.png"],["11_Ratio_750_L_12_R_16.png","12_Ratio_750_L_3_R_4.png","15_Ratio_750_L_9_R_12.png","2_Ratio_750_L_6_R_8.png","3_Ratio_750_L_15_R_20.png","4_Ratio_750_L_15_R_20.png","5_Ratio_750_L_15_R_20.png","7_Ratio_750_L_3_R_4.png"]],"Rat900":[["1_Ratio_900_L_10_R_9.png","10_Ratio_900_L_20_R_18.png","2_Ratio_900_L_20_R_18.png","4_Ratio_900_L_20_R_18.png","8_Ratio_900_L_20_R_18.png"],["11_Ratio_900_L_18_R_20.png","12_Ratio_900_L_18_R_20.png","13_Ratio_900_L_18_R_20.png","14_Ratio_900_L_18_R_20.png","15_Ratio_900_L_9_R_10.png","3_Ratio_900_L_9_R_10.png","5_Ratio_900_L_9_R_10.png","6_Ratio_900_L_9_R_10.png","7_Ratio_900_L_9_R_10.png","9_Ratio_900_L_18_R_20.png"]],"Rat1000":[["10_Ratio_1000_L_16_R_16.png","11_Ratio_1000_L_6_R_6.png","12_Ratio_1000_L_14_R_14.png","13_Ratio_1000_L_20_R_20.png","15_Ratio_1000_L_15_R_15.png","2_Ratio_1000_L_17_R_17.png","4_Ratio_1000_L_9_R_9.png","5_Ratio_1000_L_6_R_6.png","6_Ratio_1000_L_19_R_19.png","8_Ratio_1000_L_14_R_14.png","9_Ratio_1000_L_25_R_25.png"],["1_Ratio_1000_L_1_R_1.png","14_Ratio_1000_L_17_R_17.png","3_Ratio_1000_L_17_R_17.png","7_Ratio_1000_L_6_R_6.png"]]}},{"start_time":1551801598719,"click_time":1551801599894,"finger_time":1551801599474,"fix_duration":804.1423598060265,"trial":1,"RT":755,"MT":420,"sideResp":2,"stimulus":"img/900/equaldotsize/L/4_Ratio_900_L_20_R_18.png","xmouse":[791,791,791,791,792,792,792,792,792,792,792,792,792,792,792,792,792,792,792,792,792,792,792,792,792,792,792,792,792,792,792,792,792,795,801,809,829,847,876,917,955,983,999,1009,1011,1013,1015,1017,1021,1023,1027,1032,1035,1051,1060,1071,1084,1100,1118],"ymouse":[540,539,539,539,539,539,539,539,539,539,539,539,539,539,539,539,539,539,539,539,539,539,538,538,538,538,538,538,538,538,538,538,538,537,531,522,509,494,460,434,411,392,380,352,340,327,313,299,271,258,246,235,224,192,178,162,146,128,98],"timestamp_mouse":[16,38,56,74,95,115,136,154,175,194,214,235,254,275,294,315,336,354,375,394,415,436,454,474,496,514,536,556,575,594,614,635,654,675,694,714,735,755,775,795,814,834,854,874,896,914,935,954,974,994,1015,1034,1054,1074,1095,1115,1135,1155,1174],"xSR":741.5,"ySR":469.95,"xT1":424.9,"yT1":0,"xT2":1058.1,"yT2":0,"toosoon":0,"cond_shown":"equaldotsize","ratio_trial":900,"smaller_num":"18","larger_num":"20","correct_side":1,"subjID":"Aleixer Camacho Bernal 1","gender":"0","age":"11","school":"6"},{"start_time":1551801601564,"click_time":1551801603855,"finger_time":1551801602973,"fix_duration":569.210995708499,"trial":2,"RT":1409,"MT":882,"sideResp":1,"stimulus":"img/500/randomdotsizeEA/L/7_Ratio_500_L_10_R_5.png","xmouse":[826,826,826,826,826,826,826,826,826,826,826,826,826,826,826,826,826,826,826,826,826,826,826,826,826,826,826,826,826,826,826,826,826,826,826,826,826,826,826,827,828,829,829,829,829,829,829,829,829,829,829,829,829,829,829,829,829,829,829,829,829,829,829,829,829,829,829,829,829,826,812,723,686,686,686,686,686,686,686,686,686,686,686,341,341,342,349,356,363,367,369,373,376,378,380,384,394,397,400,404,410,415,416,417,418,419,420,420,421,422,422,424,424,424,425],"ymouse":[502,502,502,502,502,502,502,502,502,502,502,502,502,502,502,502,502,502,502,502,502,502,502,502,502,502,502,502,502,502,502,502,502,502,502,502,502,502,501,499,497,495,495,495,495,495,495,495,495,495,495,495,495,495,495,495,495,495,495,495,495,495,495,495,495,495,495,494,490,474,414,117,34,34,34,34,34,34,34,34,34,34,34,18,48,71,103,116,124,129,130,132,132,131,130,127,117,113,108,102,92,85,83,82,82,80,77,77,76,76,75,74,74,74,73],"timestamp_mouse":[16,38,49,70,89,109,129,149,171,190,209,229,249,270,289,309,329,350,369,389,409,429,450,469,490,510,529,550,570,591,610,631,650,669,690,711,730,750,769,789,809,829,849,870,890,909,929,949,969,989,1009,1029,1051,1070,1089,1109,1129,1150,1169,1189,1209,1229,1250,1269,1290,1309,1329,1350,1370,1390,1409,1429,1449,1469,1490,1509,1530,1550,1570,1590,1610,1630,1649,1670,1690,1710,1729,1749,1770,1791,1810,1831,1850,1870,1890,1910,1930,1949,1970,1989,2010,2030,2049,2069,2089,2110,2130,2151,2170,2190,2211,2229,2251,2270,2291],"xSR":741.5,"ySR":469.95,"xT1":424.9,"yT1":0,"xT2":1058.1,"yT2":0,"toosoon":0,"cond_shown":"randomdotsizeEA","ratio_trial":500,"smaller_num":"5","larger_num":"10","correct_side":1,"subjID":"Aleixer Camacho Bernal 1","gender":"0","age":"11","school":"6"},{"start_time":1551801607477,"click_time":1551801608794,"finger_time":1551801608294,"fix_duration":683.5260294013217,"trial":3,"RT":817,"MT":500,"sideResp":2,"stimulus":"img/500/equaldotsize/R/2_Ratio_500_L_3_R_6.png","xmouse":[789,789,789,789,789,789,789,789,789,789,789,789,789,789,789,789,789,789,789,789,789,789,789,789,789,789,789,789,789,789,789,789,789,789,789,789,789,796,803,823,872,895,908,915,921,924,924,924,924,924,927,932,941,950,962,987,996,1000,1007,1013,1023,1028,1035,1041,1051,1068],"ymouse":[496,496,496,496,496,496,496,496,496,496,496,496,496,496,496,496,496,496,496,496,496,496,496,496,496,496,496,496,496,496,496,496,496,496,496,496,496,494,488,479,448,432,420,410,394,373,361,349,339,328,305,291,274,258,241,198,183,171,160,150,130,121,112,101,90,71],"timestamp_mouse":[18,37,57,77,96,116,137,157,176,196,217,236,257,278,296,316,338,357,377,398,418,436,457,476,498,518,536,556,578,597,617,636,657,676,697,716,737,756,777,796,817,837,857,876,897,917,938,956,976,997,1016,1036,1057,1076,1097,1116,1136,1157,1177,1197,1218,1237,1258,1277,1297,1317],"xSR":741.5,"ySR":469.95,"xT1":424.9,"yT1":0,"xT2":1058.1,"yT2":0,"toosoon":0,"cond_shown":"equaldotsize","ratio_trial":500,"smaller_num":"3","larger_num":"6","correct_side":2,"subjID":"Aleixer Camacho Bernal 1","gender":"0","age":"11","school":"6"},{"start_time":1551801611252,"click_time":1551801612334,"finger_time":1551801611835,"fix_duration":1037.5159340272717,"trial":4,"RT":583,"MT":499,"sideResp":2,"stimulus":"img/500/equaldotsize/R/6_Ratio_500_L_9_R_18.png","xmouse":[817,817,817,817,817,817,817,817,817,817,817,817,817,817,817,817,817,817,817,817,817,817,817,817,817,817,816,822,835,856,887,924,973,983,988,992,995,1005,1007,1009,1010,1012,1013,1014,1015,1018,1022,1038,1042,1048,1052,1056,1066,1069,1071],"ymouse":[510,510,510,510,510,510,510,510,510,510,510,510,510,510,510,510,510,510,510,510,510,510,510,510,510,510,510,495,475,453,428,402,364,350,340,326,309,269,254,240,231,219,204,197,190,182,173,148,140,129,123,118,104,101,97],"timestamp_mouse":[9,22,42,61,81,101,123,141,162,181,201,221,243,262,281,302,322,343,361,382,402,422,443,462,482,501,522,541,561,583,602,622,641,661,682,702,721,741,762,781,801,821,841,863,882,902,921,941,961,983,1002,1022,1041,1062,1082],"xSR":741.5,"ySR":469.95,"xT1":424.9,"yT1":0,"xT2":1058.1,"yT2":0,"toosoon":0,"cond_shown":"equaldotsize","ratio_trial":500,"smaller_num":"9","larger_num":"18","correct_side":2,"subjID":"Aleixer Camacho Bernal 1","gender":"0","age":"11","school":"6"},{"start_time":1551801614369,"click_time":1551801615693,"finger_time":1551801615194,"fix_duration":874.6766417347103,"trial":5,"RT":825,"MT":499,"sideResp":2,"stimulus":"img/750/equaldotsize/R/12_Ratio_750_L_3_R_4.png","xmouse":[802,802,802,802,802,802,802,802,802,802,802,802,802,802,802,802,802,802,802,802,802,802,802,802,802,802,802,802,802,802,802,802,802,802,802,802,802,802,802,802,806,849,876,899,920,935,957,966,976,985,994,1007,1012,1015,1018,1020,1023,1025,1027,1032,1038,1058,1063,1070,1074,1079,1085],"ymouse":[508,508,508,508,508,508,508,508,508,508,508,508,508,508,508,508,508,508,508,508,508,508,508,508,508,508,508,508,508,508,508,508,508,508,508,508,508,508,507,504,497,448,420,400,379,362,331,314,293,274,253,213,203,196,192,188,183,180,177,171,164,142,135,126,119,111,99],"timestamp_mouse":[10,34,44,64,84,105,124,144,165,184,204,224,245,264,285,305,324,345,365,385,405,424,444,464,485,505,524,545,564,584,604,625,644,665,684,705,725,744,765,785,804,824,845,865,884,904,924,945,964,984,1004,1025,1044,1064,1085,1105,1125,1145,1164,1186,1205,1224,1244,1264,1285,1304,1324],"xSR":741.5,"ySR":469.95,"xT1":424.9,"yT1":0,"xT2":1058.1,"yT2":0,"toosoon":0,"cond_shown":"equaldotsize","ratio_trial":750,"smaller_num":"3","larger_num":"4","correct_side":2,"subjID":"Aleixer Camacho Bernal 1","gender":"0","age":"11","school":"6"},{"start_time":1551801617367,"click_time":1551801619195,"finger_time":1551801617974,"fix_duration":932.1115728884155,"trial":6,"RT":607,"MT":1221,"sideResp":2,"stimulus":"img/500/randomdotsizeEA/L/7_Ratio_500_L_10_R_5.png","xmouse":[766,766,766,766,766,766,766,766,766,766,766,766,766,766,766,766,766,766,766,766,766,766,766,766,766,766,764,759,751,745,738,729,716,705,690,671,637,623,614,606,600,588,582,576,571,567,559,554,548,543,539,529,526,525,524,523,520,517,514,512,509,507,507,507,507,507,582,685,799,910,1020,1060,1069,1078,1093,1109,1131,1138,1143,1147,1150,1152,1152,1148,1142,1139,1133,1132,1130,1127,1126,1123],"ymouse":[535,535,535,535,535,535,535,535,535,535,535,535,535,535,535,535,535,535,535,535,535,535,535,535,534,533,527,520,512,504,497,487,470,459,447,432,401,385,370,353,338,303,291,280,272,266,258,253,249,244,240,225,219,216,213,211,202,198,193,188,184,179,179,179,179,179,214,260,295,315,329,329,325,319,310,298,279,270,258,244,232,196,183,167,152,140,125,120,115,111,107,97],"timestamp_mouse":[14,35,46,67,87,107,127,147,167,186,206,227,246,267,287,307,326,348,367,387,408,426,448,466,486,507,527,546,566,587,607,627,646,667,687,707,726,746,766,786,806,826,847,867,887,907,927,946,967,986,1006,1026,1046,1067,1087,1107,1127,1146,1167,1186,1206,1226,1248,1267,1286,1307,1326,1346,1367,1386,1406,1426,1446,1466,1486,1508,1526,1546,1567,1587,1608,1626,1646,1666,1687,1707,1727,1746,1767,1786,1806,1828],"xSR":741.5,"ySR":469.95,"xT1":424.9,"yT1":0,"xT2":1058.1,"yT2":0,"toosoon":0,"cond_shown":"randomdotsizeEA","ratio_trial":500,"smaller_num":"5","larger_num":"10","correct_side":1,"subjID":"Aleixer Camacho Bernal 1","gender":"0","age":"11","school":"6"},{"start_time":1551801620305,"click_time":1551801621574,"finger_time":1551801621035,"fix_duration":250,"trial":7,"RT":730,"MT":539,"sideResp":2,"stimulus":"img/250/equaldotanddens/R/13_Ratio_250_L_2_R_8.png","xmouse":[780,780,780,780,780,780,780,780,780,780,780,780,780,780,780,780,780,780,780,780,780,780,780,780,780,780,780,780,780,780,780,780,780,778,765,751,734,705,680,662,662,662,664,674,754,804,841,876,940,1054,1083,1090,1092,1093,1099,1103,1110,1117,1124,1136,1139,1141,1142,1142],"ymouse":[536,536,536,536,536,536,536,536,536,536,536,536,536,536,536,536,536,536,536,536,536,536,536,536,536,536,536,536,536,536,534,533,530,525,507,492,473,447,426,407,405,403,399,390,364,348,335,320,296,263,255,251,250,247,231,222,210,197,182,148,130,115,104,98],"timestamp_mouse":[8,31,49,69,89,109,130,148,169,190,208,230,249,268,288,308,329,349,368,388,409,429,448,469,488,509,528,548,569,588,608,628,648,668,689,708,730,748,768,789,809,828,849,869,889,909,928,949,968,988,1009,1028,1048,1069,1089,1109,1128,1150,1170,1188,1208,1229,1249,1269],"xSR":741.5,"ySR":469.95,"xT1":424.9,"yT1":0,"xT2":1058.1,"yT2":0,"toosoon":0,"cond_shown":"equaldotanddens","ratio_trial":250,"smaller_num":"2","larger_num":"8","correct_side":2,"subjID":"Aleixer Camacho Bernal 1","gender":"0","age":"11","school":"6"},{"start_time":1551801623649,"click_time":1551801624793,"finger_time":1551801624414,"fix_duration":873.1742230142322,"trial":8,"RT":765,"MT":379,"sideResp":2,"stimulus":"img/250/equaldotsize/R/10_Ratio_250_L_4_R_16.png","xmouse":[797,797,797,797,797,797,797,797,797,797,797,797,797,797,797,797,797,797,797,797,797,797,797,797,797,797,797,797,797,797,797,797,797,798,799,800,806,837,861,872,888,909,938,949,959,965,970,981,985,992,998,1007,1026,1035,1043,1051,1056,1060],"ymouse":[517,517,517,517,517,517,517,517,517,517,517,517,517,517,517,517,517,517,517,517,517,517,517,517,517,516,516,516,516,516,516,516,516,515,513,511,503,471,448,435,411,383,340,319,299,284,263,212,194,173,152,132,93,75,62,53,46,42],"timestamp_mouse":[8,24,45,65,85,105,124,144,166,184,204,224,244,265,284,305,326,345,365,384,405,425,444,465,486,505,524,545,566,585,605,625,645,664,685,705,724,744,765,786,804,824,844,865,884,905,925,945,964,984,1004,1025,1044,1064,1085,1106,1125,1144],"xSR":741.5,"ySR":469.95,"xT1":424.9,"yT1":0,"xT2":1058.1,"yT2":0,"toosoon":0,"cond_shown":"equaldotsize","ratio_trial":250,"smaller_num":"4","larger_num":"16","correct_side":2,"subjID":"Aleixer Camacho Bernal 1","gender":"0","age":"11","school":"6"},{"start_time":1551801626110,"click_time":1551801627673,"finger_time":1551801627093,"fix_duration":574.6577071353153,"trial":9,"RT":983,"MT":580,"sideResp":2,"stimulus":"img/250/randomdotsizeEA/R/12_Ratio_250_L_5_R_20.png","xmouse":[786,786,786,786,786,786,786,786,786,786,786,786,786,786,786,786,786,786,786,786,786,786,786,786,786,786,786,786,786,786,786,786,786,786,786,786,786,786,786,786,786,786,786,788,789,793,800,812,834,879,891,894,898,900,922,938,956,972,986,1004,1015,1024,1033,1041,1065,1076,1085,1092,1096,1101,1102,1104,1106,1109,1114,1114,1115,1115,1116],"ymouse":[528,528,528,528,528,528,528,528,528,528,528,528,528,528,528,528,528,528,528,528,528,528,528,528,528,528,528,528,528,528,528,528,528,528,528,528,528,528,528,528,528,528,528,528,526,522,515,505,494,474,467,463,459,455,432,420,406,392,377,348,332,316,303,288,254,240,226,215,208,192,182,173,163,154,134,125,115,104,94],"timestamp_mouse":[8,28,44,63,84,104,124,144,164,184,203,224,243,264,283,303,324,343,363,383,405,423,444,463,484,505,523,543,564,583,604,623,643,664,683,704,723,744,764,785,803,823,845,864,884,904,923,943,963,983,1003,1023,1044,1063,1083,1103,1123,1144,1165,1183,1203,1223,1244,1263,1284,1303,1323,1344,1364,1383,1403,1423,1443,1463,1485,1505,1524,1543,1563],"xSR":741.5,"ySR":469.95,"xT1":424.9,"yT1":0,"xT2":1058.1,"yT2":0,"toosoon":0,"cond_shown":"randomdotsizeEA","ratio_trial":250,"smaller_num":"5","larger_num":"20","correct_side":2,"subjID":"Aleixer Camacho Bernal 1","gender":"0","age":"11","school":"6"},{"start_time":1551801629896,"click_time":1551801631414,"finger_time":1551801630734,"fix_duration":1301.9087006019158,"trial":10,"RT":838,"MT":680,"sideResp":1,"stimulus":"img/900/equaldotanddens/L/1_Ratio_900_L_10_R_9.png","xmouse":[811,811,812,814,815,815,815,815,815,815,815,815,815,815,815,815,815,815,815,815,815,815,815,815,815,815,815,815,815,815,815,815,815,815,815,815,815,815,814,809,800,792,782,773,750,739,721,706,689,669,664,661,657,656,648,640,631,624,618,606,598,588,573,557,538,537,535,533,532,529,528,527,524,522,516,513],"ymouse":[495,495,495,495,496,496,496,496,496,496,496,496,496,496,496,496,496,496,496,496,496,496,496,496,496,496,496,496,496,496,496,496,496,496,496,496,496,496,496,488,477,467,456,445,400,376,349,329,306,278,269,263,258,255,245,237,230,224,218,203,196,188,178,170,161,160,158,156,155,149,146,141,134,127,102,92],"timestamp_mouse":[30,37,58,77,97,119,139,157,177,198,218,238,259,277,298,318,338,358,377,398,418,437,459,477,497,518,539,558,578,598,617,637,659,678,697,718,737,759,778,798,817,838,858,878,897,917,939,957,977,997,1017,1038,1058,1077,1098,1117,1137,1158,1177,1197,1218,1237,1258,1277,1297,1317,1337,1358,1378,1398,1418,1438,1458,1477,1497,1517],"xSR":741.5,"ySR":469.95,"xT1":424.9,"yT1":0,"xT2":1058.1,"yT2":0,"toosoon":0,"cond_shown":"equaldotanddens","ratio_trial":900,"smaller_num":"9","larger_num":"10","correct_side":1,"subjID":"Aleixer Camacho Bernal 1","gender":"0","age":"11","school":"6"},{"start_time":1551801633449,"click_time":1551801634534,"finger_time":1551801634113,"fix_duration":1054.1349759603568,"trial":11,"RT":664,"MT":421,"sideResp":2,"stimulus":"img/750/equaldotanddens/R/4_Ratio_750_L_15_R_20.png","xmouse":[794,794,794,794,794,794,794,794,794,794,794,794,794,794,794,794,794,794,794,794,794,794,794,794,794,794,794,794,795,797,798,800,812,830,891,975,1098,1172,1181,1185,1188,1188,1189,1189,1189,1189,1189,1185,1182,1179,1175,1171,1162,1156,1152],"ymouse":[534,534,534,534,534,534,534,534,534,534,534,534,534,534,534,534,534,534,534,534,534,534,534,534,534,534,534,534,530,524,518,511,488,467,434,398,343,289,275,262,252,248,244,241,240,235,229,209,197,186,173,160,127,109,94],"timestamp_mouse":[8,24,44,64,84,105,125,145,165,184,205,224,244,265,284,305,326,344,365,384,405,424,445,464,485,504,524,544,564,584,605,625,644,664,684,705,724,744,765,784,805,825,845,865,884,904,925,944,966,985,1004,1024,1044,1065,1085],"xSR":741.5,"ySR":469.95,"xT1":424.9,"yT1":0,"xT2":1058.1,"yT2":0,"toosoon":0,"cond_shown":"equaldotanddens","ratio_trial":750,"smaller_num":"15","larger_num":"20","correct_side":2,"subjID":"Aleixer Camacho Bernal 1","gender":"0","age":"11","school":"6"},{"start_time":1551801636155,"click_time":1551801638035,"finger_time":1551801637054,"fix_duration":561.3577715794901,"trial":12,"RT":899,"MT":981,"sideResp":2,"stimulus":"img/750/randomdotsizeEA/R/4_Ratio_750_L_15_R_20.png","xmouse":[807,807,807,807,807,807,807,807,807,807,807,807,807,807,807,807,807,807,807,807,807,807,807,807,807,807,807,807,807,807,807,807,807,807,807,807,807,807,806,805,805,798,791,784,774,758,725,708,695,681,665,612,591,579,572,569,564,562,561,558,555,550,548,545,545,545,545,545,545,548,554,598,627,656,679,698,809,912,1012,1104,1164,1173,1174,1175,1175,1176,1176,1176,1176,1174,1168,1153,1144,1136],"ymouse":[520,520,520,520,520,520,520,520,520,520,520,520,520,520,520,520,520,520,520,520,520,520,520,520,520,520,520,520,520,520,520,520,520,520,520,520,520,520,520,519,518,502,492,480,463,444,414,399,381,362,343,303,291,284,278,275,266,262,256,249,241,224,219,216,215,215,215,215,215,214,214,214,214,214,212,208,198,198,198,196,188,186,185,184,182,180,175,169,164,154,143,117,107,99],"timestamp_mouse":[18,39,59,79,98,118,139,159,178,199,220,238,260,280,298,319,339,358,379,400,418,438,458,478,499,519,539,560,578,600,619,638,659,678,699,718,738,759,779,799,818,839,858,878,898,930,939,960,980,999,1019,1039,1059,1080,1098,1119,1138,1159,1179,1198,1218,1238,1259,1278,1298,1319,1339,1360,1380,1400,1419,1438,1459,1478,1498,1519,1539,1559,1578,1598,1619,1638,1658,1679,1698,1718,1738,1758,1779,1798,1818,1838,1859,1880],"xSR":741.5,"ySR":469.95,"xT1":424.9,"yT1":0,"xT2":1058.1,"yT2":0,"toosoon":0,"cond_shown":"randomdotsizeEA","ratio_trial":750,"smaller_num":"15","larger_num":"20","correct_side":2,"subjID":"Aleixer Camacho Bernal 1","gender":"0","age":"11","school":"6"},{"start_time":1551801640344,"click_time":1551801642393,"finger_time":1551801641273,"fix_duration":1248.9154141264864,"trial":13,"RT":929,"MT":1120,"sideResp":1,"stimulus":"img/500/equaldotsize/L/5_Ratio_500_L_4_R_2.png","xmouse":[781,781,781,781,781,781,781,781,781,781,781,781,781,781,781,781,781,781,781,781,781,781,781,781,781,781,781,781,781,781,781,781,781,781,781,781,781,781,781,781,781,781,780,775,768,757,731,667,641,626,616,603,592,589,586,585,584,582,580,578,573,564,533,518,504,497,490,485,483,482,481,480,480,480,480,480,480,479,479,478,477,477,476,475,475,474,474,474,474,474,474,474,474,474,474,474,474,474,474,474,474,474,474],"ymouse":[514,514,514,514,514,514,514,514,514,514,514,514,514,514,514,514,514,514,514,514,514,514,514,514,514,514,514,514,514,514,514,514,514,514,514,514,514,514,514,514,514,514,513,506,498,487,467,414,387,364,343,311,279,268,259,253,248,241,236,233,225,215,178,163,150,139,131,122,119,117,116,116,116,116,116,116,115,113,112,112,110,109,107,106,105,105,105,105,105,105,105,105,105,105,105,105,105,105,105,104,103,101,98],"timestamp_mouse":[9,29,49,69,90,110,130,151,169,189,211,230,251,269,289,310,330,350,369,390,410,430,450,469,490,510,529,550,569,590,610,629,649,670,690,709,729,749,770,790,811,830,849,869,890,910,929,949,969,989,1011,1030,1049,1070,1090,1110,1130,1149,1169,1189,1209,1230,1249,1270,1290,1309,1329,1349,1370,1390,1409,1429,1449,1470,1489,1509,1530,1549,1570,1590,1611,1630,1650,1669,1689,1709,1730,1750,1770,1789,1810,1829,1849,1870,1890,1909,1930,1950,1970,1990,2009,2030,2049],"xSR":741.5,"ySR":469.95,"xT1":424.9,"yT1":0,"xT2":1058.1,"yT2":0,"toosoon":0,"cond_shown":"equaldotsize","ratio_trial":500,"smaller_num":"2","larger_num":"4","correct_side":1,"subjID":"Aleixer Camacho Bernal 1","gender":"0","age":"11","school":"6"},{"start_time":1551801647024,"click_time":1551801648634,"finger_time":1551801647813,"fix_duration":949.9329614607781,"trial":14,"RT":789,"MT":821,"sideResp":1,"stimulus":"img/900/equaldotanddens/L/10_Ratio_900_L_20_R_18.png","xmouse":[767,767,767,767,767,767,767,767,767,767,767,767,767,767,767,767,767,767,767,767,767,767,767,767,767,767,767,767,767,767,767,767,767,767,767,767,768,768,757,738,714,685,660,624,601,565,527,495,470,468,468,467,467,470,473,475,478,482,484,484,484,484,484,484,484,484,484,484,484,484,484,484,484,484,484,484,484,484,484,484,484],"ymouse":[489,489,489,489,489,489,489,489,489,489,489,489,489,489,489,489,489,489,489,489,489,489,489,489,489,489,489,489,489,489,489,489,489,489,489,489,489,486,476,468,458,444,433,400,367,320,272,232,188,182,181,178,174,160,152,142,132,119,102,100,100,100,100,100,100,100,100,100,100,100,100,100,100,100,100,100,100,100,100,100,98],"timestamp_mouse":[10,29,50,69,90,110,129,151,170,190,210,229,251,269,290,309,330,349,369,390,409,430,451,469,490,509,530,550,571,590,610,630,650,670,689,709,729,750,769,789,809,830,850,869,889,909,930,951,970,989,1009,1030,1051,1070,1090,1110,1129,1149,1169,1190,1209,1229,1250,1270,1289,1310,1329,1350,1369,1390,1410,1429,1449,1469,1489,1510,1530,1550,1570,1589,1610],"xSR":741.5,"ySR":469.95,"xT1":424.9,"yT1":0,"xT2":1058.1,"yT2":0,"toosoon":0,"cond_shown":"equaldotanddens","ratio_trial":900,"smaller_num":"18","larger_num":"20","correct_side":1,"subjID":"Aleixer Camacho Bernal 1","gender":"0","age":"11","school":"6"},{"start_time":1551801650853,"click_time":1551801653193,"finger_time":1551801652473,"fix_duration":1118.348620299713,"trial":15,"RT":1620,"MT":720,"sideResp":1,"stimulus":"img/250/randomdotsizeEA/R/4_Ratio_250_L_3_R_12.png","xmouse":[759,759,761,762,763,763,763,764,764,764,764,764,765,766,766,766,766,766,766,766,766,766,766,766,766,766,767,767,767,768,768,768,768,768,768,768,768,768,769,770,770,771,771,771,771,772,772,772,772,772,773,773,773,773,773,773,773,773,773,775,779,789,803,805,805,805,805,805,805,805,805,805,805,806,806,805,804,801,800,796,791,777,740,720,691,658,619,570,561,553,546,540,529,524,516,512,509,509,509,509,509,509,508,508,508,507,506,505,504,503,501,498,495,495,495,495,495,495],"ymouse":[478,478,478,478,478,478,478,478,478,478,478,478,478,478,478,478,478,478,478,478,478,478,478,478,478,478,478,478,478,478,478,478,477,477,477,477,477,477,477,477,476,476,476,476,476,476,476,476,476,476,476,476,476,476,476,476,476,476,476,476,476,477,480,480,480,480,480,480,480,480,480,480,480,481,482,483,483,483,483,483,480,466,425,403,377,354,325,287,274,258,241,221,185,167,152,142,135,135,135,135,135,135,134,134,132,131,130,126,125,122,117,111,103,102,100,100,100,99],"timestamp_mouse":[8,20,41,61,80,101,120,140,162,180,201,221,240,262,281,300,320,340,360,382,400,421,440,461,482,502,520,540,561,581,600,620,641,660,680,700,721,740,762,780,800,821,841,861,882,901,921,941,961,980,1000,1022,1041,1060,1081,1101,1120,1140,1162,1180,1200,1220,1240,1261,1280,1301,1320,1341,1362,1382,1400,1421,1440,1460,1482,1500,1521,1541,1561,1581,1600,1620,1641,1661,1681,1701,1721,1740,1760,1782,1800,1820,1841,1861,1880,1901,1921,1941,1961,1980,2001,2020,2040,2061,2080,2101,2120,2141,2160,2182,2202,2221,2240,2261,2280,2300,2320,2340],"xSR":741.5,"ySR":469.95,"xT1":424.9,"yT1":0,"xT2":1058.1,"yT2":0,"toosoon":0,"cond_shown":"randomdotsizeEA","ratio_trial":250,"smaller_num":"3","larger_num":"12","correct_side":2,"subjID":"Aleixer Camacho Bernal 1","gender":"0","age":"11","school":"6"},{"start_time":1551801662386,"click_time":1551801663454,"finger_time":1551801663054,"fix_duration":590.518053040609,"trial":16,"RT":668,"MT":400,"sideResp":2,"stimulus":"img/750/equaldotsize/R/2_Ratio_750_L_6_R_8.png","xmouse":[794,794,794,794,794,794,794,794,794,794,794,794,794,794,794,794,794,794,794,794,794,794,794,794,794,794,794,794,794,794,794,798,805,820,843,927,972,1010,1038,1058,1082,1090,1107,1118,1130,1151,1156,1158,1158,1158,1155,1152,1145,1133],"ymouse":[489,489,489,489,489,489,489,489,489,489,489,489,489,489,489,489,489,489,489,489,489,489,489,489,489,489,489,489,489,489,490,487,480,467,451,406,380,355,331,311,266,252,223,206,187,156,143,134,125,119,111,107,103,98],"timestamp_mouse":[8,34,47,68,89,108,127,148,169,187,209,229,247,268,287,307,327,349,368,388,407,427,447,467,488,508,527,547,569,588,608,629,649,668,688,708,728,747,767,789,808,828,847,867,887,908,927,948,967,988,1007,1028,1047,1067],"xSR":741.5,"ySR":469.95,"xT1":424.9,"yT1":0,"xT2":1058.1,"yT2":0,"toosoon":0,"cond_shown":"equaldotsize","ratio_trial":750,"smaller_num":"6","larger_num":"8","correct_side":2,"subjID":"Aleixer Camacho Bernal 1","gender":"0","age":"11","school":"6"},{"start_time":1551801664625,"click_time":1551801665793,"finger_time":1551801665094,"fix_duration":250,"trial":17,"RT":469,"MT":699,"sideResp":1,"stimulus":"img/900/equaldotsize/R/6_Ratio_900_L_9_R_10.png","xmouse":[793,793,794,794,794,794,794,794,794,794,794,794,794,794,794,794,794,794,794,794,796,799,809,859,877,883,884,884,878,873,862,847,822,780,764,753,742,731,712,697,688,680,676,655,629,598,577,564,557,557,555,553,549,542,539,534,530,525,517],"ymouse":[487,487,488,488,488,488,488,488,488,488,488,488,488,488,488,488,488,488,488,488,488,488,482,446,426,406,388,373,339,323,305,283,252,207,190,175,160,148,129,120,116,114,112,112,112,112,112,109,106,106,105,105,103,100,100,98,97,95,92],"timestamp_mouse":[12,31,50,68,89,108,129,149,169,188,209,230,248,268,289,310,328,350,368,389,408,430,448,469,489,508,528,550,568,588,608,628,648,668,688,709,728,749,768,788,808,829,848,869,888,909,928,949,968,989,1008,1028,1048,1068,1090,1108,1129,1149,1168],"xSR":741.5,"ySR":469.95,"xT1":424.9,"yT1":0,"xT2":1058.1,"yT2":0,"toosoon":0,"cond_shown":"equaldotsize","ratio_trial":900,"smaller_num":"9","larger_num":"10","correct_side":2,"subjID":"Aleixer Camacho Bernal 1","gender":"0","age":"11","school":"6"},{"start_time":1551801667085,"click_time":1551801668474,"finger_time":1551801667894,"fix_duration":308.45730180214326,"trial":18,"RT":809,"MT":580,"sideResp":2,"stimulus":"img/500/randomdotsizeEA/R/2_Ratio_500_L_3_R_6.png","xmouse":[761,761,761,761,761,761,761,761,761,761,761,761,761,761,761,761,761,762,762,763,763,763,763,763,763,763,763,763,763,763,763,763,763,763,764,766,769,775,782,797,830,864,919,981,1070,1104,1107,1108,1108,1108,1108,1106,1103,1101,1099,1096,1095,1095,1095,1095,1097,1098,1099,1100,1101,1104,1104,1104,1104,1105],"ymouse":[496,496,496,496,496,496,496,496,496,496,496,496,496,496,496,496,496,496,496,496,496,496,496,496,496,496,496,496,496,496,496,496,496,496,496,495,493,489,482,472,444,425,409,394,371,354,349,343,334,327,311,299,290,283,277,263,256,249,239,231,216,211,206,200,193,172,160,142,119,99],"timestamp_mouse":[8,34,49,69,89,108,128,148,168,188,208,230,248,269,288,309,330,348,369,389,408,430,449,468,488,508,530,548,568,589,609,628,649,668,689,708,729,748,768,788,809,829,848,869,888,908,929,948,969,988,1009,1027,1048,1067,1088,1108,1128,1148,1168,1188,1208,1228,1248,1269,1289,1308,1329,1349,1368,1388],"xSR":741.5,"ySR":469.95,"xT1":424.9,"yT1":0,"xT2":1058.1,"yT2":0,"toosoon":0,"cond_shown":"randomdotsizeEA","ratio_trial":500,"smaller_num":"3","larger_num":"6","correct_side":2,"subjID":"Aleixer Camacho Bernal 1","gender":"0","age":"11","school":"6"},{"start_time":1551801670574,"click_time":1551801672014,"finger_time":1551801671372,"fix_duration":880.7039901079403,"trial":19,"RT":798,"MT":642,"sideResp":1,"stimulus":"img/250/equaldotanddens/L/15_Ratio_250_L_12_R_3.png","xmouse":[798,798,798,798,798,798,798,798,798,798,798,798,798,798,798,798,798,798,798,798,798,798,798,798,798,798,798,798,798,798,798,798,798,798,799,795,786,773,755,732,690,671,652,631,614,600,600,599,599,598,591,587,581,576,568,552,544,539,535,533,532,532,532,532,532,532,532,532,531,529,525,521],"ymouse":[532,532,532,532,532,532,532,532,532,532,532,532,532,532,532,532,532,532,532,532,532,532,532,532,532,532,532,532,532,532,532,532,532,532,532,524,513,501,486,468,412,381,353,326,306,289,288,288,288,285,276,266,250,230,205,143,103,73,46,24,2,1,1,1,1,1,1,1,1,1,6,11],"timestamp_mouse":[28,40,59,79,100,119,139,159,180,199,218,239,259,280,300,319,340,359,380,400,418,440,459,478,499,519,540,560,579,600,619,640,660,679,699,719,740,759,779,798,820,839,859,880,900,919,939,960,980,999,1019,1040,1058,1080,1100,1118,1139,1160,1179,1200,1218,1239,1260,1280,1300,1319,1339,1359,1379,1399,1419,1440],"xSR":741.5,"ySR":469.95,"xT1":424.9,"yT1":0,"xT2":1058.1,"yT2":0,"toosoon":0,"cond_shown":"equaldotanddens","ratio_trial":250,"smaller_num":"3","larger_num":"12","correct_side":1,"subjID":"Aleixer Camacho Bernal 1","gender":"0","age":"11","school":"6"},{"start_time":1551801673524,"click_time":1551801674694,"finger_time":1551801674153,"fix_duration":250,"trial":20,"RT":629,"MT":541,"sideResp":2,"stimulus":"img/250/equaldotanddens/R/8_Ratio_250_L_1_R_4.png","xmouse":[760,760,760,760,760,760,760,760,760,760,760,760,760,760,760,760,760,760,760,760,760,760,760,761,761,764,766,769,774,776,778,781,788,830,848,866,887,903,931,941,951,958,966,986,991,994,999,1002,1006,1008,1012,1016,1022,1040,1049,1055,1062,1069,1084],"ymouse":[491,491,491,491,491,491,491,491,491,491,491,491,491,491,491,491,491,491,491,491,491,491,491,491,491,491,489,486,480,477,474,467,460,439,429,418,402,387,355,341,328,318,306,279,270,261,250,240,225,219,212,203,192,159,143,129,114,103,79],"timestamp_mouse":[8,28,49,70,88,109,130,149,170,189,208,230,249,269,290,308,329,350,368,389,410,428,449,468,488,509,530,549,569,589,609,629,649,668,688,708,729,749,768,789,809,829,850,868,888,908,929,950,969,989,1009,1029,1050,1069,1089,1109,1128,1149,1170],"xSR":741.5,"ySR":469.95,"xT1":424.9,"yT1":0,"xT2":1058.1,"yT2":0,"toosoon":0,"cond_shown":"equaldotanddens","ratio_trial":250,"smaller_num":"1","larger_num":"4","correct_side":2,"subjID":"Aleixer Camacho Bernal 1","gender":"0","age":"11","school":"6"},{"start_time":1551801676814,"click_time":1551801678434,"finger_time":1551801677592,"fix_duration":1419.1715414376097,"trial":21,"RT":778,"MT":842,"sideResp":1,"stimulus":"img/750/randomdotsizeEA/R/12_Ratio_750_L_3_R_4.png","xmouse":[795,796,796,797,798,798,798,798,798,798,799,799,799,799,799,799,799,799,799,799,799,799,799,799,799,799,799,799,799,799,799,799,801,801,802,802,802,802,797,792,789,788,788,788,801,815,834,853,882,905,914,918,923,925,927,928,928,928,928,921,907,882,831,765,624,567,530,510,497,486,484,482,480,479,478,478,478,478,478,478,478,478],"ymouse":[554,553,553,552,552,552,552,552,552,552,552,552,552,552,552,552,552,552,552,552,552,552,552,552,552,552,552,552,552,552,552,550,548,544,530,521,510,500,484,469,461,456,452,447,427,417,406,395,383,372,368,364,359,356,353,351,349,347,344,328,318,305,283,264,221,205,191,183,176,166,164,161,159,156,153,151,149,146,143,122,109,99],"timestamp_mouse":[1,29,39,59,78,99,119,138,159,178,200,219,238,259,279,299,318,339,358,378,400,419,439,459,479,499,519,539,558,579,599,618,639,659,679,699,719,740,759,778,799,819,839,860,879,899,919,939,959,979,999,1020,1039,1060,1079,1098,1119,1139,1160,1179,1199,1219,1240,1260,1279,1299,1318,1340,1359,1379,1399,1419,1440,1459,1479,1499,1519,1539,1560,1578,1599,1620],"xSR":741.5,"ySR":469.95,"xT1":424.9,"yT1":0,"xT2":1058.1,"yT2":0,"toosoon":0,"cond_shown":"randomdotsizeEA","ratio_trial":750,"smaller_num":"3","larger_num":"4","correct_side":2,"subjID":"Aleixer Camacho Bernal 1","gender":"0","age":"11","school":"6"},{"start_time":1551801680744,"click_time":1551801682673,"finger_time":1551801681933,"fix_duration":1010.9670433426525,"trial":22,"RT":1189,"MT":740,"sideResp":2,"stimulus":"img/900/randomdotsizeEA/R/15_Ratio_900_L_9_R_10.png","xmouse":[781,781,782,782,782,782,782,782,782,782,782,782,782,782,782,782,782,782,782,782,782,782,782,782,782,782,782,782,782,782,782,782,783,783,783,784,785,785,785,786,786,786,788,789,790,790,791,791,791,791,792,792,792,792,792,793,793,795,796,800,804,808,835,854,871,888,898,916,922,928,934,937,942,947,949,952,956,981,1005,1036,1074,1113,1161,1162,1162,1162,1162,1162,1162,1162,1160,1159,1151,1147,1143,1139,1137],"ymouse":[510,510,510,510,510,510,510,510,510,510,510,510,510,510,510,510,510,510,510,510,510,510,510,510,510,510,510,510,510,510,510,510,508,508,508,508,507,507,507,506,506,506,504,501,499,498,496,495,495,495,494,493,492,491,491,490,489,483,477,465,454,441,372,338,311,286,265,222,202,182,163,150,131,123,121,119,118,118,118,118,118,118,118,118,118,118,118,117,116,115,114,112,108,105,103,101,99],"timestamp_mouse":[9,32,49,69,89,109,130,150,169,188,210,230,250,268,290,309,330,350,368,390,410,428,448,470,490,509,529,549,569,588,610,628,649,669,688,709,728,749,769,789,810,829,848,869,889,909,929,948,969,988,1009,1030,1049,1070,1090,1109,1129,1149,1170,1189,1209,1229,1249,1269,1289,1309,1330,1349,1368,1389,1409,1429,1449,1470,1489,1509,1530,1549,1569,1589,1608,1628,1649,1668,1689,1710,1729,1748,1769,1789,1810,1829,1848,1869,1888,1909,1929],"xSR":741.5,"ySR":469.95,"xT1":424.9,"yT1":0,"xT2":1058.1,"yT2":0,"toosoon":0,"cond_shown":"randomdotsizeEA","ratio_trial":900,"smaller_num":"9","larger_num":"10","correct_side":2,"subjID":"Aleixer Camacho Bernal 1","gender":"0","age":"11","school":"6"},{"start_time":1551801684266,"click_time":1551801685694,"finger_time":1551801685093,"fix_duration":371.5793638013468,"trial":23,"RT":827,"MT":601,"sideResp":1,"stimulus":"img/250/equaldotsize/L/1_Ratio_250_L_8_R_2.png","xmouse":[814,814,814,814,814,814,814,814,814,814,814,814,814,814,814,815,817,817,817,817,817,817,818,818,818,818,818,819,819,819,819,819,819,819,819,819,819,818,810,799,779,699,658,615,589,569,535,516,507,504,503,503,503,503,503,503,500,497,496,492,487,472,467,463,461,460,458,457,457,456,456,454],"ymouse":[547,547,547,547,547,547,547,547,547,547,547,547,547,547,547,546,544,544,544,544,544,544,543,543,543,543,543,542,542,542,542,542,542,542,542,542,542,537,529,519,503,453,422,389,363,335,283,248,234,225,221,220,220,218,217,214,202,194,185,173,160,131,122,115,112,109,105,103,102,101,101,97],"timestamp_mouse":[9,36,48,66,87,106,127,147,168,187,207,227,248,266,286,308,327,347,368,387,407,426,447,468,486,507,527,547,567,586,607,627,646,667,688,707,727,747,768,788,807,827,847,868,887,907,927,946,967,987,1006,1026,1047,1066,1088,1108,1128,1148,1167,1187,1206,1226,1246,1267,1287,1308,1327,1348,1367,1387,1408,1428],"xSR":741.5,"ySR":469.95,"xT1":424.9,"yT1":0,"xT2":1058.1,"yT2":0,"toosoon":0,"cond_shown":"equaldotsize","ratio_trial":250,"smaller_num":"2","larger_num":"8","correct_side":1,"subjID":"Aleixer Camacho Bernal 1","gender":"0","age":"11","school":"6"},{"start_time":1551801691884,"click_time":1551801693393,"finger_time":1551801692773,"fix_duration":250,"trial":24,"RT":889,"MT":620,"sideResp":2,"stimulus":"img/900/randomdotsizeEA/L/8_Ratio_900_L_20_R_18.png","xmouse":[807,807,807,807,807,807,807,807,807,807,807,807,807,807,807,807,807,807,807,807,807,807,807,807,807,807,807,807,807,807,807,807,807,807,807,807,807,807,807,807,811,817,822,835,852,893,919,929,939,949,962,966,968,969,969,972,973,976,978,983,994,998,1004,1008,1015,1023,1027,1031,1034,1038,1044,1046,1049,1053,1057,1061],"ymouse":[523,523,523,523,523,523,523,523,523,523,523,523,523,523,523,523,523,523,523,523,523,523,523,523,523,523,523,523,523,523,523,523,523,523,523,523,523,523,523,522,518,509,498,481,457,387,338,311,285,262,228,215,206,201,198,191,188,184,180,174,156,151,141,134,125,114,108,103,99,93,88,86,84,82,80,78],"timestamp_mouse":[12,35,49,68,90,108,128,149,168,189,209,228,250,270,289,309,329,350,369,389,409,428,449,468,489,509,528,549,570,589,609,630,650,670,688,708,729,749,769,789,809,829,849,869,889,909,928,949,969,989,1010,1030,1049,1069,1089,1108,1128,1149,1169,1190,1209,1229,1249,1269,1290,1308,1329,1348,1369,1390,1408,1429,1448,1469,1489,1508],"xSR":741.5,"ySR":469.95,"xT1":424.9,"yT1":0,"xT2":1058.1,"yT2":0,"toosoon":0,"cond_shown":"randomdotsizeEA","ratio_trial":900,"smaller_num":"18","larger_num":"20","correct_side":1,"subjID":"Aleixer Camacho Bernal 1","gender":"0","age":"11","school":"6"},{"start_time":1551801695812,"click_time":1551801697093,"finger_time":1551801696493,"fix_duration":1139.6478170535702,"trial":25,"RT":681,"MT":600,"sideResp":1,"stimulus":"img/500/randomdotsizeEA/L/4_Ratio_500_L_18_R_9.png","xmouse":[832,832,832,832,832,832,832,832,832,832,832,832,832,832,832,832,832,832,832,832,832,832,833,833,833,833,833,833,833,834,835,835,837,839,844,845,845,840,825,805,783,770,756,741,714,701,685,674,664,643,637,629,623,617,611,607,603,599,594,581,574,563,549,528,495],"ymouse":[516,516,516,516,516,516,516,516,516,516,516,516,516,516,516,516,516,516,517,517,517,517,517,517,517,517,517,517,517,515,513,511,506,500,481,468,454,436,406,378,350,333,312,289,245,222,198,181,165,139,133,128,124,121,118,116,115,114,112,108,107,106,104,101,96],"timestamp_mouse":[9,28,41,62,80,102,121,141,161,181,202,221,242,260,281,301,320,342,361,380,401,422,441,461,481,501,520,542,560,581,601,622,642,661,681,701,721,741,762,781,801,821,841,861,881,902,921,942,962,982,1002,1021,1041,1062,1080,1102,1121,1141,1161,1181,1200,1221,1241,1261,1281],"xSR":741.5,"ySR":469.95,"xT1":424.9,"yT1":0,"xT2":1058.1,"yT2":0,"toosoon":0,"cond_shown":"randomdotsizeEA","ratio_trial":500,"smaller_num":"9","larger_num":"18","correct_side":1,"subjID":"Aleixer Camacho Bernal 1","gender":"0","age":"11","school":"6"},{"start_time":1551801698725,"click_time":1551801700094,"finger_time":1551801699434,"fix_duration":490.76048640220347,"trial":26,"RT":709,"MT":660,"sideResp":2,"stimulus":"img/750/equaldotsize/L/14_Ratio_750_L_8_R_6.png","xmouse":[779,779,779,779,779,779,779,779,779,779,779,779,779,779,779,779,779,779,779,779,779,779,779,779,779,779,779,779,779,779,779,779,781,789,802,818,829,838,867,887,909,929,945,968,976,982,990,997,1004,1005,1005,1005,1005,1018,1023,1028,1034,1041,1049,1051,1051,1051,1051,1052,1053,1054,1055,1056,1059],"ymouse":[507,507,507,507,507,507,507,507,507,507,507,507,507,507,507,507,507,507,507,507,507,507,507,507,507,507,507,507,507,507,507,507,505,492,475,451,424,395,328,295,265,237,215,170,153,135,117,102,83,82,81,81,81,77,75,74,72,72,72,72,72,72,72,72,72,72,71,71,70],"timestamp_mouse":[8,27,47,69,88,108,127,148,168,189,208,229,247,269,288,309,327,348,369,389,408,428,447,469,488,509,528,549,569,587,609,627,648,668,687,709,729,749,768,788,808,828,848,867,887,907,928,948,967,987,1008,1028,1049,1067,1088,1108,1129,1148,1167,1188,1207,1228,1249,1268,1287,1308,1327,1348,1369],"xSR":741.5,"ySR":469.95,"xT1":424.9,"yT1":0,"xT2":1058.1,"yT2":0,"toosoon":0,"cond_shown":"equaldotsize","ratio_trial":750,"smaller_num":"6","larger_num":"8","correct_side":1,"subjID":"Aleixer Camacho Bernal 1","gender":"0","age":"11","school":"6"},{"start_time":1551801702246,"click_time":1551801703293,"finger_time":1551801703073,"fix_duration":1131.9357123458694,"trial":27,"RT":827,"MT":220,"sideResp":2,"stimulus":"img/250/equaldotsize/R/9_Ratio_250_L_3_R_12.png","xmouse":[795,795,795,795,795,795,795,796,796,796,796,796,796,796,796,796,797,797,797,797,797,797,797,797,797,797,797,797,797,797,797,798,798,798,798,798,798,798,802,808,827,852,920,950,967,981,992,1021,1032,1042,1050,1056,1065],"ymouse":[547,547,547,547,547,547,547,547,547,547,547,547,547,547,547,547,546,545,545,545,545,545,545,545,545,545,545,545,545,545,545,544,544,544,543,541,540,534,526,512,476,429,328,282,251,223,197,134,111,90,71,55,33],"timestamp_mouse":[8,28,47,68,87,108,127,146,167,187,207,227,247,268,288,306,328,348,366,387,407,428,447,468,487,507,527,547,567,587,607,627,647,666,687,707,727,747,766,787,807,827,847,868,886,907,928,947,967,987,1006,1028,1047],"xSR":741.5,"ySR":469.95,"xT1":424.9,"yT1":0,"xT2":1058.1,"yT2":0,"toosoon":0,"cond_shown":"equaldotsize","ratio_trial":250,"smaller_num":"3","larger_num":"12","correct_side":2,"subjID":"Aleixer Camacho Bernal 1","gender":"0","age":"11","school":"6"},{"start_time":1551801705509,"click_time":1551801706993,"finger_time":1551801706374,"fix_duration":1314.8073161996276,"trial":28,"RT":865,"MT":619,"sideResp":2,"stimulus":"img/750/equaldotanddens/R/5_Ratio_750_L_15_R_20.png","xmouse":[795,795,795,795,795,795,795,795,795,795,795,795,795,795,795,795,795,795,795,795,795,795,795,795,795,795,795,795,795,795,795,795,795,795,795,795,795,795,795,795,795,797,810,824,862,873,880,893,908,951,970,985,996,1003,1016,1020,1025,1028,1033,1043,1046,1047,1048,1048,1049,1051,1054,1055,1055,1056,1056,1056,1056,1057,1060],"ymouse":[492,492,492,492,492,492,492,492,492,492,492,492,492,492,492,492,492,492,492,492,492,492,492,492,492,492,492,492,492,492,492,492,492,492,492,492,492,492,492,492,493,490,471,452,397,376,358,338,318,268,244,224,207,191,166,158,150,144,135,118,112,110,110,110,108,106,105,104,103,102,102,102,102,102,99],"timestamp_mouse":[10,32,44,64,83,104,124,145,164,184,205,225,243,264,283,303,325,344,364,384,404,424,444,465,484,505,523,545,564,584,604,624,644,664,684,705,724,745,763,784,804,825,844,865,883,904,924,943,963,983,1004,1025,1044,1065,1084,1104,1123,1145,1164,1185,1205,1224,1244,1265,1283,1304,1323,1344,1364,1384,1404,1425,1445,1464,1484],"xSR":741.5,"ySR":469.95,"xT1":424.9,"yT1":0,"xT2":1058.1,"yT2":0,"toosoon":0,"cond_shown":"equaldotanddens","ratio_trial":750,"smaller_num":"15","larger_num":"20","correct_side":2,"subjID":"Aleixer Camacho Bernal 1","gender":"0","age":"11","school":"6"},{"start_time":1551801709083,"click_time":1551801710093,"finger_time":1551801709732,"fix_duration":989.1072280145655,"trial":29,"RT":649,"MT":361,"sideResp":1,"stimulus":"img/250/equaldotsize/L/14_Ratio_250_L_12_R_3.png","xmouse":[787,787,787,787,787,787,787,787,787,787,787,787,787,788,788,788,788,788,788,788,788,788,788,788,788,788,788,788,788,788,767,749,732,712,687,667,652,639,625,611,584,574,568,562,557,537,526,507,489,477,463],"ymouse":[540,540,540,540,540,540,540,540,540,540,540,540,540,540,540,540,540,540,540,540,540,540,540,540,540,540,540,538,536,529,495,471,451,427,398,375,356,343,325,309,279,267,259,252,246,216,196,171,144,125,98],"timestamp_mouse":[10,35,51,70,91,111,129,150,169,191,210,230,251,270,290,310,329,351,371,389,410,431,450,471,489,510,529,550,570,590,609,631,649,670,691,710,731,750,771,791,811,829,850,869,890,911,930,951,970,990,1010],"xSR":741.5,"ySR":469.95,"xT1":424.9,"yT1":0,"xT2":1058.1,"yT2":0,"toosoon":0,"cond_shown":"equaldotsize","ratio_trial":250,"smaller_num":"3","larger_num":"12","correct_side":1,"subjID":"Aleixer Camacho Bernal 1","gender":"0","age":"11","school":"6"},{"start_time":1551801711971,"click_time":1551801713373,"finger_time":1551801712493,"fix_duration":475.50042268114066,"trial":30,"RT":522,"MT":880,"sideResp":1,"stimulus":"img/250/randomdotsizeEA/L/2_Ratio_250_L_16_R_4.png","xmouse":[811,811,811,811,811,811,811,811,811,811,811,810,808,806,804,801,796,794,792,789,786,773,770,769,769,771,798,827,858,879,895,901,901,901,901,901,902,904,907,912,918,940,949,952,953,953,949,945,937,926,906,844,806,762,721,690,643,621,599,587,581,580,580,580,580,579,568,553,539,525,514],"ymouse":[553,553,553,553,553,553,553,553,553,553,553,552,550,548,546,544,541,540,539,536,533,521,514,508,500,491,457,433,408,388,362,334,325,318,313,307,297,289,279,266,253,216,201,192,184,180,171,168,161,156,150,134,128,121,115,111,105,103,103,102,101,101,101,101,101,100,95,89,83,75,67],"timestamp_mouse":[8,31,43,61,82,102,121,143,161,182,202,222,242,263,282,302,322,342,361,382,403,421,441,462,483,501,522,542,563,582,602,621,641,661,683,703,721,742,762,782,802,821,841,862,883,902,923,942,962,982,1002,1022,1042,1062,1082,1101,1122,1142,1162,1182,1203,1222,1241,1262,1282,1301,1323,1342,1362,1382,1402],"xSR":741.5,"ySR":469.95,"xT1":424.9,"yT1":0,"xT2":1058.1,"yT2":0,"toosoon":0,"cond_shown":"randomdotsizeEA","ratio_trial":250,"smaller_num":"4","larger_num":"16","correct_side":1,"subjID":"Aleixer Camacho Bernal 1","gender":"0","age":"11","school":"6"},{"start_time":1551801715516,"click_time":1551801716853,"finger_time":1551801716392,"fix_duration":1200.6256354519173,"trial":31,"RT":876,"MT":461,"sideResp":2,"stimulus":"img/500/randomdotsizeEA/L/7_Ratio_500_L_10_R_5.png","xmouse":[761,761,761,761,761,761,761,761,761,761,761,761,762,762,762,762,762,762,763,763,763,763,763,763,763,763,763,763,763,763,763,763,763,763,763,763,763,764,766,769,775,785,804,828,838,855,873,890,911,921,931,947,964,1001,1011,1017,1022,1029,1045,1052,1061,1070,1078,1096,1101,1105,1109],"ymouse":[529,529,529,528,528,528,528,528,528,528,528,528,527,527,527,527,527,527,526,526,526,526,526,526,526,526,526,526,526,526,526,526,526,526,526,525,525,523,521,516,508,496,473,441,424,404,383,364,332,317,303,286,272,239,229,221,214,206,187,179,168,159,149,126,116,108,99],"timestamp_mouse":[17,36,57,76,97,117,137,158,177,196,217,237,257,277,298,318,337,356,377,397,416,438,456,476,498,517,536,557,576,597,617,636,657,677,698,718,737,757,777,798,817,837,857,876,898,917,938,956,978,997,1017,1037,1057,1076,1097,1117,1138,1157,1177,1198,1216,1238,1257,1277,1296,1317,1337],"xSR":741.5,"ySR":469.95,"xT1":424.9,"yT1":0,"xT2":1058.1,"yT2":0,"toosoon":0,"cond_shown":"randomdotsizeEA","ratio_trial":500,"smaller_num":"5","larger_num":"10","correct_side":1,"subjID":"Aleixer Camacho Bernal 1","gender":"0","age":"11","school":"6"},{"start_time":1551801718300,"click_time":1551801719654,"finger_time":1551801718793,"fix_duration":525.5600394354793,"trial":32,"RT":493,"MT":861,"sideResp":2,"stimulus":"img/750/randomdotsizeEA/L/9_Ratio_750_L_4_R_3.png","xmouse":[762,762,762,762,762,762,762,762,762,762,762,762,762,762,762,762,762,762,762,762,762,762,760,757,745,739,733,731,728,726,725,724,723,722,719,717,715,712,711,709,709,709,709,709,713,716,718,720,720,721,721,721,721,721,744,775,831,880,929,1002,1034,1051,1064,1076,1099,1107,1115,1125],"ymouse":[524,524,524,524,524,524,524,524,524,524,524,524,524,524,524,524,524,523,522,518,516,512,506,495,458,444,434,427,422,417,416,414,411,410,406,403,400,397,394,390,390,390,390,390,385,382,381,380,379,377,376,376,375,374,360,347,324,302,278,233,208,189,174,157,125,114,106,95],"timestamp_mouse":[14,35,54,72,94,113,132,154,173,193,214,232,254,274,293,313,334,353,373,393,412,434,453,473,493,513,532,553,574,593,613,633,654,673,693,713,733,753,773,793,812,832,853,874,893,914,934,953,973,992,1013,1033,1053,1074,1093,1113,1133,1154,1173,1192,1214,1233,1254,1272,1292,1312,1332,1354],"xSR":741.5,"ySR":469.95,"xT1":424.9,"yT1":0,"xT2":1058.1,"yT2":0,"toosoon":0,"cond_shown":"randomdotsizeEA","ratio_trial":750,"smaller_num":"3","larger_num":"4","correct_side":1,"subjID":"Aleixer Camacho Bernal 1","gender":"0","age":"11","school":"6"},{"start_time":1551801720932,"click_time":1551801721993,"finger_time":1551801721533,"fix_duration":397.16860738635097,"trial":33,"RT":601,"MT":460,"sideResp":1,"stimulus":"img/500/equaldotanddens/L/5_Ratio_500_L_4_R_2.png","xmouse":[778,778,778,778,778,778,778,778,778,778,778,778,778,778,778,778,778,778,778,778,778,778,778,778,778,778,778,778,765,748,715,665,619,532,512,495,479,469,454,445,434,427,422,421,421,421,421,423,427,431,437,444,450,476],"ymouse":[557,557,557,557,557,556,556,556,556,556,556,556,556,556,556,555,555,555,555,555,555,555,555,555,555,554,553,548,517,489,453,404,360,268,244,222,205,193,176,169,164,162,160,157,154,151,149,147,140,134,126,118,112,90],"timestamp_mouse":[9,21,42,61,81,100,120,140,161,182,201,222,241,261,280,301,320,342,361,381,401,422,440,460,481,501,522,541,561,581,600,622,641,660,681,702,721,742,761,781,801,820,841,861,880,900,922,942,961,980,1001,1021,1041,1061],"xSR":741.5,"ySR":469.95,"xT1":424.9,"yT1":0,"xT2":1058.1,"yT2":0,"toosoon":0,"cond_shown":"equaldotanddens","ratio_trial":500,"smaller_num":"2","larger_num":"4","correct_side":1,"subjID":"Aleixer Camacho Bernal 1","gender":"0","age":"11","school":"6"},{"start_time":1551801723724,"click_time":1551801725792,"finger_time":1551801724493,"fix_duration":849.5497479087898,"trial":34,"RT":769,"MT":1299,"sideResp":2,"stimulus":"img/750/equaldotanddens/L/8_Ratio_750_L_4_R_3.png","xmouse":[765,765,765,765,765,765,765,765,765,765,765,765,765,765,765,765,765,765,765,765,765,765,765,765,765,765,765,765,765,765,765,765,765,765,765,766,766,765,731,696,648,590,543,488,475,465,458,452,443,442,441,441,441,441,441,441,442,445,508,582,673,780,886,1048,1058,1059,1059,1057,1050,1044,1034,1021,1009,991,983,977,971,969,968,968,966,964,962,952,947,946,946,946,946,949,959,987,1036,1101,1108,1109,1110,1111,1111,1111,1111,1110,1109,1104],"ymouse":[500,500,500,500,500,500,500,500,500,500,500,500,500,500,500,500,500,500,500,500,500,500,500,500,500,500,500,500,500,500,500,500,500,500,500,498,495,485,436,400,358,316,281,218,197,181,165,150,131,126,124,124,124,124,124,124,124,127,173,216,265,306,326,332,327,325,320,313,300,291,281,271,263,245,235,227,219,215,211,208,205,201,198,191,189,189,189,189,188,184,179,170,156,135,132,130,129,128,123,120,116,111,105,86],"timestamp_mouse":[9,29,60,69,89,110,128,149,169,189,208,229,248,270,290,310,329,350,369,390,408,430,449,470,489,509,528,550,569,589,610,630,650,669,688,709,729,749,769,789,808,829,849,869,890,909,929,949,970,989,1009,1029,1049,1069,1089,1109,1129,1150,1169,1190,1209,1229,1249,1269,1289,1309,1328,1349,1369,1389,1408,1429,1450,1469,1489,1508,1530,1549,1569,1589,1608,1629,1648,1669,1689,1709,1728,1748,1769,1789,1809,1829,1850,1868,1889,1908,1929,1949,1969,1989,2008,2028,2050,2068],"xSR":741.5,"ySR":469.95,"xT1":424.9,"yT1":0,"xT2":1058.1,"yT2":0,"toosoon":0,"cond_shown":"equaldotanddens","ratio_trial":750,"smaller_num":"3","larger_num":"4","correct_side":1,"subjID":"Aleixer Camacho Bernal 1","gender":"0","age":"11","school":"6"},{"start_time":1551801727621,"click_time":1551801728754,"finger_time":1551801728234,"fix_duration":1027.7294192883699,"trial":35,"RT":613,"MT":520,"sideResp":2,"stimulus":"img/500/equaldotanddens/R/15_Ratio_500_L_1_R_2.png","xmouse":[814,814,814,814,814,814,814,814,814,814,814,814,814,814,814,814,814,814,814,814,814,814,814,814,814,814,814,814,818,829,847,877,921,982,1004,1027,1045,1053,1067,1072,1076,1080,1082,1087,1088,1089,1090,1091,1092,1092,1092,1092,1092,1093,1093,1094,1095],"ymouse":[538,538,538,538,538,538,538,538,538,538,538,538,538,538,538,538,538,538,538,538,538,538,538,538,538,538,538,538,535,526,512,493,470,420,393,362,335,315,281,265,250,236,225,207,201,193,189,182,165,160,153,146,139,123,114,104,95],"timestamp_mouse":[11,32,52,73,91,113,133,152,171,192,212,232,251,272,293,312,332,353,372,391,412,431,451,473,493,513,533,553,572,594,613,634,652,672,693,713,732,753,772,792,812,833,854,873,892,913,933,954,973,992,1012,1032,1054,1073,1093,1113,1133],"xSR":741.5,"ySR":469.95,"xT1":424.9,"yT1":0,"xT2":1058.1,"yT2":0,"toosoon":0,"cond_shown":"equaldotanddens","ratio_trial":500,"smaller_num":"1","larger_num":"2","correct_side":2,"subjID":"Aleixer Camacho Bernal 1","gender":"0","age":"11","school":"6"},{"start_time":1551801730052,"click_time":1551801731593,"finger_time":1551801730933,"fix_duration":557.1449477357303,"trial":36,"RT":881,"MT":660,"sideResp":2,"stimulus":"img/900/randomdotsizeEA/R/9_Ratio_900_L_18_R_20.png","xmouse":[794,794,794,794,794,794,794,794,794,794,794,794,794,794,794,794,794,794,794,794,794,794,794,794,794,794,794,794,794,794,794,794,794,794,794,794,794,794,794,794,796,797,820,833,850,871,895,934,947,961,975,987,998,1002,1004,1005,1008,1014,1015,1019,1022,1028,1034,1037,1045,1053,1060,1069,1070,1071,1072,1072,1073,1075,1076,1076,1078,1080],"ymouse":[535,535,535,535,535,535,535,535,535,535,535,535,535,535,535,535,535,535,535,535,535,535,535,535,535,535,535,535,535,535,535,535,535,535,535,535,535,535,535,535,534,531,505,487,466,442,417,368,349,333,317,302,283,277,272,268,262,245,238,227,220,210,198,190,181,171,164,152,149,147,144,142,135,131,127,122,113,97],"timestamp_mouse":[8,22,41,61,82,101,121,142,161,182,203,222,242,262,281,303,322,341,361,382,402,421,441,462,481,502,523,541,563,582,601,621,642,662,682,701,721,741,761,781,802,823,841,862,881,902,922,942,961,981,1001,1023,1042,1061,1082,1101,1122,1141,1162,1182,1201,1222,1242,1261,1282,1301,1322,1343,1362,1383,1402,1422,1441,1461,1482,1501,1521,1541],"xSR":741.5,"ySR":469.95,"xT1":424.9,"yT1":0,"xT2":1058.1,"yT2":0,"toosoon":0,"cond_shown":"randomdotsizeEA","ratio_trial":900,"smaller_num":"18","larger_num":"20","correct_side":2,"subjID":"Aleixer Camacho Bernal 1","gender":"0","age":"11","school":"6"},{"start_time":1551801732846,"click_time":1551801734894,"finger_time":1551801733634,"fix_duration":250,"trial":37,"RT":788,"MT":1260,"sideResp":1,"stimulus":"img/750/equaldotsize/R/15_Ratio_750_L_9_R_12.png","xmouse":[810,810,810,810,810,810,810,810,810,810,810,810,810,810,810,810,810,810,810,810,810,810,810,810,810,810,810,810,810,810,810,810,810,810,810,810,812,821,840,861,891,918,965,980,989,997,1004,1013,1015,1017,1018,1020,1023,1023,1024,1025,1027,1034,1041,1047,1051,1054,1056,1057,1057,1057,1057,1053,1039,1005,895,720,385,323,312,312,312,310,305,294,285,282,282,282,282,282,282,285,290,298,310,327,362,378,393,402,404,404,405,406,407,410,462],"ymouse":[536,536,536,536,536,536,536,536,536,536,536,536,536,536,536,536,536,536,536,536,536,536,536,536,536,536,536,536,536,536,536,536,536,536,536,534,530,515,489,461,424,386,313,287,266,250,237,221,217,213,207,202,196,193,191,188,187,176,170,166,162,158,154,153,153,153,153,151,149,144,134,112,67,50,46,46,46,45,44,44,44,44,44,44,44,44,44,45,46,49,50,55,64,69,71,73,73,73,74,74,75,76,84],"timestamp_mouse":[8,28,47,68,87,107,128,148,168,187,208,227,248,268,287,307,328,349,367,387,407,428,448,468,488,507,528,548,567,588,609,627,648,668,687,709,728,747,767,788,809,829,847,868,888,908,928,947,968,988,1008,1029,1049,1067,1087,1109,1129,1147,1168,1188,1208,1227,1248,1269,1288,1307,1328,1347,1368,1387,1407,1428,1447,1468,1487,1507,1528,1548,1568,1588,1609,1628,1647,1668,1688,1708,1727,1747,1767,1787,1808,1829,1847,1869,1888,1907,1928,1947,1968,1988,2008,2027,2048],"xSR":741.5,"ySR":469.95,"xT1":424.9,"yT1":0,"xT2":1058.1,"yT2":0,"toosoon":0,"cond_shown":"equaldotsize","ratio_trial":750,"smaller_num":"9","larger_num":"12","correct_side":2,"subjID":"Aleixer Camacho Bernal 1","gender":"0","age":"11","school":"6"},{"start_time":1551801737300,"click_time":1551801738693,"finger_time":1551801738135,"fix_duration":825.7591640737975,"trial":38,"RT":835,"MT":558,"sideResp":2,"stimulus":"img/250/randomdotsizeEA/R/8_Ratio_250_L_1_R_4.png","xmouse":[798,798,798,798,798,798,798,798,798,798,798,798,798,798,798,798,798,798,798,798,798,798,798,798,798,798,798,798,798,798,798,798,798,798,798,798,798,800,801,815,826,841,861,896,951,972,982,990,995,999,1000,1000,1000,1000,1000,1001,1001,1002,1005,1013,1026,1035,1039,1040,1041,1041,1042,1046,1055,1059],"ymouse":[519,519,519,519,519,519,519,519,519,519,519,519,519,519,519,519,519,519,519,519,519,519,519,519,519,519,519,519,519,519,519,519,519,519,519,519,519,517,515,497,484,468,444,401,324,296,277,262,245,219,207,196,184,171,155,149,146,143,138,128,120,115,112,111,108,107,106,103,99,97],"timestamp_mouse":[14,36,53,74,95,115,133,154,173,193,213,234,253,274,293,314,333,355,375,395,415,433,454,474,493,514,533,554,573,594,613,634,653,673,693,713,733,754,773,794,815,835,853,875,893,915,935,954,975,995,1015,1035,1055,1075,1095,1115,1134,1154,1174,1193,1213,1234,1253,1274,1293,1314,1333,1354,1373,1393],"xSR":741.5,"ySR":469.95,"xT1":424.9,"yT1":0,"xT2":1058.1,"yT2":0,"toosoon":0,"cond_shown":"randomdotsizeEA","ratio_trial":250,"smaller_num":"1","larger_num":"4","correct_side":2,"subjID":"Aleixer Camacho Bernal 1","gender":"0","age":"11","school":"6"},{"start_time":1551801740207,"click_time":1551801741374,"finger_time":1551801741053,"fix_duration":370.1091848029501,"trial":39,"RT":846,"MT":321,"sideResp":1,"stimulus":"img/250/randomdotsizeEA/L/15_Ratio_250_L_12_R_3.png","xmouse":[807,807,807,807,807,807,807,807,807,807,807,807,807,807,807,807,807,807,807,807,807,807,807,807,807,807,807,807,807,807,807,807,807,807,807,807,807,807,807,805,799,787,771,741,672,643,621,603,587,562,558,555,553,550,540,532,527,521,512],"ymouse":[525,525,525,525,525,525,525,525,525,525,525,525,525,525,525,525,525,525,525,525,525,525,525,525,525,525,525,525,525,525,525,525,525,525,525,525,525,525,524,512,498,479,457,419,321,273,233,197,170,134,131,129,127,124,117,112,108,104,99],"timestamp_mouse":[9,29,47,68,88,106,128,147,166,187,206,227,246,267,286,306,327,347,367,386,407,426,446,466,487,506,528,546,567,586,607,626,648,667,686,706,728,747,767,786,806,827,846,866,886,907,927,947,966,986,1007,1028,1046,1068,1087,1106,1126,1147,1167],"xSR":741.5,"ySR":469.95,"xT1":424.9,"yT1":0,"xT2":1058.1,"yT2":0,"toosoon":0,"cond_shown":"randomdotsizeEA","ratio_trial":250,"smaller_num":"3","larger_num":"12","correct_side":1,"subjID":"Aleixer Camacho Bernal 1","gender":"0","age":"11","school":"6"},{"start_time":1551801743266,"click_time":1551801744693,"finger_time":1551801743934,"fix_duration":949.0655192021901,"trial":40,"RT":668,"MT":759,"sideResp":1,"stimulus":"img/250/randomdotsizeEA/L/7_Ratio_250_L_8_R_2.png","xmouse":[790,790,790,791,791,791,791,791,791,791,791,791,791,791,793,793,793,794,794,795,795,795,795,795,795,796,796,796,796,796,796,794,790,781,767,748,679,651,617,583,560,541,537,534,532,529,525,524,524,524,522,514,507,501,496,489,488,488,488,488,488,488,488,488,488,488,488,487,487,486,485,483],"ymouse":[496,496,497,497,497,497,497,497,497,497,497,497,497,497,495,495,494,493,493,492,491,491,491,491,491,490,490,490,490,490,489,485,480,465,445,418,328,291,251,209,182,155,148,143,139,135,131,130,130,129,128,121,117,113,110,107,107,107,107,107,107,107,107,107,107,107,107,106,106,104,101,96],"timestamp_mouse":[9,36,47,68,87,108,127,149,167,188,209,229,247,268,288,307,328,348,367,388,407,427,447,467,488,508,527,547,569,588,608,628,647,668,689,708,727,747,767,789,809,828,848,867,888,908,927,948,969,988,1007,1027,1047,1068,1087,1109,1127,1147,1167,1188,1209,1228,1249,1269,1287,1308,1327,1348,1369,1387,1408,1427],"xSR":741.5,"ySR":469.95,"xT1":424.9,"yT1":0,"xT2":1058.1,"yT2":0,"toosoon":0,"cond_shown":"randomdotsizeEA","ratio_trial":250,"smaller_num":"2","larger_num":"8","correct_side":1,"subjID":"Aleixer Camacho Bernal 1","gender":"0","age":"11","school":"6"},{"start_time":1551801746545,"click_time":1551801747434,"finger_time":1551801747254,"fix_duration":250,"trial":41,"RT":709,"MT":180,"sideResp":1,"stimulus":"img/500/equaldotanddens/L/5_Ratio_500_L_4_R_2.png","xmouse":[796,796,796,796,796,796,796,796,796,796,796,796,796,796,796,796,796,796,796,796,796,796,796,796,796,796,796,796,796,796,796,796,796,795,789,778,761,687,636,583,541,510,474,471,467],"ymouse":[485,485,485,485,485,485,485,485,485,485,485,485,485,485,485,485,485,485,485,485,485,485,485,485,485,485,485,485,485,485,485,485,485,485,477,464,443,360,298,241,192,157,112,104,95],"timestamp_mouse":[9,29,49,69,88,109,129,148,168,189,208,229,249,268,288,308,330,349,368,390,408,428,448,470,488,509,529,549,568,589,608,629,648,668,688,709,729,748,768,789,809,830,848,870,889],"xSR":741.5,"ySR":469.95,"xT1":424.9,"yT1":0,"xT2":1058.1,"yT2":0,"toosoon":0,"cond_shown":"equaldotanddens","ratio_trial":500,"smaller_num":"2","larger_num":"4","correct_side":1,"subjID":"Aleixer Camacho Bernal 1","gender":"0","age":"11","school":"6"},{"start_time":1551801749368,"click_time":1551801750794,"finger_time":1551801750153,"fix_duration":493.65823483333116,"trial":42,"RT":785,"MT":641,"sideResp":2,"stimulus":"img/750/equaldotanddens/R/7_Ratio_750_L_3_R_4.png","xmouse":[773,773,773,773,773,773,773,773,773,773,773,773,773,773,773,773,773,773,773,773,773,773,773,773,773,773,773,773,773,773,773,773,773,773,773,773,773,775,783,792,803,831,851,881,918,944,967,972,976,978,979,985,994,1008,1021,1029,1031,1032,1032,1033,1035,1042,1042,1042,1043,1044,1047,1052,1055,1057,1058,1059],"ymouse":[498,498,498,498,498,498,498,498,498,498,498,498,498,498,498,498,498,498,498,498,498,498,498,498,498,498,498,498,498,498,498,498,498,498,498,498,498,490,472,451,426,365,330,290,252,220,172,148,128,112,100,90,88,86,84,79,78,77,76,76,75,72,71,71,71,71,70,69,67,66,65,64],"timestamp_mouse":[8,34,46,66,87,105,125,147,165,187,205,226,245,266,286,305,326,346,365,386,405,426,446,467,485,507,525,546,567,586,607,625,647,665,685,706,727,745,766,785,807,825,846,865,885,906,926,945,967,986,1006,1025,1045,1066,1087,1106,1126,1146,1165,1185,1206,1226,1247,1265,1285,1307,1325,1346,1365,1385,1406,1426],"xSR":741.5,"ySR":469.95,"xT1":424.9,"yT1":0,"xT2":1058.1,"yT2":0,"toosoon":0,"cond_shown":"equaldotanddens","ratio_trial":750,"smaller_num":"3","larger_num":"4","correct_side":2,"subjID":"Aleixer Camacho Bernal 1","gender":"0","age":"11","school":"6"},{"start_time":1551801752170,"click_time":1551801753014,"finger_time":1551801752655,"fix_duration":574.6164670505394,"trial":43,"RT":485,"MT":359,"sideResp":1,"stimulus":"img/250/equaldotanddens/L/15_Ratio_250_L_12_R_3.png","xmouse":[789,789,789,789,789,789,789,789,789,789,789,789,789,789,789,789,789,789,790,790,788,782,772,753,731,697,660,581,548,527,513,496,493,491,488,487,484,484,483,482,482,480,480],"ymouse":[521,521,521,521,521,521,521,521,521,521,521,521,521,521,521,521,521,521,520,518,512,503,494,478,459,432,400,329,294,263,238,193,178,164,151,142,126,121,116,112,110,103,98],"timestamp_mouse":[11,29,43,64,83,104,123,144,164,183,204,224,243,263,284,303,324,343,364,383,404,423,444,465,485,504,523,544,563,584,603,623,643,663,685,703,724,744,764,783,804,823,844],"xSR":741.5,"ySR":469.95,"xT1":424.9,"yT1":0,"xT2":1058.1,"yT2":0,"toosoon":0,"cond_shown":"equaldotanddens","ratio_trial":250,"smaller_num":"3","larger_num":"12","correct_side":1,"subjID":"Aleixer Camacho Bernal 1","gender":"0","age":"11","school":"6"},{"start_time":1551801754966,"click_time":1551801756095,"finger_time":1551801755594,"fix_duration":1249.7391498859554,"trial":44,"RT":628,"MT":501,"sideResp":2,"stimulus":"img/250/equaldotsize/R/11_Ratio_250_L_3_R_12.png","xmouse":[776,777,777,777,777,777,777,777,777,777,777,777,777,777,777,777,777,777,777,777,778,778,778,778,778,779,782,783,787,796,812,873,901,928,947,966,984,988,991,993,996,1004,1004,1005,1006,1008,1011,1014,1017,1019,1020,1020,1021,1021,1022,1023,1064],"ymouse":[549,549,549,549,549,549,549,549,549,549,549,549,549,549,549,549,549,549,549,549,548,548,548,548,548,547,543,541,536,525,510,458,423,385,350,314,265,246,229,214,198,158,146,131,119,110,98,95,92,90,90,90,90,90,90,90,89],"timestamp_mouse":[7,37,49,67,88,108,128,147,169,187,207,228,248,268,288,308,329,348,368,387,407,429,448,468,489,508,527,548,568,589,608,628,647,668,688,707,727,747,768,788,807,827,848,867,888,907,927,948,967,988,1007,1028,1047,1067,1088,1107,1128],"xSR":741.5,"ySR":469.95,"xT1":424.9,"yT1":0,"xT2":1058.1,"yT2":0,"toosoon":0,"cond_shown":"equaldotsize","ratio_trial":250,"smaller_num":"3","larger_num":"12","correct_side":2,"subjID":"Aleixer Camacho Bernal 1","gender":"0","age":"11","school":"6"},{"start_time":1551801758466,"click_time":1551801759294,"finger_time":1551801758974,"fix_duration":1270.0417821256688,"trial":45,"RT":508,"MT":320,"sideResp":1,"stimulus":"img/500/equaldotanddens/L/8_Ratio_500_L_8_R_4.png","xmouse":[811,812,812,812,813,813,813,814,814,814,814,814,814,814,814,814,814,814,814,814,814,815,815,815,813,808,765,737,706,677,643,592,576,563,557,555,548,546,543,540,539,523],"ymouse":[489,489,489,489,488,488,487,487,487,487,487,487,487,487,487,487,487,487,487,487,487,486,483,481,475,463,403,364,313,267,218,137,116,100,93,89,81,79,78,77,75,70],"timestamp_mouse":[9,33,48,68,88,108,127,148,167,187,208,227,247,267,287,308,327,347,368,388,407,427,448,469,488,508,527,547,567,588,607,628,648,667,688,709,727,748,767,788,809,827],"xSR":741.5,"ySR":469.95,"xT1":424.9,"yT1":0,"xT2":1058.1,"yT2":0,"toosoon":0,"cond_shown":"equaldotanddens","ratio_trial":500,"smaller_num":"4","larger_num":"8","correct_side":1,"subjID":"Aleixer Camacho Bernal 1","gender":"0","age":"11","school":"6"},{"start_time":1551801761428,"click_time":1551801762634,"finger_time":1551801761793,"fix_duration":1192.6071834773961,"trial":46,"RT":365,"MT":841,"sideResp":1,"stimulus":"img/900/equaldotanddens/L/8_Ratio_900_L_20_R_18.png","xmouse":[785,785,785,786,786,786,786,786,786,787,787,787,788,789,790,792,792,793,797,798,800,800,800,800,800,800,800,800,800,800,800,800,800,800,800,800,800,799,790,784,777,767,755,711,689,672,655,642,624,619,611,603,596,578,569,558,544,528,497,487,478],"ymouse":[479,479,479,479,479,479,479,479,479,479,479,479,478,478,476,474,473,470,451,444,436,433,431,430,428,426,424,423,422,422,422,422,422,421,421,420,418,411,394,382,368,347,323,256,228,207,191,179,159,154,150,145,143,136,133,129,124,117,105,101,97],"timestamp_mouse":[5,34,45,66,87,106,127,146,166,186,205,226,246,265,285,306,326,346,365,387,406,426,446,466,485,505,526,546,566,585,605,625,646,665,686,706,725,746,766,787,807,827,846,865,886,906,925,946,965,986,1005,1025,1046,1065,1087,1106,1125,1146,1165,1186,1206],"xSR":741.5,"ySR":469.95,"xT1":424.9,"yT1":0,"xT2":1058.1,"yT2":0,"toosoon":0,"cond_shown":"equaldotanddens","ratio_trial":900,"smaller_num":"18","larger_num":"20","correct_side":1,"subjID":"Aleixer Camacho Bernal 1","gender":"0","age":"11","school":"6"},{"start_time":1551801763885,"click_time":1551801765074,"finger_time":1551801764594,"fix_duration":390.9706449657375,"trial":47,"RT":709,"MT":480,"sideResp":1,"stimulus":"img/500/equaldotsize/L/5_Ratio_500_L_4_R_2.png","xmouse":[803,803,803,803,803,803,803,803,803,803,803,803,803,803,803,803,803,803,803,803,803,803,803,803,803,804,804,804,804,804,804,804,804,804,804,795,783,765,737,704,651,634,616,604,591,569,565,563,560,558,555,552,548,543,539,524,520,516,512,505],"ymouse":[489,489,489,489,489,489,489,489,489,489,489,489,489,489,489,489,489,489,489,489,489,489,489,489,489,490,490,490,490,490,488,486,485,481,475,446,421,391,357,319,263,246,230,220,211,191,187,184,178,176,168,163,157,150,143,121,114,108,101,91],"timestamp_mouse":[10,34,49,69,88,110,130,148,170,188,208,228,248,268,288,309,328,350,369,389,408,429,450,468,488,508,529,548,569,588,608,629,648,668,689,709,730,748,769,789,809,828,849,869,889,908,930,949,968,988,1009,1030,1048,1068,1089,1108,1128,1148,1168,1189],"xSR":741.5,"ySR":469.95,"xT1":424.9,"yT1":0,"xT2":1058.1,"yT2":0,"toosoon":0,"cond_shown":"equaldotsize","ratio_trial":500,"smaller_num":"2","larger_num":"4","correct_side":1,"subjID":"Aleixer Camacho Bernal 1","gender":"0","age":"11","school":"6"},{"start_time":1551801767480,"click_time":1551801768733,"finger_time":1551801768073,"fix_duration":1483.45693115732,"trial":48,"RT":593,"MT":660,"sideResp":1,"stimulus":"img/250/equaldotsize/L/1_Ratio_250_L_8_R_2.png","xmouse":[760,760,760,760,760,760,760,760,760,760,760,760,760,760,760,760,760,760,760,760,760,760,760,760,760,760,760,761,761,759,744,733,722,710,697,663,654,641,626,613,592,586,581,579,573,560,553,548,545,543,540,538,536,533,529,527,526,525,524,522,514,508,496],"ymouse":[486,486,486,486,486,486,486,486,486,486,486,486,486,486,486,486,486,486,486,486,486,486,486,486,486,486,486,484,479,468,435,413,391,368,346,291,269,246,227,211,186,179,173,170,162,146,139,134,130,127,123,121,120,117,115,113,112,111,110,109,104,100,96],"timestamp_mouse":[15,34,53,74,93,114,133,155,173,194,214,233,254,273,293,315,334,353,373,393,414,433,454,474,493,514,534,554,574,593,613,634,654,675,694,713,734,753,774,794,813,834,853,874,894,913,933,953,974,995,1013,1034,1053,1074,1094,1113,1133,1153,1174,1193,1214,1233,1253],"xSR":741.5,"ySR":469.95,"xT1":424.9,"yT1":0,"xT2":1058.1,"yT2":0,"toosoon":0,"cond_shown":"equaldotsize","ratio_trial":250,"smaller_num":"2","larger_num":"8","correct_side":1,"subjID":"Aleixer Camacho Bernal 1","gender":"0","age":"11","school":"6"},{"start_time":1551801773393,"click_time":1551801774894,"finger_time":1551801774174,"fix_duration":1238.4561091538176,"trial":49,"RT":781,"MT":720,"sideResp":1,"stimulus":"img/750/equaldotanddens/L/6_Ratio_750_L_24_R_18.png","xmouse":[754,754,754,755,757,764,765,765,765,765,765,765,765,765,765,765,765,765,765,765,767,770,772,772,774,774,775,776,777,777,777,777,777,777,777,778,776,769,757,733,630,582,560,544,536,526,520,518,513,510,501,499,497,496,496,496,496,496,495,494,491,490,489,488,488,488,488,488,488,488,488,488,488,488,488,488],"ymouse":[549,549,549,549,548,544,544,544,544,544,544,544,544,543,543,543,543,543,543,543,540,533,524,520,516,514,512,511,511,510,510,510,510,510,510,508,503,498,489,470,412,394,385,377,371,355,343,333,323,314,271,254,237,225,216,200,196,192,188,185,174,170,165,161,157,152,147,143,138,129,116,111,106,103,100,97],"timestamp_mouse":[9,21,40,61,80,101,120,142,161,180,201,220,242,260,282,301,320,340,360,381,401,420,441,460,482,500,522,540,560,580,601,621,641,662,681,701,720,740,760,781,800,821,840,860,881,901,920,941,961,980,1001,1020,1040,1062,1081,1101,1121,1141,1160,1181,1201,1221,1241,1260,1282,1300,1321,1340,1361,1381,1400,1421,1441,1462,1482,1501],"xSR":741.5,"ySR":469.95,"xT1":424.9,"yT1":0,"xT2":1058.1,"yT2":0,"toosoon":0,"cond_shown":"equaldotanddens","ratio_trial":750,"smaller_num":"18","larger_num":"24","correct_side":1,"subjID":"Aleixer Camacho Bernal 1","gender":"0","age":"11","school":"6"},{"start_time":1551801776283,"click_time":1551801779453,"finger_time":1551801776874,"fix_duration":666.1158802155697,"trial":50,"RT":591,"MT":2579,"sideResp":2,"stimulus":"img/900/randomdotsizeEA/L/8_Ratio_900_L_20_R_18.png","xmouse":[750,750,750,750,750,750,750,750,750,750,750,750,750,750,750,750,750,750,750,750,750,750,750,750,750,750,753,763,774,785,802,807,809,809,809,809,809,809,809,809,809,809,809,809,810,833,854,871,888,902,914,918,928,935,939,944,946,957,965,967,971,972,974,975,976,977,982,1001,1093,1209,1432,1506,1518,1519,1519,1519,1519,1517,1511,1502,1481,1475,1468,1462,1452,1427,1413,1399,1387,1373,1238,1118,964,797,644,423,414,453,495,495,495,495,495,495,495,495,495,495,495,495,495,495,495,495,443,662,748,839,931,998,1075,1094,1107,1119,1141,1220,1251,1273,1283,1285,1284,1280,1275,1259,1212,1079,1058,1050,1049,1049,1047,1046,1045,1044,1044,1043,1043,1043,1043,1043,1043,1043,1046,1053,1060,1085,1096,1102,1103],"ymouse":[524,524,524,524,524,524,524,524,524,524,524,524,524,523,523,523,523,522,521,520,516,514,513,513,513,511,506,495,478,458,421,411,404,399,394,391,391,391,391,391,391,391,391,390,389,368,356,345,334,324,311,304,291,283,280,269,266,255,249,247,243,241,239,238,238,237,246,269,328,402,520,543,544,544,540,528,523,513,500,482,445,439,436,433,429,424,422,420,419,417,399,393,393,393,405,512,575,666,721,721,721,721,721,721,721,721,721,721,721,721,721,721,721,721,678,513,454,401,362,336,312,309,308,308,307,293,283,274,268,260,244,236,228,222,217,206,203,201,200,200,196,194,192,191,187,179,174,168,162,158,148,144,138,132,127,111,104,100,98],"timestamp_mouse":[20,34,52,70,90,110,130,151,170,191,211,230,250,271,291,310,331,350,371,390,410,431,450,470,491,511,530,550,571,591,611,631,650,672,691,710,730,750,771,791,811,830,850,871,890,910,930,951,971,990,1011,1030,1050,1070,1092,1110,1130,1150,1172,1192,1210,1230,1251,1270,1290,1311,1331,1351,1371,1390,1410,1430,1450,1470,1491,1510,1531,1551,1571,1592,1610,1631,1650,1671,1691,1710,1731,1751,1771,1790,1811,1830,1851,1871,1892,1910,1931,1950,1970,1990,2010,2031,2052,2071,2090,2110,2130,2150,2172,2191,2211,2231,2251,2271,2291,2310,2331,2350,2371,2391,2411,2432,2450,2470,2491,2510,2531,2551,2572,2592,2610,2631,2650,2671,2691,2710,2732,2751,2771,2792,2811,2831,2850,2871,2891,2911,2931,2950,2971,2991,3011,3030,3050,3071,3090,3111,3130,3151,3170],"xSR":741.5,"ySR":469.95,"xT1":424.9,"yT1":0,"xT2":1058.1,"yT2":0,"toosoon":0,"cond_shown":"randomdotsizeEA","ratio_trial":900,"smaller_num":"18","larger_num":"20","correct_side":1,"subjID":"Aleixer Camacho Bernal 1","gender":"0","age":"11","school":"6"},{"start_time":1551801780619,"click_time":1551801781594,"finger_time":1551801781393,"fix_duration":263.98025080251887,"trial":51,"RT":774,"MT":201,"sideResp":1,"stimulus":"img/900/equaldotanddens/L/10_Ratio_900_L_20_R_18.png","xmouse":[799,799,799,799,799,799,799,799,800,800,800,800,800,800,800,800,800,800,800,800,800,800,800,800,800,800,800,800,800,800,800,800,800,800,800,797,790,780,735,707,668,630,593,555,546,542,537,534,521],"ymouse":[535,535,535,535,535,535,535,535,535,535,535,535,535,535,535,535,535,535,535,535,535,535,535,535,535,535,534,532,529,525,523,521,519,516,512,505,493,477,398,348,284,224,175,121,107,97,91,84,70],"timestamp_mouse":[15,34,54,74,95,116,134,154,174,194,215,235,255,275,294,315,335,355,375,394,415,434,454,475,495,514,534,555,575,596,615,635,654,675,695,715,735,754,774,796,814,835,855,874,894,914,935,955,974],"xSR":741.5,"ySR":469.95,"xT1":424.9,"yT1":0,"xT2":1058.1,"yT2":0,"toosoon":0,"cond_shown":"equaldotanddens","ratio_trial":900,"smaller_num":"18","larger_num":"20","correct_side":1,"subjID":"Aleixer Camacho Bernal 1","gender":"0","age":"11","school":"6"},{"start_time":1551801783437,"click_time":1551801784594,"finger_time":1551801784094,"fix_duration":820.7033542219997,"trial":52,"RT":657,"MT":500,"sideResp":2,"stimulus":"img/900/equaldotsize/R/7_Ratio_900_L_9_R_10.png","xmouse":[794,794,794,794,794,794,794,794,794,795,795,796,796,796,796,796,796,796,796,796,796,796,796,796,796,796,796,796,797,801,802,812,835,846,856,869,882,937,962,984,1001,1008,1015,1015,1015,1016,1016,1028,1037,1045,1047,1047,1048,1049,1052,1060,1063,1076],"ymouse":[493,493,493,493,493,493,493,493,493,493,493,493,493,493,493,493,493,493,493,493,493,493,493,493,493,493,493,493,492,488,487,475,435,413,394,373,350,276,242,214,189,169,143,138,135,134,133,126,122,119,117,117,116,115,112,107,104,93],"timestamp_mouse":[17,36,58,77,96,117,137,157,176,196,218,237,257,278,297,316,336,356,378,397,416,437,456,476,497,518,537,556,577,597,616,637,657,677,697,717,737,757,777,797,816,837,857,878,897,916,938,956,979,997,1016,1037,1056,1076,1096,1116,1136,1156],"xSR":741.5,"ySR":469.95,"xT1":424.9,"yT1":0,"xT2":1058.1,"yT2":0,"toosoon":0,"cond_shown":"equaldotsize","ratio_trial":900,"smaller_num":"9","larger_num":"10","correct_side":2,"subjID":"Aleixer Camacho Bernal 1","gender":"0","age":"11","school":"6"},{"start_time":1551801785744,"click_time":1551801786575,"finger_time":1551801786373,"fix_duration":250,"trial":53,"RT":629,"MT":202,"sideResp":1,"stimulus":"img/500/equaldotsize/L/11_Ratio_500_L_12_R_6.png","xmouse":[808,808,808,808,808,808,808,808,808,808,808,808,808,808,808,808,808,808,808,808,808,808,808,808,808,808,808,808,808,808,798,785,675,627,592,565,544,523,517,509,499,493],"ymouse":[483,483,483,483,483,483,483,483,483,483,483,483,483,483,483,483,483,483,483,483,483,483,483,483,483,483,483,483,483,483,475,461,355,315,284,260,239,203,178,151,117,94],"timestamp_mouse":[9,29,49,69,89,110,129,150,170,191,211,229,249,271,290,310,329,350,370,391,409,429,450,469,491,509,530,550,570,589,610,629,649,671,689,711,729,749,770,789,811,831],"xSR":741.5,"ySR":469.95,"xT1":424.9,"yT1":0,"xT2":1058.1,"yT2":0,"toosoon":0,"cond_shown":"equaldotsize","ratio_trial":500,"smaller_num":"6","larger_num":"12","correct_side":1,"subjID":"Aleixer Camacho Bernal 1","gender":"0","age":"11","school":"6"},{"start_time":1551801788567,"click_time":1551801790154,"finger_time":1551801789714,"fix_duration":852.907819152225,"trial":54,"RT":1147,"MT":440,"sideResp":2,"stimulus":"img/750/randomdotsizeEA/R/4_Ratio_750_L_15_R_20.png","xmouse":[774,774,774,774,774,774,774,774,774,774,774,774,774,774,774,774,774,774,774,774,774,774,774,774,774,774,774,774,774,774,774,774,774,774,774,774,774,774,774,776,778,780,780,781,781,781,781,781,781,781,781,781,781,783,785,792,834,891,966,1032,1078,1117,1118,1118,1117,1117,1117,1117,1117,1117,1117,1117,1115,1115,1115,1114,1112,1112,1112,1111],"ymouse":[554,554,554,554,554,554,554,554,554,554,554,554,554,554,554,554,554,554,554,554,554,554,554,554,554,554,554,554,554,554,554,554,554,554,554,554,554,554,554,552,551,548,547,546,546,546,546,546,546,546,546,546,545,543,540,531,485,447,402,356,313,246,230,212,199,188,170,163,156,151,146,134,129,124,118,114,107,104,100,98],"timestamp_mouse":[10,35,46,67,86,105,126,147,165,185,206,226,246,265,287,306,326,347,366,385,406,425,447,465,486,505,525,547,565,586,606,626,645,666,687,706,726,746,766,785,806,826,846,865,887,905,925,947,965,987,1006,1025,1045,1066,1086,1106,1126,1147,1165,1185,1207,1227,1246,1267,1285,1305,1325,1345,1366,1385,1406,1426,1447,1466,1486,1506,1527,1547,1566,1587],"xSR":741.5,"ySR":469.95,"xT1":424.9,"yT1":0,"xT2":1058.1,"yT2":0,"toosoon":0,"cond_shown":"randomdotsizeEA","ratio_trial":750,"smaller_num":"15","larger_num":"20","correct_side":2,"subjID":"Aleixer Camacho Bernal 1","gender":"0","age":"11","school":"6"},{"start_time":1551801792067,"click_time":1551801799093,"finger_time":1551801792393,"fix_duration":792.2439368200795,"trial":55,"RT":326,"MT":6700,"sideResp":2,"stimulus":"img/900/randomdotsizeEA/L/4_Ratio_900_L_20_R_18.png","xmouse":[788,788,788,788,788,788,788,788,788,788,788,788,785,784,782,780,778,778,778,778,778,778,778,778,778,778,778,778,778,778,778,778,778,778,778,778,778,778,778,778,778,779,779,780,780,781,783,783,783,784,784,784,784,784,784,784,784,784,784,784,784,784,784,784,784,784,784,784,784,784,784,784,784,784,784,784,784,784,784,784,784,784,784,784,784,784,813,839,865,885,895,912,920,925,927,927,927,927,927,927,927,927,927,927,926,926,921,918,917,913,909,890,879,869,860,850,813,798,785,776,770,756,742,731,722,710,685,670,647,617,579,495,462,444,437,437,436,436,440,474,553,861,1065,1260,1413,1497,1521,1521,1521,1521,1521,1484,1399,1283,1147,981,658,590,569,566,566,565,569,582,598,621,695,723,743,756,768,787,788,789,789,789,773,734,647,528,399,279,277,277,277,277,282,295,309,327,350,432,506,603,706,801,915,923,923,923,925,938,979,1033,1073,1091,1094,1094,1094,1094,1094,1094,1093,1092,1084,1063,894,796,698,617,559,504,500,500,500,500,500,513,534,564,600,652,667,682,702,735,837,878,907,926,930,930,932,934,935,936,990,1006,1010,1011,1012,1014,1015,1017,1022,1025,1028,1028,1029,1029,1032,1034,1035,1036,1037,1037,1039,1039,1039,1039,1040,1041,1042,1044,1051,1090,1322,1408,1459,1480,1480,1480,1480,1480,1480,1480,1480,1480,1480,1480,1480,1480,1480,1480,1480,1480,1480,1480,1480,1480,1480,1480,1480,1480,1480,1480,1480,1480,1480,1480,1480,1480,1480,1480,1480,1480,1480,1480,1480,1480,1480,1480,1480,1480,1480,1480,1480,1480,1480,1480,1480,1480,1480,1480,1480,1480,1480,1480,1480,1480,1480,1480,1480,1480,1480,648,663,692,737,820,941,1156],"ymouse":[484,484,484,484,484,484,484,484,484,484,484,484,481,479,476,471,469,469,469,468,468,468,468,468,468,468,468,468,468,468,468,468,468,468,468,468,468,468,471,475,478,483,484,486,488,490,493,495,495,495,495,495,495,495,495,495,495,495,495,495,495,495,495,495,495,495,495,495,495,495,495,495,495,495,495,495,495,495,495,495,495,495,495,495,495,496,473,452,426,394,368,312,294,285,281,280,280,280,280,280,280,280,280,280,280,280,282,283,284,285,286,289,291,291,291,291,291,291,291,291,291,291,291,291,290,286,278,273,270,266,263,263,263,263,263,263,263,263,263,263,263,267,283,298,307,307,307,307,307,307,307,307,307,307,297,291,281,274,274,274,274,273,271,266,260,256,248,248,246,246,246,246,246,245,245,245,245,245,245,245,245,245,245,245,245,245,245,244,243,243,243,251,262,275,289,302,317,317,317,317,318,321,327,333,336,336,336,336,336,336,336,336,336,336,333,331,327,325,323,323,321,318,318,318,318,318,315,311,309,308,308,308,306,305,303,302,300,300,299,296,296,295,294,294,293,293,283,279,278,278,277,273,272,269,266,263,259,257,255,253,248,243,241,238,238,237,236,236,236,236,236,247,257,268,285,329,525,599,657,704,704,704,704,704,704,704,704,704,704,704,704,704,704,704,704,704,704,704,704,704,704,704,704,704,704,704,704,704,704,704,704,704,704,704,704,704,704,704,704,704,704,704,704,704,704,704,704,704,704,704,704,704,704,704,704,704,704,704,704,704,704,704,704,704,704,705,618,548,458,344,207,15],"timestamp_mouse":[16,35,47,66,87,107,126,145,167,186,205,226,246,266,287,307,326,345,365,387,406,426,446,466,486,506,526,546,565,585,606,626,645,667,686,705,727,746,766,787,807,826,846,865,887,906,926,947,966,986,1006,1026,1046,1066,1086,1106,1127,1146,1165,1187,1207,1227,1247,1265,1286,1305,1326,1345,1366,1387,1405,1427,1447,1465,1485,1507,1525,1545,1566,1586,1606,1625,1645,1665,1687,1706,1726,1746,1765,1786,1807,1826,1847,1865,1886,1907,1926,1946,1966,1986,2007,2026,2045,2066,2085,2106,2126,2146,2166,2186,2206,2226,2246,2267,2285,2306,2325,2345,2366,2386,2407,2426,2446,2466,2485,2506,2526,2547,2566,2586,2607,2626,2645,2665,2685,2706,2726,2746,2767,2786,2806,2826,2846,2866,2886,2906,2925,2945,2965,2986,3006,3026,3046,3066,3086,3105,3125,3147,3165,3186,3207,3227,3245,3266,3286,3306,3325,3345,3365,3386,3407,3425,3445,3465,3486,3506,3526,3546,3566,3586,3605,3627,3646,3666,3685,3707,3726,3746,3766,3786,3807,3827,3846,3865,3885,3907,3926,3947,3965,3985,4006,4026,4047,4066,4087,4105,4126,4146,4165,4186,4206,4227,4246,4265,4286,4307,4325,4346,4365,4387,4406,4427,4447,4465,4486,4506,4525,4546,4566,4586,4607,4625,4646,4666,4687,4706,4726,4745,4766,4786,4806,4826,4845,4865,4886,4907,4925,4946,4966,4986,5006,5025,5046,5065,5087,5107,5125,5146,5165,5186,5206,5226,5246,5266,5286,5307,5326,5347,5366,5385,5406,5426,5447,5466,5486,5506,5526,5546,5566,5587,5607,5626,5645,5667,5687,5706,5727,5746,5766,5786,5807,5827,5847,5867,5886,5905,5926,5945,5967,5987,6007,6026,6046,6066,6085,6105,6126,6146,6166,6186,6206,6226,6247,6266,6287,6307,6326,6346,6366,6386,6406,6425,6446,6465,6486,6507,6526,6545,6567,6586,6606,6625,6645,6665,6686,6706,6727,6746,6766,6785,6806,6826,6846,6866,6887,6906,6926,6945,6966,6987,7006,7026],"xSR":741.5,"ySR":469.95,"xT1":424.9,"yT1":0,"xT2":1058.1,"yT2":0,"toosoon":0,"cond_shown":"randomdotsizeEA","ratio_trial":900,"smaller_num":"18","larger_num":"20","correct_side":1,"subjID":"Aleixer Camacho Bernal 1","gender":"0","age":"11","school":"6"},{"start_time":1551801803806,"click_time":1551801805013,"finger_time":1551801804593,"fix_duration":333.83330960948024,"trial":56,"RT":787,"MT":420,"sideResp":2,"stimulus":"img/500/equaldotsize/R/2_Ratio_500_L_3_R_6.png","xmouse":[791,791,791,791,791,791,791,791,791,791,791,791,791,791,791,791,791,791,791,791,791,791,791,791,791,791,791,791,791,791,791,791,791,791,791,791,791,793,795,835,872,904,928,941,976,994,1017,1043,1062,1078,1079,1079,1079,1079,1080,1081,1083,1087,1092,1126,1156],"ymouse":[479,479,479,479,479,479,479,479,479,479,479,479,479,479,479,479,479,479,479,479,479,479,479,479,479,479,479,479,479,479,479,479,479,479,479,479,479,479,479,440,399,362,333,317,277,262,246,231,216,184,172,163,157,153,151,148,144,139,130,101,87],"timestamp_mouse":[10,32,47,67,88,106,127,148,166,187,208,227,248,267,288,308,328,346,366,387,408,427,447,466,486,507,526,547,568,587,606,626,647,667,687,706,728,746,768,787,807,827,847,866,887,908,927,946,967,988,1007,1027,1046,1066,1087,1107,1126,1147,1166,1186,1207],"xSR":741.5,"ySR":469.95,"xT1":424.9,"yT1":0,"xT2":1058.1,"yT2":0,"toosoon":0,"cond_shown":"equaldotsize","ratio_trial":500,"smaller_num":"3","larger_num":"6","correct_side":2,"subjID":"Aleixer Camacho Bernal 1","gender":"0","age":"11","school":"6"},{"start_time":1551801806396,"click_time":1551801808294,"finger_time":1551801807692,"fix_duration":601.0485021487967,"trial":57,"RT":1296,"MT":602,"sideResp":1,"stimulus":"img/750/randomdotsizeEA/L/14_Ratio_750_L_8_R_6.png","xmouse":[777,777,777,777,777,777,777,777,777,777,777,777,777,777,777,777,777,777,777,777,777,777,777,777,777,777,777,777,777,777,777,777,777,777,777,777,777,777,777,777,777,777,777,777,777,777,777,777,777,777,777,777,777,777,777,777,777,777,777,777,777,777,770,765,695,618,544,478,435,392,390,390,389,389,389,389,389,389,389,390,391,394,397,400,401,401,402,405,408,420,422,423,424,424,425],"ymouse":[518,518,518,518,518,518,518,518,518,518,518,518,518,518,518,518,518,518,518,518,518,518,518,518,518,518,518,518,518,518,518,518,518,518,518,518,518,518,518,518,518,518,518,518,518,518,518,518,518,518,518,518,518,518,518,518,518,518,518,518,518,518,509,503,440,380,327,280,242,172,148,126,107,92,73,69,67,65,65,64,64,62,61,60,60,60,60,60,60,62,62,62,62,62,62],"timestamp_mouse":[17,37,57,77,96,118,137,158,177,196,217,237,256,277,296,317,338,356,378,398,416,436,458,477,496,517,538,558,577,597,616,636,657,677,697,718,737,758,777,798,817,837,856,878,897,916,936,958,977,996,1018,1036,1058,1076,1096,1117,1137,1156,1177,1196,1217,1238,1257,1277,1296,1317,1337,1357,1376,1396,1418,1437,1458,1478,1496,1517,1537,1556,1577,1597,1616,1636,1657,1677,1697,1717,1737,1758,1778,1796,1818,1837,1856,1877,1898],"xSR":741.5,"ySR":469.95,"xT1":424.9,"yT1":0,"xT2":1058.1,"yT2":0,"toosoon":0,"cond_shown":"randomdotsizeEA","ratio_trial":750,"smaller_num":"6","larger_num":"8","correct_side":1,"subjID":"Aleixer Camacho Bernal 1","gender":"0","age":"11","school":"6"},{"start_time":1551801810660,"click_time":1551801811592,"finger_time":1551801811412,"fix_duration":1404.8244406061588,"trial":58,"RT":752,"MT":180,"sideResp":1,"stimulus":"img/750/equaldotanddens/L/1_Ratio_750_L_20_R_15.png","xmouse":[783,783,783,783,783,783,783,783,783,783,783,783,783,783,783,783,785,785,785,785,785,785,785,785,785,785,785,785,785,785,785,785,785,785,785,785,786,786,786,785,778,749,724,694,659,622,524],"ymouse":[482,482,482,482,482,482,482,482,482,482,482,482,482,482,482,482,481,481,481,481,481,481,481,481,481,481,481,481,481,481,481,481,481,481,481,481,475,468,457,440,412,314,262,207,157,110,10],"timestamp_mouse":[21,32,53,73,94,113,132,154,172,194,213,232,253,272,293,313,332,353,373,393,412,433,452,474,493,513,534,554,573,593,612,633,652,674,692,713,733,752,772,793,813,833,854,873,893,913,932],"xSR":741.5,"ySR":469.95,"xT1":424.9,"yT1":0,"xT2":1058.1,"yT2":0,"toosoon":0,"cond_shown":"equaldotanddens","ratio_trial":750,"smaller_num":"15","larger_num":"20","correct_side":1,"subjID":"Aleixer Camacho Bernal 1","gender":"0","age":"11","school":"6"},{"start_time":1551801813566,"click_time":1551801814773,"finger_time":1551801814374,"fix_duration":250,"trial":59,"RT":808,"MT":399,"sideResp":2,"stimulus":"img/900/equaldotsize/R/12_Ratio_900_L_18_R_20.png","xmouse":[820,820,820,820,820,820,820,820,820,820,820,820,820,820,820,821,821,821,822,822,822,822,822,822,822,822,822,822,822,822,822,822,822,822,822,822,822,825,826,833,845,881,898,919,950,973,999,1006,1010,1013,1016,1022,1022,1024,1027,1033,1046,1052,1057,1058,1059],"ymouse