[{"start_time":1551800897684,"click_time":1551800899374,"finger_time":1551800898753,"fix_duration":584.3678820383657,"trial":0,"RT":1069,"MT":621,"sideResp":2,"stimulus":[],"xmouse":[788,788,788,788,788,788,788,788,788,788,788,788,788,788,788,788,788,788,788,788,788,788,788,788,788,788,788,788,788,788,788,788,788,788,788,788,788,788,788,788,788,788,788,788,788,788,788,789,789,791,794,800,808,820,845,856,865,879,894,916,971,995,1022,1042,1042,1042,1042,1042,1042,1042,1042,1042,1042,1042,1042,1042,1042,1042,1042,1042,1042,1042,1042,1042,1110],"ymouse":[507,507,507,507,507,507,507,507,507,507,507,507,507,507,507,507,507,507,507,507,507,507,507,507,507,507,507,507,507,507,507,507,507,507,507,507,507,507,507,507,507,507,507,507,507,507,507,507,506,503,495,484,471,454,414,382,358,323,288,246,149,99,52,13,13,13,13,13,13,13,13,13,13,13,13,13,13,13,13,13,13,13,13,13,2],"timestamp_mouse":[10,41,49,69,88,109,130,148,170,189,208,229,248,270,288,309,328,348,369,389,409,428,449,470,490,510,528,549,569,589,609,630,648,670,690,708,730,749,770,789,810,829,849,869,889,909,929,950,969,988,1008,1029,1050,1069,1089,1108,1128,1148,1169,1189,1210,1228,1249,1268,1290,1309,1329,1350,1369,1389,1409,1429,1449,1470,1490,1509,1529,1549,1568,1590,1610,1630,1649,1669,1689],"xSR":741.5,"ySR":469.95,"xT1":424.9,"yT1":0,"xT2":1058.1,"yT2":0,"toosoon":0,"cond_shown":"Congruent","ratio_trial":300,"L_num":1,"L_den":30,"R_num":8,"R_den":24,"correct_side":2,"subjID":"Aleixer Camacho Bernal 1","gender":"0","age":"11","school":"6","test":{"fix_dur":[250,1500],"timestim":1000,"targets_dim":[100,100],"targets_relative_coord":[0.3,0.7],"size_stim":[880,420],"start_dim":[100,100],"size_start":[300,300],"size_fix":60,"samplingrate":20,"img_types":["Congruent","Incongruent"],"ratios":[100,200,300],"rep_conds":19,"nTrials":120,"trials_to_rest":500,"Trials_order":[46,36,90,29,109,9,56,59,86,16,67,31,72,39,52,37,110,8,49,28,76,4,48,83,44,51,38,80,5,104,88,100,112,79,32,78,96,53,26,6,81,15,60,70,17,77,98,91,92,62,108,94,35,25,41,57,116,45,106,55,74,12,119,69,43,101,73,61,99,54,58,47,107,33,10,71,82,87,1,20,113,40,64,19,0,18,22,21,89,95,115,93,34,66,2,11,117,105,42,24,85,102,14,118,114,97,103,68,111,13,63,3,84,7,65,27,75,50,30,23],"cond_shown":["Congruent","Congruent","Congruent","Incongruent","Incongruent","Incongruent","Congruent","Incongruent","Congruent","Congruent","Incongruent","Incongruent","Congruent","Incongruent","Congruent","Incongruent","Congruent","Congruent","Incongruent","Congruent","Congruent","Congruent","Congruent","Incongruent","Congruent","Incongruent","Congruent","Congruent","Incongruent","Congruent","Congruent","Congruent","Congruent","Incongruent","Congruent","Congruent","Congruent","Incongruent","Congruent","Congruent","Incongruent","Incongruent","Congruent","Congruent","Incongruent","Incongruent","Congruent","Incongruent","Congruent","Congruent","Congruent","Congruent","Incongruent","Incongruent","Incongruent","Incongruent","Congruent","Incongruent","Congruent","Incongruent","Congruent","Congruent","Incongruent","Incongruent","Incongruent","Incongruent","Incongruent","Incongruent","Incongruent","Congruent","Congruent","Incongruent","Incongruent","Incongruent","Congruent","Incongruent","Congruent","Incongruent","Incongruent","Congruent","Incongruent","Congruent","Congruent","Incongruent","Congruent","Congruent","Congruent","Incongruent","Incongruent","Incongruent","Incongruent","Incongruent","Congruent","Congruent","Congruent","Incongruent","Incongruent","Incongruent","Congruent","Congruent","Incongruent","Congruent","Congruent","Congruent","Congruent","Incongruent","Incongruent","Congruent","Incongruent","Incongruent","Incongruent","Incongruent","Congruent","Incongruent","Incongruent","Incongruent","Incongruent","Congruent","Congruent","Incongruent"],"ratio_trial":[300,100,100,300,100,200,200,300,200,300,100,100,100,200,300,100,200,200,100,300,300,300,100,300,200,200,200,200,300,200,300,300,300,100,200,100,100,300,200,100,200,200,100,300,300,300,200,100,200,200,100,300,300,100,300,200,200,200,300,100,200,100,300,200,100,300,100,100,200,100,300,300,300,200,300,300,300,200,100,200,300,300,300,100,100,100,300,200,300,300,100,200,300,100,200,300,200,200,100,100,100,100,200,300,100,100,100,200,200,100,200,200,100,100,300,200,200,200,100,300],"left_num":[1,4,6,7,10,4,6,1,6,4,4,3,3,1,7,3,3,8,12,9,4,4,6,1,15,9,6,8,2,16,2,11,3,8,16,6,4,4,6,2,4,7,2,7,13,4,9,3,12,4,7,11,4,9,3,4,4,3,4,9,6,6,13,7,3,2,11,2,7,2,4,4,13,7,20,4,4,9,9,7,13,1,5,8,11,1,18,11,8,4,3,7,2,3,21,3,7,3,8,1,6,8,6,9,10,13,13,3,4,8,4,4,4,13,4,7,4,14,2,4],"right_num":[8,6,5,8,8,14,7,2,7,13,8,4,2,3,20,8,14,7,9,3,1,13,15,2,4,8,3,2,6,12,12,4,11,6,9,5,6,2,3,6,14,6,6,20,12,2,4,8,6,3,9,2,2,6,4,1,3,1,2,13,3,5,12,4,7,6,9,8,4,11,2,2,12,8,5,2,13,8,20,18,12,19,7,1,6,3,9,3,9,8,11,14,10,2,2,4,6,11,2,18,7,2,7,3,3,12,6,14,1,6,6,14,6,6,2,8,14,6,11,2],"left_den":[30,8,20,10,25,6,12,2,12,20,8,6,6,2,14,5,6,15,24,10,10,20,12,2,25,15,15,15,4,20,10,22,12,16,30,20,8,20,15,5,6,15,5,14,26,20,20,5,20,10,14,22,20,18,6,30,10,10,5,15,15,20,26,15,9,4,22,4,15,5,5,20,26,10,25,20,20,15,10,15,26,3,25,20,22,2,20,20,10,5,5,10,20,6,30,6,15,4,16,2,10,16,12,10,25,26,26,10,30,16,5,6,8,26,20,10,6,28,5,20],"right_den":[24,10,25,20,16,30,10,10,10,26,20,10,5,10,25,16,20,21,15,5,10,26,25,10,10,10,15,6,30,20,24,20,20,10,27,25,10,4,15,12,30,9,12,25,15,4,16,16,15,15,15,10,4,10,20,3,15,2,4,26,15,25,15,6,30,30,15,20,6,22,4,4,15,16,10,4,26,10,25,27,15,30,14,2,15,5,15,4,18,16,22,28,25,5,4,20,9,20,5,30,14,5,10,5,10,20,10,28,3,10,10,30,10,10,4,16,30,20,22,4],"correct_side":[2,2,1,1,2,1,2,1,2,2,1,1,1,1,2,1,2,1,2,1,1,2,2,1,1,2,1,1,1,1,2,1,2,2,1,1,2,2,1,2,1,2,2,2,2,2,1,1,1,1,2,1,2,2,1,2,1,2,1,1,1,1,2,2,1,1,2,1,2,2,1,2,2,1,1,2,2,2,1,2,2,2,2,2,1,2,1,2,1,1,1,1,2,1,1,1,2,1,1,2,1,1,2,1,1,2,2,2,2,2,1,1,2,2,2,1,1,1,2,2],"img_shown":["img2/300/Congruent/R/C_Dist_300_LN_1_LD_30_RN_8_RD_24_1.png","img2/100/Congruent/R/C_Dist_100_LN_4_LD_8_RN_6_RD_10_1.png","img2/100/Congruent/L/C_Dist_100_LN_6_LD_20_RN_5_RD_25_0.png","img2/300/Incongruent/L/I_Dist_300_LN_7_LD_10_RN_8_RD_20_0.png","img2/100/Incongruent/R/I_Dist_100_LN_10_LD_25_RN_8_RD_16_1.png","img2/200/Incongruent/L/I_Dist_200_LN_4_LD_6_RN_14_RD_30_0.png","img2/200/Congruent/R/C_Dist_200_LN_6_LD_12_RN_7_RD_10_1.png","img2/300/Incongruent/L/I_Dist_300_LN_1_LD_2_RN_2_RD_10_0.png","img2/200/Congruent/R/C_Dist_200_LN_6_LD_12_RN_7_RD_10_1.png","img2/300/Congruent/R/C_Dist_300_LN_4_LD_20_RN_13_RD_26_1.png","img2/100/Incongruent/L/I_Dist_100_LN_4_LD_8_RN_8_RD_20_0.png","img2/100/Incongruent/L/I_Dist_100_LN_3_LD_6_RN_4_RD_10_0.png","img2/100/Congruent/L/C_Dist_100_LN_3_LD_6_RN_2_RD_5_0.png","img2/200/Incongruent/L/I_Dist_200_LN_1_LD_2_RN_3_RD_10_0.png","img2/300/Congruent/R/C_Dist_300_LN_7_LD_14_RN_20_RD_25_1.png","img2/100/Incongruent/L/I_Dist_100_LN_3_LD_5_RN_8_RD_16_0.png","img2/200/Congruent/R/C_Dist_200_LN_3_LD_6_RN_14_RD_20_1.png","img2/200/Congruent/L/C_Dist_200_LN_8_LD_15_RN_7_RD_21_0.png","img2/100/Incongruent/R/I_Dist_100_LN_12_LD_24_RN_9_RD_15_1.png","img2/300/Congruent/L/C_Dist_300_LN_9_LD_10_RN_3_RD_5_0.png","img2/300/Congruent/L/C_Dist_300_LN_4_LD_10_RN_1_RD_10_0.png","img2/300/Congruent/R/C_Dist_300_LN_4_LD_20_RN_13_RD_26_1.png","img2/100/Congruent/R/C_Dist_100_LN_6_LD_12_RN_15_RD_25_1.png","img2/300/Incongruent/L/I_Dist_300_LN_1_LD_2_RN_2_RD_10_0.png","img2/200/Congruent/L/C_Dist_200_LN_15_LD_25_RN_4_RD_10_0.png","img2/200/Incongruent/R/I_Dist_200_LN_9_LD_15_RN_8_RD_10_1.png","img2/200/Congruent/L/C_Dist_200_LN_6_LD_15_RN_3_RD_15_0.png","img2/200/Congruent/L/C_Dist_200_LN_8_LD_15_RN_2_RD_6_0.png","img2/300/Incongruent/L/I_Dist_300_LN_2_LD_4_RN_6_RD_30_0.png","img2/200/Congruent/L/C_Dist_200_LN_16_LD_20_RN_12_RD_20_0.png","img2/300/Congruent/R/C_Dist_300_LN_2_LD_10_RN_12_RD_24_1.png","img2/300/Congruent/L/C_Dist_300_LN_11_LD_22_RN_4_RD_20_0.png","img2/300/Congruent/R/C_Dist_300_LN_3_LD_12_RN_11_RD_20_1.png","img2/100/Incongruent/R/I_Dist_100_LN_8_LD_16_RN_6_RD_10_1.png","img2/200/Congruent/L/C_Dist_200_LN_16_LD_30_RN_9_RD_27_0.png","img2/100/Congruent/L/C_Dist_100_LN_6_LD_20_RN_5_RD_25_0.png","img2/100/Congruent/R/C_Dist_100_LN_4_LD_8_RN_6_RD_10_1.png","img2/300/Incongruent/R/I_Dist_300_LN_4_LD_20_RN_2_RD_4_1.png","img2/200/Congruent/L/C_Dist_200_LN_6_LD_15_RN_3_RD_15_0.png","img2/100/Congruent/R/C_Dist_100_LN_2_LD_5_RN_6_RD_12_1.png","img2/200/Incongruent/L/I_Dist_200_LN_4_LD_6_RN_14_RD_30_0.png","img2/200/Incongruent/R/I_Dist_200_LN_7_LD_15_RN_6_RD_9_1.png","img2/100/Congruent/R/C_Dist_100_LN_2_LD_5_RN_6_RD_12_1.png","img2/300/Congruent/R/C_Dist_300_LN_7_LD_14_RN_20_RD_25_1.png","img2/300/Incongruent/R/I_Dist_300_LN_13_LD_26_RN_12_RD_15_1.png","img2/300/Incongruent/R/I_Dist_300_LN_4_LD_20_RN_2_RD_4_1.png","img2/200/Congruent/L/C_Dist_200_LN_9_LD_20_RN_4_RD_16_0.png","img2/100/Incongruent/L/I_Dist_100_LN_3_LD_5_RN_8_RD_16_0.png","img2/200/Congruent/L/C_Dist_200_LN_12_LD_20_RN_6_RD_15_0.png","img2/200/Congruent/L/C_Dist_200_LN_4_LD_10_RN_3_RD_15_0.png","img2/100/Congruent/R/C_Dist_100_LN_7_LD_14_RN_9_RD_15_1.png","img2/300/Congruent/L/C_Dist_300_LN_11_LD_22_RN_2_RD_10_0.png","img2/300/Incongruent/R/I_Dist_300_LN_4_LD_20_RN_2_RD_4_1.png","img2/100/Incongruent/R/I_Dist_100_LN_9_LD_18_RN_6_RD_10_1.png","img2/300/Incongruent/L/I_Dist_300_LN_3_LD_6_RN_4_RD_20_0.png","img2/200/Incongruent/R/I_Dist_200_LN_4_LD_30_RN_1_RD_3_1.png","img2/200/Congruent/L/C_Dist_200_LN_4_LD_10_RN_3_RD_15_0.png","img2/200/Incongruent/R/I_Dist_200_LN_3_LD_10_RN_1_RD_2_1.png","img2/300/Congruent/L/C_Dist_300_LN_4_LD_5_RN_2_RD_4_0.png","img2/100/Incongruent/L/I_Dist_100_LN_9_LD_15_RN_13_RD_26_0.png","img2/200/Congruent/L/C_Dist_200_LN_6_LD_15_RN_3_RD_15_0.png","img2/100/Congruent/L/C_Dist_100_LN_6_LD_20_RN_5_RD_25_0.png","img2/300/Incongruent/R/I_Dist_300_LN_13_LD_26_RN_12_RD_15_1.png","img2/200/Incongruent/R/I_Dist_200_LN_7_LD_15_RN_4_RD_6_1.png","img2/100/Incongruent/L/I_Dist_100_LN_3_LD_9_RN_7_RD_30_0.png","img2/300/Incongruent/L/I_Dist_300_LN_2_LD_4_RN_6_RD_30_0.png","img2/100/Incongruent/R/I_Dist_100_LN_11_LD_22_RN_9_RD_15_1.png","img2/100/Incongruent/L/I_Dist_100_LN_2_LD_4_RN_8_RD_20_0.png","img2/200/Incongruent/R/I_Dist_200_LN_7_LD_15_RN_4_RD_6_1.png","img2/100/Congruent/R/C_Dist_100_LN_2_LD_5_RN_11_RD_22_1.png","img2/300/Congruent/L/C_Dist_300_LN_4_LD_5_RN_2_RD_4_0.png","img2/300/Incongruent/R/I_Dist_300_LN_4_LD_20_RN_2_RD_4_1.png","img2/300/Incongruent/R/I_Dist_300_LN_13_LD_26_RN_12_RD_15_1.png","img2/200/Incongruent/L/I_Dist_200_LN_7_LD_10_RN_8_RD_16_0.png","img2/300/Congruent/L/C_Dist_300_LN_20_LD_25_RN_5_RD_10_0.png","img2/300/Incongruent/R/I_Dist_300_LN_4_LD_20_RN_2_RD_4_1.png","img2/300/Congruent/R/C_Dist_300_LN_4_LD_20_RN_13_RD_26_1.png","img2/200/Incongruent/R/I_Dist_200_LN_9_LD_15_RN_8_RD_10_1.png","img2/100/Incongruent/L/I_Dist_100_LN_9_LD_10_RN_20_RD_25_0.png","img2/200/Congruent/R/C_Dist_200_LN_7_LD_15_RN_18_RD_27_1.png","img2/300/Incongruent/R/I_Dist_300_LN_13_LD_26_RN_12_RD_15_1.png","img2/300/Congruent/R/C_Dist_300_LN_1_LD_3_RN_19_RD_30_1.png","img2/300/Congruent/R/C_Dist_300_LN_5_LD_25_RN_7_RD_14_1.png","img2/100/Incongruent/R/I_Dist_100_LN_8_LD_20_RN_1_RD_2_1.png","img2/100/Congruent/L/C_Dist_100_LN_11_LD_22_RN_6_RD_15_0.png","img2/100/Congruent/R/C_Dist_100_LN_1_LD_2_RN_3_RD_5_1.png","img2/300/Congruent/L/C_Dist_300_LN_18_LD_20_RN_9_RD_15_0.png","img2/200/Incongruent/R/I_Dist_200_LN_11_LD_20_RN_3_RD_4_1.png","img2/300/Incongruent/L/I_Dist_300_LN_8_LD_10_RN_9_RD_18_0.png","img2/300/Incongruent/L/I_Dist_300_LN_4_LD_5_RN_8_RD_16_0.png","img2/100/Incongruent/L/I_Dist_100_LN_3_LD_5_RN_11_RD_22_0.png","img2/200/Incongruent/L/I_Dist_200_LN_7_LD_10_RN_14_RD_28_0.png","img2/300/Congruent/R/C_Dist_300_LN_2_LD_20_RN_10_RD_25_1.png","img2/100/Congruent/L/C_Dist_100_LN_3_LD_6_RN_2_RD_5_0.png","img2/200/Congruent/L/C_Dist_200_LN_21_LD_30_RN_2_RD_4_0.png","img2/300/Incongruent/L/I_Dist_300_LN_3_LD_6_RN_4_RD_20_0.png","img2/200/Incongruent/R/I_Dist_200_LN_7_LD_15_RN_6_RD_9_1.png","img2/200/Incongruent/L/I_Dist_200_LN_3_LD_4_RN_11_RD_20_0.png","img2/100/Congruent/L/C_Dist_100_LN_8_LD_16_RN_2_RD_5_0.png","img2/100/Congruent/R/C_Dist_100_LN_1_LD_2_RN_18_RD_30_1.png","img2/100/Incongruent/L/I_Dist_100_LN_6_LD_10_RN_7_RD_14_0.png","img2/100/Congruent/L/C_Dist_100_LN_8_LD_16_RN_2_RD_5_0.png","img2/200/Congruent/R/C_Dist_200_LN_6_LD_12_RN_7_RD_10_1.png","img2/300/Congruent/L/C_Dist_300_LN_9_LD_10_RN_3_RD_5_0.png","img2/100/Congruent/L/C_Dist_100_LN_10_LD_25_RN_3_RD_10_0.png","img2/100/Incongruent/R/I_Dist_100_LN_13_LD_26_RN_12_RD_20_1.png","img2/100/Incongruent/R/I_Dist_100_LN_13_LD_26_RN_6_RD_10_1.png","img2/200/Congruent/R/C_Dist_200_LN_3_LD_10_RN_14_RD_28_1.png","img2/200/Incongruent/R/I_Dist_200_LN_4_LD_30_RN_1_RD_3_1.png","img2/100/Incongruent/R/I_Dist_100_LN_8_LD_16_RN_6_RD_10_1.png","img2/200/Incongruent/L/I_Dist_200_LN_4_LD_5_RN_6_RD_10_0.png","img2/200/Incongruent/L/I_Dist_200_LN_4_LD_6_RN_14_RD_30_0.png","img2/100/Congruent/R/C_Dist_100_LN_4_LD_8_RN_6_RD_10_1.png","img2/100/Incongruent/R/I_Dist_100_LN_13_LD_26_RN_6_RD_10_1.png","img2/300/Incongruent/R/I_Dist_300_LN_4_LD_20_RN_2_RD_4_1.png","img2/200/Incongruent/L/I_Dist_200_LN_7_LD_10_RN_8_RD_16_0.png","img2/200/Incongruent/L/I_Dist_200_LN_4_LD_6_RN_14_RD_30_0.png","img2/200/Congruent/L/C_Dist_200_LN_14_LD_28_RN_6_RD_20_0.png","img2/100/Congruent/R/C_Dist_100_LN_2_LD_5_RN_11_RD_22_1.png","img2/300/Incongruent/R/I_Dist_300_LN_4_LD_20_RN_2_RD_4_1.png"],"dist100_C":[["C_Dist_100_LN_10_LD_25_RN_3_RD_10_0.png","C_Dist_100_LN_11_LD_22_RN_4_RD_10_0.png","C_Dist_100_LN_11_LD_22_RN_6_RD_15_0.png","C_Dist_100_LN_15_LD_25_RN_13_RD_26_0.png","C_Dist_100_LN_3_LD_6_RN_2_RD_5_0.png","C_Dist_100_LN_6_LD_20_RN_5_RD_25_0.png","C_Dist_100_LN_8_LD_16_RN_2_RD_5_0.png","C_Dist_100_LN_9_LD_15_RN_8_RD_16_0.png"],["C_Dist_100_LN_1_LD_2_RN_18_RD_30_1.png","C_Dist_100_LN_1_LD_2_RN_3_RD_5_1.png","C_Dist_100_LN_12_LD_30_RN_13_RD_26_1.png","C_Dist_100_LN_2_LD_5_RN_11_RD_22_1.png","C_Dist_100_LN_2_LD_5_RN_6_RD_12_1.png","C_Dist_100_LN_3_LD_20_RN_4_RD_16_1.png","C_Dist_100_LN_4_LD_10_RN_15_RD_30_1.png","C_Dist_100_LN_4_LD_8_RN_6_RD_10_1.png","C_Dist_100_LN_6_LD_12_RN_15_RD_25_1.png","C_Dist_100_LN_7_LD_14_RN_15_RD_25_1.png","C_Dist_100_LN_7_LD_14_RN_9_RD_15_1.png"]],"dist100_I":[["I_Dist_100_LN_1_LD_2_RN_8_RD_20_0.png","I_Dist_100_LN_2_LD_4_RN_6_RD_15_0.png","I_Dist_100_LN_2_LD_4_RN_8_RD_20_0.png","I_Dist_100_LN_3_LD_5_RN_11_RD_22_0.png","I_Dist_100_LN_3_LD_5_RN_8_RD_16_0.png","I_Dist_100_LN_3_LD_6_RN_4_RD_10_0.png","I_Dist_100_LN_3_LD_9_RN_7_RD_30_0.png","I_Dist_100_LN_4_LD_8_RN_8_RD_20_0.png","I_Dist_100_LN_6_LD_10_RN_11_RD_22_0.png","I_Dist_100_LN_6_LD_10_RN_13_RD_26_0.png","I_Dist_100_LN_6_LD_10_RN_7_RD_14_0.png","I_Dist_100_LN_9_LD_10_RN_20_RD_25_0.png","I_Dist_100_LN_9_LD_15_RN_13_RD_26_0.png","I_Dist_100_LN_9_LD_15_RN_14_RD_28_0.png"],["I_Dist_100_LN_10_LD_25_RN_8_RD_16_1.png","I_Dist_100_LN_10_LD_25_RN_9_RD_18_1.png","I_Dist_100_LN_11_LD_22_RN_9_RD_15_1.png","I_Dist_100_LN_12_LD_24_RN_9_RD_15_1.png","I_Dist_100_LN_12_LD_30_RN_2_RD_4_1.png","I_Dist_100_LN_13_LD_26_RN_12_RD_20_1.png","I_Dist_100_LN_13_LD_26_RN_6_RD_10_1.png","I_Dist_100_LN_17_LD_30_RN_10_RD_15_1.png","I_Dist_100_LN_6_LD_12_RN_3_RD_5_1.png","I_Dist_100_LN_8_LD_16_RN_6_RD_10_1.png","I_Dist_100_LN_8_LD_20_RN_1_RD_2_1.png","I_Dist_100_LN_9_LD_18_RN_6_RD_10_1.png"]],"dist100_S":[["E_Dist_100_LN_2_LD_12_RN_2_RD_30_0.png","E_Dist_100_LN_6_LD_10_RN_6_RD_12_0.png"],["E_Dist_100_LN_6_LD_12_RN_6_RD_10_1.png"]],"dist200_C":[["C_Dist_200_LN_11_LD_22_RN_3_RD_10_0.png","C_Dist_200_LN_12_LD_15_RN_6_RD_10_0.png","C_Dist_200_LN_12_LD_20_RN_6_RD_15_0.png","C_Dist_200_LN_14_LD_28_RN_6_RD_20_0.png","C_Dist_200_LN_15_LD_25_RN_4_RD_10_0.png","C_Dist_200_LN_16_LD_20_RN_12_RD_20_0.png","C_Dist_200_LN_16_LD_30_RN_9_RD_27_0.png","C_Dist_200_LN_20_LD_25_RN_9_RD_15_0.png","C_Dist_200_LN_21_LD_30_RN_2_RD_4_0.png","C_Dist_200_LN_4_LD_10_RN_3_RD_15_0.png","C_Dist_200_LN_4_LD_8_RN_3_RD_10_0.png","C_Dist_200_LN_6_LD_15_RN_3_RD_15_0.png","C_Dist_200_LN_7_LD_21_RN_2_RD_15_0.png","C_Dist_200_LN_8_LD_15_RN_2_RD_6_0.png","C_Dist_200_LN_8_LD_15_RN_3_RD_9_0.png","C_Dist_200_LN_8_LD_15_RN_7_RD_21_0.png","C_Dist_200_LN_9_LD_20_RN_4_RD_16_0.png"],["C_Dist_200_LN_1_LD_2_RN_21_RD_30_1.png","C_Dist_200_LN_13_LD_26_RN_14_RD_20_1.png","C_Dist_200_LN_3_LD_10_RN_11_RD_22_1.png","C_Dist_200_LN_3_LD_10_RN_14_RD_28_1.png","C_Dist_200_LN_3_LD_10_RN_7_RD_14_1.png","C_Dist_200_LN_3_LD_12_RN_9_RD_20_1.png","C_Dist_200_LN_3_LD_6_RN_14_RD_20_1.png","C_Dist_200_LN_5_LD_10_RN_14_RD_20_1.png","C_Dist_200_LN_6_LD_12_RN_7_RD_10_1.png","C_Dist_200_LN_6_LD_20_RN_11_RD_22_1.png","C_Dist_200_LN_7_LD_15_RN_18_RD_27_1.png","C_Dist_200_LN_9_LD_30_RN_13_RD_26_1.png"]],"dist200_I":[["I_Dist_200_LN_1_LD_2_RN_3_RD_10_0.png","I_Dist_200_LN_1_LD_3_RN_2_RD_15_0.png","I_Dist_200_LN_3_LD_4_RN_11_RD_20_0.png","I_Dist_200_LN_4_LD_5_RN_6_RD_10_0.png","I_Dist_200_LN_4_LD_6_RN_14_RD_30_0.png","I_Dist_200_LN_7_LD_10_RN_12_RD_24_0.png","I_Dist_200_LN_7_LD_10_RN_14_RD_28_0.png","I_Dist_200_LN_7_LD_10_RN_8_RD_16_0.png"],["I_Dist_200_LN_11_LD_20_RN_3_RD_4_1.png","I_Dist_200_LN_14_LD_30_RN_12_RD_18_1.png","I_Dist_200_LN_14_LD_30_RN_6_RD_9_1.png","I_Dist_200_LN_3_LD_10_RN_1_RD_2_1.png","I_Dist_200_LN_4_LD_30_RN_1_RD_3_1.png","I_Dist_200_LN_6_LD_20_RN_3_RD_6_1.png","I_Dist_200_LN_7_LD_15_RN_4_RD_6_1.png","I_Dist_200_LN_7_LD_15_RN_6_RD_9_1.png","I_Dist_200_LN_9_LD_15_RN_8_RD_10_1.png"]],"dist200_S":[["E_Dist_200_LN_3_LD_6_RN_3_RD_10_0.png"],["E_Dist_200_LN_3_LD_10_RN_3_RD_6_1.png"]],"dist300_C":[["C_Dist_300_LN_11_LD_22_RN_1_RD_5_0.png","C_Dist_300_LN_11_LD_22_RN_2_RD_10_0.png","C_Dist_300_LN_11_LD_22_RN_4_RD_20_0.png","C_Dist_300_LN_12_LD_24_RN_2_RD_10_0.png","C_Dist_300_LN_18_LD_20_RN_9_RD_15_0.png","C_Dist_300_LN_20_LD_25_RN_13_RD_26_0.png","C_Dist_300_LN_20_LD_25_RN_14_RD_28_0.png","C_Dist_300_LN_20_LD_25_RN_5_RD_10_0.png","C_Dist_300_LN_20_LD_25_RN_8_RD_16_0.png","C_Dist_300_LN_20_LD_25_RN_9_RD_18_0.png","C_Dist_300_LN_24_LD_30_RN_2_RD_4_0.png","C_Dist_300_LN_24_LD_30_RN_8_RD_16_0.png","C_Dist_300_LN_3_LD_6_RN_2_RD_10_0.png","C_Dist_300_LN_4_LD_10_RN_1_RD_10_0.png","C_Dist_300_LN_4_LD_5_RN_2_RD_4_0.png","C_Dist_300_LN_8_LD_16_RN_1_RD_5_0.png","C_Dist_300_LN_9_LD_10_RN_3_RD_5_0.png"],["C_Dist_300_LN_1_LD_20_RN_7_RD_20_1.png","C_Dist_300_LN_1_LD_3_RN_19_RD_30_1.png","C_Dist_300_LN_1_LD_30_RN_8_RD_24_1.png","C_Dist_300_LN_1_LD_5_RN_11_RD_22_1.png","C_Dist_300_LN_1_LD_5_RN_3_RD_6_1.png","C_Dist_300_LN_1_LD_5_RN_6_RD_12_1.png","C_Dist_300_LN_2_LD_10_RN_12_RD_24_1.png","C_Dist_300_LN_2_LD_20_RN_10_RD_25_1.png","C_Dist_300_LN_3_LD_12_RN_11_RD_20_1.png","C_Dist_300_LN_3_LD_6_RN_4_RD_5_1.png","C_Dist_300_LN_4_LD_20_RN_13_RD_26_1.png","C_Dist_300_LN_5_LD_25_RN_6_RD_12_1.png","C_Dist_300_LN_5_LD_25_RN_7_RD_14_1.png","C_Dist_300_LN_7_LD_14_RN_20_RD_25_1.png","C_Dist_300_LN_8_LD_15_RN_10_RD_12_1.png"]],"dist300_I":[["I_Dist_300_LN_1_LD_2_RN_2_RD_10_0.png","I_Dist_300_LN_1_LD_2_RN_3_RD_15_0.png","I_Dist_300_LN_2_LD_4_RN_6_RD_30_0.png","I_Dist_300_LN_3_LD_6_RN_4_RD_20_0.png","I_Dist_300_LN_4_LD_5_RN_6_RD_12_0.png","I_Dist_300_LN_4_LD_5_RN_8_RD_16_0.png","I_Dist_300_LN_7_LD_10_RN_8_RD_20_0.png","I_Dist_300_LN_8_LD_10_RN_14_RD_28_0.png","I_Dist_300_LN_8_LD_10_RN_9_RD_18_0.png"],["I_Dist_300_LN_13_LD_26_RN_12_RD_15_1.png","I_Dist_300_LN_4_LD_20_RN_2_RD_4_1.png"]],"dist300_S":[["E_Dist_300_LN_9_LD_12_RN_9_RD_20_0.png"],["E_Dist_300_LN_18_LD_30_RN_18_RD_20_1.png","E_Dist_300_LN_3_LD_10_RN_3_RD_5_1.png","E_Dist_300_LN_9_LD_20_RN_9_RD_12_1.png"]],"dist500_C":[["C_Dist_500_LN_10_LD_13_RN_7_RD_26_0.png","C_Dist_500_LN_10_LD_15_RN_4_RD_24_0.png","C_Dist_500_LN_12_LD_16_RN_3_RD_12_0.png","C_Dist_500_LN_12_LD_18_RN_4_RD_24_0.png","C_Dist_500_LN_15_LD_18_RN_5_RD_15_0.png","C_Dist_500_LN_15_LD_20_RN_1_RD_4_0.png","C_Dist_500_LN_18_LD_27_RN_1_RD_6_0.png","C_Dist_500_LN_20_LD_24_RN_1_RD_3_0.png","C_Dist_500_LN_20_LD_24_RN_3_RD_9_0.png","C_Dist_500_LN_20_LD_24_RN_7_RD_21_0.png","C_Dist_500_LN_20_LD_28_RN_3_RD_14_0.png","C_Dist_500_LN_21_LD_28_RN_6_RD_24_0.png","C_Dist_500_LN_22_LD_28_RN_2_RD_7_0.png","C_Dist_500_LN_25_LD_30_RN_9_RD_27_0.png","C_Dist_500_LN_4_LD_6_RN_1_RD_6_0.png","C_Dist_500_LN_5_LD_6_RN_2_RD_6_0.png","C_Dist_500_LN_6_LD_9_RN_1_RD_6_0.png","C_Dist_500_LN_7_LD_10_RN_1_RD_5_0.png","C_Dist_500_LN_8_LD_12_RN_1_RD_6_0.png","C_Dist_500_LN_8_LD_12_RN_4_RD_24_0.png"],["C_Dist_500_LN_1_LD_4_RN_12_RD_16_1.png","C_Dist_500_LN_1_LD_4_RN_9_RD_12_1.png","C_Dist_500_LN_1_LD_9_RN_11_RD_18_1.png","C_Dist_500_LN_10_LD_24_RN_22_RD_24_1.png","C_Dist_500_LN_2_LD_12_RN_10_RD_15_1.png","C_Dist_500_LN_2_LD_12_RN_12_RD_18_1.png","C_Dist_500_LN_2_LD_12_RN_4_RD_6_1.png","C_Dist_500_LN_2_LD_24_RN_7_RD_12_1.png","C_Dist_500_LN_2_LD_5_RN_18_RD_20_1.png","C_Dist_500_LN_2_LD_5_RN_9_RD_10_1.png","C_Dist_500_LN_2_LD_8_RN_12_RD_16_1.png","C_Dist_500_LN_2_LD_8_RN_21_RD_28_1.png","C_Dist_500_LN_3_LD_10_RN_4_RD_5_1.png","C_Dist_500_LN_3_LD_12_RN_15_RD_20_1.png","C_Dist_500_LN_3_LD_30_RN_6_RD_10_1.png","C_Dist_500_LN_3_LD_8_RN_14_RD_16_1.png","C_Dist_500_LN_4_LD_16_RN_15_RD_20_1.png","C_Dist_500_LN_4_LD_24_RN_12_RD_18_1.png","C_Dist_500_LN_5_LD_14_RN_6_RD_7_1.png","C_Dist_500_LN_7_LD_21_RN_20_RD_24_1.png","C_Dist_500_LN_7_LD_28_RN_12_RD_16_1.png","C_Dist_500_LN_7_LD_28_RN_9_RD_12_1.png","C_Dist_500_LN_9_LD_27_RN_20_RD_24_1.png"]],"dist500_I":[["I_Dist_500_LN_2_LD_3_RN_4_RD_24_0.png","I_Dist_500_LN_5_LD_6_RN_6_RD_18_0.png","I_Dist_500_LN_7_LD_8_RN_9_RD_24_0.png"],["I_Dist_500_LN_7_LD_21_RN_5_RD_6_1.png"]],"dist500_S":[["E_Dist_500_LN_6_LD_8_RN_6_RD_24_0.png"],["E_Dist_500_LN_2_LD_12_RN_2_RD_3_1.png","E_Dist_500_LN_6_LD_24_RN_6_RD_8_1.png"]]}},{"start_time":1551800901909,"click_time":1551800903233,"finger_time":1551800902913,"fix_duration":1354.745720213022,"trial":1,"RT":1004,"MT":320,"sideResp":2,"stimulus":[],"xmouse":[811,811,811,811,811,811,811,811,811,811,811,811,811,811,811,811,811,811,811,811,811,811,811,811,811,811,811,811,811,811,811,811,811,811,811,811,811,811,811,811,811,811,811,811,811,811,811,811,811,814,833,868,926,1055,1105,1157,1174,1184,1192,1193,1194,1194,1194,1194,1187,1160,1141],"ymouse":[507,507,507,507,507,507,507,507,507,507,507,507,507,507,507,507,507,507,507,507,507,507,507,507,507,507,507,507,507,507,507,507,507,507,507,507,507,507,507,507,507,507,507,507,507,507,507,507,507,494,469,426,366,243,193,135,110,91,65,57,52,50,49,47,44,39,38],"timestamp_mouse":[9,33,44,64,84,105,124,144,164,185,205,225,244,263,285,303,325,345,365,384,405,423,444,465,484,504,524,544,564,584,603,625,643,664,684,704,723,743,763,785,803,824,844,864,884,905,924,944,964,984,1004,1023,1043,1065,1084,1104,1124,1145,1165,1184,1204,1225,1243,1265,1285,1303,1323],"xSR":741.5,"ySR":469.95,"xT1":424.9,"yT1":0,"xT2":1058.1,"yT2":0,"toosoon":0,"cond_shown":"Congruent","ratio_trial":100,"L_num":4,"L_den":8,"R_num":6,"R_den":10,"correct_side":2,"subjID":"Aleixer Camacho Bernal 1","gender":"0","school":"6","age":"11"},{"start_time":1551800904386,"click_time":1551800905933,"finger_time":1551800905214,"fix_duration":250,"trial":2,"RT":828,"MT":719,"sideResp":1,"stimulus":[],"xmouse":[759,759,759,759,759,759,759,759,759,759,759,759,759,759,759,759,759,759,759,759,759,759,759,759,759,759,759,759,759,759,759,759,759,759,759,760,760,760,760,760,755,734,716,701,684,677,668,658,645,624,618,616,613,610,607,587,576,569,565,559,552,546,538,529,517,515,514,513,512,511,510,510,510,510,510,510,508,507],"ymouse":[542,542,542,542,542,542,542,542,542,542,542,542,542,542,542,542,542,542,542,542,542,542,542,542,542,542,542,542,542,542,542,542,542,542,540,536,531,524,517,509,473,430,403,380,353,339,329,316,306,289,284,281,278,274,271,257,249,244,240,225,208,193,175,154,126,118,113,109,108,106,105,104,104,104,104,104,101,99],"timestamp_mouse":[11,27,54,66,86,106,127,147,166,188,207,227,247,267,287,306,327,348,366,387,407,427,446,468,487,508,528,547,566,587,606,626,647,667,688,707,726,747,767,787,806,828,847,867,887,906,928,948,968,988,1007,1027,1047,1066,1087,1107,1127,1146,1167,1187,1206,1227,1247,1267,1288,1306,1327,1347,1366,1387,1408,1428,1447,1468,1488,1506,1526,1546],"xSR":741.5,"ySR":469.95,"xT1":424.9,"yT1":0,"xT2":1058.1,"yT2":0,"toosoon":0,"cond_shown":"Congruent","ratio_trial":100,"L_num":6,"L_den":20,"R_num":5,"R_den":25,"correct_side":1,"subjID":"Aleixer Camacho Bernal 1","gender":"0","school":"6","age":"11"},{"start_time":1551800908005,"click_time":1551800912074,"finger_time":1551800910012,"fix_duration":1129.6629570731363,"trial":3,"RT":2007,"MT":2062,"sideResp":2,"stimulus":[],"xmouse":[794,794,794,794,794,794,794,794,794,794,794,794,794,794,794,794,794,794,794,794,794,794,794,794,794,794,794,794,794,794,794,794,794,794,794,794,794,794,794,794,794,794,794,794,794,794,794,794,794,794,794,794,794,794,794,794,794,794,794,794,794,794,794,794,794,794,794,794,794,794,794,794,794,794,794,794,794,794,794,794,794,794,794,794,794,794,794,794,793,791,790,790,789,787,786,784,783,781,767,749,717,702,695,688,684,681,675,669,662,662,662,662,662,662,662,662,662,663,701,767,889,949,965,966,966,966,966,963,948,925,887,862,841,814,808,807,807,807,807,807,807,807,807,807,807,807,807,807,807,806,805,803,800,795,795,795,795,795,794,794,794,794,794,793,793,793,793,793,793,793,793,793,793,793,793,794,797,805,847,904,1005,1065,1107,1124,1142,1147,1150,1151,1151,1151,1151,1151,1151,1119,1097,1076,1068,1067,1066,1066,1066,1066,1066,1071],"ymouse":[505,505,505,505,505,505,505,505,505,505,505,505,505,505,505,505,505,505,505,505,505,505,505,505,505,505,505,505,505,505,505,505,505,505,505,505,505,505,505,505,505,505,505,505,505,505,505,505,505,505,505,505,505,505,505,505,505,505,505,505,505,505,505,505,505,505,505,505,505,505,505,505,505,505,505,505,505,505,505,505,505,505,505,505,505,506,507,508,509,511,511,512,512,514,515,515,516,517,521,526,532,535,536,540,541,543,544,546,547,547,547,547,547,547,547,547,547,547,547,547,547,547,547,547,547,547,547,546,545,545,545,545,545,545,545,545,545,545,545,545,545,545,545,545,545,545,545,545,545,545,544,542,540,538,538,538,538,538,537,537,537,537,537,536,536,536,536,536,536,536,536,535,534,532,528,523,514,499,444,397,323,282,252,231,191,176,167,162,157,156,155,155,151,133,123,114,111,110,109,109,109,109,108,99],"timestamp_mouse":[8,32,49,68,88,107,128,147,168,189,208,228,249,268,288,307,329,349,368,388,409,427,449,467,487,508,528,549,568,588,608,627,649,667,689,709,729,747,769,787,809,828,847,868,889,909,928,949,969,989,1008,1028,1048,1068,1087,1108,1129,1147,1168,1189,1209,1228,1248,1268,1289,1309,1327,1348,1369,1388,1408,1427,1448,1469,1488,1507,1528,1549,1568,1589,1608,1627,1648,1668,1689,1707,1727,1749,1768,1789,1809,1828,1849,1869,1889,1907,1929,1949,1968,1988,2007,2027,2048,2069,2087,2108,2129,2147,2169,2187,2209,2227,2248,2269,2288,2308,2328,2348,2369,2388,2408,2428,2448,2469,2488,2507,2527,2548,2569,2587,2608,2628,2649,2669,2689,2708,2728,2747,2769,2788,2807,2829,2849,2868,2888,2908,2929,2949,2968,2987,3007,3029,3049,3068,3087,3109,3128,3148,3169,3189,3208,3229,3247,3267,3289,3309,3328,3348,3368,3388,3408,3428,3448,3468,3488,3508,3529,3548,3568,3587,3608,3629,3649,3668,3688,3708,3727,3748,3769,3787,3808,3828,3849,3868,3888,3908,3928,3948,3968,3987,4008,4028,4048,4068],"xSR":741.5,"ySR":469.95,"xT1":424.9,"yT1":0,"xT2":1058.1,"yT2":0,"toosoon":0,"cond_shown":"Incongruent","ratio_trial":300,"L_num":7,"L_den":10,"R_num":8,"R_den":20,"correct_side":1,"subjID":"Aleixer Camacho Bernal 1","gender":"0","school":"6","age":"11"},{"start_time":1551800914252,"click_time":1551800916793,"finger_time":1551800916312,"fix_duration":1116.221753530979,"trial":4,"RT":2060,"MT":481,"sideResp":1,"stimulus":[],"xmouse":[800,800,800,800,800,800,800,800,800,800,800,800,800,800,800,800,800,800,800,801,802,803,805,812,816,822,826,831,831,831,831,831,831,831,831,831,831,831,831,831,831,831,831,831,831,831,831,831,831,831,831,831,831,831,831,831,831,831,831,831,831,831,831,831,831,830,829,821,816,814,812,811,807,801,799,798,798,798,798,798,798,798,798,798,798,798,798,798,798,798,798,798,798,798,798,798,798,798,798,796,793,769,748,727,705,680,615,582,544,535,530,528,528,528,528,528,523,517,517,517,515,510,498,486,475,471,470,469],"ymouse":[493,493,493,493,493,493,493,493,493,493,493,493,493,493,493,495,499,503,506,509,511,512,512,506,501,494,489,483,483,483,483,484,487,488,489,489,489,489,489,489,489,489,489,489,489,489,489,489,489,489,489,489,489,489,489,489,489,489,489,489,489,489,489,489,489,489,489,489,489,490,490,490,490,491,491,492,492,492,492,492,492,492,492,492,492,492,492,492,492,492,492,492,492,492,492,492,492,492,492,492,492,483,472,458,437,404,329,291,243,227,216,205,202,196,190,182,174,168,168,167,165,159,145,131,118,109,100,92],"timestamp_mouse":[9,20,42,60,81,102,120,141,160,181,202,221,241,261,282,301,322,341,360,381,402,421,440,461,481,501,521,542,560,581,600,622,642,661,681,701,722,742,760,781,800,820,842,860,880,902,920,941,961,980,1002,1022,1040,1060,1080,1102,1120,1141,1161,1181,1201,1222,1240,1260,1280,1301,1320,1342,1361,1381,1401,1421,1440,1461,1481,1501,1522,1540,1562,1581,1601,1621,1641,1662,1682,1701,1722,1742,1761,1781,1801,1822,1841,1860,1881,1900,1921,1942,1960,1981,2001,2022,2042,2060,2081,2101,2121,2141,2162,2182,2201,2221,2240,2261,2282,2300,2322,2342,2360,2381,2402,2421,2441,2461,2482,2500,2521,2541],"xSR":741.5,"ySR":469.95,"xT1":424.9,"yT1":0,"xT2":1058.1,"yT2":0,"toosoon":0,"cond_shown":"Incongruent","ratio_trial":100,"L_num":10,"L_den":25,"R_num":8,"R_den":16,"correct_side":2,"subjID":"Aleixer Camacho Bernal 1","gender":"0","school":"6","age":"11"},{"start_time":1551800919192,"click_time":1551800920713,"finger_time":1551800920194,"fix_duration":938.1302955892892,"trial":5,"RT":1002,"MT":519,"sideResp":1,"stimulus":[],"xmouse":[769,769,769,770,771,772,772,772,772,772,772,772,772,772,772,772,772,772,772,772,772,772,772,772,772,772,772,772,772,772,772,772,772,772,772,772,772,772,772,772,772,772,772,772,772,772,772,772,772,763,752,729,711,692,672,615,588,567,554,546,532,517,508,497,485,464,462,462,462,462,461,461,462,463,468,469,469],"ymouse":[517,517,517,517,516,516,515,515,515,515,515,515,515,515,515,515,515,515,515,515,515,515,515,515,515,515,515,515,515,515,515,515,515,515,515,515,515,515,515,515,515,515,515,515,515,515,514,512,508,486,466,431,410,388,364,297,267,247,231,219,195,178,170,161,152,140,139,139,139,139,138,135,131,128,115,104,90],"timestamp_mouse":[8,31,41,61,81,101,121,142,160,181,201,221,242,261,282,301,321,340,362,380,402,422,442,462,481,502,522,541,560,582,601,622,640,662,680,702,720,742,760,780,801,821,841,860,881,900,920,941,961,982,1002,1021,1042,1062,1081,1101,1121,1141,1161,1181,1201,1220,1240,1261,1281,1302,1322,1341,1361,1380,1401,1422,1441,1461,1482,1501,1521],"xSR":741.5,"ySR":469.95,"xT1":424.9,"yT1":0,"xT2":1058.1,"yT2":0,"toosoon":0,"cond_shown":"Incongruent","ratio_trial":200,"L_num":4,"L_den":6,"R_num":14,"R_den":30,"correct_side":1,"subjID":"Aleixer Camacho Bernal 1","gender":"0","school":"6","age":"11"},{"start_time":1551800923361,"click_time":1551800925553,"finger_time":1551800925033,"fix_duration":1285.479564665035,"trial":6,"RT":1672,"MT":520,"sideResp":2,"stimulus":[],"xmouse":[777,777,777,777,777,777,777,777,777,777,777,777,777,777,777,777,777,777,777,777,777,777,777,777,777,777,777,777,777,777,777,777,777,777,777,777,777,777,777,777,777,777,777,777,777,777,777,777,777,777,777,777,777,777,777,777,777,777,777,777,777,777,777,777,777,777,777,777,777,777,777,777,777,777,777,777,777,777,777,777,779,790,801,822,842,910,1013,1119,1202,1230,1235,1228,1223,1221,1220,1216,1215,1214,1214,1212,1209,1206,1205,1204,1204,1198,1192,1181,1163,1135],"ymouse":[501,501,501,501,501,501,501,501,501,501,501,501,501,501,501,501,501,501,501,501,501,501,501,501,501,501,501,501,501,501,501,501,501,501,501,500,499,499,499,499,499,499,499,499,499,499,499,499,499,499,499,499,499,499,499,499,499,499,499,499,499,499,499,499,499,499,499,499,499,499,499,499,499,499,499,499,499,499,499,498,494,483,472,441,414,351,315,285,253,236,214,203,196,192,187,174,164,148,132,118,107,96,95,93,93,91,91,91,91,91],"timestamp_mouse":[20,45,53,73,92,112,133,152,172,192,213,231,253,273,293,313,333,352,372,393,413,432,452,473,493,512,532,552,573,592,613,633,651,672,692,712,732,753,772,793,813,833,853,872,892,912,933,952,972,993,1012,1031,1052,1072,1092,1112,1132,1152,1173,1193,1211,1232,1251,1273,1291,1311,1333,1353,1372,1392,1413,1431,1453,1473,1491,1513,1533,1551,1572,1592,1613,1633,1652,1672,1692,1713,1732,1752,1772,1791,1813,1832,1852,1872,1893,1913,1932,1952,1973,1992,2011,2032,2052,2072,2092,2113,2132,2152,2172,2192],"xSR":741.5,"ySR":469.95,"xT1":424.9,"yT1":0,"xT2":1058.1,"yT2":0,"toosoon":0,"cond_shown":"Congruent","ratio_trial":200,"L_num":6,"L_den":12,"R_num":7,"R_den":10,"correct_side":2,"subjID":"Aleixer Camacho Bernal 1","gender":"0","school":"6","age":"11"},{"start_time":1551800927860,"click_time":1551800930033,"finger_time":1551800929534,"fix_duration":886.3963942858218,"trial":7,"RT":1674,"MT":499,"sideResp":1,"stimulus":[],"xmouse":[797,797,797,797,797,797,797,797,797,797,797,797,797,797,797,797,797,797,797,797,797,797,797,797,797,797,797,797,797,797,797,797,797,797,797,797,797,797,797,797,797,797,797,797,797,797,797,797,797,797,797,797,797,797,797,797,797,797,797,797,797,797,797,797,797,797,797,797,797,797,797,797,797,797,797,797,797,797,797,797,796,791,780,768,753,732,682,640,614,595,574,569,564,560,554,544,513,503,502,502,502,501,500,499,498,498,495,493,491],"ymouse":[508,508,508,508,508,508,508,508,508,508,508,508,508,508,508,508,508,508,508,508,508,508,508,508,508,508,508,508,508,508,508,508,508,508,508,508,508,508,508,508,508,508,508,508,508,508,508,508,508,508,508,508,508,508,508,508,508,508,508,508,508,508,508,508,508,508,508,508,508,508,508,508,508,508,508,508,508,508,508,508,502,490,470,451,426,384,299,239,209,188,161,154,147,143,136,130,117,113,112,112,112,110,110,109,107,107,104,102,99],"timestamp_mouse":[13,33,54,74,94,113,134,153,174,192,213,234,253,273,294,312,333,354,373,393,412,434,454,474,493,514,534,553,573,594,612,632,654,673,693,712,733,754,773,792,814,832,854,874,892,914,934,954,973,994,1014,1032,1054,1072,1094,1113,1134,1153,1174,1194,1213,1233,1254,1274,1294,1313,1334,1354,1373,1393,1414,1434,1454,1473,1494,1513,1533,1553,1573,1593,1613,1633,1653,1674,1693,1714,1733,1754,1774,1794,1813,1833,1852,1873,1893,1914,1933,1953,1973,1994,2013,2033,2053,2073,2092,2114,2133,2153,2173],"xSR":741.5,"ySR":469.95,"xT1":424.9,"yT1":0,"xT2":1058.1,"yT2":0,"toosoon":0,"cond_shown":"Incongruent","ratio_trial":300,"L_num":1,"L_den":2,"R_num":2,"R_den":10,"correct_side":1,"subjID":"Aleixer Camacho Bernal 1","gender":"0","school":"6","age":"11"},{"start_time":1551800932768,"click_time":1551800934773,"finger_time":1551800934594,"fix_duration":1371.0858192238272,"trial":8,"RT":1826,"MT":179,"sideResp":1,"stimulus":[],"xmouse":[778,778,778,778,778,778,778,778,778,778,778,778,778,779,779,779,779,779,779,779,779,779,779,779,779,779,779,779,779,779,779,779,779,779,779,779,779,779,779,779,779,779,779,779,779,779,779,779,779,779,779,779,779,779,780,780,780,780,780,780,780,780,780,780,780,780,780,780,780,780,780,780,780,780,780,780,780,780,780,780,780,780,780,780,780,780,780,780,780,780,780,778,764,746,724,676,653,622,591,561,501],"ymouse":[473,473,473,473,473,473,473,473,473,473,473,473,473,473,473,473,473,473,473,473,473,473,473,473,473,473,473,473,473,473,473,473,473,473,473,473,473,473,473,473,473,473,473,473,473,473,473,473,473,473,473,473,473,473,472,472,472,472,472,472,472,472,472,472,472,472,472,472,472,472,472,472,472,472,472,472,472,472,472,472,472,472,472,472,472,472,472,472,472,472,472,469,463,452,434,353,299,241,190,140,48],"timestamp_mouse":[9,38,46,64,85,105,125,146,164,186,204,224,246,266,285,306,324,344,366,386,404,425,445,466,485,505,526,546,565,586,606,624,645,666,685,705,726,746,765,785,804,826,845,865,885,906,926,945,965,985,1005,1026,1045,1065,1085,1105,1124,1145,1165,1186,1204,1226,1245,1264,1285,1305,1324,1345,1366,1386,1405,1425,1445,1466,1486,1505,1525,1546,1566,1586,1605,1625,1646,1666,1685,1705,1726,1744,1766,1786,1806,1826,1845,1865,1886,1906,1925,1945,1966,1986,2005],"xSR":741.5,"ySR":469.95,"xT1":424.9,"yT1":0,"xT2":1058.1,"yT2":0,"toosoon":0,"cond_shown":"Congruent","ratio_trial":200,"L_num":6,"L_den":12,"R_num":7,"R_den":10,"correct_side":2,"subjID":"Aleixer Camacho Bernal 1","gender":"0","school":"6","age":"11"},{"start_time":1551800938002,"click_time":1551800940232,"finger_time":1551800939674,"fix_duration":1367.308186285948,"trial":9,"RT":1672,"MT":558,"sideResp":1,"stimulus":[],"xmouse":[777,777,777,777,777,777,777,777,777,777,777,777,777,777,777,777,777,777,777,777,777,777,777,777,777,777,777,777,777,777,777,777,777,777,777,777,777,777,777,777,777,777,777,777,777,777,777,777,777,777,777,777,777,777,777,777,777,777,777,777,777,778,778,778,774,771,770,770,770,770,770,770,770,770,770,770,770,770,770,770,770,770,770,763,753,738,720,703,671,659,647,631,622,613,599,591,585,575,563,540,526,504,491,484,472,470,468,466,463,460,458,457],"ymouse":[488,488,488,488,488,488,488,488,488,488,488,488,488,488,488,488,488,488,488,488,488,488,488,488,488,488,488,488,488,488,488,488,488,488,488,488,488,488,488,488,488,488,488,488,488,488,488,488,488,488,488,488,488,488,488,488,488,488,488,488,488,488,487,485,480,477,476,476,476,476,476,476,476,476,476,476,476,476,476,476,476,476,476,469,461,449,434,416,380,367,354,339,332,324,312,304,296,285,272,241,223,197,182,171,153,147,142,137,121,113,101,95],"timestamp_mouse":[10,36,51,71,91,110,131,151,172,191,211,231,251,271,292,311,332,350,370,392,412,430,451,470,491,511,532,552,572,592,611,632,651,670,691,711,730,752,772,791,811,831,851,871,892,911,931,952,971,991,1011,1031,1052,1070,1091,1111,1132,1150,1171,1191,1211,1231,1250,1271,1292,1310,1331,1351,1371,1392,1411,1432,1451,1472,1491,1510,1531,1550,1572,1592,1611,1631,1651,1672,1690,1711,1730,1750,1772,1791,1811,1831,1850,1871,1891,1911,1931,1951,1972,1990,2010,2030,2052,2071,2091,2110,2131,2152,2172,2191,2211,2230],"xSR":741.5,"ySR":469.95,"xT1":424.9,"yT1":0,"xT2":1058.1,"yT2":0,"toosoon":0,"cond_shown":"Congruent","ratio_trial":300,"L_num":4,"L_den":20,"R_num":13,"R_den":26,"correct_side":2,"subjID":"Aleixer Camacho Bernal 1","gender":"0","school":"6","age":"11"},{"start_time":1551800943550,"click_time":1551800946253,"finger_time":1551800946094,"fix_duration":1274.8342481556533,"trial":10,"RT":2544,"MT":159,"sideResp":1,"stimulus":[],"xmouse":[785,785,785,785,785,785,785,785,786,786,786,787,787,788,788,789,791,792,792,792,792,792,794,794,794,794,794,794,795,795,795,795,795,795,795,795,795,795,795,795,795,795,795,795,795,795,795,795,795,795,795,795,795,795,795,795,795,795,795,795,795,795,795,795,795,795,795,795,795,795,795,795,795,795,795,795,795,795,795,795,795,795,795,795,795,795,795,795,795,795,795,795,795,795,795,795,795,795,795,795,795,795,795,795,795,795,795,795,795,795,795,795,795,795,795,795,795,795,795,795,795,795,795,795,795,795,795,794,788,777,764,711,668,617,539,492],"ymouse":[488,488,488,488,488,488,488,488,488,488,488,488,488,488,488,486,484,483,483,482,482,482,480,479,479,479,479,479,478,478,478,478,478,478,478,478,478,478,478,478,478,478,478,478,478,478,478,478,478,478,478,478,478,478,478,478,478,478,478,478,478,478,478,478,478,478,478,478,478,478,478,478,478,478,478,478,478,478,478,478,478,478,478,478,478,478,478,478,478,478,478,478,478,478,478,478,478,478,478,478,478,478,478,478,478,478,478,478,478,478,478,478,478,478,478,478,478,478,478,477,477,477,477,477,477,476,472,465,449,428,408,325,260,189,97,47],"timestamp_mouse":[9,24,42,63,84,103,124,144,162,184,204,223,243,264,282,303,324,343,363,383,402,424,443,464,484,503,524,543,563,583,603,624,642,664,683,702,724,742,763,783,802,823,842,864,883,903,924,943,962,984,1003,1023,1043,1063,1083,1104,1124,1143,1163,1183,1202,1222,1243,1263,1284,1304,1323,1342,1364,1382,1404,1424,1442,1463,1482,1503,1524,1544,1564,1583,1602,1624,1644,1664,1683,1703,1723,1743,1764,1782,1804,1823,1844,1862,1883,1903,1924,1943,1964,1983,2003,2023,2042,2063,2082,2103,2124,2144,2163,2184,2202,2224,2242,2264,2283,2304,2322,2344,2364,2383,2404,2423,2444,2464,2483,2504,2524,2544,2564,2584,2604,2623,2643,2663,2684,2703],"xSR":741.5,"ySR":469.95,"xT1":424.9,"yT1":0,"xT2":1058.1,"yT2":0,"toosoon":0,"cond_shown":"Incongruent","ratio_trial":100,"L_num":4,"L_den":8,"R_num":8,"R_den":20,"correct_side":1,"subjID":"Aleixer Camacho Bernal 1","gender":"0","school":"6","age":"11"},{"start_time":1551800949931,"click_time":1551800952674,"finger_time":1551800952273,"fix_duration":996.3965900985127,"trial":11,"RT":2342,"MT":401,"sideResp":1,"stimulus":[],"xmouse":[789,789,789,789,790,790,790,790,790,790,790,790,790,790,790,790,790,790,790,790,790,790,790,790,790,790,790,790,790,790,790,790,790,790,790,790,790,790,790,790,790,790,790,790,790,790,790,790,790,790,790,790,790,790,790,790,790,790,790,790,790,790,790,790,790,790,790,790,790,790,790,790,790,790,790,790,790,790,790,790,790,790,790,790,790,790,790,790,790,790,790,790,790,790,790,790,790,790,790,790,790,790,790,790,790,790,790,790,790,790,790,790,790,790,790,786,779,753,652,606,583,575,572,569,563,559,555,552,547,546,545,542,537,517,498,485,474,464],"ymouse":[495,495,495,495,495,496,496,496,496,496,496,496,496,496,496,496,496,496,496,496,496,496,496,496,496,496,496,496,496,496,496,496,497,497,497,497,497,497,497,497,497,497,497,497,497,497,497,497,497,497,497,497,497,497,497,497,497,497,497,497,497,497,497,497,497,497,497,497,497,497,497,497,497,497,497,497,497,497,497,497,497,497,497,497,497,497,497,497,497,497,497,497,497,497,497,497,497,497,497,497,497,497,497,497,497,497,497,497,497,497,497,497,497,497,497,492,483,444,285,220,189,174,163,160,151,146,141,140,138,138,137,136,132,122,113,105,101,97],"timestamp_mouse":[8,23,42,61,82,102,123,142,161,182,201,222,242,262,281,301,323,342,363,382,403,422,441,463,481,501,523,543,561,582,601,622,643,662,683,702,723,743,761,782,802,822,842,861,883,901,921,942,963,982,1002,1023,1041,1063,1082,1101,1122,1142,1161,1183,1202,1222,1243,1263,1281,1302,1322,1342,1361,1383,1401,1421,1443,1462,1482,1502,1522,1543,1563,1583,1602,1622,1642,1663,1681,1702,1721,1750,1762,1782,1803,1822,1841,1863,1881,1902,1923,1943,1963,1982,2001,2022,2043,2061,2082,2101,2123,2143,2173,2181,2201,2223,2243,2262,2282,2301,2322,2342,2363,2382,2403,2422,2442,2461,2481,2503,2522,2543,2562,2582,2601,2622,2642,2662,2683,2702,2721,2743],"xSR":741.5,"ySR":469.95,"xT1":424.9,"yT1":0,"xT2":1058.1,"yT2":0,"toosoon":0,"cond_shown":"Incongruent","ratio_trial":100,"L_num":3,"L_den":6,"R_num":4,"R_den":10,"correct_side":1,"subjID":"Aleixer Camacho Bernal 1","gender":"0","school":"6","age":"11"},{"start_time":1551800954446,"click_time":1551800956073,"finger_time":1551800955614,"fix_duration":250,"trial":12,"RT":1168,"MT":459,"sideResp":2,"stimulus":[],"xmouse":[790,790,790,790,790,790,791,792,792,793,793,794,794,794,794,795,795,795,795,795,796,796,796,797,797,797,797,797,797,797,797,797,797,797,797,797,797,797,797,797,797,797,797,797,797,797,797,797,797,797,797,797,797,797,797,797,797,798,801,805,817,838,933,987,1027,1049,1060,1065,1065,1065,1065,1065,1065,1065,1065,1065,1065,1065,1065,1067,1068,1073],"ymouse":[478,478,478,478,478,478,478,478,478,477,477,476,475,475,475,475,475,475,474,474,474,474,474,473,473,473,473,473,473,473,473,473,473,473,473,473,473,473,473,473,473,473,473,473,473,473,473,473,473,471,471,471,471,471,471,471,471,470,465,456,437,406,298,253,219,199,186,174,170,168,167,167,163,160,155,150,143,131,121,116,109,98],"timestamp_mouse":[8,27,47,66,86,106,126,146,166,187,207,227,246,266,286,306,326,347,367,387,407,427,448,467,487,507,528,547,566,587,608,627,647,666,686,708,727,747,768,787,807,828,846,866,888,906,926,948,967,986,1006,1027,1046,1068,1088,1106,1126,1148,1168,1187,1206,1226,1247,1266,1288,1307,1327,1346,1366,1387,1408,1426,1446,1468,1487,1506,1526,1546,1567,1587,1608,1627],"xSR":741.5,"ySR":469.95,"xT1":424.9,"yT1":0,"xT2":1058.1,"yT2":0,"toosoon":0,"cond_shown":"Congruent","ratio_trial":100,"L_num":3,"L_den":6,"R_num":2,"R_den":5,"correct_side":1,"subjID":"Aleixer Camacho Bernal 1","gender":"0","school":"6","age":"11"},{"start_time":1551800957646,"click_time":1551800959012,"finger_time":1551800958673,"fix_duration":250,"trial":13,"RT":1027,"MT":339,"sideResp":1,"stimulus":[],"xmouse":[760,760,760,760,760,760,760,760,760,760,760,760,760,760,760,761,761,762,762,762,762,763,763,763,763,764,765,767,768,770,771,771,771,771,771,771,771,771,771,771,772,772,772,772,772,772,772,772,772,772,772,759,746,728,707,684,646,629,603,592,589,588,586,585,583,577,569,538,509],"ymouse":[485,485,485,485,485,485,485,485,485,485,485,485,485,485,485,487,489,491,492,494,495,495,495,495,495,496,496,494,493,492,491,490,490,490,490,490,490,490,490,488,487,485,485,485,485,485,485,485,485,482,478,453,432,407,377,344,278,240,179,150,136,113,103,99,94,88,81,61,51],"timestamp_mouse":[9,40,46,66,86,107,126,146,166,187,207,227,247,266,287,308,327,347,367,386,407,428,446,467,486,507,527,547,567,588,606,626,646,667,688,706,726,746,767,787,806,827,847,867,886,906,926,946,967,986,1006,1027,1046,1066,1088,1106,1127,1146,1168,1187,1206,1228,1246,1266,1287,1306,1326,1346,1366],"xSR":741.5,"ySR":469.95,"xT1":424.9,"yT1":0,"xT2":1058.1,"yT2":0,"toosoon":0,"cond_shown":"Incongruent","ratio_trial":200,"L_num":1,"L_den":2,"R_num":3,"R_den":10,"correct_side":1,"subjID":"Aleixer Camacho Bernal 1","gender":"0","school":"6","age":"11"},{"start_time":1551800960878,"click_time":1551800962872,"finger_time":1551800962373,"fix_duration":485.0337701727427,"trial":14,"RT":1495,"MT":499,"sideResp":1,"stimulus":[],"xmouse":[795,795,795,795,795,795,796,796,796,796,796,796,796,796,796,796,796,796,796,796,796,796,796,796,796,796,796,796,796,796,796,796,796,796,796,796,796,796,796,796,796,796,796,796,796,796,796,796,796,796,796,796,796,796,796,796,796,796,796,796,796,796,796,797,797,797,797,797,797,797,797,797,797,797,797,795,791,783,773,757,705,672,643,617,592,589,589,589,589,588,583,577,569,562,554,532,512,498,487,484],"ymouse":[473,473,473,473,473,473,474,474,474,474,474,474,474,474,474,474,474,474,474,474,474,474,474,474,474,474,474,474,474,474,474,474,474,474,474,474,474,474,474,474,474,474,474,474,474,474,474,474,474,474,474,474,474,474,474,474,474,474,474,474,473,472,472,470,470,470,470,470,470,470,470,470,470,470,469,466,458,449,435,418,354,312,271,235,199,195,194,194,194,192,188,183,176,170,164,145,125,111,101,98],"timestamp_mouse":[14,35,55,76,95,114,134,154,174,195,215,236,255,275,296,315,335,356,374,395,415,434,455,474,494,514,534,555,576,595,615,636,655,674,694,715,734,755,774,795,816,834,854,875,894,914,934,954,975,995,1014,1035,1054,1075,1095,1116,1135,1155,1175,1196,1215,1234,1254,1274,1294,1315,1335,1354,1374,1394,1415,1434,1455,1474,1495,1514,1535,1555,1574,1594,1614,1634,1655,1674,1695,1714,1734,1754,1774,1795,1814,1834,1856,1874,1896,1914,1935,1955,1975,1994],"xSR":741.5,"ySR":469.95,"xT1":424.9,"yT1":0,"xT2":1058.1,"yT2":0,"toosoon":0,"cond_shown":"Congruent","ratio_trial":300,"L_num":7,"L_den":14,"R_num":20,"R_den":25,"correct_side":2,"subjID":"Aleixer Camacho Bernal 1","gender":"0","school":"6","age":"11"},{"start_time":1551800965545,"click_time":1551800966912,"finger_time":1551800966413,"fix_duration":1251.5390541451686,"trial":15,"RT":868,"MT":499,"sideResp":1,"stimulus":[],"xmouse":[792,792,792,792,792,792,792,792,792,792,792,792,792,792,792,792,792,792,792,792,792,792,792,792,792,792,792,792,792,792,792,792,792,792,792,792,792,792,792,792,792,792,788,778,749,685,600,486,477,477,477,477,478,478,478,478,478,478,478,478,479,480,480,480,479,477,474,463,456],"ymouse":[488,488,488,488,488,488,488,488,488,488,488,488,488,488,488,488,488,488,488,488,488,488,488,488,488,488,488,488,488,488,488,488,488,488,488,488,488,488,488,488,488,484,475,463,433,380,319,228,216,215,215,213,204,196,189,181,172,168,162,155,149,141,134,131,128,124,121,105,95],"timestamp_mouse":[12,27,48,67,87,109,127,147,168,189,208,227,247,268,288,307,327,348,367,387,407,427,447,467,487,507,527,547,568,587,609,628,648,669,687,707,727,747,767,788,808,828,847,868,887,907,927,947,967,988,1007,1028,1047,1068,1087,1108,1127,1147,1168,1188,1208,1227,1248,1267,1288,1307,1327,1347,1367],"xSR":741.5,"ySR":469.95,"xT1":424.9,"yT1":0,"xT2":1058.1,"yT2":0,"toosoon":0,"cond_shown":"Incongruent","ratio_trial":100,"L_num":3,"L_den":5,"R_num":8,"R_den":16,"correct_side":1,"subjID":"Aleixer Camacho Bernal 1","gender":"0","school":"6","age":"11"},{"start_time":1551800969457,"click_time":1551800971574,"finger_time":1551800971073,"fix_duration":1463.5252644778395,"trial":16,"RT":1616,"MT":501,"sideResp":2,"stimulus":[],"xmouse":[802,802,802,802,802,802,802,802,802,802,802,802,802,802,802,802,802,802,802,802,802,802,802,802,802,802,802,802,802,802,802,802,802,802,802,802,802,802,802,802,802,802,802,802,802,802,802,802,802,802,802,802,802,802,802,802,802,802,802,802,802,802,802,802,802,802,802,802,802,802,802,802,802,802,802,802,802,802,808,816,850,875,910,939,969,1009,1020,1029,1033,1037,1037,1037,1037,1038,1039,1039,1041,1050,1054,1056,1058,1058,1058,1058,1058,1060],"ymouse":[488,488,488,488,488,488,488,488,488,488,488,488,488,488,488,488,488,488,488,488,488,488,488,488,488,488,488,488,488,488,488,488,488,488,488,488,488,488,488,488,488,488,488,488,488,488,488,488,488,488,488,488,488,488,488,488,488,488,488,488,488,488,488,488,488,488,488,488,488,488,488,488,488,488,488,488,487,485,478,472,442,422,391,365,340,301,285,255,231,203,143,118,102,94,92,92,89,86,85,85,84,84,84,84,84,84],"timestamp_mouse":[16,35,57,75,96,115,135,155,175,197,215,235,255,276,295,316,336,355,375,397,415,436,455,475,496,517,536,555,575,597,616,636,656,676,695,716,737,757,777,795,816,836,856,875,896,915,937,955,975,996,1015,1036,1056,1076,1095,1115,1135,1155,1175,1195,1215,1237,1255,1276,1295,1316,1336,1355,1376,1395,1415,1435,1456,1476,1495,1515,1535,1555,1576,1596,1616,1635,1656,1675,1695,1717,1736,1755,1776,1795,1816,1835,1856,1876,1895,1916,1936,1955,1976,1995,2016,2035,2055,2075,2096,2117],"xSR":741.5,"ySR":469.95,"xT1":424.9,"yT1":0,"xT2":1058.1,"yT2":0,"toosoon":0,"cond_shown":"Congruent","ratio_trial":200,"L_num":3,"L_den":6,"R_num":14,"R_den":20,"correct_side":2,"subjID":"Aleixer Camacho Bernal 1","gender":"0","school":"6","age":"11"},{"start_time":1551800984888,"click_time":1551800987114,"finger_time":1551800986532,"fix_duration":1454.324558135037,"trial":17,"RT":1644,"MT":582,"sideResp":2,"stimulus":[],"xmouse":[779,779,779,779,779,779,779,779,779,779,779,779,779,779,779,779,779,780,782,785,786,787,787,788,788,788,788,788,788,788,788,788,788,788,788,788,788,788,788,788,788,788,788,788,788,788,788,788,788,788,788,788,788,788,788,788,788,791,794,797,800,801,801,801,801,801,801,801,801,801,801,801,801,801,801,801,801,801,801,801,801,805,813,829,849,912,964,1022,1050,1076,1125,1145,1160,1176,1197,1206,1211,1212,1212,1212,1212,1212,1212,1212,1212,1193,1185,1174,1166,1162,1159,1158],"ymouse":[515,515,515,515,515,515,515,515,515,515,515,515,515,515,515,515,515,514,512,508,507,505,504,504,504,504,504,504,504,504,504,504,504,504,504,504,504,504,504,504,504,504,504,504,504,504,504,504,504,504,504,504,504,504,504,504,504,499,494,491,484,482,481,481,481,481,481,481,481,481,481,481,481,481,481,481,481,481,481,481,481,475,465,448,433,389,354,304,274,242,183,153,129,102,59,32,17,5,5,5,5,5,5,5,5,0,7,18,24,28,31,33],"timestamp_mouse":[8,25,44,66,85,104,124,144,165,185,205,225,245,265,285,305,325,344,364,385,405,424,444,465,485,504,525,544,564,584,604,625,644,664,684,704,725,746,765,786,805,824,845,864,884,904,925,944,966,984,1005,1024,1046,1066,1085,1104,1124,1146,1165,1184,1204,1225,1245,1264,1284,1305,1324,1346,1365,1385,1406,1424,1444,1465,1484,1505,1525,1544,1564,1585,1605,1625,1644,1664,1685,1704,1724,1744,1764,1786,1805,1825,1845,1864,1885,1904,1926,1944,1965,1986,2005,2025,2044,2064,2085,2104,2124,2144,2164,2184,2205,2225],"xSR":741.5,"ySR":469.95,"xT1":424.9,"yT1":0,"xT2":1058.1,"yT2":0,"toosoon":0,"cond_shown":"Congruent","ratio_trial":200,"L_num":8,"L_den":15,"R_num":7,"R_den":21,"correct_side":1,"subjID":"Aleixer Camacho Bernal 1","gender":"0","school":"6","age":"11"},{"start_time":1551800989051,"click_time":1551800990253,"finger_time":1551800989693,"fix_duration":397.17915307439745,"trial":18,"RT":642,"MT":560,"sideResp":2,"stimulus":[],"xmouse":[775,775,775,775,775,775,773,773,773,773,773,773,773,773,773,773,773,773,773,773,773,773,773,773,773,773,773,773,773,773,773,800,830,879,945,1015,1158,1238,1263,1274,1281,1283,1284,1284,1284,1284,1284,1281,1273,1264,1254,1244,1225,1213,1198,1186,1176,1160,1144,1130,1125],"ymouse":[505,505,505,505,505,502,497,497,496,496,496,496,496,496,496,496,496,496,496,496,496,496,496,496,496,496,496,496,496,496,494,479,465,445,421,390,331,293,280,271,262,257,253,253,253,252,250,241,232,220,209,197,171,158,145,134,126,115,107,100,96],"timestamp_mouse":[8,22,41,62,82,102,122,142,162,182,201,221,241,262,281,303,321,342,362,383,401,421,441,461,481,502,521,542,562,581,601,623,642,661,682,702,722,741,761,781,802,822,841,862,881,901,921,941,962,982,1001,1021,1041,1062,1082,1103,1121,1142,1161,1181,1202],"xSR":741.5,"ySR":469.95,"xT1":424.9,"yT1":0,"xT2":1058.1,"yT2":0,"toosoon":0,"cond_shown":"Incongruent","ratio_trial":100,"L_num":12,"L_den":24,"R_num":9,"R_den":15,"correct_side":2,"subjID":"Aleixer Camacho Bernal 1","gender":"0","school":"6","age":"11"},{"start_time":1551800991524,"click_time":1551800993374,"finger_time":1551800992773,"fix_duration":250,"trial":19,"RT":1249,"MT":601,"sideResp":1,"stimulus":[],"xmouse":[815,815,815,815,815,815,815,815,815,815,815,815,815,815,815,815,815,815,815,815,815,815,815,815,815,815,815,815,815,815,815,815,815,815,815,815,815,815,815,815,815,815,815,815,815,815,815,815,815,815,815,815,815,815,815,815,815,815,813,808,803,797,783,772,749,725,708,708,708,708,708,708,708,708,708,708,708,708,708,708,708,708,708,708,708,708,708,708,708,708,530,528,520],"ymouse":[502,502,502,502,502,502,502,502,502,502,502,502,502,502,502,502,502,502,502,502,502,502,502,502,502,502,502,502,502,502,502,502,502,502,502,502,502,502,502,502,502,502,502,502,502,502,502,502,502,502,502,502,502,502,502,502,502,502,502,498,490,473,398,325,208,124,28,28,28,28,28,28,28,28,28,28,28,28,28,28,28,28,28,28,28,28,28,28,28,28,0,2,15],"timestamp_mouse":[12,37,48,69,88,108,129,148,168,188,209,228,249,269,290,309,329,349,370,389,408,429,448,469,489,510,529,549,569,590,609,628,649,670,689,709,728,749,769,790,809,830,849,868,888,909,930,949,969,990,1008,1029,1048,1070,1089,1109,1128,1148,1169,1189,1210,1229,1249,1268,1289,1309,1328,1348,1370,1390,1408,1429,1449,1468,1488,1509,1528,1549,1569,1588,1608,1628,1649,1670,1689,1709,1730,1749,1768,1788,1808,1828,1849],"xSR":741.5,"ySR":469.95,"xT1":424.9,"yT1":0,"xT2":1058.1,"yT2":0,"toosoon":0,"cond_shown":"Congruent","ratio_trial":300,"L_num":9,"L_den":10,"R_num":3,"R_den":5,"correct_side":1,"subjID":"Aleixer Camacho Bernal 1","gender":"0","school":"6","age":"11"},{"start_time":1551800996008,"click_time":1551800997853,"finger_time":1551800996793,"fix_duration":993.053280450263,"trial":20,"RT":785,"MT":1060,"sideResp":2,"stimulus":[],"xmouse":[828,828,828,828,828,828,828,828,828,828,828,828,828,828,828,828,828,828,828,828,828,828,828,828,828,828,828,828,828,828,828,828,828,828,827,827,826,826,820,812,803,798,792,789,785,785,785,785,785,785,785,785,785,784,784,784,783,781,768,760,741,719,692,665,643,642,642,642,641,641,649,669,710,787,1069,1233,1352,1417,1428,1428,1428,1428,1428,1423,1399,1382,1367,1351,1340,1321,1272,1207,1157],"ymouse":[546,546,546,546,546,546,546,546,546,546,546,546,546,546,546,546,546,546,546,546,546,546,546,546,546,546,546,546,546,546,546,546,545,542,539,535,530,523,493,468,438,419,400,383,370,368,367,367,366,366,366,366,366,365,365,365,364,362,352,346,327,297,258,224,192,191,190,190,188,185,184,182,182,188,271,313,333,342,344,344,344,344,343,331,279,254,233,211,198,173,130,86,59],"timestamp_mouse":[9,34,45,65,84,104,126,145,165,185,205,224,244,264,284,305,324,344,364,384,404,426,446,465,484,504,524,545,564,584,605,625,645,665,685,705,724,745,765,785,804,825,845,864,884,904,924,946,964,985,1004,1025,1045,1064,1084,1105,1124,1144,1165,1184,1205,1225,1246,1265,1285,1305,1324,1345,1364,1385,1405,1424,1445,1464,1485,1504,1524,1545,1565,1585,1604,1625,1644,1665,1685,1704,1724,1745,1764,1785,1804,1824,1845],"xSR":741.5,"ySR":469.95,"xT1":424.9,"yT1":0,"xT2":1058.1,"yT2":0,"toosoon":0,"cond_shown":"Congruent","ratio_trial":300,"L_num":4,"L_den":10,"R_num":1,"R_den":10,"correct_side":1,"subjID":"Aleixer Camacho Bernal 1","gender":"0","school":"6","age":"11"},{"start_time":1551801003226,"click_time":1551801004652,"finger_time":1551801004313,"fix_duration":671.2239157182804,"trial":21,"RT":1087,"MT":339,"sideResp":1,"stimulus":[],"xmouse":[816,816,816,816,816,816,816,816,816,816,816,816,816,816,816,816,816,816,816,816,816,816,816,816,816,816,816,816,816,816,816,816,816,816,816,816,816,816,816,816,816,816,816,816,816,816,816,816,816,816,816,816,816,813,794,764,732,695,691,691,691,691,691,691,691,691,689,677,653,589,550,520],"ymouse":[509,509,509,509,509,509,509,509,509,509,509,509,509,509,509,509,509,509,509,509,509,509,509,509,509,509,509,509,509,509,509,509,509,509,509,509,509,509,509,509,509,509,509,509,509,509,509,509,509,509,509,509,509,509,468,398,323,180,141,133,132,132,132,132,130,127,123,114,100,63,43,29],"timestamp_mouse":[10,32,46,66,86,107,126,147,166,186,208,226,246,266,287,307,326,346,366,387,406,426,447,467,486,506,528,547,566,588,607,626,646,666,686,707,726,746,767,786,807,826,847,867,888,907,926,946,967,986,1006,1026,1047,1066,1087,1107,1127,1147,1166,1186,1206,1226,1248,1267,1286,1307,1327,1347,1366,1386,1407,1426],"xSR":741.5,"ySR":469.95,"xT1":424.9,"yT1":0,"xT2":1058.1,"yT2":0,"toosoon":0,"cond_shown":"Congruent","ratio_trial":300,"L_num":4,"L_den":20,"R_num":13,"R_den":26,"correct_side":2,"subjID":"Aleixer Camacho Bernal 1","gender":"0","school":"6","age":"11"},{"start_time":1551801018772,"click_time":1551801020213,"finger_time":1551801019552,"fix_duration":956.5860340684657,"trial":22,"RT":780,"MT":661,"sideResp":2,"stimulus":[],"xmouse":[813,813,813,813,813,813,813,813,813,813,813,813,813,813,813,813,813,813,813,813,813,813,813,813,813,813,813,813,813,813,813,813,813,813,813,813,813,823,835,883,942,1042,1098,1119,1134,1173,1198,1220,1237,1246,1248,1249,1249,1249,1248,1244,1235,1230,1223,1216,1207,1183,1182,1181,1181,1181,1181,1181,1181,1179,1177,1164,1148],"ymouse":[488,488,488,488,488,488,488,488,488,488,488,488,488,488,488,488,488,488,488,488,488,488,488,488,488,488,488,488,488,488,488,488,488,488,488,488,488,483,476,448,413,325,284,274,264,248,237,228,218,214,212,212,212,211,211,210,205,201,195,182,159,89,79,74,71,70,67,64,62,60,58,56,53],"timestamp_mouse":[8,21,40,60,80,101,121,140,160,181,202,221,241,261,280,303,320,341,362,381,401,420,440,460,480,502,520,542,560,581,601,620,640,661,680,701,720,741,761,780,801,820,840,860,881,902,920,941,960,980,1000,1022,1042,1060,1080,1102,1120,1141,1161,1180,1200,1221,1241,1261,1281,1300,1321,1341,1361,1381,1400,1421,1441],"xSR":741.5,"ySR":469.95,"xT1":424.9,"yT1":0,"xT2":1058.1,"yT2":0,"toosoon":0,"cond_shown":"Congruent","ratio_trial":100,"L_num":6,"L_den":12,"R_num":15,"R_den":25,"correct_side":2,"subjID":"Aleixer Camacho Bernal 1","gender":"0","school":"6","age":"11"},{"start_time":1551801021804,"click_time":1551801023392,"finger_time":1551801022934,"fix_duration":250,"trial":23,"RT":1130,"MT":458,"sideResp":1,"stimulus":[],"xmouse":[792,792,792,792,792,792,792,792,792,792,792,792,792,792,792,792,792,792,792,792,792,792,792,792,792,792,792,792,792,792,792,792,792,792,792,792,792,792,792,792,792,792,792,792,792,792,792,792,792,792,792,792,792,792,792,791,791,791,791,786,786,783,782,780,774,769,764,760,758,755,749,723,688,633,609,599,591,580,546,523],"ymouse":[494,494,494,494,494,494,494,494,494,494,494,494,494,494,494,494,494,494,494,494,494,494,494,494,494,494,494,494,494,494,494,494,494,494,494,494,494,494,494,494,494,494,494,494,494,494,494,494,494,494,494,494,494,494,494,486,455,397,296,256,242,227,217,205,180,164,151,142,135,130,125,111,96,73,63,58,55,50,37,31],"timestamp_mouse":[10,32,48,69,89,110,129,149,170,188,208,228,249,268,289,309,328,350,369,390,408,428,448,468,488,508,529,549,570,589,608,629,648,669,688,709,728,748,768,790,808,828,849,868,889,909,929,948,968,989,1008,1030,1049,1068,1089,1110,1130,1148,1169,1188,1209,1229,1249,1269,1289,1308,1329,1349,1369,1388,1408,1429,1448,1469,1488,1509,1528,1549,1569,1588],"xSR":741.5,"ySR":469.95,"xT1":424.9,"yT1":0,"xT2":1058.1,"yT2":0,"toosoon":0,"cond_shown":"Incongruent","ratio_trial":300,"L_num":1,"L_den":2,"R_num":2,"R_den":10,"correct_side":1,"subjID":"Aleixer Camacho Bernal 1","gender":"0","school":"6","age":"11"},{"start_time":1551801024884,"click_time":1551801027353,"finger_time":1551801027092,"fix_duration":250,"trial":24,"RT":2208,"MT":261,"sideResp":1,"stimulus":[],"xmouse":[775,775,775,775,775,775,775,775,775,775,775,775,775,775,775,775,775,775,775,775,775,775,775,775,775,775,775,775,775,775,775,775,775,775,775,775,775,775,775,775,775,775,775,775,775,775,775,775,775,775,775,775,775,775,775,775,775,775,775,775,775,775,775,775,775,775,775,775,775,775,775,775,775,775,775,775,775,775,775,775,775,775,775,775,775,775,775,775,775,775,775,775,775,775,775,775,775,775,775,775,775,775,775,775,775,775,775,775,775,775,775,775,775,775,745,697,663,636,608,563,545,535,525,519],"ymouse":[498,498,498,498,498,498,498,498,498,498,498,498,498,498,498,498,498,498,498,498,498,498,498,498,498,498,498,498,498,498,498,498,498,498,498,498,498,498,498,498,498,498,498,498,498,498,498,498,498,498,498,498,498,498,498,498,498,498,498,498,498,498,498,498,498,498,498,498,498,498,498,498,498,498,498,498,498,498,498,498,498,498,498,498,498,498,498,498,498,498,498,498,498,498,498,498,498,498,498,498,498,498,498,498,498,498,498,498,498,482,445,416,384,351,255,191,164,149,133,108,99,92,86,81],"timestamp_mouse":[9,39,49,68,88,109,129,148,168,189,209,228,249,268,288,309,330,348,369,389,408,428,448,469,489,509,529,548,568,588,609,629,648,668,689,708,728,748,769,788,809,828,848,868,888,909,928,948,969,989,1008,1030,1048,1069,1089,1108,1128,1150,1169,1189,1208,1228,1249,1269,1288,1308,1329,1349,1369,1388,1410,1428,1448,1469,1489,1509,1529,1549,1569,1588,1609,1629,1648,1669,1688,1709,1729,1749,1768,1789,1809,1829,1849,1868,1888,1909,1929,1949,1968,1989,2010,2029,2049,2069,2090,2108,2129,2148,2168,2189,2208,2229,2248,2269,2289,2308,2329,2349,2368,2390,2408,2429,2448,2468],"xSR":741.5,"ySR":469.95,"xT1":424.9,"yT1":0,"xT2":1058.1,"yT2":0,"toosoon":0,"cond_shown":"Congruent","ratio_trial":200,"L_num":15,"L_den":25,"R_num":4,"R_den":10,"correct_side":1,"subjID":"Aleixer Camacho Bernal 1","gender":"0","school":"6","age":"11"},{"start_time":1551801028745,"click_time":1551801032392,"finger_time":1551801030833,"fix_duration":250,"trial":25,"RT":2088,"MT":1559,"sideResp":1,"stimulus":[],"xmouse":[787,787,787,787,786,786,786,786,786,786,786,786,786,786,786,786,786,786,786,786,786,786,786,786,786,785,780,776,774,774,774,774,774,774,774,774,774,774,774,774,774,774,774,774,774,774,774,774,774,774,774,774,774,774,774,774,774,774,774,774,774,774,774,774,774,774,774,774,774,774,774,774,774,786,798,805,811,811,811,811,811,811,811,811,811,811,811,811,811,811,811,811,811,811,811,811,804,804,804,804,802,799,786,766,741,713,685,680,680,680,679,663,653,652,652,652,652,652,652,652,655,655,704,740,755,761,762,762,762,762,762,762,762,762,762,762,762,762,762,762,763,777,827,897,986,1085,1176,1264,1278,1285,1286,1286,1286,1286,1273,1253,1227,1195,1187,1176,1157,1123,1046,1016,1004,1000,984,968,952,935,919,903,861,823,801,778,723,680,632,591,554,526,488],"ymouse":[526,526,525,525,524,524,524,524,524,524,524,524,524,524,524,524,524,524,524,524,524,524,524,524,524,523,521,519,518,518,518,518,518,518,518,518,518,518,518,518,518,518,518,518,518,518,518,518,518,518,518,518,518,518,518,518,518,518,518,518,518,518,518,518,518,518,518,518,518,518,518,518,516,510,507,505,503,503,503,503,503,503,503,503,503,503,503,503,503,503,503,503,503,503,503,503,503,503,503,503,504,504,505,505,505,505,505,505,505,505,505,506,506,506,506,506,506,506,506,506,506,506,505,505,508,509,509,509,509,509,509,509,509,509,509,509,509,509,509,509,509,508,488,458,421,377,343,302,293,288,287,287,287,284,275,265,250,217,201,184,159,126,81,69,67,67,67,67,67,67,67,67,67,67,67,67,62,55,43,32,24,18,9],"timestamp_mouse":[7,27,48,68,87,107,127,148,168,187,207,228,247,267,288,307,327,348,367,388,409,427,447,468,488,508,528,549,567,587,608,628,647,667,687,707,728,747,767,787,808,827,848,867,888,908,928,948,967,987,1007,1027,1049,1067,1088,1108,1128,1147,1168,1187,1208,1228,1247,1267,1288,1307,1327,1347,1368,1387,1408,1428,1448,1467,1488,1508,1528,1547,1567,1587,1607,1627,1648,1667,1687,1707,1727,1749,1768,1787,1808,1828,1849,1868,1889,1908,1928,1947,1967,1987,2008,2027,2049,2067,2088,2108,2128,2147,2167,2188,2207,2229,2247,2268,2288,2307,2328,2349,2367,2388,2407,2427,2447,2467,2487,2507,2527,2548,2568,2588,2607,2627,2648,2667,2687,2707,2728,2747,2767,2787,2807,2828,2848,2868,2888,2907,2927,2947,2967,2989,3007,3028,3047,3068,3087,3108,3128,3148,3167,3187,3208,3228,3248,3268,3287,3309,3329,3347,3367,3387,3407,3427,3447,3467,3488,3507,3529,3547,3567,3587,3608,3628,3647],"xSR":741.5,"ySR":469.95,"xT1":424.9,"yT1":0,"xT2":1058.1,"yT2":0,"toosoon":0,"cond_shown":"Incongruent","ratio_trial":200,"L_num":9,"L_den":15,"R_num":8,"R_den":10,"correct_side":2,"subjID":"Aleixer Camacho Bernal 1","gender":"0","school":"6","age":"11"},{"start_time":1551801033647,"click_time":1551801035132,"finger_time":1551801034392,"fix_duration":291.32600502646477,"trial":26,"RT":745,"MT":740,"sideResp":1,"stimulus":[],"xmouse":[773,773,773,773,773,773,773,773,773,773,773,773,773,773,773,773,775,778,780,781,781,781,781,781,781,781,781,781,781,781,781,781,781,781,781,790,803,928,1058,1118,1142,1152,1152,1154,1155,1155,1156,1160,1164,1168,1171,1172,1172,1172,1169,1157,1137,1088,1046,1005,964,918,796,721,657,616,594,571,571,571,571,570,553,533,515],"ymouse":[493,493,493,493,493,493,493,493,493,493,493,493,493,493,493,493,493,493,493,493,493,493,493,493,493,493,493,493,493,493,493,493,493,493,493,493,486,431,375,346,333,323,319,315,311,308,299,286,272,258,244,236,232,231,227,222,214,201,193,188,181,175,150,136,119,108,101,93,93,93,93,93,81,70,63],"timestamp_mouse":[8,25,45,66,85,105,125,145,166,185,205,226,246,265,285,305,325,345,366,386,405,426,445,465,485,505,525,545,565,585,606,626,645,665,685,706,725,745,765,786,805,827,845,866,885,905,927,945,965,986,1006,1026,1045,1065,1085,1105,1125,1146,1165,1186,1206,1225,1246,1266,1285,1305,1326,1346,1365,1385,1406,1425,1446,1467,1485],"xSR":741.5,"ySR":469.95,"xT1":424.9,"yT1":0,"xT2":1058.1,"yT2":0,"toosoon":0,"cond_shown":"Congruent","ratio_trial":200,"L_num":6,"L_den":15,"R_num":3,"R_den":15,"correct_side":1,"subjID":"Aleixer Camacho Bernal 1","gender":"0","school":"6","age":"11"},{"start_time":1551801039937,"click_time":1551801041853,"finger_time":1551801041492,"fix_duration":1143.319560403784,"trial":27,"RT":1555,"MT":361,"sideResp":1,"stimulus":[],"xmouse":[816,816,816,816,816,816,816,816,816,816,816,816,816,816,816,816,816,816,816,816,816,816,816,816,816,816,816,816,816,816,816,816,816,816,816,816,816,816,816,816,816,816,816,816,816,816,816,816,816,816,816,816,816,816,816,816,816,816,816,816,816,816,816,816,816,816,816,816,816,816,816,816,816,816,816,816,816,802,764,715,656,606,561,555,552,547,540,528,528,528,527,526,525,521,520,517],"ymouse":[486,486,486,486,486,486,486,486,486,486,486,486,486,486,486,486,486,486,486,486,486,486,486,486,486,486,486,486,486,486,486,486,486,486,486,486,486,486,486,486,486,486,486,486,486,486,486,486,486,486,486,486,486,486,486,486,486,486,486,486,486,486,486,486,486,486,486,486,486,486,486,486,486,486,486,486,486,454,395,331,262,202,154,145,141,134,127,115,113,113,112,109,107,103,101,98],"timestamp_mouse":[15,35,55,75,95,115,136,155,176,195,215,236,255,276,296,315,335,356,376,397,415,436,456,476,496,515,536,557,575,608,617,637,656,675,695,715,735,755,776,796,816,836,856,875,895,915,935,955,975,995,1015,1035,1055,1076,1095,1115,1136,1155,1175,1195,1215,1235,1255,1275,1295,1315,1335,1356,1375,1395,1415,1435,1455,1475,1495,1517,1535,1555,1575,1596,1615,1635,1655,1675,1696,1715,1737,1756,1775,1795,1816,1837,1855,1876,1896,1916],"xSR":741.5,"ySR":469.95,"xT1":424.9,"yT1":0,"xT2":1058.1,"yT2":0,"toosoon":0,"cond_shown":"Congruent","ratio_trial":200,"L_num":8,"L_den":15,"R_num":2,"R_den":6,"correct_side":1,"subjID":"Aleixer Camacho Bernal 1","gender":"0","school":"6","age":"11"},{"start_time":1551801043434,"click_time":1551801045392,"finger_time":1551801044412,"fix_duration":460.7834979212211,"trial":28,"RT":978,"MT":980,"sideResp":1,"stimulus":[],"xmouse":[770,770,770,770,770,770,770,770,770,770,770,770,770,770,770,770,770,770,770,770,770,770,770,770,770,770,770,770,770,770,770,770,770,770,770,770,770,770,770,770,770,770,770,770,770,770,770,765,749,739,734,734,734,733,731,729,724,716,710,707,704,695,681,665,652,640,631,617,602,589,570,536,530,530,530,530,530,530,530,529,529,529,529,531,536,538,540,542,542,542,542,542,541,539,538,536,529,511],"ymouse":[509,509,509,509,509,509,509,509,509,509,509,509,509,509,509,509,509,509,509,509,509,509,509,509,509,509,509,509,509,509,509,509,509,509,509,509,509,509,509,509,509,509,509,509,509,509,502,480,444,424,416,414,414,412,406,397,381,351,335,325,319,306,293,280,269,258,249,233,226,220,212,193,188,188,188,188,188,188,188,184,177,172,160,153,141,131,121,109,108,106,102,98,90,87,85,82,79,71],"timestamp_mouse":[18,40,58,78,99,118,140,159,179,198,218,240,259,278,298,318,339,358,378,398,418,438,458,478,498,518,540,558,578,598,619,638,658,678,699,718,738,759,779,798,818,838,859,879,898,919,940,958,978,999,1019,1039,1058,1078,1099,1119,1138,1158,1178,1198,1218,1239,1258,1279,1299,1319,1339,1359,1378,1399,1419,1439,1458,1478,1498,1519,1538,1558,1578,1598,1618,1639,1659,1678,1698,1718,1738,1758,1779,1799,1818,1838,1859,1878,1898,1918,1938,1958],"xSR":741.5,"ySR":469.95,"xT1":424.9,"yT1":0,"xT2":1058.1,"yT2":0,"toosoon":0,"cond_shown":"Incongruent","ratio_trial":300,"L_num":2,"L_den":4,"R_num":6,"R_den":30,"correct_side":1,"subjID":"Aleixer Camacho Bernal 1","gender":"0","school":"6","age":"11"},{"start_time":1551801048728,"click_time":1551801050112,"finger_time":1551801049513,"fix_duration":1074.3273907695077,"trial":29,"RT":785,"MT":599,"sideResp":1,"stimulus":[],"xmouse":[806,806,806,806,806,806,806,806,806,806,806,806,806,806,806,806,806,806,806,805,805,805,805,805,805,804,804,804,804,804,804,804,804,804,804,803,800,794,775,771,771,771,771,771,771,770,763,750,716,697,678,656,623,612,601,594,584,578,566,565,564,563,560,546,528,510,488,467,440,434],"ymouse":[542,542,542,542,541,540,538,537,536,536,535,534,533,533,533,533,533,533,533,531,530,530,530,529,528,528,528,528,528,528,528,528,528,528,528,526,522,515,482,461,438,422,411,393,377,362,347,324,283,263,245,227,198,190,180,174,166,161,153,153,152,151,149,140,129,122,116,110,101,98],"timestamp_mouse":[12,26,44,64,84,105,124,144,165,184,204,224,244,264,284,304,324,345,364,384,405,425,444,465,484,504,525,544,565,585,605,625,644,664,685,704,725,745,765,785,804,825,844,864,885,905,925,944,965,985,1005,1024,1046,1064,1084,1105,1125,1144,1164,1185,1205,1224,1244,1266,1284,1305,1325,1346,1365,1384],"xSR":741.5,"ySR":469.95,"xT1":424.9,"yT1":0,"xT2":1058.1,"yT2":0,"toosoon":0,"cond_shown":"Congruent","ratio_trial":200,"L_num":16,"L_den":20,"R_num":12,"R_den":20,"correct_side":1,"subjID":"Aleixer Camacho Bernal 1","gender":"0","school":"6","age":"11"},{"start_time":1551801051459,"click_time":1551801053232,"finger_time":1551801052233,"fix_duration":265.5989225104185,"trial":30,"RT":774,"MT":999,"sideResp":2,"stimulus":[],"xmouse":[756,756,756,756,756,756,756,756,756,756,756,756,756,756,756,756,756,756,756,756,756,756,756,756,756,756,756,756,756,756,756,756,756,756,756,756,764,814,870,967,1089,1245,1266,1274,1276,1276,1277,1277,1277,1277,1277,1277,1275,1272,1269,1264,1259,1257,1255,1252,1241,1228,1208,1187,1169,1154,1154,1154,1152,1152,1151,1151,1151,1151,1152,1155,1163,1166,1166,1166,1166,1166,1166,1166,1166,1166,1166,1165,1153],"ymouse":[520,520,520,520,520,520,520,520,520,520,520,520,520,520,520,520,520,520,520,520,520,520,520,520,520,520,520,520,520,520,520,520,520,520,520,520,518,500,489,477,473,472,469,465,464,464,462,451,445,439,429,397,373,349,326,288,263,251,242,233,218,208,197,187,179,173,173,173,173,172,171,163,157,152,145,133,97,85,75,71,67,61,60,58,58,57,57,55,53],"timestamp_mouse":[13,34,53,74,93,114,133,153,173,193,214,233,253,273,293,313,334,353,373,393,413,434,453,475,494,514,533,554,574,594,614,633,653,674,693,715,734,754,774,793,813,833,854,873,895,913,934,954,974,994,1013,1033,1053,1073,1094,1114,1134,1153,1173,1193,1214,1233,1254,1273,1294,1314,1333,1355,1373,1394,1413,1433,1455,1473,1493,1513,1533,1554,1573,1594,1614,1634,1653,1674,1693,1713,1734,1753,1773],"xSR":741.5,"ySR":469.95,"xT1":424.9,"yT1":0,"xT2":1058.1,"yT2":0,"toosoon":0,"cond_shown":"Congruent","ratio_trial":300,"L_num":2,"L_den":10,"R_num":12,"R_den":24,"correct_side":2,"subjID":"Aleixer Camacho Bernal 1","gender":"0","school":"6","age":"11"},{"start_time":1551801061091,"click_time":1551801062792,"finger_time":1551801062132,"fix_duration":517.8984750077042,"trial":31,"RT":1041,"MT":660,"sideResp":1,"stimulus":[],"xmouse":[792,792,792,792,792,792,792,792,792,792,792,792,792,792,792,792,792,792,780,777,776,776,776,776,776,776,776,776,776,776,776,776,776,776,776,776,776,776,776,776,776,776,776,776,776,776,776,776,776,776,775,765,758,750,731,706,706,706,706,706,706,706,706,706,706,706,706,706,706,706,706,706,706,706,706,706,706,706,706,706,706,706,706,706,706,449],"ymouse":[520,520,520,520,520,520,520,520,520,520,520,520,520,520,520,520,520,520,520,520,520,520,520,520,520,520,520,520,520,520,520,520,520,520,520,520,520,520,520,520,520,520,520,520,520,520,520,520,520,520,520,490,404,281,138,8,8,8,8,8,8,8,8,8,8,8,8,8,8,8,8,8,8,8,8,8,8,8,8,8,8,8,8,8,8,8],"timestamp_mouse":[10,36,41,62,82,103,122,143,161,182,203,221,241,261,281,303,321,342,362,381,401,422,441,462,482,502,521,541,561,581,601,621,641,661,681,701,721,742,761,782,802,821,841,861,881,901,921,941,961,981,1002,1022,1041,1061,1081,1102,1121,1141,1161,1182,1201,1222,1241,1261,1283,1302,1323,1341,1362,1381,1402,1422,1442,1461,1482,1502,1522,1541,1562,1582,1602,1621,1642,1661,1681,1701],"xSR":741.5,"ySR":469.95,"xT1":424.9,"yT1":0,"xT2":1058.1,"yT2":0,"toosoon":0,"cond_shown":"Congruent","ratio_trial":300,"L_num":11,"L_den":22,"R_num":4,"R_den":20,"correct_side":1,"subjID":"Aleixer Camacho Bernal 1","gender":"0","school":"6","age":"11"},{"start_time":1551801064872,"click_time":1551801066792,"finger_time":1551801066092,"fix_duration":898.4777072434223,"trial":32,"RT":1220,"MT":700,"sideResp":2,"stimulus":[],"xmouse":[827,827,827,827,827,827,827,827,827,827,827,827,827,827,827,827,827,827,827,827,827,827,827,827,827,827,827,827,827,827,827,827,827,827,827,827,827,827,827,827,827,827,827,827,827,827,827,827,827,827,827,827,827,827,827,827,827,827,827,827,831,854,876,909,938,989,1033,1060,1093,1126,1160,1212,1230,1245,1259,1266,1274,1274,1270,1265,1248,1236,1224,1206,1184,1184,1184,1184,1184,1184,1184,1184,1184,1184,1184,1184,1127],"ymouse":[551,551,551,551,551,551,551,551,551,551,551,551,551,551,551,551,551,551,551,551,551,551,551,551,551,551,551,551,551,551,551,551,551,551,551,551,551,551,551,551,551,551,551,551,551,551,551,551,551,551,551,551,551,551,551,551,551,551,551,547,542,520,504,484,467,436,405,387,363,342,322,287,268,246,221,200,157,129,114,97,65,47,32,19,6,6,6,6,6,6,6,6,6,6,6,6,6],"timestamp_mouse":[8,34,41,62,81,101,120,141,160,182,201,221,242,261,281,301,321,340,361,380,400,421,440,460,481,500,521,540,560,581,600,621,642,660,680,701,720,740,760,780,801,820,840,862,880,901,921,940,961,981,1001,1020,1040,1060,1081,1101,1120,1140,1161,1182,1200,1220,1240,1261,1280,1301,1320,1340,1361,1381,1402,1420,1440,1460,1481,1501,1522,1540,1561,1581,1602,1620,1641,1660,1681,1701,1720,1740,1760,1780,1800,1821,1840,1861,1880,1901,1920],"xSR":741.5,"ySR":469.95,"xT1":424.9,"yT1":0,"xT2":1058.1,"yT2":0,"toosoon":0,"cond_shown":"Congruent","ratio_trial":300,"L_num":3,"L_den":12,"R_num":11,"R_den":20,"correct_side":2,"subjID":"Aleixer Camacho Bernal 1","gender":"0","school":"6","age":"11"},{"start_time":1551801069213,"click_time":1551801071873,"finger_time":1551801071193,"fix_duration":1198.9381408774425,"trial":33,"RT":1980,"MT":680,"sideResp":2,"stimulus":[],"xmouse":[781,781,781,781,781,781,781,781,781,781,781,781,781,781,781,781,781,781,781,781,781,781,781,781,781,781,781,781,781,781,781,781,781,781,781,781,781,781,781,781,781,781,781,781,781,781,781,781,781,781,781,781,781,781,787,794,805,817,827,834,835,835,835,835,835,835,835,835,835,835,835,835,835,835,835,835,834,832,829,818,807,797,793,792,792,792,792,792,792,792,792,792,792,792,792,792,792,791,801,944,1125,1257,1389,1506,1506,1506,1506,1506,1506,1534,1445,1339,1208,1093,933,906,899,899,899,899,899,899,899,899,899,899,899,899,911,965,1018,1042,1058,1062],"ymouse":[491,491,491,491,491,491,491,491,491,491,491,491,491,491,491,491,491,491,491,491,491,491,491,491,491,491,491,491,491,491,491,491,491,491,491,491,491,491,491,491,491,491,491,491,491,491,491,491,491,491,491,491,491,491,491,491,490,489,489,489,489,489,489,489,489,489,489,489,489,489,489,489,489,489,489,489,489,489,489,491,493,494,494,494,494,494,494,494,494,494,494,494,494,494,494,494,494,494,492,450,403,365,325,293,293,293,293,293,293,240,215,186,156,132,86,79,77,77,77,77,77,77,77,77,77,77,77,77,75,73,73,73,73,73],"timestamp_mouse":[4,23,39,59,80,100,120,139,160,179,199,219,239,260,280,300,321,339,359,379,399,420,441,459,480,499,520,539,561,580,599,619,640,659,680,699,720,740,760,779,799,820,839,860,879,899,919,939,959,980,999,1021,1039,1059,1079,1099,1120,1140,1159,1180,1199,1219,1239,1260,1280,1301,1320,1339,1359,1379,1400,1420,1441,1459,1480,1499,1519,1540,1560,1579,1599,1620,1639,1659,1679,1701,1720,1740,1760,1779,1799,1819,1840,1861,1880,1899,1919,1941,1959,1980,1999,2019,2039,2062,2080,2100,2119,2139,2159,2179,2200,2220,2240,2259,2280,2300,2319,2339,2359,2380,2399,2420,2440,2460,2479,2499,2520,2541,2559,2580,2600,2619,2640,2659],"xSR":741.5,"ySR":469.95,"xT1":424.9,"yT1":0,"xT2":1058.1,"yT2":0,"toosoon":0,"cond_shown":"Incongruent","ratio_trial":100,"L_num":8,"L_den":16,"R_num":6,"R_den":10,"correct_side":2,"subjID":"Aleixer Camacho Bernal 1","gender":"0","school":"6","age":"11"},{"start_time":1551801074021,"click_time":1551801077354,"finger_time":1551801075594,"fix_duration":746.1285292799242,"trial":34,"RT":1573,"MT":1760,"sideResp":1,"stimulus":[],"xmouse":[790,790,790,790,790,790,790,790,790,790,790,790,790,790,790,790,790,790,790,790,790,790,790,790,790,790,790,790,790,790,790,790,790,790,790,790,790,790,790,790,790,790,790,790,790,790,790,790,790,790,790,790,790,790,790,790,790,790,790,790,790,790,790,790,790,790,790,790,790,790,790,790,790,790,790,790,788,783,728,689,654,622,596,568,559,550,541,534,527,527,527,527,527,527,527,527,527,527,527,527,527,527,527,527,527,527,527,527,527,527,527,527,527,527,527,527,527,527,527,548,577,629,703,872,947,1013,1067,1103,1181,1201,1210,1213,1213,1213,1213,1213,1213,1213,1213,1213,1213,1214,1208,1171,1152,1131,1111,1086,1013,952,864,806,717,691,677,671,670,667,660,642,633,621,606,569,549,531,513],"ymouse":[482,482,482,482,482,482,482,482,482,482,482,482,482,482,482,482,482,482,482,482,482,482,482,482,482,482,482,482,482,482,482,482,482,482,482,482,482,482,482,482,482,482,482,482,482,482,482,482,482,482,482,482,482,482,482,482,482,482,482,482,482,482,482,482,482,482,482,482,482,482,482,482,482,482,482,482,480,470,400,365,342,328,317,299,289,276,265,255,247,247,247,247,247,247,247,247,247,247,247,247,247,247,247,247,247,247,247,247,247,247,247,247,247,247,247,247,247,247,246,236,231,225,220,220,220,220,220,220,220,220,220,220,220,220,220,220,220,220,220,220,220,219,212,192,184,179,175,171,161,151,140,130,115,108,104,101,101,98,92,80,75,69,63,52,46,42,36],"timestamp_mouse":[12,38,52,71,91,111,132,151,172,191,212,231,251,273,291,311,331,351,372,391,413,431,452,472,491,512,531,552,571,591,612,631,651,671,691,711,732,751,771,792,813,831,852,871,891,912,931,952,971,991,1011,1031,1051,1071,1091,1111,1131,1151,1171,1192,1211,1231,1251,1271,1291,1311,1331,1351,1372,1391,1411,1431,1451,1471,1491,1511,1531,1551,1573,1591,1611,1631,1651,1671,1692,1711,1732,1751,1771,1791,1812,1833,1851,1871,1892,1913,1932,1952,1971,1992,2012,2033,2051,2071,2091,2111,2132,2152,2171,2191,2211,2231,2252,2272,2292,2311,2331,2351,2371,2391,2411,2432,2452,2471,2492,2512,2531,2551,2571,2593,2611,2632,2651,2672,2692,2711,2732,2751,2771,2792,2811,2831,2852,2871,2891,2912,2931,2951,2971,2991,3012,3032,3053,3071,3092,3111,3131,3153,3171,3193,3211,3231,3251,3272,3292,3311,3333],"xSR":741.5,"ySR":469.95,"xT1":424.9,"yT1":0,"xT2":1058.1,"yT2":0,"toosoon":0,"cond_shown":"Congruent","ratio_trial":200,"L_num":16,"L_den":30,"R_num":9,"R_den":27,"correct_side":1,"subjID":"Aleixer Camacho Bernal 1","gender":"0","school":"6","age":"11"},{"start_time":1551801079233,"click_time":1551801081254,"finger_time":1551801080833,"fix_duration":538.4067726582456,"trial":35,"RT":1600,"MT":421,"sideResp":1,"stimulus":[],"xmouse":[817,817,817,817,817,817,817,817,817,817,817,817,817,817,817,817,817,817,817,817,817,817,817,817,817,817,817,817,817,817,817,817,817,817,817,817,817,817,817,817,817,817,817,817,817,817,817,817,817,817,817,817,817,817,817,817,817,817,817,817,817,817,817,817,817,817,817,817,817,817,817,817,817,817,817,817,817,817,817,806,774,721,651,465,373,300,269,260,260,260,260,260,260,260,260,260,265,294,339,378,414,440],"ymouse":[497,497,497,497,497,497,497,497,497,497,497,497,497,497,497,497,497,497,497,497,497,497,497,497,497,497,497,497,497,497,497,497,497,497,497,497,497,497,497,497,497,497,497,497,497,497,497,497,497,497,497,497,497,497,497,497,497,497,497,497,497,497,497,497,497,497,497,497,497,497,497,497,497,497,497,497,497,497,497,481,443,388,310,128,70,37,23,19,19,19,19,19,19,19,19,19,19,21,28,34,45,52],"timestamp_mouse":[1,19,39,59,79,99,120,140,160,179,200,219,239,260,279,299,319,339,360,379,399,419,439,460,479,499,520,540,559,579,600,619,641,659,679,700,721,740,760,780,801,819,840,860,879,900,921,939,959,979,1000,1020,1040,1059,1080,1099,1119,1141,1160,1180,1199,1219,1240,1260,1281,1300,1319,1339,1360,1381,1400,1420,1439,1461,1480,1500,1520,1539,1560,1580,1600,1619,1639,1659,1680,1700,1719,1741,1759,1779,1799,1820,1839,1860,1880,1900,1919,1940,1959,1979,2000,2020],"xSR":741.5,"ySR":469.95,"xT1":424.9,"yT1":0,"xT2":1058.1,"yT2":0,"toosoon":0,"cond_shown":"Congruent","ratio_trial":100,"L_num":6,"L_den":20,"R_num":5,"R_den":25,"correct_side":1,"subjID":"Aleixer Camacho Bernal 1","gender":"0","school":"6","age":"11"},{"start_time":1551801083485,"click_time":1551801084953,"finger_time":1551801084553,"fix_duration":830.245016853204,"trial":36,"RT":1068,"MT":400,"sideResp":1,"stimulus":[],"xmouse":[803,803,803,803,803,803,803,803,803,803,803,803,803,803,803,803,803,803,803,803,803,803,803,803,803,803,803,803,803,803,803,803,803,803,803,803,803,803,803,803,803,803,803,803,803,803,803,803,803,803,803,797,783,767,753,726,714,706,698,685,659,648,640,633,629,621,612,609,605,574,552,529,500,471],"ymouse":[492,492,492,492,492,492,492,492,492,492,492,492,492,492,492,492,492,492,492,492,492,492,492,492,492,492,492,492,492,492,492,492,492,492,492,492,492,492,492,492,492,492,492,492,492,492,492,492,492,492,492,487,473,454,435,399,384,373,357,337,300,285,275,266,261,249,238,235,229,186,157,136,116,98],"timestamp_mouse":[10,38,48,67,87,107,127,147,167,187,208,227,248,267,287,308,327,347,368,387,407,428,447,468,488,507,529,547,567,587,607,629,648,668,687,708,728,748,767,788,807,828,847,867,888,909,928,947,968,987,1007,1028,1048,1068,1088,1107,1127,1148,1168,1188,1209,1228,1247,1268,1287,1307,1328,1349,1369,1389,1407,1427,1448,1468],"xSR":741.5,"ySR":469.95,"xT1":424.9,"yT1":0,"xT2":1058.1,"yT2":0,"toosoon":0,"cond_shown":"Congruent","ratio_trial":100,"L_num":4,"L_den":8,"R_num":6,"R_den":10,"correct_side":2,"subjID":"Aleixer Camacho Bernal 1","gender":"0","school":"6","age":"11"},{"start_time":1551801087549,"click_time":1551801089212,"finger_time":1551801088793,"fix_duration":294.40621595505957,"trial":37,"RT":1244,"MT":419,"sideResp":1,"stimulus":[],"xmouse":[795,796,798,800,801,801,801,801,801,801,801,801,801,801,801,801,801,801,803,803,803,803,803,803,803,803,803,803,803,803,803,803,803,803,803,803,803,803,803,803,803,803,803,803,803,803,803,803,803,803,803,803,803,803,803,803,803,803,803,803,803,803,801,790,779,766,744,731,711,693,672,655,630,626,625,623,605,590,574,563,553,540,529,520],"ymouse":[532,529,526,524,523,523,523,523,523,523,523,523,523,523,523,523,523,523,521,520,517,517,517,517,517,517,517,517,517,517,517,517,517,517,517,517,517,517,517,517,517,517,517,517,517,517,517,517,517,517,517,517,517,517,517,517,517,517,517,517,517,515,469,411,370,345,321,311,300,290,279,267,249,245,243,239,206,180,157,141,126,89,49,28],"timestamp_mouse":[3,23,43,63,84,103,123,143,163,184,203,223,244,263,283,305,323,343,363,383,405,424,443,463,484,503,524,544,563,584,603,624,644,663,684,704,723,743,763,785,803,823,844,863,883,905,923,943,963,984,1003,1023,1044,1063,1083,1103,1124,1145,1163,1183,1203,1223,1244,1264,1284,1304,1325,1344,1363,1383,1404,1423,1443,1463,1484,1503,1525,1543,1563,1584,1604,1624,1643,1663],"xSR":741.5,"ySR":469.95,"xT1":424.9,"yT1":0,"xT2":1058.1,"yT2":0,"toosoon":0,"cond_shown":"Incongruent","ratio_trial":300,"L_num":4,"L_den":20,"R_num":2,"R_den":4,"correct_side":2,"subjID":"Aleixer Camacho Bernal 1","gender":"0","school":"6","age":"11"},{"start_time":1551801102170,"click_time":1551801103274,"finger_time":1551801102693,"fix_duration":1275.6702637738522,"trial":38,"RT":523,"MT":581,"sideResp":1,"stimulus":[],"xmouse":[786,786,786,786,786,786,786,786,786,786,786,786,786,786,786,792,798,799,799,800,800,800,801,802,804,807,811,811,811,809,805,790,783,778,770,761,740,727,714,697,683,656,638,624,612,600,598,597,597,596,596,595,587,568,543,468],"ymouse":[515,515,515,515,515,515,515,515,515,515,515,515,515,514,512,502,494,494,493,492,492,492,490,488,482,475,452,439,428,421,410,384,374,364,352,340,312,295,278,260,243,216,201,192,186,178,177,177,177,176,176,176,172,163,147,91],"timestamp_mouse":[11,37,42,62,84,102,123,143,163,183,202,222,244,262,282,303,322,342,363,382,402,422,443,464,482,502,523,543,562,583,603,623,643,662,682,703,722,742,762,782,802,822,842,863,882,903,923,942,962,982,1002,1022,1043,1064,1082,1104],"xSR":741.5,"ySR":469.95,"xT1":424.9,"yT1":0,"xT2":1058.1,"yT2":0,"toosoon":0,"cond_shown":"Congruent","ratio_trial":200,"L_num":6,"L_den":15,"R_num":3,"R_den":15,"correct_side":1,"subjID":"Aleixer Camacho Bernal 1","gender":"0","school":"6","age":"11"},{"start_time":1551801105404,"click_time":1551801106593,"finger_time":1551801106232,"fix_duration":569.8714377434942,"trial":39,"RT":828,"MT":361,"sideResp":1,"stimulus":[],"xmouse":[765,765,765,765,765,765,765,765,765,765,765,765,765,765,765,765,765,765,765,765,765,765,765,765,765,765,765,765,765,765,765,765,765,765,765,765,765,765,765,765,765,751,725,690,614,591,578,572,570,568,555,543,533,525,525,525,524,524,524,519],"ymouse":[481,481,481,481,481,481,481,481,481,481,481,481,481,481,481,481,481,481,481,481,481,481,481,481,481,481,481,481,481,481,481,481,481,481,481,481,481,481,481,481,472,434,391,342,241,214,200,191,183,174,155,141,132,127,127,127,126,126,118,94],"timestamp_mouse":[8,33,49,68,88,110,128,149,168,189,209,229,248,268,289,308,328,348,369,390,409,429,448,468,488,508,528,548,570,588,610,628,648,669,689,709,730,748,768,788,808,828,848,869,888,909,928,948,970,988,1009,1028,1050,1070,1088,1109,1129,1149,1169,1189],"xSR":741.5,"ySR":469.95,"xT1":424.9,"yT1":0,"xT2":1058.1,"yT2":0,"toosoon":0,"cond_shown":"Congruent","ratio_trial":100,"L_num":2,"L_den":5,"R_num":6,"R_den":12,"correct_side":2,"subjID":"Aleixer Camacho Bernal 1","gender":"0","school":"6","age":"11"},{"start_time":1551801110160,"click_time":1551801112513,"finger_time":1551801111834,"fix_duration":1146.6757324151142,"trial":40,"RT":1674,"MT":679,"sideResp":2,"stimulus":[],"xmouse":[815,815,815,815,815,815,815,815,815,815,815,815,815,815,815,815,815,815,815,815,815,815,815,815,815,815,815,815,815,815,815,815,815,815,815,815,815,815,815,815,815,815,815,815,815,815,815,816,816,816,816,816,816,816,816,816,816,816,816,816,816,816,816,816,816,816,816,816,816,816,816,816,816,816,816,816,816,816,816,816,818,824,839,861,902,957,1045,1082,1111,1134,1159,1174,1180,1186,1192,1212,1223,1234,1245,1253,1259,1268,1268,1268,1268,1262,1256,1240,1213,1185,1160,1135,1119,1109,1099,1091,1084,1084],"ymouse":[533,533,533,533,533,533,532,529,529,529,529,529,528,528,527,527,527,527,527,527,527,527,527,527,527,527,527,527,527,527,527,527,527,527,527,527,527,527,527,527,527,527,527,527,527,526,526,526,526,526,526,526,526,526,526,526,526,526,526,526,526,526,526,526,526,526,526,526,526,526,526,526,526,526,526,526,526,526,526,525,523,517,505,490,463,436,394,379,369,364,355,348,344,341,335,322,314,304,293,281,266,237,222,216,212,206,202,196,184,174,163,150,141,134,126,118,106,99],"timestamp_mouse":[12,32,53,72,92,112,133,152,172,193,212,233,252,273,292,312,333,352,372,392,412,434,452,473,493,514,532,552,572,592,613,633,652,674,693,712,732,752,773,794,813,833,852,872,893,913,933,952,972,992,1013,1033,1054,1073,1093,1112,1133,1153,1173,1192,1213,1233,1252,1273,1292,1312,1332,1353,1372,1393,1412,1432,1452,1473,1492,1513,1534,1552,1573,1593,1614,1632,1653,1674,1693,1712,1732,1753,1773,1793,1813,1832,1853,1872,1892,1913,1933,1953,1973,1992,2012,2033,2052,2072,2092,2114,2132,2152,2172,2194,2213,2232,2252,2272,2292,2312,2332,2353],"xSR":741.5,"ySR":469.95,"xT1":424.9,"yT1":0,"xT2":1058.1,"yT2":0,"toosoon":0,"cond_shown":"Incongruent","ratio_trial":200,"L_num":4,"L_den":6,"R_num":14,"R_den":30,"correct_side":1,"subjID":"Aleixer Camacho Bernal 1","gender":"0","school":"6","age":"11"},{"start_time":1551801121713,"click_time":1551801123692,"finger_time":1551801122934,"fix_duration":1117.9181645086867,"trial":41,"RT":1221,"MT":758,"sideResp":2,"stimulus":[],"xmouse":[796,796,796,796,796,796,796,796,796,796,796,796,796,796,796,795,797,799,801,802,802,802,802,802,802,803,803,803,803,803,803,803,803,803,803,803,803,803,803,803,803,803,804,804,805,805,805,805,805,805,805,805,805,805,805,805,805,805,807,819,838,879,956,1169,1333,1405,1444,1471,1507,1522,1534,1546,1555,1563,1574,1578,1579,1578,1570,1544,1524,1500,1475,1419,1388,1374,1366,1361,1359,1357,1351,1340,1321,1297,1244,1208,1190,1175,1164,1158],"ymouse":[529,529,529,529,529,529,529,529,529,529,529,529,529,529,529,529,520,515,509,503,502,502,502,502,502,500,500,500,500,500,500,500,500,500,500,500,499,498,498,497,496,496,495,493,492,492,492,492,492,492,492,492,492,492,492,492,492,491,490,482,475,461,431,338,279,252,232,215,189,176,166,154,143,133,117,102,89,75,67,54,48,42,35,24,19,15,14,13,13,13,13,13,13,13,13,13,13,13,13,13],"timestamp_mouse":[1,19,40,60,79,99,119,139,160,181,200,220,240,259,279,299,320,340,360,379,399,419,439,459,481,500,521,540,560,581,599,620,641,660,680,699,720,741,760,780,799,821,841,860,879,899,919,941,959,980,999,1019,1039,1059,1081,1099,1120,1140,1160,1180,1199,1221,1239,1260,1280,1299,1319,1341,1361,1380,1400,1419,1440,1459,1480,1500,1519,1541,1560,1580,1599,1620,1640,1660,1680,1700,1719,1739,1760,1780,1800,1819,1839,1861,1880,1901,1920,1939,1959,1979],"xSR":741.5,"ySR":469.95,"xT1":424.9,"yT1":0,"xT2":1058.1,"yT2":0,"toosoon":0,"cond_shown":"Incongruent","ratio_trial":200,"L_num":7,"L_den":15,"R_num":6,"R_den":9,"correct_side":2,"subjID":"Aleixer Camacho Bernal 1","gender":"0","school":"6","age":"11"},{"start_time":1551801125986,"click_time":1551801127893,"finger_time":1551801127474,"fix_duration":872.6944034871733,"trial":42,"RT":1488,"MT":419,"sideResp":1,"stimulus":[],"xmouse":[798,798,798,798,798,798,798,798,798,798,798,798,798,798,798,798,798,798,798,798,798,798,798,798,798,798,798,798,798,798,798,798,798,798,798,798,798,798,798,798,798,798,798,798,799,799,799,799,799,799,799,799,799,799,800,800,800,800,800,800,800,800,800,800,800,800,800,800,800,800,800,800,800,798,789,730,667,608,576,566,565,565,565,563,560,559,559,559,559,559,552,548,545,539,528,502],"ymouse":[508,508,508,508,508,508,508,508,508,508,508,508,508,508,508,508,508,508,508,508,508,508,508,508,508,508,508,508,508,508,508,508,508,508,508,508,508,508,508,508,508,508,508,508,508,508,508,508,508,508,508,508,508,508,508,508,508,508,508,508,508,508,508,508,508,508,508,508,508,508,508,508,504,488,460,305,208,158,139,134,133,132,127,121,100,97,97,97,97,97,90,86,83,79,71,58],"timestamp_mouse":[12,37,46,66,86,106,126,146,168,187,207,226,246,268,286,307,326,347,368,387,406,426,447,467,486,506,526,548,566,587,608,626,646,666,686,707,726,746,767,786,807,827,846,867,886,906,926,947,966,987,1007,1026,1047,1066,1087,1107,1127,1146,1166,1187,1206,1228,1247,1266,1286,1307,1327,1346,1367,1386,1407,1427,1447,1466,1488,1508,1527,1548,1566,1586,1606,1626,1646,1666,1687,1706,1727,1746,1767,1786,1806,1827,1846,1867,1886,1907],"xSR":741.5,"ySR":469.95,"xT1":424.9,"yT1":0,"xT2":1058.1,"yT2":0,"toosoon":0,"cond_shown":"Congruent","ratio_trial":100,"L_num":2,"L_den":5,"R_num":6,"R_den":12,"correct_side":2,"subjID":"Aleixer Camacho Bernal 1","gender":"0","school":"6","age":"11"},{"start_time":1551801129659,"click_time":1551801132532,"finger_time":1551801129892,"fix_duration":504.78860464297605,"trial":43,"RT":233,"MT":2640,"sideResp":1,"stimulus":[],"xmouse":[802,802,806,809,814,822,824,825,827,828,838,848,861,880,901,927,999,1119,1211,1280,1304,1318,1319,1320,1321,1322,1322,1322,1322,1322,1322,1320,1312,1300,1291,1279,1241,1232,1227,1225,1225,1219,1201,1152,1072,996,932,930,927,924,917,901,892,883,875,868,861,861,861,876,907,985,1001,1003,1005,1005,1004,976,926,878,831,780,769,762,754,747,739,739,739,739,739,739,738,735,727,719,714,714,714,714,714,714,714,714,714,717,721,734,743,750,752,752,752,752,754,754,754,754,754,754,755,755,755,755,755,755,752,741,719,679,606,585,575,575,574,574,574,574,575,575,575,572,570,566,561,551,543,538,531,528,526,521,518,517],"ymouse":[541,540,537,535,531,525,524,523,521,520,513,506,497,487,474,459,412,329,280,245,233,224,222,221,218,218,217,217,217,217,216,214,210,205,202,197,191,190,190,190,190,190,193,202,207,207,207,207,208,208,210,212,214,217,221,225,232,232,232,232,231,219,217,216,216,216,216,250,306,356,394,422,425,426,429,431,432,432,432,432,432,432,433,445,467,494,534,541,541,541,541,541,541,541,541,541,536,529,523,522,521,521,521,521,520,520,520,520,520,520,519,519,519,519,519,519,502,483,434,370,228,195,181,178,177,176,169,165,161,155,150,143,141,137,134,127,120,115,111,109,107,102,100,99],"timestamp_mouse":[14,33,53,74,93,114,134,153,174,193,214,233,254,273,294,314,333,353,374,393,413,434,453,473,494,513,534,554,574,593,613,633,653,674,693,714,734,753,774,793,813,833,853,873,893,913,933,955,973,993,1014,1035,1053,1073,1093,1113,1133,1154,1174,1193,1214,1233,1253,1273,1293,1313,1335,1353,1374,1394,1413,1433,1454,1474,1493,1513,1534,1553,1574,1594,1614,1634,1653,1674,1693,1714,1734,1754,1773,1793,1814,1833,1853,1873,1893,1914,1934,1954,1974,1994,2013,2034,2053,2073,2093,2114,2134,2153,2174,2195,2214,2234,2254,2275,2294,2314,2333,2353,2375,2393,2415,2434,2454,2473,2494,2513,2534,2553,2574,2593,2613,2634,2654,2674,2694,2714,2733,2754,2773,2793,2813,2833,2854,2873],"xSR":741.5,"ySR":469.95,"xT1":424.9,"yT1":0,"xT2":1058.1,"yT2":0,"toosoon":0,"cond_shown":"Congruent","ratio_trial":300,"L_num":7,"L_den":14,"R_num":20,"R_den":25,"correct_side":2,"subjID":"Aleixer Camacho Bernal 1","gender":"0","school":"6","age":"11"},{"start_time":1551801135156,"click_time":1551801137472,"finger_time":1551801136232,"fix_duration":541.7086994145677,"trial":44,"RT":1076,"MT":1240,"sideResp":2,"stimulus":[],"xmouse":[801,801,801,801,801,801,801,801,801,801,801,801,803,804,805,806,806,807,807,808,809,810,810,812,813,814,815,815,816,817,818,819,821,823,824,826,828,829,829,829,830,830,830,831,832,832,833,833,834,835,835,839,841,842,844,845,848,850,852,861,874,901,906,909,911,926,931,935,941,946,950,961,970,973,978,991,1000,1010,1023,1040,1076,1099,1110,1118,1125,1134,1137,1141,1146,1151,1155,1163,1166,1168,1169,1171,1174,1175,1176,1176,1176,1176,1173,1172,1171,1171,1171,1171,1170,1170,1170,1169,1168,1164,1159,1154],"ymouse":[545,545,545,545,545,545,545,545,545,545,545,545,542,541,541,539,539,538,538,537,537,536,535,534,534,533,532,532,532,531,531,529,528,527,526,525,523,523,523,523,523,522,522,521,521,520,520,520,519,519,518,514,511,509,508,506,501,498,494,486,475,458,454,452,450,440,435,429,422,417,411,402,398,394,388,373,362,351,332,313,272,244,230,220,210,199,194,189,181,174,169,156,151,148,144,140,130,125,119,114,106,86,75,71,69,64,62,60,57,57,57,56,56,55,53,53],"timestamp_mouse":[16,36,58,76,98,117,137,157,177,197,216,237,256,278,297,318,337,356,377,397,416,436,456,477,496,516,536,556,577,597,617,636,656,677,696,717,736,756,776,796,817,836,859,876,897,917,937,956,976,998,1016,1037,1056,1076,1096,1117,1136,1156,1176,1197,1217,1236,1256,1277,1297,1317,1336,1356,1376,1397,1416,1436,1456,1477,1497,1518,1537,1557,1577,1597,1617,1637,1658,1677,1696,1718,1737,1756,1776,1796,1817,1836,1857,1877,1897,1916,1936,1957,1977,1997,2017,2036,2056,2077,2096,2118,2137,2156,2177,2196,2217,2236,2257,2276,2297,2316],"xSR":741.5,"ySR":469.95,"xT1":424.9,"yT1":0,"xT2":1058.1,"yT2":0,"toosoon":0,"cond_shown":"Incongruent","ratio_trial":300,"L_num":13,"L_den":26,"R_num":12,"R_den":15,"correct_side":2,"subjID":"Aleixer Camacho Bernal 1","gender":"0","school":"6","age":"11"},{"start_time":1551801139778,"click_time":1551801142075,"finger_time":1551801141374,"fix_duration":784.9823643995095,"trial":45,"RT":1596,"MT":701,"sideResp":2,"stimulus":[],"xmouse":[814,814,814,813,813,813,811,810,808,808,799,797,794,793,792,788,785,783,783,783,783,783,783,783,783,783,783,783,783,783,783,783,783,783,783,783,783,783,783,783,783,783,783,783,783,783,783,783,783,783,783,783,783,783,783,783,783,783,782,781,777,772,772,772,772,770,769,769,769,769,769,769,769,769,769,769,771,794,841,978,1048,1113,1147,1177,1203,1246,1258,1266,1269,1270,1272,1275,1276,1277,1278,1274,1267,1255,1242,1222,1185,1170,1168,1168,1168,1168,1168,1168,1168,1168,1168,1167,1166,1163,1146],"ymouse":[540,540,539,539,539,538,537,536,535,534,529,527,525,525,524,522,521,520,520,520,520,520,520,520,520,520,520,520,520,520,520,520,520,520,520,520,520,520,520,520,520,520,520,520,520,520,520,520,520,520,520,520,520,520,520,520,520,520,520,519,518,516,516,516,516,516,516,516,516,516,516,516,516,516,516,516,511,495,472,426,400,367,341,314,294,268,261,256,254,253,246,241,236,229,204,189,176,164,153,140,119,109,107,107,107,106,106,106,105,104,102,99,98,95,85],"timestamp_mouse":[33,35,56,75,95,116,137,155,175,196,216,235,256,275,297,315,335,356,376,396,415,436,456,475,496,515,535,555,576,595,616,636,656,676,695,715,737,755,776,796,816,835,855,876,896,915,935,956,976,996,1015,1036,1055,1076,1095,1115,1136,1156,1175,1196,1215,1237,1256,1275,1296,1316,1335,1356,1376,1395,1416,1435,1455,1475,1495,1515,1535,1556,1576,1596,1616,1636,1655,1675,1696,1716,1735,1755,1775,1796,1815,1835,1855,1876,1896,1915,1935,1956,1975,1995,2015,2035,2055,2076,2095,2116,2136,2156,2176,2196,2216,2235,2256,2275,2296],"xSR":741.5,"ySR":469.95,"xT1":424.9,"yT1":0,"xT2":1058.1,"yT2":0,"toosoon":0,"cond_shown":"Incongruent","ratio_trial":300,"L_num":4,"L_den":20,"R_num":2,"R_den":4,"correct_side":2,"subjID":"Aleixer Camacho Bernal 1","gender":"0","school":"6","age":"11"},{"start_time":1551801143882,"click_time":1551801145754,"finger_time":1551801144974,"fix_duration":607.7829735783921,"trial":46,"RT":1092,"MT":780,"sideResp":2,"stimulus":[],"xmouse":[802,802,802,802,802,802,802,802,802,802,802,802,802,802,802,802,802,802,802,802,802,802,802,802,802,802,802,802,802,802,802,802,802,802,802,802,802,802,802,802,802,802,802,802,802,802,802,802,802,802,802,805,821,835,874,894,916,927,939,947,950,951,953,955,960,987,1000,1016,1038,1089,1108,1126,1150,1176,1201,1224,1229,1231,1231,1231,1228,1224,1219,1214,1209,1197,1194,1191,1189,1185,1176,1169,1161,1154],"ymouse":[527