[{"start_time":1551882622984,"click_time":1551882628207,"finger_time":1551882622998,"fix_duration":293.399038994243,"trial":0,"RT":14,"MT":5209,"sideResp":1,"stimulus":"img/750/equaldotsize/L/13_Ratio_750_L_8_R_6.png","xmouse":[795,795,795,795,795,795,795,795,795,795,795,795,795,795,795,795,795,795,795,795,795,795,795,795,795,795,795,795,795,795,795,798,798,799,800,800,800,800,800,800,800,800,800,800,800,800,800,800,799,799,799,799,799,799,799,799,799,799,799,799,799,799,799,799,799,799,799,799,799,799,799,799,799,799,799,799,799,799,799,799,798,798,798,798,798,798,798,798,798,798,798,798,798,798,798,798,798,798,798,798,798,798,798,798,798,798,798,798,798,798,798,798,798,798,798,798,798,798,798,797,797,797,797,797,797,797,797,797,797,797,797,797,797,797,797,797,796,796,796,796,796,796,796,796,796,796,796,796,796,796,796,796,796,796,796,796,796,796,794,792,784,775,774,774,774,774,774,774,774,774,774,774,774,774,774,774,774,774,774,774,774,774,774,774,774,774,774,774,774,774,774,774,774,774,774,774,774,774,774,774,774,774,774,774,774,774,774,774,774,774,774,774,774,774,774,774,774,774,774,774,774,774,774,774,774,774,774,774,774,774,774,774,774,774,774,774,774,774,771,770,766,744,712,638,586,550,528,528,528,516,514,514,513,507,506,506,506,506,505,501,496,482],"ymouse":[556,556,556,556,556,556,556,556,556,556,556,556,556,556,556,556,556,556,556,556,556,556,556,556,556,556,556,556,556,556,558,571,578,582,585,587,588,589,591,592,594,597,598,599,600,601,604,604,606,606,606,606,606,606,606,606,606,606,606,606,606,606,606,606,606,606,606,606,606,606,606,606,606,606,606,606,606,606,606,606,606,606,606,606,606,606,606,606,606,606,606,606,606,606,606,606,606,606,606,608,609,613,613,613,613,613,613,613,613,613,613,613,613,613,613,613,613,613,614,614,614,614,614,614,614,614,614,614,614,614,614,614,614,614,614,614,614,614,614,614,614,614,614,614,614,614,614,614,614,614,614,614,614,614,614,614,614,614,614,615,618,625,627,630,631,632,632,632,632,632,632,632,632,632,632,632,632,632,632,632,632,632,632,632,632,632,632,632,632,632,632,632,632,632,632,632,632,632,632,632,632,632,632,632,632,632,632,632,632,632,632,632,632,632,632,632,632,632,632,632,632,632,632,632,632,632,632,632,632,632,632,632,632,632,632,632,632,632,619,607,580,476,399,265,185,119,31,14,14,0,0,0,0,0,0,0,0,0,0,0,0,4],"timestamp_mouse":[14,23,39,60,79,99,119,139,160,180,200,219,240,260,280,300,320,339,359,380,399,419,439,460,480,500,521,539,560,579,599,620,640,659,679,700,720,739,761,779,800,819,839,859,880,900,919,939,960,979,1000,1019,1040,1060,1079,1100,1119,1140,1160,1179,1199,1219,1241,1259,1279,1299,1319,1340,1361,1380,1400,1419,1440,1460,1480,1499,1519,1539,1561,1579,1600,1620,1640,1659,1679,1700,1720,1739,1759,1779,1800,1820,1840,1860,1879,1899,1919,1940,1961,1979,2000,2019,2039,2061,2081,2100,2119,2141,2160,2181,2200,2220,2240,2261,2280,2300,2319,2339,2359,2380,2399,2419,2439,2461,2481,2500,2519,2541,2561,2579,2600,2620,2640,2659,2680,2699,2720,2740,2759,2779,2799,2819,2840,2860,2879,2901,2920,2940,2959,2980,2999,3019,3039,3061,3079,3100,3120,3139,3160,3180,3200,3219,3240,3259,3279,3300,3320,3340,3360,3379,3399,3419,3440,3460,3479,3501,3520,3539,3560,3580,3599,3619,3640,3660,3679,3700,3720,3739,3760,3780,3799,3820,3839,3859,3880,3900,3919,3940,3959,3979,3999,4019,4039,4060,4081,4100,4119,4140,4159,4180,4199,4221,4240,4260,4280,4300,4319,4339,4359,4379,4399,4421,4440,4459,4479,4501,4519,4540,4560,4579,4601,4620,4641,4660,4679,4700,4721,4739,4760,4780,4799,4819,4839,4859,4879,4900,4919,4940,4959,4979,4999,5019,5040,5059,5080,5101,5119,5140,5159,5179,5199,5222],"xSR":741.5,"ySR":501.8,"xT1":424.9,"yT1":0,"xT2":1058.1,"yT2":0,"toosoon":0,"cond_shown":"equaldotsize","ratio_trial":750,"smaller_num":"6","larger_num":"8","correct_side":1,"subjID":"DanielStevenCortesBuitrago3","gender":"0","age":"10","school":"6","test":{"fix_dur":[250,1500],"timestim":300,"targets_dim":[100,100],"targets_relative_coord":[0.3,0.7],"size_stim":[880,420],"start_dim":[100,100],"size_start":[300,300],"size_fix":60,"samplingrate":20,"img_types":["equaldotsize","equaldotanddens","randomdotsizeEA"],"ratios":[250,500,750,900],"rep_conds":9,"nTrials":120,"trials_to_rest":500,"Trials_order":[114,54,94,17,106,32,8,99,62,75,90,18,55,77,36,112,24,15,0,11,87,66,45,44,108,4,14,41,28,83,3,53,96,1,56,95,22,85,104,93,40,92,27,7,110,64,29,89,52,72,97,51,84,9,33,43,21,34,20,59,10,88,61,23,31,73,115,69,37,63,100,50,78,117,113,71,105,111,118,58,13,42,101,48,116,25,91,81,65,35,79,67,103,74,5,60,107,82,49,47,19,86,98,2,39,102,119,70,30,6,16,76,12,38,57,26,46,109,80,68],"cond_shown":["equaldotsize","equaldotsize","equaldotanddens","randomdotsizeEA","equaldotanddens","randomdotsizeEA","randomdotsizeEA","equaldotsize","randomdotsizeEA","equaldotsize","equaldotsize","equaldotsize","equaldotanddens","randomdotsizeEA","equaldotsize","equaldotanddens","equaldotsize","equaldotsize","equaldotsize","randomdotsizeEA","equaldotsize","equaldotsize","equaldotsize","randomdotsizeEA","equaldotsize","equaldotanddens","randomdotsizeEA","randomdotsizeEA","equaldotanddens","randomdotsizeEA","equaldotsize","randomdotsizeEA","equaldotsize","equaldotanddens","randomdotsizeEA","randomdotsizeEA","equaldotanddens","equaldotanddens","randomdotsizeEA","equaldotsize","equaldotanddens","randomdotsizeEA","equaldotsize","equaldotanddens","randomdotsizeEA","equaldotanddens","randomdotsizeEA","randomdotsizeEA","equaldotanddens","equaldotsize","equaldotanddens","equaldotsize","equaldotsize","equaldotsize","equaldotsize","equaldotanddens","equaldotsize","equaldotanddens","randomdotsizeEA","randomdotsizeEA","equaldotanddens","equaldotanddens","equaldotanddens","randomdotsizeEA","equaldotanddens","equaldotanddens","equaldotanddens","equaldotsize","equaldotanddens","equaldotsize","equaldotanddens","randomdotsizeEA","equaldotsize","equaldotsize","randomdotsizeEA","randomdotsizeEA","equaldotsize","equaldotsize","equaldotanddens","equaldotanddens","equaldotanddens","equaldotsize","randomdotsizeEA","equaldotsize","randomdotsizeEA","equaldotanddens","equaldotanddens","equaldotsize","randomdotsizeEA","randomdotsizeEA","equaldotanddens","equaldotanddens","equaldotanddens","randomdotsizeEA","randomdotsizeEA","equaldotsize","randomdotsizeEA","equaldotanddens","equaldotanddens","randomdotsizeEA","equaldotanddens","randomdotsizeEA","randomdotsizeEA","randomdotsizeEA","equaldotsize","equaldotsize","randomdotsizeEA","equaldotanddens","equaldotsize","equaldotsize","equaldotanddens","equaldotanddens","equaldotsize","randomdotsizeEA","equaldotsize","randomdotsizeEA","equaldotanddens","equaldotanddens","randomdotsizeEA","randomdotsizeEA"],"ratio_trial":[750,750,900,500,900,750,750,500,250,500,750,750,750,500,250,500,250,500,250,900,500,750,900,750,250,500,250,500,500,900,500,500,250,250,750,900,900,250,750,900,500,750,500,750,250,500,500,500,500,250,250,500,250,900,900,750,900,900,750,900,900,500,250,900,750,250,750,900,250,500,500,250,750,900,500,900,900,500,900,900,250,750,500,250,750,250,750,900,500,900,750,750,750,250,500,250,900,900,250,900,750,250,250,250,500,750,900,900,750,750,500,500,250,250,900,250,900,250,750,750],"smaller_num":["6","3","9","3","18","6","3","9","4","2","6","15","6","1","3","3","2","4","1","18","5","3","18","6","3","1","4","6","4","9","2","2","1","2","6","9","18","3","3","18","9","12","9","3","2","2","9","9","3","3","3","3","5","18","18","3","18","18","18","18","18","4","3","9","3","1","3","18","3","6","1","6","18","18","9","18","18","3","18","18","2","3","6","2","9","3","3","18","6","9","15","18","9","6","3","4","9","18","2","18","3","2","2","1","6","12","18","18","15","3","6","2","4","3","18","2","18","3","12","6"],"larger_num":["8","4","10","6","20","8","4","18","16","4","8","20","8","2","12","6","8","8","4","20","10","4","20","8","12","2","16","12","8","10","4","4","4","8","8","10","20","12","4","20","18","16","18","4","8","4","18","18","6","12","12","6","20","20","20","4","20","20","24","20","20","8","12","10","4","4","4","20","12","12","2","24","24","20","18","20","20","6","20","20","8","4","12","8","12","12","4","20","12","10","20","24","12","24","6","16","10","20","8","20","4","8","8","4","12","16","20","20","20","4","12","4","16","12","20","8","20","12","16","8"],"correct_side":[1,2,1,2,2,2,1,1,1,1,2,2,2,2,2,2,1,1,2,1,1,1,2,2,1,2,2,1,1,2,1,2,2,2,1,2,1,1,1,2,1,2,1,1,1,1,1,2,2,2,2,2,2,2,1,1,1,2,1,2,2,1,2,2,1,2,2,2,2,1,2,1,1,1,2,2,1,2,1,2,1,2,1,1,2,2,2,1,1,2,1,1,2,1,2,1,2,1,2,1,1,1,2,2,1,2,1,1,1,1,1,1,1,2,2,1,2,2,2,1],"img_shown":["img/750/equaldotsize/L/13_Ratio_750_L_8_R_6.png","img/750/equaldotsize/R/12_Ratio_750_L_3_R_4.png","img/900/equaldotanddens/L/1_Ratio_900_L_10_R_9.png","img/500/randomdotsizeEA/R/2_Ratio_500_L_3_R_6.png","img/900/equaldotanddens/R/11_Ratio_900_L_18_R_20.png","img/750/randomdotsizeEA/R/2_Ratio_750_L_6_R_8.png","img/750/randomdotsizeEA/L/10_Ratio_750_L_4_R_3.png","img/500/equaldotsize/L/4_Ratio_500_L_18_R_9.png","img/250/randomdotsizeEA/L/2_Ratio_250_L_16_R_4.png","img/500/equaldotsize/L/10_Ratio_500_L_4_R_2.png","img/750/equaldotsize/R/2_Ratio_750_L_6_R_8.png","img/750/equaldotsize/R/5_Ratio_750_L_15_R_20.png","img/750/equaldotanddens/R/2_Ratio_750_L_6_R_8.png","img/500/randomdotsizeEA/R/15_Ratio_500_L_1_R_2.png","img/250/equaldotsize/R/9_Ratio_250_L_3_R_12.png","img/500/equaldotanddens/R/2_Ratio_500_L_3_R_6.png","img/250/equaldotsize/L/1_Ratio_250_L_8_R_2.png","img/500/equaldotsize/L/8_Ratio_500_L_8_R_4.png","img/250/equaldotsize/R/8_Ratio_250_L_1_R_4.png","img/900/randomdotsizeEA/L/2_Ratio_900_L_20_R_18.png","img/500/equaldotsize/L/7_Ratio_500_L_10_R_5.png","img/750/equaldotsize/L/9_Ratio_750_L_4_R_3.png","img/900/equaldotsize/R/12_Ratio_900_L_18_R_20.png","img/750/randomdotsizeEA/R/2_Ratio_750_L_6_R_8.png","img/250/equaldotsize/L/15_Ratio_250_L_12_R_3.png","img/500/equaldotanddens/R/12_Ratio_500_L_1_R_2.png","img/250/randomdotsizeEA/R/10_Ratio_250_L_4_R_16.png","img/500/randomdotsizeEA/L/13_Ratio_500_L_12_R_6.png","img/500/equaldotanddens/L/8_Ratio_500_L_8_R_4.png","img/900/randomdotsizeEA/R/5_Ratio_900_L_9_R_10.png","img/500/equaldotsize/L/10_Ratio_500_L_4_R_2.png","img/500/randomdotsizeEA/R/9_Ratio_500_L_2_R_4.png","img/250/equaldotsize/R/8_Ratio_250_L_1_R_4.png","img/250/equaldotanddens/R/13_Ratio_250_L_2_R_8.png","img/750/randomdotsizeEA/L/13_Ratio_750_L_8_R_6.png","img/900/randomdotsizeEA/R/15_Ratio_900_L_9_R_10.png","img/900/equaldotanddens/L/10_Ratio_900_L_20_R_18.png","img/250/equaldotanddens/L/15_Ratio_250_L_12_R_3.png","img/750/randomdotsizeEA/L/10_Ratio_750_L_4_R_3.png","img/900/equaldotsize/R/12_Ratio_900_L_18_R_20.png","img/500/equaldotanddens/L/4_Ratio_500_L_18_R_9.png","img/750/randomdotsizeEA/R/11_Ratio_750_L_12_R_16.png","img/500/equaldotsize/L/4_Ratio_500_L_18_R_9.png","img/750/equaldotanddens/L/8_Ratio_750_L_4_R_3.png","img/250/randomdotsizeEA/L/3_Ratio_250_L_8_R_2.png","img/500/equaldotanddens/L/5_Ratio_500_L_4_R_2.png","img/500/randomdotsizeEA/L/4_Ratio_500_L_18_R_9.png","img/500/randomdotsizeEA/R/6_Ratio_500_L_9_R_18.png","img/500/equaldotanddens/R/2_Ratio_500_L_3_R_6.png","img/250/equaldotsize/R/4_Ratio_250_L_3_R_12.png","img/250/equaldotanddens/R/4_Ratio_250_L_3_R_12.png","img/500/equaldotsize/R/2_Ratio_500_L_3_R_6.png","img/250/equaldotsize/R/12_Ratio_250_L_5_R_20.png","img/900/equaldotsize/R/11_Ratio_900_L_18_R_20.png","img/900/equaldotsize/L/10_Ratio_900_L_20_R_18.png","img/750/equaldotanddens/L/9_Ratio_750_L_4_R_3.png","img/900/equaldotsize/L/2_Ratio_900_L_20_R_18.png","img/900/equaldotanddens/R/14_Ratio_900_L_18_R_20.png","img/750/randomdotsizeEA/L/6_Ratio_750_L_24_R_18.png","img/900/randomdotsizeEA/R/11_Ratio_900_L_18_R_20.png","img/900/equaldotanddens/R/9_Ratio_900_L_18_R_20.png","img/500/equaldotanddens/L/8_Ratio_500_L_8_R_4.png","img/250/equaldotanddens/R/11_Ratio_250_L_3_R_12.png","img/900/randomdotsizeEA/R/5_Ratio_900_L_9_R_10.png","img/750/equaldotanddens/L/9_Ratio_750_L_4_R_3.png","img/250/equaldotanddens/R/8_Ratio_250_L_1_R_4.png","img/750/equaldotanddens/R/12_Ratio_750_L_3_R_4.png","img/900/equaldotsize/R/9_Ratio_900_L_18_R_20.png","img/250/equaldotanddens/R/11_Ratio_250_L_3_R_12.png","img/500/equaldotsize/L/11_Ratio_500_L_12_R_6.png","img/500/equaldotanddens/R/12_Ratio_500_L_1_R_2.png","img/250/randomdotsizeEA/L/5_Ratio_250_L_24_R_6.png","img/750/equaldotsize/L/6_Ratio_750_L_24_R_18.png","img/900/equaldotsize/L/4_Ratio_900_L_20_R_18.png","img/500/randomdotsizeEA/R/6_Ratio_500_L_9_R_18.png","img/900/randomdotsizeEA/R/9_Ratio_900_L_18_R_20.png","img/900/equaldotsize/L/8_Ratio_900_L_20_R_18.png","img/500/equaldotsize/R/2_Ratio_500_L_3_R_6.png","img/900/equaldotanddens/L/10_Ratio_900_L_20_R_18.png","img/900/equaldotanddens/R/11_Ratio_900_L_18_R_20.png","img/250/equaldotanddens/L/3_Ratio_250_L_8_R_2.png","img/750/equaldotsize/R/7_Ratio_750_L_3_R_4.png","img/500/randomdotsizeEA/L/11_Ratio_500_L_12_R_6.png","img/250/equaldotsize/L/7_Ratio_250_L_8_R_2.png","img/750/randomdotsizeEA/R/15_Ratio_750_L_9_R_12.png","img/250/equaldotanddens/R/4_Ratio_250_L_3_R_12.png","img/750/equaldotanddens/R/7_Ratio_750_L_3_R_4.png","img/900/equaldotsize/L/4_Ratio_900_L_20_R_18.png","img/500/randomdotsizeEA/L/13_Ratio_500_L_12_R_6.png","img/900/randomdotsizeEA/R/5_Ratio_900_L_9_R_10.png","img/750/equaldotanddens/L/1_Ratio_750_L_20_R_15.png","img/750/equaldotanddens/L/6_Ratio_750_L_24_R_18.png","img/750/equaldotanddens/R/15_Ratio_750_L_9_R_12.png","img/250/randomdotsizeEA/L/5_Ratio_250_L_24_R_6.png","img/500/randomdotsizeEA/R/2_Ratio_500_L_3_R_6.png","img/250/equaldotsize/L/2_Ratio_250_L_16_R_4.png","img/900/randomdotsizeEA/R/5_Ratio_900_L_9_R_10.png","img/900/equaldotanddens/L/10_Ratio_900_L_20_R_18.png","img/250/equaldotanddens/R/13_Ratio_250_L_2_R_8.png","img/900/randomdotsizeEA/L/2_Ratio_900_L_20_R_18.png","img/750/equaldotanddens/L/9_Ratio_750_L_4_R_3.png","img/250/randomdotsizeEA/L/7_Ratio_250_L_8_R_2.png","img/250/randomdotsizeEA/R/13_Ratio_250_L_2_R_8.png","img/250/randomdotsizeEA/R/8_Ratio_250_L_1_R_4.png","img/500/equaldotsize/L/11_Ratio_500_L_12_R_6.png","img/750/equaldotsize/R/11_Ratio_750_L_12_R_16.png","img/900/randomdotsizeEA/L/4_Ratio_900_L_20_R_18.png","img/900/equaldotanddens/L/2_Ratio_900_L_20_R_18.png","img/750/equaldotsize/L/1_Ratio_750_L_20_R_15.png","img/750/equaldotsize/L/9_Ratio_750_L_4_R_3.png","img/500/equaldotanddens/L/13_Ratio_500_L_12_R_6.png","img/500/equaldotanddens/L/5_Ratio_500_L_4_R_2.png","img/250/equaldotsize/L/2_Ratio_250_L_16_R_4.png","img/250/randomdotsizeEA/R/9_Ratio_250_L_3_R_12.png","img/900/equaldotsize/R/14_Ratio_900_L_18_R_20.png","img/250/randomdotsizeEA/L/3_Ratio_250_L_8_R_2.png","img/900/equaldotanddens/R/12_Ratio_900_L_18_R_20.png","img/250/equaldotanddens/R/4_Ratio_250_L_3_R_12.png","img/750/randomdotsizeEA/R/11_Ratio_750_L_12_R_16.png","img/750/randomdotsizeEA/L/13_Ratio_750_L_8_R_6.png"],"Rat0":[["12_Ratio_0_L_9_R_0.png","13_Ratio_0_L_6_R_0.png","5_Ratio_0_L_2_R_0.png","6_Ratio_0_L_4_R_0.png","8_Ratio_0_L_6_R_0.png"],["1_Ratio_0_L_0_R_17.png","10_Ratio_0_L_0_R_22.png","11_Ratio_0_L_0_R_1.png","14_Ratio_0_L_0_R_24.png","15_Ratio_0_L_0_R_4.png","2_Ratio_0_L_0_R_5.png","3_Ratio_0_L_0_R_17.png","4_Ratio_0_L_0_R_7.png","7_Ratio_0_L_0_R_19.png","9_Ratio_0_L_0_R_15.png"]],"Rat250":[["1_Ratio_250_L_8_R_2.png","14_Ratio_250_L_12_R_3.png","15_Ratio_250_L_12_R_3.png","2_Ratio_250_L_16_R_4.png","3_Ratio_250_L_8_R_2.png","5_Ratio_250_L_24_R_6.png","7_Ratio_250_L_8_R_2.png"],["10_Ratio_250_L_4_R_16.png","11_Ratio_250_L_3_R_12.png","12_Ratio_250_L_5_R_20.png","13_Ratio_250_L_2_R_8.png","4_Ratio_250_L_3_R_12.png","6_Ratio_250_L_6_R_24.png","8_Ratio_250_L_1_R_4.png","9_Ratio_250_L_3_R_12.png"]],"Rat500":[["10_Ratio_500_L_4_R_2.png","11_Ratio_500_L_12_R_6.png","13_Ratio_500_L_12_R_6.png","4_Ratio_500_L_18_R_9.png","5_Ratio_500_L_4_R_2.png","7_Ratio_500_L_10_R_5.png","8_Ratio_500_L_8_R_4.png"],["1_Ratio_500_L_9_R_18.png","12_Ratio_500_L_1_R_2.png","14_Ratio_500_L_5_R_10.png","15_Ratio_500_L_1_R_2.png","2_Ratio_500_L_3_R_6.png","3_Ratio_500_L_10_R_20.png","6_Ratio_500_L_9_R_18.png","9_Ratio_500_L_2_R_4.png"]],"Rat750":[["1_Ratio_750_L_20_R_15.png","10_Ratio_750_L_4_R_3.png","13_Ratio_750_L_8_R_6.png","14_Ratio_750_L_8_R_6.png","6_Ratio_750_L_24_R_18.png","8_Ratio_750_L_4_R_3.png","9_Ratio_750_L_4_R_3.png"],["11_Ratio_750_L_12_R_16.png","12_Ratio_750_L_3_R_4.png","15_Ratio_750_L_9_R_12.png","2_Ratio_750_L_6_R_8.png","3_Ratio_750_L_15_R_20.png","4_Ratio_750_L_15_R_20.png","5_Ratio_750_L_15_R_20.png","7_Ratio_750_L_3_R_4.png"]],"Rat900":[["1_Ratio_900_L_10_R_9.png","10_Ratio_900_L_20_R_18.png","2_Ratio_900_L_20_R_18.png","4_Ratio_900_L_20_R_18.png","8_Ratio_900_L_20_R_18.png"],["11_Ratio_900_L_18_R_20.png","12_Ratio_900_L_18_R_20.png","13_Ratio_900_L_18_R_20.png","14_Ratio_900_L_18_R_20.png","15_Ratio_900_L_9_R_10.png","3_Ratio_900_L_9_R_10.png","5_Ratio_900_L_9_R_10.png","6_Ratio_900_L_9_R_10.png","7_Ratio_900_L_9_R_10.png","9_Ratio_900_L_18_R_20.png"]],"Rat1000":[["10_Ratio_1000_L_16_R_16.png","11_Ratio_1000_L_6_R_6.png","12_Ratio_1000_L_14_R_14.png","13_Ratio_1000_L_20_R_20.png","15_Ratio_1000_L_15_R_15.png","2_Ratio_1000_L_17_R_17.png","4_Ratio_1000_L_9_R_9.png","5_Ratio_1000_L_6_R_6.png","6_Ratio_1000_L_19_R_19.png","8_Ratio_1000_L_14_R_14.png","9_Ratio_1000_L_25_R_25.png"],["1_Ratio_1000_L_1_R_1.png","14_Ratio_1000_L_17_R_17.png","3_Ratio_1000_L_17_R_17.png","7_Ratio_1000_L_6_R_6.png"]]}},{"start_time":1551882630106,"click_time":1551882631345,"finger_time":1551882631204,"fix_duration":560.2460565391344,"trial":1,"RT":1098,"MT":141,"sideResp":2,"stimulus":"img/750/equaldotsize/R/12_Ratio_750_L_3_R_4.png","xmouse":[775,775,775,775,775,775,775,775,775,778,781,781,781,781,781,781,781,781,781,781,781,781,781,781,781,781,781,781,781,781,781,781,781,781,781,781,781,781,781,781,781,781,781,781,781,781,781,781,781,781,781,782,783,789,812,899,958,1011,1050,1084,1129,1144],"ymouse":[606,606,606,606,606,606,606,606,606,607,607,607,607,607,607,607,607,607,607,607,607,607,607,607,607,607,607,607,607,607,607,607,607,607,607,607,607,607,607,607,607,607,607,607,607,607,607,607,607,607,607,605,598,581,547,460,408,347,282,221,102,64],"timestamp_mouse":[23,56,57,77,97,117,138,157,177,197,218,239,258,277,298,317,338,358,378,397,419,437,458,477,498,517,538,559,577,598,618,638,658,677,697,718,737,758,778,799,817,838,859,877,898,919,938,958,978,998,1018,1038,1059,1079,1098,1118,1138,1158,1178,1198,1217,1238],"xSR":741.5,"ySR":573.95,"xT1":424.9,"yT1":0,"xT2":1058.1,"yT2":0,"toosoon":0,"cond_shown":"equaldotsize","ratio_trial":750,"smaller_num":"3","larger_num":"4","correct_side":2,"subjID":"DanielStevenCortesBuitrago3","gender":"0","age":"10","school":"6"},{"start_time":1551882633348,"click_time":1551882634383,"finger_time":1551882634164,"fix_duration":1023.462431838403,"trial":2,"RT":816,"MT":219,"sideResp":2,"stimulus":"img/900/equaldotanddens/L/1_Ratio_900_L_10_R_9.png","xmouse":[789,789,789,789,789,789,789,789,789,789,789,789,789,789,789,789,789,789,789,789,789,789,789,789,789,789,789,789,789,789,789,789,789,789,789,789,789,789,794,809,842,938,1012,1121,1146,1164,1171,1176,1176,1175,1164,1156],"ymouse":[627,627,627,627,627,627,627,627,627,627,627,627,627,627,627,627,627,627,627,627,627,627,627,627,627,627,627,627,627,627,627,627,627,627,627,627,627,627,626,620,593,506,423,221,129,71,48,37,34,33,33,33],"timestamp_mouse":[15,37,55,76,96,115,135,156,175,195,217,235,255,276,296,316,335,356,375,395,415,435,455,475,495,515,536,555,575,595,615,636,656,676,696,716,737,755,775,796,816,835,855,875,895,915,936,955,975,995,1016,1035],"xSR":741.5,"ySR":573.95,"xT1":424.9,"yT1":0,"xT2":1058.1,"yT2":0,"toosoon":0,"cond_shown":"equaldotanddens","ratio_trial":900,"smaller_num":"9","larger_num":"10","correct_side":1,"subjID":"DanielStevenCortesBuitrago3","gender":"0","age":"10","school":"6"},{"start_time":1551882636172,"click_time":1551882638064,"finger_time":1551882637264,"fix_duration":928.0481520105536,"trial":3,"RT":1092,"MT":800,"sideResp":2,"stimulus":"img/500/randomdotsizeEA/R/2_Ratio_500_L_3_R_6.png","xmouse":[796,796,796,796,796,796,796,796,796,796,796,796,796,796,796,796,796,796,796,796,796,796,796,796,796,796,796,796,796,796,796,796,796,796,796,796,796,796,796,796,796,796,792,791,790,789,789,789,788,788,788,788,784,782,779,771,755,703,669,655,648,642,640,639,639,639,639,655,697,824,910,975,1015,1029,1044,1055,1058,1043,1038,1029,1027,1027,1027,1027,1027,1027,1027,1027,1027,1027,1027,1027,1039,1051,1061],"ymouse":[600,600,600,600,600,600,600,600,600,600,600,600,600,600,600,600,600,600,600,600,600,600,600,600,600,600,600,600,600,600,600,600,600,600,600,600,600,600,600,600,600,600,601,602,602,602,602,602,602,602,602,602,590,578,560,537,502,407,337,307,285,271,265,263,263,263,263,265,279,315,335,342,335,318,292,252,199,72,55,28,22,21,21,21,21,21,21,21,21,21,21,20,24,28,31],"timestamp_mouse":[12,31,51,71,91,113,133,151,172,192,211,232,251,272,292,311,332,351,371,392,411,432,453,472,493,511,532,553,572,592,613,631,652,673,691,712,733,752,772,791,811,833,851,872,892,911,931,953,973,992,1011,1031,1051,1071,1092,1112,1132,1151,1171,1192,1211,1231,1251,1272,1291,1311,1331,1352,1372,1391,1412,1431,1451,1471,1492,1511,1531,1552,1571,1591,1612,1632,1652,1671,1692,1712,1731,1753,1773,1792,1812,1831,1851,1871,1892],"xSR":741.5,"ySR":573.95,"xT1":424.9,"yT1":0,"xT2":1058.1,"yT2":0,"toosoon":0,"cond_shown":"randomdotsizeEA","ratio_trial":500,"smaller_num":"3","larger_num":"6","correct_side":2,"subjID":"DanielStevenCortesBuitrago3","gender":"0","age":"10","school":"6"},{"start_time":1551882639568,"click_time":1551882642123,"finger_time":1551882641783,"fix_duration":682.5196030788969,"trial":4,"RT":2215,"MT":340,"sideResp":1,"stimulus":"img/900/equaldotanddens/R/11_Ratio_900_L_18_R_20.png","xmouse":[800,800,800,800,800,800,800,800,800,800,800,800,800,800,800,800,800,800,800,800,800,800,800,800,800,800,800,800,800,800,800,800,800,800,800,800,800,800,800,800,800,800,800,800,800,800,800,800,800,800,800,800,800,800,800,800,800,800,800,800,800,800,800,800,800,800,800,800,800,800,800,800,800,800,800,800,800,800,800,800,799,799,798,796,795,794,792,791,788,787,787,787,787,787,787,787,787,787,787,787,787,787,787,787,787,787,787,787,785,776,751,718,686,626,601,564,550,516,474,460,457,457,457,457,457,457,457,457],"ymouse":[601,601,601,601,601,601,601,601,601,601,601,601,601,601,601,601,601,601,601,601,601,601,601,601,601,601,601,601,601,601,601,601,601,601,601,601,601,601,601,601,601,601,601,601,601,601,601,601,601,601,601,601,601,601,601,601,601,601,601,601,601,601,601,601,601,601,601,601,601,601,601,601,601,601,601,601,601,601,601,601,601,601,602,603,604,605,608,610,612,613,613,613,613,613,613,613,613,613,613,613,613,613,613,613,613,613,613,613,613,600,569,527,461,294,207,82,51,0,0,0,0,0,0,0,0,0,0,2],"timestamp_mouse":[16,36,56,76,95,115,136,155,177,195,215,236,257,276,296,316,335,355,376,396,415,436,455,476,496,515,535,556,576,596,615,635,656,676,697,715,736,756,776,797,816,836,856,876,895,915,935,956,975,995,1015,1036,1057,1077,1097,1115,1135,1155,1177,1196,1215,1235,1255,1277,1295,1316,1336,1357,1377,1395,1415,1436,1457,1477,1496,1515,1536,1557,1575,1595,1616,1635,1657,1675,1696,1715,1736,1755,1775,1796,1815,1836,1857,1875,1896,1915,1937,1955,1975,1996,2016,2035,2055,2075,2097,2116,2136,2155,2176,2195,2215,2236,2255,2275,2295,2315,2335,2355,2376,2395,2416,2435,2455,2476,2495,2515,2535,2555],"xSR":741.5,"ySR":573.95,"xT1":424.9,"yT1":0,"xT2":1058.1,"yT2":0,"toosoon":0,"cond_shown":"equaldotanddens","ratio_trial":900,"smaller_num":"18","larger_num":"20","correct_side":2,"subjID":"DanielStevenCortesBuitrago3","gender":"0","age":"10","school":"6"},{"start_time":1551882644321,"click_time":1551882646343,"finger_time":1551882645843,"fix_duration":576.4273762271903,"trial":5,"RT":1522,"MT":500,"sideResp":1,"stimulus":"img/750/randomdotsizeEA/R/2_Ratio_750_L_6_R_8.png","xmouse":[800,800,800,800,800,800,800,800,800,800,800,800,800,800,800,800,800,800,800,800,800,800,800,800,800,800,800,800,800,800,800,800,800,800,800,800,800,800,800,800,800,800,800,800,800,800,800,800,800,800,800,800,800,800,800,800,800,800,800,800,800,800,800,800,800,800,800,800,800,800,800,800,798,787,774,758,717,694,681,670,663,651,645,642,637,630,612,596,571,552,536,518,515,514,512,511,509,509,509,509,509,510],"ymouse":[607,607,607,607,607,607,607,607,607,607,607,607,607,607,607,607,607,607,607,607,607,607,607,607,607,607,607,607,607,607,607,607,607,607,607,607,607,607,607,607,607,607,607,607,607,607,607,607,607,607,607,607,607,607,607,607,607,607,607,607,607,607,607,607,607,607,607,607,607,607,607,607,605,598,589,576,533,503,484,463,442,400,378,358,337,313,271,251,228,214,201,178,168,157,149,141,125,117,114,108,102,94],"timestamp_mouse":[9,40,42,62,83,103,123,143,162,183,204,222,243,263,283,302,323,343,363,382,404,424,443,463,482,502,523,542,563,582,602,623,644,662,682,702,722,742,762,783,802,823,842,864,883,903,922,942,963,983,1002,1023,1042,1064,1083,1103,1124,1143,1163,1182,1203,1222,1243,1262,1284,1304,1322,1342,1362,1383,1403,1422,1442,1462,1482,1502,1522,1542,1563,1582,1602,1622,1642,1663,1683,1703,1722,1743,1763,1783,1802,1822,1842,1871,1883,1902,1922,1942,1963,1983,2002,2022],"xSR":741.5,"ySR":573.95,"xT1":424.9,"yT1":0,"xT2":1058.1,"yT2":0,"toosoon":0,"cond_shown":"randomdotsizeEA","ratio_trial":750,"smaller_num":"6","larger_num":"8","correct_side":2,"subjID":"DanielStevenCortesBuitrago3","gender":"0","age":"10","school":"6"},{"start_time":1551882648646,"click_time":1551882649784,"finger_time":1551882649563,"fix_duration":1300.9178248128042,"trial":6,"RT":917,"MT":221,"sideResp":2,"stimulus":"img/750/randomdotsizeEA/L/10_Ratio_750_L_4_R_3.png","xmouse":[778,778,778,778,778,778,778,778,778,778,778,778,778,778,778,778,778,778,778,778,778,778,778,778,778,778,778,778,778,778,778,778,778,778,778,778,778,778,778,778,778,778,778,778,783,808,837,875,946,968,1036,1051,1061,1070,1076,1076,1076],"ymouse":[609,609,609,609,609,609,609,609,609,609,609,609,609,609,609,609,609,609,609,609,609,609,609,609,609,609,609,609,609,609,609,609,609,609,609,609,609,609,609,609,609,609,609,609,604,559,518,468,391,363,239,206,182,161,128,112,95],"timestamp_mouse":[17,37,58,78,98,118,137,158,179,198,218,239,257,278,298,317,337,357,378,397,418,438,457,478,498,518,537,557,578,597,618,638,659,677,698,717,738,758,778,798,817,838,858,877,897,917,937,957,979,998,1018,1038,1057,1078,1099,1117,1138],"xSR":741.5,"ySR":573.95,"xT1":424.9,"yT1":0,"xT2":1058.1,"yT2":0,"toosoon":0,"cond_shown":"randomdotsizeEA","ratio_trial":750,"smaller_num":"3","larger_num":"4","correct_side":1,"subjID":"DanielStevenCortesBuitrago3","gender":"0","age":"10","school":"6"},{"start_time":1551882652896,"click_time":1551882654183,"finger_time":1551882653723,"fix_duration":250,"trial":7,"RT":827,"MT":460,"sideResp":1,"stimulus":"img/500/equaldotsize/L/4_Ratio_500_L_18_R_9.png","xmouse":[759,759,759,759,759,759,759,759,759,759,759,759,759,759,759,759,759,759,759,759,759,759,759,759,759,759,759,759,759,759,759,759,759,759,759,759,759,759,759,759,753,739,719,663,621,594,571,554,545,538,535,535,532,526,526,528,530,530,530,530,530,529,529,525,519],"ymouse":[606,606,606,606,606,606,606,606,606,606,606,606,606,606,606,606,606,606,606,606,606,606,606,606,606,606,606,606,606,606,606,606,606,606,606,606,606,606,606,596,575,545,506,424,357,309,274,240,211,163,139,114,86,20,0,0,0,0,0,0,0,0,0,0,4],"timestamp_mouse":[14,27,47,68,89,109,128,147,167,187,208,228,248,268,287,308,327,348,368,387,407,429,449,467,488,507,527,547,568,587,607,628,647,669,688,708,727,747,768,787,808,827,848,867,887,908,928,947,967,987,1007,1027,1047,1068,1087,1108,1128,1148,1167,1187,1208,1227,1248,1269,1287],"xSR":741.5,"ySR":573.95,"xT1":424.9,"yT1":0,"xT2":1058.1,"yT2":0,"toosoon":0,"cond_shown":"equaldotsize","ratio_trial":500,"smaller_num":"9","larger_num":"18","correct_side":1,"subjID":"DanielStevenCortesBuitrago3","gender":"0","age":"10","school":"6"},{"start_time":1551882659146,"click_time":1551882660524,"finger_time":1551882659864,"fix_duration":1060.1514965824854,"trial":8,"RT":718,"MT":660,"sideResp":1,"stimulus":"img/250/randomdotsizeEA/L/2_Ratio_250_L_16_R_4.png","xmouse":[804,804,804,804,804,804,804,804,804,804,804,804,804,804,804,804,804,804,804,804,804,804,804,804,804,804,804,804,804,804,804,804,804,811,822,832,851,854,856,856,856,856,856,856,856,856,843,830,824,810,800,772,758,742,723,703,670,662,656,647,639,628,624,617,605,585,544,531,518],"ymouse":[622,622,622,622,622,622,622,622,622,622,622,622,622,622,622,622,622,622,622,622,622,622,622,622,622,622,622,622,622,622,622,622,619,606,589,572,546,539,535,535,535,535,535,535,534,534,532,527,523,497,453,317,235,160,93,32,0,0,0,0,0,0,0,0,0,0,1,3,6],"timestamp_mouse":[18,43,58,77,97,118,139,158,177,199,217,237,258,277,297,317,338,357,378,397,418,437,458,478,498,518,538,558,577,597,618,639,657,679,698,718,737,758,777,798,819,838,857,877,897,918,937,958,978,997,1018,1037,1058,1078,1098,1117,1139,1157,1177,1198,1218,1239,1257,1277,1297,1317,1339,1358,1378],"xSR":741.5,"ySR":573.95,"xT1":424.9,"yT1":0,"xT2":1058.1,"yT2":0,"toosoon":0,"cond_shown":"randomdotsizeEA","ratio_trial":250,"smaller_num":"4","larger_num":"16","correct_side":1,"subjID":"DanielStevenCortesBuitrago3","gender":"0","age":"10","school":"6"},{"start_time":1551882661660,"click_time":1551882663305,"finger_time":1551882662643,"fix_duration":295.02767436226264,"trial":9,"RT":983,"MT":662,"sideResp":1,"stimulus":"img/500/equaldotsize/L/10_Ratio_500_L_4_R_2.png","xmouse":[792,789,787,787,787,787,787,787,787,787,787,787,787,787,787,787,787,787,787,787,787,787,787,787,787,787,787,787,787,787,787,787,787,787,787,787,787,787,787,787,787,787,787,787,787,787,783,775,760,742,723,706,662,639,617,603,595,585,577,562,544,522,516,514,511,501,475,470,470,470,470,471,471,473,473,474,474,474,473,472,464,450,446],"ymouse":[627,628,629,629,629,629,629,629,629,629,629,629,629,629,629,629,629,629,629,629,629,629,629,629,629,629,629,629,629,629,629,629,629,629,629,629,629,629,629,629,629,629,629,629,629,629,619,600,576,543,502,461,360,322,290,268,256,246,244,240,235,229,223,217,209,193,161,149,143,139,137,135,135,135,135,134,134,134,133,130,120,103,92],"timestamp_mouse":[4,23,43,63,83,104,123,143,164,184,204,223,243,264,283,303,323,344,365,384,404,423,444,464,484,505,524,543,565,584,603,624,645,664,684,704,725,744,764,784,803,824,844,863,885,903,923,943,964,983,1004,1023,1043,1064,1084,1104,1123,1143,1163,1183,1204,1223,1243,1263,1283,1304,1323,1343,1363,1384,1404,1423,1444,1465,1484,1505,1524,1544,1564,1584,1603,1623,1645],"xSR":741.5,"ySR":573.95,"xT1":424.9,"yT1":0,"xT2":1058.1,"yT2":0,"toosoon":0,"cond_shown":"equaldotsize","ratio_trial":500,"smaller_num":"2","larger_num":"4","correct_side":1,"subjID":"DanielStevenCortesBuitrago3","gender":"0","age":"10","school":"6"},{"start_time":1551882666617,"click_time":1551882668344,"finger_time":1551882667763,"fix_duration":1311.0860018929443,"trial":10,"RT":1146,"MT":581,"sideResp":2,"stimulus":"img/750/equaldotsize/R/2_Ratio_750_L_6_R_8.png","xmouse":[786,786,786,786,786,786,786,786,786,786,786,786,786,786,786,786,786,786,786,786,786,786,786,786,786,786,786,786,786,786,786,786,786,786,786,786,786,786,786,787,789,791,791,791,790,790,790,790,790,790,790,790,790,791,801,811,827,844,890,913,935,963,1004,1136,1175,1211,1247,1272,1289,1308,1311,1313,1313,1307,1270,1245,1218,1198,1188,1184,1183,1179,1174,1171,1162,1159,1155],"ymouse":[634,634,634,634,634,634,634,634,634,634,634,634,634,634,634,634,634,634,634,634,634,634,634,634,634,634,634,634,634,634,634,634,634,634,634,634,634,634,634,629,625,618,617,612,610,610,610,610,610,610,610,610,610,609,605,600,591,578,527,490,450,405,361,239,191,140,78,33,0,0,0,0,0,0,0,0,0,0,0,0,0,0,1,1,2,3,4],"timestamp_mouse":[11,26,46,67,86,106,126,148,167,186,206,227,246,266,286,306,326,346,366,387,407,426,447,466,487,508,527,547,567,586,607,626,646,666,687,707,727,746,767,786,807,826,847,867,886,908,927,947,966,986,1007,1026,1046,1066,1086,1106,1127,1146,1167,1186,1207,1226,1248,1268,1286,1306,1326,1347,1366,1387,1406,1428,1447,1466,1487,1507,1528,1548,1567,1586,1607,1626,1646,1666,1686,1706,1726],"xSR":741.5,"ySR":573.95,"xT1":424.9,"yT1":0,"xT2":1058.1,"yT2":0,"toosoon":0,"cond_shown":"equaldotsize","ratio_trial":750,"smaller_num":"6","larger_num":"8","correct_side":2,"subjID":"DanielStevenCortesBuitrago3","gender":"0","age":"10","school":"6"},{"start_time":1551882669975,"click_time":1551882671083,"finger_time":1551882670883,"fix_duration":250,"trial":11,"RT":908,"MT":200,"sideResp":2,"stimulus":"img/750/equaldotsize/R/5_Ratio_750_L_15_R_20.png","xmouse":[800,800,800,800,800,800,800,800,800,800,800,800,800,800,800,800,800,800,800,800,800,800,800,800,800,800,800,800,800,800,800,800,800,800,800,800,800,800,801,801,801,801,801,802,802,803,806,810,818,834,860,949,1012,1053,1083,1113],"ymouse":[602,602,602,602,602,602,602,602,602,602,602,602,602,602,602,602,602,602,602,602,602,602,602,602,602,602,602,602,602,602,602,602,602,602,602,602,602,602,601,598,592,580,576,575,575,573,570,566,555,536,505,396,299,222,154,89],"timestamp_mouse":[9,42,48,69,89,108,128,148,169,190,209,229,250,270,289,308,328,349,369,390,409,429,449,470,490,509,529,549,569,588,608,628,650,669,688,708,729,750,769,789,809,828,848,868,889,908,928,948,968,989,1009,1029,1048,1069,1089,1108],"xSR":741.5,"ySR":573.95,"xT1":424.9,"yT1":0,"xT2":1058.1,"yT2":0,"toosoon":0,"cond_shown":"equaldotsize","ratio_trial":750,"smaller_num":"15","larger_num":"20","correct_side":2,"subjID":"DanielStevenCortesBuitrago3","gender":"0","age":"10","school":"6"},{"start_time":1551882673718,"click_time":1551882674963,"finger_time":1551882674604,"fix_duration":431.6420916962412,"trial":12,"RT":886,"MT":359,"sideResp":2,"stimulus":"img/750/equaldotanddens/R/2_Ratio_750_L_6_R_8.png","xmouse":[796,796,796,796,796,796,796,796,796,796,796,796,796,796,796,796,796,796,796,796,796,796,796,796,796,796,796,796,796,796,796,795,795,795,795,795,795,795,795,793,793,794,803,818,834,891,917,943,972,1018,1029,1034,1036,1043,1058,1072,1076,1077,1078,1079,1082,1086,1089],"ymouse":[629,629,629,629,629,629,629,629,629,629,629,629,629,629,629,629,629,629,629,629,629,629,629,629,629,629,629,629,629,629,629,629,629,629,629,629,629,629,629,625,617,605,592,575,560,492,452,406,356,239,175,114,56,7,0,0,0,0,0,0,0,0,1],"timestamp_mouse":[11,26,45,65,85,106,126,146,165,186,206,227,246,265,286,305,326,345,366,385,406,427,446,466,486,506,527,546,566,587,606,626,646,666,685,706,726,745,765,786,805,826,845,865,886,906,925,946,966,987,1005,1025,1045,1065,1085,1105,1126,1145,1166,1186,1205,1225,1245],"xSR":741.5,"ySR":573.95,"xT1":424.9,"yT1":0,"xT2":1058.1,"yT2":0,"toosoon":0,"cond_shown":"equaldotanddens","ratio_trial":750,"smaller_num":"6","larger_num":"8","correct_side":2,"subjID":"DanielStevenCortesBuitrago3","gender":"0","age":"10","school":"6"},{"start_time":1551882676504,"click_time":1551882678523,"finger_time":1551882677385,"fix_duration":918.5065990637595,"trial":13,"RT":881,"MT":1138,"sideResp":2,"stimulus":"img/500/randomdotsizeEA/R/15_Ratio_500_L_1_R_2.png","xmouse":[796,796,796,796,796,796,796,796,796,796,796,796,796,796,796,796,796,796,796,796,796,796,796,796,796,796,796,796,796,796,796,796,796,796,796,796,796,796,796,796,795,790,779,762,738,731,729,729,728,728,728,728,728,728,728,729,800,848,848,848,848,848,848,848,848,979,983,987,993,1005,1027,1109,1162,1219,1306,1359,1422,1436,1441,1442,1442,1442,1421,1411,1351,1311,1257,1237,1219,1204,1190,1174,1170,1169,1169,1169,1169,1169,1168,1168,1166,1156],"ymouse":[634,634,634,634,634,634,634,634,634,634,634,634,634,634,634,634,634,634,634,634,634,634,634,634,634,634,634,634,634,634,634,634,634,634,634,634,634,634,634,634,632,622,606,588,560,550,541,537,535,531,526,520,516,516,516,540,757,875,875,875,875,875,875,875,875,876,848,829,808,783,746,631,553,471,349,277,166,131,115,107,105,100,87,81,55,37,19,14,12,10,8,7,7,7,7,7,7,7,7,7,9,22],"timestamp_mouse":[2,21,42,60,79,99,121,141,159,180,199,219,240,261,279,299,319,340,360,380,399,420,439,460,481,500,519,539,559,581,599,619,641,661,680,699,719,740,760,780,800,819,839,859,881,900,919,939,959,979,1001,1019,1041,1059,1079,1099,1119,1139,1159,1180,1200,1219,1239,1259,1279,1299,1319,1339,1360,1380,1401,1419,1440,1460,1479,1499,1519,1540,1561,1580,1599,1619,1639,1659,1680,1699,1719,1739,1760,1780,1801,1819,1839,1859,1880,1899,1919,1940,1959,1979,1999,2019],"xSR":741.5,"ySR":573.95,"xT1":424.9,"yT1":0,"xT2":1058.1,"yT2":0,"toosoon":0,"cond_shown":"randomdotsizeEA","ratio_trial":500,"smaller_num":"1","larger_num":"2","correct_side":2,"subjID":"DanielStevenCortesBuitrago3","gender":"0","age":"10","school":"6"},{"start_time":1551882680149,"click_time":1551882681543,"finger_time":1551882680923,"fix_duration":524.77822608964,"trial":14,"RT":774,"MT":620,"sideResp":2,"stimulus":"img/250/equaldotsize/R/9_Ratio_250_L_3_R_12.png","xmouse":[802,802,802,802,802,802,802,802,802,802,802,802,802,802,802,802,802,802,802,802,802,802,802,802,802,802,802,802,802,802,802,802,802,802,802,801,797,792,785,774,770,766,762,758,758,758,758,758,758,763,776,794,811,836,843,854,867,888,966,998,1025,1048,1063,1086,1094,1099,1107,1115,1122,1131],"ymouse":[601,601,601,601,601,601,601,601,601,601,601,601,601,601,601,601,601,601,601,601,601,601,601,601,601,601,601,601,601,601,601,601,601,601,601,600,589,574,543,490,468,451,435,423,421,421,421,421,421,421,422,423,424,424,424,418,404,381,280,243,208,177,156,129,123,119,114,110,104,87],"timestamp_mouse":[14,40,54,75,94,114,134,154,175,195,214,236,255,274,294,314,334,354,374,395,414,434,456,474,494,516,534,555,574,594,614,636,655,674,694,716,734,755,774,794,815,834,854,875,895,915,934,956,976,996,1015,1034,1055,1075,1095,1115,1134,1155,1175,1195,1215,1235,1255,1275,1294,1315,1335,1355,1375,1394],"xSR":741.5,"ySR":573.95,"xT1":424.9,"yT1":0,"xT2":1058.1,"yT2":0,"toosoon":0,"cond_shown":"equaldotsize","ratio_trial":250,"smaller_num":"3","larger_num":"12","correct_side":2,"subjID":"DanielStevenCortesBuitrago3","gender":"0","age":"10","school":"6"},{"start_time":1551882683130,"click_time":1551882684404,"finger_time":1551882683904,"fix_duration":705.8289776782948,"trial":15,"RT":774,"MT":500,"sideResp":2,"stimulus":"img/500/equaldotanddens/R/2_Ratio_500_L_3_R_6.png","xmouse":[793,793,793,793,793,793,793,793,793,793,793,793,793,793,793,793,793,793,793,793,793,793,793,793,793,793,793,790,787,784,783,783,783,783,783,788,801,824,864,877,913,923,932,940,954,961,968,975,985,1005,1013,1022,1032,1042,1054,1054,1054,1054,1054,1052,1052,1053,1061,1076],"ymouse":[631,631,631,631,631,631,631,631,631,631,631,631,631,631,631,631,631,631,631,631,631,631,631,631,631,631,627,625,621,618,618,618,618,618,618,614,607,594,564,552,483,460,437,412,368,350,333,320,304,268,255,243,234,228,221,220,218,216,213,207,187,163,127,80],"timestamp_mouse":[13,44,54,74,95,114,135,155,174,194,215,234,253,275,295,314,335,354,374,395,415,433,453,474,495,513,533,553,574,594,615,634,654,673,695,713,734,753,774,794,814,833,854,874,895,914,934,954,974,994,1013,1035,1054,1074,1095,1113,1134,1154,1173,1193,1214,1233,1254,1274],"xSR":741.5,"ySR":573.95,"xT1":424.9,"yT1":0,"xT2":1058.1,"yT2":0,"toosoon":0,"cond_shown":"equaldotanddens","ratio_trial":500,"smaller_num":"3","larger_num":"6","correct_side":2,"subjID":"DanielStevenCortesBuitrago3","gender":"0","age":"10","school":"6"},{"start_time":1551882685653,"click_time":1551882686924,"finger_time":1551882686343,"fix_duration":528.0975372403323,"trial":16,"RT":690,"MT":581,"sideResp":1,"stimulus":"img/250/equaldotsize/L/1_Ratio_250_L_8_R_2.png","xmouse":[790,790,790,790,790,790,790,790,790,790,790,790,790,790,790,790,790,790,790,790,790,790,790,790,790,790,790,790,790,790,790,790,790,786,767,758,752,748,741,728,716,706,692,685,671,659,647,632,619,598,588,570,560,552,546,546,544,542,538,532,531,529,525,518],"ymouse":[630,630,630,630,630,630,630,630,630,630,630,630,630,630,630,630,630,630,630,630,630,630,630,630,630,630,630,630,630,630,630,629,622,610,572,552,532,513,495,449,422,396,364,343,309,295,278,266,256,238,228,210,198,186,162,149,136,121,105,72,56,38,29,21],"timestamp_mouse":[10,30,51,71,90,111,131,152,170,190,212,230,250,272,291,312,331,351,370,390,411,432,452,472,491,510,530,552,572,592,612,630,651,671,690,710,731,751,770,791,811,831,850,871,891,910,931,952,971,991,1011,1031,1051,1071,1090,1110,1132,1151,1171,1190,1210,1231,1251,1271],"xSR":741.5,"ySR":573.95,"xT1":424.9,"yT1":0,"xT2":1058.1,"yT2":0,"toosoon":0,"cond_shown":"equaldotsize","ratio_trial":250,"smaller_num":"2","larger_num":"8","correct_side":1,"subjID":"DanielStevenCortesBuitrago3","gender":"0","age":"10","school":"6"},{"start_time":1551882689397,"click_time":1551882690564,"finger_time":1551882690185,"fix_duration":1451.2620870744588,"trial":17,"RT":788,"MT":379,"sideResp":1,"stimulus":"img/500/equaldotsize/L/8_Ratio_500_L_8_R_4.png","xmouse":[785,785,785,785,785,785,785,785,785,785,785,785,785,785,785,785,785,785,785,785,785,785,785,785,785,785,785,785,785,785,785,785,785,785,785,785,785,785,781,778,776,774,770,760,753,742,731,700,686,671,656,641,602,588,574,563,551,529,518],"ymouse":[598,598,598,598,598,598,598,598,598,598,598,598,598,598,598,598,598,598,598,598,598,598,598,598,598,598,598,598,598,598,598,598,598,598,598,598,598,595,583,566,550,527,501,424,395,369,344,301,286,274,261,249,209,193,179,163,147,113,95],"timestamp_mouse":[10,27,64,68,87,106,126,147,168,187,206,227,248,268,287,307,328,348,367,386,407,427,447,468,487,507,527,546,566,587,608,627,646,667,688,707,728,747,766,788,808,827,847,867,886,907,927,947,967,987,1007,1028,1047,1067,1086,1107,1126,1146,1167],"xSR":741.5,"ySR":573.95,"xT1":424.9,"yT1":0,"xT2":1058.1,"yT2":0,"toosoon":0,"cond_shown":"equaldotsize","ratio_trial":500,"smaller_num":"4","larger_num":"8","correct_side":1,"subjID":"DanielStevenCortesBuitrago3","gender":"0","age":"10","school":"6"},{"start_time":1551882692439,"click_time":1551882694263,"finger_time":1551882693804,"fix_duration":972.1793591007677,"trial":18,"RT":1365,"MT":459,"sideResp":2,"stimulus":"img/250/equaldotsize/R/8_Ratio_250_L_1_R_4.png","xmouse":[785,785,785,785,787,788,789,789,789,789,790,792,792,792,792,792,792,792,792,792,792,792,792,792,792,792,792,792,792,792,792,792,792,792,792,792,792,792,792,792,792,792,792,792,792,792,792,792,792,792,792,792,792,792,792,792,792,792,792,792,792,792,792,792,792,792,805,821,843,876,911,933,955,978,996,1013,1041,1052,1059,1062,1063,1065,1068,1071,1072,1070,1064,1063,1063,1067,1072,1080],"ymouse":[640,639,638,638,635,634,634,634,633,633,632,630,630,630,629,629,629,629,629,629,629,629,629,629,629,629,629,629,629,629,629,629,629,629,629,629,629,629,629,629,629,629,629,629,629,629,629,629,629,629,629,629,629,629,629,629,629,629,629,629,629,629,629,629,629,627,620,613,603,583,546,520,494,464,439,415,375,358,343,331,301,290,273,256,233,182,159,143,129,112,101,82],"timestamp_mouse":[10,25,54,65,84,106,126,144,166,185,205,225,245,266,285,304,325,345,365,384,405,425,446,466,485,505,525,544,565,586,606,626,645,665,685,705,725,745,766,785,805,825,845,866,885,904,925,944,966,986,1005,1024,1045,1066,1086,1105,1125,1146,1166,1185,1205,1225,1245,1265,1284,1305,1324,1346,1365,1385,1406,1424,1445,1465,1485,1505,1524,1545,1564,1585,1606,1625,1645,1665,1685,1706,1724,1745,1765,1785,1805,1824],"xSR":741.5,"ySR":573.95,"xT1":424.9,"yT1":0,"xT2":1058.1,"yT2":0,"toosoon":0,"cond_shown":"equaldotsize","ratio_trial":250,"smaller_num":"1","larger_num":"4","correct_side":2,"subjID":"DanielStevenCortesBuitrago3","gender":"0","age":"10","school":"6"},{"start_time":1551882695536,"click_time":1551882726444,"finger_time":1551882707083,"fix_duration":372.2849695177338,"trial":19,"RT":11547,"MT":19361,"sideResp":2,"stimulus":"img/900/randomdotsizeEA/L/2_Ratio_900_L_20_R_18.png","xmouse":[777,777,777,777,777,777,777,777,777,777,777,778,780,781,782,782,782,782,782,782,783,785,786,787,787,787,787,787,787,787,787,787,787,787,787,787,787,787,787,787,787,787,787,787,787,787,787,787,787,787,787,787,787,787,787,787,788,788,788,789,789,789,789,789,789,789,789,789,789,789,789,789,789,789,789,789,789,789,789,789,789,789,789,789,789,789,789,789,789,789,789,789,789,789,789,789,789,789,789,789,789,789,789,789,789,789,789,789,789,789,789,789,789,789,789,789,789,789,789,789,789,789,789,789,789,789,789,789,789,789,789,789,789,789,789,789,789,789,789,789,789,789,789,789,789,789,789,789,789,789,789,789,789,789,789,789,789,789,789,789,789,789,789,789,789,789,789,789,790,790,790,790,790,790,790,790,790,790,790,790,790,790,790,790,790,790,791,791,791,791,791,791,791,791,791,791,791,791,791,791,791,791,791,791,791,791,791,791,791,791,791,791,791,791,791,791,791,791,791,791,791,791,791,791,791,791,791,791,791,791,791,791,791,791,791,791,791,791,791,791,791,791,791,791,791,791,791,791,791,791,791,791,791,791,791,791,791,791,791,791,791,791,791,791,791,791,791,791,791,791,791,791,791,791,791,791,791,791,791,791,791,791,791,791,791,791,791,791,791,791,791,791,791,791,791,791,791,791,791,791,791,791,791,791,791,791,791,791,791,791,791,791,791,791,791,791,791,791,791,791,791,791,791,791,791,791,791,791,791,791,791,791,791,791,791,791,791,791,791,791,791,791,791,791,791,791,791,791,791,791,792,792,792,792,792,792,792,792,792,792,792,792,792,792,792,792,792,792,792,792,792,792,792,792,792,792,792,792,792,792,792,792,792,792,792,792,792,792,792,792,792,792,792,792,792,792,792,792,792,792,792,792,792,792,792,792,792,792,792,792,792,792,792,792,792,792,792,792,792,792,792,792,792,792,792,792,792,792,792,792,792,792,792,792,792,792,792,792,792,792,792,792,792,792,792,792,792,792,792,792,792,792,792,792,792,792,792,792,792,792,792,792,792,792,792,792,792,792,792,792,792,792,792,792,792,792,792,792,792,792,792,792,792,792,792,792,792,792,792,792,792,792,792,792,792,792,792,792,792,792,792,792,792,792,792,792,792,792,792,792,792,792,792,792,792,792,792,792,792,792,792,792,792,792,792,792,792,792,792,792,792,792,792,792,792,792,792,792,792,792,792,792,792,792,792,792,792,792,792,792,792,792,792,792,792,792,792,792,792,792,792,792,792,792,792,792,792,792,792,792,792,792,792,792,792,792,822,943,1078,1180,1254,1307,1458,1547,1547,1547,1547,1547,1547,1547,1547,1547,1547,1581,1564,1540,1516,1467,1447,1438,1436,1428,1388,1371,1361,1356,1355,1355,1355,1355,1355,1355,1355,1355,1355,1355,1355,1355,1355,1355,1355,1355,1355,1355,1355,1355,1355,1355,1355,1355,1355,1355,1355,1355,1355,1355,1350,1266,1236,1230,1230,1230,1230,1230,1230,1230,1230,1230,1230,1230,1230,1230,1230,1230,1230,1230,1230,1230,1230,1230,1230,1230,1230,1230,1229,1229,1229,1229,1229,1229,1229,1229,1229,1229,1229,1229,1228,1228,1227,1222,1211,1203,1199,1194,1183,1167,1136,1082,945,920,897,871,825,809,793,772,769,769,769,769,769,769,769,769,769,769,769,769,769,769,769,769,769,769,769,769,769,969,1006,1036,1060,1078,1090,1098,1101,1104,1104,1098,1075,1061,1048,1037,1001,980,957,940,928,916,903,897,890,881,869,844,836,824,820,819,819,819,819,819,819,819,819,819,819,819,819,819,819,819,819,819,819,819,819,819,819,819,819,819,819,819,819,819,819,819,819,819,819,819,819,819,819,819,819,819,819,819,819,819,819,819,819,819,819,819,819,819,819,819,819,819,819,819,819,819,819,819,819,819,819,819,819,819,819,819,819,819,819,819,819,819,819,819,819,819,819,819,819,819,819,819,819,819,819,819,819,819,819,819,819,819,819,819,819,819,819,819,819,819,819,819,819,819,819,819,819,819,819,819,819,819,819,819,819,819,819,819,819,819,819,819,819,819,819,819,819,819,819,819,819,819,819,819,819,819,819,819,819,819,819,819,819,819,819,819,819,819,819,819,819,819,819,819,819,819,819,819,819,819,819,819,819,819,819,819,819,819,819,819,819,819,819,819,819,819,819,819,819,819,819,819,819,819,819,819,819,819,819,819,819,819,819,819,819,819,819,819,819,819,819,819,819,819,819,819,819,819,819,819,819,819,819,819,819,819,819,819,819,819,819,819,819,819,819,819,819,819,819,819,819,819,819,819,819,819,819,819,819,819,819,819,819,819,819,819,819,819,819,819,819,819,819,819,819,819,819,819,819,819,819,819,819,819,819,819,819,819,819,819,819,819,819,819,819,819,819,819,819,819,819,819,819,819,819,819,819,819,819,819,819,819,819,819,819,819,819,819,819,819,819,819,819,819,819,819,819,819,819,819,819,819,819,819,819,819,819,819,819,819,819,819,819,819,819,819,819,819,819,819,819,819,819,819,819,819,819,819,819,819,819,819,819,819,819,819,819,819,819,819,819,819,819,819,819,819,819,819,819,819,819,819,819,819,819,819,819,819,819,819,819,819,819,819,819,819,819,819,819,819,819,819,819,819,819,819,819,819,819,819,819,819,819,819,819,819,819,819,819,819,819,819,819,819,819,819,819,819,819,819,819,819,819,819,819,819,819,819,819,819,819,819,819,819,819,819,819,819,819,819,819,819,819,819,819,819,819,819,819,819,819,819,819,819,819,819,819,819,819,819,819,819,819,819,819,819,819,819,819,819,819,819,819,819,819,819,819,819,819,819,819,819,819,819,819,819,819,819,819,819,819,819,819,819,819,819,819,819,819,819,819,819,819,819,819,819,819,819,819,819,819,819,819,819,819,819,819,819,819,819,819,819,819,819,819,819,819,819,819,819,819,819,819,819,819,819,819,819,819,819,819,819,819,819,819,819,819,819,819,819,819,819,819,819,819,819,819,819,819,819,819,819,819,819,819,819,819,819,819,819,819,819,819,819,819,819,819,819,819,819,819,819,819,819,819,819,819,819,819,819,819,819,819,819,819,819,819,819,819,819,819,819,819,819,819,819,819,819,819,819,819,819,819,819,819,819,819,819,819,819,819,819,819,819,819,819,819,819,819,819,819,819,819,819,819,819,819,819,819,819,819,819,819,819,819,819,819,819,819,819,819,819,819,819,819,819,819,819,819,819,819,819,819,819,819,819,819,819,819,819,819,819,819,819,819,819,819,819,819,819,819,819,819,819,819,819,819,819,819,819,819,819,819,819,819,819,819,819,819,819,819,819,819,819,819,819,819,819,819,819,819,819,819,819,819,819,819,819,819,819,819,819,819,819,819,819,819,819,819,819,819,819,819,819,819,819,819,819,819,819,819,819,819,819,819,819,819,819,819,819,819,819,819,819,819,819,819,819,819,819,819,819,819,819,819,819,819,819,819,818,818,813,771,727,693,684,683,683,683,683,711,732,752,757,762,776,793,846,867,881,889,892,907,920,932,946,958,974,983,995,1009,1020,1047,1059],"ymouse":[652,652,652,652,652,652,652,652,652,652,651,645,641,638,636,635,634,634,634,634,633,631,629,628,627,627,627,627,627,627,627,627,627,627,627,627,627,627,627,627,627,627,627,627,627,627,627,627,627,627,627,627,627,627,627,627,625,623,620,617,615,614,614,614,614,614,614,614,614,614,614,614,614,614,614,614,614,614,614,614,614,614,614,614,614,614,614,614,614,614,614,614,614,614,614,614,614,614,614,614,614,614,614,614,614,614,614,614,614,614,614,614,614,614,614,614,614,614,614,614,614,614,614,614,614,614,614,614,614,614,614,614,614,614,614,614,614,614,614,614,614,614,614,614,614,614,614,614,614,614,614,614,614,614,614,614,614,614,614,614,614,614,614,614,614,614,614,614,617,620,621,621,621,621,621,621,621,621,621,621,621,621,621,621,621,621,622,622,622,622,622,622,622,622,622,622,622,622,622,622,622,622,622,622,622,622,622,622,622,622,622,622,622,622,622,622,622,622,622,622,622,622,622,622,622,622,622,622,622,622,622,622,622,622,622,622,622,622,622,622,622,622,622,622,622,622,622,622,622,622,622,622,622,622,622,622,622,622,622,622,622,622,622,622,622,622,622,622,622,622,622,622,622,622,622,622,622,622,622,622,622,622,622,622,622,622,622,622,622,622,622,622,622,622,622,622,622,622,622,622,622,622,622,622,622,622,622,622,622,622,622,622,622,622,622,622,622,622,622,622,622,622,622,622,622,622,622,622,622,622,622,622,622,622,622,622,622,622,622,622,622,622,622,622,622,622,622,622,622,622,622,622,622,622,622,622,622,622,622,622,622,622,622,622,622,622,622,622,622,622,622,622,622,622,622,622,622,622,622,622,622,622,622,622,622,622,622,622,622,622,622,622,622,622,622,622,622,622,622,622,622,622,622,622,622,622,622,622,622,622,622,622,622,622,622,622,622,622,622,622,622,622,622,622,622,622,622,622,622,622,622,622,622,622,622,622,622,622,622,622,622,622,622,622,622,622,622,622,622,622,622,622,622,622,622,622,622,622,622,622,622,622,622,622,622,622,622,622,622,622,622,622,622,622,622,622,622,622,622,622,622,622,622,622,622,622,622,622,622,622,622,622,622,622,622,622,622,622,622,622,622,622,622,622,622,622,622,622,622,622,622,622,622,622,622,622,622,622,622,622,622,622,622,622,622,622,622,622,622,622,622,622,622,622,622,622,622,622,622,622,622,622,622,622,622,622,622,622,622,622,622,622,622,622,622,622,622,622,622,622,622,622,622,622,622,622,622,622,622,622,622,622,622,622,622,622,603,522,467,455,455,422,310,265,265,265,265,265,265,265,265,265,265,41,30,19,12,7,12,35,53,71,99,120,148,192,200,200,200,200,200,200,200,200,200,200,200,200,200,200,200,200,200,200,200,200,200,200,200,200,200,200,200,200,200,200,193,149,137,141,141,141,141,141,141,141,141,141,141,141,141,141,141,141,141,141,141,141,141,141,141,141,141,141,142,142,142,142,142,142,142,142,142,142,142,142,142,142,141,138,132,128,125,124,131,144,162,186,233,235,235,235,218,174,60,0,0,0,0,0,0,0,0,0,0,0,0,0,0,0,0,0,0,0,0,0,0,59,102,155,216,264,308,364,393,420,457,479,516,531,545,552,564,571,575,578,580,582,583,584,586,587,588,592,593,595,596,596,596,596,596,596,596,596,596,596,596,596,596,596,596,596,596,596,596,596,596,596,596,596,596,596,596,596,596,596,596,596,596,596,596,596,596,596,596,596,596,596,596,596,596,596,596,596,596,596,596,596,596,596,596,596,596,596,596,596,596,596,596,596,596,596,596,596,596,596,596,596,596,596,596,596,596,596,596,596,596,596,596,596,596,596,596,596,596,596,596,596,596,596,596,596,596,596,596,596,596,596,596,596,596,596,596,596,596,596,596,596,596,596,596,596,596,596,596,596,596,596,596,596,596,596,596,596,596,596,596,596,596,596,596,596,596,596,596,596,596,596,596,596,596,596,596,596,596,596,596,596,596,596,596,596,596,596,596,596,596,596,596,596,596,596,596,596,596,596,596,596,596,596,596,596,596,596,596,596,596,596,596,596,596,596,596,596,596,596,596,596,596,596,596,596,596,596,596,596,596,596,596,596,596,596,596,596,596,596,596,596,596,596,596,596,596,596,596,596,596,596,596,596,596,596,596,596,596,596,596,596,596,596,596,596,596,596,596,596,596,596,596,596,596,596,596,596,596,596,596,596,596,596,596,596,596,596,596,596,596,596,596,596,596,596,596,596,596,596,596,596,596,596,596,596,596,596,596,596,596,596,596,596,596,596,596,596,596,596,596,596,596,596,596,596,596,596,596,596,596,596,596,596,596,596,596,596,596,596,596,596,596,596,596,596,596,596,596,596,596,596,596,596,596,596,596,596,596,596,596,596,596,596,596,596,596,596,596,596,596,596,596,596,596,596,596,596,596,596,596,596,596,596,596,596,596,596,596,596,596,596,596,596,596,596,596,596,596,596,596,596,596,596,596,596,596,596,596,596,596,596,596,596,596,596,596,596,596,596,596,596,596,596,596,596,596,596,596,596,596,596,596,596,596,596,596,596,596,596,596,596,596,596,596,596,596,596,596,596,596,596,596,596,596,596,596,596,596,596,596,596,596,596,596,596,596,596,596,596,596,596,596,596,596,596,596,596,596,596,596,596,596,596,596,596,596,596,596,596,596,596,596,596,596,596,596,596,596,596,596,596,596,596,596,596,596,596,596,596,596,596,596,596,596,596,596,596,596,596,596,596,596,596,596,596,596,596,596,596,596,596,596,596,596,596,596,596,596,596,596,596,596,596,596,596,596,596,596,596,596,596,596,596,596,596,596,596,596,596,596,596,596,596,596,596,596,596,596,596,596,596,596,596,596,596,596,596,596,596,596,596,596,596,596,596,596,596,596,596,596,596,596,596,596,596,596,596,596,596,596,596,596,596,596,596,596,596,596,596,596,596,596,596,596,596,596,596,596,596,596,596,596,596,596,596,596,596,596,596,596,596,596,596,596,596,596,596,596,596,596,596,596,596,596,596,596,596,596,596,596,596,596,596,596,596,596,596,596,596,596,596,596,596,596,596,596,596,596,596,596,596,596,596,596,596,596,596,596,596,596,596,596,596,596,596,596,596,596,596,596,596,596,596,596,596,596,596,596,596,596,596,596,596,596,596,596,596,596,596,596,596,596,596,596,596,596,596,596,596,596,596,596,596,596,596,596,596,596,596,596,596,596,596,596,596,596,596,596,596,596,596,596,596,596,596,596,596,596,596,596,596,596,596,596,596,596,596,596,596,596,596,596,596,596,596,596,596,596,596,596,596,596,596,596,596,596,596,596,596,596,596,596,596,596,596,596,596,596,596,596,596,596,596,596,595,595,595,624,658,689,713,735,741,741,741,731,719,707,703,699,683,661,597,572,552,531,504,429,394,365,335,301,204,173,155,138,124,75,54],"timestamp_mouse":[10,28,49,68,101,109,128,149,168,188,208,227,249,267,287,307,327,349,368,387,409,427,449,467,488,509,528,549,569,588,609,629,649,668,688,708,728,748,769,788,809,828,849,869,887,907,928,948,969,987,1008,1028,1048,1069,1088,1108,1127,1147,1168,1187,1208,1227,1249,1269,1289,1308,1328,1348,1369,1389,1409,1428,1447,1467,1489,1509,1529,1549,1568,1588,1609,1627,1649,1668,1689,1708,1728,1748,1767,1789,1808,1828,1849,1867,1888,1909,1928,1947,1969,1989,2008,2028,2047,2069,2088,2107,2128,2148,2169,2189,2208,2227,2247,2269,2289,2309,2329,2349,2368,2387,2408,2428,2449,2467,2488,2509,2527,2547,2569,2588,2608,2628,2648,2668,2689,2708,2727,2748,2768,2789,2809,2828,2848,2869,2888,2907,2927,2948,2969,2988,3009,3027,3048,3068,3089,3109,3128,3147,3168,3189,3207,3227,3248,3268,3287,3308,3329,3347,3367,3388,3407,3429,3448,3468,3489,3508,3529,3548,3567,3588,3609,3627,3647,3669,3688,3709,3727,3748,3769,3788,3809,3828,3849,3869,3889,3907,3928,3949,3967,3987,4008,4028,4049,4067,4088,4108,4127,4148,4169,4188,4209,4228,4248,4268,4288,4307,4329,4348,4368,4389,4409,4429,4449,4468,4487,4509,4528,4549,4568,4587,4607,4628,4649,4669,4688,4708,4727,4747,4769,4789,4809,4829,4849,4868,4888,4908,4927,4947,4969,4988,5009,5028,5047,5068,5088,5109,5129,5149,5168,5189,5209,5227,5248,5269,5289,5309,5329,5347,5368,5389,5408,5428,5449,5469,5489,5508,5528,5548,5569,5588,5609,5629,5648,5668,5687,5708,5728,5747,5768,5789,5808,5829,5849,5868,5888,5908,5928,5949,5969,5989,6007,6028,6049,6067,6089,6109,6127,6147,6168,6189,6209,6229,6247,6268,6289,6308,6329,6347,6368,6389,6408,6427,6448,6469,6488,6507,6528,6548,6568,6587,6609,6629,6649,6668,6689,6708,6727,6748,6767,6789,6809,6828,6848,6868,6888,6907,6928,6948,6967,6989,7007,7029,7048,7069,7088,7108,7128,7148,7169,7188,7208,7227,7247,7269,7288,7308,7329,7348,7369,7388,7408,7428,7448,7467,7487,7508,7528,7548,7569,7588,7609,7629,7648,7668,7687,7708,7728,7748,7767,7789,7808,7829,7849,7869,7887,7907,7928,7947,7967,7988,8008,8029,8047,8069,8088,8108,8128,8147,8169,8187,8207,8229,8248,8268,8289,8309,8327,8348,8369,8389,8407,8428,8449,8469,8489,8509,8529,8548,8568,8589,8609,8629,8648,8668,8688,8707,8729,8749,8767,8787,8809,8828,8849,8869,8887,8909,8928,8949,8969,8987,9007,9028,9049,9067,9088,9108,9128,9147,9169,9188,9207,9229,9248,9269,9287,9308,9329,9348,9367,9387,9409,9428,9447,9468,9487,9507,9529,9548,9568,9587,9608,9629,9647,9669,9689,9708,9728,9748,9768,9788,9808,9827,9847,9869,9888,9907,9929,9949,9969,9987,10008,10028,10048,10067,10087,10109,10129,10148,10169,10188,10207,10229,10248,10268,10289,10309,10328,10348,10369,10389,10408,10428,10449,10469,10487,10507,10529,10549,10567,10587,10608,10627,10648,10669,10689,10708,10729,10748,10769,10788,10807,10827,10848,10869,10889,10909,10928,10947,10968,10989,11008,11028,11049,11069,11088,11107,11127,11149,11169,11188,11208,11227,11247,11268,11288,11307,11329,11348,11367,11388,11409,11428,11449,11467,11489,11508,11528,11547,11567,11588,11609,11628,11648,11668,11687,11708,11727,11747,11768,11788,11808,11828,11849,11868,11887,11907,11928,11948,11969,11988,12009,12028,12048,12068,12087,12109,12128,12148,12168,12188,12209,12228,12249,12269,12288,12309,12328,12348,12368,12388,12408,12428,12449,12469,12489,12508,12529,12549,12568,12588,12608,12629,12650,12668,12688,12708,12729,12749,12768,12789,12808,12827,12848,12868,12887,12908,12929,12948,12969,12988,13008,13028,13048,13069,13089,13109,13129,13148,13168,13188,13207,13228,13248,13268,13287,13308,13328,13349,13368,13388,13408,13428,13448,13467,13488,13508,13529,13549,13569,13588,13609,13629,13647,13668,13688,13708,13727,13747,13769,13787,13809,13828,13849,13867,13887,13908,13927,13948,13967,13988,14008,14028,14048,14069,14088,14107,14128,14148,14168,14188,14207,14228,14249,14268,14289,14309,14329,14352,14369,14388,14407,14427,14448,14469,14487,14509,14529,14549,14568,14588,14608,14628,14649,14667,14687,14707,14728,14748,14769,14787,14808,14828,14848,14867,14887,14907,14927,14947,14968,14987,15008,15028,15049,15068,15088,15108,15127,15147,15169,15189,15209,15228,15248,15269,15287,15308,15328,15348,15368,15387,15407,15428,15448,15468,15488,15508,15529,15548,15568,15589,15608,15628,15649,15667,15688,15707,15729,15749,15768,15788,15809,15829,15848,15868,15888,15909,15928,15948,15968,15987,16007,16029,16049,16068,16089,16108,16127,16147,16168,16189,16209,16229,16248,16268,16287,16309,16329,16348,16368,16389,16408,16427,16447,16467,16488,16509,16529,16548,16567,16588,16609,16629,16649,16668,16688,16708,16729,16748,16767,16787,16807,16828,16848,16869,16888,16909,16929,16948,16968,16987,17008,17029,17049,17068,17089,17109,17129,17148,17168,17189,17208,17228,17249,17267,17287,17309,17329,17348,17368,17389,17409,17428,17448,17468,17488,17509,17529,17548,17568,17588,17609,17628,17649,17668,17689,17708,17727,17748,17768,17787,17809,17828,17848,17869,17888,17909,17929,17948,17968,17989,18008,18028,18048,18067,18088,18109,18129,18148,18168,18189,18207,18227,18249,18268,18287,18309,18328,18348,18367,18387,18409,18428,18448,18469,18488,18508,18529,18547,18569,18588,18607,18629,18649,18667,18689,18707,18727,18749,18769,18788,18808,18829,18849,18869,18887,18907,18928,18949,18969,18988,19008,19027,19048,19067,19088,19108,19129,19149,19168,19189,19209,19227,19247,19267,19287,19309,19328,19348,19367,19389,19407,19429,19448,19467,19489,19507,19528,19548,19568,19589,19607,19627,19649,19668,19689,19708,19727,19747,19767,19789,19809,19828,19848,19868,19888,19907,19929,19948,19967,19988,20009,20029,20047,20068,20089,20108,20129,20149,20168,20188,20208,20228,20247,20267,20289,20309,20327,20349,20369,20389,20407,20429,20448,20469,20488,20509,20528,20549,20568,20589,20609,20628,20649,20669,20688,20708,20728,20749,20768,20789,20809,20828,20848,20868,20888,20908,20928,20949,20969,20989,21008,21028,21048,21067,21088,21109,21128,21149,21169,21189,21209,21228,21248,21269,21289,21309,21329,21348,21368,21388,21407,21427,21449,21469,21487,21507,21527,21547,21569,21589,21608,21629,21649,21669,21688,21709,21727,21748,21769,21788,21809,21829,21848,21869,21889,21908,21929,21949,21968,21989,22008,22028,22049,22068,22087,22108,22128,22149,22169,22189,22208,22228,22247,22268,22287,22308,22329,22348,22368,22389,22409,22427,22448,22468,22489,22509,22529,22549,22568,22589,22607,22629,22648,22667,22687,22708,22728,22749,22769,22789,22808,22829,22849,22868,22887,22908,22929,22948,22969,22987,23007,23027,23049,23067,23087,23108,23128,23149,23168,23189,23208,23227,23249,23268,23288,23309,23328,23347,23369,23389,23408,23427,23448,23469,23488,23508,23527,23549,23568,23589,23608,23629,23648,23668,23688,23708,23728,23747,23769,23788,23808,23828,23848,23867,23888,23908,23929,23948,23968,23987,24009,24027,24049,24069,24088,24109,24129,24147,24167,24188,24207,24227,24248,24268,24289,24308,24329,24347,24368,24388,24407,24428,24449,24468,24488,24509,24527,24547,24568,24589,24608,24629,24648,24668,24688,24707,24728,24749,24768,24788,24807,24828,24849,24869,24887,24909,24928,24948,24968,24988,25007,25029,25049,25069,25087,25107,25129,25148,25168,25188,25209,25228,25249,25269,25288,25308,25329,25348,25367,25388,25407,25427,25447,25469,25488,25509,25529,25548,25568,25589,25609,25629,25647,25668,25689,25709,25728,25747,25768,25788,25808,25828,25847,25869,25888,25909,25929,25948,25968,25989,26009,26029,26048,26067,26088,26109,26127,26148,26169,26189,26208,26227,26248,26269,26289,26308,26329,26348,26369,26389,26409,26429,26447,26468,26489,26508,26528,26547,26569,26589,26608,26628,26648,26669,26689,26709,26728,26748,26768,26787,26808,26828,26848,26869,26889,26909,26927,26948,26969,26989,27009,27027,27048,27068,27088,27109,27128,27149,27169,27189,27208,27227,27249,27269,27289,27308,27328,27348,27367,27388,27408,27427,27447,27467,27489,27509,27528,27548,27568,27589,27609,27627,27649,27669,27689,27708,27728,27749,27768,27787,27809,27827,27849,27868,27889,27909,27927,27949,27968,27987,28008,28029,28048,28068,28089,28108,28129,28149,28168,28189,28208,28227,28248,28268,28288,28309,28328,28348,28368,28389,28409,28428,28447,28468,28489,28508,28529,28548,28569,28588,28608,28627,28649,28669,28688,28709,28728,28747,28767,28788,28807,28829,28849,28867,28889,28909,28928,28948,28968,28989,29008,29029,29047,29069,29088,29108,29127,29148,29169,29189,29207,29227,29248,29268,29289,29309,29329,29348,29369,29387,29408,29429,29447,29467,29489,29507,29528,29548,29568,29589,29608,29627,29649,29669,29687,29708,29728,29748,29767,29789,29809,29827,29847,29868,29889,29909,29929,29949,29969,29988,30008,30029,30049,30068,30088,30108,30128,30147,30168,30187,30209,30229,30248,30267,30288,30307,30328,30347,30368,30388,30408,30427,30448,30468,30487,30508,30528,30548,30568,30588,30608,30628,30648,30668,30688,30707,30727,30747,30768,30788,30807,30827,30847,30868,30888,30908],"xSR":741.5,"ySR":573.95,"xT1":424.9,"yT1":0,"xT2":1058.1,"yT2":0,"toosoon":0,"cond_shown":"randomdotsizeEA","ratio_trial":900,"smaller_num":"18","larger_num":"20","correct_side":1,"subjID":"DanielStevenCortesBuitrago3","gender":"0","age":"10","school":"6"},{"start_time":1551882731138,"click_time":1551882732363,"finger_time":1551882731563,"fix_duration":493.4098739378443,"trial":20,"RT":425,"MT":800,"sideResp":1,"stimulus":"img/500/equaldotsize/L/7_Ratio_500_L_10_R_5.png","xmouse":[810,810,810,810,810,810,810,810,810,810,810,810,810,810,810,810,810,810,810,810,810,790,781,774,772,772,772,772,772,772,772,772,772,772,772,772,772,772,772,772,772,772,772,772,772,775,777,777,777,777,777,775,755,722,681,626,614,608,602,586,568,510],"ymouse":[639,639,639,639,639,639,639,639,639,639,639,639,639,639,639,639,639,639,639,639,639,683,700,708,710,710,710,710,710,710,710,710,710,710,710,710,710,710,710,710,710,710,710,710,707,700,694,686,673,650,568,504,429,338,247,95,50,39,32,25,19,1],"timestamp_mouse":[11,39,47,66,87,106,127,146,166,186,206,226,247,266,287,307,326,346,366,385,405,425,446,466,487,505,526,547,567,587,606,627,647,667,686,706,725,745,767,786,807,827,846,866,885,905,926,946,966,985,1005,1025,1046,1066,1086,1107,1125,1147,1166,1186,1206,1225],"xSR":741.5,"ySR":573.95,"xT1":424.9,"yT1":0,"xT2":1058.1,"yT2":0,"toosoon":0,"cond_shown":"equaldotsize","ratio_trial":500,"smaller_num":"5","larger_num":"10","correct_side":1,"subjID":"DanielStevenCortesBuitrago3","gender":"0","age":"10","school":"6"},{"start_time":1551882734508,"click_time":1551882736084,"finger_time":1551882735405,"fix_duration":522.5866193979977,"trial":21,"RT":897,"MT":679,"sideResp":1,"stimulus":"img/750/equaldotsize/L/9_Ratio_750_L_4_R_3.png","xmouse":[787,787,787,787,787,787,787,787,787,787,787,787,787,787,787,787,787,787,787,787,787,787,787,787,787,787,787,787,787,787,787,787,787,786,786,786,786,786,786,786,786,795,807,825,851,905,933,975,985,991,991,991,991,990,984,972,946,896,856,809,746,627,597,588,586,586,586,586,586,585,583,575,569,569,569,567,562,530,519],"ymouse":[621,621,621,621,621,621,621,621,621,621,621,621,621,621,621,621,621,621,621,621,621,621,621,621,621,621,621,621,621,621,621,621,621,620,620,620,620,620,620,620,620,614,602,581,545,456,394,268,212,172,148,133,129,129,129,129,134,169,191,202,201,162,148,138,130,122,106,89,84,79,75,67,62,62,62,62,61,56,54],"timestamp_mouse":[25,39,56,76,96,116,136,156,175,196,217,236,257,277,296,316,337,355,377,397,416,435,456,476,497,516,535,557,576,597,615,637,657,676,697,715,737,756,776,797,815,837,855,876,897,916,936,956,976,996,1016,1036,1055,1077,1096,1116,1136,1157,1176,1196,1215,1236,1256,1276,1296,1315,1336,1356,1376,1395,1415,1437,1456,1475,1496,1516,1536,1557,1575],"xSR":741.5,"ySR":573.95,"xT1":424.9,"yT1":0,"xT2":1058.1,"yT2":0,"toosoon":0,"cond_shown":"equaldotsize","ratio_trial":750,"smaller_num":"3","larger_num":"4","correct_side":1,"subjID":"DanielStevenCortesBuitrago3","gender":"0","age":"10","school":"6"},{"start_time":1551882738066,"click_time":1551882739264,"finger_time":1551882738963,"fix_duration":1020.6734485963304,"trial":22,"RT":897,"MT":301,"sideResp":2,"stimulus":"img/900/equaldotsize/R/12_Ratio_900_L_18_R_20.png","xmouse":[818,818,818,818,818,818,818,818,818,818,818,818,818,818,818,818,818,818,818,818,818,818,818,818,818,818,818,818,818,818,818,818,818,818,818,818,818,818,818,818,818,818,821,829,868,898,942,971,1000,1048,1064,1075,1081,1085,1088,1088,1088,1091,1099,1119],"ymouse":[627,627,627,627,627,627,627,627,627,627,627,627,627,627,627,627,627,627,627,627,627,627,627,627,627,627,627,627,627,627,627,627,627,627,627,627,627,627,627,627,627,627,627,619,572,532,457,407,356,274,241,214,191,177,167,166,159,140,113,45],"timestamp_mouse":[18,41,58,79,98,117,139,158,179,199,219,239,257,279,299,319,338,357,378,399,419,437,459,479,497,518,539,559,579,597,619,639,659,677,698,718,738,758,778,798,819,838,857,877,897,918,938,959,978,997,1017,1038,1058,1078,1097,1118,1137,1158,1178,1198],"xSR":741.5,"ySR":573.95,"xT1":424.9,"yT1":0,"xT2":1058.1,"yT2":0,"toosoon":0,"cond_shown":"equaldotsize","ratio_trial":900,"smaller_num":"18","larger_num":"20","correct_side":2,"subjID":"DanielStevenCortesBuitrago3","gender":"0","age":"10","school":"6"},{"start_time":1551882742343,"click_time":1551882752784,"finger_time":1551882746744,"fix_duration":938.0197586922916,"trial":23,"RT":4401,"MT":6040,"sideResp":1,"stimulus":"img/750/randomdotsizeEA/R/2_Ratio_750_L_6_R_8.png","xmouse":[782,782,782,782,782,782,782,782,782,782,782,782,782,782,782,782,782,782,782,782,782,782,782,782,782,782,782,782,782,782,782,782,782,782,782,782,782,782,782,782,782,782,782,782,782,782,782,782,782,782,782,782,782,782,782,782,782,782,782,782,782,782,782,782,782,782,782,782,782,782,782,782,782,782,782,782,782,782,782,782,782,782,782,782,782,782,782,782,782,782,782,782,782,782,782,782,782,782,782,782,782,782,782,782,782,782,782,782,782,782,782,782,782,782,782,782,782,779,778,778,778,778,778,778,778,778,778,778,778,778,778,778,778,778,778,778,778,778,777,776,776,776,776,776,776,776,776,776,776,776,776,776,776,776,776,776,776,776,776,776,776,776,776,776,776,776,776,776,776,776,776,776,776,776,776,776,775,775,775,775,775,775,775,775,774,774,774,774,774,774,774,774,774,774,774,774,774,774,774,774,774,774,774,774,774,774,774,774,774,774,774,774,774,774,774,774,774,774,772,771,764,760,751,749,749,747,747,744,740,729,717,708,698,697,697,697,697,697,697,696,696,696,696,696,696,696,696,696,696,696,696,696,696,696,696,696,696,696,694,691,689,689,689,689,689,689,689,689,689,689,689,689,689,689,689,689,689,689,689,689,689,689,689,689,689,689,689,689,689,689,689,689,689,689,689,689,689,689,689,689,689,689,689,689,689,689,689,689,689,689,689,689,689,689,689,689,689,689,689,689,689,689,689,689,689,689,689,689,689,689,689,689,689,689,689,689,689,689,689,689,689,689,689,689,689,689,689,689,689,689,689,689,689,689,689,689,689,689,689,689,689,689,689,689,689,689,689,689,689,689,689,689,689,689,689,689,689,689,689,689,689,689,689,689,689,689,689,686,686,686,686,686,686,686,686,686,686,686,686,686,686,686,686,686,686,686,686,686,686,686,686,686,686,686,686,686,686,686,686,686,686,686,686,686,686,686,686,686,686,686,686,686,686,686,686,686,686,686,686,686,686,686,686,686,686,686,686,686,686,686,686,686,686,692,693,695,695,695,695,695,695,695,695,695,695,696,696,698,705,708,710,711,720,729,739,749,757,769,771,774,778,780,781,782,782,782,782,782,782,783,783,784,785,786,786,786,786,786,789,792,798,804,805,805,805,805,805,782,762,743,726,707,691,655,637,622,612,604,575,564,550,534,523],"ymouse":[614,614,614,614,614,614,614,614,614,614,614,614,614,614,614,614,614,614,614,614,614,614,614,614,614,614,614,614,614,614,614,614,614,614,614,614,614,614,614,614,614,614,614,614,614,614,614,614,614,614,614,614,614,614,614,614,614,614,614,614,614,614,614,614,614,614,614,614,614,614,614,614,614,614,614,614,614,614,614,614,614,614,614,614,614,614,614,614,614,614,614,614,614,614,614,614,614,614,614,614,614,614,614,614,614,614,614,614,614,614,614,614,614,614,614,614,614,616,618,620,620,620,620,620,620,620,620,620,620,620,620,620,620,620,620,620,620,620,621,623,623,623,623,623,623,623,623,623,623,623,623,623,623,623,623,623,623,623,623,623,623,623,623,623,623,623,624,628,629,633,641,644,644,645,648,650,652,653,653,653,653,653,653,653,655,655,655,655,655,655,655,655,655,655,655,655,655,655,655,655,655,655,655,655,657,658,658,658,658,658,658,658,658,658,659,659,659,662,668,670,684,695,710,713,715,718,721,730,737,759,775,787,803,804,805,805,805,805,805,806,806,806,806,806,806,806,806,806,806,806,806,806,806,806,806,806,806,806,812,826,831,833,833,833,833,833,833,828,823,823,823,823,823,823,823,823,823,823,823,823,823,823,823,823,823,823,823,823,823,823,823,823,823,823,823,823,823,823,823,823,823,823,823,823,823,823,823,823,823,823,823,823,823,823,823,823,823,823,823,823,823,823,823,823,823,823,823,823,823,823,823,823,823,823,823,823,823,823,823,823,823,823,823,823,823,823,823,823,823,823,823,823,823,823,823,823,823,823,823,823,823,823,823,823,823,823,823,823,823,823,823,823,823,823,823,823,823,823,823,823,823,823,823,823,823,827,835,881,881,881,881,881,881,881,881,881,881,881,881,881,881,881,881,881,881,881,881,881,881,881,881,881,881,881,881,881,881,881,881,881,881,881,881,881,881,881,881,881,881,881,881,881,881,881,881,881,881,881,881,881,881,881,881,881,881,881,881,881,881,881,881,881,881,877,870,864,864,864,864,864,864,864,864,864,864,863,863,862,855,852,850,848,840,831,818,803,786,730,706,691,678,671,667,665,665,665,665,665,665,665,664,663,662,661,661,661,661,661,648,625,587,536,424,369,325,292,266,222,213,204,196,187,177,159,151,145,141,137,122,113,103,90,80],"timestamp_mouse":[10,34,40,61,80,101,122,141,162,182,202,221,241,262,280,301,321,342,361,381,402,420,440,462,482,502,521,542,560,582,600,621,641,660,681,700,720,740,760,780,800,821,840,861,881,900,920,941,962,980,1001,1021,1041,1062,1081,1102,1122,1140,1160,1182,1201,1221,1241,1261,1280,1301,1322,1340,1362,1382,1401,1421,1442,1462,1482,1500,1521,1540,1562,1582,1601,1620,1641,1661,1682,1700,1720,1741,1760,1782,1802,1820,1840,1861,1881,1901,1921,1942,1961,1981,2001,2021,2040,2060,2081,2101,2122,2142,2161,2181,2202,2222,2241,2260,2281,2302,2322,2340,2361,2380,2401,2421,2441,2461,2480,2501,2521,2542,2561,2581,2601,2621,2642,2662,2682,2700,2720,2740,2762,2781,2801,2820,2840,2862,2881,2901,2920,2940,2961,2982,3001,3021,3042,3061,3082,3101,3120,3142,3162,3180,3200,3221,3240,3261,3282,3302,3320,3340,3361,3381,3401,3422,3440,3461,3481,3501,3521,3540,3561,3581,3602,3620,3641,3660,3682,3701,3720,3742,3762,3780,3800,3822,3841,3861,3880,3901,3920,3940,3962,3980,4000,4021,4041,4060,4081,4100,4121,4141,4160,4180,4201,4222,4241,4261,4280,4302,4321,4341,4361,4380,4401,4421,4441,4460,4481,4501,4521,4540,4562,4581,4602,4621,4642,4661,4680,4702,4721,4741,4761,4782,4801,4821,4840,4861,4880,4902,4921,4942,4962,4980,5001,5020,5040,5062,5081,5100,5120,5140,5161,5181,5202,5221,5241,5260,5282,5301,5321,5340,5360,5380,5401,5422,5441,5468,5480,5500,5522,5540,5562,5581,5600,5622,5642,5660,5681,5702,5722,5742,5762,5782,5801,5821,5841,5861,5880,5901,5920,5941,5961,5980,6001,6021,6041,6061,6081,6102,6121,6142,6160,6180,6200,6220,6242,6261,6282,6301,6320,6341,6361,6380,6400,6420,6441,6461,6481,6502,6521,6541,6560,6580,6601,6621,6641,6661,6681,6701,6721,6741,6760,6780,6801,6821,6842,6862,6881,6901,6921,6941,6961,6981,7001,7020,7041,7060,7080,7100,7122,7142,7162,7182,7202,7221,7242,7261,7281,7301,7322,7342,7361,7382,7402,7420,7441,7460,7480,7500,7522,7542,7562,7581,7601,7621,7642,7661,7681,7700,7720,7741,7760,7781,7802,7821,7841,7862,7881,7901,7921,7940,7960,7981,8001,8021,8041,8062,8081,8101,8120,8140,8161,8181,8202,8222,8241,8262,8280,8300,8320,8341,8361,8382,8401,8421,8440,8460,8481,8502,8521,8541,8561,8580,8600,8620,8640,8660,8680,8701,8722,8741,8761,8780,8801,8821,8840,8861,8881,8902,8921,8941,8961,8981,9000,9021,9041,9060,9082,9101,9121,9141,9161,9181,9202,9221,9241,9262,9281,9300,9320,9340,9360,9381,9402,9421,9441,9460,9480,9500,9521,9541,9561,9581,9601,9621,9641,9661,9682,9702,9720,9741,9760,9780,9800,9821,9842,9862,9882,9901,9921,9940,9962,9980,10001,10021,10041,10060,10082,10101,10121,10141,10161,10180,10201,10221,10241,10260,10281,10301,10321,10340,10360,10381,10400,10421,10441],"xSR":741.5,"ySR":573.95,"xT1":424.9,"yT1":0,"xT2":1058.1,"yT2":0,"toosoon":0,"cond_shown":"randomdotsizeEA","ratio_trial":750,"smaller_num":"6","larger_num":"8","correct_side":2,"subjID":"DanielStevenCortesBuitrago3","gender":"0","age":"10","school":"6"},{"start_time":1551882759689,"click_time":1551882760665,"finger_time":1551882760504,"fix_duration":1463.6385598874526,"trial":24,"RT":815,"MT":161,"sideResp":1,"stimulus":"img/250/equaldotsize/L/15_Ratio_250_L_12_R_3.png","xmouse":[801,801,801,801,801,801,801,801,801,801,801,801,801,801,801,801,801,801,801,801,801,801,801,801,801,801,801,801,801,801,801,801,801,801,801,801,801,801,801,794,764,734,700,668,644,584,560,537,520],"ymouse":[613,613,613,613,613,613,613,613,613,613,613,613,613,613,613,613,613,613,613,613,613,613,613,613,613,613,613,613,613,613,613,613,613,613,613,613,613,613,612,605,564,508,443,375,313,167,127,96,74],"timestamp_mouse":[14,35,61,74,96,114,135,155,174,196,215,235,254,275,294,314,335,355,376,395,415,436,455,474,496,515,535,556,576,595,615,636,656,676,695,715,735,756,775,795,815,834,854,874,894,915,936,955,976],"xSR":741.5,"ySR":573.95,"xT1":424.9,"yT1":0,"xT2":1058.1,"yT2":0,"toosoon":0,"cond_shown":"equaldotsize","ratio_trial":250,"smaller_num":"3","larger_num":"12","correct_side":1,"subjID":"DanielStevenCortesBuitrago3","gender":"0","age":"10","school":"6"},{"start_time":1551882762704,"click_time":1551882763964,"finger_time":1551882763323,"fix_duration":758.398571876393,"trial":25,"RT":619,"MT":641,"sideResp":2,"stimulus":"img/500/equaldotanddens/R/12_Ratio_500_L_1_R_2.png","xmouse":[798,798,798,798,798,799,799,799,799,799,799,799,800,800,800,801,802,802,802,802,802,802,802,802,802,802,802,802,803,806,815,855,894,939,979,995,1039,1067,1088,1101,1116,1120,1132,1151,1199,1237,1293,1309,1320,1325,1330,1331,1312,1292,1268,1247,1212,1200,1189,1179,1172,1162,1160,1157],"ymouse":[626,626,626,626,626,626,626,626,626,626,626,626,626,626,626,626,625,625,625,625,625,625,625,625,625,625,625,625,624,622,614,576,546,510,471,444,354,306,271,254,239,235,223,199,131,67,0,0,0,0,0,0,0,0,0,0,0,0,2,3,5,5,6,7],"timestamp_mouse":[1,19,40,59,81,101,120,140,160,179,200,220,239,261,280,300,321,341,360,380,399,419,441,460,479,500,520,540,560,579,600,619,640,660,680,700,720,739,760,780,801,821,840,860,880,899,921,939,961,979,999,1020,1040,1060,1080,1099,1120,1140,1160,1181,1201,1220,1240,1259],"xSR":741.5,"ySR":573.95,"xT1":424.9,"yT1":0,"xT2":1058.1,"yT2":0,"toosoon":0,"cond_shown":"equaldotanddens","ratio_trial":500,"smaller_num":"1","larger_num":"2","correct_side":2,"subjID":"DanielStevenCortesBuitrago3","gender":"0","age":"10","school":"6"},{"start_time":1551882766268,"click_time":1551882767924,"finger_time":1551882767664,"fix_duration":842.146390428253,"trial":26,"RT":1396,"MT":260,"sideResp":2,"stimulus":"img/250/randomdotsizeEA/R/10_Ratio_250_L_4_R_16.png","xmouse":[787,787,787,787,787,787,787,787,787,787,787,787,787,787,787,787,787,787,787,787,787,787,787,787,787,787,787,787,787,787,787,787,787,787,787,787,787,787,787,787,787,787,787,787,787,787,787,787,787,787,787,787,787,787,787,787,787,787,787,787,787,787,787,787,787,787,787,793,813,849,892,931,985,1012,1026,1040,1048,1062,1067,1071,1074,1077,1091],"ymouse":[618,618,618,618,618,618,618,618,618,618,618,618,618,618,618,618,618,618,618,618,618,618,618,618,618,618,618,618,618,618,618,618,618,618,618,618,618,618,618,618,618,618,618,618,618,618,618,618,618,618,618,618,618,618,618,618,618,618,618,618,618,618,618,618,618,618,618,614,600,578,552,515,430,350,304,250,215,162,145,132,122,111,83],"timestamp_mouse":[17,37,57,76,97,117,136,155,177,197,216,236,256,276,297,316,336,356,376,395,416,437,456,477,495,516,536,557,575,596,617,637,656,676,696,715,735,757,776,796,816,836,857,877,895,916,935,957,976,997,1017,1037,1056,1076,1096,1116,1137,1156,1175,1195,1216,1235,1257,1277,1295,1315,1336,1355,1375,1396,1416,1436,1455,1476,1496,1516,1537,1556,1577,1597,1616,1636,1656],"xSR":741.5,"ySR":573.95,"xT1":424.9,"yT1":0,"xT2":1058.1,"yT2":0,"toosoon":0,"cond_shown":"randomdotsizeEA","ratio_trial":250,"smaller_num":"4","larger_num":"16","correct_side":2,"subjID":"DanielStevenCortesBuitrago3","gender":"0","age":"10","school":"6"},{"start_time":1551882769620,"click_time":1551882770844,"finger_time":1551882770424,"fix_duration":794.0886383767759,"trial":27,"RT":804,"MT":420,"sideResp":1,"stimulus":"img/500/randomdotsizeEA/L/13_Ratio_500_L_12_R_6.png","xmouse":[793,793,793,793,793,793,793,793,793,793,793,793,793,793,793,793,793,793,793,793,793,793,793,793,793,793,793,793,793,793,793,793,793,793,793,793,793,793,793,793,790,783,781,779,779,776,773,761,737,708,627,591,554,508,447,430,428,428,428,428,428,428],"ymouse":[626,626,626,626,626,626,626,626,626,626,626,626,626,626,626,626,626,626,626,626,626,626,626,626,626,626,626,626,626,626,626,626,626,626,627,627,624,617,603,583,560,516,500,491,486,468,454,425,381,328,175,91,0,0,0,0,0,0,0,0,0,2],"timestamp_mouse":[9,25,45,64,85,104,124,144,165,185,204,224,245,263,284,303,324,344,363,385,404,425,443,463,484,504,524,544,564,585,603,623,645,664,685,703,725,743,763,784,804,824,844,864,884,904,923,944,965,984,1004,1023,1043,1063,1085,1104,1123,1145,1165,1184,1204,1224],"xSR":741.5,"ySR":573.95,"xT1":424.9,"yT1":0,"xT2":1058.1,"yT2":0,"toosoon":0,"cond_shown":"randomdotsizeEA","ratio_trial":500,"smaller_num":"6","larger_num":"12","correct_side":1,"subjID":"DanielStevenCortesBuitrago3","gender":"0","age":"10","school":"6"},{"start_time":1551882772095,"click_time":1551882773304,"finger_time":1551882772944,"fix_duration":250,"trial":28,"RT":849,"MT":360,"sideResp":1,"stimulus":"img/500/equaldotanddens/L/8_Ratio_500_L_8_R_4.png","xmouse":[803,803,803,803,803,803,803,803,803,803,805,807,811,811,811,811,811,811,811,811,811,811,811,811,811,811,811,811,811,811,811,811,811,811,811,811,811,811,811,811,811,811,811,807,799,788,776,759,742,730,718,710,690,673,656,635,614,577,561,534,519],"ymouse":[645,645,645,645,645,645,645,645,645,645,644,641,638,637,637,637,637,637,637,637,637,637,637,637,637,637,637,637,637,637,637,637,637,637,637,637,637,637,637,637,635,621,545,486,421,360,314,255,219,197,178,166,142,130,118,108,98,86,80,73,71],"timestamp_mouse":[10,39,48,70,90,108,129,148,170,190,210,229,248,269,289,309,330,350,368,389,408,429,448,470,488,509,530,550,568,589,608,629,650,669,689,708,729,749,768,789,810,829,849,869,889,909,929,949,969,989,1008,1028,1048,1068,1090,1109,1129,1149,1169,1188,1209],"xSR":741.5,"ySR":573.95,"xT1":424.9,"yT1":0,"xT2":1058.1,"yT2":0,"toosoon":0,"cond_shown":"equaldotanddens","ratio_trial":500,"smaller_num":"4","larger_num":"8","correct_side":1,"subjID":"DanielStevenCortesBuitrago3","gender":"0","age":"10","school":"6"},{"start_time":1551882775608,"click_time":1551882776964,"finger_time":1551882776444,"fix_duration":1363.5273054654551,"trial":29,"RT":836,"MT":520,"sideResp":2,"stimulus":"img/900/randomdotsizeEA/R/5_Ratio_900_L_9_R_10.png","xmouse":[779,779,779,779,779,779,779,779,779,779,779,779,779,779,779,779,779,779,779,779,779,779,779,779,779,779,779,779,779,779,779,779,779,779,779,779,779,779,784,800,822,886,905,922,935,952,992,1011,1025,1036,1043,1058,1064,1071,1079,1088,1096,1097,1099,1099,1100,1105,1107,1112,1118,1124,1127,1128],"ymouse":[636,636,636,636,636,636,636,636,636,636,636,636,636,636,636,636,636,636,636,636,636,636,636,636,636,636,636,636,636,636,636,636,636,636,636,636,636,636,632,621,606,551,532,511,489,458,389,357,331,310,291,245,225,205,193,186,180,180,179,178,178,173,169,161,148,133,116,84],"timestamp_mouse":[15,45,56,75,96,116,136,156,176,196,217,236,257,275,295,317,337,356,376,395,416,436,455,475,497,517,536,555,576,595,616,636,657,676,697,716,736,755,775,795,816,836,856,876,896,916,936,955,976,995,1017,1036,1057,1076,1096,1115,1136,1155,1176,1196,1216,1236,1255,1275,1295,1315,1336,1355],"xSR":741.5,"ySR":573.95,"xT1":424.9,"yT1":0,"xT2":1058.1,"yT2":0,"toosoon":0,"cond_shown":"randomdotsizeEA","ratio_trial":900,"smaller_num":"9","larger_num":"10","correct_side":2,"subjID":"DanielStevenCortesBuitrago3","gender":"0","age":"10","school":"6"},{"start_time":1551882780651,"click_time":1551882781464,"finger_time":1551882781264,"fix_duration":1445.9644817405513,"trial":30,"RT":613,"MT":200,"sideResp":1,"stimulus":"img/500/equaldotsize/L/10_Ratio_500_L_4_R_2.png","xmouse":[767,767,767,767,767,767,767,767,767,767,767,767,767,767,767,767,767,767,767,767,767,767,767,767,767,767,767,767,768,768,688,610,539,490,462,453,453,453,461,465,474],"ymouse":[647,647,647,647,647,647,647,647,647,647,647,647,647,647,647,647,647,647,647,647,647,647,647,647,647,647,647,647,647,634,519,438,357,291,241,187,158,150,125,111,81],"timestamp_mouse":[20,38,52,73,92,112,134,152,172,193,213,234,252,273,293,314,332,353,372,393,413,433,453,473,492,512,534,552,574,593,613,632,653,673,694,712,732,753,772,793,813],"xSR":741.5,"ySR":573.95,"xT1":424.9,"yT1":0,"xT2":1058.1,"yT2":0,"toosoon":0,"cond_shown":"equaldotsize","ratio_trial":500,"smaller_num":"2","larger_num":"4","correct_side":1,"subjID":"DanielStevenCortesBuitrago3","gender":"0","age":"10","school":"6"},{"start_time":1551882783221,"click_time":1551882784723,"finger_time":1551882784563,"fix_duration":857.1588994736345,"trial":31,"RT":1342,"MT":160,"sideResp":2,"stimulus":"img/500/randomdotsizeEA/R/9_Ratio_500_L_2_R_4.png","xmouse":[816,816,816,816,816,816,816,816,816,816,816,816,817,817,818,818,818,818,818,818,818,819,819,819,819,819,819,819,819,819,819,819,819,819,819,819,819,819,819,819,819,819,819,819,819,819,819,819,819,819,819,819,819,819,819,819,819,819,819,819,819,819,819,819,820,824,834,879,932,970,999,1019,1046,1050,1055,1062],"ymouse":[647,647,647,647,647,647,647,647,647,647,647,647,647,647,647,647,647,647,647,647,647,647,647,647,647,647,647,647,647,647,647,647,647,647,647,647,647,647,647,647,647,647,647,647,647,647,647,647,647,647,647,647,647,647,647,647,647,647,647,647,647,647,647,647,646,643,627,550,455,388,316,250,133,95,70,54],"timestamp_mouse":[10,22,42,62,83,103,123,144,164,183,203,223,243,262,283,302,324,343,363,382,403,423,442,463,482,502,523,543,563,583,604,624,643,664,682,703,724,744,763,782,803,823,843,863,882,903,923,943,964,984,1004,1024,1043,1063,1084,1103,1124,1144,1164,1182,1202,1223,1244,1264,1283,1302,1323,1342,1362,1383,1402,1423,1442,1462,1482,1502],"xSR":741.5,"ySR":573.95,"xT1":424.9,"yT1":0,"xT2":1058.1,"yT2":0,"toosoon":0,"cond_shown":"randomdotsizeEA","ratio_trial":500,"smaller_num":"2","larger_num":"4","correct_side":2,"subjID":"DanielStevenCortesBuitrago3","gender":"0","age":"10","school":"6"},{"start_time":1551882786180,"click_time":1551882787104,"finger_time":1551882787025,"fix_duration":754.6391293409798,"trial":32,"RT":845,"MT":79,"sideResp":2,"stimulus":"img/250/equaldotsize/R/8_Ratio_250_L_1_R_4.png","xmouse":[801,801,801,801,801,801,801,801,801,801,801,801,801,801,801,801,801,801,801,801,801,801,801,801,801,801,801,801,801,801,801,801,801,801,801,801,801,801,801,801,806,825,866,919,1030,1070,1099],"ymouse":[632,632,632,632,632,632,632,632,632,632,632,632,632,632,632,632,632,632,632,632,632,632,632,632,632,632,632,632,632,632,632,632,632,632,632,632,632,632,632,632,629,599,534,448,249,159,75],"timestamp_mouse":[18,26,43,64,84,104,124,143,164,184,203,224,244,265,284,303,324,343,364,384,404,423,443,463,485,504,524,543,563,585,604,624,644,663,684,704,725,744,764,783,804,824,845,864,885,903,924],"xSR":741.5,"ySR":573.95,"xT1":424.9,"yT1":0,"xT2":1058.1,"yT2":0,"toosoon":0,"cond_shown":"equaldotsize","ratio_trial":250,"smaller_num":"1","larger_num":"4","correct_side":2,"subjID":"DanielStevenCortesBuitrago3","gender":"0","age":"10","school":"6"},{"start_time":1551882790573,"click_time":1551882791524,"finger_time":1551882791283,"fix_duration":1329.1497469017122,"trial":33,"RT":710,"MT":241,"sideResp":2,"stimulus":"img/250/equaldotanddens/R/13_Ratio_250_L_2_R_8.png","xmouse":[786,786,786,786,786,786,786,786,786,786,786,786,786,786,786,786,786,786,786,786,786,786,786,786,786,786,786,786,786,786,786,786,786,788,792,813,835,872,903,932,957,961,971,982,996,1034,1052,1077],"ymouse":[638,638,638,638,638,638,638,638,638,638,638,638,638,638,638,638,638,638,638,638,638,638,638,638,638,638,638,638,638,638,638,638,637,635,623,573,527,451,407,366,307,282,248,220,194,141,111,67],"timestamp_mouse":[10,42,51,71,90,110,131,151,170,192,211,232,251,270,291,310,331,352,370,391,410,432,452,472,491,511,531,551,570,592,611,630,651,670,692,710,731,751,771,791,810,830,850,871,891,910,930,950],"xSR":741.5,"ySR":573.95,"xT1":424.9,"yT1":0,"xT2":1058.1,"yT2":0,"toosoon":0,"cond_shown":"equaldotanddens","ratio_trial":250,"smaller_num":"2","larger_num":"8","correct_side":2,"subjID":"DanielStevenCortesBuitrago3","gender":"0","age":"10","school":"6"},{"start_time":1551882792676,"click_time":1551882793903,"finger_time":1551882793564,"fix_duration":250,"trial":34,"RT":888,"MT":339,"sideResp":1,"stimulus":"img/750/randomdotsizeEA/L/13_Ratio_750_L_8_R_6.png","xmouse":[770,770,770,770,770,770,770,770,770,770,770,770,770,770,770,770,770,770,770,770,770,770,770,770,770,770,770,770,770,770,770,770,770,770,770,770,770,770,770,770,770,770,769,766,761,734,718,704,694,686,669,657,651,644,637,624,619,615,613,606,556,523],"ymouse":[641,641,641,641,641,641,641,641,641,641,641,641,641,641,641,641,641,641,641,641,641,641,641,641,641,641,641,641,641,641,641,641,641,641,641,641,641,641,641,641,641,632,616,593,560,457,400,351,309,269,204,166,142,117,94,57,45,41,41,39,32,27],"timestamp_mouse":[10,40,47,69,87,107,127,149,167,188,208,227,249,268,287,308,328,347,367,389,409,428,447,468,489,508,529,547,567,588,609,627,649,667,688,708,727,747,769,788,808,828,847,868,888,908,927,948,968,987,1008,1028,1048,1068,1088,1108,1127,1148,1168,1188,1208,1227],"xSR":741.5,"ySR":573.95,"xT1":424.9,"yT1":0,"xT2":1058.1,"yT2":0,"toosoon":0,"cond_shown":"randomdotsizeEA","ratio_trial":750,"smaller_num":"6","larger_num":"8","correct_side":1,"subjID":"DanielStevenCortesBuitrago3","gender":"0","age":"10","school":"6"},{"start_time":1551882795634,"click_time":1551882796404,"finger_time":1551882796185,"fix_duration":568.1670658445599,"trial":35,"RT":551,"MT":219,"sideResp":2,"stimulus":"img/900/randomdotsizeEA/R/15_Ratio_900_L_9_R_10.png","xmouse":[770,770,770,770,770,770,770,770,770,770,770,770,770,770,770,770,770,770,771,772,773,776,783,790,794,798,804,824,836,852,870,892,953,982,1007,1030,1052,1071,1096],"ymouse":[634,634,634,634,634,634,634,634,634,634,634,634,634,634,634,634,634,634,634,633,630,625,613,602,595,586,576,547,525,499,467,430,326,278,233,189,149,117,69],"timestamp_mouse":[11,39,49,70,90,110,131,149,170,189,210,229,251,271,290,309,330,350,371,391,410,431,449,471,490,511,529,550,570,590,610,629,650,670,690,710,730,750,770],"xSR":741.5,"ySR":573.95,"xT1":424.9,"yT1":0,"xT2":1058.1,"yT2":0,"toosoon":0,"cond_shown":"randomdotsizeEA","ratio_trial":900,"smaller_num":"9","larger_num":"10","correct_side":2,"subjID":"DanielStevenCortesBuitrago3","gender":"0","age":"10","school":"6"},{"start_time":1551882798416,"click_time":1551882799264,"finger_time":1551882799004,"fix_duration":1069.2305852320255,"trial":36,"RT":588,"MT":260,"sideResp":1,"stimulus":"img/900/equaldotanddens/L/10_Ratio_900_L_20_R_18.png","xmouse":[810,804,802,800,799,799,799,799,799,799,799,799,799,799,799,799,799,799,799,799,799,799,799,799,799,795,790,776,758,723,701,690,656,638,626,623,617,610,593,567,549,531,509],"ymouse":[615,615,613,613,613,613,613,613,613,613,613,613,613,613,613,613,613,613,613,613,613,613,613,613,613,611,608,598,581,536,488,460,353,283,183,155,130,111,97,89,87,84,78],"timestamp_mouse":[11,27,48,67,88,108,129,148,167,189,207,228,248,268,288,309,327,347,369,389,409,429,448,468,488,508,529,547,567,588,608,627,647,667,688,707,728,747,769,787,807,827,848],"xSR":741.5,"ySR":573.95,"xT1":424.9,"yT1":0,"xT2":1058.1,"yT2":0,"toosoon":0,"cond_shown":"equaldotanddens","ratio_trial":900,"smaller_num":"18","larger_num":"20","correct_side":1,"subjID":"DanielStevenCortesBuitrago3","gender":"0","age":"10","school":"6"},{"start_time":1551882800617,"click_time":1551882801664,"finger_time":1551882801164,"fix_duration":430.13470612354934,"trial":37,"RT":547,"MT":500,"sideResp":1,"stimulus":"img/250/equaldotanddens/L/15_Ratio_250_L_12_R_3.png","xmouse":[797,797,797,797,797,797,797,797,797,797,797,797,797,797,797,797,797,797,797,797,796,794,790,785,772,764,755,741,723,703,703,698,690,678,651,638,621,599,570,539,479,464,458,454,454,454,454,454,454,454,454,453,454],"ymouse":[629,629,629,629,629,629,629,629,629,629,629,629,629,629,629,629,629,629,629,629,629,629,629,628,616,604,582,534,467,331,238,179,122,76,17,7,1,0,0,0,0,0,0,0,0,0,0,0,0,0,0,0,8],"timestamp_mouse":[10,38,46,67,87,108,126,148,166,187,207,227,246,268,287,308,326,347,366,387,406,427,447,467,486,507,527,547,566,586,606,626,647,666,686,706,727,746,765,786,806,826,846,867,886,906,927,947,967,986,1006,1026,1047],"xSR":741.5,"ySR":573.95,"xT1":424.9,"yT1":0,"xT2":1058.1,"yT2":0,"toosoon":0,"cond_shown":"equaldotanddens","ratio_trial":250,"smaller_num":"3","larger_num":"12","correct_side":1,"subjID":"DanielStevenCortesBuitrago3","gender":"0","age":"10","school":"6"},{"start_time":1551882803236,"click_time":1551882804163,"finger_time":1551882803863,"fix_duration":250,"trial":38,"RT":627,"MT":300,"sideResp":2,"stimulus":"img/750/randomdotsizeEA/L/10_Ratio_750_L_4_R_3.png","xmouse":[774,774,774,774,774,779,785,801,810,810,810,810,810,810,810,810,810,810,810,810,810,810,810,810,811,811,811,811,813,814,819,830,851,930,972,1008,1035,1059,1065,1081,1084,1087,1087,1090,1091,1092,1092],"ymouse":[617,617,617,617,617,626,634,653,662,662,662,662,662,662,662,662,662,662,662,662,660,659,658,657,654,651,648,641,626,615,600,573,526,410,352,302,257,206,194,150,137,128,122,113,108,102,89],"timestamp_mouse":[12,35,48,67,88,108,127,147,168,187,208,228,247,267,288,307,328,347,367,387,407,428,447,468,487,507,527,547,567,588,607,627,647,667,686,707,727,748,767,787,807,827,847,868,887,907,927],"xSR":741.5,"ySR":573.95,"xT1":424.9,"yT1":0,"xT2":1058.1,"yT2":0,"toosoon":0,"cond_shown":"randomdotsizeEA","ratio_trial":750,"smaller_num":"3","larger_num":"4","correct_side":1,"subjID":"DanielStevenCortesBuitrago3","gender":"0","age":"10","school":"6"},{"start_time":1551882806598,"click_time":1551882808263,"finger_time":1551882807384,"fix_duration":1331.6661200961564,"trial":39,"RT":786,"MT":879,"sideResp":2,"stimulus":"img/900/equaldotsize/R/12_Ratio_900_L_18_R_20.png","xmouse":[789,789,789,789,789,789,789,789,789,789,789,789,789,789,789,789,789,789,789,789,789,789,789,789,789,789,789,789,789,789,789,789,789,789,789,789,783,775,755,731,728,731,735,742,753,770,813,866,889,946,978,1010,1020,1024,1026,1030,1043,1050,1063,1070,1077,1085,1086,1086,1087,1087,1088,1089,1089,1089,1087,1079,1074,1070,1069,1068,1068,1069,1071,1072,1073,1074,1075,1077],"ymouse":[650,650,650,650,650,650,650,650,650,650,650,650,650,650,650,650,650,650,650,650,650,650,650,650,650,650,650,650,650,650,650,650,650,650,650,650,642,633,617,595,584,563,550,540,528,515,484,454,443,406,378,326,296,270,247,232,210,201,185,175,166,150,146,143,141,140,138,136,134,132,129,126,123,121,120,117,111,109,106,106,104,102,101,99],"timestamp_mouse":[12,40,45,66,85,106,125,146,166,185,206,225,246,266,285,305,325,345,365,385,405,425,446,466,485,506,525,546,566,585,605,625,646,665,686,705,725,745,765,786,806,825,845,866,885,906,925,946,965,986,1006,1025,1045,1065,1085,1105,1125,1146,1165,1185,1204,1225,1245,1266,1285,1305,1324,1345,1366,1385,1405,1425,1445,1465,1485,1505,1524,1546,1565,1585,1605,1625,1644,1665],"xSR":741.5,"ySR":573.95,"xT1":424.9,"yT1":0,"xT2":1058.1,"yT2":0,"toosoon":0,"cond_shown":"equaldotsize","ratio_trial":900,"smaller_num":"18","larger_num":"20","correct_side":2,"subjID":"DanielStevenCortesBuitrago3","gender":"0","age":"10","school":"6"},{"start_time":1551882810775,"click_time":1551882811923,"finger_time":1551882811523,"fix_duration":250,"trial":40,"RT":748,"MT":400,"sideResp":1,"stimulus":"img/500/equaldotanddens/L/4_Ratio_500_L_18_R_9.png","xmouse":[792,792,792,792,792,792,792,792,792,792,792,792,792,792,792,792,792,792,792,792,792,792,792,792,792,792,792,792,792,792,792,792,792,791,791,790,786,776,773,771,768,756,728,707,689,675,663,636,614,599,588,579,562,555,549,539,528,489],"ymouse":[625,625,625,625,625,625,625,625,625,625,625,625,625,625,625,625,625,625,625,625,625,625,625,625,625,625,625,625,625,625,625,625,625,623,618,608,596,569,549,534,513,488,435,404,379,359,339,301,271,250,231,214,185,172,158,139,121,68],"timestamp_mouse":[9,34,48,68,88,109,128,149,167,188,209,229,248,269,289,308,328,349,369,389,409,428,449,469,488,508,528,549,569,588,608,629,648,668,689,708,729,748,769,788,809,828,848,868,888,908,929,947,968,988,1009,1028,1048,1067,1089,1109,1128,1148],"xSR":741.5,"ySR":573.95,"xT1":424.9,"yT1":0,"xT2":1058.1,"yT2":0,"toosoon":0,"cond_shown":"equaldotanddens","ratio_trial":500,"smaller_num":"9","larger_num":"18","correct_side":1,"subjID":"DanielStevenCortesBuitrago3","gender":"0","age":"10","school":"6"},{"start_time":1551882814255,"click_time":1551882815143,"finger_time":1551882814943,"fix_duration":1251.437757739101,"trial":41,"RT":688,"MT":200,"sideResp":2,"stimulus":"img/750/randomdotsizeEA/R/11_Ratio_750_L_12_R_16.png","xmouse":[789,789,789,789,789,789,789,789,789,789,789,789,789,789,789,789,789,789,789,789,789,789,789,789,789,789,789,789,789,789,789,791,793,798,834,880,935,992,1096,1125,1140,1146,1151,1151,1151],"ymouse":[621,621,621,621,621,621,621,621,621,621,621,621,621,621,621,621,621,621,621,621,621,621,621,621,621,621,621,621,621,621,621,621,621,617,573,513,448,386,272,231,202,178,155,134,81],"timestamp_mouse":[10,40,49,68,89,108,128,148,168,188,208,229,248,269,288,308,329,348,368,388,409,428,448,469,488,509,529,549,567,588,609,628,648,668,688,708,729,748,768,788,808,828,848,868,888],"xSR":741.5,"ySR":573.95,"xT1":424.9,"yT1":0,"xT2":1058.1,"yT2":0,"toosoon":0,"cond_shown":"randomdotsizeEA","ratio_trial":750,"smaller_num":"12","larger_num":"16","correct_side":2,"subjID":"DanielStevenCortesBuitrago3","gender":"0","age":"10","school":"6"},{"start_time":1551882816739,"click_time":1551882817823,"finger_time":1551882817483,"fix_duration":714.0908834648615,"trial":42,"RT":744,"MT":340,"sideResp":1,"stimulus":"img/500/equaldotsize/L/4_Ratio_500_L_18_R_9.png","xmouse":[797,797,797,797,797,797,797,797,797,797,797,797,797,797,797,797,797,797,797,797,797,797,797,797,797,797,797,797,797,797,797,797,797,797,797,793,784,770,754,750,749,746,741,734,716,705,691,656,626,606,581,566,550,535,524],"ymouse":[632,632,632,632,632,632,632,632,632,632,632,632,632,632,632,632,632,632,632,632,632,632,632,632,632,632,632,632,632,632,632,632,632,632,632,620,598,572,529,482,428,394,353,319,269,248,227,193,167,150,123,111,99,87,77],"timestamp_mouse":[13,35,45,64,84,104,124,145,164,184,204,224,243,265,285,304,325,345,364,384,404,425,444,465,485,504,524,545,565,585,605,625,644,665,685,704,724,744,765,784,804,824,844,864,885,905,925,944,965,984,1005,1024,1044,1064,1084],"xSR":741.5,"ySR":573.95,"xT1":424.9,"yT1":0,"xT2":1058.1,"yT2":0,"toosoon":0,"cond_shown":"equaldotsize","ratio_trial":500,"smaller_num":"9","larger_num":"18","correct_side":1,"subjID":"DanielStevenCortesBuitrago3","gender":"0","age":"10","school":"6"},{"start_time":1551882820406,"click_time":1551882822283,"finger_time":1551882821063,"fix_duration":1421.3085241058432,"trial":43,"RT":657,"MT":1220,"sideResp":1,"stimulus":"img/750/equaldotanddens/L/8_Ratio_750_L_4_R_3.png","xmouse":[779,779,779,779,779,779,779,779,779,779,779,779,779,779,779,779,779,779,779,779,779,779,779,779,779,779,779,779,779,783,789,806,841,870,892,903,923,934,948,964,981,1014,1033,1044,1052,1056,1062,1062,1062,1062,1062,1041,984,925,867,818,785,785,785,781,767,697,648,634,629,624,602,582,561,543,533,530,530,530,530,530,530,529,529,529,529,529,529,528,528,528,524,520,515,510,508,507,506,501],"ymouse":[621,621,621,621,621,621,621,621,621,621,621,621,621,621,621,621,621,621,621,621,621,621,621,621,621,621,621,621,621,616,609,582,528,487,456,434,389,366,345,326,