[{"start_time":1551881730301,"click_time":1551881734720,"finger_time":1551881734619,"fix_duration":896.9626794043512,"trial":0,"RT":4318,"MT":101,"sideResp":1,"stimulus":[],"xmouse":[798,798,798,798,798,798,798,798,798,798,798,798,798,798,798,798,798,798,798,798,798,798,798,798,798,798,798,798,798,798,798,798,798,798,798,798,798,798,798,798,798,798,798,798,798,798,798,798,798,798,798,798,798,798,798,798,798,798,798,798,798,798,798,798,798,798,798,798,798,798,798,798,798,798,798,798,798,798,798,798,798,798,798,798,798,798,798,798,798,798,798,798,798,798,798,798,798,798,798,798,798,798,798,798,798,798,798,798,798,798,798,798,798,798,798,798,798,798,798,798,798,798,800,801,806,807,807,807,807,807,807,807,807,806,803,802,802,802,802,802,802,802,802,802,802,802,802,802,802,802,802,802,802,802,802,802,802,802,802,802,802,802,802,802,802,802,802,802,802,802,803,803,803,804,806,806,807,807,807,808,808,808,808,808,808,808,806,805,804,801,801,801,801,801,801,801,801,801,801,801,801,801,801,801,801,801,801,801,801,801,801,801,800,799,766,737,706,671,637,539,481],"ymouse":[513,513,513,513,513,513,513,513,513,513,513,513,513,513,513,513,513,513,513,513,513,513,513,513,513,513,513,513,513,513,513,513,513,513,513,513,513,513,513,513,513,513,513,513,513,513,513,513,513,513,513,513,513,513,513,513,513,513,513,513,513,513,513,513,513,513,513,513,513,513,513,513,513,513,513,513,513,513,513,513,513,513,513,513,513,513,513,513,513,513,513,513,513,513,513,513,513,513,513,513,513,513,513,513,513,513,513,513,513,513,513,513,513,513,513,513,513,513,513,513,513,513,513,513,515,520,520,520,520,520,520,520,522,522,523,524,524,524,524,524,524,524,524,524,524,524,524,524,524,524,524,524,524,524,524,524,524,524,524,524,524,524,524,524,524,524,524,524,524,524,524,523,521,520,518,518,518,517,517,517,517,517,517,517,517,517,517,517,517,517,517,517,517,517,517,517,517,517,517,517,517,517,517,517,517,517,517,517,517,517,517,517,517,516,491,462,420,359,300,154,72],"timestamp_mouse":[8,47,59,78,98,119,138,159,178,198,219,239,259,279,298,318,339,359,380,398,418,439,459,478,499,518,539,559,579,600,619,639,659,678,698,718,738,759,778,798,819,840,859,879,898,919,940,959,978,998,1018,1039,1059,1078,1099,1118,1138,1159,1178,1199,1219,1239,1259,1278,1299,1318,1340,1358,1379,1398,1420,1440,1459,1479,1499,1519,1539,1558,1579,1598,1619,1640,1659,1679,1698,1718,1738,1759,1778,1798,1820,1839,1858,1879,1899,1918,1939,1959,1978,1998,2018,2039,2059,2079,2098,2120,2140,2158,2179,2198,2219,2238,2259,2280,2299,2319,2339,2359,2379,2398,2420,2439,2458,2479,2498,2518,2539,2560,2579,2599,2619,2639,2658,2679,2698,2719,2739,2759,2779,2798,2818,2838,2858,2879,2899,2918,2938,2958,2979,2998,3019,3038,3059,3078,3100,3120,3139,3159,3179,3198,3219,3239,3259,3279,3299,3318,3338,3359,3379,3398,3419,3438,3458,3479,3499,3519,3538,3559,3580,3599,3619,3638,3659,3680,3700,3719,3739,3759,3779,3798,3820,3839,3860,3879,3898,3918,3940,3959,3979,3999,4019,4038,4059,4078,4099,4120,4140,4159,4178,4198,4218,4238,4258,4278,4299,4318,4338,4359,4380,4400,4418],"xSR":741.5,"ySR":469.95,"xT1":424.9,"yT1":0,"xT2":1058.1,"yT2":0,"toosoon":0,"cond_shown":"Incongruent","ratio_trial":100,"L_num":2,"L_den":4,"R_num":6,"R_den":15,"correct_side":1,"subjID":"DanielCortesBuitrago2","gender":"0","age":"10","school":"6","test":{"fix_dur":[250,1500],"timestim":1000,"targets_dim":[100,100],"targets_relative_coord":[0.3,0.7],"size_stim":[880,420],"start_dim":[100,100],"size_start":[300,300],"size_fix":60,"samplingrate":20,"img_types":["Congruent","Incongruent"],"ratios":[100,200,300],"rep_conds":19,"nTrials":120,"trials_to_rest":500,"Trials_order":[97,81,54,32,111,19,66,39,51,8,114,45,2,90,89,38,79,77,12,86,26,78,65,115,11,93,22,104,102,83,30,64,1,119,84,20,109,25,69,17,103,34,33,37,80,53,85,21,73,16,96,49,62,113,7,91,112,55,59,57,15,92,27,88,56,61,43,24,117,44,98,4,13,23,36,48,106,47,76,116,75,63,82,71,10,5,40,28,41,14,108,46,58,9,95,118,70,42,105,107,87,99,18,29,35,50,100,6,3,68,67,31,94,74,60,72,101,52,110,0],"cond_shown":["Incongruent","Incongruent","Congruent","Congruent","Incongruent","Incongruent","Congruent","Incongruent","Incongruent","Congruent","Congruent","Incongruent","Congruent","Congruent","Incongruent","Congruent","Incongruent","Incongruent","Congruent","Congruent","Congruent","Congruent","Incongruent","Incongruent","Incongruent","Incongruent","Congruent","Congruent","Congruent","Incongruent","Congruent","Congruent","Incongruent","Incongruent","Congruent","Congruent","Incongruent","Incongruent","Incongruent","Incongruent","Incongruent","Congruent","Incongruent","Incongruent","Congruent","Incongruent","Incongruent","Incongruent","Incongruent","Congruent","Congruent","Incongruent","Congruent","Incongruent","Incongruent","Incongruent","Congruent","Incongruent","Incongruent","Incongruent","Incongruent","Congruent","Incongruent","Congruent","Congruent","Incongruent","Incongruent","Congruent","Incongruent","Congruent","Congruent","Congruent","Incongruent","Incongruent","Congruent","Congruent","Congruent","Incongruent","Congruent","Congruent","Incongruent","Incongruent","Congruent","Incongruent","Congruent","Incongruent","Congruent","Congruent","Incongruent","Congruent","Congruent","Congruent","Congruent","Incongruent","Incongruent","Congruent","Congruent","Congruent","Incongruent","Incongruent","Incongruent","Incongruent","Congruent","Incongruent","Incongruent","Congruent","Congruent","Congruent","Incongruent","Congruent","Incongruent","Incongruent","Congruent","Congruent","Congruent","Congruent","Incongruent","Congruent","Congruent","Congruent"],"ratio_trial":[100,200,100,200,200,100,100,200,200,200,100,200,200,100,300,200,100,300,100,200,200,100,300,100,300,200,300,200,100,300,100,300,100,300,100,200,100,100,200,300,100,300,200,100,200,300,100,200,100,300,100,100,200,300,100,100,300,100,300,200,200,200,200,300,200,100,100,100,200,200,200,300,100,300,100,100,300,300,300,200,200,200,300,300,300,300,300,300,300,200,100,300,300,200,300,300,300,100,200,300,200,200,100,300,300,200,300,100,200,200,100,100,300,200,100,100,300,300,200,100],"left_num":[2,4,3,3,1,8,10,1,14,6,12,14,3,11,13,11,13,4,11,14,16,8,4,9,4,9,1,6,3,8,15,1,6,8,6,20,12,9,7,8,12,20,3,9,6,4,4,11,1,1,12,8,3,1,13,13,20,12,2,7,14,20,1,8,9,3,6,7,3,13,5,4,10,13,10,7,20,13,20,6,7,1,5,7,11,8,20,3,8,13,2,24,12,7,8,8,20,8,7,4,1,7,7,13,7,3,1,1,4,16,8,10,8,13,6,10,13,3,4,12],"right_num":[6,14,2,14,3,1,3,3,12,3,13,6,7,6,12,3,12,2,4,6,12,2,8,6,2,8,8,7,2,9,13,8,13,14,5,9,2,14,4,14,2,14,11,14,7,2,8,3,8,3,13,6,14,3,6,6,13,2,6,12,12,9,2,10,4,8,7,9,11,14,14,13,9,12,3,9,8,12,8,11,6,3,7,8,1,9,9,4,9,14,11,8,2,8,9,10,5,2,12,2,2,12,9,12,8,7,7,18,6,9,1,9,10,14,5,3,12,4,3,13],"left_den":[4,6,6,6,2,20,25,2,30,15,30,30,10,22,26,22,26,20,22,28,20,16,5,18,20,15,30,12,6,10,25,30,10,10,20,25,30,15,15,10,30,25,4,15,12,20,8,20,2,5,30,16,10,2,26,26,25,30,4,10,30,25,3,15,20,5,10,14,4,26,10,20,25,26,25,14,25,26,25,20,15,2,25,10,22,10,25,6,10,26,5,30,24,10,10,15,25,16,10,20,3,10,14,26,10,10,20,2,5,30,20,25,15,26,20,25,26,6,8,30],"right_den":[15,30,5,20,10,2,10,10,18,15,26,9,14,15,15,10,20,4,10,20,20,5,16,10,4,10,24,10,5,18,26,24,26,28,25,15,4,28,6,28,4,28,20,28,10,4,20,4,20,6,26,10,28,15,10,10,26,4,30,24,18,15,15,12,16,16,14,15,20,20,20,26,18,15,10,15,16,15,16,22,9,10,14,20,5,18,18,5,18,20,22,16,10,16,18,12,10,5,24,4,15,24,15,15,20,14,20,30,10,27,2,18,12,20,25,10,15,5,10,26],"correct_side":[1,1,1,2,1,2,1,1,2,1,2,2,2,1,2,1,2,2,1,1,1,1,1,2,2,2,2,2,1,1,1,2,1,1,1,1,2,1,2,1,2,1,1,1,2,2,1,2,1,2,2,2,2,1,2,2,1,2,1,1,2,1,1,2,1,1,1,2,1,2,2,2,2,2,1,2,1,2,1,2,2,1,2,1,1,1,1,2,1,2,2,1,1,1,1,2,1,1,1,2,1,1,2,2,1,2,2,2,1,1,2,2,2,2,1,1,2,2,1,2],"img_shown":["img2/100/Incongruent/L/I_Dist_100_LN_2_LD_4_RN_6_RD_15_0.png","img2/200/Incongruent/L/I_Dist_200_LN_4_LD_6_RN_14_RD_30_0.png","img2/100/Congruent/L/C_Dist_100_LN_3_LD_6_RN_2_RD_5_0.png","img2/200/Congruent/R/C_Dist_200_LN_3_LD_6_RN_14_RD_20_1.png","img2/200/Incongruent/L/I_Dist_200_LN_1_LD_2_RN_3_RD_10_0.png","img2/100/Incongruent/R/I_Dist_100_LN_8_LD_20_RN_1_RD_2_1.png","img2/100/Congruent/L/C_Dist_100_LN_10_LD_25_RN_3_RD_10_0.png","img2/200/Incongruent/L/I_Dist_200_LN_1_LD_2_RN_3_RD_10_0.png","img2/200/Incongruent/R/I_Dist_200_LN_14_LD_30_RN_12_RD_18_1.png","img2/200/Congruent/L/C_Dist_200_LN_6_LD_15_RN_3_RD_15_0.png","img2/100/Congruent/R/C_Dist_100_LN_12_LD_30_RN_13_RD_26_1.png","img2/200/Incongruent/R/I_Dist_200_LN_14_LD_30_RN_6_RD_9_1.png","img2/200/Congruent/R/C_Dist_200_LN_3_LD_10_RN_7_RD_14_1.png","img2/100/Congruent/L/C_Dist_100_LN_11_LD_22_RN_6_RD_15_0.png","img2/300/Incongruent/R/I_Dist_300_LN_13_LD_26_RN_12_RD_15_1.png","img2/200/Congruent/L/C_Dist_200_LN_11_LD_22_RN_3_RD_10_0.png","img2/100/Incongruent/R/I_Dist_100_LN_13_LD_26_RN_12_RD_20_1.png","img2/300/Incongruent/R/I_Dist_300_LN_4_LD_20_RN_2_RD_4_1.png","img2/100/Congruent/L/C_Dist_100_LN_11_LD_22_RN_4_RD_10_0.png","img2/200/Congruent/L/C_Dist_200_LN_14_LD_28_RN_6_RD_20_0.png","img2/200/Congruent/L/C_Dist_200_LN_16_LD_20_RN_12_RD_20_0.png","img2/100/Congruent/L/C_Dist_100_LN_8_LD_16_RN_2_RD_5_0.png","img2/300/Incongruent/L/I_Dist_300_LN_4_LD_5_RN_8_RD_16_0.png","img2/100/Incongruent/R/I_Dist_100_LN_9_LD_18_RN_6_RD_10_1.png","img2/300/Incongruent/R/I_Dist_300_LN_4_LD_20_RN_2_RD_4_1.png","img2/200/Incongruent/R/I_Dist_200_LN_9_LD_15_RN_8_RD_10_1.png","img2/300/Congruent/R/C_Dist_300_LN_1_LD_30_RN_8_RD_24_1.png","img2/200/Congruent/R/C_Dist_200_LN_6_LD_12_RN_7_RD_10_1.png","img2/100/Congruent/L/C_Dist_100_LN_3_LD_6_RN_2_RD_5_0.png","img2/300/Incongruent/L/I_Dist_300_LN_8_LD_10_RN_9_RD_18_0.png","img2/100/Congruent/L/C_Dist_100_LN_15_LD_25_RN_13_RD_26_0.png","img2/300/Congruent/R/C_Dist_300_LN_1_LD_30_RN_8_RD_24_1.png","img2/100/Incongruent/L/I_Dist_100_LN_6_LD_10_RN_13_RD_26_0.png","img2/300/Incongruent/L/I_Dist_300_LN_8_LD_10_RN_14_RD_28_0.png","img2/100/Congruent/L/C_Dist_100_LN_6_LD_20_RN_5_RD_25_0.png","img2/200/Congruent/L/C_Dist_200_LN_20_LD_25_RN_9_RD_15_0.png","img2/100/Incongruent/R/I_Dist_100_LN_12_LD_30_RN_2_RD_4_1.png","img2/100/Incongruent/L/I_Dist_100_LN_9_LD_15_RN_14_RD_28_0.png","img2/200/Incongruent/R/I_Dist_200_LN_7_LD_15_RN_4_RD_6_1.png","img2/300/Incongruent/L/I_Dist_300_LN_8_LD_10_RN_14_RD_28_0.png","img2/100/Incongruent/R/I_Dist_100_LN_12_LD_30_RN_2_RD_4_1.png","img2/300/Congruent/L/C_Dist_300_LN_20_LD_25_RN_14_RD_28_0.png","img2/200/Incongruent/L/I_Dist_200_LN_3_LD_4_RN_11_RD_20_0.png","img2/100/Incongruent/L/I_Dist_100_LN_9_LD_15_RN_14_RD_28_0.png","img2/200/Congruent/R/C_Dist_200_LN_6_LD_12_RN_7_RD_10_1.png","img2/300/Incongruent/R/I_Dist_300_LN_4_LD_20_RN_2_RD_4_1.png","img2/100/Incongruent/L/I_Dist_100_LN_4_LD_8_RN_8_RD_20_0.png","img2/200/Incongruent/R/I_Dist_200_LN_11_LD_20_RN_3_RD_4_1.png","img2/100/Incongruent/L/I_Dist_100_LN_1_LD_2_RN_8_RD_20_0.png","img2/300/Congruent/R/C_Dist_300_LN_1_LD_5_RN_3_RD_6_1.png","img2/100/Congruent/R/C_Dist_100_LN_12_LD_30_RN_13_RD_26_1.png","img2/100/Incongruent/R/I_Dist_100_LN_8_LD_16_RN_6_RD_10_1.png","img2/200/Congruent/R/C_Dist_200_LN_3_LD_10_RN_14_RD_28_1.png","img2/300/Incongruent/L/I_Dist_300_LN_1_LD_2_RN_3_RD_15_0.png","img2/100/Incongruent/R/I_Dist_100_LN_13_LD_26_RN_6_RD_10_1.png","img2/100/Incongruent/R/I_Dist_100_LN_13_LD_26_RN_6_RD_10_1.png","img2/300/Congruent/L/C_Dist_300_LN_20_LD_25_RN_13_RD_26_0.png","img2/100/Incongruent/R/I_Dist_100_LN_12_LD_30_RN_2_RD_4_1.png","img2/300/Incongruent/L/I_Dist_300_LN_2_LD_4_RN_6_RD_30_0.png","img2/200/Incongruent/L/I_Dist_200_LN_7_LD_10_RN_12_RD_24_0.png","img2/200/Incongruent/R/I_Dist_200_LN_14_LD_30_RN_12_RD_18_1.png","img2/200/Congruent/L/C_Dist_200_LN_20_LD_25_RN_9_RD_15_0.png","img2/200/Incongruent/L/I_Dist_200_LN_1_LD_3_RN_2_RD_15_0.png","img2/300/Congruent/R/C_Dist_300_LN_8_LD_15_RN_10_RD_12_1.png","img2/200/Congruent/L/C_Dist_200_LN_9_LD_20_RN_4_RD_16_0.png","img2/100/Incongruent/L/I_Dist_100_LN_3_LD_5_RN_8_RD_16_0.png","img2/100/Incongruent/L/I_Dist_100_LN_6_LD_10_RN_7_RD_14_0.png","img2/100/Congruent/R/C_Dist_100_LN_7_LD_14_RN_9_RD_15_1.png","img2/200/Incongruent/L/I_Dist_200_LN_3_LD_4_RN_11_RD_20_0.png","img2/200/Congruent/R/C_Dist_200_LN_13_LD_26_RN_14_RD_20_1.png","img2/200/Congruent/R/C_Dist_200_LN_5_LD_10_RN_14_RD_20_1.png","img2/300/Congruent/R/C_Dist_300_LN_4_LD_20_RN_13_RD_26_1.png","img2/100/Incongruent/R/I_Dist_100_LN_10_LD_25_RN_9_RD_18_1.png","img2/300/Incongruent/R/I_Dist_300_LN_13_LD_26_RN_12_RD_15_1.png","img2/100/Congruent/L/C_Dist_100_LN_10_LD_25_RN_3_RD_10_0.png","img2/100/Congruent/R/C_Dist_100_LN_7_LD_14_RN_9_RD_15_1.png","img2/300/Congruent/L/C_Dist_300_LN_20_LD_25_RN_8_RD_16_0.png","img2/300/Incongruent/R/I_Dist_300_LN_13_LD_26_RN_12_RD_15_1.png","img2/300/Congruent/L/C_Dist_300_LN_20_LD_25_RN_8_RD_16_0.png","img2/200/Congruent/R/C_Dist_200_LN_6_LD_20_RN_11_RD_22_1.png","img2/200/Incongruent/R/I_Dist_200_LN_7_LD_15_RN_6_RD_9_1.png","img2/200/Incongruent/L/I_Dist_200_LN_1_LD_2_RN_3_RD_10_0.png","img2/300/Congruent/R/C_Dist_300_LN_5_LD_25_RN_7_RD_14_1.png","img2/300/Incongruent/L/I_Dist_300_LN_7_LD_10_RN_8_RD_20_0.png","img2/300/Congruent/L/C_Dist_300_LN_11_LD_22_RN_1_RD_5_0.png","img2/300/Incongruent/L/I_Dist_300_LN_8_LD_10_RN_9_RD_18_0.png","img2/300/Congruent/L/C_Dist_300_LN_20_LD_25_RN_9_RD_18_0.png","img2/300/Congruent/R/C_Dist_300_LN_3_LD_6_RN_4_RD_5_1.png","img2/300/Incongruent/L/I_Dist_300_LN_8_LD_10_RN_9_RD_18_0.png","img2/200/Congruent/R/C_Dist_200_LN_13_LD_26_RN_14_RD_20_1.png","img2/100/Congruent/R/C_Dist_100_LN_2_LD_5_RN_11_RD_22_1.png","img2/300/Congruent/L/C_Dist_300_LN_24_LD_30_RN_8_RD_16_0.png","img2/300/Congruent/L/C_Dist_300_LN_12_LD_24_RN_2_RD_10_0.png","img2/200/Incongruent/L/I_Dist_200_LN_7_LD_10_RN_8_RD_16_0.png","img2/300/Incongruent/L/I_Dist_300_LN_8_LD_10_RN_9_RD_18_0.png","img2/300/Congruent/R/C_Dist_300_LN_8_LD_15_RN_10_RD_12_1.png","img2/300/Congruent/L/C_Dist_300_LN_20_LD_25_RN_5_RD_10_0.png","img2/100/Congruent/L/C_Dist_100_LN_8_LD_16_RN_2_RD_5_0.png","img2/200/Incongruent/L/I_Dist_200_LN_7_LD_10_RN_12_RD_24_0.png","img2/300/Incongruent/R/I_Dist_300_LN_4_LD_20_RN_2_RD_4_1.png","img2/200/Incongruent/L/I_Dist_200_LN_1_LD_3_RN_2_RD_15_0.png","img2/200/Incongruent/L/I_Dist_200_LN_7_LD_10_RN_12_RD_24_0.png","img2/100/Congruent/R/C_Dist_100_LN_7_LD_14_RN_9_RD_15_1.png","img2/300/Incongruent/R/I_Dist_300_LN_13_LD_26_RN_12_RD_15_1.png","img2/300/Incongruent/L/I_Dist_300_LN_7_LD_10_RN_8_RD_20_0.png","img2/200/Congruent/R/C_Dist_200_LN_3_LD_10_RN_7_RD_14_1.png","img2/300/Congruent/R/C_Dist_300_LN_1_LD_20_RN_7_RD_20_1.png","img2/100/Congruent/R/C_Dist_100_LN_1_LD_2_RN_18_RD_30_1.png","img2/200/Incongruent/L/I_Dist_200_LN_4_LD_5_RN_6_RD_10_0.png","img2/200/Congruent/L/C_Dist_200_LN_16_LD_30_RN_9_RD_27_0.png","img2/100/Incongruent/R/I_Dist_100_LN_8_LD_20_RN_1_RD_2_1.png","img2/100/Incongruent/R/I_Dist_100_LN_10_LD_25_RN_9_RD_18_1.png","img2/300/Congruent/R/C_Dist_300_LN_8_LD_15_RN_10_RD_12_1.png","img2/200/Congruent/R/C_Dist_200_LN_13_LD_26_RN_14_RD_20_1.png","img2/100/Congruent/L/C_Dist_100_LN_6_LD_20_RN_5_RD_25_0.png","img2/100/Congruent/L/C_Dist_100_LN_10_LD_25_RN_3_RD_10_0.png","img2/300/Incongruent/R/I_Dist_300_LN_13_LD_26_RN_12_RD_15_1.png","img2/300/Congruent/R/C_Dist_300_LN_3_LD_6_RN_4_RD_5_1.png","img2/200/Congruent/L/C_Dist_200_LN_4_LD_8_RN_3_RD_10_0.png","img2/100/Congruent/R/C_Dist_100_LN_12_LD_30_RN_13_RD_26_1.png"],"dist100_C":[["C_Dist_100_LN_10_LD_25_RN_3_RD_10_0.png","C_Dist_100_LN_11_LD_22_RN_4_RD_10_0.png","C_Dist_100_LN_11_LD_22_RN_6_RD_15_0.png","C_Dist_100_LN_15_LD_25_RN_13_RD_26_0.png","C_Dist_100_LN_3_LD_6_RN_2_RD_5_0.png","C_Dist_100_LN_6_LD_20_RN_5_RD_25_0.png","C_Dist_100_LN_8_LD_16_RN_2_RD_5_0.png","C_Dist_100_LN_9_LD_15_RN_8_RD_16_0.png"],["C_Dist_100_LN_1_LD_2_RN_18_RD_30_1.png","C_Dist_100_LN_1_LD_2_RN_3_RD_5_1.png","C_Dist_100_LN_12_LD_30_RN_13_RD_26_1.png","C_Dist_100_LN_2_LD_5_RN_11_RD_22_1.png","C_Dist_100_LN_2_LD_5_RN_6_RD_12_1.png","C_Dist_100_LN_3_LD_20_RN_4_RD_16_1.png","C_Dist_100_LN_4_LD_10_RN_15_RD_30_1.png","C_Dist_100_LN_4_LD_8_RN_6_RD_10_1.png","C_Dist_100_LN_6_LD_12_RN_15_RD_25_1.png","C_Dist_100_LN_7_LD_14_RN_15_RD_25_1.png","C_Dist_100_LN_7_LD_14_RN_9_RD_15_1.png"]],"dist100_I":[["I_Dist_100_LN_1_LD_2_RN_8_RD_20_0.png","I_Dist_100_LN_2_LD_4_RN_6_RD_15_0.png","I_Dist_100_LN_2_LD_4_RN_8_RD_20_0.png","I_Dist_100_LN_3_LD_5_RN_11_RD_22_0.png","I_Dist_100_LN_3_LD_5_RN_8_RD_16_0.png","I_Dist_100_LN_3_LD_6_RN_4_RD_10_0.png","I_Dist_100_LN_3_LD_9_RN_7_RD_30_0.png","I_Dist_100_LN_4_LD_8_RN_8_RD_20_0.png","I_Dist_100_LN_6_LD_10_RN_11_RD_22_0.png","I_Dist_100_LN_6_LD_10_RN_13_RD_26_0.png","I_Dist_100_LN_6_LD_10_RN_7_RD_14_0.png","I_Dist_100_LN_9_LD_10_RN_20_RD_25_0.png","I_Dist_100_LN_9_LD_15_RN_13_RD_26_0.png","I_Dist_100_LN_9_LD_15_RN_14_RD_28_0.png"],["I_Dist_100_LN_10_LD_25_RN_8_RD_16_1.png","I_Dist_100_LN_10_LD_25_RN_9_RD_18_1.png","I_Dist_100_LN_11_LD_22_RN_9_RD_15_1.png","I_Dist_100_LN_12_LD_24_RN_9_RD_15_1.png","I_Dist_100_LN_12_LD_30_RN_2_RD_4_1.png","I_Dist_100_LN_13_LD_26_RN_12_RD_20_1.png","I_Dist_100_LN_13_LD_26_RN_6_RD_10_1.png","I_Dist_100_LN_17_LD_30_RN_10_RD_15_1.png","I_Dist_100_LN_6_LD_12_RN_3_RD_5_1.png","I_Dist_100_LN_8_LD_16_RN_6_RD_10_1.png","I_Dist_100_LN_8_LD_20_RN_1_RD_2_1.png","I_Dist_100_LN_9_LD_18_RN_6_RD_10_1.png"]],"dist100_S":[["E_Dist_100_LN_2_LD_12_RN_2_RD_30_0.png","E_Dist_100_LN_6_LD_10_RN_6_RD_12_0.png"],["E_Dist_100_LN_6_LD_12_RN_6_RD_10_1.png"]],"dist200_C":[["C_Dist_200_LN_11_LD_22_RN_3_RD_10_0.png","C_Dist_200_LN_12_LD_15_RN_6_RD_10_0.png","C_Dist_200_LN_12_LD_20_RN_6_RD_15_0.png","C_Dist_200_LN_14_LD_28_RN_6_RD_20_0.png","C_Dist_200_LN_15_LD_25_RN_4_RD_10_0.png","C_Dist_200_LN_16_LD_20_RN_12_RD_20_0.png","C_Dist_200_LN_16_LD_30_RN_9_RD_27_0.png","C_Dist_200_LN_20_LD_25_RN_9_RD_15_0.png","C_Dist_200_LN_21_LD_30_RN_2_RD_4_0.png","C_Dist_200_LN_4_LD_10_RN_3_RD_15_0.png","C_Dist_200_LN_4_LD_8_RN_3_RD_10_0.png","C_Dist_200_LN_6_LD_15_RN_3_RD_15_0.png","C_Dist_200_LN_7_LD_21_RN_2_RD_15_0.png","C_Dist_200_LN_8_LD_15_RN_2_RD_6_0.png","C_Dist_200_LN_8_LD_15_RN_3_RD_9_0.png","C_Dist_200_LN_8_LD_15_RN_7_RD_21_0.png","C_Dist_200_LN_9_LD_20_RN_4_RD_16_0.png"],["C_Dist_200_LN_1_LD_2_RN_21_RD_30_1.png","C_Dist_200_LN_13_LD_26_RN_14_RD_20_1.png","C_Dist_200_LN_3_LD_10_RN_11_RD_22_1.png","C_Dist_200_LN_3_LD_10_RN_14_RD_28_1.png","C_Dist_200_LN_3_LD_10_RN_7_RD_14_1.png","C_Dist_200_LN_3_LD_12_RN_9_RD_20_1.png","C_Dist_200_LN_3_LD_6_RN_14_RD_20_1.png","C_Dist_200_LN_5_LD_10_RN_14_RD_20_1.png","C_Dist_200_LN_6_LD_12_RN_7_RD_10_1.png","C_Dist_200_LN_6_LD_20_RN_11_RD_22_1.png","C_Dist_200_LN_7_LD_15_RN_18_RD_27_1.png","C_Dist_200_LN_9_LD_30_RN_13_RD_26_1.png"]],"dist200_I":[["I_Dist_200_LN_1_LD_2_RN_3_RD_10_0.png","I_Dist_200_LN_1_LD_3_RN_2_RD_15_0.png","I_Dist_200_LN_3_LD_4_RN_11_RD_20_0.png","I_Dist_200_LN_4_LD_5_RN_6_RD_10_0.png","I_Dist_200_LN_4_LD_6_RN_14_RD_30_0.png","I_Dist_200_LN_7_LD_10_RN_12_RD_24_0.png","I_Dist_200_LN_7_LD_10_RN_14_RD_28_0.png","I_Dist_200_LN_7_LD_10_RN_8_RD_16_0.png"],["I_Dist_200_LN_11_LD_20_RN_3_RD_4_1.png","I_Dist_200_LN_14_LD_30_RN_12_RD_18_1.png","I_Dist_200_LN_14_LD_30_RN_6_RD_9_1.png","I_Dist_200_LN_3_LD_10_RN_1_RD_2_1.png","I_Dist_200_LN_4_LD_30_RN_1_RD_3_1.png","I_Dist_200_LN_6_LD_20_RN_3_RD_6_1.png","I_Dist_200_LN_7_LD_15_RN_4_RD_6_1.png","I_Dist_200_LN_7_LD_15_RN_6_RD_9_1.png","I_Dist_200_LN_9_LD_15_RN_8_RD_10_1.png"]],"dist200_S":[["E_Dist_200_LN_3_LD_6_RN_3_RD_10_0.png"],["E_Dist_200_LN_3_LD_10_RN_3_RD_6_1.png"]],"dist300_C":[["C_Dist_300_LN_11_LD_22_RN_1_RD_5_0.png","C_Dist_300_LN_11_LD_22_RN_2_RD_10_0.png","C_Dist_300_LN_11_LD_22_RN_4_RD_20_0.png","C_Dist_300_LN_12_LD_24_RN_2_RD_10_0.png","C_Dist_300_LN_18_LD_20_RN_9_RD_15_0.png","C_Dist_300_LN_20_LD_25_RN_13_RD_26_0.png","C_Dist_300_LN_20_LD_25_RN_14_RD_28_0.png","C_Dist_300_LN_20_LD_25_RN_5_RD_10_0.png","C_Dist_300_LN_20_LD_25_RN_8_RD_16_0.png","C_Dist_300_LN_20_LD_25_RN_9_RD_18_0.png","C_Dist_300_LN_24_LD_30_RN_2_RD_4_0.png","C_Dist_300_LN_24_LD_30_RN_8_RD_16_0.png","C_Dist_300_LN_3_LD_6_RN_2_RD_10_0.png","C_Dist_300_LN_4_LD_10_RN_1_RD_10_0.png","C_Dist_300_LN_4_LD_5_RN_2_RD_4_0.png","C_Dist_300_LN_8_LD_16_RN_1_RD_5_0.png","C_Dist_300_LN_9_LD_10_RN_3_RD_5_0.png"],["C_Dist_300_LN_1_LD_20_RN_7_RD_20_1.png","C_Dist_300_LN_1_LD_3_RN_19_RD_30_1.png","C_Dist_300_LN_1_LD_30_RN_8_RD_24_1.png","C_Dist_300_LN_1_LD_5_RN_11_RD_22_1.png","C_Dist_300_LN_1_LD_5_RN_3_RD_6_1.png","C_Dist_300_LN_1_LD_5_RN_6_RD_12_1.png","C_Dist_300_LN_2_LD_10_RN_12_RD_24_1.png","C_Dist_300_LN_2_LD_20_RN_10_RD_25_1.png","C_Dist_300_LN_3_LD_12_RN_11_RD_20_1.png","C_Dist_300_LN_3_LD_6_RN_4_RD_5_1.png","C_Dist_300_LN_4_LD_20_RN_13_RD_26_1.png","C_Dist_300_LN_5_LD_25_RN_6_RD_12_1.png","C_Dist_300_LN_5_LD_25_RN_7_RD_14_1.png","C_Dist_300_LN_7_LD_14_RN_20_RD_25_1.png","C_Dist_300_LN_8_LD_15_RN_10_RD_12_1.png"]],"dist300_I":[["I_Dist_300_LN_1_LD_2_RN_2_RD_10_0.png","I_Dist_300_LN_1_LD_2_RN_3_RD_15_0.png","I_Dist_300_LN_2_LD_4_RN_6_RD_30_0.png","I_Dist_300_LN_3_LD_6_RN_4_RD_20_0.png","I_Dist_300_LN_4_LD_5_RN_6_RD_12_0.png","I_Dist_300_LN_4_LD_5_RN_8_RD_16_0.png","I_Dist_300_LN_7_LD_10_RN_8_RD_20_0.png","I_Dist_300_LN_8_LD_10_RN_14_RD_28_0.png","I_Dist_300_LN_8_LD_10_RN_9_RD_18_0.png"],["I_Dist_300_LN_13_LD_26_RN_12_RD_15_1.png","I_Dist_300_LN_4_LD_20_RN_2_RD_4_1.png"]],"dist300_S":[["E_Dist_300_LN_9_LD_12_RN_9_RD_20_0.png"],["E_Dist_300_LN_18_LD_30_RN_18_RD_20_1.png","E_Dist_300_LN_3_LD_10_RN_3_RD_5_1.png","E_Dist_300_LN_9_LD_20_RN_9_RD_12_1.png"]],"dist500_C":[["C_Dist_500_LN_10_LD_13_RN_7_RD_26_0.png","C_Dist_500_LN_10_LD_15_RN_4_RD_24_0.png","C_Dist_500_LN_12_LD_16_RN_3_RD_12_0.png","C_Dist_500_LN_12_LD_18_RN_4_RD_24_0.png","C_Dist_500_LN_15_LD_18_RN_5_RD_15_0.png","C_Dist_500_LN_15_LD_20_RN_1_RD_4_0.png","C_Dist_500_LN_18_LD_27_RN_1_RD_6_0.png","C_Dist_500_LN_20_LD_24_RN_1_RD_3_0.png","C_Dist_500_LN_20_LD_24_RN_3_RD_9_0.png","C_Dist_500_LN_20_LD_24_RN_7_RD_21_0.png","C_Dist_500_LN_20_LD_28_RN_3_RD_14_0.png","C_Dist_500_LN_21_LD_28_RN_6_RD_24_0.png","C_Dist_500_LN_22_LD_28_RN_2_RD_7_0.png","C_Dist_500_LN_25_LD_30_RN_9_RD_27_0.png","C_Dist_500_LN_4_LD_6_RN_1_RD_6_0.png","C_Dist_500_LN_5_LD_6_RN_2_RD_6_0.png","C_Dist_500_LN_6_LD_9_RN_1_RD_6_0.png","C_Dist_500_LN_7_LD_10_RN_1_RD_5_0.png","C_Dist_500_LN_8_LD_12_RN_1_RD_6_0.png","C_Dist_500_LN_8_LD_12_RN_4_RD_24_0.png"],["C_Dist_500_LN_1_LD_4_RN_12_RD_16_1.png","C_Dist_500_LN_1_LD_4_RN_9_RD_12_1.png","C_Dist_500_LN_1_LD_9_RN_11_RD_18_1.png","C_Dist_500_LN_10_LD_24_RN_22_RD_24_1.png","C_Dist_500_LN_2_LD_12_RN_10_RD_15_1.png","C_Dist_500_LN_2_LD_12_RN_12_RD_18_1.png","C_Dist_500_LN_2_LD_12_RN_4_RD_6_1.png","C_Dist_500_LN_2_LD_24_RN_7_RD_12_1.png","C_Dist_500_LN_2_LD_5_RN_18_RD_20_1.png","C_Dist_500_LN_2_LD_5_RN_9_RD_10_1.png","C_Dist_500_LN_2_LD_8_RN_12_RD_16_1.png","C_Dist_500_LN_2_LD_8_RN_21_RD_28_1.png","C_Dist_500_LN_3_LD_10_RN_4_RD_5_1.png","C_Dist_500_LN_3_LD_12_RN_15_RD_20_1.png","C_Dist_500_LN_3_LD_30_RN_6_RD_10_1.png","C_Dist_500_LN_3_LD_8_RN_14_RD_16_1.png","C_Dist_500_LN_4_LD_16_RN_15_RD_20_1.png","C_Dist_500_LN_4_LD_24_RN_12_RD_18_1.png","C_Dist_500_LN_5_LD_14_RN_6_RD_7_1.png","C_Dist_500_LN_7_LD_21_RN_20_RD_24_1.png","C_Dist_500_LN_7_LD_28_RN_12_RD_16_1.png","C_Dist_500_LN_7_LD_28_RN_9_RD_12_1.png","C_Dist_500_LN_9_LD_27_RN_20_RD_24_1.png"]],"dist500_I":[["I_Dist_500_LN_2_LD_3_RN_4_RD_24_0.png","I_Dist_500_LN_5_LD_6_RN_6_RD_18_0.png","I_Dist_500_LN_7_LD_8_RN_9_RD_24_0.png"],["I_Dist_500_LN_7_LD_21_RN_5_RD_6_1.png"]],"dist500_S":[["E_Dist_500_LN_6_LD_8_RN_6_RD_24_0.png"],["E_Dist_500_LN_2_LD_12_RN_2_RD_3_1.png","E_Dist_500_LN_6_LD_24_RN_6_RD_8_1.png"]]}},{"start_time":1551881738096,"click_time":1551881740121,"finger_time":1551881739639,"fix_duration":755.0723755641986,"trial":1,"RT":1543,"MT":482,"sideResp":2,"stimulus":[],"xmouse":[788,788,788,788,788,788,788,788,788,788,788,788,788,788,788,788,788,788,788,788,788,788,788,788,788,788,788,788,788,788,788,788,788,788,788,788,788,788,788,788,788,788,788,788,788,788,788,788,788,788,788,788,788,788,788,788,788,788,788,788,788,788,788,788,788,788,788,788,788,788,788,788,788,788,788,789,836,904,1022,1100,1159,1215,1215,1215,1215,1215,1215,1215,1215,1215,1215,1215,1215,1215,1215,1215,1215,1215,1215,1215,1215,1144],"ymouse":[522,522,522,522,522,522,522,522,522,522,522,522,522,522,522,522,522,522,522,522,522,522,522,522,522,522,522,522,522,522,522,522,522,522,522,522,522,522,522,522,522,522,522,522,522,522,522,522,522,522,522,522,522,522,522,522,522,522,522,522,522,522,522,522,522,522,522,522,522,522,522,522,522,522,522,517,470,410,279,182,96,4,4,4,4,4,4,4,4,4,4,4,4,4,4,4,4,4,4,4,4,16],"timestamp_mouse":[9,23,46,63,83,104,123,143,164,185,205,223,244,265,284,305,324,344,363,383,403,425,443,463,483,503,524,544,565,583,604,624,644,663,684,704,724,744,764,784,803,824,845,865,884,904,925,944,963,985,1005,1023,1044,1063,1084,1103,1123,1143,1164,1184,1204,1223,1243,1265,1283,1304,1324,1343,1363,1385,1404,1423,1445,1463,1484,1504,1523,1543,1564,1584,1605,1623,1644,1664,1683,1703,1724,1744,1763,1783,1804,1823,1845,1864,1884,1905,1924,1944,1963,1983,2003,2024],"xSR":741.5,"ySR":469.95,"xT1":424.9,"yT1":0,"xT2":1058.1,"yT2":0,"toosoon":0,"cond_shown":"Incongruent","ratio_trial":200,"L_num":4,"L_den":6,"R_num":14,"R_den":30,"correct_side":1,"subjID":"DanielCortesBuitrago2","gender":"0","school":"6","age":"10"},{"start_time":1551881742073,"click_time":1551881746800,"finger_time":1551881744839,"fix_duration":451.68544240083975,"trial":2,"RT":2766,"MT":1961,"sideResp":2,"stimulus":[],"xmouse":[782,782,782,782,782,782,782,782,782,782,782,782,782,782,782,782,782,782,782,782,782,782,782,782,782,782,782,782,782,782,782,782,782,782,782,782,782,782,782,782,782,782,782,782,782,782,782,782,782,782,782,782,782,782,782,782,782,782,782,782,782,782,782,782,782,782,782,782,782,782,782,782,782,782,782,782,782,782,782,782,782,782,782,782,782,782,782,782,782,782,782,782,782,782,782,782,782,782,782,782,782,782,782,782,782,782,782,782,782,782,782,782,782,782,782,782,782,782,782,782,782,782,782,782,782,782,782,782,782,782,782,782,782,782,782,784,789,824,863,869,873,879,886,894,894,894,894,894,894,894,894,894,894,894,894,894,894,894,894,894,894,894,893,889,886,881,877,867,846,834,827,822,819,817,817,817,817,817,849,864,874,878,882,884,894,914,931,951,972,980,986,989,991,995,999,1006,1016,1025,1054,1067,1080,1091,1098,1103,1106,1106,1106,1106,1106,1106,1106,1106,1106,1106,1105,1104,1102,1097,1096,1096,1096,1096,1096,1096,1096,1096,1096,1096,1096,1096,1096,1096,1096,1096,1096,1096,1094],"ymouse":[496,496,496,496,496,496,496,496,496,496,496,496,496,496,496,496,496,496,496,496,496,496,496,496,496,496,496,496,496,496,496,496,496,496,496,496,496,496,496,496,496,496,496,496,496,496,496,496,496,496,496,496,496,496,496,496,496,496,496,496,496,496,496,496,496,496,496,496,496,496,496,496,496,496,496,496,496,496,496,496,496,496,496,496,496,496,496,496,496,496,496,496,496,496,496,496,496,496,496,496,496,496,496,496,496,496,496,496,496,496,496,496,496,496,496,496,496,496,496,496,496,496,496,496,496,496,496,496,496,496,496,496,496,496,496,495,495,495,492,490,486,480,473,462,460,460,459,459,459,459,459,459,459,459,459,459,459,459,459,459,459,459,459,461,463,466,466,467,468,468,468,468,468,468,468,468,468,467,449,434,414,396,384,369,359,347,333,307,276,266,262,260,259,258,255,250,241,232,199,181,163,148,136,118,113,112,112,112,110,110,110,110,110,109,108,107,104,101,101,101,101,101,101,101,101,101,101,101,101,101,101,101,101,101,101,101,99],"timestamp_mouse":[6,27,49,67,87,106,126,147,167,187,208,227,246,268,288,307,327,346,367,388,407,426,447,467,486,506,526,546,567,586,607,626,646,667,687,706,728,747,767,786,807,826,848,866,886,907,928,947,966,986,1006,1026,1046,1067,1086,1106,1127,1148,1167,1187,1208,1226,1247,1267,1286,1306,1327,1346,1366,1387,1406,1427,1446,1467,1487,1507,1526,1547,1566,1587,1607,1626,1646,1666,1687,1707,1727,1746,1766,1787,1806,1826,1846,1868,1888,1907,1927,1947,1966,1987,2007,2027,2046,2066,2087,2106,2127,2146,2166,2186,2207,2226,2247,2268,2287,2307,2327,2346,2367,2388,2406,2427,2447,2466,2486,2506,2528,2546,2567,2586,2607,2626,2646,2667,2686,2706,2727,2748,2766,2786,2806,2827,2847,2866,2886,2906,2926,2948,2966,2988,3006,3027,3047,3066,3087,3106,3127,3147,3166,3187,3206,3227,3246,3266,3286,3307,3326,3348,3366,3387,3407,3426,3447,3466,3486,3507,3527,3547,3567,3586,3607,3627,3647,3666,3686,3706,3727,3748,3767,3787,3807,3826,3846,3866,3886,3906,3926,3946,3966,3987,4006,4027,4046,4066,4087,4107,4127,4146,4167,4186,4206,4226,4247,4267,4288,4308,4327,4346,4367,4386,4407,4427,4448,4466,4488,4508,4527,4546,4567,4587,4607,4627,4647,4666,4686,4707,4727],"xSR":741.5,"ySR":469.95,"xT1":424.9,"yT1":0,"xT2":1058.1,"yT2":0,"toosoon":0,"cond_shown":"Congruent","ratio_trial":100,"L_num":3,"L_den":6,"R_num":2,"R_den":5,"correct_side":1,"subjID":"DanielCortesBuitrago2","gender":"0","school":"6","age":"10"},{"start_time":1551881747932,"click_time":1551881751279,"finger_time":1551881749840,"fix_duration":250,"trial":3,"RT":1908,"MT":1439,"sideResp":2,"stimulus":[],"xmouse":[756,756,756,756,756,756,756,756,756,756,756,756,756,756,756,756,756,756,756,756,756,756,756,756,756,756,756,756,756,756,756,756,756,756,756,756,756,756,756,756,756,756,756,756,756,756,758,759,759,759,759,759,759,759,759,759,759,759,759,759,759,759,759,759,759,759,759,759,759,759,759,759,759,759,759,759,759,759,759,759,759,759,759,759,759,759,759,759,759,759,759,759,759,756,753,743,733,722,710,698,686,644,609,589,574,556,550,547,543,539,536,525,521,519,518,514,505,501,497,496,492,491,491,490,490,490,490,490,491,495,509,520,550,589,646,704,768,884,1012,1141,1381,1462,1511,1519,1522,1522,1512,1512,1512,1512,1512,1512,1512,1512,1512,1306,1261,1245,1236,1233,1229,1219,1214,1209,1202,1184,1171,1157],"ymouse":[507,507,507,507,507,507,507,507,507,507,507,507,507,507,507,507,507,507,507,507,507,507,507,507,507,507,507,507,507,507,507,507,507,507,507,507,507,507,507,507,507,507,507,507,507,507,507,507,507,507,507,507,507,507,507,507,507,507,507,507,507,507,507,507,507,507,507,507,507,507,507,507,507,507,507,507,507,507,507,507,507,507,507,507,507,507,507,507,507,507,507,504,501,495,489,468,451,432,413,397,384,366,353,344,332,309,298,288,280,269,257,226,205,194,184,173,158,152,149,148,144,143,143,142,141,141,141,143,147,161,197,216,244,254,262,265,262,245,223,187,126,104,79,68,56,40,6,2,2,2,2,2,2,2,2,0,13,17,17,17,17,17,19,19,21,22,24,27],"timestamp_mouse":[10,39,47,67,87,109,128,148,169,187,207,227,249,269,287,308,327,348,368,388,408,427,447,467,488,508,528,548,567,588,607,627,648,669,688,707,727,748,767,787,809,827,848,868,888,909,928,947,968,989,1008,1027,1047,1068,1089,1107,1128,1148,1169,1187,1208,1227,1248,1268,1287,1308,1327,1348,1368,1388,1407,1429,1447,1467,1488,1507,1528,1548,1568,1587,1608,1628,1648,1667,1688,1707,1728,1748,1767,1787,1808,1827,1848,1868,1887,1908,1927,1947,1967,1988,2008,2027,2047,2067,2088,2108,2128,2147,2167,2187,2208,2228,2247,2268,2288,2308,2328,2347,2367,2388,2409,2427,2448,2467,2489,2508,2528,2548,2568,2587,2609,2628,2647,2667,2687,2708,2727,2747,2768,2787,2809,2827,2847,2868,2887,2908,2927,2947,2967,2988,3008,3029,3048,3069,3088,3108,3128,3147,3168,3188,3209,3227,3247,3268,3288,3309,3327,3347],"xSR":741.5,"ySR":469.95,"xT1":424.9,"yT1":0,"xT2":1058.1,"yT2":0,"toosoon":0,"cond_shown":"Congruent","ratio_trial":200,"L_num":3,"L_den":6,"R_num":14,"R_den":20,"correct_side":2,"subjID":"DanielCortesBuitrago2","gender":"0","school":"6","age":"10"},{"start_time":1551881752899,"click_time":1551881755320,"finger_time":1551881754799,"fix_duration":457.01980994601456,"trial":4,"RT":1900,"MT":521,"sideResp":1,"stimulus":[],"xmouse":[766,769,771,771,772,772,772,772,772,772,772,772,772,772,772,772,772,772,772,772,772,772,772,772,772,772,772,772,772,772,772,772,772,772,772,772,772,772,772,772,772,772,772,772,772,772,772,772,772,772,772,771,771,771,771,771,771,771,771,771,771,771,771,771,771,771,771,771,771,771,771,771,771,771,771,771,771,771,771,771,771,771,771,771,771,771,771,771,771,771,771,771,771,771,771,766,758,749,735,729,721,709,697,674,663,648,629,609,581,574,567,557,539,520,514,510,509,509,506,502,498,495],"ymouse":[519,518,517,517,516,516,516,516,516,516,516,516,516,516,516,516,516,516,516,516,516,516,516,516,516,516,516,516,516,516,516,516,516,516,516,516,516,516,516,516,516,516,516,516,516,516,516,516,516,516,516,516,516,516,516,516,516,516,516,516,516,516,516,516,516,516,516,516,516,516,516,516,516,516,516,516,516,516,516,516,516,516,516,516,516,516,516,516,516,516,516,515,511,486,472,456,440,427,400,387,372,355,340,310,298,289,281,273,256,247,234,219,197,172,162,153,145,139,125,116,105,94],"timestamp_mouse":[1,21,40,60,81,101,120,141,161,180,201,220,241,261,281,301,320,341,362,381,401,421,441,461,480,501,520,540,561,581,600,620,641,662,681,701,721,741,760,781,801,820,841,862,881,900,920,940,961,981,1000,1021,1042,1060,1081,1101,1120,1141,1161,1181,1202,1221,1241,1262,1281,1301,1320,1340,1361,1380,1402,1421,1441,1460,1481,1501,1522,1542,1561,1581,1600,1620,1640,1660,1680,1701,1721,1740,1760,1781,1801,1821,1840,1860,1881,1900,1921,1940,1960,1981,2001,2020,2042,2060,2080,2101,2121,2140,2160,2180,2201,2221,2240,2261,2282,2301,2321,2341,2361,2381,2402,2421],"xSR":741.5,"ySR":469.95,"xT1":424.9,"yT1":0,"xT2":1058.1,"yT2":0,"toosoon":0,"cond_shown":"Incongruent","ratio_trial":200,"L_num":1,"L_den":2,"R_num":3,"R_den":10,"correct_side":1,"subjID":"DanielCortesBuitrago2","gender":"0","school":"6","age":"10"},{"start_time":1551881756597,"click_time":1551881758161,"finger_time":1551881757719,"fix_duration":296.0694690741732,"trial":5,"RT":1122,"MT":442,"sideResp":2,"stimulus":[],"xmouse":[812,812,812,812,812,812,812,812,812,812,812,812,812,812,812,812,812,812,812,812,812,812,812,812,812,812,812,812,812,812,812,812,812,812,812,812,812,812,812,812,812,812,812,812,812,812,812,812,812,812,812,812,812,812,813,825,856,890,955,1018,1082,1138,1179,1216,1216,1216,1216,1216,1216,1216,1216,1216,1216,1216,1216,1216,1216,1216,1154],"ymouse":[503,503,503,503,503,503,503,503,503,503,503,503,503,503,503,503,503,503,503,503,503,503,503,503,503,503,503,503,503,503,503,503,503,503,503,503,503,503,503,503,503,503,503,503,503,503,503,503,503,503,503,503,503,502,500,496,486,463,381,311,231,152,80,12,12,12,12,12,12,12,12,12,12,12,12,12,12,12,24],"timestamp_mouse":[9,23,51,63,82,103,123,144,163,183,202,223,243,262,284,302,323,343,362,382,403,424,443,463,482,503,523,542,564,584,602,623,642,662,684,702,723,743,762,784,802,823,843,863,884,902,923,943,962,983,1002,1022,1043,1062,1083,1103,1122,1142,1162,1182,1203,1222,1243,1262,1282,1303,1323,1343,1363,1382,1403,1423,1442,1463,1483,1503,1524,1544,1564],"xSR":741.5,"ySR":469.95,"xT1":424.9,"yT1":0,"xT2":1058.1,"yT2":0,"toosoon":0,"cond_shown":"Incongruent","ratio_trial":100,"L_num":8,"L_den":20,"R_num":1,"R_den":2,"correct_side":2,"subjID":"DanielCortesBuitrago2","gender":"0","school":"6","age":"10"},{"start_time":1551881760536,"click_time":1551881762620,"finger_time":1551881762220,"fix_duration":1413.6932293712225,"trial":6,"RT":1684,"MT":400,"sideResp":1,"stimulus":[],"xmouse":[786,786,786,786,786,786,786,786,786,786,786,786,786,786,786,786,786,786,786,786,786,786,786,786,786,786,786,786,786,786,786,786,786,786,786,786,786,786,786,786,786,786,786,786,786,786,786,786,786,786,786,786,786,786,786,786,786,786,786,786,786,786,786,786,786,786,786,786,786,786,786,786,786,786,786,786,786,786,786,786,786,786,782,771,760,751,743,730,725,717,711,705,690,673,656,641,614,590,571,552,536,512,501,491,486],"ymouse":[511,511,511,511,511,511,511,511,511,511,511,511,511,511,511,511,511,511,511,511,511,511,511,511,511,511,511,511,511,511,511,511,511,511,511,511,511,511,511,511,511,511,511,511,511,511,511,511,511,511,511,511,511,511,511,511,511,511,511,511,511,511,511,511,511,511,511,511,511,511,511,511,511,510,509,507,506,506,506,506,506,506,504,488,467,441,407,317,288,264,246,230,212,205,199,195,187,179,170,162,151,132,120,107,94],"timestamp_mouse":[10,24,53,63,84,105,124,143,164,184,203,224,244,263,284,304,324,344,364,383,404,424,443,465,484,504,524,544,563,583,604,624,643,664,685,703,723,744,765,784,804,824,844,864,885,903,924,945,964,983,1004,1023,1043,1063,1083,1103,1124,1143,1163,1184,1204,1223,1244,1265,1283,1304,1324,1343,1364,1384,1403,1423,1443,1463,1483,1504,1524,1543,1563,1584,1604,1623,1644,1663,1684,1704,1724,1743,1763,1784,1804,1824,1844,1863,1884,1904,1925,1943,1964,1983,2004,2025,2044,2063,2084],"xSR":741.5,"ySR":469.95,"xT1":424.9,"yT1":0,"xT2":1058.1,"yT2":0,"toosoon":0,"cond_shown":"Congruent","ratio_trial":100,"L_num":10,"L_den":25,"R_num":3,"R_den":10,"correct_side":1,"subjID":"DanielCortesBuitrago2","gender":"0","school":"6","age":"10"},{"start_time":1551881765086,"click_time":1551881766320,"finger_time":1551881765979,"fix_duration":1464.2002392550664,"trial":7,"RT":893,"MT":341,"sideResp":1,"stimulus":[],"xmouse":[802,802,802,802,802,802,802,802,802,802,802,802,802,802,802,802,802,802,802,802,802,802,802,802,802,802,802,802,802,802,802,802,802,802,802,802,802,802,802,802,802,802,801,797,786,771,765,752,743,721,700,676,661,652,625,595,552,542,535,529,527,523],"ymouse":[523,523,523,523,523,523,523,523,523,523,523,523,523,523,523,523,523,523,523,523,523,523,523,523,523,523,523,523,523,523,523,523,523,523,523,523,523,523,523,523,523,524,522,511,467,413,397,352,330,296,281,264,250,235,199,170,126,109,95,80,77,71],"timestamp_mouse":[13,40,54,73,93,114,134,153,173,195,214,233,254,274,293,313,333,354,374,393,413,434,454,475,494,514,533,554,574,593,614,634,654,673,694,714,733,754,774,793,813,834,853,873,893,913,933,953,974,994,1013,1033,1054,1075,1093,1115,1133,1155,1174,1195,1213,1234],"xSR":741.5,"ySR":469.95,"xT1":424.9,"yT1":0,"xT2":1058.1,"yT2":0,"toosoon":0,"cond_shown":"Incongruent","ratio_trial":200,"L_num":1,"L_den":2,"R_num":3,"R_den":10,"correct_side":1,"subjID":"DanielCortesBuitrago2","gender":"0","school":"6","age":"10"},{"start_time":1551881767312,"click_time":1551881769319,"finger_time":1551881768819,"fix_duration":250,"trial":8,"RT":1507,"MT":500,"sideResp":2,"stimulus":[],"xmouse":[787,787,787,787,787,787,787,787,787,787,787,787,787,787,787,787,787,787,787,787,787,787,787,787,787,787,787,787,787,787,787,787,787,787,787,787,787,787,787,787,787,787,787,787,787,787,787,787,787,787,787,787,787,787,787,787,787,787,787,787,787,787,787,787,787,787,787,787,787,787,787,787,787,793,806,834,841,847,924,979,1028,1059,1077,1101,1112,1119,1122,1126,1128,1133,1133,1135,1135,1134,1133,1133,1133,1133,1132,1131,1131],"ymouse":[493,493,493,493,493,493,493,493,493,493,493,493,493,493,493,493,493,493,493,493,493,493,493,493,493,493,493,493,493,493,493,493,493,493,493,493,493,493,493,493,493,493,493,493,493,493,493,493,493,493,493,493,493,493,493,493,493,493,493,493,493,493,493,493,493,493,493,493,493,493,493,493,493,490,476,431,402,378,310,278,249,226,210,183,167,158,151,143,137,126,124,122,121,118,117,117,116,115,113,103,97],"timestamp_mouse":[7,27,51,68,88,107,127,147,167,187,209,228,248,269,288,308,328,348,369,387,407,428,449,468,488,507,527,547,567,589,608,628,648,667,688,707,727,748,768,788,808,828,847,867,888,907,928,948,968,989,1008,1027,1047,1067,1088,1109,1127,1147,1168,1188,1208,1228,1247,1267,1287,1309,1328,1348,1368,1388,1407,1427,1448,1468,1488,1507,1528,1547,1569,1588,1607,1628,1648,1669,1688,1708,1728,1748,1768,1788,1807,1829,1848,1869,1887,1908,1927,1947,1969,1988,2007],"xSR":741.5,"ySR":469.95,"xT1":424.9,"yT1":0,"xT2":1058.1,"yT2":0,"toosoon":0,"cond_shown":"Incongruent","ratio_trial":200,"L_num":14,"L_den":30,"R_num":12,"R_den":18,"correct_side":2,"subjID":"DanielCortesBuitrago2","gender":"0","school":"6","age":"10"},{"start_time":1551881771537,"click_time":1551881774519,"finger_time":1551881773299,"fix_duration":1316.4444735958386,"trial":9,"RT":1762,"MT":1220,"sideResp":1,"stimulus":[],"xmouse":[786,786,786,786,786,786,786,786,786,786,786,786,786,786,786,786,786,786,786,786,786,786,786,786,786,786,786,786,786,786,786,786,786,786,786,786,786,786,786,786,786,786,786,786,786,786,786,786,786,786,786,785,784,783,783,782,782,782,782,782,782,782,782,782,782,782,782,781,780,779,778,777,777,776,776,776,776,776,776,776,776,776,776,776,775,775,774,774,770,768,764,762,756,745,734,726,718,707,682,670,655,652,646,643,643,643,643,643,643,643,643,647,657,721,762,788,810,822,841,847,851,855,855,856,857,858,858,859,861,862,863,864,864,864,864,854,839,823,808,804,795,784,767,718,677,634,604,584,563,523],"ymouse":[498,498,498,498,498,498,498,498,498,498,498,498,498,498,498,498,498,498,498,498,498,498,498,498,498,498,498,498,498,498,498,498,498,498,498,498,498,498,498,498,498,498,498,498,498,498,498,498,498,498,498,498,498,493,493,492,492,491,491,491,491,491,491,491,491,491,491,490,489,488,487,485,484,484,484,484,484,484,484,484,484,484,483,482,480,478,476,473,465,460,449,445,430,407,391,375,359,341,302,283,259,255,243,239,239,239,239,239,239,239,239,239,240,258,270,273,276,278,280,280,280,280,280,280,278,275,273,269,264,260,259,257,257,256,256,254,253,253,250,249,241,230,214,173,146,121,102,88,77,61],"timestamp_mouse":[11,22,42,63,82,103,122,142,162,183,202,222,242,263,282,303,323,342,362,383,402,423,443,462,482,502,523,542,563,582,604,623,642,663,682,703,723,742,762,783,802,823,843,862,882,903,924,943,962,982,1002,1022,1044,1062,1082,1103,1122,1142,1162,1182,1203,1223,1243,1264,1283,1302,1323,1342,1363,1383,1403,1422,1443,1464,1482,1503,1522,1543,1562,1583,1603,1622,1643,1662,1683,1703,1723,1743,1762,1782,1803,1824,1843,1862,1883,1903,1922,1943,1962,1983,2003,2023,2044,2062,2083,2103,2122,2142,2162,2182,2202,2222,2242,2263,2282,2303,2323,2342,2363,2382,2403,2423,2442,2462,2483,2503,2522,2543,2563,2582,2603,2623,2643,2662,2683,2704,2723,2743,2763,2782,2802,2823,2843,2863,2883,2902,2922,2943,2962,2982],"xSR":741.5,"ySR":469.95,"xT1":424.9,"yT1":0,"xT2":1058.1,"yT2":0,"toosoon":0,"cond_shown":"Congruent","ratio_trial":200,"L_num":6,"L_den":15,"R_num":3,"R_den":15,"correct_side":1,"subjID":"DanielCortesBuitrago2","gender":"0","school":"6","age":"10"},{"start_time":1551881776483,"click_time":1551881778459,"finger_time":1551881777961,"fix_duration":1361.7056677050684,"trial":10,"RT":1478,"MT":498,"sideResp":1,"stimulus":[],"xmouse":[818,818,818,818,818,818,818,818,818,818,818,818,818,818,818,818,818,818,818,818,818,818,818,818,818,818,818,818,818,818,818,818,818,818,818,818,818,818,818,818,818,818,818,818,818,818,818,818,818,818,818,818,818,818,818,818,818,818,818,818,818,818,818,818,818,818,818,818,818,818,816,795,777,764,759,757,753,747,742,733,722,694,682,667,651,621,611,602,596,589,572,568,565,563,558,553,543,535,524],"ymouse":[502,502,502,502,502,502,502,502,502,502,502,502,502,502,502,502,502,502,502,502,502,502,502,502,502,502,502,502,502,502,502,502,502,502,502,502,502,502,502,502,502,502,502,502,502,502,502,502,502,502,502,502,502,502,502,502,502,502,502,502,502,502,502,502,502,502,502,502,502,502,501,489,475,462,453,447,442,435,428,416,400,348,321,284,246,179,153,132,118,104,78,72,68,68,67,67,67,67,67],"timestamp_mouse":[20,36,68,77,96,118,136,156,176,196,217,236,256,276,297,316,336,356,377,397,416,436,456,478,497,517,536,556,577,597,617,637,657,676,697,717,736,757,777,796,816,836,857,878,897,917,937,957,977,996,1018,1037,1057,1078,1097,1117,1137,1157,1177,1197,1217,1237,1256,1277,1298,1317,1337,1356,1377,1396,1417,1437,1457,1478,1497,1518,1536,1556,1577,1597,1617,1636,1657,1676,1698,1718,1736,1756,1777,1796,1818,1836,1857,1876,1897,1916,1936,1956,1976],"xSR":741.5,"ySR":469.95,"xT1":424.9,"yT1":0,"xT2":1058.1,"yT2":0,"toosoon":0,"cond_shown":"Congruent","ratio_trial":100,"L_num":12,"L_den":30,"R_num":13,"R_den":26,"correct_side":2,"subjID":"DanielCortesBuitrago2","gender":"0","school":"6","age":"10"},{"start_time":1551881783071,"click_time":1551881784920,"finger_time":1551881784380,"fix_duration":1289.3903592529043,"trial":11,"RT":1309,"MT":540,"sideResp":2,"stimulus":[],"xmouse":[804,804,805,805,805,805,804,802,801,801,800,800,800,800,800,800,800,800,800,800,800,800,800,800,800,800,800,800,800,800,800,800,800,800,800,800,800,800,800,800,800,800,800,800,800,800,800,800,800,800,800,800,800,800,800,800,800,800,800,800,800,800,800,800,810,848,913,1033,1101,1118,1158,1165,1161,1151,1143,1140,1137,1134,1134,1133,1133,1133,1133,1133,1133,1133,1133,1132,1132,1132,1132,1132,1130],"ymouse":[519,519,515,510,509,508,508,508,508,508,508,508,508,508,508,508,508,508,508,508,508,508,508,508,508,508,508,508,508,508,508,508,508,508,508,508,508,508,508,508,508,508,508,508,508,508,508,508,508,508,508,508,508,508,508,508,508,508,508,508,508,508,508,508,507,502,483,415,347,327,265,239,194,171,152,138,127,108,104,102,102,102,102,102,102,102,102,100,100,100,100,100,95],"timestamp_mouse":[9,29,61,70,89,108,129,148,169,189,208,228,248,269,290,310,329,349,369,389,408,430,449,469,488,509,528,549,569,589,608,628,648,669,690,709,728,749,770,789,808,829,848,870,889,909,928,948,969,988,1008,1029,1049,1068,1088,1109,1130,1149,1169,1189,1208,1229,1250,1269,1289,1309,1330,1349,1368,1389,1409,1428,1449,1469,1489,1509,1529,1554,1569,1588,1609,1628,1649,1669,1688,1709,1728,1748,1769,1789,1808,1828,1849],"xSR":741.5,"ySR":469.95,"xT1":424.9,"yT1":0,"xT2":1058.1,"yT2":0,"toosoon":0,"cond_shown":"Incongruent","ratio_trial":200,"L_num":14,"L_den":30,"R_num":6,"R_den":9,"correct_side":2,"subjID":"DanielCortesBuitrago2","gender":"0","school":"6","age":"10"},{"start_time":1551881786170,"click_time":1551881788039,"finger_time":1551881787660,"fix_duration":370.2155334407216,"trial":12,"RT":1490,"MT":379,"sideResp":2,"stimulus":[],"xmouse":[787,787,787,787,787,787,787,787,787,787,787,787,787,787,787,787,787,787,787,787,787,787,787,787,787,787,787,787,787,787,787,787,787,787,787,787,787,787,787,787,787,787,787,787,787,787,787,787,787,787,787,787,787,787,787,787,787,787,787,787,787,787,787,787,787,787,787,787,787,787,787,788,791,824,843,862,881,906,960,979,990,1000,1003,1005,1005,1005,1008,1013,1015,1018,1021,1035,1046,1115],"ymouse":[509,509,509,509,509,509,509,509,509,509,509,509,509,509,509,509,509,509,509,509,509,509,509,509,509,509,509,509,509,509,509,509,509,509,509,509,509,509,509,509,509,509,509,509,509,509,509,509,509,509,509,509,509,509,509,509,509,509,509,509,509,509,509,509,509,509,509,509,509,509,509,506,503,479,465,447,427,396,330,298,273,239,219,180,160,144,129,110,102,96,92,86,84,65],"timestamp_mouse":[9,30,66,69,89,109,130,149,171,189,210,230,250,270,289,309,330,351,370,389,409,429,450,469,490,510,531,550,570,590,609,630,650,670,690,710,730,750,770,791,810,831,850,870,889,910,929,950,971,991,1009,1030,1049,1070,1091,1110,1129,1150,1171,1189,1209,1230,1251,1270,1291,1310,1329,1350,1370,1389,1410,1430,1450,1470,1490,1510,1529,1550,1569,1590,1610,1631,1650,1670,1689,1709,1729,1752,1771,1791,1810,1830,1849,1869],"xSR":741.5,"ySR":469.95,"xT1":424.9,"yT1":0,"xT2":1058.1,"yT2":0,"toosoon":0,"cond_shown":"Congruent","ratio_trial":200,"L_num":3,"L_den":10,"R_num":7,"R_den":14,"correct_side":2,"subjID":"DanielCortesBuitrago2","gender":"0","school":"6","age":"10"},{"start_time":1551881791382,"click_time":1551881793100,"finger_time":1551881792839,"fix_duration":979.2161086525689,"trial":13,"RT":1457,"MT":261,"sideResp":1,"stimulus":[],"xmouse":[784,785,785,790,794,799,800,801,801,801,801,801,801,801,801,801,801,801,801,801,801,801,801,801,801,801,801,801,801,801,801,801,801,801,801,801,801,801,801,801,801,801,801,801,801,801,801,801,801,801,801,801,801,801,801,801,801,801,801,801,801,801,801,801,801,801,801,801,801,802,798,788,757,736,716,700,684,640,620,601,589,576,544,533,527,521],"ymouse":[527,526,526,526,524,523,523,523,523,523,523,523,523,523,523,523,523,523,523,523,523,523,523,523,523,523,523,523,523,523,523,523,523,523,523,523,523,523,523,523,523,523,523,523,523,523,523,523,523,523,523,523,523,523,523,523,523,523,523,523,523,523,523,523,523,523,523,523,523,521,516,504,466,432,398,360,322,254,226,200,180,162,116,92,70,50],"timestamp_mouse":[18,38,57,77,99,118,137,158,178,198,218,238,257,277,298,318,338,359,377,398,418,439,458,477,497,517,537,557,578,599,618,638,657,677,697,718,738,757,777,798,819,839,857,877,897,917,939,959,978,997,1017,1038,1058,1078,1097,1119,1138,1157,1177,1199,1218,1238,1257,1278,1298,1317,1337,1357,1379,1398,1418,1437,1457,1477,1497,1518,1538,1559,1577,1598,1618,1638,1658,1678,1698,1718],"xSR":741.5,"ySR":469.95,"xT1":424.9,"yT1":0,"xT2":1058.1,"yT2":0,"toosoon":0,"cond_shown":"Congruent","ratio_trial":100,"L_num":11,"L_den":22,"R_num":6,"R_den":15,"correct_side":1,"subjID":"DanielCortesBuitrago2","gender":"0","school":"6","age":"10"},{"start_time":1551881795613,"click_time":1551881796759,"finger_time":1551881796340,"fix_duration":1370.9334807753094,"trial":14,"RT":727,"MT":419,"sideResp":2,"stimulus":[],"xmouse":[795,795,795,795,795,795,795,795,795,795,795,795,795,795,795,795,795,795,795,795,795,795,795,795,795,795,795,795,795,795,795,796,798,802,805,832,850,1061,1135,1187,1212,1224,1233,1234,1234,1234,1224,1216,1210,1200,1185,1149,1137,1131,1128,1124,1121,1121],"ymouse":[528,528,528,528,528,528,528,528,528,528,528,528,528,528,528,528,528,528,528,528,528,528,528,528,528,528,528,528,528,528,528,528,528,528,528,528,528,497,468,435,413,396,376,374,372,370,364,354,339,320,296,238,208,181,156,133,101,88],"timestamp_mouse":[8,27,52,67,87,106,126,148,166,188,207,227,247,266,287,308,327,347,367,386,408,426,447,467,488,506,526,546,568,587,607,626,646,668,688,706,727,746,766,786,806,826,847,867,887,906,928,946,966,987,1006,1028,1046,1067,1087,1107,1129,1146],"xSR":741.5,"ySR":469.95,"xT1":424.9,"yT1":0,"xT2":1058.1,"yT2":0,"toosoon":0,"cond_shown":"Incongruent","ratio_trial":300,"L_num":13,"L_den":26,"R_num":12,"R_den":15,"correct_side":2,"subjID":"DanielCortesBuitrago2","gender":"0","school":"6","age":"10"},{"start_time":1551881799301,"click_time":1551881814899,"finger_time":1551881800080,"fix_duration":1058.6788018339676,"trial":15,"RT":779,"MT":14819,"sideResp":1,"stimulus":[],"xmouse":[780,780,780,780,780,780,780,780,780,780,780,780,780,780,780,780,780,780,780,780,780,780,780,780,780,780,780,780,780,780,780,780,780,780,780,780,780,780,780,780,780,780,780,780,780,780,780,780,780,780,780,780,780,780,780,780,780,780,780,780,780,780,780,780,780,780,780,780,780,780,780,780,780,780,780,780,780,780,780,780,780,780,780,780,780,780,780,780,780,780,781,781,781,779,779,777,777,777,777,777,777,777,777,777,777,777,777,776,776,776,776,775,775,774,774,774,774,774,774,774,774,774,772,772,772,772,772,772,771,771,771,771,771,770,770,770,770,770,770,770,770,770,770,772,777,783,791,805,813,815,817,817,818,820,821,823,824,825,829,829,830,830,830,830,830,830,830,830,828,827,827,825,824,823,823,821,820,818,817,816,816,816,816,816,816,816,816,816,816,816,816,816,816,816,816,816,816,816,816,816,816,816,816,816,816,816,816,816,816,816,816,816,816,816,816,816,816,816,816,816,814,812,795,781,766,753,748,747,747,747,747,747,747,753,759,763,765,767,769,770,770,771,775,785,800,812,821,825,822,801,757,700,646,583,564,558,559,571,646,679,713,745,780,781,776,771,744,564,521,513,529,568,651,851,907,917,875,519,344,207,133,140,422,685,961,1130,1166,1126,524,186,186,186,186,973,1454,1454,1544,1224,162,162,162,162,1299,1299,1299,1299,1397,926,926,926,268,869,1513,1513,1513,1357,857,0,13,230,597,972,1315,1315,1223,957,599,89,0,0,13,42,89,180,196,202,202,200,198,198,198,198,197,195,193,192,191,191,191,191,190,190,190,190,190,189,188,188,188,188,188,188,188,188,188,188,188,188,188,188,188,188,188,188,188,188,188,188,188,188,188,188,188,188,188,188,188,188,188,188,188,188,188,188,188,188,188,188,188,187,186,186,185,185,184,184,184,183,181,181,180,179,179,178,178,178,177,177,177,177,176,176,176,175,175,175,175,175,175,175,175,175,175,175,175,175,187,199,215,221,229,235,242,255,257,261,275,292,317,320,321,326,339,393,415,433,449,477,513,528,544,561,579,607,618,629,646,656,675,684,692,699,706,727,739,748,762,768,774,775,776,776,776,777,778,779,779,779,779,779,779,779,779,779,779,779,779,779,779,779,779,779,779,779,779,779,779,779,779,779,779,779,779,779,779,779,779,779,779,779,779,779,779,779,779,779,779,779,779,779,779,779,779,779,779,779,779,779,783,788,790,794,797,802,806,810,816,820,826,854,875,891,899,882,788,696,616,545,473,467,473,515,605,880,1018,1105,1107,1090,956,856,774,741,738,779,875,911,919,916,806,698,600,567,582,932,1129,1283,1355,1364,1360,1357,1357,1357,1357,1366,1373,1375,1375,1375,1376,1376,1376,1376,1376,1376,1376,1376,1376,1376,1374,1371,1366,1362,1358,1352,1347,1346,1345,1345,1345,1345,1345,1344,1343,1337,1330,1324,1321,1318,1315,1313,1310,1308,1306,1303,1302,1302,1301,1300,1300,1300,1300,1300,1300,1300,1299,1298,1297,1297,1297,1297,1297,1297,1297,1297,1297,1297,1297,1297,1297,1292,1292,1292,1292,1292,1292,1292,1292,1292,1292,1292,1292,1292,1292,1292,1292,1292,1292,1292,1292,1292,1292,1292,1292,1292,1292,1292,1292,1292,1292,1292,1292,1292,1292,1292,1292,1292,1292,1292,1292,1292,1292,1292,1292,1292,1292,1292,1292,1292,1292,1292,1292,1292,1292,1292,1292,1292,1292,1292,1292,1292,1292,1292,1292,1292,1292,1292,1292,1292,1292,1292,1292,1292,1292,1292,1292,1292,1291,1289,1269,1027,889,772,688,536,296,202,119,61,34,14,14,7,0,0,22,48,50,25,0,0,0,1,27,72,158,197,217,226,228,229,229,230,237,281,360,375,389,401,415,445],"ymouse":[532,532,532,532,532,532,532,532,532,532,532,532,532,532,532,532,532,532,532,532,532,532,532,532,532,532,532,532,532,532,532,532,532,532,532,532,532,532,603,603,603,603,603,603,603,603,603,603,603,603,603,603,603,603,603,603,603,603,603,603,603,603,603,603,603,603,603,603,603,603,603,603,603,603,603,603,603,603,603,603,603,603,603,603,603,603,603,603,603,603,603,599,591,570,561,554,552,552,552,552,552,552,552,552,552,552,552,553,555,557,559,560,563,565,566,567,569,571,573,576,580,583,591,594,596,599,601,604,606,608,609,611,613,614,615,615,615,615,615,615,615,615,612,604,594,582,571,555,548,545,544,544,544,544,544,543,541,539,531,527,526,526,526,526,526,526,524,523,519,518,518,518,518,518,518,518,518,518,518,518,518,518,518,518,518,518,518,518,518,518,518,518,518,518,518,518,518,518,518,518,518,518,518,518,518,518,518,518,518,518,518,518,518,518,518,518,518,518,518,518,518,518,516,514,512,510,509,509,509,509,509,509,509,509,509,509,509,509,509,509,509,509,509,509,509,509,506,503,501,501,501,501,516,579,622,652,672,684,676,646,590,512,352,312,299,298,319,528,617,677,704,710,688,510,401,310,260,342,460,599,719,794,841,782,690,591,526,499,638,769,769,769,769,745,613,613,475,519,783,783,783,783,721,721,721,721,629,761,761,761,848,719,582,582,582,414,538,706,690,581,444,307,140,135,149,203,259,286,249,232,209,185,151,85,68,57,50,44,41,41,41,41,41,41,41,40,39,39,39,38,38,38,38,38,38,38,38,38,38,38,38,38,38,38,38,38,38,38,38,38,38,38,38,38,38,38,38,38,38,38,38,38,38,38,38,38,38,38,38,38,38,38,38,38,38,38,38,38,39,40,42,42,43,46,46,48,48,49,52,53,55,56,57,59,59,60,61,62,63,63,64,65,65,66,66,66,67,67,67,67,67,67,67,67,70,75,90,103,131,147,162,177,190,206,209,210,213,213,213,213,213,214,216,231,237,241,247,254,265,270,279,290,303,337,355,376,407,426,461,473,482,490,495,503,508,511,515,517,520,521,522,522,522,522,522,522,522,522,522,522,522,522,522,522,522,522,522,522,522,522,522,522,522,522,522,522,522,522,522,522,522,522,522,522,522,522,522,522,522,522,522,522,522,522,522,522,522,522,522,522,522,522,522,522,522,522,522,522,522,521,520,519,519,519,520,520,521,521,522,512,503,493,483,461,440,427,423,426,461,482,502,525,536,498,456,397,377,359,352,378,434,472,480,489,455,433,421,415,430,475,531,570,601,680,680,660,636,627,606,601,601,601,601,605,608,609,609,609,609,609,609,609,609,609,609,608,608,608,604,600,593,589,585,579,578,578,578,578,578,578,578,578,578,585,589,589,589,589,591,591,593,593,594,596,596,596,596,597,597,597,597,597,597,597,596,594,592,592,592,592,592,592,592,592,592,592,592,592,591,590,590,590,590,590,590,590,590,590,590,590,590,590,590,590,590,590,590,590,590,590,590,590,590,590,590,590,590,590,590,590,590,590,590,590,590,590,590,590,590,590,590,590,590,590,590,590,590,590,590,590,590,590,590,590,590,590,590,590,590,590,590,590,590,590,590,590,590,590,590,590,590,590,590,590,590,590,590,590,591,610,633,651,676,703,737,736,716,698,691,689,689,681,450,114,0,0,0,0,0,0,0,0,0,0,0,0,0,0,0,0,0,0,0,4,17,19,19,19,17,5],"timestamp_mouse":[19,44,59,79,98,119,139,159,180,199,220,238,259,279,298,318,340,359,379,399,419,439,460,479,499,518,539,559,579,599,618,639,659,679,698,718,744,759,779,798,819,838,859,878,899,919,939,960,979,1000,1019,1039,1058,1078,1099,1119,1138,1158,1179,1199,1219,1239,1259,1280,1299,1320,1338,1358,1379,1399,1419,1439,1459,1478,1499,1520,1539,1558,1579,1599,1619,1640,1659,1680,1699,1719,1739,1759,1779,1799,1818,1838,1858,1879,1898,1919,1939,1958,1978,1998,2019,2038,2059,2078,2099,2120,2139,2159,2178,2199,2218,2240,2259,2279,2299,2319,2339,2358,2378,2399,2418,2439,2458,2478,2499,2519,2538,2558,2579,2600,2618,2639,2658,2678,2698,2719,2739,2759,2779,2799,2818,2839,2860,2879,2899,2919,2939,2960,2980,2998,3019,3038,3058,3078,3100,3120,3140,3159,3179,3199,3218,3239,3258,3279,3298,3318,3339,3358,3378,3398,3419,3439,3459,3478,3498,3518,3539,3559,3578,3599,3620,3638,3659,3680,3698,3718,3739,3759,3780,3799,3819,3840,3860,3878,3899,3918,3938,3958,3979,3999,4018,4039,4060,4078,4100,4118,4138,4158,4179,4198,4218,4238,4259,4278,4298,4318,4339,4359,4378,4399,4418,4439,4459,4479,4498,4520,4540,4559,4578,4598,4619,4640,4660,4679,4699,4719,4738,4759,4779,4799,4819,4839,4859,4879,4898,4919,4939,4959,4978,4999,5020,5040,5059,5079,5098,5119,5139,5158,5180,5198,5219,5239,5259,5278,5299,5318,5339,5361,5378,5400,5420,5439,5458,5479,5499,5519,5538,5560,5578,5600,5618,5639,5659,5679,5698,5719,5738,5759,5778,5799,5819,5839,5860,5878,5899,5919,5940,5959,5979,5998,6019,6038,6059,6078,6098,6119,6138,6159,6178,6200,6218,6238,6259,6278,6299,6319,6339,6360,6379,6399,6420,6439,6461,6478,6500,6519,6539,6559,6579,6599,6619,6639,6659,6678,6699,6720,6739,6760,6779,6798,6819,6838,6859,6878,6898,6918,6938,6959,6978,6999,7018,7040,7059,7079,7099,7118,7139,7159,7178,7200,7219,7240,7260,7278,7298,7318,7339,7358,7378,7399,7420,7438,7459,7479,7499,7519,7539,7559,7580,7599,7619,7638,7659,7678,7699,7719,7738,7758,7779,7798,7819,7838,7859,7878,7900,7920,7939,7958,7978,7999,8018,8039,8059,8079,8099,8118,8139,8159,8178,8198,8220,8239,8259,8278,8299,8319,8340,8358,8378,8399,8418,8438,8460,8479,8499,8519,8539,8559,8579,8599,8618,8638,8658,8679,8698,8718,8738,8760,8778,8799,8820,8839,8858,8878,8899,8919,8939,8959,8978,8999,9019,9040,9059,9078,9099,9119,9139,9159,9178,9198,9218,9239,9260,9278,9299,9319,9338,9358,9378,9399,9418,9438,9459,9479,9500,9519,9540,9559,9578,9598,9619,9638,9658,9678,9698,9720,9740,9759,9778,9800,9819,9839,9858,9880,9898,9919,9938,9960,9979,9999,10019,10039,10060,10079,10099,10120,10139,10158,10179,10200,10220,10239,10258,10278,10300,10319,10339,10360,10378,10399,10419,10439,10458,10478,10499,10519,10540,10559,10579,10599,10619,10640,10659,10679,10700,10719,10738,10759,10779,10799,10819,10839,10877,10878,10898,10918,10939,10958,10978,10999,11019,11039,11058,11078,11098,11119,11139,11158,11178,11198,11220,11238,11259,11279,11298,11319,11339,11358,11378,11399,11420,11438,11459,11478,11498,11518,11539,11559,11578,11598,11619,11639,11659,11679,11698,11719,11739,11760,11779,11798,11819,11839,11858,11879,11898,11919,11938,11959,11979,11998,12019,12039,12059,12078,12099,12118,12139,12159,12179,12198,12218,12239,12259,12279,12298,12319,12338,12358,12378,12399,12420,12439,12458,12479,12498,12519,12538,12559,12579,12599,12618,12639,12658,12678,12698,12719,12738,12759,12779,12799,12819,12840,12860,12878,12898,12919,12938,12960,12979,12999,13019,13039,13058,13079,13098,13118,13139,13159,13179,13198,13219,13238,13258,13278,13299,13318,13339,13359,13379,13399,13419,13439,13459,13479,13498,13519,13539,13559,13579,13598,13619,13640,13659,13679,13698,13718,13738,13758,13778,13798,13819,13838,13860,13879,13899,13919,13939,13959,13980,13998,14020,14039,14059,14079,14099,14118,14139,14159,14178,14198,14218,14239,14259,14278,14298,14319,14339,14359,14380,14399,14420,14439,14458,14479,14499,14519,14539,14559,14579,14599,14619,14639,14659,14679,14698,14719,14739,14759,14779,14799,14818,14840,14859,14879,14899,14918,14939,14958,14979,14998,15020,15039,15058,15079,15098,15118,15138,15158,15178,15198,15219,15238,15259,15279,15299,15319,15339,15359,15379,15398,15418,15439,15458,15480,15498,15519,15539,15560,15579,15598],"xSR":741.5,"ySR":469.95,"xT1":424.9,"yT1":0,"xT2":1058.1,"yT2":0,"toosoon":0,"cond_shown":"Congruent","ratio_trial":200,"L_num":11,"L_den":22,"R_num":3,"R_den":10,"correct_side":1,"subjID":"DanielCortesBuitrago2","gender":"0","school":"6","age":"10"},{"start_time":1551881816410,"click_time":1551881818880,"finger_time":1551881817279,"fix_duration":368.6182003574122,"trial":16,"RT":869,"MT":1601,"sideResp":1,"stimulus":[],"xmouse":[798,798,798,798,798,798,798,799,799,799,799,800,810,813,813,813,813,813,813,813,813,813,813,813,813,813,813,813,813,813,813,813,813,813,813,813,813,813,813,813,811,803,792,785,785,785,785,785,785,785,785,785,785,785,785,785,785,785,785,785,785,785,785,785,795,801,810,825,835,858,864,868,870,870,872,860,842,812,794,758,744,734,728,724,719,718,718,718,718,718,718,718,718,718,718,722,726,736,743,759,767,772,776,781,792,796,802,805,808,812,816,818,818,809,764,740,715,662,629,580,553,522,494,465],"ymouse":[645,645,645,645,645,645,642,639,635,634,634,632,622,620,620,620,620,620,620,620,620,620,620,620,620,620,620,620,620,620,620,620,620,620,620,620,620,620,620,620,614,598,577,562,561,561,561,561,561,561,561,561,561,561,561,561,561,561,561,561,561,561,561,562,633,685,725,763,775,784,785,786,786,786,784,781,778,772,766,743,734,725,719,711,705,702,700,699,698,698,698,698,698,698,698,698,698,701,703,704,704,704,704,702,689,680,666,657,648,621,598,573,542,510,463,450,435,400,368,292,245,196,146,95],"timestamp_mouse":[9,29,51,70,89,109,130,149,169,189,210,231,249,269,289,310,330,349,370,391,409,429,449,469,490,509,531,549,570,591,609,630,650,669,690,710,729,749,771,789,810,829,850,869,890,909,930,949,971,990,1011,1029,1049,1070,1089,1110,1129,1151,1170,1190,1209,1229,1249,1270,1289,1309,1330,1349,1371,1390,1409,1430,1450,1470,1490,1510,1530,1550,1569,1589,1609,1629,1650,1669,1691,1709,1729,1749,1771,1790,1809,1830,1850,1870,1890,1909,1930,1949,1970,1990,2009,2029,2050,2070,2089,2110,2129,2149,2171,2190,2209,2229,2250,2270,2289,2309,2329,2349,2369,2389,2410,2431,2451,2470],"xSR":741.5,"ySR":573.95,"xT1":424.9,"yT1":0,"xT2":1058.1,"yT2":0,"toosoon":0,"cond_shown":"Incongruent","ratio_trial":100,"L_num":13,"L_den":26,"R_num":12,"R_den":20,"correct_side":2,"subjID":"DanielCortesBuitrago2","gender":"0","school":"6","age":"10"},{"start_time":1551881821636,"click_time":1551881822700,"finger_time":1551881822340,"fix_duration":495.9259397993239,"trial":17,"RT":704,"MT":360,"sideResp":2,"stimulus":[],"xmouse":[820,820,820,820,820,820,819,818,815,814,814,813,813,813,813,813,813,813,813,813,813,813,813,813,813,813,813,813,813,813,813,813,814,815,834,846,859,869,889,936,954,968,978,984,997,1004,1011,1020,1035,1072,1088,1104,1114,1122],"ymouse":[651,651,651,651,650,649,647,646,641,640,638,636,635,634,632,631,631,631,631,630,630,630,630,630,630,630,630,630,630,630,630,630,629,629,622,614,602,583,556,496,466,440,420,400,356,340,321,302,274,204,168,131,102,81],"timestamp_mouse":[14,27,45,64,84,104,124,144,165,184,204,223,243,264,283,303,324,344,363,384,405,424,444,463,483,503,523,543,564,583,605,623,644,663,685,704,723,743,763,783,804,824,844,865,884,904,924,945,964,984,1004,1024,1044,1064],"xSR":741.5,"ySR":573.95,"xT1":424.9,"yT1":0,"xT2":1058.1,"yT2":0,"toosoon":0,"cond_shown":"Incongruent","ratio_trial":300,"L_num":4,"L_den":20,"R_num":2,"R_den":4,"correct_side":2,"subjID":"DanielCortesBuitrago2","gender":"0","school":"6","age":"10"},{"start_time":1551881823671,"click_time":1551881825521,"finger_time":1551881824219,"fix_duration":250,"trial":18,"RT":548,"MT":1302,"sideResp":1,"stimulus":[],"xmouse":[817,817,817,817,817,817,817,817,817,817,817,817,817,817,817,817,817,817,817,817,817,817,817,817,817,821,827,843,850,854,857,858,858,858,858,858,858,858,858,858,858,858,858,858,860,864,872,895,910,926,943,956,977,979,979,979,979,979,979,979,979,979,977,969,954,935,913,870,847,826,804,774,745,732,717,702,686,657,643,627,611,604,592,585,573,565,552,509,487,474,471,470,470],"ymouse":[648,648,648,648,648,648,648,648,648,648,648,648,648,648,648,648,648,648,648,648,648,648,648,646,642,634,624,601,591,584,580,580,580,580,580,580,580,580,580,580,580,579,579,579,579,578,577,569,563,554,544,533,511,507,506,505,505,505,505,505,505,505,505,505,505,505,505,501,495,486,471,447,404,375,340,302,260,167,122,85,41,26,8,4,1,0,0,0,0,0,0,0,1],"timestamp_mouse":[8,29,48,69,88,109,129,149,169,190,208,229,250,269,289,309,328,349,369,388,409,430,449,469,489,509,529,548,570,589,609,629,649,669,689,709,729,749,768,789,809,829,848,869,888,909,929,949,968,989,1008,1028,1048,1069,1089,1110,1129,1149,1168,1188,1209,1228,1248,1269,1289,1309,1329,1349,1369,1389,1409,1429,1449,1469,1489,1509,1529,1549,1568,1589,1609,1629,1648,1669,1688,1709,1728,1748,1768,1788,1809,1828,1850],"xSR":741.5,"ySR":573.95,"xT1":424.9,"yT1":0,"xT2":1058.1,"yT2":0,"toosoon":0,"cond_shown":"Congruent","ratio_trial":100,"L_num":11,"L_den":22,"R_num":4,"R_den":10,"correct_side":1,"subjID":"DanielCortesBuitrago2","gender":"0","school":"6","age":"10"},{"start_time":1551881828051,"click_time":1551881829840,"finger_time":1551881829440,"fix_duration":1367.5505532118868,"trial":19,"RT":1389,"MT":400,"sideResp":1,"stimulus":[],"xmouse":[786,786,786,786,786,786,786,786,786,786,786,786,786,786,786,786,786,786,786,786,786,786,786,786,786,786,786,786,786,786,786,786,786,786,786,786,786,786,786,786,786,786,786,786,786,786,786,786,786,786,786,786,786,786,786,786,786,786,786,786,786,786,786,786,786,786,787,787,781,760,751,742,735,719,711,701,695,687,674,669,663,654,634,555,527,509,494,482,472,457],"ymouse":[610,610,610,610,610,610,610,610,610,610,610,610,610,610,610,610,610,610,610,610,610,610,610,610,610,610,610,610,610,610,610,610,610,610,610,610,610,610,610,610,610,610,610,610,610,610,610,610,610,610,610,610,610,610,610,610,610,610,610,610,610,610,610,610,610,610,606,603,592,544,514,479,437,326,266,203,143,86,11,0,0,0,0,0,0,0,0,0,0,2],"timestamp_mouse":[13,29,48,68,88,108,130,149,170,188,208,228,249,268,288,309,330,348,368,388,409,428,448,470,489,509,529,548,569,589,608,629,648,669,689,708,729,749,768,790,809,828,848,869,889,910,928,948,969,989,1009,1028,1048,1068,1089,1109,1129,1148,1168,1189,1209,1229,1248,1269,1288,1309,1329,1349,1369,1389,1408,1429,1449,1469,1488,1509,1529,1549,1569,1588,1608,1629,1649,1669,1688,1708,1728,1750,1769,1789],"xSR":741.5,"ySR":573.95,"xT1":424.9,"yT1":0,"xT2":1058.1,"yT2":0,"toosoon":0,"cond_shown":"Congruent","ratio_trial":200,"L_num":14,"L_den":28,"R_num":6,"R_den":20,"correct_side":1,"subjID":"DanielCortesBuitrago2","gender":"0","school":"6","age":"10"},{"start_time":1551881832061,"click_time":1551881833880,"finger_time":1551881833199,"fix_duration":1400.9619383245251,"trial":20,"RT":1138,"MT":681,"sideResp":1,"stimulus":[],"xmouse":[795,795,795,794,794,794,794,794,794,794,794,794,794,794,794,794,794,794,794,794,794,794,794,794,794,794,794,794,794,794,794,794,793,792,792,790,789,788,788,788,788,788,788,788,788,787,787,787,788,788,789,792,795,803,808,813,817,823,828,830,830,831,831,830,826,820,815,806,783,767,739,702,645,600,588,574,560,529,488,472,466,462,460,460,460,460,460,460,460,460,461],"ymouse":[628,628,628,632,633,633,633,633,633,633,633,633,633,633,633,633,633,633,633,633,633,633,633,633,633,633,633,633,633,633,633,633,634,634,634,634,635,635,635,635,635,635,635,635,635,635,634,633,629,628,626,622,618,603,594,583,566,555,533,519,507,495,483,458,444,431,418,397,362,344,318,284,247,189,162,130,97,35,0,0,0,0,0,0,0,0,0,0,0,0,6],"timestamp_mouse":[19,52,59,78,98,119,139,159,179,199,218,240,259,279,299,319,338,359,378,400,418,439,460,479,499,519,539,559,578,599,618,638,659,679,698,719,738,758,778,799,819,840,858,878,899,918,938,958,978,999,1018,1038,1059,1079,1098,1119,1138,1159,1179,1199,1219,1239,1260,1279,1299,1318,1338,1359,1379,1398,1418,1438,1458,1478,1500,1519,1539,1559,1579,1599,1618,1638,1658,1679,1699,1719,1738,1760,1780,1798,1819],"xSR":741.5,"ySR":573.95,"xT1":424.9,"yT1":0,"xT2":1058.1,"yT2":0,"toosoon":0,"cond_shown":"Congruent","ratio_trial":200,"L_num":16,"L_den":20,"R_num":12,"R_den":20,"correct_side":1,"subjID":"DanielCortesBuitrago2","gender":"0","school":"6","age":"10"},{"start_time":1551881840253,"click_time":1551881841119,"finger_time":1551881840980,"fix_duration":250,"trial":21,"RT":727,"MT":139,"sideResp":2,"stimulus":[],"xmouse":[796,796,796,796,796,796,796,796,796,796,796,796,796,796,797,797,797,798,798,798,798,798,798,798,798,798,798,798,798,798,798,798,798,798,800,822,844,877,916,952,1020,1053,1084,1102],"ymouse":[629,629,629,629,626,625,624,622,621,620,618,617,615,614,612,611,611,610,609,609,609,609,609,609,609,609,609,609,609,609,609,609,609,609,607,594,579,549,508,451,308,229,154,84],"timestamp_mouse":[10,34,47,67,87,106,126,148,166,186,207,226,246,267,288,307,327,346,367,386,408,427,447,466,487,506,527,546,566,588,607,627,647,667,687,707,727,746,768,787,806,827,847,866],"xSR":741.5,"ySR":573.95,"xT1":424.9,"yT1":0,"xT2":1058.1,"yT2":0,"toosoon":0,"cond_shown":"Congruent","ratio_trial":100,"L_num":8,"L_den":16,"R_num":2,"R_den":5,"correct_side":1,"subjID":"DanielCortesBuitrago2","gender":"0","school":"6","age":"10"},{"start_time":1551881844794,"click_time":1551881846539,"finger_time":1551881845960,"fix_duration":1333.3773278261626,"trial":22,"RT":1166,"MT":579,"sideResp":1,"stimulus":[],"xmouse":[780,781,781,781,781,781,781,781,781,781,781,781,781,781,781,782,782,782,783,783,784,784,784,784,785,786,786,786,787,787,787,787,787,788,789,789,789,789,789,789,789,789,789,789,789,789,789,789,789,789,789,789,789,789,789,789,789,789,791,791,791,792,792,792,781,763,751,745,717,707,695,677,650,599,584,584,582,581,581,580,577,577,574,570,553,540,527,517],"ymouse":[609,608,608,608,608,608,608,608,608,608,608,608,608,608,608,608,607,606,604,604,603,603,602,602,601,600,599,599,598,598,598,598,597,597,595,594,593,593,593,593,593,593,593,593,593,593,593,593,593,593,593,593,593,593,593,593,591,587,571,554,529,490,441,299,218,100,42,15,0,0,0,0,0,0,0,0,0,0,0,0,0,0,0,0,11,16,21,25],"timestamp_mouse":[6,28,52,66,85,106,126,147,165,185,206,226,246,265,285,306,326,345,365,386,405,427,445,466,486,506,526,546,566,585,606,625,645,666,686,706,726,746,765,786,805,827,845,865,886,907,926,946,965,986,1005,1025,1045,1067,1087,1106,1125,1145,1166,1185,1206,1226,1245,1266,1287,1305,1326,1345,1368,1385,1405,1426,1446,1467,1485,1506,1525,1546,1566,1585,1605,1625,1647,1666,1685,1705,1725,1745],"xSR":741.5,"ySR":573.95,"xT1":424.9,"yT1":0,"xT2":1058.1,"yT2":0,"toosoon":0,"cond_shown":"Incongruent","ratio_trial":300,"L_num":4,"L_den":5,"R_num":8,"R_den":16,"correct_side":1,"subjID":"DanielCortesBuitrago2","gender":"0","school":"6","age":"10"},{"start_time":1551881848726,"click_time":1551881850077,"finger_time":1551881849518,"fix_duration":646.6502317535777,"trial":23,"RT":792,"MT":559,"sideResp":2,"stimulus":[],"xmouse":[797,797,797,797,797,797,797,797,797,797,797,797,797,797,797,796,796,797,797,797,797,797,797,797,797,797,797,797,797,797,797,797,797,797,797,797,799,829,841,852,860,868,925,951,973,987,999,1020,1027,1036,1042,1046,1052,1056,1056,1056,1057,1057,1057,1057,1057,1057,1060,1063,1068,1076,1080,1083],"ymouse":[648,648,648,648,648,648,648,648,648,648,648,648,648,648,648,647,645,645,645,645,645,645,645,645,645,645,645,645,645,645,645,645,645,644,644,644,644,629,615,598,580,561,512,491,472,456,436,389,371,352,332,313,270,247,228,213,208,206,203,202,201,200,188,177,157,129,111,91],"timestamp_mouse":[12,46,51,72,92,113,133,152,173,192,213,233,253,273,292,313,333,351,373,392,413,432,452,472,492,512,534,552,572,593,612,633,651,671,692,712,732,752,772,792,812,833,852,872,892,911,933,953,972,992,1012,1031,1052,1073,1092,1112,1132,1153,1172,1193,1212,1233,1252,1272,1293,1312,1332,1351],"xSR":741.5,"ySR":573.95,"xT1":424.9,"yT1":0,"xT2":1058.1,"yT2":0,"toosoon":0,"cond_shown":"Incongruent","ratio_trial":100,"L_num":9,"L_den":18,"R_num":6,"R_den":10,"correct_side":2,"subjID":"DanielCortesBuitrago2","gender":"0","school":"6","age":"10"},{"start_time":1551881851649,"click_time":1551881852839,"finger_time":1551881852599,"fix_duration":569.442258837786,"trial":24,"RT":950,"MT":240,"sideResp":2,"stimulus":[],"xmouse":[779,779,779,779,779,779,779,779,779,779,779,779,779,779,779,781,782,782,782,782,782,782,782,782,782,782,782,782,782,782,782,782,782,782,782,782,782,782,782,782,782,782,782,782,782,786,810,843,864,887,900,932,965,1004,1045,1072,1098,1106,1107,1111],"ymouse":[619,619,619,619,619,619,619,619,619,619,619,619,619,619,619,617,616,616,616,616,616,616,616,616,616,616,616,616,616,616,616,616,616,616,616,616,616,616,616,616,616,616,616,616,616,611,596,582,570,549,530,486,443,389,326,269,181,130,119,92],"timestamp_mouse":[13,45,49,70,89,109,129,149,170,188,210,230,250,270,289,309,328,349,368,390,409,429,449,469,490,509,529,549,569,589,609,629,650,670,690,708,728,749,769,789,809,829,850,869,889,909,929,950,969,989,1009,1029,1050,1069,1090,1109,1128,1148,1169,1190],"xSR":741.5,"ySR":573.95,"xT1":424.9,"yT1":0,"xT2":1058.1,"yT2":0,"toosoon":0,"cond_shown":"Incongruent","ratio_trial":300,"L_num":4,"L_den":20,"R_num":2,"R_den":4,"correct_side":2,"subjID":"DanielCortesBuitrago2","gender":"0","school":"6","age":"10"},{"start_time":1551881855967,"click_time":1551881858119,"finger_time":1551881857798,"fix_duration":527.9246789671989,"trial":25,"RT":1831,"MT":321,"sideResp":2,"stimulus":[],"xmouse":[776,776,776,776,776,776,776,776,776,776,776,776,776,776,776,776,776,776,776,776,776,776,776,776,776,776,776,776,776,776,776,776,776,776,776,776,776,776,776,776,776,776,776,776,776,776,776,776,776,776,776,776,776,776,776,776,776,776,776,776,776,776,776,776,776,776,776,776,776,776,776,776,776,776,776,776,776,776,776,776,776,776,776,776,776,776,776,779,783,796,838,856,878,910,941,974,1023,1043,1053,1060,1065,1072,1075,1076,1078,1080,1083,1083],"ymouse":[626,626,626,626,626,626,626,626,626,626,626,626,626,626,626,626,626,626,626,626,626,626,626,626,626,626,626,626,626,626,626,626,626,626,626,626,626,626,626,626,626,626,626,626,626,626,626,626,626,626,626,626,626,626,626,626,626,626,626,626,626,626,626,626,626,626,626,626,626,626,626,626,626,626,626,626,626,626,626,626,626,626,626,626,626,626,626,624,621,615,593,576,545,501,450,389,286,238,207,184,166,137,131,125,118,112,102,99],"timestamp_mouse":[17,31,51,71,92,110,131,151,171,191,212,230,251,271,291,311,331,351,372,392,410,431,451,471,491,511,532,552,570,591,611,632,652,672,691,711,731,752,772,792,812,832,851,870,891,912,931,951,972,991,1011,1032,1052,1072,1091,1112,1132,1152,1170,1192,1212,1231,1252,1272,1290,1311,1331,1352,1371,1392,1411,1432,1451,1471,1492,1511,1530,1551,1572,1592,1611,1631,1651,1672,1690,1712,1731,1752,1771,1791,1812,1831,1852,1871,1892,1911,1931,1952,1971,1992,2012,2030,2051,2070,2091,2112,2131,2151],"xSR":741.5,"ySR":573.95,"xT1":424.9,"yT1":0,"xT2":1058.1,"yT2":0,"toosoon":0,"cond_shown":"Incongruent","ratio_trial":200,"L_num":9,"L_den":15,"R_num":8,"R_den":10,"correct_side":2,"subjID":"DanielCortesBuitrago2","gender":"0","school":"6","age":"10"},{"start_time":1551881859908,"click_time":1551881861559,"finger_time":1551881860978,"fix_duration":968.1224327159208,"trial":26,"RT":1070,"MT":581,"sideResp":2,"stimulus":[],"xmouse":[807,806,806,806,804,804,804,804,804,804,803,803,803,801,800,800,800,800,800,800,800,800,799,799,799,799,799,799,799,799,799,799,799,799,799,799,799,799,799,799,799,799,799,799,799,799,799,799,798,793,786,776,757,742,711,695,677,659,643,613,605,595,591,588,584,584,584,584,584,634,683,732,801,836,901,944,973,983,985,1001,1030,1047,1083],"ymouse":[632,630,628,628,625,625,625,625,625,625,624,624,623,623,622,622,622,622,622,622,622,622,622,622,622,622,622,622,622,622,622,622,622,622,622,622,622,622,622,622,622,622,622,622,622,622,622,622,621,619,614,605,578,554,493,461,427,389,349,260,218,161,132,107,74,66,64,64,64,112,173,239,325,379,484,531,558,566,566,530,386,300,21],"timestamp_mouse":[13,30,55,71,90,110,130,151,169,189,211,230,250,270,290,311,330,350,371,389,409,431,450,471,489,510,530,550,570,589,610,630,649,671,689,710,731,749,769,791,810,831,850,870,889,910,930,951,971,990,1010,1030,1050,1070,1090,1110,1130,1150,1171,1190,1209,1230,1250,1271,1290,1310,1330,1350,1369,1390,1410,1430,1451,1471,1490,1510,1530,1550,1570,1589,1610,1631,1651],"xSR":741.5,"ySR":573.95,"xT1":424.9,"yT1":0,"xT2":1058.1,"yT2":0,"toosoon":0,"cond_shown":"Congruent","ratio_trial":300,"L_num":1,"L_den":30,"R_num":8,"R_den":24,"correct_side":2,"subjID":"DanielCortesBuitrago2","gender":"0","school":"6","age":"10"},{"start_time":1551881865299,"click_time":1551881866718,"finger_time":1551881866458,"fix_duration":399.74923300399956,"trial":27,"RT":1159,"MT":260,"sideResp":2,"stimulus":[],"xmouse":[791,791,791,791,791,791,791,791,791,791,791,791,791,791,791,791,791,791,791,791,791,791,791,791,791,791,791,791,791,791,791,791,791,791,791,791,791,791,791,791,791,791,791,791,791,791,791,791,791,791,791,791,791,791,792,807,818,831,857,890,923,1000,1028,1051,1077,1091,1108,1113,1116,1120,1124,1128],"ymouse":[665,665,665,663,663,663,663,663,663,663,663,663,663,663,663,663,663,663,663,663,663,663,663,663,663,663,663,663,663,663,663,663,663,663,663,663,663,663,663,663,663,663,663,663,663,663,663,663,663,663,663,663,663,662,660,654,649,642,632,616,598,516,464,405,343,294,210,182,159,130,103,89],"timestamp_mouse":[1,20,46,59,79,99,119,140,160,180,200,219,238,260,280,299,320,340,358,380,399,419,440,460,480,500,519,540,559,580,599,618,640,660,679,700,719,739,759,780,799,820,840,859,880,898,918,940,960,980,999,1020,1039,1060,1079,1100,1119,1139,1159,1178,1199,1219,1240,1259,1280,1300,1319,1339,1360,1379,1400,1419],"xSR":741.5,"ySR":573.95,"xT1":424.9,"yT1":0,"xT2":1058.1,"yT2":0,"toosoon":0,"cond_shown":"Congruent","ratio_trial":200,"L_num":6,"L_den":12,"R_num":7,"R_den":10,"correct_side":2,"subjID":"DanielCortesBuitrago2","gender":"0","school":"6","age":"10"},{"start_time":1551881871063,"click_time":1551881873218,"finger_time":1551881872618,"fix_duration":1323.982077648796,"trial":28,"RT":1555,"MT":600,"sideResp":1,"stimulus":[],"xmouse":[801,801,801,801,801,801,801,801,801,801,801,801,801,801,801,801,801,801,801,801,801,801,801,801,801,801,801,801,801,801,801,801,801,801,801,801,801,801,801,801,801,801,801,801,801,801,801,801,801,801,801,801,801,801,801,801,801,801,801,801,801,801,801,801,801,801,801,801,801,801,801,801,801,801,801,800,798,785,783,782,777,768,750,739,729,716,701,671,652,628,619,616,613,612,608,605,602,595,591,588,582,574,565,562,558,555,544,520],"ymouse":[629,629,629,629,629,629,629,629,629,629,629,629,629,629,629,629,629,629,629,629,629,629,629,629,629,629,629,629,629,629,629,629,629,629,629,629,629,629,629,629,629,629,629,629,629,629,629,629,629,629,629,629,629,629,629,629,629,629,629,629,629,629,629,629,629,629,629,629,629,629,629,629,629,629,629,623,618,572,532,463,425,394,355,341,328,314,301,282,273,258,248,236,207,190,171,152,134,110,100,94,84,73,59,54,47,43,36,28],"timestamp_mouse":[14,39,55,75,96,115,134,155,175,196,215,235,254,276,295,316,334,355,376,396,414,435,456,476,496,515,538,555,575,595,615,635,654,676,695,715,735,754,775,796,816,835,855,875,896,914,936,956,976,995,1016,1036,1054,1076,1095,1115,1135,1156,1175,1195,1215,1235,1256,1275,1294,1315,1336,1356,1374,1395,1416,1435,1455,1475,1494,1515,1535,1555,1575,1595,1615,1636,1655,1675,1695,1716,1734,1755,1775,1795,1816,1835,1855,1876,1896,1915,1934,1955,1974,1996,2016,2035,2055,2075,2096,2115,2134,2155],"xSR":741.5,"ySR":573.95,"xT1":424.9,"yT1":0,"xT2":1058.1,"yT2":0,"toosoon":0,"cond_shown":"Congruent","ratio_trial":100,"L_num":3,"L_den":6,"R_num":2,"R_den":5,"correct_side":1,"subjID":"DanielCortesBuitrago2","gender":"0","school":"6","age":"10"},{"start_time":1551881875808,"click_time":1551881877039,"finger_time":1551881876598,"fix_duration":1287.706543688265,"trial":29,"RT":790,"MT":441,"sideResp":1,"stimulus":[],"xmouse":[789,789,789,789,789,789,789,789,789,789,789,789,789,789,789,789,789,789,789,789,789,789,789,789,789,789,789,789,789,789,789,789,789,789,789,789,789,786,784,775,767,733,717,704,695,685,670,663,658,651,638,621,616,610,604,598,590,587,582,563,539,492],"ymouse":[614,614,614,614,614,614,614,614,614,614,614,614,614,614,614,614,614,614,614,614,614,614,614,614,614,614,614,614,614,614,614,614,614,614,614,614,615,608,594,565,543,487,459,433,406,371,282,228,174,115,23,0,0,0,0,0,0,0,0,0,0,6],"timestamp_mouse":[9,29,49,71,91,111,131,150,171,190,211,230,249,270,290,311,330,349,370,391,411,431,451,471,489,511,530,550,571,590,609,631,651,670,690,709,730,751,770,790,810,830,851,870,890,911,930,950,971,989,1011,1031,1049,1070,1090,1109,1131,1149,1170,1191,1210,1231],"xSR":741.5,"ySR":573.95,"xT1":424.9,"yT1":0,"xT2":1058.1,"yT2":0,"toosoon":0,"cond_shown":"Incongruent","ratio_trial":300,"L_num":8,"L_den":10,"R_num":9,"R_den":18,"correct_side":1,"subjID":"DanielCortesBuitrago2","gender":"0","school":"6","age":"10"},{"start_time":1551881878852,"click_time":1551881881998,"finger_time":1551881880658,"fix_duration":250,"trial":30,"RT":1806,"MT":1340,"sideResp":1,"stimulus":[],"xmouse":[819,819,819,819,819,819,819,819,819,819,819,819,819,819,819,819,819,819,819,819,819,819,819,819,819,819,819,819,819,819,819,819,819,819,819,819,819,819,819,819,819,819,819,819,819,819,819,819,819,819,819,819,819,819,819,819,819,819,819,819,819,819,819,819,819,819,820,820,820,820,820,820,820,820,819,818,818,818,818,818,818,818,818,818,818,818,818,817,816,805,794,779,761,734,671,636,615,598,585,564,557,548,541,535,530,526,526,530,546,627,695,766,836,901,985,1012,1017,1017,1017,1017,1015,1014,1014,1014,1014,1014,1014,1014,1012,1004,999,997,995,994,991,986,982,978,971,962,927,909,891,876,852,835,813,813,752,726,720,711,698,676,640,557,536,521],"ymouse":[632,632,632,632,632,632,632,632,632,632,632,632,632,632,632,632,632,632,632,632,632,632,632,632,632,632,632,632,632,632,632,632,632,632,632,632,632,632,632,632,632,632,632,632,632,632,632,632,632,632,632,632,632,632,632,632,632,632,632,632,632,632,632,632,632,632,631,628,627,623,619,616,612,610,605,603,603,603,603,603,603,603,603,603,603,603,603,603,602,588,573,555,532,500,416,358,323,292,264,224,209,192,178,163,152,134,129,125,121,107,99,88,81,71,56,41,28,15,4,0,0,0,0,0,0,0,0,10,26,48,55,57,58,58,58,59,59,60,64,73,93,100,105,107,107,104,98,98,71,59,56,54,52,51,51,53,56,58],"timestamp_mouse":[15,26,46,70,87,105,127,145,167,186,205,227,247,267,286,306,326,347,366,386,405,425,447,467,486,506,525,547,567,585,607,626,646,666,686,706,727,746,765,785,807,827,847,867,887,906,926,945,966,987,1006,1027,1045,1066,1086,1106,1126,1146,1166,1187,1207,1226,1246,1266,1287,1306,1326,1347,1365,1386,1406,1427,1447,1466,1486,1507,1527,1545,1567,1586,1607,1626,1645,1666,1686,1706,1727,1745,1766,1787,1806,1826,1847,1866,1886,1906,1926,1946,1966,1986,2006,2026,2046,2067,2087,2106,2126,2145,2167,2186,2206,2226,2247,2266,2287,2306,2327,2346,2366,2387,2406,2426,2446,2466,2486,2507,2525,2545,2566,2587,2606,2626,2646,2666,2686,2706,2726,2747,2766,2787,2806,2826,2846,2866,2887,2906,2926,2947,2966,2988,3006,3026,3046,3065,3088,3106,3126,3146],"xSR":741.5,"ySR":573.95,"xT1":424.9,"yT1":0,"xT2":1058.1,"yT2":0,"toosoon":0,"cond_shown":"Congruent","ratio_trial":100,"L_num":15,"L_den":25,"R_num":13,"R_den":26,"correct_side":1,"subjID":"DanielCortesBuitrago2","gender":"0","school":"6","age":"10"},{"start_time":1551881886684,"click_time":1551881887859,"finger_time":1551881887718,"fix_duration":384.1076648709346,"trial":31,"RT":1034,"MT":141,"sideResp":2,"stimulus":[],"xmouse":[791,791,791,791,791,791,791,791,791,791,791,791,791,791,791,791,791,791,791,791,791,791,791,791,791,791,791,791,791,791,791,791,791,791,791,791,791,791,791,791,791,791,791,791,791,791,791,792,802,814,819,845,875,952,996,1040,1075,1106,1138],"ymouse":[650,650,650,650,650,650,650,650,650,650,650,650,650,650,650,650,650,650,650,650,650,650,650,650,650,650,650,650,650,650,650,650,650,650,650,650,650,650,650,650,650,650,650,650,650,650,650,650,642,622,611,556,498,370,300,232,171,123,38],"timestamp_mouse":[14,36,54,75,94,115,134,155,173,194,215,235,255,275,294,314,334,354,374,394,413,435,453,475,494,513,535,554,575,595,615,634,655,675,695,714,735,754,773,794,815,835,855,874,894,919,934,955,973,993,1014,1034,1055,1074,1094,1114,1134,1154,1174],"xSR":741.5,"ySR":573.95,"xT1":424.9,"yT1":0,"xT2":1058.1,"yT2":0,"toosoon":0,"cond_shown":"Congruent","ratio_trial":300,"L_num":1,"L_den":30,"R_num":8,"R_den":24,"correct_side":2,"subjID":"DanielCortesBuitrago2","gender":"0","school":"6","age":"10"},{"start_time":1551881891424,"click_time":1551881894179,"finger_time":1551881893018,"fix_duration":1043.1986644827546,"trial":32,"RT":1594,"MT":1161,"sideResp":2,"stimulus":[],"xmouse":[787,783,780,775,773,773,773,772,772,772,772,772,772,772,772,772,772,772,772,772,772,772,772,773,774,775,777,777,778,779,779,779,782,782,783,783,783,785,785,785,786,786,786,786,786,786,786,786,786,786,786,786,786,786,786,786,786,786,786,786,786,786,786,786,786,786,786,786,786,786,786,786,786,786,786,786,784,775,769,761,746,740,700,683,668,655,631,620,603,588,578,569,568,572,575,578,581,584,585,585,585,585,585,585,585,585,585,585,585,586,598,613,654,671,676,677,681,712,734,757,782,790,810,816,819,821,822,823,823,823,823,825,845,869,901,948,992,1087],"ymouse":[635,638,640,655,662,665,667,668,668,668,668,668,668,668,668,668,668,668,668,668,668,668,668,668,667,666,663,663,661,660,660,660,656,655,655,654,653,651,650,648,648,648,648,648,648,648,648,648,648,648,648,648,648,648,648,648,648,648,648,648,648,648,648,648,648,648,648,648,648,648,648,648,645,641,637,632,623,600,586,570,551,544,509,492,476,456,408,380,342,297,254,180,102,68,42,20,4,0,0,0,0,0,0,0,0,0,0,0,0,0,0,0,0,0,0,0,0,0,0,0,0,0,0,0,0,0,0,0,0,0,0,0,0,0,0,0,14,54],"timestamp_mouse":[14,34,54,73,95,114,134,154,174,195,215,234,255,273,294,315,335,353,375,395,415,434,455,474,494,514,535,554,575,594,613,633,653,675,694,714,733,754,774,795,815,834,855,875,894,915,933,953,974,993,1013,1035,1054,1074,1094,1113,1135,1153,1175,1194,1214,1235,1254,1274,1294,1314,1335,1354,1375,1394,1413,1433,1454,1474,1494,1514,1534,1554,1574,1594,1614,1634,1655,1674,1694,1714,1735,1754,1775,1794,1815,1834,1855,1874,1894,1914,1934,1954,1974,1994,2015,2035,2054,2073,2095,2114,2134,2154,2174,2194,2214,2234,2255,2274,2294,2314,2333,2354,2373,2394,2414,2435,2455,2474,2493,2513,2533,2554,2575,2594,2614,2634,2655,2674,2693,2715,2735,2755],"xSR":741.5,"ySR":573.95,"xT1":424.9,"yT1":0,"xT2":1058.1,"yT2":0,"toosoon":0,"cond_shown":"Incongruent","ratio_trial":100,"L_num":6,"L_den":10,"R_num":13,"R_den":26,"correct_side":1,"subjID":"DanielCortesBuitrago2","gender":"0","school":"6","age":"10"},{"start_time":1551881897515,"click_time":1551881899018,"finger_time":1551881897798,"fix_duration":733.6629310337609,"trial":33,"RT":283,"MT":1220,"sideResp":1,"stimulus":[],"xmouse":[808,808,808,809,809,809,810,811,813,820,826,832,835,840,842,843,844,844,844,844,844,844,844,844,844,844,844,844,844,844,844,844,844,844,840,834,826,818,790,776,768,765,764,762,759,757,753,747,730,716,692,667,632,547,489,462,429,403,374,371,370,370,370,371,371,372,373,375,378,383,389,399,408,421,424,426],"ymouse":[627,627,628,628,628,628,628,628,629,631,633,634,636,638,639,640,641,643,645,645,645,645,645,645,645,645,645,645,645,645,645,645,645,646,647,647,649,650,651,651,651,651,651,651,650,646,642,630,587,545,486,412,323,109,0,0,0,0,0,0,0,0,0,0,2,3,3,4,5,7,7,10,13,18,20,21],"timestamp_mouse":[10,23,43,62,84,104,122,144,163,182,204,223,244,263,283,304,323,343,363,384,403,424,443,463,484,502,524,544,564,583,603,624,643,663,684,703,724,743,763,783,804,823,843,863,884,903,924,944,963,983,1003,1023,1042,1063,1084,1103,1124,1143,1165,1183,1203,1223,1243,1266,1283,1303,1323,1343,1364,1382,1403,1423,1444,1464,1482,1503],"xSR":741.5,"ySR":573.95,"xT1":424.9,"yT1":0,"xT2":1058.1,"yT2":0,"toosoon":0,"cond_shown":"Incongruent","ratio_trial":300,"L_num":8,"L_den":10,"R_num":14,"R_den":28,"correct_side":1,"subjID":"DanielCortesBuitrago2","gender":"0","school":"6","age":"10"},{"start_time":1551881901892,"click_time":1551881904698,"finger_time":1551881902897,"fix_duration":811.7432483852642,"trial":34,"RT":1005,"MT":1801,"sideResp":1,"stimulus":[],"xmouse":[803,803,803,803,803,803,803,803,803,803,803,803,803,803,803,803,803,803,803,803,803,803,803,803,803,803,803,803,803,803,803,803,803,803,803,803,803,803,803,803,803,803,803,803,803,803,803,807,816,830,859,867,873,889,903,931,949,966,977,984,987,987,987,987,986,986,986,986,986,986,986,986,983,975,957,909,883,861,844,824,783,760,737,697,674,636,619,601,584,570,558,555,554,552,552,552,552,559,578,615,711,747,773,802,818,840,842,841,828,798,699,660,635,623,620,621,649,730,845,974,1123,1137,1138,1138,1138,1095,1040,983,926,869,768,719,701,694,690,685,678,668,653,631,517],"ymouse":[654,654,654,654,654,654,654,654,654,654,654,654,654,654,654,654,654,655,655,655,655,655,655,655,655,655,655,655,655,655,655,655,655,655,655,655,655,655,655,655,655,655,655,655,655,655,655,654,644,626,586,560,530,483,453,403,375,346,320,295,262,255,251,249,249,249,249,249,249,249,249,249,249,249,253,266,274,277,278,278,277,271,263,250,240,221,211,199,189,180,173,173,173,172,172,172,172,173,178,187,202,209,211,211,211,211,210,208,204,199,185,179,176,175,175,175,173,173,165,155,134,132,131,131,131,131,131,131,131,131,131,131,130,128,127,122,115,103,89,77,43],"timestamp_mouse":[15,27,48,66,86,106,125,147,165,186,207,227,247,265,286,307,326,347,366,386,407,426,445,466,487,505,526,547,567,586,607,627,645,667,685,707,727,747,766,786,807,826,847,866,887,906,926,946,965,987,1005,1027,1045,1066,1086,1106,1127,1146,1166,1187,1206,1227,1246,1267,1286,1307,1326,1346,1365,1387,1407,1426,1446,1466,1487,1506,1526,1546,1567,1586,1606,1627,1646,1666,1685,1706,1726,1746,1766,1786,1805,1825,1846,1867,1887,1906,1926,1947,1966,1986,2006,2026,2046,2067,2086,2106,2127,2145,2166,2186,2207,2226,2246,2266,2287,2306,2327,2346,2365,2385,2405,2426,2445,2465,2485,2506,2525,2546,2567,2587,2606,2627,2646,2667,2687,2706,2726,2747,2766,2786,2806],"xSR":741.5,"ySR":573.95,"xT1":424.9,"yT1":0,"xT2":1058.1,"yT2":0,"toosoon":0,"cond_shown":"Congruent","ratio_trial":100,"L_num":6,"L_den":20,"R_num":5,"R_den":25,"correct_side":1,"subjID":"DanielCortesBuitrago2","gender":"0","school":"6","age":"10"},{"start_time":1551881906344,"click_time":1551881908600,"finger_time":1551881907818,"fix_duration":404.8175271565978,"trial":35,"RT":1474,"MT":782,"sideResp":1,"stimulus":[],"xmouse":[778,778,778,777,777,776,776,776,776,776,776,776,775,775,775,775,775,775,775,775,775,775,775,775,775,775,775,775,775,775,775,775,775,775,775,775,775,775,775,775,775,775,775,775,775,775,775,775,775,775,775,775,775,775,775,775,775,775,775,775,775,775,775,775,775,775,775,775,773,771,765,761,743,718,676,620,560,439,395,356,319,294,276,275,275,275,275,278,287,293,300,309,326,341,356,364,364,365,370,376,383,402,434,437,437,437,437,437,437,437,437,437,438],"ymouse":[643,643,643,644,644,644,644,644,644,644,644,644,644,644,644,644,644,644,644,644,644,644,644,644,644,644,644,644,644,644,644,644,644,644,644,644,644,644,644,644,644,644,644,644,644,644,644,644,644,644,644,644,644,644,644,644,644,644,644,644,644,644,644,644,644,644,644,644,643,636,625,616,579,541,490,432,380,250,194,139,90,52,16,8,6,4,2,0,0,0,0,0,0,0,0,0,0,0,0,0,0,0,0,0,0,0,0,0,0,0,0,0,1],"timestamp_mouse":[14,35,54,74,94,114,135,154,174,194,213,234,255,275,293,315,335,354,375,395,413,435,454,475,493,515,534,553,575,595,614,634,655,674,695,714,735,754,775,794,815,833,855,875,895,914,933,955,974,995,1014,1034,1053,1075,1095,1115,1135,1153,1173,1195,1215,1234,1254,1274,1294,1313,1334,1355,1375,1394,1414,1434,1454,1474,1494,1514,1534,1555,1574,1595,1615,1635,1654,1673,1695,1714,1734,1755,1774,1794,1814,1834,1857,1874,1894,1915,1934,1957,1974,1994,2013,2034,2056,2073,2094,2114,2133,2155,2174,2194,2214,2235,2255],"xSR":741.5,"ySR":573.95,"xT1":424.9,"yT1":0,"xT2":1058.1,"yT2":0,"toosoon":0,"cond_shown":"Congruent","ratio_trial":200,"L_num":20,"L_den":25,"R_num":9,"R_den":15,"correct_side":1,"subjID":"DanielCortesBuitrago2","gender":"0","school":"6","age":"10"},{"start_time":1551881911548,"click_time":1551881913257,"finger_time":1551881912816,"fix_duration":769.2050278501624,"trial":36,"RT":1268,"MT":441,"sideResp":2,"stimulus":[],"xmouse":[770,770,770,770,770,770,770,770,770,770,770,770,770,770,770,770,770,770,770,770,770,770,770,770,770,770,770,770,770,770,770,770,770,770,770,770,770,770,770,770,770,770,770,770,770,770,770,770,770,770,770,770,770,770,770,770,770,770,770,770,771,777,795,872,923,989,1022,1038,1047,1047,1047,1050,1052,1054,1056,1057,1058,1060,1065,1072,1081,1089,1096,1106,1110,1114],"ymouse":[651,651,651,651,651,651,651,651,651,651,651,651,651,651,651,651,651,651,651,651,651,651,651,651,651,651,651,651,651,651,651,651,651,651,651,651,651,651,651,651,651,651,651,651,651,651,651,651,651,651,651,651,651,651,651,651,651,651,651,651,651,648,635,565,513,427,380,345,298,275,258,247,241,235,227,224,220,216,202,190,176,161,147,121,111,97],"timestamp_mouse":[10,47,49,70,90,108,129,150,169,189,208,230,249,269,289,308,330,348,368,389,409,430,449,469,490,508,528,549,569,589,610,628,648,668,690,710,729,749,770,790,809,830,850,869,889,910,930,948,970,989,1009,1029,1049,1069,1089,1110,1129,1149,1169,1189,1209,1230,1250,1268,1288,1309,1329,1349,1368,1389,1409,1429,1449,1469,1488,1510,1530,1549,1569,1589,1609,1629,1649,1669,1690,1709],"xSR":741.5,"ySR":573.95,"xT1":424.9,"yT1":0,"xT2":1058.1,"yT2":0,"toosoon":0,"cond_shown":"Incongruent","ratio_trial":100,"L_num":12,"L_den":30,"R_num":2,"R_den":4,"correct_side":2,"subjID":"DanielCortesBuitrago2","gender":"0","school":"6","age":"10"},{"start_time":1551881915303,"click_time":1551881917019,"finger_time":1551881916617,"fix_duration":464.74806103179714,"trial":37,"RT":1314,"MT":402,"sideResp":1,"stimulus":[],"xmouse":[814,814,814,813,813,806,803,802,802,802,802,802,802,802,802,802,802,802,802,802,802,802,802,802,802,802,802,802,802,802,802,802,802,802,802,802,802,802,802,802,802,802,802,802,802,802,802,802,802,802,802,802,802,802,802,802,802,802,802,804,804,805,805,804,799,767,725,593,492,417,381,381,381,381,381,381,381,381,380,380,380,381,392,408,427,446],"ymouse":[580,581,581,584,586,600,604,605,605,605,605,605,605,605,605,605,605,605,605,605,605,605,605,605,605,605,605,605,605,605,605,605,605,605,605,605,605,605,605,605,605,605,605,605,605,605,605,605,605,605,605,605,606,606,606,606,606,606,606,605,602,596,595,594,592,558,498,326,188,60,0,0,0,0,0,0,0,0,0,0,0,0,0,0,0,1],"timestamp_mouse":[14,41,54,73,94,115,134,154,173,193,214,235,253,275,293,313,335,354,374,394,414,434,455,473,494,515,534,554,574,595,615,634,654,675,695,714,733,755,775,795,814,833,855,875,895,914,933,954,974,993,1013,1035,1055,1075,1093,1114,1134,1154,1173,1194,1214,1233,1255,1275,1295,1314,1333,1353,1374,1394,1417,1434,1453,1474,1495,1514,1535,1553,1574,1594,1615,1633,1654,1674,1693,1715],"xSR":741.5,"ySR":573.95,"xT1":424.9,"yT1":0,"xT2":1058.1,"yT2":0,"toosoon":0,"cond_shown":"Incongruent","ratio_trial":100,"L_num":9,"L_den":15,"R_num":14,"R_den":28,"correct_side":1,"subjID":"DanielCortesBuitrago2","gender":"0","school":"6","age":"10"},{"start_time":1551881919332,"click_time":1551881921257,"finger_time":1551881919977,"fix_duration":1092.8403967392783,"trial":38,"RT":645,"MT":1280,"sideResp":1,"stimulus":[],"xmouse":[788,788,788,788,788,788,788,788,788,788,788,788,788,788,788,788,788,788,788,788,788,788,788,788,788,788,788,788,788,788,790,808,856,874,932,982,992,995,998,998,998,994,989,982,981,980,979,979,979,980,988,991,994,995,995,995,995,995,995,995,994,989,983,976,970,966,966,966,966,966,966,964,960,928,868,637,510,404,343,326,322,322,322,321,321,322,326,330,339,346,359,370,384,398,403,418,426],"ymouse":[618,618,618,618,618,618,618,618,618,618,618,618,618,618,618,618,618,618,618,618,618,618,618,618,618,618,618,618,618,618,616,602,562,543,471,372,331,301,279,259,254,249,245,241,240,240,240,240,236,229,212,208,204,203,203,203,203,203,203,203,208,220,233,244,254,260,260,260,260,260,260,260,260,252,236,179,161,145,132,126,121,120,120,119,116,101,92,85,75,70,65,64,62,62,62,65,67],"timestamp_mouse":[9,25,50,66,86,105,126,145,165,185,205,226,245,264,284,304,325,345,366,386,405,425,445,465,484,504,524,546,566,586,605,626,645,664,685,705,725,745,765,786,805,824,845,865,885,904,926,945,965,985,1004,1026,1045,1065,1085,1105,1125,1145,1165,1186,1205,1226,1246,1265,1286,1305,1325,1344,1364,1386,1404,1424,1444,1466,1485,1504,1524,1544,1565,1585,1604,1625,1645,1665,1685,1704,1725,1745,1766,1786,1804,1826,1845,1865,1884,1904,1925],"xSR":741.5,"ySR":573.95,"xT1":424.9,"yT1":0,"xT2":1058.1,"yT2":0,"toosoon":0,"cond_shown":"Incongruent","ratio_trial":200,"L_num":7,"L_den":15,"R_num":4,"R_den":6,"correct_side":2,"subjID":"DanielCortesBuitrago2","gender":"0","school":"6","age":"10"},{"start_time":1551881923979,"click_time":1551881924856,"finger_time":1551881924557,"fix_duration":1320.5670262935284,"trial":39,"RT":578,"MT":299,"sideResp":1,"stimulus":[],"xmouse":[835,835,835,835,835,835,835,835,833,829,826,824,820,818,818,818,818,818,818,818,818,818,818,818,816,810,803,795,765,748,735,726,711,704,700,694,680,634,594,568,546,529,505,492],"ymouse":[577,577,577,577,577,577,577,577,577,577,579,580,584,585,585,585,585,585,585,585,585,585,585,585,585,583,581,579,569,563,557,550,523,503,478,447,401,291,217,181,152,134,103,85],"timestamp_mouse":[19,38,59,78,99,119,137,158,178,198,218,237,258,278,299,318,337,358,378,398,419,437,459,478,498,517,539,558,578,598,618,639,658,678,698,718,737,758,777,798,818,838,858,877],"xSR":741.5,"ySR":573.95,"xT1":424.9,"yT1":0,"xT2":1058.1,"yT2":0,"toosoon":0,"cond_shown":"Incongruent","ratio_trial":300,"L_num":8,"L_den":10,"R_num":14,"R_den":28,"correct_side":1,"subjID":"DanielCortesBuitrago2","gender":"0","school":"6","age":"10"},{"start_time":1551881926148,"click_time":1551881927497,"finger_time":1551881926897,"fix_duration":250,"trial":40,"RT":749,"MT":600,"sideResp":2,"stimulus":[],"xmouse":[818,818,818,818,818,818,818,818,818,818,818,818,818,818,818,818,818,816,815,808,803,802,800,800,800,800,800,800,800,800,800,800,803,807,819,827,832,838,840,838,782,747,707,671,661,662,662,663,669,711,755,779,802,826,863,878,890,903,916,970,988,1003,1016,1026,1044,1052,1058,1064],"ymouse":[652,652,652,652,652,652,652,652,652,652,652,652,652,652,652,652,652,652,652,652,652,651,650,650,650,650,650,650,650,650,650,649,644,639,615,597,575,547,511,466,357,319,277,241,225,219,219,219,219,219,215,212,207,202,180,171,164,157,149,119,108,97,87,77,61,58,56,55],"timestamp_mouse":[13,40,49,70,90,108,130,149,170,189,208,230,250,270,288,308,330,349,369,389,408,428,450,468,489,508,530,549,569,590,609,629,650,669,690,708,730,749,770,789,809,829,849,868,890,910,929,950,969,989,1009,1028,1048,1069,1090,1108,1129,1149,1168,1190,1209,1229,1248,1268,1290,1308,1329,1349],"xSR":741.5,"ySR":573.95,"xT1":424.9,"yT1":0,"xT2":1058.1,"yT2":0,"toosoon":0,"cond_shown":"Incongruent","ratio_trial":100,"L_num":12,"L_den":30,"R_num":2,"R_den":4,"correct_side":2,"subjID":"DanielCortesBuitrago2","gender":"0","school":"6","age":"10"},{"start_time":1551881930829,"click_time":1551881932717,"finger_time":1551881932316,"fix_duration":431.71139727285225,"trial":41,"RT":1487,"MT":401,"sideResp":1,"stimulus":[],"xmouse":[797,796,795,795,794,793,792,792,792,792,792,792,792,792,792,792,792,792,792,792,792,792,792,792,792,791,791,791,791,791,791,791,791,791,791,791,791,791,791,791,791,791,791,791,790,788,786,786,785,785,785,785,785,785,785,785,785,785,785,785,785,785,785,785,785,785,785,785,785,785,785,781,775,760,717,670,566,515,467,417,384,359,354,350,346,344,344,344,346,349,364,397,403,415,434],"ymouse":[646,646,646,646,645,645,645,645,645,645,645,645,645,645,645,645,645,645,645,645,645,645,645,645,645,645,645,645,645,645,645,645,645,645,645,645,645,645,645,645,645,645,645,645,645,644,644,644,643,643,643,643,643,643,643,643,643,643,643,643,643,643,643,643,643,643,643,643,643,643,643,643,638,623,573,517,391,327,257,191,137,80,47,34,5,0,0,0,0,0,0,0,1,3,6],"timestamp_mouse":[14,27,58,68,88,108,128,149,169,189,207,229,249,268,289,308,328,347,367,388,408,428,449,467,489,508,528,547,569,588,609,629,648,668,689,709,728,748,768,7