[{"start_time":1551789974378,"click_time":1551789977344,"finger_time":1551789974386,"fix_duration":250,"trial":0,"RT":8,"MT":2958,"sideResp":1,"stimulus":[],"xmouse":[201,201,201,201,201,201,201,201,201,201,201,201,201,201,201,201,201,201,201,201,201,201,201,201,201,201,201,201,201,201,201,201,201,201,199,199,199,199,199,199,199,199,199,199,199,199,199,199,199,199,199,199,199,199,199,199,199,215,242,271,295,407,481,538,568,582,592,600,605,612,619,657,686,710,721,722,722,723,726,727,728,729,729,730,735,747,765,772,777,781,785,788,788,788,788,788,788,788,788,788,788,788,788,788,788,788,788,788,788,788,788,788,788,788,788,788,788,788,788,788,788,788,788,788,783,773,688,615,587,573,565,558,553,546,540,534,532,530,528,526,525,521,521,519,516,511,502,500,500],"ymouse":[577,577,577,577,577,577,577,577,577,577,577,577,577,577,577,577,577,577,577,577,577,577,577,577,577,577,577,577,577,577,577,577,577,577,577,577,577,577,577,577,577,577,577,577,577,577,577,577,577,577,577,577,577,577,577,577,577,575,572,566,561,542,532,526,522,520,519,518,517,516,516,506,500,500,500,500,500,500,500,500,501,503,505,505,507,510,512,514,514,516,517,519,519,519,519,519,519,519,519,519,519,519,519,519,519,519,519,519,519,519,519,519,519,519,519,519,519,519,519,519,519,519,519,519,517,510,443,378,345,321,297,258,238,218,200,186,171,161,155,149,145,141,139,137,132,128,111,102,94],"timestamp_mouse":[8,24,43,65,84,104,125,144,164,184,205,225,244,265,284,304,324,344,364,384,405,423,444,464,485,505,525,544,564,584,605,625,645,664,684,704,724,743,764,785,804,824,844,863,884,904,924,944,964,984,1005,1023,1045,1064,1085,1104,1124,1144,1164,1185,1205,1224,1244,1264,1284,1305,1324,1343,1364,1383,1405,1423,1445,1465,1485,1505,1525,1544,1565,1585,1604,1624,1644,1665,1684,1704,1725,1743,1764,1783,1805,1824,1845,1865,1884,1904,1924,1943,1964,1985,2005,2024,2045,2064,2084,2105,2124,2145,2164,2183,2204,2224,2244,2264,2284,2304,2324,2344,2365,2385,2405,2425,2444,2465,2484,2505,2524,2544,2564,2584,2604,2624,2645,2663,2685,2705,2723,2744,2764,2783,2804,2824,2844,2865,2885,2905,2924,2945,2965],"xSR":741.5,"ySR":490.1,"xT1":424.9,"yT1":0,"xT2":1058.1,"yT2":0,"toosoon":0,"cond_shown":"Incongruent","ratio_trial":200,"L_num":7,"L_den":10,"R_num":14,"R_den":28,"correct_side":1,"subjID":"DavidBrragan6","gender":"0","age":"11","school":"6","test":{"fix_dur":[250,1500],"timestim":1000,"targets_dim":[100,100],"targets_relative_coord":[0.3,0.7],"size_stim":[880,420],"start_dim":[100,100],"size_start":[300,300],"size_fix":60,"samplingrate":20,"img_types":["Congruent","Incongruent"],"ratios":[100,200,300],"rep_conds":19,"nTrials":120,"trials_to_rest":500,"Trials_order":[21,106,87,17,88,4,76,30,85,115,54,45,18,9,73,63,119,110,44,80,41,69,70,50,28,22,59,51,43,49,89,36,72,38,111,82,116,42,2,68,10,97,46,75,60,27,5,1,81,118,47,96,113,7,67,3,24,33,23,11,8,91,48,40,62,84,90,34,19,79,55,37,61,0,56,108,65,109,94,107,95,64,16,20,35,13,57,93,39,31,6,103,52,102,83,117,15,104,29,74,100,26,92,12,66,105,14,53,78,71,114,25,101,58,98,99,86,77,32,112],"cond_shown":["Incongruent","Congruent","Incongruent","Incongruent","Congruent","Congruent","Congruent","Congruent","Incongruent","Incongruent","Congruent","Incongruent","Congruent","Incongruent","Incongruent","Incongruent","Incongruent","Congruent","Congruent","Congruent","Incongruent","Incongruent","Congruent","Congruent","Congruent","Congruent","Incongruent","Incongruent","Incongruent","Incongruent","Incongruent","Congruent","Congruent","Congruent","Incongruent","Congruent","Congruent","Congruent","Congruent","Congruent","Congruent","Incongruent","Congruent","Incongruent","Congruent","Incongruent","Incongruent","Incongruent","Incongruent","Congruent","Incongruent","Congruent","Incongruent","Incongruent","Incongruent","Incongruent","Congruent","Incongruent","Incongruent","Incongruent","Congruent","Incongruent","Congruent","Congruent","Congruent","Congruent","Congruent","Congruent","Incongruent","Incongruent","Incongruent","Incongruent","Incongruent","Congruent","Congruent","Congruent","Incongruent","Incongruent","Congruent","Incongruent","Incongruent","Congruent","Congruent","Congruent","Incongruent","Incongruent","Incongruent","Incongruent","Incongruent","Incongruent","Congruent","Incongruent","Congruent","Congruent","Incongruent","Incongruent","Incongruent","Congruent","Incongruent","Congruent","Congruent","Congruent","Congruent","Congruent","Congruent","Incongruent","Congruent","Incongruent","Congruent","Incongruent","Congruent","Incongruent","Incongruent","Congruent","Congruent","Incongruent","Congruent","Incongruent","Congruent","Congruent"],"ratio_trial":[200,300,200,300,300,300,300,100,100,100,100,200,100,200,100,200,300,200,200,200,300,200,300,200,300,300,300,200,100,100,300,100,100,200,200,300,200,100,200,200,300,100,300,200,100,200,300,100,200,300,300,100,300,100,100,200,100,200,300,300,200,100,100,300,200,100,100,300,100,100,100,100,100,100,200,100,300,100,300,300,300,300,300,200,300,100,200,200,200,100,100,100,300,100,300,200,200,200,300,200,300,200,200,100,100,200,200,300,100,300,100,100,300,300,200,200,200,300,200,300],"left_num":[7,20,1,4,20,11,8,8,9,3,4,7,2,6,13,3,13,6,6,9,13,7,18,14,7,24,4,6,1,4,4,4,12,3,6,2,21,2,8,14,1,9,3,7,6,11,2,17,1,12,13,6,7,3,8,4,8,1,13,13,9,4,9,1,12,6,3,5,4,2,6,13,3,8,8,12,4,3,3,7,13,5,5,11,4,10,7,4,7,9,11,2,8,1,13,4,1,16,4,15,20,4,9,4,11,3,16,4,3,4,6,8,1,20,16,7,4,8,3,1],"right_num":[14,14,3,2,9,2,10,2,6,8,15,8,6,3,12,11,12,11,3,13,12,14,9,6,20,8,2,3,8,8,8,6,13,14,3,10,2,6,7,6,8,13,2,8,5,3,6,10,3,2,12,15,8,8,6,1,2,3,12,12,13,8,8,6,6,15,4,6,8,6,7,12,4,2,3,13,8,4,2,8,12,6,7,3,2,9,8,14,14,13,6,8,10,3,12,6,3,9,8,4,5,3,13,15,4,11,12,8,2,2,5,6,2,9,12,4,3,9,7,11],"left_den":[10,25,2,20,25,22,15,16,18,5,10,10,5,20,26,4,26,20,15,30,26,10,20,28,14,30,20,20,2,8,5,8,30,10,20,20,30,5,15,28,30,15,6,10,20,20,4,30,2,24,26,12,10,5,16,30,16,2,26,26,30,8,15,5,15,12,20,25,8,4,10,26,6,16,15,30,5,6,6,10,26,25,25,22,20,25,10,6,10,15,22,4,15,2,26,5,2,30,5,25,25,8,30,10,22,4,20,5,6,20,20,16,2,25,20,15,10,10,10,5],"right_den":[28,28,10,4,18,10,12,5,10,16,30,16,12,6,20,20,15,22,15,26,15,28,15,20,25,16,4,6,20,20,16,10,26,28,6,25,4,12,21,20,24,26,10,16,25,4,30,15,10,10,15,25,20,16,10,3,5,10,15,15,26,20,16,12,10,25,16,12,20,15,14,20,10,5,9,26,16,10,10,20,15,12,14,10,4,18,16,30,28,26,15,20,12,5,15,10,10,27,16,10,10,10,26,30,10,20,20,16,5,4,25,10,10,18,20,6,15,18,14,22],"correct_side":[1,1,1,2,1,1,2,1,2,1,2,1,2,2,2,1,2,2,1,2,2,1,1,1,2,1,2,2,1,1,1,2,2,2,2,2,1,2,1,1,2,1,1,1,1,2,1,2,1,1,2,2,1,1,2,2,1,1,2,2,2,1,1,2,1,2,2,2,1,1,1,2,1,1,1,2,1,1,1,1,2,2,2,1,2,2,1,1,1,1,1,1,2,2,2,1,1,1,1,1,1,1,2,2,1,1,1,1,1,2,1,2,1,1,1,2,1,1,2,2],"img_shown":["img2/200/Incongruent/L/I_Dist_200_LN_7_LD_10_RN_14_RD_28_0.png","img2/300/Congruent/L/C_Dist_300_LN_20_LD_25_RN_14_RD_28_0.png","img2/200/Incongruent/L/I_Dist_200_LN_1_LD_2_RN_3_RD_10_0.png","img2/300/Incongruent/R/I_Dist_300_LN_4_LD_20_RN_2_RD_4_1.png","img2/300/Congruent/L/C_Dist_300_LN_20_LD_25_RN_9_RD_18_0.png","img2/300/Congruent/L/C_Dist_300_LN_11_LD_22_RN_2_RD_10_0.png","img2/300/Congruent/R/C_Dist_300_LN_8_LD_15_RN_10_RD_12_1.png","img2/100/Congruent/L/C_Dist_100_LN_8_LD_16_RN_2_RD_5_0.png","img2/100/Incongruent/R/I_Dist_100_LN_9_LD_18_RN_6_RD_10_1.png","img2/100/Incongruent/L/I_Dist_100_LN_3_LD_5_RN_8_RD_16_0.png","img2/100/Congruent/R/C_Dist_100_LN_4_LD_10_RN_15_RD_30_1.png","img2/200/Incongruent/L/I_Dist_200_LN_7_LD_10_RN_8_RD_16_0.png","img2/100/Congruent/R/C_Dist_100_LN_2_LD_5_RN_6_RD_12_1.png","img2/200/Incongruent/R/I_Dist_200_LN_6_LD_20_RN_3_RD_6_1.png","img2/100/Incongruent/R/I_Dist_100_LN_13_LD_26_RN_12_RD_20_1.png","img2/200/Incongruent/L/I_Dist_200_LN_3_LD_4_RN_11_RD_20_0.png","img2/300/Incongruent/R/I_Dist_300_LN_13_LD_26_RN_12_RD_15_1.png","img2/200/Congruent/R/C_Dist_200_LN_6_LD_20_RN_11_RD_22_1.png","img2/200/Congruent/L/C_Dist_200_LN_6_LD_15_RN_3_RD_15_0.png","img2/200/Congruent/R/C_Dist_200_LN_9_LD_30_RN_13_RD_26_1.png","img2/300/Incongruent/R/I_Dist_300_LN_13_LD_26_RN_12_RD_15_1.png","img2/200/Incongruent/L/I_Dist_200_LN_7_LD_10_RN_14_RD_28_0.png","img2/300/Congruent/L/C_Dist_300_LN_18_LD_20_RN_9_RD_15_0.png","img2/200/Congruent/L/C_Dist_200_LN_14_LD_28_RN_6_RD_20_0.png","img2/300/Congruent/R/C_Dist_300_LN_7_LD_14_RN_20_RD_25_1.png","img2/300/Congruent/L/C_Dist_300_LN_24_LD_30_RN_8_RD_16_0.png","img2/300/Incongruent/R/I_Dist_300_LN_4_LD_20_RN_2_RD_4_1.png","img2/200/Incongruent/R/I_Dist_200_LN_6_LD_20_RN_3_RD_6_1.png","img2/100/Incongruent/L/I_Dist_100_LN_1_LD_2_RN_8_RD_20_0.png","img2/100/Incongruent/L/I_Dist_100_LN_4_LD_8_RN_8_RD_20_0.png","img2/300/Incongruent/L/I_Dist_300_LN_4_LD_5_RN_8_RD_16_0.png","img2/100/Congruent/R/C_Dist_100_LN_4_LD_8_RN_6_RD_10_1.png","img2/100/Congruent/R/C_Dist_100_LN_12_LD_30_RN_13_RD_26_1.png","img2/200/Congruent/R/C_Dist_200_LN_3_LD_10_RN_14_RD_28_1.png","img2/200/Incongruent/R/I_Dist_200_LN_6_LD_20_RN_3_RD_6_1.png","img2/300/Congruent/R/C_Dist_300_LN_2_LD_20_RN_10_RD_25_1.png","img2/200/Congruent/L/C_Dist_200_LN_21_LD_30_RN_2_RD_4_0.png","img2/100/Congruent/R/C_Dist_100_LN_2_LD_5_RN_6_RD_12_1.png","img2/200/Congruent/L/C_Dist_200_LN_8_LD_15_RN_7_RD_21_0.png","img2/200/Congruent/L/C_Dist_200_LN_14_LD_28_RN_6_RD_20_0.png","img2/300/Congruent/R/C_Dist_300_LN_1_LD_30_RN_8_RD_24_1.png","img2/100/Incongruent/L/I_Dist_100_LN_9_LD_15_RN_13_RD_26_0.png","img2/300/Congruent/L/C_Dist_300_LN_3_LD_6_RN_2_RD_10_0.png","img2/200/Incongruent/L/I_Dist_200_LN_7_LD_10_RN_8_RD_16_0.png","img2/100/Congruent/L/C_Dist_100_LN_6_LD_20_RN_5_RD_25_0.png","img2/200/Incongruent/R/I_Dist_200_LN_11_LD_20_RN_3_RD_4_1.png","img2/300/Incongruent/L/I_Dist_300_LN_2_LD_4_RN_6_RD_30_0.png","img2/100/Incongruent/R/I_Dist_100_LN_17_LD_30_RN_10_RD_15_1.png","img2/200/Incongruent/L/I_Dist_200_LN_1_LD_2_RN_3_RD_10_0.png","img2/300/Congruent/L/C_Dist_300_LN_12_LD_24_RN_2_RD_10_0.png","img2/300/Incongruent/R/I_Dist_300_LN_13_LD_26_RN_12_RD_15_1.png","img2/100/Congruent/R/C_Dist_100_LN_6_LD_12_RN_15_RD_25_1.png","img2/300/Incongruent/L/I_Dist_300_LN_7_LD_10_RN_8_RD_20_0.png","img2/100/Incongruent/L/I_Dist_100_LN_3_LD_5_RN_8_RD_16_0.png","img2/100/Incongruent/R/I_Dist_100_LN_8_LD_16_RN_6_RD_10_1.png","img2/200/Incongruent/R/I_Dist_200_LN_4_LD_30_RN_1_RD_3_1.png","img2/100/Congruent/L/C_Dist_100_LN_8_LD_16_RN_2_RD_5_0.png","img2/200/Incongruent/L/I_Dist_200_LN_1_LD_2_RN_3_RD_10_0.png","img2/300/Incongruent/R/I_Dist_300_LN_13_LD_26_RN_12_RD_15_1.png","img2/300/Incongruent/R/I_Dist_300_LN_13_LD_26_RN_12_RD_15_1.png","img2/200/Congruent/R/C_Dist_200_LN_9_LD_30_RN_13_RD_26_1.png","img2/100/Incongruent/L/I_Dist_100_LN_4_LD_8_RN_8_RD_20_0.png","img2/100/Congruent/L/C_Dist_100_LN_9_LD_15_RN_8_RD_16_0.png","img2/300/Congruent/R/C_Dist_300_LN_1_LD_5_RN_6_RD_12_1.png","img2/200/Congruent/L/C_Dist_200_LN_12_LD_15_RN_6_RD_10_0.png","img2/100/Congruent/R/C_Dist_100_LN_6_LD_12_RN_15_RD_25_1.png","img2/100/Congruent/R/C_Dist_100_LN_3_LD_20_RN_4_RD_16_1.png","img2/300/Congruent/R/C_Dist_300_LN_5_LD_25_RN_6_RD_12_1.png","img2/100/Incongruent/L/I_Dist_100_LN_4_LD_8_RN_8_RD_20_0.png","img2/100/Incongruent/L/I_Dist_100_LN_2_LD_4_RN_6_RD_15_0.png","img2/100/Incongruent/L/I_Dist_100_LN_6_LD_10_RN_7_RD_14_0.png","img2/100/Incongruent/R/I_Dist_100_LN_13_LD_26_RN_12_RD_20_1.png","img2/100/Incongruent/L/I_Dist_100_LN_3_LD_6_RN_4_RD_10_0.png","img2/100/Congruent/L/C_Dist_100_LN_8_LD_16_RN_2_RD_5_0.png","img2/200/Congruent/L/C_Dist_200_LN_8_LD_15_RN_3_RD_9_0.png","img2/100/Congruent/R/C_Dist_100_LN_12_LD_30_RN_13_RD_26_1.png","img2/300/Incongruent/L/I_Dist_300_LN_4_LD_5_RN_8_RD_16_0.png","img2/100/Incongruent/L/I_Dist_100_LN_3_LD_6_RN_4_RD_10_0.png","img2/300/Congruent/L/C_Dist_300_LN_3_LD_6_RN_2_RD_10_0.png","img2/300/Incongruent/L/I_Dist_300_LN_7_LD_10_RN_8_RD_20_0.png","img2/300/Incongruent/R/I_Dist_300_LN_13_LD_26_RN_12_RD_15_1.png","img2/300/Congruent/R/C_Dist_300_LN_5_LD_25_RN_6_RD_12_1.png","img2/300/Congruent/R/C_Dist_300_LN_5_LD_25_RN_7_RD_14_1.png","img2/200/Congruent/L/C_Dist_200_LN_11_LD_22_RN_3_RD_10_0.png","img2/300/Incongruent/R/I_Dist_300_LN_4_LD_20_RN_2_RD_4_1.png","img2/100/Incongruent/R/I_Dist_100_LN_10_LD_25_RN_9_RD_18_1.png","img2/200/Incongruent/L/I_Dist_200_LN_7_LD_10_RN_8_RD_16_0.png","img2/200/Incongruent/L/I_Dist_200_LN_4_LD_6_RN_14_RD_30_0.png","img2/200/Incongruent/L/I_Dist_200_LN_7_LD_10_RN_14_RD_28_0.png","img2/100/Incongruent/L/I_Dist_100_LN_9_LD_15_RN_13_RD_26_0.png","img2/100/Congruent/L/C_Dist_100_LN_11_LD_22_RN_6_RD_15_0.png","img2/100/Incongruent/L/I_Dist_100_LN_2_LD_4_RN_8_RD_20_0.png","img2/300/Congruent/R/C_Dist_300_LN_8_LD_15_RN_10_RD_12_1.png","img2/100/Congruent/R/C_Dist_100_LN_1_LD_2_RN_3_RD_5_1.png","img2/300/Incongruent/R/I_Dist_300_LN_13_LD_26_RN_12_RD_15_1.png","img2/200/Incongruent/L/I_Dist_200_LN_4_LD_5_RN_6_RD_10_0.png","img2/200/Incongruent/L/I_Dist_200_LN_1_LD_2_RN_3_RD_10_0.png","img2/200/Congruent/L/C_Dist_200_LN_16_LD_30_RN_9_RD_27_0.png","img2/300/Incongruent/L/I_Dist_300_LN_4_LD_5_RN_8_RD_16_0.png","img2/200/Congruent/L/C_Dist_200_LN_15_LD_25_RN_4_RD_10_0.png","img2/300/Congruent/L/C_Dist_300_LN_20_LD_25_RN_5_RD_10_0.png","img2/200/Congruent/L/C_Dist_200_LN_4_LD_8_RN_3_RD_10_0.png","img2/200/Congruent/R/C_Dist_200_LN_9_LD_30_RN_13_RD_26_1.png","img2/100/Congruent/R/C_Dist_100_LN_4_LD_10_RN_15_RD_30_1.png","img2/100/Congruent/L/C_Dist_100_LN_11_LD_22_RN_4_RD_10_0.png","img2/200/Incongruent/L/I_Dist_200_LN_3_LD_4_RN_11_RD_20_0.png","img2/200/Congruent/L/C_Dist_200_LN_16_LD_20_RN_12_RD_20_0.png","img2/300/Incongruent/L/I_Dist_300_LN_4_LD_5_RN_8_RD_16_0.png","img2/100/Congruent/L/C_Dist_100_LN_3_LD_6_RN_2_RD_5_0.png","img2/300/Incongruent/R/I_Dist_300_LN_4_LD_20_RN_2_RD_4_1.png","img2/100/Congruent/L/C_Dist_100_LN_6_LD_20_RN_5_RD_25_0.png","img2/100/Incongruent/R/I_Dist_100_LN_8_LD_16_RN_6_RD_10_1.png","img2/300/Incongruent/L/I_Dist_300_LN_1_LD_2_RN_2_RD_10_0.png","img2/300/Congruent/L/C_Dist_300_LN_20_LD_25_RN_9_RD_18_0.png","img2/200/Congruent/L/C_Dist_200_LN_16_LD_20_RN_12_RD_20_0.png","img2/200/Incongruent/R/I_Dist_200_LN_7_LD_15_RN_4_RD_6_1.png","img2/200/Congruent/L/C_Dist_200_LN_4_LD_10_RN_3_RD_15_0.png","img2/300/Incongruent/L/I_Dist_300_LN_8_LD_10_RN_9_RD_18_0.png","img2/200/Congruent/R/C_Dist_200_LN_3_LD_10_RN_7_RD_14_1.png","img2/300/Congruent/R/C_Dist_300_LN_1_LD_5_RN_11_RD_22_1.png"],"dist100_C":[["C_Dist_100_LN_10_LD_25_RN_3_RD_10_0.png","C_Dist_100_LN_11_LD_22_RN_4_RD_10_0.png","C_Dist_100_LN_11_LD_22_RN_6_RD_15_0.png","C_Dist_100_LN_15_LD_25_RN_13_RD_26_0.png","C_Dist_100_LN_3_LD_6_RN_2_RD_5_0.png","C_Dist_100_LN_6_LD_20_RN_5_RD_25_0.png","C_Dist_100_LN_8_LD_16_RN_2_RD_5_0.png","C_Dist_100_LN_9_LD_15_RN_8_RD_16_0.png"],["C_Dist_100_LN_1_LD_2_RN_18_RD_30_1.png","C_Dist_100_LN_1_LD_2_RN_3_RD_5_1.png","C_Dist_100_LN_12_LD_30_RN_13_RD_26_1.png","C_Dist_100_LN_2_LD_5_RN_11_RD_22_1.png","C_Dist_100_LN_2_LD_5_RN_6_RD_12_1.png","C_Dist_100_LN_3_LD_20_RN_4_RD_16_1.png","C_Dist_100_LN_4_LD_10_RN_15_RD_30_1.png","C_Dist_100_LN_4_LD_8_RN_6_RD_10_1.png","C_Dist_100_LN_6_LD_12_RN_15_RD_25_1.png","C_Dist_100_LN_7_LD_14_RN_15_RD_25_1.png","C_Dist_100_LN_7_LD_14_RN_9_RD_15_1.png"]],"dist100_I":[["I_Dist_100_LN_1_LD_2_RN_8_RD_20_0.png","I_Dist_100_LN_2_LD_4_RN_6_RD_15_0.png","I_Dist_100_LN_2_LD_4_RN_8_RD_20_0.png","I_Dist_100_LN_3_LD_5_RN_11_RD_22_0.png","I_Dist_100_LN_3_LD_5_RN_8_RD_16_0.png","I_Dist_100_LN_3_LD_6_RN_4_RD_10_0.png","I_Dist_100_LN_3_LD_9_RN_7_RD_30_0.png","I_Dist_100_LN_4_LD_8_RN_8_RD_20_0.png","I_Dist_100_LN_6_LD_10_RN_11_RD_22_0.png","I_Dist_100_LN_6_LD_10_RN_13_RD_26_0.png","I_Dist_100_LN_6_LD_10_RN_7_RD_14_0.png","I_Dist_100_LN_9_LD_10_RN_20_RD_25_0.png","I_Dist_100_LN_9_LD_15_RN_13_RD_26_0.png","I_Dist_100_LN_9_LD_15_RN_14_RD_28_0.png"],["I_Dist_100_LN_10_LD_25_RN_8_RD_16_1.png","I_Dist_100_LN_10_LD_25_RN_9_RD_18_1.png","I_Dist_100_LN_11_LD_22_RN_9_RD_15_1.png","I_Dist_100_LN_12_LD_24_RN_9_RD_15_1.png","I_Dist_100_LN_12_LD_30_RN_2_RD_4_1.png","I_Dist_100_LN_13_LD_26_RN_12_RD_20_1.png","I_Dist_100_LN_13_LD_26_RN_6_RD_10_1.png","I_Dist_100_LN_17_LD_30_RN_10_RD_15_1.png","I_Dist_100_LN_6_LD_12_RN_3_RD_5_1.png","I_Dist_100_LN_8_LD_16_RN_6_RD_10_1.png","I_Dist_100_LN_8_LD_20_RN_1_RD_2_1.png","I_Dist_100_LN_9_LD_18_RN_6_RD_10_1.png"]],"dist100_S":[["E_Dist_100_LN_2_LD_12_RN_2_RD_30_0.png","E_Dist_100_LN_6_LD_10_RN_6_RD_12_0.png"],["E_Dist_100_LN_6_LD_12_RN_6_RD_10_1.png"]],"dist200_C":[["C_Dist_200_LN_11_LD_22_RN_3_RD_10_0.png","C_Dist_200_LN_12_LD_15_RN_6_RD_10_0.png","C_Dist_200_LN_12_LD_20_RN_6_RD_15_0.png","C_Dist_200_LN_14_LD_28_RN_6_RD_20_0.png","C_Dist_200_LN_15_LD_25_RN_4_RD_10_0.png","C_Dist_200_LN_16_LD_20_RN_12_RD_20_0.png","C_Dist_200_LN_16_LD_30_RN_9_RD_27_0.png","C_Dist_200_LN_20_LD_25_RN_9_RD_15_0.png","C_Dist_200_LN_21_LD_30_RN_2_RD_4_0.png","C_Dist_200_LN_4_LD_10_RN_3_RD_15_0.png","C_Dist_200_LN_4_LD_8_RN_3_RD_10_0.png","C_Dist_200_LN_6_LD_15_RN_3_RD_15_0.png","C_Dist_200_LN_7_LD_21_RN_2_RD_15_0.png","C_Dist_200_LN_8_LD_15_RN_2_RD_6_0.png","C_Dist_200_LN_8_LD_15_RN_3_RD_9_0.png","C_Dist_200_LN_8_LD_15_RN_7_RD_21_0.png","C_Dist_200_LN_9_LD_20_RN_4_RD_16_0.png"],["C_Dist_200_LN_1_LD_2_RN_21_RD_30_1.png","C_Dist_200_LN_13_LD_26_RN_14_RD_20_1.png","C_Dist_200_LN_3_LD_10_RN_11_RD_22_1.png","C_Dist_200_LN_3_LD_10_RN_14_RD_28_1.png","C_Dist_200_LN_3_LD_10_RN_7_RD_14_1.png","C_Dist_200_LN_3_LD_12_RN_9_RD_20_1.png","C_Dist_200_LN_3_LD_6_RN_14_RD_20_1.png","C_Dist_200_LN_5_LD_10_RN_14_RD_20_1.png","C_Dist_200_LN_6_LD_12_RN_7_RD_10_1.png","C_Dist_200_LN_6_LD_20_RN_11_RD_22_1.png","C_Dist_200_LN_7_LD_15_RN_18_RD_27_1.png","C_Dist_200_LN_9_LD_30_RN_13_RD_26_1.png"]],"dist200_I":[["I_Dist_200_LN_1_LD_2_RN_3_RD_10_0.png","I_Dist_200_LN_1_LD_3_RN_2_RD_15_0.png","I_Dist_200_LN_3_LD_4_RN_11_RD_20_0.png","I_Dist_200_LN_4_LD_5_RN_6_RD_10_0.png","I_Dist_200_LN_4_LD_6_RN_14_RD_30_0.png","I_Dist_200_LN_7_LD_10_RN_12_RD_24_0.png","I_Dist_200_LN_7_LD_10_RN_14_RD_28_0.png","I_Dist_200_LN_7_LD_10_RN_8_RD_16_0.png"],["I_Dist_200_LN_11_LD_20_RN_3_RD_4_1.png","I_Dist_200_LN_14_LD_30_RN_12_RD_18_1.png","I_Dist_200_LN_14_LD_30_RN_6_RD_9_1.png","I_Dist_200_LN_3_LD_10_RN_1_RD_2_1.png","I_Dist_200_LN_4_LD_30_RN_1_RD_3_1.png","I_Dist_200_LN_6_LD_20_RN_3_RD_6_1.png","I_Dist_200_LN_7_LD_15_RN_4_RD_6_1.png","I_Dist_200_LN_7_LD_15_RN_6_RD_9_1.png","I_Dist_200_LN_9_LD_15_RN_8_RD_10_1.png"]],"dist200_S":[["E_Dist_200_LN_3_LD_6_RN_3_RD_10_0.png"],["E_Dist_200_LN_3_LD_10_RN_3_RD_6_1.png"]],"dist300_C":[["C_Dist_300_LN_11_LD_22_RN_1_RD_5_0.png","C_Dist_300_LN_11_LD_22_RN_2_RD_10_0.png","C_Dist_300_LN_11_LD_22_RN_4_RD_20_0.png","C_Dist_300_LN_12_LD_24_RN_2_RD_10_0.png","C_Dist_300_LN_18_LD_20_RN_9_RD_15_0.png","C_Dist_300_LN_20_LD_25_RN_13_RD_26_0.png","C_Dist_300_LN_20_LD_25_RN_14_RD_28_0.png","C_Dist_300_LN_20_LD_25_RN_5_RD_10_0.png","C_Dist_300_LN_20_LD_25_RN_8_RD_16_0.png","C_Dist_300_LN_20_LD_25_RN_9_RD_18_0.png","C_Dist_300_LN_24_LD_30_RN_2_RD_4_0.png","C_Dist_300_LN_24_LD_30_RN_8_RD_16_0.png","C_Dist_300_LN_3_LD_6_RN_2_RD_10_0.png","C_Dist_300_LN_4_LD_10_RN_1_RD_10_0.png","C_Dist_300_LN_4_LD_5_RN_2_RD_4_0.png","C_Dist_300_LN_8_LD_16_RN_1_RD_5_0.png","C_Dist_300_LN_9_LD_10_RN_3_RD_5_0.png"],["C_Dist_300_LN_1_LD_20_RN_7_RD_20_1.png","C_Dist_300_LN_1_LD_3_RN_19_RD_30_1.png","C_Dist_300_LN_1_LD_30_RN_8_RD_24_1.png","C_Dist_300_LN_1_LD_5_RN_11_RD_22_1.png","C_Dist_300_LN_1_LD_5_RN_3_RD_6_1.png","C_Dist_300_LN_1_LD_5_RN_6_RD_12_1.png","C_Dist_300_LN_2_LD_10_RN_12_RD_24_1.png","C_Dist_300_LN_2_LD_20_RN_10_RD_25_1.png","C_Dist_300_LN_3_LD_12_RN_11_RD_20_1.png","C_Dist_300_LN_3_LD_6_RN_4_RD_5_1.png","C_Dist_300_LN_4_LD_20_RN_13_RD_26_1.png","C_Dist_300_LN_5_LD_25_RN_6_RD_12_1.png","C_Dist_300_LN_5_LD_25_RN_7_RD_14_1.png","C_Dist_300_LN_7_LD_14_RN_20_RD_25_1.png","C_Dist_300_LN_8_LD_15_RN_10_RD_12_1.png"]],"dist300_I":[["I_Dist_300_LN_1_LD_2_RN_2_RD_10_0.png","I_Dist_300_LN_1_LD_2_RN_3_RD_15_0.png","I_Dist_300_LN_2_LD_4_RN_6_RD_30_0.png","I_Dist_300_LN_3_LD_6_RN_4_RD_20_0.png","I_Dist_300_LN_4_LD_5_RN_6_RD_12_0.png","I_Dist_300_LN_4_LD_5_RN_8_RD_16_0.png","I_Dist_300_LN_7_LD_10_RN_8_RD_20_0.png","I_Dist_300_LN_8_LD_10_RN_14_RD_28_0.png","I_Dist_300_LN_8_LD_10_RN_9_RD_18_0.png"],["I_Dist_300_LN_13_LD_26_RN_12_RD_15_1.png","I_Dist_300_LN_4_LD_20_RN_2_RD_4_1.png"]],"dist300_S":[["E_Dist_300_LN_9_LD_12_RN_9_RD_20_0.png"],["E_Dist_300_LN_18_LD_30_RN_18_RD_20_1.png","E_Dist_300_LN_3_LD_10_RN_3_RD_5_1.png","E_Dist_300_LN_9_LD_20_RN_9_RD_12_1.png"]],"dist500_C":[["C_Dist_500_LN_10_LD_13_RN_7_RD_26_0.png","C_Dist_500_LN_10_LD_15_RN_4_RD_24_0.png","C_Dist_500_LN_12_LD_16_RN_3_RD_12_0.png","C_Dist_500_LN_12_LD_18_RN_4_RD_24_0.png","C_Dist_500_LN_15_LD_18_RN_5_RD_15_0.png","C_Dist_500_LN_15_LD_20_RN_1_RD_4_0.png","C_Dist_500_LN_18_LD_27_RN_1_RD_6_0.png","C_Dist_500_LN_20_LD_24_RN_1_RD_3_0.png","C_Dist_500_LN_20_LD_24_RN_3_RD_9_0.png","C_Dist_500_LN_20_LD_24_RN_7_RD_21_0.png","C_Dist_500_LN_20_LD_28_RN_3_RD_14_0.png","C_Dist_500_LN_21_LD_28_RN_6_RD_24_0.png","C_Dist_500_LN_22_LD_28_RN_2_RD_7_0.png","C_Dist_500_LN_25_LD_30_RN_9_RD_27_0.png","C_Dist_500_LN_4_LD_6_RN_1_RD_6_0.png","C_Dist_500_LN_5_LD_6_RN_2_RD_6_0.png","C_Dist_500_LN_6_LD_9_RN_1_RD_6_0.png","C_Dist_500_LN_7_LD_10_RN_1_RD_5_0.png","C_Dist_500_LN_8_LD_12_RN_1_RD_6_0.png","C_Dist_500_LN_8_LD_12_RN_4_RD_24_0.png"],["C_Dist_500_LN_1_LD_4_RN_12_RD_16_1.png","C_Dist_500_LN_1_LD_4_RN_9_RD_12_1.png","C_Dist_500_LN_1_LD_9_RN_11_RD_18_1.png","C_Dist_500_LN_10_LD_24_RN_22_RD_24_1.png","C_Dist_500_LN_2_LD_12_RN_10_RD_15_1.png","C_Dist_500_LN_2_LD_12_RN_12_RD_18_1.png","C_Dist_500_LN_2_LD_12_RN_4_RD_6_1.png","C_Dist_500_LN_2_LD_24_RN_7_RD_12_1.png","C_Dist_500_LN_2_LD_5_RN_18_RD_20_1.png","C_Dist_500_LN_2_LD_5_RN_9_RD_10_1.png","C_Dist_500_LN_2_LD_8_RN_12_RD_16_1.png","C_Dist_500_LN_2_LD_8_RN_21_RD_28_1.png","C_Dist_500_LN_3_LD_10_RN_4_RD_5_1.png","C_Dist_500_LN_3_LD_12_RN_15_RD_20_1.png","C_Dist_500_LN_3_LD_30_RN_6_RD_10_1.png","C_Dist_500_LN_3_LD_8_RN_14_RD_16_1.png","C_Dist_500_LN_4_LD_16_RN_15_RD_20_1.png","C_Dist_500_LN_4_LD_24_RN_12_RD_18_1.png","C_Dist_500_LN_5_LD_14_RN_6_RD_7_1.png","C_Dist_500_LN_7_LD_21_RN_20_RD_24_1.png","C_Dist_500_LN_7_LD_28_RN_12_RD_16_1.png","C_Dist_500_LN_7_LD_28_RN_9_RD_12_1.png","C_Dist_500_LN_9_LD_27_RN_20_RD_24_1.png"]],"dist500_I":[["I_Dist_500_LN_2_LD_3_RN_4_RD_24_0.png","I_Dist_500_LN_5_LD_6_RN_6_RD_18_0.png","I_Dist_500_LN_7_LD_8_RN_9_RD_24_0.png"],["I_Dist_500_LN_7_LD_21_RN_5_RD_6_1.png"]],"dist500_S":[["E_Dist_500_LN_6_LD_8_RN_6_RD_24_0.png"],["E_Dist_500_LN_2_LD_12_RN_2_RD_3_1.png","E_Dist_500_LN_6_LD_24_RN_6_RD_8_1.png"]]}},{"start_time":1551789985087,"click_time":1551789986363,"finger_time":1551789986322,"fix_duration":1143.7793949048635,"trial":1,"RT":1235,"MT":41,"sideResp":2,"stimulus":[],"xmouse":[782,782,782,782,782,782,782,782,782,782,782,782,782,782,782,782,782,782,782,782,782,782,782,782,782,782,782,782,782,782,782,782,782,782,782,782,782,782,782,782,782,782,782,782,782,782,782,782,782,782,782,782,782,782,782,782,782,782,782,782,806,929,1023,1103],"ymouse":[530,530,530,530,530,530,530,530,530,530,530,530,530,530,530,530,530,530,530,530,530,530,530,530,530,530,530,530,530,530,530,530,530,530,530,530,530,530,530,530,530,530,530,530,530,530,530,530,530,530,530,530,530,530,530,530,530,530,530,530,497,339,203,69],"timestamp_mouse":[15,42,56,76,95,115,135,156,175,194,214,235,255,276,295,315,335,356,376,396,415,434,456,475,496,515,536,556,575,595,616,636,656,676,696,715,734,756,775,794,816,836,856,874,896,915,935,956,976,995,1015,1035,1056,1074,1095,1115,1136,1155,1174,1196,1215,1235,1255,1275],"xSR":741.5,"ySR":490.1,"xT1":424.9,"yT1":0,"xT2":1058.1,"yT2":0,"toosoon":0,"cond_shown":"Congruent","ratio_trial":300,"L_num":20,"L_den":25,"R_num":14,"R_den":28,"correct_side":1,"subjID":"DavidBrragan6","gender":"0","school":"6","age":"11"},{"start_time":1551789987859,"click_time":1551789988202,"finger_time":1551789988102,"fix_duration":414.2596141721651,"trial":2,"RT":243,"MT":100,"sideResp":1,"stimulus":[],"xmouse":[786,786,786,786,786,786,786,786,786,786,786,784,767,715,662,605,560,516],"ymouse":[528,528,528,528,528,528,528,528,528,528,528,520,467,332,239,169,122,92],"timestamp_mouse":[15,29,43,63,84,104,122,143,163,184,204,223,243,263,283,303,322,343],"xSR":741.5,"ySR":490.1,"xT1":424.9,"yT1":0,"xT2":1058.1,"yT2":0,"toosoon":0,"cond_shown":"Incongruent","ratio_trial":200,"L_num":1,"L_den":2,"R_num":3,"R_den":10,"correct_side":1,"subjID":"DavidBrragan6","gender":"0","school":"6","age":"11"},{"start_time":1551789990360,"click_time":1551789991202,"finger_time":1551789990702,"fix_duration":1256.4424266429996,"trial":3,"RT":342,"MT":500,"sideResp":2,"stimulus":[],"xmouse":[779,779,779,779,779,779,779,779,779,779,779,779,779,779,779,780,781,792,800,808,816,828,879,906,931,951,968,1000,1011,1015,1017,1022,1037,1039,1039,1042,1049,1051,1053,1053,1053,1057,1070],"ymouse":[503,503,503,503,503,503,503,503,503,503,503,503,503,503,503,503,500,477,467,458,447,426,326,269,221,185,162,140,135,132,119,95,48,46,46,47,50,52,52,53,53,54,60],"timestamp_mouse":[10,23,42,62,83,102,123,141,163,182,202,222,242,263,282,302,323,342,361,381,403,422,443,463,482,502,523,543,562,582,601,622,642,662,683,702,723,742,762,782,802,822,842],"xSR":741.5,"ySR":490.1,"xT1":424.9,"yT1":0,"xT2":1058.1,"yT2":0,"toosoon":0,"cond_shown":"Incongruent","ratio_trial":300,"L_num":4,"L_den":20,"R_num":2,"R_den":4,"correct_side":2,"subjID":"DavidBrragan6","gender":"0","school":"6","age":"11"},{"start_time":1551789994473,"click_time":1551789995042,"finger_time":1551789994902,"fix_duration":1049.9434417858283,"trial":4,"RT":429,"MT":140,"sideResp":2,"stimulus":[],"xmouse":[808,808,808,808,808,808,808,808,808,808,808,808,808,808,808,808,808,808,808,808,812,859,935,980,1018,1036,1049,1055,1067],"ymouse":[571,571,571,571,571,571,571,571,571,571,571,571,571,571,571,571,571,571,571,569,560,484,368,288,221,181,134,111,89],"timestamp_mouse":[15,43,49,69,90,110,130,149,169,190,210,229,249,270,289,309,330,349,370,389,410,429,449,469,488,509,529,548,569],"xSR":741.5,"ySR":490.1,"xT1":424.9,"yT1":0,"xT2":1058.1,"yT2":0,"toosoon":0,"cond_shown":"Congruent","ratio_trial":300,"L_num":20,"L_den":25,"R_num":9,"R_den":18,"correct_side":1,"subjID":"DavidBrragan6","gender":"0","school":"6","age":"11"},{"start_time":1551789996174,"click_time":1551789997023,"finger_time":1551789996502,"fix_duration":250,"trial":5,"RT":328,"MT":521,"sideResp":1,"stimulus":[],"xmouse":[756,756,756,756,756,756,756,756,756,756,756,756,756,756,757,756,708,633,580,554,550,550,550,554,564,572,573,573,573,573,573,573,573,573,573,573,571,570,568,566,564,542,513],"ymouse":[526,526,526,526,526,526,526,526,526,526,526,526,526,526,525,512,360,216,152,124,118,116,113,107,88,69,37,32,32,32,32,32,35,36,37,38,42,44,46,47,48,48,45],"timestamp_mouse":[9,29,47,68,88,107,128,148,169,188,209,228,249,269,288,309,328,349,368,388,409,428,448,468,488,508,527,548,568,588,609,628,648,668,688,709,728,748,768,788,809,828,848],"xSR":741.5,"ySR":490.1,"xT1":424.9,"yT1":0,"xT2":1058.1,"yT2":0,"toosoon":0,"cond_shown":"Congruent","ratio_trial":300,"L_num":11,"L_den":22,"R_num":2,"R_den":10,"correct_side":1,"subjID":"DavidBrragan6","gender":"0","school":"6","age":"11"},{"start_time":1551789999874,"click_time":1551790000482,"finger_time":1551790000202,"fix_duration":250,"trial":6,"RT":328,"MT":280,"sideResp":1,"stimulus":[],"xmouse":[795,795,795,795,795,795,795,795,795,795,795,795,795,795,795,790,737,655,559,465,417,407,407,407,407,407,407,407,407,407,452],"ymouse":[543,543,543,543,543,543,543,543,543,543,543,543,543,543,543,534,427,318,203,100,44,11,4,4,4,4,4,4,4,4,54],"timestamp_mouse":[13,41,48,68,89,108,128,148,168,189,209,227,248,268,289,309,328,348,368,388,408,428,448,469,488,509,528,548,569,588,608],"xSR":741.5,"ySR":490.1,"xT1":424.9,"yT1":0,"xT2":1058.1,"yT2":0,"toosoon":0,"cond_shown":"Congruent","ratio_trial":300,"L_num":8,"L_den":15,"R_num":10,"R_den":12,"correct_side":2,"subjID":"DavidBrragan6","gender":"0","school":"6","age":"11"},{"start_time":1551790006747,"click_time":1551790007822,"finger_time":1551790007202,"fix_duration":1083.9898910910715,"trial":7,"RT":455,"MT":620,"sideResp":2,"stimulus":[],"xmouse":[768,768,768,768,768,768,768,768,768,768,768,768,768,768,768,768,768,768,768,768,768,758,693,685,685,695,743,994,994,994,994,994,994,994,994,1186,1215,1245,1246,1246,1236,1221,1205,1198,1192,1186,1179,1174,1174,1174,1174,1173,1163,1156],"ymouse":[556,556,556,556,556,556,556,556,556,556,556,556,556,556,556,556,556,556,556,556,556,562,596,613,621,621,584,144,144,144,144,144,144,144,144,100,144,191,192,192,189,175,152,138,124,108,94,85,85,85,85,84,83,83],"timestamp_mouse":[15,37,55,75,95,115,135,155,175,195,215,236,255,275,295,315,336,355,375,395,415,435,455,475,495,515,534,555,576,595,615,635,655,675,695,715,735,755,775,795,815,835,855,876,895,916,936,954,975,995,1015,1035,1054,1075],"xSR":741.5,"ySR":490.1,"xT1":424.9,"yT1":0,"xT2":1058.1,"yT2":0,"toosoon":0,"cond_shown":"Congruent","ratio_trial":100,"L_num":8,"L_den":16,"R_num":2,"R_den":5,"correct_side":1,"subjID":"DavidBrragan6","gender":"0","school":"6","age":"11"},{"start_time":1551790009910,"click_time":1551790011443,"finger_time":1551790011101,"fix_duration":947.289843399355,"trial":8,"RT":1191,"MT":342,"sideResp":1,"stimulus":[],"xmouse":[779,779,779,779,779,779,779,779,779,779,779,779,779,779,779,779,779,779,779,779,779,779,779,779,779,779,779,779,779,779,779,779,779,779,779,779,779,779,779,779,779,779,779,779,779,779,779,779,779,779,779,779,779,779,779,779,779,777,774,679,593,548,548,548,548,548,548,548,548,548,548,548,548,548,548,548,471],"ymouse":[520,520,520,520,520,520,520,520,520,520,520,520,520,520,520,520,520,520,520,520,520,520,520,520,520,520,520,520,520,520,520,520,520,520,520,520,520,520,520,520,520,520,520,520,520,520,520,520,520,520,520,520,520,520,520,520,520,513,504,284,101,10,10,10,10,10,10,10,10,10,10,10,10,10,10,10,34],"timestamp_mouse":[11,38,53,73,92,113,132,152,171,193,212,233,252,272,292,312,332,353,373,392,413,431,452,473,492,513,532,553,573,592,612,632,652,673,693,712,733,753,773,793,811,833,852,873,892,913,932,953,972,992,1012,1031,1053,1072,1092,1113,1134,1152,1173,1191,1212,1231,1252,1273,1292,1312,1332,1352,1373,1392,1413,1433,1452,1472,1492,1512,1532],"xSR":741.5,"ySR":490.1,"xT1":424.9,"yT1":0,"xT2":1058.1,"yT2":0,"toosoon":0,"cond_shown":"Incongruent","ratio_trial":100,"L_num":9,"L_den":18,"R_num":6,"R_den":10,"correct_side":2,"subjID":"DavidBrragan6","gender":"0","school":"6","age":"11"},{"start_time":1551790013497,"click_time":1551790014202,"finger_time":1551790013762,"fix_duration":973.4515686538062,"trial":9,"RT":265,"MT":440,"sideResp":1,"stimulus":[],"xmouse":[793,793,793,793,793,793,793,793,793,793,793,791,783,762,732,670,660,656,656,656,643,632,630,629,629,625,610,587,561,537,492,472,465,461,458,468],"ymouse":[532,532,532,532,532,532,532,532,532,532,532,520,497,449,379,279,264,258,255,249,214,192,189,188,188,184,174,162,150,139,120,111,108,106,101,79],"timestamp_mouse":[10,38,45,65,85,105,125,145,166,185,205,224,245,265,285,305,326,345,364,385,405,426,445,464,485,505,525,544,565,585,605,625,645,664,685,705],"xSR":741.5,"ySR":490.1,"xT1":424.9,"yT1":0,"xT2":1058.1,"yT2":0,"toosoon":0,"cond_shown":"Incongruent","ratio_trial":100,"L_num":3,"L_den":5,"R_num":8,"R_den":16,"correct_side":1,"subjID":"DavidBrragan6","gender":"0","school":"6","age":"11"},{"start_time":1551790016540,"click_time":1551790017182,"finger_time":1551790016802,"fix_duration":1336.38844890824,"trial":10,"RT":262,"MT":380,"sideResp":2,"stimulus":[],"xmouse":[782,782,782,782,782,782,782,783,788,790,793,800,808,884,971,1066,1140,1204,1268,1291,1299,1300,1301,1301,1301,1301,1301,1301,1288,1261,1229,1185,1156],"ymouse":[561,561,561,561,561,561,560,558,554,553,551,547,543,511,464,402,345,291,217,180,165,156,153,153,153,153,153,152,139,121,101,79,67],"timestamp_mouse":[11,25,43,62,82,102,122,142,162,181,203,222,242,262,282,303,322,343,362,382,402,422,443,463,483,502,522,543,562,582,602,622,642],"xSR":741.5,"ySR":490.1,"xT1":424.9,"yT1":0,"xT2":1058.1,"yT2":0,"toosoon":0,"cond_shown":"Congruent","ratio_trial":100,"L_num":4,"L_den":10,"R_num":15,"R_den":30,"correct_side":2,"subjID":"DavidBrragan6","gender":"0","school":"6","age":"11"},{"start_time":1551790018431,"click_time":1551790019062,"finger_time":1551790018763,"fix_duration":327.0432580363416,"trial":11,"RT":332,"MT":299,"sideResp":1,"stimulus":[],"xmouse":[820,820,820,820,820,820,820,820,820,820,820,820,820,820,820,818,800,761,694,681,675,670,664,639,610,600,597,597,593,579,528,457],"ymouse":[507,507,507,507,507,507,507,507,507,507,507,507,507,507,506,496,456,380,283,265,256,248,236,205,180,172,170,170,164,139,80,28],"timestamp_mouse":[11,36,50,72,91,111,131,151,171,192,212,231,252,272,291,311,332,352,371,391,411,432,451,471,491,511,530,552,571,592,611,631],"xSR":741.5,"ySR":490.1,"xT1":424.9,"yT1":0,"xT2":1058.1,"yT2":0,"toosoon":0,"cond_shown":"Incongruent","ratio_trial":200,"L_num":7,"L_den":10,"R_num":8,"R_den":16,"correct_side":1,"subjID":"DavidBrragan6","gender":"0","school":"6","age":"11"},{"start_time":1551790021091,"click_time":1551790021462,"finger_time":1551790021362,"fix_duration":1107.9002796964241,"trial":12,"RT":271,"MT":100,"sideResp":2,"stimulus":[],"xmouse":[795,795,795,795,795,795,795,795,795,795,795,801,811,823,853,953,1005,1040,1059],"ymouse":[501,501,501,501,501,501,501,501,501,501,501,501,491,474,429,280,199,135,97],"timestamp_mouse":[11,40,51,72,91,111,132,151,172,191,211,232,250,270,292,311,332,351,371],"xSR":741.5,"ySR":490.1,"xT1":424.9,"yT1":0,"xT2":1058.1,"yT2":0,"toosoon":0,"cond_shown":"Congruent","ratio_trial":100,"L_num":2,"L_den":5,"R_num":6,"R_den":12,"correct_side":2,"subjID":"DavidBrragan6","gender":"0","school":"6","age":"11"},{"start_time":1551790023226,"click_time":1551790023702,"finger_time":1551790023302,"fix_duration":802.3062959509645,"trial":13,"RT":76,"MT":400,"sideResp":1,"stimulus":[],"xmouse":[781,781,747,731,710,685,642,599,542,536,533,533,533,528,525,524,523,522,520,519,518,518,517,513],"ymouse":[520,520,504,495,477,452,401,345,272,259,249,239,230,196,163,149,138,126,112,111,109,107,105,94],"timestamp_mouse":[32,36,56,76,96,115,136,157,177,196,216,237,256,276,297,316,336,357,376,396,416,436,457,476],"xSR":741.5,"ySR":490.1,"xT1":424.9,"yT1":0,"xT2":1058.1,"yT2":0,"toosoon":0,"cond_shown":"Incongruent","ratio_trial":200,"L_num":6,"L_den":20,"R_num":3,"R_den":6,"correct_side":2,"subjID":"DavidBrragan6","gender":"0","school":"6","age":"11"},{"start_time":1551790025849,"click_time":1551790026722,"finger_time":1551790026122,"fix_duration":965.882343099286,"trial":14,"RT":273,"MT":600,"sideResp":1,"stimulus":[],"xmouse":[761,761,761,761,761,761,761,761,761,761,761,759,748,730,719,708,697,681,672,662,651,638,615,610,605,600,593,562,551,549,549,549,548,547,547,547,547,547,547,547,546,535,530,515],"ymouse":[552,552,552,552,552,552,552,552,552,552,549,545,510,452,414,371,332,280,258,237,218,203,173,164,155,143,126,77,65,63,63,63,62,62,62,62,62,62,62,62,62,62,62,62],"timestamp_mouse":[14,33,53,73,93,114,133,153,173,193,214,233,253,273,292,314,333,353,374,393,413,433,453,473,493,513,533,553,573,593,613,633,653,673,693,713,733,753,773,794,813,835,853,873],"xSR":741.5,"ySR":490.1,"xT1":424.9,"yT1":0,"xT2":1058.1,"yT2":0,"toosoon":0,"cond_shown":"Incongruent","ratio_trial":100,"L_num":13,"L_den":26,"R_num":12,"R_den":20,"correct_side":2,"subjID":"DavidBrragan6","gender":"0","school":"6","age":"11"},{"start_time":1551790029739,"click_time":1551790034263,"finger_time":1551790033222,"fix_duration":376.6562506029584,"trial":15,"RT":3483,"MT":1041,"sideResp":2,"stimulus":[],"xmouse":[807,807,807,807,807,807,807,807,807,807,807,807,807,807,807,807,807,807,807,807,807,807,807,807,807,807,807,807,807,807,807,807,807,807,807,807,807,807,807,807,807,807,807,807,807,807,807,807,807,807,807,807,807,807,807,807,807,807,807,807,807,807,807,807,807,807,807,807,807,807,807,807,807,807,807,807,807,807,807,807,807,807,807,807,807,807,807,807,807,807,807,807,807,807,807,807,807,807,807,807,807,807,807,807,807,807,807,807,807,807,807,807,807,807,807,807,807,807,807,806,806,806,805,804,804,803,803,803,803,803,803,803,803,803,803,803,803,803,803,803,803,803,803,803,803,803,803,803,803,803,803,803,803,803,803,803,803,803,803,803,803,803,803,803,803,803,803,803,803,803,803,803,803,803,803,803,803,803,800,797,795,794,794,791,790,788,785,782,779,779,779,781,781,775,773,773,773,773,773,773,772,772,771,769,769,769,769,769,769,770,770,770,770,767,753,731,699,671,651,651,651,654,682,822,914,1001,1080],"ymouse":[554,554,554,554,554,554,554,554,554,554,554,554,554,554,554,554,554,554,554,554,554,554,554,554,554,554,554,554,554,554,554,554,554,554,554,554,554,554,554,554,554,554,554,554,554,554,554,554,554,554,554,554,554,554,554,554,554,554,554,554,554,554,554,554,554,554,554,554,554,554,554,554,554,554,554,554,554,554,554,554,554,554,554,554,554,554,554,554,554,554,554,554,554,554,554,554,554,554,554,554,554,554,554,554,554,554,554,554,554,554,554,554,554,554,554,554,554,554,554,551,550,548,547,542,541,539,539,539,539,539,539,539,539,539,539,539,539,539,539,539,539,539,539,539,539,539,539,539,539,539,539,539,539,539,539,539,539,539,539,539,539,539,539,539,539,539,539,539,539,539,539,539,529,498,473,452,431,409,375,364,350,339,334,322,317,315,308,296,250,190,157,132,115,96,92,92,92,92,92,92,92,92,92,92,92,92,92,90,89,89,89,89,89,81,70,60,52,47,46,46,46,46,53,77,86,88,88],"timestamp_mouse":[11,32,42,64,82,104,123,144,163,183,203,224,243,263,283,303,323,344,364,383,404,423,443,463,482,503,523,543,562,583,603,623,644,663,684,703,723,744,762,783,804,823,844,863,884,904,923,944,963,983,1003,1024,1043,1063,1083,1104,1124,1143,1163,1182,1203,1224,1242,1263,1282,1303,1324,1344,1363,1384,1404,1423,1444,1463,1483,1503,1524,1544,1562,1584,1604,1624,1643,1663,1684,1702,1723,1744,1763,1783,1803,1824,1844,1864,1884,1904,1923,1944,1963,1983,2004,2024,2043,2063,2084,2104,2123,2144,2163,2184,2204,2223,2244,2264,2284,2304,2323,2345,2363,2383,2403,2423,2443,2464,2483,2504,2523,2544,2564,2584,2604,2624,2643,2664,2684,2703,2724,2744,2763,2783,2804,2824,2843,2863,2884,2904,2924,2944,2963,2983,3005,3023,3044,3063,3085,3104,3123,3143,3163,3184,3203,3223,3243,3263,3283,3303,3323,3344,3363,3384,3404,3424,3445,3463,3483,3503,3524,3544,3563,3583,3603,3624,3644,3663,3684,3703,3723,3744,3763,3784,3803,3824,3845,3863,3883,3903,3924,3944,3963,3984,4003,4024,4044,4063,4083,4103,4124,4145,4163,4184,4204,4223,4243,4263,4283,4303,4325,4343,4363,4383,4404,4424,4444,4463,4484,4503,4523],"xSR":741.5,"ySR":490.1,"xT1":424.9,"yT1":0,"xT2":1058.1,"yT2":0,"toosoon":0,"cond_shown":"Incongruent","ratio_trial":200,"L_num":3,"L_den":4,"R_num":11,"R_den":20,"correct_side":1,"subjID":"DavidBrragan6","gender":"0","school":"6","age":"11"},{"start_time":1551790037674,"click_time":1551790039803,"finger_time":1551790039122,"fix_duration":668.6701243318372,"trial":16,"RT":1448,"MT":681,"sideResp":1,"stimulus":[],"xmouse":[785,785,785,785,785,785,785,785,785,785,785,785,785,785,785,785,785,785,785,785,785,785,785,785,785,785,785,785,785,785,785,785,785,785,785,785,785,785,785,785,785,785,785,785,785,785,785,785,785,785,785,785,785,785,785,785,785,785,785,785,785,785,785,785,785,785,785,785,785,785,785,776,768,757,742,727,708,702,692,676,655,615,593,579,572,571,569,568,568,567,566,561,550,543,537,533,531,530,530,529,529,529,529,529,528,527,519],"ymouse":[558,558,558,558,558,558,558,558,558,558,558,558,558,558,558,558,558,558,558,558,558,558,558,558,558,558,558,558,558,558,558,558,558,558,558,558,558,558,558,558,558,558,558,558,558,558,558,558,558,558,558,558,558,558,558,558,558,558,558,558,558,558,558,558,558,558,558,558,558,558,557,500,448,387,345,312,285,277,265,248,231,206,193,180,172,168,158,154,148,145,142,131,118,111,105,102,100,99,99,98,98,98,98,98,98,98,93],"timestamp_mouse":[10,28,49,68,89,109,128,149,169,188,208,228,248,269,289,309,328,348,369,389,408,428,449,469,489,509,528,548,569,588,609,628,649,668,688,709,728,748,768,790,809,828,849,868,889,908,928,949,969,989,1009,1029,1048,1068,1089,1108,1128,1148,1168,1188,1208,1228,1248,1268,1288,1309,1329,1349,1370,1388,1409,1428,1448,1468,1488,1508,1529,1548,1568,1590,1609,1628,1648,1668,1689,1708,1728,1748,1768,1789,1808,1828,1848,1869,1889,1908,1928,1948,1969,1988,2009,2028,2048,2069,2089,2108,2128],"xSR":741.5,"ySR":490.1,"xT1":424.9,"yT1":0,"xT2":1058.1,"yT2":0,"toosoon":0,"cond_shown":"Incongruent","ratio_trial":300,"L_num":13,"L_den":26,"R_num":12,"R_den":15,"correct_side":2,"subjID":"DavidBrragan6","gender":"0","school":"6","age":"11"},{"start_time":1551790043641,"click_time":1551790044483,"finger_time":1551790044342,"fix_duration":397.2676554942355,"trial":17,"RT":701,"MT":141,"sideResp":1,"stimulus":[],"xmouse":[755,755,755,754,754,754,754,754,754,754,754,754,754,754,754,754,754,754,754,754,754,754,754,754,754,754,754,754,754,754,754,754,754,751,747,741,730,705,649,611,550,501,466],"ymouse":[547,548,548,551,551,551,551,551,551,551,551,551,551,551,551,551,551,551,551,551,551,551,551,551,551,551,551,551,551,551,551,551,551,547,541,528,501,441,312,246,164,100,59],"timestamp_mouse":[1,34,41,62,82,101,122,141,161,182,202,221,242,261,281,302,323,341,363,381,401,422,441,461,482,501,522,542,561,582,602,623,642,661,681,701,721,742,761,781,801,821,842],"xSR":741.5,"ySR":490.1,"xT1":424.9,"yT1":0,"xT2":1058.1,"yT2":0,"toosoon":0,"cond_shown":"Congruent","ratio_trial":200,"L_num":6,"L_den":20,"R_num":11,"R_den":22,"correct_side":2,"subjID":"DavidBrragan6","gender":"0","school":"6","age":"11"},{"start_time":1551790050795,"click_time":1551790053022,"finger_time":1551790052482,"fix_duration":710.0817300615004,"trial":18,"RT":1687,"MT":540,"sideResp":1,"stimulus":[],"xmouse":[825,825,825,823,820,802,800,799,799,799,799,796,796,796,795,795,795,795,795,795,795,795,795,795,795,795,795,795,795,795,795,795,795,795,795,795,795,795,795,795,795,795,795,795,795,795,795,795,795,795,795,795,795,795,795,795,795,795,795,795,795,795,795,795,795,795,795,795,795,795,795,795,795,795,795,795,795,795,795,795,794,793,790,787,781,767,761,755,747,739,708,685,670,660,655,647,637,631,627,625,623,623,622,618,614,598,582,561,540,520,495,486],"ymouse":[523,523,523,524,525,530,531,532,532,532,532,532,532,532,532,532,532,532,532,532,532,532,532,532,532,532,532,532,532,532,532,532,532,532,532,532,532,532,532,532,532,532,532,532,532,532,532,532,532,532,532,532,532,532,532,532,532,532,532,532,532,532,532,532,532,532,532,532,532,532,532,532,532,532,532,532,532,532,532,532,530,522,513,501,488,464,452,439,420,397,317,275,248,231,218,200,184,177,173,170,167,167,166,165,165,161,154,144,130,119,104,98],"timestamp_mouse":[15,38,47,68,88,107,127,147,168,188,207,227,248,267,287,307,327,347,367,387,407,427,448,467,487,507,527,547,567,587,608,627,647,668,687,707,728,748,768,787,807,827,848,867,887,907,927,947,968,987,1008,1027,1047,1067,1088,1108,1127,1148,1167,1187,1208,1227,1247,1268,1288,1308,1327,1347,1368,1387,1407,1428,1448,1467,1488,1508,1527,1547,1567,1587,1607,1628,1647,1667,1687,1707,1727,1747,1767,1787,1808,1827,1847,1867,1888,1907,1927,1947,1968,1987,2007,2027,2047,2068,2088,2107,2127,2148,2167,2188,2207,2227],"xSR":741.5,"ySR":490.1,"xT1":424.9,"yT1":0,"xT2":1058.1,"yT2":0,"toosoon":0,"cond_shown":"Congruent","ratio_trial":200,"L_num":6,"L_den":15,"R_num":3,"R_den":15,"correct_side":1,"subjID":"DavidBrragan6","gender":"0","school":"6","age":"11"},{"start_time":1551790057397,"click_time":1551790060103,"finger_time":1551790059302,"fix_duration":613.8741750613358,"trial":19,"RT":1905,"MT":801,"sideResp":1,"stimulus":[],"xmouse":[814,814,814,814,814,814,814,814,814,814,814,814,814,814,814,814,814,814,814,814,814,814,814,814,814,814,814,814,814,814,814,814,814,814,814,814,814,814,814,814,814,814,814,814,814,814,814,814,814,814,814,814,814,814,814,814,814,814,814,814,814,814,814,814,814,814,814,814,814,814,814,814,814,814,814,814,814,814,814,814,814,813,812,811,811,811,811,811,811,811,811,811,810,810,817,894,929,952,966,975,980,981,981,981,981,981,981,981,981,981,981,981,981,981,981,974,967,958,943,924,858,807,758,704,660,614,592,580,570,557,532,523,514,506,502,493],"ymouse":[549,549,549,549,549,549,549,549,549,549,549,549,549,549,549,549,549,549,549,549,549,549,549,549,549,549,549,549,549,549,549,549,549,549,549,549,549,549,549,549,549,549,549,549,549,549,549,549,549,549,549,549,549,549,549,549,549,549,549,549,549,549,549,549,549,549,549,549,549,549,549,549,549,549,549,549,549,549,549,549,549,549,549,549,549,549,549,549,549,549,549,549,548,547,539,489,461,438,416,402,387,385,382,381,377,374,374,374,374,374,374,373,373,372,372,369,367,363,358,353,332,312,288,265,252,232,217,208,198,185,155,144,134,125,113,79],"timestamp_mouse":[5,25,45,65,85,105,125,145,165,185,205,225,245,266,285,305,325,345,365,385,404,426,445,465,485,506,526,545,565,586,606,626,645,665,685,705,725,746,765,785,805,826,845,865,886,905,925,946,967,985,1005,1025,1045,1065,1086,1105,1125,1145,1165,1185,1205,1226,1245,1266,1285,1305,1325,1345,1365,1385,1405,1425,1445,1466,1485,1505,1525,1546,1565,1585,1605,1626,1645,1665,1685,1705,1725,1746,1765,1786,1805,1825,1845,1866,1885,1905,1926,1946,1966,1985,2005,2025,2046,2066,2087,2106,2125,2146,2166,2185,2205,2226,2246,2266,2285,2306,2325,2346,2365,2386,2405,2426,2446,2465,2485,2505,2525,2546,2566,2586,2606,2625,2646,2665,2685,2706],"xSR":741.5,"ySR":490.1,"xT1":424.9,"yT1":0,"xT2":1058.1,"yT2":0,"toosoon":0,"cond_shown":"Congruent","ratio_trial":200,"L_num":9,"L_den":30,"R_num":13,"R_den":26,"correct_side":2,"subjID":"DavidBrragan6","gender":"0","school":"6","age":"11"},{"start_time":1551790061693,"click_time":1551790063443,"finger_time":1551790063123,"fix_duration":250,"trial":20,"RT":1430,"MT":320,"sideResp":2,"stimulus":[],"xmouse":[807,807,807,807,807,807,807,807,807,807,807,807,807,807,807,807,807,807,807,807,807,807,807,807,807,807,807,807,807,807,807,807,807,807,807,807,807,807,807,807,807,807,807,807,807,807,807,807,807,807,807,807,807,807,807,807,807,807,807,807,807,807,807,807,807,807,807,807,807,807,812,843,881,927,971,1017,1021,1023,1023,1023,1023,1023,1023,1022,1021,1029,1052,1082],"ymouse":[554,554,554,554,554,554,554,554,554,554,554,554,554,554,554,554,554,554,554,554,554,554,554,554,554,554,554,554,554,554,554,554,554,554,554,554,554,554,554,554,554,554,554,554,554,554,554,554,554,554,554,554,554,554,554,554,554,554,554,554,554,554,554,554,554,554,554,554,554,554,540,479,422,364,323,292,287,285,285,284,279,266,260,247,228,181,127,74],"timestamp_mouse":[12,29,49,69,89,109,129,149,169,189,209,229,249,269,289,309,329,350,369,389,409,429,449,469,489,509,529,549,569,589,609,629,649,669,689,709,729,749,769,789,809,829,849,869,889,909,929,949,969,989,1010,1029,1050,1070,1090,1110,1130,1150,1170,1190,1209,1229,1249,1269,1289,1309,1329,1349,1369,1389,1410,1430,1450,1470,1490,1509,1529,1550,1570,1591,1609,1630,1650,1670,1689,1709,1729,1750],"xSR":741.5,"ySR":490.1,"xT1":424.9,"yT1":0,"xT2":1058.1,"yT2":0,"toosoon":0,"cond_shown":"Incongruent","ratio_trial":300,"L_num":13,"L_den":26,"R_num":12,"R_den":15,"correct_side":2,"subjID":"DavidBrragan6","gender":"0","school":"6","age":"11"},{"start_time":1551790065609,"click_time":1551790068243,"finger_time":1551790067302,"fix_duration":1367.2929922458516,"trial":21,"RT":1693,"MT":941,"sideResp":2,"stimulus":[],"xmouse":[786,786,786,786,786,786,786,786,786,786,786,786,786,786,786,786,786,786,786,786,786,786,786,786,786,786,786,786,786,786,786,786,786,786,786,786,786,786,786,786,786,786,786,786,786,786,786,786,786,786,786,786,786,786,786,786,786,786,786,786,786,786,786,786,786,786,786,786,786,786,786,786,786,786,786,786,786,786,786,786,786,786,786,786,765,765,771,785,785,785,909,999,1000,1000,985,979,951,910,866,806,798,797,796,806,896,965,1054,1139,1214,1251,1251,1254,1257,1262,1265,1265,1264,1263,1250,1226,1218,1214,1212,1211,1191,1178,1177,1177,1176,1170,1162,1158],"ymouse":[502,502,502,502,502,502,502,502,502,502,502,502,502,502,502,502,502,502,502,502,502,502,502,502,502,502,502,502,502,502,502,502,502,502,502,502,502,502,502,502,502,502,502,502,502,502,502,502,502,502,502,502,502,502,502,502,502,502,502,502,502,502,502,502,502,502,502,502,502,502,502,502,502,502,502,502,502,502,502,502,502,502,507,519,609,664,668,645,644,644,570,520,517,517,526,525,510,489,476,482,484,484,472,428,305,253,210,181,161,151,150,143,132,115,91,90,89,88,82,78,78,79,80,80,75,72,72,72,71,64,61,59],"timestamp_mouse":[15,33,53,73,93,113,133,153,173,193,213,233,253,273,293,313,333,353,373,393,413,433,453,473,493,513,533,554,573,594,614,633,654,674,694,714,734,754,773,793,813,833,853,873,893,913,933,953,973,993,1014,1033,1053,1073,1093,1113,1133,1153,1173,1193,1213,1233,1253,1273,1293,1313,1333,1353,1373,1393,1413,1433,1453,1473,1493,1513,1533,1553,1573,1593,1613,1633,1654,1674,1693,1713,1733,1754,1773,1793,1814,1834,1853,1874,1894,1913,1934,1954,1973,1994,2013,2034,2053,2073,2094,2113,2133,2153,2173,2194,2214,2233,2253,2273,2294,2314,2333,2354,2375,2393,2413,2434,2454,2475,2493,2514,2534,2554,2575,2593,2614,2634],"xSR":741.5,"ySR":490.1,"xT1":424.9,"yT1":0,"xT2":1058.1,"yT2":0,"toosoon":0,"cond_shown":"Incongruent","ratio_trial":200,"L_num":7,"L_den":10,"R_num":14,"R_den":28,"correct_side":1,"subjID":"DavidBrragan6","gender":"0","school":"6","age":"11"},{"start_time":1551790070627,"click_time":1551790072984,"finger_time":1551790072342,"fix_duration":1344.4989453204792,"trial":22,"RT":1715,"MT":642,"sideResp":1,"stimulus":[],"xmouse":[774,774,774,774,774,774,774,774,774,774,774,774,774,774,774,774,774,774,774,774,774,774,774,774,774,774,774,774,774,774,774,774,774,774,774,774,774,774,774,774,774,774,774,774,774,774,774,774,774,774,774,774,774,774,774,774,774,774,774,774,774,774,774,774,774,774,774,774,774,774,774,774,774,774,774,774,774,774,774,774,774,774,774,781,791,845,944,1024,1042,1042,1042,1035,1027,1012,998,966,913,864,656,591,591,591,591,591,591,591,591,591,591,591,591,591,591,591,591,591,444,446],"ymouse":[547,547,547,547,547,547,547,547,547,547,547,547,547,547,547,547,547,547,547,547,547,547,547,547,547,547,547,547,547,547,547,547,547,547,547,547,547,547,547,547,547,547,547,547,547,547,547,547,547,547,547,547,547,547,547,547,547,547,547,547,547,547,547,547,547,547,547,547,547,547,547,547,547,547,547,547,547,547,547,547,547,547,547,545,522,456,377,347,347,347,347,345,340,313,291,251,199,155,42,19,19,19,19,19,19,19,19,19,19,19,19,19,19,19,19,19,0,6],"timestamp_mouse":[16,36,55,75,95,115,135,155,175,195,215,235,255,275,295,315,335,355,375,395,415,435,455,475,495,516,535,555,575,595,615,635,655,675,695,715,735,755,775,795,815,835,855,875,895,915,935,955,975,995,1015,1036,1055,1075,1095,1115,1135,1155,1175,1195,1215,1235,1255,1275,1295,1315,1335,1355,1375,1395,1415,1435,1455,1475,1495,1515,1535,1555,1574,1596,1616,1636,1656,1676,1696,1715,1736,1757,1775,1796,1816,1836,1855,1875,1895,1916,1936,1956,1975,1996,2016,2036,2055,2075,2096,2116,2136,2156,2175,2195,2216,2236,2257,2275,2296,2316,2335,2356],"xSR":741.5,"ySR":490.1,"xT1":424.9,"yT1":0,"xT2":1058.1,"yT2":0,"toosoon":0,"cond_shown":"Congruent","ratio_trial":300,"L_num":18,"L_den":20,"R_num":9,"R_den":15,"correct_side":1,"subjID":"DavidBrragan6","gender":"0","school":"6","age":"11"},{"start_time":1551790075064,"click_time":1551790077902,"finger_time":1551790076942,"fix_duration":860.427729063247,"trial":23,"RT":1878,"MT":960,"sideResp":2,"stimulus":[],"xmouse":[814,814,814,814,814,814,814,814,814,814,814,814,814,814,814,814,814,814,814,814,814,814,814,814,814,814,814,814,814,814,814,814,814,814,814,814,814,814,814,814,814,814,814,814,814,814,814,814,814,814,814,814,814,814,814,814,814,814,814,814,814,814,814,814,814,814,814,814,814,814,814,814,814,814,814,814,814,814,814,814,814,814,814,814,814,814,814,814,814,814,814,814,814,845,882,892,892,892,892,894,895,899,902,908,934,1016,1174,1211,1217,1217,1216,1194,1188,1183,1179,1175,1174,1174,1172,1172,1172,1172,1172,1172,1172,1172,1172,1169,1165,1161,1160,1149,1147,1146,1145,1144,1142,1139,1137,1136,1135,1130],"ymouse":[541,541,541,541,541,541,541,541,541,541,541,541,541,541,541,541,541,541,541,541,541,541,541,541,541,541,541,541,541,541,541,541,541,541,541,541,541,541,541,541,541,541,541,541,541,541,541,541,541,541,541,541,541,541,541,541,541,541,541,541,541,541,541,541,541,541,541,541,541,541,541,541,541,541,541,541,541,541,541,541,541,541,541,541,541,541,541,541,541,541,541,541,540,521,505,502,502,502,502,501,500,489,481,471,453,416,335,306,295,283,264,216,203,192,182,170,168,165,163,162,162,162,162,162,162,162,162,162,162,162,162,158,158,157,155,153,144,134,126,118,111,95],"timestamp_mouse":[18,38,58,78,98,118,138,158,178,198,218,238,258,278,298,318,338,358,378,398,418,438,458,478,498,518,538,558,578,598,618,637,659,679,699,719,739,758,778,798,818,838,858,878,898,918,938,958,978,998,1018,1038,1058,1078,1098,1118,1138,1158,1178,1198,1218,1238,1258,1278,1298,1318,1338,1358,1378,1398,1418,1438,1458,1478,1498,1518,1538,1558,1578,1598,1618,1638,1658,1678,1698,1718,1738,1758,1778,1798,1818,1838,1858,1878,1899,1918,1938,1958,1978,1998,2019,2039,2058,2078,2099,2118,2138,2158,2178,2198,2218,2239,2259,2278,2298,2320,2338,2358,2378,2399,2418,2439,2458,2479,2499,2520,2538,2559,2579,2599,2620,2638,2659,2679,2699,2719,2738,2758,2779,2798,2820,2838],"xSR":741.5,"ySR":490.1,"xT1":424.9,"yT1":0,"xT2":1058.1,"yT2":0,"toosoon":0,"cond_shown":"Congruent","ratio_trial":200,"L_num":14,"L_den":28,"R_num":6,"R_den":20,"correct_side":1,"subjID":"DavidBrragan6","gender":"0","school":"6","age":"11"},{"start_time":1551790082273,"click_time":1551790083722,"finger_time":1551790083522,"fix_duration":250,"trial":24,"RT":1249,"MT":200,"sideResp":2,"stimulus":[],"xmouse":[801,801,801,801,801,801,801,801,801,801,801,801,801,801,801,801,801,801,801,801,801,801,801,801,801,801,801,801,801,801,801,801,801,801,801,801,801,801,801,801,801,801,801,801,801,801,801,801,801,801,801,801,801,801,801,801,801,801,801,801,801,810,818,820,820,820,823,832,863,906,963,1102,1138],"ymouse":[530,530,530,530,530,530,530,530,530,530,530,530,530,530,530,530,530,530,530,530,530,530,530,530,530,530,530,530,530,530,530,530,530,530,530,530,530,530,530,530,530,530,530,530,530,530,530,530,530,530,530,530,530,530,530,530,530,530,530,530,530,508,480,456,435,414,385,362,311,249,197,113,95],"timestamp_mouse":[9,29,49,69,89,109,129,149,169,189,209,229,249,269,289,309,329,350,368,390,410,430,449,469,489,509,529,549,569,589,609,629,649,669,689,709,729,749,769,789,809,829,849,869,889,909,929,949,969,989,1009,1029,1049,1069,1089,1109,1129,1149,1169,1189,1209,1229,1249,1270,1290,1309,1330,1350,1369,1389,1409,1429,1449],"xSR":741.5,"ySR":490.1,"xT1":424.9,"yT1":0,"xT2":1058.1,"yT2":0,"toosoon":0,"cond_shown":"Congruent","ratio_trial":300,"L_num":7,"L_den":14,"R_num":20,"R_den":25,"correct_side":2,"subjID":"DavidBrragan6","gender":"0","school":"6","age":"11"},{"start_time":1551790084848,"click_time":1551790085882,"finger_time":1551790085702,"fix_duration":265.32499693472687,"trial":25,"RT":854,"MT":180,"sideResp":1,"stimulus":[],"xmouse":[809,809,809,809,809,809,809,809,809,809,809,809,809,809,809,809,809,809,809,809,809,809,809,809,809,809,809,809,809,809,809,809,809,809,809,809,809,809,807,805,798,785,645,579,545,530,518,479,461,449,440,435],"ymouse":[523,523,523,523,523,523,523,523,523,523,523,523,523,523,523,523,523,523,523,523,523,523,523,523,523,523,523,523,523,523,523,523,523,523,523,523,523,524,524,522,513,494,343,284,244,217,199,145,126,112,104,97],"timestamp_mouse":[15,36,54,74,94,114,134,154,174,194,214,234,254,274,294,314,334,354,374,394,414,434,454,474,494,514,534,554,574,594,614,634,654,674,694,714,734,754,774,794,814,834,854,875,895,915,935,955,974,994,1014,1034],"xSR":741.5,"ySR":490.1,"xT1":424.9,"yT1":0,"xT2":1058.1,"yT2":0,"toosoon":0,"cond_shown":"Congruent","ratio_trial":300,"L_num":24,"L_den":30,"R_num":8,"R_den":16,"correct_side":1,"subjID":"DavidBrragan6","gender":"0","school":"6","age":"11"},{"start_time":1551790088205,"click_time":1551790090102,"finger_time":1551790089603,"fix_duration":1280.8715696512365,"trial":26,"RT":1398,"MT":499,"sideResp":1,"stimulus":[],"xmouse":[770,770,770,770,770,770,770,770,770,770,770,770,770,770,770,770,770,770,771,771,771,771,771,771,771,771,771,771,771,771,772,772,770,769,769,769,769,769,769,769,769,769,769,769,769,769,769,769,769,769,769,769,769,769,769,769,769,769,769,769,769,769,769,769,769,769,769,769,765,742,721,706,690,667,634,630,626,615,599,576,571,565,561,559,555,555,555,555,555,555,542,535,530,526,514],"ymouse":[534,534,534,534,534,534,534,534,534,534,534,534,534,534,534,534,534,534,534,534,534,534,534,534,534,534,534,534,534,534,534,532,522,515,509,509,509,509,509,509,509,509,509,509,509,509,509,509,509,509,509,509,509,509,509,509,509,509,509,509,509,509,509,509,509,509,509,509,493,406,343,284,239,201,146,132,116,93,69,39,30,20,10,7,0,0,0,0,0,0,5,13,21,27,42],"timestamp_mouse":[17,38,57,77,97,117,137,157,177,197,217,237,257,277,297,317,337,357,378,397,417,437,457,477,497,517,537,557,577,597,618,637,657,678,698,717,737,757,777,797,817,837,857,877,897,917,937,957,977,997,1017,1037,1057,1077,1097,1117,1137,1157,1177,1197,1217,1237,1257,1277,1297,1317,1337,1357,1377,1398,1417,1437,1457,1477,1498,1517,1537,1557,1577,1597,1617,1639,1657,1677,1697,1717,1737,1758,1779,1798,1817,1838,1857,1879,1897],"xSR":741.5,"ySR":490.1,"xT1":424.9,"yT1":0,"xT2":1058.1,"yT2":0,"toosoon":0,"cond_shown":"Incongruent","ratio_trial":300,"L_num":4,"L_den":20,"R_num":2,"R_den":4,"correct_side":2,"subjID":"DavidBrragan6","gender":"0","school":"6","age":"11"},{"start_time":1551790091693,"click_time":1551790093482,"finger_time":1551790093281,"fix_duration":511.2608004652165,"trial":27,"RT":1588,"MT":201,"sideResp":1,"stimulus":[],"xmouse":[765,765,765,765,765,765,765,765,765,765,765,765,765,765,765,765,765,765,765,765,765,765,765,765,765,765,765,765,765,765,765,765,765,765,765,765,765,765,765,765,765,765,765,765,765,765,765,765,765,765,765,765,765,765,765,765,765,765,765,765,765,765,765,765,765,765,765,765,765,765,765,765,765,765,765,765,765,765,765,763,730,707,681,653,592,553,525,507,493,483],"ymouse":[494,494,494,494,494,494,494,494,494,494,494,494,494,494,494,494,494,494,494,494,494,494,494,494,494,494,494,494,494,494,494,494,494,494,494,494,494,494,494,494,494,494,494,494,494,494,494,494,494,494,494,494,494,494,494,494,494,494,494,494,494,494,494,494,494,494,494,494,494,494,494,494,494,494,494,494,494,494,492,482,406,368,326,287,219,180,150,128,110,95],"timestamp_mouse":[14,30,49,69,89,109,129,149,169,189,209,229,249,269,289,309,329,349,369,389,409,429,448,469,489,508,528,548,568,588,608,628,648,668,688,708,728,748,768,788,808,828,848,868,888,908,928,948,968,988,1008,1028,1048,1068,1088,1108,1128,1148,1168,1188,1208,1228,1248,1268,1288,1308,1328,1348,1368,1388,1408,1428,1448,1468,1488,1508,1528,1548,1568,1588,1609,1629,1650,1670,1690,1708,1729,1750,1770,1789],"xSR":741.5,"ySR":490.1,"xT1":424.9,"yT1":0,"xT2":1058.1,"yT2":0,"toosoon":0,"cond_shown":"Incongruent","ratio_trial":200,"L_num":6,"L_den":20,"R_num":3,"R_den":6,"correct_side":2,"subjID":"DavidBrragan6","gender":"0","school":"6","age":"11"},{"start_time":1551790094632,"click_time":1551790098202,"finger_time":1551790096201,"fix_duration":250,"trial":28,"RT":1569,"MT":2001,"sideResp":1,"stimulus":[],"xmouse":[753,753,753,753,753,753,753,753,753,753,753,753,753,753,753,753,753,753,753,753,753,753,753,753,753,753,753,753,753,753,753,753,753,753,753,753,753,753,753,753,753,753,753,753,753,753,753,753,753,753,753,753,753,753,753,753,753,753,753,753,753,753,753,753,753,753,753,753,753,753,753,753,753,753,753,753,753,753,753,753,753,753,753,768,770,771,772,773,774,774,774,774,774,774,774,774,774,774,774,774,774,774,774,774,774,774,774,774,774,774,774,774,774,774,774,774,773,757,748,739,729,722,716,683,665,646,635,631,623,593,513,433,400,397,397,396,396,396,396,396,396,396,395,394,394,394,394,393,393,394,394,394,395,396,396,396,396,396,396,396,396,396,396,396,396,396,396,396,396,396,396,396,396,396,396,396,396,398,514],"ymouse":[516,516,516,516,516,516,516,516,516,516,516,516,516,516,516,516,516,516,516,516,516,516,516,516,516,516,516,516,516,516,516,516,516,516,516,516,516,516,516,516,516,516,516,516,516,516,516,516,516,516,516,516,516,516,516,516,516,516,516,516,516,516,516,516,516,516,516,516,516,516,516,516,516,516,516,514,509,498,489,486,482,476,467,434,427,422,416,412,406,405,405,405,405,405,405,405,405,405,405,405,405,405,405,405,405,405,405,405,405,405,405,405,405,403,398,388,367,319,300,283,264,249,233,143,111,84,70,67,67,78,108,142,150,151,151,151,151,149,146,144,141,138,136,133,132,132,131,130,129,129,128,128,128,128,128,128,128,128,128,128,128,128,128,128,128,128,128,128,128,128,128,128,128,128,128,128,128,128,95],"timestamp_mouse":[10,29,49,69,89,109,129,149,169,189,209,230,249,269,289,309,329,349,369,389,411,430,451,471,491,511,530,551,570,590,610,630,650,670,690,710,730,750,770,790,810,830,850,870,890,910,930,950,970,990,1010,1029,1049,1069,1089,1109,1129,1149,1169,1189,1209,1229,1249,1269,1289,1309,1329,1349,1369,1389,1409,1429,1449,1469,1489,1509,1529,1549,1569,1590,1609,1629,1650,1670,1690,1709,1729,1750,1770,1789,1809,1829,1849,1870,1889,1909,1929,1949,1969,1989,2009,2029,2049,2069,2089,2109,2129,2149,2171,2191,2211,2231,2251,2270,2290,2311,2330,2350,2370,2390,2411,2431,2451,2470,2490,2510,2531,2551,2570,2590,2611,2631,2651,2670,2690,2710,2730,2751,2769,2790,2810,2830,2849,2869,2889,2909,2929,2949,2969,2990,3009,3029,3051,3070,3090,3110,3130,3149,3169,3189,3209,3229,3249,3270,3289,3309,3329,3349,3369,3389,3409,3429,3449,3469,3490,3509,3529,3549,3570],"xSR":741.5,"ySR":490.1,"xT1":424.9,"yT1":0,"xT2":1058.1,"yT2":0,"toosoon":0,"cond_shown":"Incongruent","ratio_trial":100,"L_num":1,"L_den":2,"R_num":8,"R_den":20,"correct_side":1,"subjID":"DavidBrragan6","gender":"0","school":"6","age":"11"},{"start_time":1551790101657,"click_time":1551790103321,"finger_time":1551790103001,"fix_duration":1114.3873711655926,"trial":29,"RT":1344,"MT":320,"sideResp":2,"stimulus":[],"xmouse":[786,786,786,786,786,786,786,786,786,786,786,786,786,786,786,786,786,786,786,786,786,786,786,786,786,786,786,786,786,786,786,786,786,786,786,786,786,785,785,785,785,783,782,780,776,774,772,764,760,757,756,756,756,756,756,756,756,756,756,756,756,756,769,781,791,795,798,849,905,959,999,1012,1015,1018,1021,1021,1021,1021,1021,1022,1028,1044,1089,1093],"ymouse":[533,533,533,533,533,533,533,533,533,533,533,533,533,533,533,533,533,533,533,533,533,533,533,533,533,533,533,533,533,533,533,533,533,533,533,533,534,534,534,534,534,535,535,536,539,540,541,548,551,553,553,553,553,553,553,553,553,553,553,553,553,553,546,538,529,521,507,425,378,331,295,278,256,251,247,247,247,247,246,237,218,190,105,85],"timestamp_mouse":[5,25,44,64,84,104,124,144,164,184,204,224,244,264,284,304,324,346,366,386,406,425,446,465,485,505,525,545,565,585,605,625,645,665,685,705,726,745,765,785,805,826,846,866,885,905,924,944,964,984,1006,1024,1044,1064,1084,1104,1124,1144,1164,1184,1204,1224,1244,1264,1284,1304,1324,1344,1365,1385,1404,1425,1445,1465,1485,1504,1524,1544,1564,1584,1604,1625,1645,1664],"xSR":741.5,"ySR":490.1,"xT1":424.9,"yT1":0,"xT2":1058.1,"yT2":0,"toosoon":0,"cond_shown":"Incongruent","ratio_trial":100,"L_num":4,"L_den":8,"R_num":8,"R_den":20,"correct_side":1,"subjID":"DavidBrragan6","gender":"0","school":"6","age":"11"},{"start_time":1551790106031,"click_time":1551790107863,"finger_time":1551790107503,"fix_duration":1369.4771590692442,"trial":30,"RT":1472,"MT":360,"sideResp":1,"stimulus":[],"xmouse":[797,797,797,797,797,797,797,797,797,797,797,797,797,797,797,797,797,797,797,797,797,797,797,797,797,797,797,797,797,797,797,797,797,797,797,797,797,797,797,797,797,797,797,797,797,797,797,797,797,797,797,797,797,797,797,797,797,797,797,797,797,797,797,797,797,797,797,797,797,797,797,797,792,737,692,653,625,614,610,608,606,604,602,602,602,602,602,601,598,581,551,504],"ymouse":[532,532,532,532,532,532,532,532,532,532,532,532,532,532,532,532,532,532,532,532,532,532,532,532,532,532,532,532,532,532,532,532,532,532,532,532,531,531,530,529,529,529,529,528,528,528,528,528,528,528,528,528,528,528,528,528,528,528,528,528,528,528,528,528,528,528,528,528,528,528,527,525,512,384,276,182,127,106,85,72,62,54,44,36,36,36,36,36,36,41,50,64],"timestamp_mouse":[12,31,51,70,90,110,130,150,170,190,210,230,250,270,290,310,330,350,370,390,410,430,450,470,490,510,530,550,570,590,610,630,650,670,690,710,730,750,770,790,810,830,850,870,890,910,930,950,970,990,1010,1030,1050,1070,1090,1110,1130,1150,1170,1190,1212,1232,1252,1271,1291,1312,1331,1352,1371,1391,1412,1432,1451,1472,1492,1511,1531,1552,1571,1591,1612,1632,1652,1671,1692,1711,1732,1752,1770,1790,1812,1831],"xSR":741.5,"ySR":490.1,"xT1":424.9,"yT1":0,"xT2":1058.1,"yT2":0,"toosoon":0,"cond_shown":"Incongruent","ratio_trial":300,"L_num":4,"L_den":5,"R_num":8,"R_den":16,"correct_side":1,"subjID":"DavidBrragan6","gender":"0","school":"6","age":"11"},{"start_time":1551790111094,"click_time":1551790113302,"finger_time":1551790112782,"fix_duration":452.37646380463514,"trial":31,"RT":1688,"MT":520,"sideResp":1,"stimulus":[],"xmouse":[808,808,808,808,808,808,808,808,808,808,808,808,808,808,808,808,808,808,808,808,808,808,808,808,808,808,808,808,808,808,808,808,808,808,808,808,808,808,808,808,808,808,808,808,808,808,808,808,808,808,808,808,808,808,808,808,808,808,808,808,808,808,808,808,808,808,808,808,808,808,808,808,808,808,808,808,808,808,808,808,808,808,809,809,808,803,799,794,786,775,754,743,731,715,701,672,659,646,633,629,619,617,617,617,617,617,617,617,562,536,471],"ymouse":[561,561,561,561,561,561,561,561,561,561,561,561,561,561,561,561,561,561,561,561,561,561,561,561,561,561,561,561,561,561,561,561,561,561,561,561,561,561,561,561,561,561,561,561,561,561,561,561,561,561,561,561,561,561,561,561,561,561,561,561,561,561,561,561,561,561,561,561,561,561,561,561,561,561,561,561,561,561,561,561,553,535,513,497,489,467,458,445,426,400,334,310,278,248,215,147,109,65,36,26,7,4,4,4,4,4,4,4,10,24,55],"timestamp_mouse":[12,29,48,68,88,108,128,148,168,187,207,228,247,267,287,307,327,347,367,387,407,427,447,467,487,507,527,547,567,587,607,627,647,667,687,707,727,747,767,787,807,827,847,867,887,907,927,947,967,987,1007,1027,1047,1067,1087,1107,1127,1147,1167,1187,1207,1227,1247,1267,1287,1307,1329,1349,1369,1388,1409,1428,1448,1468,1488,1508,1528,1548,1568,1588,1608,1629,1649,1669,1688,1708,1728,1749,1768,1788,1808,1829,1848,1868,1889,1909,1929,1949,1968,1989,2008,2027,2047,2068,2089,2107,2128,2148,2167,2189,2208],"xSR":741.5,"ySR":490.1,"xT1":424.9,"yT1":0,"xT2":1058.1,"yT2":0,"toosoon":0,"cond_shown":"Congruent","ratio_trial":100,"L_num":4,"L_den":8,"R_num":6,"R_den":10,"correct_side":2,"subjID":"DavidBrragan6","gender":"0","school":"6","age":"11"},{"start_time":1551790120847,"click_time":1551790132062,"finger_time":1551790122523,"fix_duration":904.4050253938298,"trial":32,"RT":1676,"MT":9539,"sideResp":1,"stimulus":[],"xmouse":[772,772,772,772,772,772,772,772,772,772,772,772,772,772,772,772,772,772,772,772,772,772,772,772,772,772,772,772,772,772,772,772,772,772,772,772,772,772,772,772,772,772,772,772,772,772,772,772,772,772,772,772,772,772,772,772,772,772,772,772,772,772,772,772,772,772,772,772,772,772,772,772,772,772,772,772,772,772,772,772,772,773,795,820,854,881,904,942,953,958,958,958,958,958,958,958,958,958,958,958,950,936,918,910,904,898,892,876,861,834,787,737,665,649,642,640,638,638,638,636,632,618,597,594,594,593,593,593,593,593,593,593,593,593,594,605,624,702,756,794,814,818,818,818,818,818,819,827,843,863,881,899,919,919,919,919,919,919,919,917,913,902,830,779,758,750,749,749,749,749,749,749,747,743,738,733,726,724,724,723,722,721,715,711,708,707,707,706,706,706,706,714,754,773,787,801,818,823,829,834,840,848,864,869,875,883,890,897,898,898,898,898,896,891,884,875,864,849,844,840,840,840,839,837,826,809,790,761,754,749,743,735,726,725,724,724,723,723,726,737,759,789,900,934,961,980,996,1000,1000,1000,1000,1000,997,982,961,930,834,799,781,770,764,760,760,758,758,755,752,741,735,728,717,706,704,704,704,704,704,704,704,704,704,705,718,725,735,746,754,761,762,762,762,762,762,762,762,762,763,756,742,727,714,710,709,709,708,707,705,700,700,699,697,696,695,694,693,692,691,690,690,690,690,690,690,690,690,690,690,690,690,690,690,690,690,690,690,690,690,690,690,690,690,690,730,749,755,757,757,758,758,759,759,759,759,759,759,758,758,758,758,756,751,738,693,686,684,682,676,664,660,659,659,659,659,659,659,660,672,696,706,718,725,743,808,834,848,853,853,853,855,858,865,870,871,871,871,871,869,862,848,831,816,804,790,783,776,764,753,719,695,669,644,622,608,608,608,608,608,610,623,636,652,672,737,774,812,849,869,879,879,879,879,880,880,880,880,880,880,880,880,880,877,868,818,799,783,770,756,735,730,725,722,718,710,710,709,707,707,706,706,706,706,706,706,706,706,706,706,706,706,706,706,706,706,706,706,706,706,706,706,706,706,706,706,706,706,706,706,706,706,706,706,706,706,706,706,706,705,703,691,676,660,643,619,618,617,614,613,609,608,607,607,607,607,607,607,607,606,606,606,605,601,594,578,578,578,578,578,577,575,572,566,560,560,560,560,560,560,560,560,560,560,560,560,560,560,559,559,559,559,559,559,559,559,559,559,559,559,559,558,554,520],"ymouse":[505,505,505,505,505,505,505,505,505,505,505,505,505,505,505,505,505,505,505,505,505,505,505,505,505,505,505,505,505,505,505,505,505,505,505,505,505,505,505,505,505,505,505,505,505,505,505,505,505,505,505,505,505,505,505,505,505,505,505,505,505,505,505,505,505,505,505,505,505,505,505,505,505,505,505,505,505,505,505,505,505,505,492,477,459,448,438,424,418,416,416,416,416,416,416,416,416,416,416,417,421,425,425,423,420,416,408,371,336,281,218,157,70,57,51,49,48,48,48,47,46,44,42,42,42,42,42,42,42,42,42,42,42,42,42,44,47,66,82,93,98,100,101,101,101,101,101,101,101,101,101,101,101,101,101,101,101,101,101,101,101,98,73,51,42,37,36,36,36,36,36,36,35,33,30,28,26,25,25,25,25,25,26,27,29,29,29,30,30,30,30,31,39,41,44,46,48,49,50,52,54,58,66,68,70,72,72,74,74,74,74,74,74,74,71,67,63,55,52,51,51,51,51,51,55,62,66,69,70,70,70,70,70,70,70,70,70,66,63,59,55,50,48,46,44,41,37,35,35,35,35,35,36,38,38,38,38,35,33,32,32,32,32,32,33,33,34,34,34,34,34,34,34,34,34,34,34,34,34,34,35,36,36,36,33,31,31,31,31,31,31,31,31,31,31,31,32,34,38,42,45,45,46,46,46,46,47,48,48,48,49,49,49,50,50,51,51,52,52,52,52,52,52,52,52,52,52,52,52,52,52,52,52,52,52,52,52,52,52,52,52,52,46,46,47,48,48,49,49,50,52,53,54,54,54,55,55,55,55,55,55,53,46,45,45,45,44,43,42,42,42,42,42,42,42,42,42,42,45,48,51,55,73,79,83,85,85,85,85,85,83,83,83,83,83,83,83,83,81,78,76,74,72,71,70,70,70,65,62,58,54,49,45,45,45,45,45,42,36,35,34,34,34,34,39,45,52,54,54,54,54,54,54,54,54,54,54,54,54,54,54,53,42,40,40,40,39,37,36,35,35,34,33,33,33,33,32,32,32,32,32,32,32,32,32,32,32,32,32,32,32,32,32,32,32,32,32,32,32,32,32,32,32,32,32,32,32,32,32,32,32,32,32,32,32,32,32,32,30,28,26,25,22,22,22,22,22,21,21,20,20,20,20,20,20,20,20,20,20,20,20,20,20,20,20,20,20,20,20,20,20,20,20,20,20,20,20,20,20,20,20,20,20,20,20,20,20,20,20,20,20,20,20,20,20,20,20,20,20,20,20],"timestamp_mouse":[15,36,55,75,95,115,135,155,175,195,215,235,255,275,295,315,335,354,374,394,414,434,454,474,494,514,534,554,574,594,614,634,654,674,694,714,734,754,774,794,815,834,854,874,894,914,934,954,974,994,1014,1034,1054,1074,1094,1114,1134,1154,1174,1194,1214,1234,1254,1274,1294,1314,1334,1354,1374,1394,1414,1434,1454,1474,1494,1516,1536,1556,1576,1596,1615,1635,1655,1676,1695,1716,1735,1756,1776,1795,1815,1836,1855,1875,1895,1915,1935,1956,1975,1995,2015,2035,2055,2076,2095,2115,2136,2154,2174,2195,2214,2235,2254,2274,2294,2314,2334,2354,2375,2395,2415,2434,2455,2475,2494,2515,2535,2554,2574,2594,2614,2634,2655,2675,2694,2715,2735,2754,2774,2794,2815,2835,2854,2874,2894,2914,2935,2954,2974,2995,3015,3035,3054,3075,3095,3115,3134,3154,3174,3194,3214,3236,3256,3275,3295,3316,3335,3355,3376,3395,3416,3436,3454,3475,3496,3515,3536,3556,3576,3596,3615,3635,3656,3675,3694,3715,3735,3755,3775,3795,3816,3835,3855,3876,3896,3915,3936,3954,3976,3996,4016,4035,4055,4075,4096,4116,4136,4156,4176,4195,4216,4236,4254,4276,4295,4314,4335,4354,4374,4394,4415,4434,4455,4474,4494,4514,4534,4555,4574,4594,4614,4634,4655,4674,4694,4714,4735,4755,4774,4794,4814,4834,4855,4875,4895,4914,4934,4954,4974,4994,5014,5034,5055,5074,5096,5116,5136,5154,5176,5196,5216,5236,5254,5276,5295,5315,5335,5355,5376,5396,5416,5435,5455,5475,5495,5515,5534,5554,5574,5594,5614,5634,5654,5674,5694,5715,5735,5754,5774,5795,5815,5835,5855,5875,5895,5915,5935,5954,5974,5995,6015,6035,6055,6075,6094,6114,6136,6154,6174,6194,6214,6236,6254,6274,6294,6314,6336,6354,6374,6394,6414,6434,6455,6475,6495,6514,6534,6554,6574,6594,6614,6634,6654,6674,6694,6714,6734,6755,6774,6795,6815,6836,6855,6874,6894,6914,6934,6954,6974,6994,7015,7034,7054,7074,7094,7115,7134,7154,7174,7195,7214,7234,7254,7274,7294,7314,7334,7355,7375,7395,7415,7435,7455,7475,7496,7516,7535,7556,7576,7596,7615,7635,7656,7675,7696,7716,7736,7755,7775,7795,7816,7835,7856,7875,7896,7915,7936,7955,7974,7994,8014,8034,8055,8074,8094,8114,8135,8154,8175,8194,8214,8234,8254,8274,8295,8314,8334,8354,8375,8394,8414,8434,8454,8474,8494,8514,8534,8554,8575,8595,8614,8634,8655,8675,8695,8714,8735,8755,8774,8794,8814,8835,8854,8875,8895,8915,8935,8954,8975,8994,9014,9034,9054,9074,9094,9114,9135,9155,9174,9195,9214,9234,9255,9275,9294,9315,9334,9354,9375,9395,9415,9435,9455,9474,9494,9514,9535,9554,9575,9595,9615,9636,9655,9675,9696,9715,9735,9756,9775,9795,9815,9835,9856,9875,9895,9915,9936,9956,9975,9996,10015,10035,10055,10075,10095,10115,10136,10154,10175,10195,10215,10235,10255,10274,10295,10314,10336,10355,10376,10396,10416,10436,10455,10476,10496,10515,10536,10555,10575,10596,10616,10636,10655,10675,10694,10715,10734,10754,10774,10794,10815,10834,10855,10874,10894,10915,10934,10954,10974,10994,11014,11034,11055,11074,11094,11114,11134,11154,11175,11194,11215],"xSR":741.5,"ySR":490.1,"xT1":424.9,"yT1":0,"xT2":1058.1,"yT2":0,"toosoon":0,"cond_shown":"Congruent","ratio_trial":100,"L_num":12,"L_den":30,"R_num":13,"R_den":26,"correct_side":2,"subjID":"DavidBrragan6","gender":"0","school":"6","age":"11"},{"start_time":1551790135731,"click_time":1551790139063,"finger_time":1551790136721,"fix_duration":649.2853857586038,"trial":33,"RT":990,"MT":2342,"sideResp":2,"stimulus":[],"xmouse":[780,780,780,780,780,780,780,780,780,780,780,780,780,780,780,782,783,785,785,785,785,785,785,785,785,785,785,785,785,785,785,785,785,785,785,785,785,785,785,785,785,785,785,785,785,787,792,805,837,839,839,840,868,1007,1088,1151,1172,1177,1177,1177,1177,1178,1178,1146,1120,1100,1083,1066,1030,1010,985,957,929,894,889,887,887,887,887,887,887,886,883,882,882,881,880,875,853,845,838,833,818,808,794,775,756,678,569,488,415,362,318,284,283,283,283,283,283,283,283,283,283,283,283,283,283,283,283,283,283,283,283,283,283,283,283,283,281,280,276,268,261,254,252,249,245,239,231,230,229,228,227,217,217,217,217,217,217,287,525,870,1265,1265,1265,1265,1265,1265,1265,1265,1265,1576,1534,1375,1275,1170,1075],"ymouse":[569,569,569,569,569,569,569,569,569,569,569,569,569,569,568,564,562,561,560,560,560,560,560,560,560,560,560,560,560,560,560,560,560,560,560,560,560,560,560,560,560,560,560,560,560,559,555,544,500,485,468,444,400,261,205,172,158,154,154,154,154,154,153,144,141,138,135,131,126,124,122,120,116,111,110,110,110,110,110,110,110,110,110,110,110,110,111,111,113,113,115,115,115,115,115,115,115,115,115,115,115,113,107,100,100,100,100,100,100,100,100,100,100,100,100,100,100,100,100,100,100,100,100,100,100,100,100,100,99,99,99,99,99,99,99,99,99,99,99,99,99,99,99,99,99,99,99,99,99,86,77,77,77,77,77,77,77,77,77,77,77,46,52,55,55,43,29],"timestamp_mouse":[11,31,51,72,91,111,131,151,172,191,211,231,251,271,291,311,331,352,372,390,410,430,451,470,490,510,530,550,570,590,610,630,650,670,690,710,730,750,770,790,810,830,850,870,890,911,931,950,970,990,1011,1030,1050,1070,1090,1111,1130,1151,1170,1191,1211,1231,1250,1270,1291,1310,1331,1351,1370,1391,1410,1430,1450,1471,1491,1511,1532,1552,1571,1591,1612,1632,1651,1671,1692,1711,1732,1751,1771,1792,1811,1831,1851,1870,1892,1911,1932,1951,1970,1991,2011,2031,2051,2071,2092,2112,2131,2151,2170,2191,2211,2231,2252,2270,2290,2311,2331,2350,2371,2390,2411,2430,2451,2470,2490,2510,2530,2550,2570,2590,2610,2631,2651,2670,2691,2710,2730,2751,2770,2791,2810,2831,2850,2870,2890,2910,2931,2950,2971,2991,3010,3030,3051,3071,3090,3110,3131,3151,3170,3191,3210,3232,3252,3272,3291,3311,3332],"xSR":741.5,"ySR":490.1,"xT1":424.9,"yT1":0,"xT2":1058.1,"yT2":0,"toosoon":0,"cond_shown":"Congruent","ratio_trial":200,"L_num":3,"L_den":10,"R_num":14,"R_den":28,"correct_side":2,"subjID":"DavidBrragan6","gender":"0","school":"6","age":"11"},{"start_time":1551790142205,"click_time":1551790145142,"finger_time":1551790143002,"fix_duration":1083.729439680022,"trial":34,"RT":797,"MT":2140,"sideResp":1,"stimulus":[],"xmouse":[769,769,769,769,769,769,769,769,769,769,769,769,769,769,769,769,769,769,769,769,769,769,769,769,769,769,769,769,769,769,769,769,769,769,769,769,769,757,748,626,526,416,313,232,54,0,0,0,0,0,0,0,0,0,0,0,0,0,0,0,0,0,1,1,2,2,2,3,4,143,411,820,1312,1312,1312,1312,1312,1312,1312,1312,1576,1562,1550,1540,1528,1527,1525,1525,1524,1520,1517,1514,1511,1509,1506,1506,1506,1505,1505,1503,1502,1501,1500,1499,1495,1492,1484,1470,1452,1382,1304,1205,1205,1205,1205,1205,1205,1205,1205,1205,1205,1205,1205,1205,1205,1205,1205,1205,1205,1205,1205,1205,1205,1205,1205,1205,1205,1205,1205,1205,1205,1205,1205,1205,279,376,503],"ymouse":[536,536,536,536,536,536,536,536,536,536,536,536,536,536,536,536,536,536,536,536,536,536,536,536,536,536,536,536,536,536,536,536,536,536,536,536,536,542,546,587,603,611,611,603,566,537,507,487,472,435,415,392,371,353,288,254,226,206,191,172,161,153,143,139,131,129,128,126,123,92,76,76,76,76,76,76,76,76,76,76,86,86,84,81,77,76,76,76,76,76,76,76,76,76,76,76,76,76,76,76,76,76,76,76,76,75,73,69,64,45,23,4,4,4,4,4,4,4,4,4,4,4,4,4,4,4,4,4,4,4,4,4,4,4,4,4,4,4,4,4,4,4,4,4,22,50,85],"timestamp_mouse":[16,37,57,77,98,117,136,156,176,196,216,236,256,276,296,316,336,356,376,396,416,436,456,476,496,516,536,556,576,597,616,636,656,676,696,716,736,757,777,797,816,836,857,877,896,917,936,956,976,996,1017,1037,1057,1076,1096,1117,1136,1157,1176,1196,1216,1237,1257,1278,1297,1317,1338,1358,1378,1398,1418,1438,1458,1477,1498,1517,1538,1557,1578,1597,1617,1637,1657,1677,1697,1717,1737,1757,1777,1797,1817,1837,1857,1876,1896,1917,1936,1957,1976,1996,2017,2037,2056,2076,2096,2117,2136,2156,2176,2196,2216,2237,2257,2277,2296,2316,2337,2358,2378,2398,2418,2437,2458,2478,2497,2517,2538,2556,2576,2597,2617,2636,2657,2677,2697,2716,2736,2756,2778,2796,2817,2836,2857,2877,2897,2916,2937],"xSR":741.5,"ySR":490.1,"xT1":424.9,"yT1":0,"xT2":1058.1,"yT2":0,"toosoon":0,"cond_shown":"Incongruent","ratio_trial":200,"L_num":6,"L_den":20,"R_num":3,"R_den":6,"correct_side":2,"subjID":"DavidBrragan6","gender":"0","school":"6","age":"11"},{"start_time":1551790149954,"click_time":1551790151402,"finger_time":1551790150261,"fix_duration":1331.7267198796424,"trial":35,"RT":307,"MT":1141,"sideResp":1,"stimulus":[],"xmouse":[780,780,780,780,780,780,780,780,780,780,780,780,780,783,797,826,920,1057,1068,1070,1072,1099,1277,1385,1478,1478,1478,1478,1478,1478,1478,1478,843,603,360,142,0,0,0,0,0,0,0,0,0,0,0,0,0,0,0,0,16,87,199,346,529,1051,1269,1484,1484,1484,1484,1484,1484,1560,1405,661,661,661,661,661,515],"ymouse":[536,536,536,536,536,536,536,536,536,536,536,536,536,527,503,455,334,197,168,156,148,120,41,15,0,0,0,0,0,0,0,0,64,103,140,172,197,211,211,211,211,211,211,211,211,211,212,212,212,212,212,212,198,162,126,96,69,60,60,80,80,80,80,80,80,160,135,2,2,2,2,2,17],"timestamp_mouse":[7,27,47,67,87,108,127,147,167,187,207,227,247,267,287,307,327,347,367,387,407,428,447,467,487,507,527,548,568,587,607,628,648,668,687,707,727,747,767,787,807,827,847,867,888,907,928,947,968,988,1007,1027,1048,1068,1088,1109,1128,1148,1169,1188,1208,1229,1248,1268,1288,1307,1327,1348,1368,1387,1407,1428,1448],"xSR":741.5,"ySR":490.1,"xT1":424.9,"yT1":0,"xT2":1058.1,"yT2":0,"toosoon":0,"cond_shown":"Congruent","ratio_trial":300,"L_num":2,"L_den":20,"R_num":10,"R_den":25,"correct_side":2,"subjID":"DavidBrragan6","gender":"0","school":"6","age":"11"},{"start_time":1551790156993,"click_time":1551790164901,"finger_time":1551790164001,"fix_duration":250,"trial":36,"RT":7008,"MT":900,"sideResp":2,"stimulus":[],"xmouse":[801,801,801,801,801,801,801,801,801,801,801,801,801,801,801,801,801,801,801,801,801,801,801,801,801,801,801,801,801,801,801,801,801,801,801,801,801,801,801,801,801,801,801,801,801,801,801,801,801,801,801,801,801,801,801,801,801,801,801,801,801,801,801,801,801,801,801,801,801,801,801,801,801,801,801,801,801,801,801,801,801,801,801,801,801,801,801,801,801,801,801,801,801,801,801,801,801,801,801,801,801,801,801,801,801,801,801,801,801,801,801,801,801,801,801,801,801,801,801,801,801,801,801,801,801,801,801,801,801,801,801,801,801,801,801,801,801,801,801,801,801,801,801,801,801,801,801,801,801,801,801,801,801,801,801,801,801,801,801,801,801,801,801,801,801,801,801,801,801,801,801,801,801,801,801,801,801,801,801,801,801,801,801,801,801,801,801,801,801,801,801,801,801,801,801,801,801,801,801,801,801,801,801,801,801,801,801,801,801,801,801,801,801,801,801,801,801,801,801,801,801,801,801,801,801,801,801,801,801,801,801,801,801,801,801,801,801,801,801,801,801,801,801,801,801,801,801,801,801,801,801,801,801,801,801,801,801,801,801,801,801,801,801,801,801,801,801,801,801,801,801,801,801,801,801,801,801,801,801,801,801,801,801,801,801,801,801,801,801,801,801,801,801,801,801,801,801,801,801,801,801,801,801,801,801,801,801,801,801,801,801,801,801,801,801,801,801,801,801,801,801,801,801,801,801,801,801,801,801,801,801,801,801,801,800,790,789,788,788,788,788,789,794,798,799,799,799,799,800,810,856,907,973,1032,1090,1115,1121,1127,1132,1134,1135,1135,1134,1132,1131,1131,1131,1131,1131,1131,1130,1130,1129,1129,1129,1129,1129,1129,1129,1129,1129,1129,1128,1128,1128,1128,1128,1128,1128,1128,1128,1128,1128,1127,1127,1075],"ymouse":[534,534,534,534,534,534,534,534,534,534,534,534,534,534,534,534,534,534,534,534,534,534,534,534,534,534,534,534,534,534,534,534,534,534,534,534,534,534,534,534,534,534,534,534,534,534,534,534,534,534,534,534,534,534,534,534,534,534,534,534,534,534,534,534,534,534,534,534,534,534,534,534,534,534,534,534,534,534,534,534,534,534,534,534,534,534,534,534,534,534,534,534,534,534,534,534,534,534,534,534,534,534,534,534,534,534,534,534,534,534,534,534,534,534,534,534,534,534,534,534,534,534,534,534,534,534,534,534,534,534,534,534,534,534,534,534,534,534,534,534,534,534,534,534,534,534,534,534,534,534,534,534,534,534,534,534,534,534,534,534,534,534,534,534,534,534,534,534,534,534,534,534,534,534,534,534,534,534,534,534,534,534,534,534,534,534,534,534,534,534,534,534,534,534,534,534,534,534,534,534,534,534,534,534,534,534,534,534,534,534,534,534,534,534,534,534,534,534,534,534,534,534,534,534,534,534,534,534,534,534,534,534,534,534,534,534,534,534,534,534,534,534,534,534,534,534,534,534,534,534,534,534,534,534,534,534,534,534,534,534,534,534,534,534,534,534,534,534,534,534,534,534,534,534,534,534,534,534,534,534,534,534,534,534,534,534,534,534,534,534,534,534,534,534,534,534,534,534,534,534,534,534,534,534,534,534,534,534,534,534,534,534,534,534,534,534,534,534,534,534,534,534,534,534,534,534,534,534,534,534,534,534,534,534,533,526,525,524,524,524,523,521,521,521,521,521,521,521,521,510,460,418,364,316,250,210,195,179,166,154,130,126,123,121,120,120,120,120,120,120,120,120,120,120,120,120,120,120,120,120,121,121,122,125,126,127,127,127,127,127,127,127,127,127,127,77],"timestamp_mouse":[14,28,48,68,88,108,128,148,168,188,210,228,250,269,290,309,329,349,369,389,409,429,449,469,489,509,529,549,569,589,609,629,649,669,689,709,729,748,768,788,808,828,848,868,888,909,928,948,968,988,1008,1028,1048,1068,1088,1108,1128,1148,1168,1188,1208,1228,1248,1268,1288,1308,1328,1348,1368,1388,1408,1428,1450,1469,1489,1509,1529,1549,1569,1589,1609,1629,1649,1669,1689,1708,1729,1748,1768,1788,1808,1828,1848,1868,1888,1908,1928,1948,1968,1988,2008,2028,2048,2068,2088,2108,2128,2148,2168,2188,2208,2228,2248,2268,2288,2308,2328,2348,2368,2388,2408,2428,2448,2468,2488,2508,2528,2548,2568,2588,2608,2628,2648,2668,2688,2708,2728,2748,2768,2788,2808,2828,2848,2868,2888,2910,2928,2949,2969,2990,3009,3029,3050,3070,3089,3109,3129,3149,3169,3189,3209,3229,3249,3269,3289,3309,3329,3349,3369,3389,3409,3429,3449,3468,3488,3508,3528,3548,3568,3588,3608,3628,3648,3668,3688,3708,3728,3748,3768,3788,3808,3828,3848,3868,3888,3908,3928,3948,3968,3988,4008,4028,4048,4068,4088,4108,4128,4148,4168,4188,4208,4228,4248,4268,4288,4308,4328,4348,4368,4388,4408,4428,4448,4468,4488,4508,4528,4548,4568,4588,4608,4628,4648,4668,4690,4710,4730,4749,4770,4789,4809,4829,4849,4869,4889,4909,4929,4949,4969,4989,5009,5029,5049,5069,5089,5109,5129,5149,5168,5189,5208,5228,5248,5268,5288,5308,5328,5348,5368,5388,5408,5428,5448,5468,5488,5508,5528,5548,5568,5588,5608,5628,5648,5668,5688,5708,5728,5748,5768,5788,5808,5828,5848,5868,5888,5908,5928,5948,5968,5988,6008,6028,6048,6068,6088,6108,6128,6148,6168,6188,6208,6228,6248,6268,6288,6308,6328,6348,6370,6388,6410,6430,6450,6470,6489,6509,6529,6549,6569,6589,6609,6629,6649,6669,6690,6710,6730,6750,6769,6789,6809,6829,6850,6870,6889,6908,6928,6949,6969,6989,7008,7029,7048,7068,7088,7108,7128,7148,7168,7188,7209,7229,7249,7269,7288,7308,7328,7348,7368,7388,7409,7429,7448,7468,7489,7509,7528,7549,7569,7588,7608,7628,7649,7668,7689,7708,7728,7748,7768,7788,7808,7828,7848,7868,7888,7908],"xSR":741.5,"ySR":490.1,"xT1":424.9,"yT1":0,"xT2":1058.1,"yT2":0,"toosoon":0,"cond_shown":"Congruent","ratio_trial":200,"L_num":21,"L_den":30,"R_num":2,"R_den":4,"correct_side":1,"subjID":"DavidBrragan6","gender":"0","school":"6","age":"11"},{"start_time":1551790166999,"click_time":1551790167481,"finger_time":1551790167261,"fix_duration":1117.7258133670236,"trial":37,"RT":262,"MT":220,"sideResp":1,"stimulus":[],"xmouse":[815,815,815,815,815,815,815,815,815,815,815,815,814,810,794,723,686,655,636,620,597,582,560,535,517],"ymouse":[500,500,500,500,500,500,500,500,500,500,500,500,495,481,424,231,179,148,129,114,88,73,56,44,39],"timestamp_mouse":[3,22,42,62,82,102,122,142,162,182,202,222,242,262,282,303,323,343,362,383,402,422,442,462,482],"xSR":741.5,"ySR":490.1,"xT1":424.9,"yT1":0,"xT2":1058.1,"yT2":0,"toosoon":0,"cond_shown":"Congruent","ratio_trial":100,"L_num":2,"L_den":5,"R_num":6,"R_den":12,"correct_side":2,"subjID":"DavidBrragan6","gender":"0","school":"6","age":"11"},{"start_time":1551790169247,"click_time":1551790169683,"finger_time":1551790169361,"fix_duration":705.9373441805251,"trial":38,"RT":114,"MT":322,"sideResp":2,"stimulus":[],"xmouse":[777,777,778,785,795,810,832,910,965,1028,1093,1140,1168,1168,1168,1168,1167,1167,1165,1160,1153,1141],"ymouse":[524,524,522,514,503,487,467,412,380,351,321,299,282,278,276,270,256,210,169,131,103,84],"timestamp_mouse":[15,35,56,76,95,114,135,154,174,194,214,234,254,274,295,314,334,355,374,395,415,436],"xSR":741.5,"ySR":490.1,"xT1":424.9,"yT1":0,"xT2":1058.1,"yT2":0,"toosoon":0,"cond_shown":"Congruent","ratio_trial":200,"L_num":8,"L_den":15,"R_num":7,"R_den":21,"correct_side":1,"subjID":"DavidBrragan6","gender":"0","school":"6","age":"11"},{"start_time":1551790173303,"click_time":1551790173941,"finger_time":1551790173601,"fix_duration":460.1034264976093,"trial":39,"RT":298,"MT":340,"sideResp":1,"stimulus":[],"xmouse":[780,780,780,780,780,780,780,780,780,780,780,780,780,780,762,739,697,641,560,560,560,560,560,560,560,560,560,560,560,560,560,498],"ymouse":[550,550,550,550,550,550,550,550,550,550,550,550,550,545,484,408,308,187,17,17,17,17,17,17,17,17,17,17,17,17,17,9],"timestamp_mouse":[23,39,58,80,98,119,138,159,178,198,220,239,259,279,298,318,339,358,378,398,419,438,459,480,498,518,538,558,578,598,618,638],"xSR":741.5,"ySR":490.1,"xT1":424.9,"yT1":0,"xT2":1058.1,"yT2":0,"toosoon":0,"cond_shown":"Congruent","ratio_trial":200,"L_num":14,"L_den":28,"R_num":6,"R_den":20,"correct_side":1,"subjID":"DavidBrragan6","gender":"0","school":"6","age":"11"},{"start_time":1551790175153,"click_time":1551790177161,"finger_time":1551790176781,"fix_duration":250,"trial":40,"RT":1628,"MT":380,"sideResp":2,"stimulus":[],"xmouse":[774,774,774,774,774,774,774,774,774,774,774,774,775,776,776,776,776,776,776,776,776,776,776,776,776,777,778,780,781,782,782,782,782,782,782,782,782,782,782,782,782,782,782,782,782,782,782,782,782,782,782,782,782,782,782,782,782,782,782,782,782,782,782,782,782,782,782,782,782,782,782,782,782,782,782,782,782,782,784,788,795,804,820,852,928,999,1050,1084,1084,1084,1084,1084,1085,1085,1086,1087,1088,1090,1094,1096,1099],"ymouse":[508,508,508,508,508,508,508,508,508,508,508,509,511,512,512,512,512,512,512,512,512,512,512,512,512,512,511,509,508,508,507,507,507,507,507,507,507,507,507,507,507,507,507,507,507,507,507,507,507,507,507,507,507,507,507,507,507,507,507,507,507,507,507,507,507,507,507,507,507,507,507,507,507,507,507,507,507,507,507,503,492,474,404,344,269,204,160,123,122,122,122,122,122,122,121,121,120,115,109,106,99],"timestamp_mouse":[8,29,48,68,90,109,129,149,169,189,210,229,249,269,289,308,328,348,369,388,408,428,449,468,490,510,528,550,569,588,608,628,649,670,690,709,728,748,768,790,809,828,850,869,888,909,928,950,968,990,1009,1028,1049,1068,1089,1109,1128,1148,1168,1188,1210,1229,1249,1269,1290,1308,1329,1348,1368,1388,1408,1428,1448,1468,1488,1508,1528,1548,1569,1589,1609,1628,1648,1669,1688,1708,1728,1748,1769,1788,1808,1828,1848,1868,1889,1909,1929,1948,1969,1990,2008],"xSR":741.5,"ySR":490.1,"xT1":424.9,"yT1":0,"xT2":1058.1,"yT2":0,"toosoon":0,"cond_shown":"Congruent","ratio_trial":300,"L_num":1,"L_den":30,"R_num":8,"R_den":24,"correct_side":2,"subjID":"DavidBrragan6","gender":"0","school":"6","age":"11"},{"start_time":1551790180593,"click_time":1551790182902,"finger_time":1551790182002,"fix_duration":1190.2979541415934,"trial":41,"RT":1409,"MT":900,"sideResp":1,"stimulus":[],"xmouse":[792,792,792,792,792,792,792,792,792,792,792,792,792,792,792,792,792,792,792,792,792,792,792,792,792,793,794,794,794,795,795,796,797,798,798,798,798,798,798,798,798,798,798,798,798,798,798,798,798,798,798,798,798,798,798,798,798,798,798,798,798,798,798,798,798,798,798,798,797,795,775,757,740,722,713,693,688,685,685,685,684,683,678,670,646,625,609,593,584,576,572,572,571,571,569,560,550,543,537,536,535,534,533,533,530,526,523,520,519,518,514,511,508,506,501,489],"ymouse":[550,550,550,550,550,550,550,550,550,550,550,550,550,550,550,550,550,550,550,550,550,550,550,545,544,539,536,536,536,535,535,535,534,534,534,534,534,534,534,534,534,534,534,534,534,534,534,534,534,534,534,534,534,534,534,534,534,534,534,534,534,534,534,534,534,534,534,534,532,526,460,405,362,328,309,277,270,267,266,266,266,264,260,251,228,214,202,192,186,181,177,177,177,176,174,167,158,153,149,148,147,146,146,145,143,139,136,132,131,130,124,120,115,112,105,87],"timestamp_mouse":[10,42,49,68,88,108,130,149,169,189,210,230,248,268,288,310,329,349,368,389,408,428,450,469,489,508,528,548,569,590,608,628,649,668,688,709,728,748,769,788,810,828,848,870,890,908,928,948,969,988,1009,1029,1048,1070,1088,1109,1129,1148,1169,1189,1208,1229,1248,1269,1288,1308,1329,1348,1368,1388,1409,1428,1449,1469,1489,1509,1528,1548,1570,1589,1609,1629,1649,1668,1690,1708,1729,1748,1769,1789,1809,1828,1848,1868,1888,1908,1928,1948,1969,1990,2009,2028,2048,2068,2090,2108,2129,2148,2168,2189,2208,2228,2248,2269,2288,2309],"xSR":741.5,"ySR":490.1,"xT1":424.9,"yT1":0,"xT2":1058.1,"yT2":0,"toosoon":0,"cond_shown":"Incongruent","ratio_trial":100,"L_num":9,"L_den":15,"R_num":13,"R_den":26,"correct_side":1,"subjID":"DavidBrragan6","gender":"0","school":"6","age":"11"},{"start_time":1551790184213,"click_time":1551790186381,"finger_time":1551790185921,"fix_duration":250,"trial":42,"RT":1708,"MT":460,"sideResp":1,"stimulus":[],"xmouse":[756,756,756,756,756,756,756,756,757,757,757,757,757,757,757,757,757,757,757,757,757,757,757,757,757,757,757,757,757,757,757,757,757,757,757,757,757,757,757,757,757,757,757,757,757,757,757,757,757,757,757,757,757,757,757,757,757,757,757,757,757,757,757,757,757,757,757,757,757,757,757,757,757,757,757,757,757,757,757,757,757,757,757,756,747,735,724,710,682,672,664,659,652,648,627,621,614,604,594,579,576,574,573,572,564,559,553,539,517],"ymouse":[554,554,554,554,554,554,554,554,554,554,554,554,554,554,554,554,554,554,554,554,554,554,554,554,554,554,554,554,554,554,554,554,554,554,554,554,554,554,554,554,554,554,554,554,554,554,554,554,554,554,554,554,554,554,554,554,554,554,554,554,554,554,554,554,554,554,554,554,554,554,554,554,554,554,554,554,554,554,554,554,554,554,550,538,517,503,488,472,426,402,376,345,309,263,193,174,158,141,128,106,101,98,96,95,93,90,88,84,82],"timestamp_mouse":[10,34,48,69,88,110,128,148,170,189,209,229,249,269,289,308,330,349,369,389,409,430,449,469,488,509,530,548,569,588,608,628,650,669,688,709,728,748,768,789,809,828,848,868,889,910,930,948,968,988,1009,1029,1048,1069,1089,1108,1128,1149,1169,1190,1210,1229,1249,1270,1288,1308,1328,1349,1368,1388,1408,1430,1449,1470,1490,1508,1528,1549,1570,1597,1608,1630,1649,1670,1688,1708,1728,1748,1770,1789,1809,1829,1850,1869,1888,1909,1929,1948,1969,1988,2008,2029,2049,2069,2089,2110,2128,2149,2168],"xSR":741.5,"ySR":490.1,"xT1":424.9,"yT1":0,"xT2":1058.1,"yT2":0,"toosoon":0,"cond_shown":"Congruent","ratio_trial":300,"L_num":3,"L_den":6,"R_num":2,"R_den":10,"correct_side":1,"subjID":"DavidBrragan6","gender":"0","school":"6","age":"11"},{"start_time":1551790187681,"click_time":1551790189322,"finger_time":1551790188981,"fix_duration":379.1458976651584,"trial":43,"RT":1300,"MT":341,"sideResp":1,"stimulus":[],"xmouse":[764,764,764,764,764,764,764,764,764,764,764,764,764,764,764,764,764,764,764,764,764,764,764,764,764,764,764,764,764,764,764,764,764,764,764,764,764,764,764,764,764,764,764,764,764,764,764,764,764,764,764,764,764,764,764,764,764,764,764,764,764,764,764,764,764,744,686,654,633,617,607,599,593,590,585,581,573,566,555,546,535,529,522],"ymouse":[573,573,573,573,573,573,573,573,573,573,573,573,573,573,573,573,573,573,573,573,573,573,573,573,573,573,573,573,573,573,573,573,573,573,573,573,573,573,573,573,573,573,573,573,573,573,573,573,573,573,573,573,573,573,573,573,573,573,573,573,573,573,573,568,525,452,310,254,217,190,172,146,124,110,100,93,81,73,63,56,48,44,41],"timestamp_mouse":[9,35,40,62,80,100,121,141,160,182,200,222,241,260,281,300,322,342,361,382,401,420,441,461,481,500,520,542,560,582,601,621,640,660,681,700,720,740,761,780,801,821,841,860,881,901,921,942,962,980,1001,1021,1040,1061,1082,1100,1120,1140,1160,1182,1200,1220,1241,1261,1280,1300,1321,1340,1360,1381,1400,1420,1440,1461,1481,1501,1521,1541,1560,1581,1600,1620,1641],"xSR":741.5,"ySR":490.1,"xT1":424.9,"yT1":0,"xT2":1058.1,"yT2":0,"toosoon":0,"cond_shown":"Incongruent","ratio_trial":200,"L_num":7,"L_den":10,"R_num":8,"R_den":16,"correct_side":1,"subjID":"DavidBrragan6","gender":"0","school":"6","age":"11"},{"start_time":1551790190273,"click_time":1551790192282,"finger_time":1551790191883,"fix_duration":250,"trial":44,"RT":1610,"MT":399,"sideResp":1,"stimulus":[],"xmouse":[780,780,780,780,780,780,780,780,780,780,780,780,780,780,780,780,780,780,780,780,780,780,780,780,780,780,780,780,780,780,780,780,780,780,780,780,780,780,780,780,780,780,780,780,780,780,780,780,780,780,780,780,780,780,780,780,780,780,780,780,780,780,780,780,780,780,780,780,780,781,781,781,781,781,781,781,782,783,787,791,797,785,778,770,766,759,712,680,662,657,655,654,648,637,626,618,612,608,591,553,481],"ymouse":[564,564,564,564,564,564,564,564,564,564,564,564,564,564,564,564,564,564,564,564,564,564,564,564,564,564,564,564,564,564,564,564,564,564,564,564,564,564,564,564,564,564,564,564,564,564,564,564,564,564,564,564,564,564,564,564,564,564,564,564,564,564,564,564,564,564,564,564,564,564,564,564,564,564,564,564,563,560,547,527,445,387,363,346,335,315,225,183,162,154,151,150,144,136,127,120,113,106,86,57,30],"timestamp_mouse":[9,28,49,68,89,108,129,148,168,189,210,228,248,268,288,309,328,349,369,389,410,429,449,470,490,509,528,548,570,590,608,629,649,669,688,710,730,749,768,789,810,828,848,869,889,909,928,948,969,989,1009,1028,1049,1069,1089,1109,1128,1148,1168,1188,1209,1229,1248,1269,1289,1308,1328,1349,1370,1390,1409,1429,1449,1468,1488,1509,1528,1549,1568,1588,1610,1628,1648,1668,1688,1709,1728,1748,1768,1789,1810,1829,1848,1868,1888,1909,1928,1948,1968,1989,2009],"xSR":741.5,"ySR":490.1,"xT1":424.9,"yT1":0,"xT2":1058.1,"yT2":0,"toosoon":0,"cond_shown":"Congruent","ratio_trial":100,"L_num":6,"L_den":20,"R_num":5,"R_den":25,"correct_side":1,"subjID":"DavidBrragan6","gender":"0","school":"6","age":"11"},{"start_time":1551790193666,"click_time":1551790195722,"finger_time":1551790195041,"fix_duration":463.12738633922004,"trial":45,"RT":1375,"MT":681,"sideResp":2,"stimulus":[],"xmouse":[751,753,753,753,753,753,753,753,753,753,753,753,753,753,753,753,753,753,753,753,753,753,753,753,753,753,753,753,753,753,753,753,753,753,753,753,753,753,753,753,753,753,753,753,753,753,753,753,753,753,753,753,753,753,753,753,753,753,753,753,753,753,753,753,753,753,756,762,765,755,733,681,650,627,613,595,592,591,590,590,590,590,593,609,679,736,796,867,935,1000,1081,1106,1112,1113,1115,1115,1115,1115,1115,1114,1110,1107],"ymouse":[523,524,524,524,524,524,524,524,524,524,524,524,524,524,524,524,524,524,524,524,524,524,524,524,524,524,524,524,524,524,524,524,524,524,524,524,524,524,524,524,524,524,524,524,524,524,524,524,524,524,524,524,524,524,524,524,524,524,524,524,524,524,524,524,524,524,499,461,424,355,309,230,193,162,141,116,110,106,106,106,106,106,105,111,135,143,151,161,171,178,187,188,186,184,176,168,163,156,142,130,106,95],"timestamp_mouse":[37,55,75,97,115,136,156,175,196,217,235,256,275,296,316,335,357,375,395,415,436,455,476,496,515,535,555,576,596,615,636,657,676,696,716,735,756,777,796,817,837,856,876,895,917,935,956,976,995,1015,1036,1055,1075,1095,1116,1136,1157,1176,1195,1216,1235,1257,1275,1295,1315,1337,1355,1375,1396,1417,1435,1456,1475,1496,1515,1535,1556,1575,1596,1617,1635,1656,1676,1696,1717,1735,1755,1775,1796,1815,1835,1855,1876,1897,1915,1935,1956,1975,1997,2016,2036,2056],"xSR":741.5,"ySR":490.1,"xT1":424.9,"yT1":0,"xT2":1058.1,"yT2":0,"toosoon":0,"cond_shown":"Incongruent","ratio_trial":200,"L_num":11,"L_den":20,"R_num":3,"R_den":4,"correct_side":2,"subjID":"DavidBrragan6","gender":"0","school":"6","age":"11"},{"start_time":1551790197629,"click_time":1551790198982,"finger_time":1551790198682,"fix_duration":1126.269143244361,"trial":46,"RT":1053,"MT":300,"sideResp":1,"stimulus":[],"xmouse":[763,763,763,763,763,763,763,763,763,763,763,763,763,763,763,763,763,763,763,763,763,763,763,763,763,763,763,763,763,763,763,763,763,763,763,763,763,763,763,763,763,763,763,763,763,763,763,763,763,763,760,743,705,583,541,531,527,526,525,523,522,522,522,522,521,520,515,509],"ymouse":[535,535,535,535,535,535,535,535,535,535,535,535,535,535,535,535,535,535,535,535,535,535,535,535,535,535,535,535,535,535,535,535,535,535,535,535,535,535,535,535,535,535,535,535,535,535,535,535,535,535,535,527,487,288,209,190,184,181,173,160,148,136,130,125,122,118,108,97],"timestamp_mouse":[12,35,53,72,93,112,132,153,172,194,213,233,252,272,292,313,332,352,372,392,414,432,452,472,493,513,533,552,574,592,612,633,652,674,694,712,734,754,773,793,814,833,853,872,892,914,932,953,972,992,1012,1033,1053,1073,1093,1113,1132,1152,1172,1193,1213,1232,1252,1272,1292,1312,1332,1353],"xSR":741.5,"ySR":490.1,"xT1":424.9,"yT1":0,"xT2":1058.1,"yT2":0,"toosoon":0,"cond_shown":"Incongruent","ratio_trial":300,"L_num":2,"L_den":4,"R_num":6,"R_den":30,"correct_side":1,"subjID":"DavidBrragan6","gender":"0","school":"6","age":"11"},{"start_time":1551790201113,"click_time":1551790202701,"finger_time":1551790202482,"fix_duration":1328.1325271297792,"trial":47,"RT":1369,"MT":219,"sideResp":2,"stimulus":[],"xmouse":[776,776,776,776,776,776,776,776,776,776,776,776,776,776,776,776,776,776,776,776,776,776,776,776,776,776,776,776,776,776,776,776,776,776,776,776,776,776,776,776,776,776,776,776,776,776,776,776,776,776,776,776,776,776,776,776,776,776,776,776,776,776,776,776,776,776,791,804,880,1027,1093,1136,1150,1158,1160,1161,1161,1161,1156,1137],"ymouse":[535,535,535,535,535,535,535,535,535,535,535,535,535,535,535,535,535,535,535,535,535,535,535,5