[{"start_time":1551891963550,"click_time":1551891985861,"finger_time":1551891963560,"fix_duration":866.417567334025,"trial":0,"RT":10,"MT":22301,"sideResp":1,"stimulus":[],"xmouse":[739,739,739,739,739,739,739,739,739,739,739,739,739,739,739,739,739,739,739,739,739,739,739,739,739,739,739,739,739,739,739,739,739,739,758,776,785,790,792,792,792,792,792,792,792,792,792,792,792,792,792,792,792,792,792,792,792,792,792,792,792,792,792,792,792,792,792,792,792,792,792,792,792,792,792,792,792,792,792,792,792,792,792,792,792,792,795,796,796,796,796,798,798,798,784,746,745,745,745,745,745,745,745,745,745,745,745,745,745,745,745,745,745,745,745,749,749,749,749,749,749,749,749,750,751,752,752,753,753,753,753,753,753,753,753,753,753,753,753,753,754,754,754,754,754,754,754,754,754,754,754,754,754,754,754,754,754,754,754,754,754,754,754,754,754,754,754,754,754,754,754,754,754,754,754,754,754,754,754,754,754,754,754,754,754,754,754,754,754,754,754,754,754,754,754,754,754,754,754,754,754,754,754,754,754,754,754,754,754,754,754,754,754,754,754,754,754,754,754,754,754,754,754,754,754,754,754,754,754,754,754,754,754,754,754,754,754,754,754,754,754,754,754,754,754,754,754,754,754,754,754,754,754,754,754,754,754,754,754,754,754,754,754,754,754,754,754,754,754,754,754,754,754,754,754,754,754,754,754,754,754,754,754,754,754,754,754,754,754,754,754,754,754,754,754,754,754,754,754,754,754,754,754,754,754,754,754,754,754,754,754,754,754,754,754,754,754,754,754,754,754,754,754,754,754,754,754,754,754,754,754,754,754,754,754,754,754,754,754,754,754,754,754,754,754,754,754,754,754,754,754,754,754,754,754,754,754,754,754,754,754,754,754,754,754,754,754,754,754,754,754,754,754,754,754,754,754,754,754,754,754,754,754,754,754,754,754,754,754,754,754,754,754,754,754,754,754,754,754,754,754,754,754,754,754,754,754,754,754,754,754,754,754,754,754,754,754,754,754,754,754,754,754,754,754,754,754,754,754,754,754,754,754,754,754,754,754,754,754,754,754,754,754,754,754,754,754,754,754,754,754,754,754,754,754,754,754,754,754,754,754,754,754,754,754,754,754,754,754,754,754,754,754,754,754,754,754,754,754,754,754,754,754,754,754,754,754,754,754,754,754,754,754,754,754,754,754,754,754,754,754,754,754,754,754,754,754,754,754,754,754,754,754,754,754,754,754,754,754,754,754,754,754,754,754,754,754,754,754,754,754,754,754,754,754,754,754,754,754,754,754,754,754,754,754,754,754,754,754,754,754,754,754,754,754,754,754,754,754,754,754,754,754,754,754,754,754,754,754,754,754,754,754,754,754,754,754,754,754,754,754,754,754,754,754,754,754,754,754,754,754,754,754,754,754,754,754,754,754,754,754,754,754,754,754,754,754,754,754,754,754,754,754,754,754,754,754,754,754,754,754,754,754,754,754,754,754,754,754,754,754,754,754,754,754,754,754,754,754,754,754,754,754,754,754,754,754,754,754,754,754,754,754,754,754,754,754,754,754,754,754,754,754,754,754,754,754,754,754,754,754,754,754,754,754,754,754,754,754,754,754,754,754,754,754,754,754,754,754,754,754,754,754,754,754,754,754,754,754,754,754,754,754,754,754,754,754,754,754,754,754,754,754,754,754,754,754,754,754,754,754,754,754,754,754,754,754,754,754,754,754,754,754,754,754,754,754,754,754,754,754,754,754,754,754,754,754,754,754,754,754,754,754,754,754,754,754,754,754,754,754,754,754,754,754,754,754,754,754,754,754,754,754,754,754,754,754,754,754,754,754,754,754,754,754,754,754,754,754,754,754,754,754,754,754,754,754,754,754,754,754,754,754,754,754,754,754,754,754,754,754,754,754,754,754,754,754,754,754,754,754,754,754,754,754,754,754,754,754,754,754,754,754,754,754,754,754,754,754,754,754,754,754,754,754,754,754,754,754,754,754,754,754,754,754,754,754,754,754,754,754,754,754,754,754,754,754,754,754,754,754,754,754,754,754,754,754,754,754,754,754,754,754,754,754,754,754,754,754,754,754,754,754,754,754,754,754,754,754,754,754,754,754,754,754,754,754,754,754,754,754,754,754,754,754,754,754,754,754,754,754,754,754,754,754,754,754,754,754,754,754,754,754,754,754,754,754,754,754,754,754,754,754,754,754,754,754,754,754,754,754,754,754,753,750,749,749,749,749,748,747,746,744,744,745,755,756,756,756,756,756,756,756,757,759,770,770,770,770,770,770,772,783,787,788,788,788,788,788,788,788,788,788,788,788,788,788,788,788,788,788,788,788,788,788,787,787,787,787,787,787,787,787,787,787,787,787,787,787,787,787,787,787,787,787,787,787,787,787,787,787,787,787,787,787,787,787,787,787,787,787,787,787,787,787,787,787,787,787,787,787,787,787,787,787,787,787,787,787,787,787,787,787,787,787,787,787,787,787,787,787,787,787,794,810,731,703,691,684,683,682,682,682,682,682,682,682,682,680,678,650,603,595,595,595,595,595,594,593,592,592,592,592,584,569,559,559,559,559,558,558,558,555,549,547,521],"ymouse":[582,582,582,582,582,582,582,582,582,582,582,582,582,582,582,582,582,582,582,582,582,582,582,582,582,582,582,582,582,582,582,582,582,569,473,442,440,440,440,440,440,440,440,440,440,440,440,440,440,440,440,440,440,440,440,440,440,440,440,440,440,440,440,440,440,440,440,440,440,440,440,440,440,440,440,440,440,440,440,440,440,440,440,440,440,440,431,414,413,413,413,414,416,416,406,381,380,380,380,380,382,385,386,387,387,387,387,387,387,387,387,387,387,387,389,417,430,436,438,439,442,444,447,452,458,467,470,470,471,472,473,477,478,478,478,478,478,479,482,486,489,489,489,489,489,489,489,489,489,489,489,489,489,489,489,489,489,489,489,489,489,489,489,489,489,489,489,489,489,489,489,489,489,489,489,489,489,489,489,489,489,489,489,489,489,489,489,489,489,489,489,489,489,489,489,489,489,489,489,489,489,489,489,489,489,489,489,489,489,489,489,489,489,489,489,489,489,489,489,489,489,489,489,489,489,489,489,489,489,489,489,489,489,489,489,489,489,489,489,489,489,489,489,489,489,489,489,489,489,489,489,489,489,489,489,489,489,489,489,489,489,489,489,489,489,489,489,489,489,489,489,489,489,489,489,489,489,489,489,489,489,489,489,489,489,489,489,489,489,489,489,489,489,489,489,489,489,489,489,489,489,489,489,489,489,489,489,489,489,489,489,489,489,489,489,489,489,489,489,489,489,489,489,489,489,489,489,489,489,489,489,489,489,489,489,489,489,489,489,489,489,489,489,489,489,489,489,489,489,489,489,489,489,489,489,489,489,489,489,489,489,489,489,489,489,489,489,489,489,489,489,489,489,489,489,489,489,489,489,489,489,489,489,489,489,489,489,489,489,489,489,489,489,489,489,489,489,489,489,489,489,489,489,489,489,489,489,489,489,489,489,489,489,489,489,489,489,489,489,489,489,489,489,489,489,489,489,489,489,489,489,489,489,489,489,489,489,489,489,489,489,489,489,489,489,489,489,489,489,489,489,489,489,489,489,489,489,489,489,489,489,489,489,489,489,489,489,489,489,489,489,489,489,489,489,489,489,489,489,489,489,489,489,489,489,489,489,489,489,489,489,489,489,489,489,489,489,489,489,489,489,489,489,489,489,489,489,489,489,489,489,489,489,489,489,489,489,489,489,489,489,489,489,489,489,489,489,489,489,489,489,489,489,489,489,489,489,489,489,489,489,489,489,489,489,489,489,489,489,489,489,489,489,489,489,489,489,489,489,489,489,489,489,489,489,489,489,489,489,489,489,489,489,489,489,489,489,489,489,489,489,489,489,489,489,489,489,489,489,489,489,489,489,489,489,489,489,489,489,489,489,489,489,489,489,489,489,489,489,489,489,489,489,489,489,489,489,489,489,489,489,489,489,489,489,489,489,489,489,489,489,489,489,489,489,489,489,489,489,489,489,489,489,489,489,489,489,489,489,489,489,489,489,489,489,489,489,489,489,489,489,489,489,489,489,489,489,489,489,489,489,489,489,489,489,489,489,489,489,489,489,489,489,489,489,489,489,489,489,489,489,489,489,489,489,489,489,489,489,489,489,489,489,489,489,489,489,489,489,489,489,489,489,489,489,489,489,489,489,489,489,489,489,489,489,489,489,489,489,489,489,489,489,489,489,489,489,489,489,489,489,489,489,489,489,489,489,489,489,489,489,489,489,489,489,489,489,489,489,489,489,489,489,489,489,489,489,489,489,489,489,489,489,489,489,489,489,489,489,489,489,489,489,489,489,489,489,489,489,489,489,489,489,489,489,489,489,489,489,489,489,489,489,489,489,489,489,489,489,489,489,489,489,489,489,489,489,489,489,489,489,489,489,489,489,489,489,489,489,489,489,489,489,489,489,489,489,489,489,489,489,489,489,489,489,489,489,489,489,489,489,489,489,489,489,489,489,489,489,489,489,489,489,489,489,489,489,489,489,489,489,489,489,489,489,489,489,489,489,489,489,489,489,489,489,489,489,489,489,489,489,489,489,489,489,489,489,489,489,489,489,489,489,489,489,489,489,489,489,489,489,489,489,489,489,489,489,489,489,489,489,489,489,489,489,489,489,489,489,489,489,489,489,489,489,489,489,489,489,489,489,489,489,489,489,489,489,489,489,489,489,489,489,491,492,493,493,493,494,498,509,512,522,539,562,599,603,605,605,605,611,624,640,650,650,649,649,649,649,649,649,648,642,641,640,640,640,640,640,640,640,640,640,640,640,640,640,640,640,640,640,640,640,640,640,640,640,640,640,640,640,640,640,640,640,640,640,640,640,640,640,640,640,640,640,640,640,640,640,640,640,640,640,640,640,640,640,640,640,640,640,640,640,640,640,640,640,640,640,640,640,640,640,640,640,640,640,640,640,640,640,640,640,640,640,640,640,640,640,640,640,640,640,583,277,0,0,0,1,2,2,2,2,2,2,2,2,2,2,2,0,0,0,0,0,0,0,0,1,7,11,12,12,11,8,8,8,8,8,8,8,8,9,15,19,27],"timestamp_mouse":[10,30,51,71,91,110,130,149,169,191,211,231,251,270,290,310,331,350,370,391,410,430,451,470,490,510,530,550,570,590,611,630,649,670,691,710,730,750,769,790,810,830,850,870,890,910,930,950,970,991,1010,1030,1051,1071,1090,1110,1130,1150,1170,1190,1210,1231,1250,1270,1291,1311,1330,1350,1370,1390,1411,1431,1451,1470,1491,1510,1530,1550,1570,1590,1611,1630,1650,1670,1690,1710,1730,1751,1770,1790,1810,1829,1850,1871,1890,1910,1930,1949,1969,1991,2009,2030,2050,2070,2090,2110,2130,2150,2169,2191,2211,2231,2251,2270,2290,2310,2330,2350,2370,2390,2411,2430,2450,2470,2491,2510,2530,2551,2570,2590,2610,2630,2651,2670,2690,2710,2730,2751,2770,2791,2810,2829,2850,2871,2890,2911,2930,2950,2971,2990,3011,3030,3050,3071,3091,3110,3130,3151,3170,3191,3210,3231,3250,3270,3290,3311,3331,3350,3370,3390,3410,3431,3451,3470,3491,3510,3530,3551,3570,3590,3610,3631,3650,3671,3690,3710,3730,3749,3770,3790,3811,3831,3850,3871,3890,3910,3929,3949,3969,3990,4010,4031,4050,4070,4089,4111,4131,4150,4170,4190,4210,4231,4250,4270,4290,4310,4331,4350,4370,4390,4410,4430,4450,4470,4491,4510,4530,4550,4569,4591,4610,4631,4650,4670,4691,4710,4730,4751,4770,4790,4811,4830,4850,4870,4891,4911,4930,4951,4971,4990,5010,5031,5051,5071,5090,5110,5130,5150,5170,5190,5210,5231,5250,5269,5290,5311,5330,5350,5370,5389,5410,5430,5451,5470,5490,5510,5530,5550,5570,5591,5610,5630,5651,5670,5691,5710,5730,5749,5770,5791,5810,5831,5849,5870,5891,5910,5930,5951,5969,5991,6010,6030,6051,6070,6091,6110,6131,6149,6170,6191,6210,6231,6250,6270,6291,6311,6330,6349,6371,6391,6410,6431,6451,6470,6491,6510,6530,6550,6571,6590,6610,6630,6650,6670,6690,6710,6731,6751,6770,6791,6811,6830,6850,6870,6890,6911,6931,6950,6971,6990,7010,7030,7051,7070,7091,7110,7130,7151,7171,7190,7210,7231,7251,7270,7290,7310,7331,7350,7370,7390,7410,7431,7450,7470,7491,7510,7530,7550,7570,7590,7610,7630,7651,7671,7690,7710,7731,7750,7771,7791,7810,7830,7850,7870,7891,7911,7931,7951,7970,7990,8010,8030,8050,8070,8090,8110,8130,8151,8170,8191,8210,8231,8251,8270,8290,8310,8330,8351,8370,8390,8410,8430,8450,8470,8490,8511,8530,8549,8571,8591,8611,8630,8650,8671,8691,8710,8730,8751,8769,8791,8810,8830,8850,8869,8889,8911,8931,8951,8970,8991,9010,9030,9049,9071,9090,9110,9130,9150,9169,9190,9211,9231,9249,9270,9291,9311,9330,9350,9370,9390,9410,9430,9450,9470,9490,9511,9531,9550,9570,9590,9610,9630,9651,9670,9691,9710,9730,9751,9770,9790,9810,9831,9850,9870,9891,9910,9931,9950,9971,9989,10011,10031,10051,10070,10090,10110,10131,10150,10170,10190,10210,10230,10250,10269,10291,10310,10331,10350,10371,10391,10410,10431,10450,10470,10490,10510,10530,10550,10570,10590,10611,10629,10650,10670,10690,10710,10730,10751,10770,10790,10810,10830,10851,10870,10890,10911,10929,10951,10970,10991,11010,11030,11050,11070,11090,11110,11130,11150,11170,11191,11211,11231,11250,11270,11290,11310,11331,11350,11370,11389,11409,11431,11451,11470,11490,11510,11530,11550,11570,11591,11610,11630,11650,11670,11690,11711,11730,11750,11771,11791,11810,11829,11850,11869,11890,11911,11930,11951,11970,11991,12010,12030,12051,12070,12090,12111,12130,12151,12169,12191,12210,12230,12250,12270,12290,12311,12331,12350,12369,12390,12411,12431,12451,12471,12491,12510,12530,12550,12570,12591,12611,12631,12651,12670,12691,12710,12730,12751,12770,12791,12810,12831,12851,12870,12890,12910,12931,12951,12970,12990,13010,13029,13050,13071,13090,13111,13131,13151,13170,13190,13211,13229,13251,13270,13290,13310,13330,13351,13371,13391,13410,13431,13450,13470,13489,13510,13531,13551,13571,13589,13610,13631,13650,13670,13691,13710,13730,13750,13769,13789,13811,13830,13850,13871,13891,13910,13929,13950,13971,13991,14010,14030,14050,14070,14091,14110,14131,14151,14171,14190,14210,14231,14250,14271,14290,14310,14330,14351,14371,14390,14410,14431,14450,14470,14490,14510,14531,14550,14570,14591,14610,14630,14651,14670,14691,14711,14730,14750,14770,14790,14810,14831,14851,14870,14890,14910,14930,14950,14970,14990,15011,15030,15050,15071,15091,15110,15131,15151,15170,15190,15211,15230,15250,15270,15290,15310,15330,15351,15370,15390,15410,15431,15450,15470,15491,15510,15530,15550,15571,15590,15610,15630,15651,15670,15690,15711,15730,15750,15770,15790,15810,15831,15851,15870,15891,15910,15930,15950,15969,15990,16010,16030,16050,16070,16090,16110,16130,16151,16170,16190,16210,16230,16251,16271,16289,16310,16331,16350,16371,16390,16411,16431,16450,16470,16490,16511,16530,16550,16570,16590,16611,16630,16651,16670,16691,16710,16730,16750,16770,16790,16810,16830,16851,16871,16889,16910,16930,16951,16971,16990,17010,17031,17050,17070,17090,17111,17130,17150,17170,17190,17210,17229,17250,17271,17291,17309,17330,17351,17370,17390,17410,17430,17451,17470,17491,17510,17531,17551,17570,17590,17610,17630,17651,17669,17691,17710,17731,17750,17770,17790,17811,17830,17850,17870,17890,17910,17930,17951,17970,17991,18010,18030,18051,18070,18090,18110,18130,18150,18171,18190,18210,18230,18250,18270,18291,18310,18330,18351,18370,18389,18411,18430,18451,18470,18491,18510,18531,18551,18570,18589,18611,18630,18651,18670,18691,18710,18730,18750,18771,18790,18810,18831,18850,18870,18890,18910,18931,18950,18970,18991,19010,19030,19050,19071,19091,19110,19130,19149,19170,19189,19209,19231,19250,19270,19290,19310,19329,19350,19370,19390,19410,19430,19449,19470,19491,19510,19530,19550,19571,19589,19610,19630,19650,19670,19690,19710,19730,19750,19770,19790,19810,19830,19851,19870,19891,19911,19931,19950,19971,19991,20010,20031,20051,20070,20090,20110,20130,20151,20171,20191,20211,20230,20250,20269,20291,20310,20330,20351,20371,20390,20410,20430,20450,20469,20491,20511,20531,20550,20570,20590,20610,20631,20650,20669,20691,20709,20729,20751,20771,20790,20810,20831,20850,20870,20891,20911,20930,20951,20971,20990,21010,21030,21050,21070,21090,21110,21130,21150,21170,21189,21210,21230,21251,21269,21291,21310,21331,21350,21370,21390,21410,21430,21450,21470,21490,21509,21530,21550,21571,21591,21611,21631,21650,21671,21691,21709,21730,21750,21769,21791,21810,21830,21850,21870,21890,21911,21930,21949,21970,21991,22009,22030,22050,22070,22091,22110,22130,22150,22170,22191,22210,22231,22250,22270,22290,22310],"xSR":741.5,"ySR":469.95,"xT1":424.9,"yT1":0,"xT2":1058.1,"yT2":0,"toosoon":0,"cond_shown":"Congruent","ratio_trial":300,"L_num":8,"L_den":15,"R_num":10,"R_den":12,"correct_side":2,"subjID":"DavidSantiago BernalPuerto33","gender":"0","age":"11","school":"6","test":{"fix_dur":[250,1500],"timestim":1000,"targets_dim":[100,100],"targets_relative_coord":[0.3,0.7],"size_stim":[880,420],"start_dim":[100,100],"size_start":[300,300],"size_fix":60,"samplingrate":20,"img_types":["Congruent","Incongruent"],"ratios":[100,200,300],"rep_conds":19,"nTrials":120,"trials_to_rest":500,"Trials_order":[22,102,110,69,58,52,11,25,9,41,50,21,74,83,115,3,86,14,67,100,70,66,2,87,54,32,34,80,71,59,18,20,88,62,116,93,8,30,61,51,108,48,1,47,72,29,37,89,45,60,42,106,78,73,36,81,6,64,65,17,77,49,40,94,118,57,107,97,39,68,7,84,27,46,103,82,5,109,63,0,91,16,35,95,15,13,31,38,90,12,119,98,53,114,26,111,23,101,85,10,19,76,28,4,96,117,56,105,43,99,92,104,55,33,24,113,79,44,112,75],"cond_shown":["Congruent","Congruent","Congruent","Incongruent","Congruent","Congruent","Incongruent","Incongruent","Incongruent","Incongruent","Congruent","Incongruent","Congruent","Incongruent","Incongruent","Incongruent","Congruent","Congruent","Incongruent","Congruent","Congruent","Congruent","Congruent","Incongruent","Congruent","Congruent","Congruent","Congruent","Incongruent","Incongruent","Congruent","Congruent","Congruent","Congruent","Congruent","Incongruent","Congruent","Congruent","Incongruent","Incongruent","Congruent","Congruent","Incongruent","Incongruent","Congruent","Incongruent","Incongruent","Incongruent","Incongruent","Congruent","Congruent","Congruent","Congruent","Incongruent","Congruent","Incongruent","Congruent","Congruent","Incongruent","Incongruent","Incongruent","Incongruent","Congruent","Congruent","Congruent","Incongruent","Incongruent","Incongruent","Incongruent","Congruent","Incongruent","Congruent","Incongruent","Congruent","Incongruent","Congruent","Incongruent","Incongruent","Incongruent","Congruent","Incongruent","Congruent","Incongruent","Incongruent","Incongruent","Incongruent","Incongruent","Congruent","Congruent","Congruent","Incongruent","Congruent","Incongruent","Congruent","Congruent","Incongruent","Incongruent","Incongruent","Incongruent","Congruent","Incongruent","Congruent","Congruent","Congruent","Congruent","Incongruent","Congruent","Incongruent","Incongruent","Incongruent","Congruent","Congruent","Incongruent","Incongruent","Congruent","Incongruent","Incongruent","Congruent","Congruent","Incongruent"],"ratio_trial":[300,100,200,200,300,300,300,100,200,300,200,200,200,300,100,200,200,200,100,300,300,100,200,200,100,200,300,200,300,300,100,200,300,200,200,200,200,100,100,200,100,100,100,300,100,300,100,300,200,100,100,300,100,100,100,200,100,300,300,300,300,100,300,300,300,200,300,100,200,200,100,100,200,300,100,300,300,100,200,100,100,300,300,300,200,100,100,200,100,100,300,200,300,100,200,200,300,300,100,300,100,300,300,300,100,200,200,200,100,200,200,200,100,200,100,300,100,200,300,200],"left_num":[8,9,5,1,11,4,4,4,7,13,6,11,3,1,13,6,13,16,3,2,20,1,9,7,3,13,11,5,13,4,1,5,12,6,6,9,3,3,3,14,15,3,9,13,11,7,12,7,14,11,7,4,15,1,9,11,4,9,4,8,4,12,24,3,20,7,2,9,11,8,3,11,7,20,3,1,4,10,7,7,2,1,13,13,7,4,8,11,1,3,8,16,13,11,3,3,13,4,9,3,3,11,1,7,12,1,7,1,9,1,4,1,3,7,8,13,17,16,1,11],"right_num":[10,8,14,2,1,2,6,8,12,12,11,3,11,3,12,3,14,12,4,12,13,3,13,14,4,14,2,14,12,2,3,14,2,3,11,8,7,2,7,6,13,2,14,12,6,8,9,8,12,4,15,13,13,8,8,3,6,3,2,9,2,2,8,11,13,8,6,13,3,2,8,6,4,9,4,3,2,8,12,15,8,7,12,12,8,8,1,3,3,2,9,12,12,4,14,1,12,2,13,2,7,4,3,20,13,3,18,2,13,3,3,21,11,4,2,12,10,12,6,3],"left_den":[15,15,10,3,22,5,5,8,10,26,20,20,10,2,26,20,26,20,6,10,25,2,30,10,20,26,22,10,26,20,2,10,24,15,20,15,10,6,9,30,25,6,15,26,22,10,24,10,30,22,14,20,25,2,15,20,8,10,20,10,20,30,30,12,25,10,4,15,20,15,5,22,15,25,6,5,20,25,10,14,4,20,26,26,10,8,20,22,2,6,10,20,26,22,6,10,26,20,15,6,9,22,5,14,30,2,15,3,15,2,8,2,5,15,16,26,30,20,5,20],"right_den":[12,16,20,15,5,4,12,20,24,15,22,4,22,15,20,6,20,20,10,24,26,5,26,28,16,20,10,20,15,4,5,20,10,15,22,10,14,5,30,9,26,5,28,15,15,20,15,20,18,10,25,26,26,20,16,4,10,5,4,18,4,4,16,20,26,16,30,26,4,6,16,15,6,18,10,6,4,16,24,25,20,20,15,15,16,20,2,10,5,5,18,20,15,10,20,2,15,4,26,10,30,20,6,25,26,10,27,15,26,10,10,30,22,6,5,15,15,20,12,4],"correct_side":[2,1,2,1,1,1,1,1,1,2,2,2,2,1,2,2,2,1,1,2,1,2,2,1,2,2,1,2,2,2,2,2,1,1,2,2,2,1,1,2,1,1,1,2,1,1,2,1,2,1,2,2,1,1,1,2,2,1,2,1,2,2,1,2,1,1,1,1,2,1,1,1,2,1,1,2,2,2,1,2,1,2,2,2,1,1,2,1,2,1,1,1,2,1,2,2,2,2,1,1,1,1,2,2,2,1,2,1,1,1,1,2,1,2,1,2,2,1,2,2],"img_shown":["img2/300/Congruent/R/C_Dist_300_LN_8_LD_15_RN_10_RD_12_1.png","img2/100/Congruent/L/C_Dist_100_LN_9_LD_15_RN_8_RD_16_0.png","img2/200/Congruent/R/C_Dist_200_LN_5_LD_10_RN_14_RD_20_1.png","img2/200/Incongruent/L/I_Dist_200_LN_1_LD_3_RN_2_RD_15_0.png","img2/300/Congruent/L/C_Dist_300_LN_11_LD_22_RN_1_RD_5_0.png","img2/300/Congruent/L/C_Dist_300_LN_4_LD_5_RN_2_RD_4_0.png","img2/300/Incongruent/L/I_Dist_300_LN_4_LD_5_RN_6_RD_12_0.png","img2/100/Incongruent/L/I_Dist_100_LN_4_LD_8_RN_8_RD_20_0.png","img2/200/Incongruent/L/I_Dist_200_LN_7_LD_10_RN_12_RD_24_0.png","img2/300/Incongruent/R/I_Dist_300_LN_13_LD_26_RN_12_RD_15_1.png","img2/200/Congruent/R/C_Dist_200_LN_6_LD_20_RN_11_RD_22_1.png","img2/200/Incongruent/R/I_Dist_200_LN_11_LD_20_RN_3_RD_4_1.png","img2/200/Congruent/R/C_Dist_200_LN_3_LD_10_RN_11_RD_22_1.png","img2/300/Incongruent/L/I_Dist_300_LN_1_LD_2_RN_3_RD_15_0.png","img2/100/Incongruent/R/I_Dist_100_LN_13_LD_26_RN_12_RD_20_1.png","img2/200/Incongruent/R/I_Dist_200_LN_6_LD_20_RN_3_RD_6_1.png","img2/200/Congruent/R/C_Dist_200_LN_13_LD_26_RN_14_RD_20_1.png","img2/200/Congruent/L/C_Dist_200_LN_16_LD_20_RN_12_RD_20_0.png","img2/100/Incongruent/L/I_Dist_100_LN_3_LD_6_RN_4_RD_10_0.png","img2/300/Congruent/R/C_Dist_300_LN_2_LD_10_RN_12_RD_24_1.png","img2/300/Congruent/L/C_Dist_300_LN_20_LD_25_RN_13_RD_26_0.png","img2/100/Congruent/R/C_Dist_100_LN_1_LD_2_RN_3_RD_5_1.png","img2/200/Congruent/R/C_Dist_200_LN_9_LD_30_RN_13_RD_26_1.png","img2/200/Incongruent/L/I_Dist_200_LN_7_LD_10_RN_14_RD_28_0.png","img2/100/Congruent/R/C_Dist_100_LN_3_LD_20_RN_4_RD_16_1.png","img2/200/Congruent/R/C_Dist_200_LN_13_LD_26_RN_14_RD_20_1.png","img2/300/Congruent/L/C_Dist_300_LN_11_LD_22_RN_2_RD_10_0.png","img2/200/Congruent/R/C_Dist_200_LN_5_LD_10_RN_14_RD_20_1.png","img2/300/Incongruent/R/I_Dist_300_LN_13_LD_26_RN_12_RD_15_1.png","img2/300/Incongruent/R/I_Dist_300_LN_4_LD_20_RN_2_RD_4_1.png","img2/100/Congruent/R/C_Dist_100_LN_1_LD_2_RN_3_RD_5_1.png","img2/200/Congruent/R/C_Dist_200_LN_5_LD_10_RN_14_RD_20_1.png","img2/300/Congruent/L/C_Dist_300_LN_12_LD_24_RN_2_RD_10_0.png","img2/200/Congruent/L/C_Dist_200_LN_6_LD_15_RN_3_RD_15_0.png","img2/200/Congruent/R/C_Dist_200_LN_6_LD_20_RN_11_RD_22_1.png","img2/200/Incongruent/R/I_Dist_200_LN_9_LD_15_RN_8_RD_10_1.png","img2/200/Congruent/R/C_Dist_200_LN_3_LD_10_RN_7_RD_14_1.png","img2/100/Congruent/L/C_Dist_100_LN_3_LD_6_RN_2_RD_5_0.png","img2/100/Incongruent/L/I_Dist_100_LN_3_LD_9_RN_7_RD_30_0.png","img2/200/Incongruent/R/I_Dist_200_LN_14_LD_30_RN_6_RD_9_1.png","img2/100/Congruent/L/C_Dist_100_LN_15_LD_25_RN_13_RD_26_0.png","img2/100/Congruent/L/C_Dist_100_LN_3_LD_6_RN_2_RD_5_0.png","img2/100/Incongruent/L/I_Dist_100_LN_9_LD_15_RN_14_RD_28_0.png","img2/300/Incongruent/R/I_Dist_300_LN_13_LD_26_RN_12_RD_15_1.png","img2/100/Congruent/L/C_Dist_100_LN_11_LD_22_RN_6_RD_15_0.png","img2/300/Incongruent/L/I_Dist_300_LN_7_LD_10_RN_8_RD_20_0.png","img2/100/Incongruent/R/I_Dist_100_LN_12_LD_24_RN_9_RD_15_1.png","img2/300/Incongruent/L/I_Dist_300_LN_7_LD_10_RN_8_RD_20_0.png","img2/200/Incongruent/R/I_Dist_200_LN_14_LD_30_RN_12_RD_18_1.png","img2/100/Congruent/L/C_Dist_100_LN_11_LD_22_RN_4_RD_10_0.png","img2/100/Congruent/R/C_Dist_100_LN_7_LD_14_RN_15_RD_25_1.png","img2/300/Congruent/R/C_Dist_300_LN_4_LD_20_RN_13_RD_26_1.png","img2/100/Congruent/L/C_Dist_100_LN_15_LD_25_RN_13_RD_26_0.png","img2/100/Incongruent/L/I_Dist_100_LN_1_LD_2_RN_8_RD_20_0.png","img2/100/Congruent/L/C_Dist_100_LN_9_LD_15_RN_8_RD_16_0.png","img2/200/Incongruent/R/I_Dist_200_LN_11_LD_20_RN_3_RD_4_1.png","img2/100/Congruent/R/C_Dist_100_LN_4_LD_8_RN_6_RD_10_1.png","img2/300/Congruent/L/C_Dist_300_LN_9_LD_10_RN_3_RD_5_0.png","img2/300/Incongruent/R/I_Dist_300_LN_4_LD_20_RN_2_RD_4_1.png","img2/300/Incongruent/L/I_Dist_300_LN_8_LD_10_RN_9_RD_18_0.png","img2/300/Incongruent/R/I_Dist_300_LN_4_LD_20_RN_2_RD_4_1.png","img2/100/Incongruent/R/I_Dist_100_LN_12_LD_30_RN_2_RD_4_1.png","img2/300/Congruent/L/C_Dist_300_LN_24_LD_30_RN_8_RD_16_0.png","img2/300/Congruent/R/C_Dist_300_LN_3_LD_12_RN_11_RD_20_1.png","img2/300/Congruent/L/C_Dist_300_LN_20_LD_25_RN_13_RD_26_0.png","img2/200/Incongruent/L/I_Dist_200_LN_7_LD_10_RN_8_RD_16_0.png","img2/300/Incongruent/L/I_Dist_300_LN_2_LD_4_RN_6_RD_30_0.png","img2/100/Incongruent/L/I_Dist_100_LN_9_LD_15_RN_13_RD_26_0.png","img2/200/Incongruent/R/I_Dist_200_LN_11_LD_20_RN_3_RD_4_1.png","img2/200/Congruent/L/C_Dist_200_LN_8_LD_15_RN_2_RD_6_0.png","img2/100/Incongruent/L/I_Dist_100_LN_3_LD_5_RN_8_RD_16_0.png","img2/100/Congruent/L/C_Dist_100_LN_11_LD_22_RN_6_RD_15_0.png","img2/200/Incongruent/R/I_Dist_200_LN_7_LD_15_RN_4_RD_6_1.png","img2/300/Congruent/L/C_Dist_300_LN_20_LD_25_RN_9_RD_18_0.png","img2/100/Incongruent/L/I_Dist_100_LN_3_LD_6_RN_4_RD_10_0.png","img2/300/Congruent/R/C_Dist_300_LN_1_LD_5_RN_3_RD_6_1.png","img2/300/Incongruent/R/I_Dist_300_LN_4_LD_20_RN_2_RD_4_1.png","img2/100/Incongruent/R/I_Dist_100_LN_10_LD_25_RN_8_RD_16_1.png","img2/200/Incongruent/L/I_Dist_200_LN_7_LD_10_RN_12_RD_24_0.png","img2/100/Congruent/R/C_Dist_100_LN_7_LD_14_RN_15_RD_25_1.png","img2/100/Incongruent/L/I_Dist_100_LN_2_LD_4_RN_8_RD_20_0.png","img2/300/Congruent/R/C_Dist_300_LN_1_LD_20_RN_7_RD_20_1.png","img2/300/Incongruent/R/I_Dist_300_LN_13_LD_26_RN_12_RD_15_1.png","img2/300/Incongruent/R/I_Dist_300_LN_13_LD_26_RN_12_RD_15_1.png","img2/200/Incongruent/L/I_Dist_200_LN_7_LD_10_RN_8_RD_16_0.png","img2/100/Incongruent/L/I_Dist_100_LN_4_LD_8_RN_8_RD_20_0.png","img2/100/Incongruent/R/I_Dist_100_LN_8_LD_20_RN_1_RD_2_1.png","img2/200/Congruent/L/C_Dist_200_LN_11_LD_22_RN_3_RD_10_0.png","img2/100/Congruent/R/C_Dist_100_LN_1_LD_2_RN_3_RD_5_1.png","img2/100/Congruent/L/C_Dist_100_LN_3_LD_6_RN_2_RD_5_0.png","img2/300/Incongruent/L/I_Dist_300_LN_8_LD_10_RN_9_RD_18_0.png","img2/200/Congruent/L/C_Dist_200_LN_16_LD_20_RN_12_RD_20_0.png","img2/300/Incongruent/R/I_Dist_300_LN_13_LD_26_RN_12_RD_15_1.png","img2/100/Congruent/L/C_Dist_100_LN_11_LD_22_RN_4_RD_10_0.png","img2/200/Congruent/R/C_Dist_200_LN_3_LD_6_RN_14_RD_20_1.png","img2/200/Incongruent/R/I_Dist_200_LN_3_LD_10_RN_1_RD_2_1.png","img2/300/Incongruent/R/I_Dist_300_LN_13_LD_26_RN_12_RD_15_1.png","img2/300/Incongruent/R/I_Dist_300_LN_4_LD_20_RN_2_RD_4_1.png","img2/100/Incongruent/L/I_Dist_100_LN_9_LD_15_RN_13_RD_26_0.png","img2/300/Congruent/L/C_Dist_300_LN_3_LD_6_RN_2_RD_10_0.png","img2/100/Incongruent/L/I_Dist_100_LN_3_LD_9_RN_7_RD_30_0.png","img2/300/Congruent/L/C_Dist_300_LN_11_LD_22_RN_4_RD_20_0.png","img2/300/Congruent/R/C_Dist_300_LN_1_LD_5_RN_3_RD_6_1.png","img2/300/Congruent/R/C_Dist_300_LN_7_LD_14_RN_20_RD_25_1.png","img2/100/Congruent/R/C_Dist_100_LN_12_LD_30_RN_13_RD_26_1.png","img2/200/Incongruent/L/I_Dist_200_LN_1_LD_2_RN_3_RD_10_0.png","img2/200/Congruent/R/C_Dist_200_LN_7_LD_15_RN_18_RD_27_1.png","img2/200/Incongruent/L/I_Dist_200_LN_1_LD_3_RN_2_RD_15_0.png","img2/100/Incongruent/L/I_Dist_100_LN_9_LD_15_RN_13_RD_26_0.png","img2/200/Incongruent/L/I_Dist_200_LN_1_LD_2_RN_3_RD_10_0.png","img2/200/Congruent/L/C_Dist_200_LN_4_LD_8_RN_3_RD_10_0.png","img2/200/Congruent/R/C_Dist_200_LN_1_LD_2_RN_21_RD_30_1.png","img2/100/Incongruent/L/I_Dist_100_LN_3_LD_5_RN_11_RD_22_0.png","img2/200/Incongruent/R/I_Dist_200_LN_7_LD_15_RN_4_RD_6_1.png","img2/100/Congruent/L/C_Dist_100_LN_8_LD_16_RN_2_RD_5_0.png","img2/300/Incongruent/R/I_Dist_300_LN_13_LD_26_RN_12_RD_15_1.png","img2/100/Incongruent/R/I_Dist_100_LN_17_LD_30_RN_10_RD_15_1.png","img2/200/Congruent/L/C_Dist_200_LN_16_LD_20_RN_12_RD_20_0.png","img2/300/Congruent/R/C_Dist_300_LN_1_LD_5_RN_6_RD_12_1.png","img2/200/Incongruent/R/I_Dist_200_LN_11_LD_20_RN_3_RD_4_1.png"],"dist100_C":[["C_Dist_100_LN_10_LD_25_RN_3_RD_10_0.png","C_Dist_100_LN_11_LD_22_RN_4_RD_10_0.png","C_Dist_100_LN_11_LD_22_RN_6_RD_15_0.png","C_Dist_100_LN_15_LD_25_RN_13_RD_26_0.png","C_Dist_100_LN_3_LD_6_RN_2_RD_5_0.png","C_Dist_100_LN_6_LD_20_RN_5_RD_25_0.png","C_Dist_100_LN_8_LD_16_RN_2_RD_5_0.png","C_Dist_100_LN_9_LD_15_RN_8_RD_16_0.png"],["C_Dist_100_LN_1_LD_2_RN_18_RD_30_1.png","C_Dist_100_LN_1_LD_2_RN_3_RD_5_1.png","C_Dist_100_LN_12_LD_30_RN_13_RD_26_1.png","C_Dist_100_LN_2_LD_5_RN_11_RD_22_1.png","C_Dist_100_LN_2_LD_5_RN_6_RD_12_1.png","C_Dist_100_LN_3_LD_20_RN_4_RD_16_1.png","C_Dist_100_LN_4_LD_10_RN_15_RD_30_1.png","C_Dist_100_LN_4_LD_8_RN_6_RD_10_1.png","C_Dist_100_LN_6_LD_12_RN_15_RD_25_1.png","C_Dist_100_LN_7_LD_14_RN_15_RD_25_1.png","C_Dist_100_LN_7_LD_14_RN_9_RD_15_1.png"]],"dist100_I":[["I_Dist_100_LN_1_LD_2_RN_8_RD_20_0.png","I_Dist_100_LN_2_LD_4_RN_6_RD_15_0.png","I_Dist_100_LN_2_LD_4_RN_8_RD_20_0.png","I_Dist_100_LN_3_LD_5_RN_11_RD_22_0.png","I_Dist_100_LN_3_LD_5_RN_8_RD_16_0.png","I_Dist_100_LN_3_LD_6_RN_4_RD_10_0.png","I_Dist_100_LN_3_LD_9_RN_7_RD_30_0.png","I_Dist_100_LN_4_LD_8_RN_8_RD_20_0.png","I_Dist_100_LN_6_LD_10_RN_11_RD_22_0.png","I_Dist_100_LN_6_LD_10_RN_13_RD_26_0.png","I_Dist_100_LN_6_LD_10_RN_7_RD_14_0.png","I_Dist_100_LN_9_LD_10_RN_20_RD_25_0.png","I_Dist_100_LN_9_LD_15_RN_13_RD_26_0.png","I_Dist_100_LN_9_LD_15_RN_14_RD_28_0.png"],["I_Dist_100_LN_10_LD_25_RN_8_RD_16_1.png","I_Dist_100_LN_10_LD_25_RN_9_RD_18_1.png","I_Dist_100_LN_11_LD_22_RN_9_RD_15_1.png","I_Dist_100_LN_12_LD_24_RN_9_RD_15_1.png","I_Dist_100_LN_12_LD_30_RN_2_RD_4_1.png","I_Dist_100_LN_13_LD_26_RN_12_RD_20_1.png","I_Dist_100_LN_13_LD_26_RN_6_RD_10_1.png","I_Dist_100_LN_17_LD_30_RN_10_RD_15_1.png","I_Dist_100_LN_6_LD_12_RN_3_RD_5_1.png","I_Dist_100_LN_8_LD_16_RN_6_RD_10_1.png","I_Dist_100_LN_8_LD_20_RN_1_RD_2_1.png","I_Dist_100_LN_9_LD_18_RN_6_RD_10_1.png"]],"dist100_S":[["E_Dist_100_LN_2_LD_12_RN_2_RD_30_0.png","E_Dist_100_LN_6_LD_10_RN_6_RD_12_0.png"],["E_Dist_100_LN_6_LD_12_RN_6_RD_10_1.png"]],"dist200_C":[["C_Dist_200_LN_11_LD_22_RN_3_RD_10_0.png","C_Dist_200_LN_12_LD_15_RN_6_RD_10_0.png","C_Dist_200_LN_12_LD_20_RN_6_RD_15_0.png","C_Dist_200_LN_14_LD_28_RN_6_RD_20_0.png","C_Dist_200_LN_15_LD_25_RN_4_RD_10_0.png","C_Dist_200_LN_16_LD_20_RN_12_RD_20_0.png","C_Dist_200_LN_16_LD_30_RN_9_RD_27_0.png","C_Dist_200_LN_20_LD_25_RN_9_RD_15_0.png","C_Dist_200_LN_21_LD_30_RN_2_RD_4_0.png","C_Dist_200_LN_4_LD_10_RN_3_RD_15_0.png","C_Dist_200_LN_4_LD_8_RN_3_RD_10_0.png","C_Dist_200_LN_6_LD_15_RN_3_RD_15_0.png","C_Dist_200_LN_7_LD_21_RN_2_RD_15_0.png","C_Dist_200_LN_8_LD_15_RN_2_RD_6_0.png","C_Dist_200_LN_8_LD_15_RN_3_RD_9_0.png","C_Dist_200_LN_8_LD_15_RN_7_RD_21_0.png","C_Dist_200_LN_9_LD_20_RN_4_RD_16_0.png"],["C_Dist_200_LN_1_LD_2_RN_21_RD_30_1.png","C_Dist_200_LN_13_LD_26_RN_14_RD_20_1.png","C_Dist_200_LN_3_LD_10_RN_11_RD_22_1.png","C_Dist_200_LN_3_LD_10_RN_14_RD_28_1.png","C_Dist_200_LN_3_LD_10_RN_7_RD_14_1.png","C_Dist_200_LN_3_LD_12_RN_9_RD_20_1.png","C_Dist_200_LN_3_LD_6_RN_14_RD_20_1.png","C_Dist_200_LN_5_LD_10_RN_14_RD_20_1.png","C_Dist_200_LN_6_LD_12_RN_7_RD_10_1.png","C_Dist_200_LN_6_LD_20_RN_11_RD_22_1.png","C_Dist_200_LN_7_LD_15_RN_18_RD_27_1.png","C_Dist_200_LN_9_LD_30_RN_13_RD_26_1.png"]],"dist200_I":[["I_Dist_200_LN_1_LD_2_RN_3_RD_10_0.png","I_Dist_200_LN_1_LD_3_RN_2_RD_15_0.png","I_Dist_200_LN_3_LD_4_RN_11_RD_20_0.png","I_Dist_200_LN_4_LD_5_RN_6_RD_10_0.png","I_Dist_200_LN_4_LD_6_RN_14_RD_30_0.png","I_Dist_200_LN_7_LD_10_RN_12_RD_24_0.png","I_Dist_200_LN_7_LD_10_RN_14_RD_28_0.png","I_Dist_200_LN_7_LD_10_RN_8_RD_16_0.png"],["I_Dist_200_LN_11_LD_20_RN_3_RD_4_1.png","I_Dist_200_LN_14_LD_30_RN_12_RD_18_1.png","I_Dist_200_LN_14_LD_30_RN_6_RD_9_1.png","I_Dist_200_LN_3_LD_10_RN_1_RD_2_1.png","I_Dist_200_LN_4_LD_30_RN_1_RD_3_1.png","I_Dist_200_LN_6_LD_20_RN_3_RD_6_1.png","I_Dist_200_LN_7_LD_15_RN_4_RD_6_1.png","I_Dist_200_LN_7_LD_15_RN_6_RD_9_1.png","I_Dist_200_LN_9_LD_15_RN_8_RD_10_1.png"]],"dist200_S":[["E_Dist_200_LN_3_LD_6_RN_3_RD_10_0.png"],["E_Dist_200_LN_3_LD_10_RN_3_RD_6_1.png"]],"dist300_C":[["C_Dist_300_LN_11_LD_22_RN_1_RD_5_0.png","C_Dist_300_LN_11_LD_22_RN_2_RD_10_0.png","C_Dist_300_LN_11_LD_22_RN_4_RD_20_0.png","C_Dist_300_LN_12_LD_24_RN_2_RD_10_0.png","C_Dist_300_LN_18_LD_20_RN_9_RD_15_0.png","C_Dist_300_LN_20_LD_25_RN_13_RD_26_0.png","C_Dist_300_LN_20_LD_25_RN_14_RD_28_0.png","C_Dist_300_LN_20_LD_25_RN_5_RD_10_0.png","C_Dist_300_LN_20_LD_25_RN_8_RD_16_0.png","C_Dist_300_LN_20_LD_25_RN_9_RD_18_0.png","C_Dist_300_LN_24_LD_30_RN_2_RD_4_0.png","C_Dist_300_LN_24_LD_30_RN_8_RD_16_0.png","C_Dist_300_LN_3_LD_6_RN_2_RD_10_0.png","C_Dist_300_LN_4_LD_10_RN_1_RD_10_0.png","C_Dist_300_LN_4_LD_5_RN_2_RD_4_0.png","C_Dist_300_LN_8_LD_16_RN_1_RD_5_0.png","C_Dist_300_LN_9_LD_10_RN_3_RD_5_0.png"],["C_Dist_300_LN_1_LD_20_RN_7_RD_20_1.png","C_Dist_300_LN_1_LD_3_RN_19_RD_30_1.png","C_Dist_300_LN_1_LD_30_RN_8_RD_24_1.png","C_Dist_300_LN_1_LD_5_RN_11_RD_22_1.png","C_Dist_300_LN_1_LD_5_RN_3_RD_6_1.png","C_Dist_300_LN_1_LD_5_RN_6_RD_12_1.png","C_Dist_300_LN_2_LD_10_RN_12_RD_24_1.png","C_Dist_300_LN_2_LD_20_RN_10_RD_25_1.png","C_Dist_300_LN_3_LD_12_RN_11_RD_20_1.png","C_Dist_300_LN_3_LD_6_RN_4_RD_5_1.png","C_Dist_300_LN_4_LD_20_RN_13_RD_26_1.png","C_Dist_300_LN_5_LD_25_RN_6_RD_12_1.png","C_Dist_300_LN_5_LD_25_RN_7_RD_14_1.png","C_Dist_300_LN_7_LD_14_RN_20_RD_25_1.png","C_Dist_300_LN_8_LD_15_RN_10_RD_12_1.png"]],"dist300_I":[["I_Dist_300_LN_1_LD_2_RN_2_RD_10_0.png","I_Dist_300_LN_1_LD_2_RN_3_RD_15_0.png","I_Dist_300_LN_2_LD_4_RN_6_RD_30_0.png","I_Dist_300_LN_3_LD_6_RN_4_RD_20_0.png","I_Dist_300_LN_4_LD_5_RN_6_RD_12_0.png","I_Dist_300_LN_4_LD_5_RN_8_RD_16_0.png","I_Dist_300_LN_7_LD_10_RN_8_RD_20_0.png","I_Dist_300_LN_8_LD_10_RN_14_RD_28_0.png","I_Dist_300_LN_8_LD_10_RN_9_RD_18_0.png"],["I_Dist_300_LN_13_LD_26_RN_12_RD_15_1.png","I_Dist_300_LN_4_LD_20_RN_2_RD_4_1.png"]],"dist300_S":[["E_Dist_300_LN_9_LD_12_RN_9_RD_20_0.png"],["E_Dist_300_LN_18_LD_30_RN_18_RD_20_1.png","E_Dist_300_LN_3_LD_10_RN_3_RD_5_1.png","E_Dist_300_LN_9_LD_20_RN_9_RD_12_1.png"]],"dist500_C":[["C_Dist_500_LN_10_LD_13_RN_7_RD_26_0.png","C_Dist_500_LN_10_LD_15_RN_4_RD_24_0.png","C_Dist_500_LN_12_LD_16_RN_3_RD_12_0.png","C_Dist_500_LN_12_LD_18_RN_4_RD_24_0.png","C_Dist_500_LN_15_LD_18_RN_5_RD_15_0.png","C_Dist_500_LN_15_LD_20_RN_1_RD_4_0.png","C_Dist_500_LN_18_LD_27_RN_1_RD_6_0.png","C_Dist_500_LN_20_LD_24_RN_1_RD_3_0.png","C_Dist_500_LN_20_LD_24_RN_3_RD_9_0.png","C_Dist_500_LN_20_LD_24_RN_7_RD_21_0.png","C_Dist_500_LN_20_LD_28_RN_3_RD_14_0.png","C_Dist_500_LN_21_LD_28_RN_6_RD_24_0.png","C_Dist_500_LN_22_LD_28_RN_2_RD_7_0.png","C_Dist_500_LN_25_LD_30_RN_9_RD_27_0.png","C_Dist_500_LN_4_LD_6_RN_1_RD_6_0.png","C_Dist_500_LN_5_LD_6_RN_2_RD_6_0.png","C_Dist_500_LN_6_LD_9_RN_1_RD_6_0.png","C_Dist_500_LN_7_LD_10_RN_1_RD_5_0.png","C_Dist_500_LN_8_LD_12_RN_1_RD_6_0.png","C_Dist_500_LN_8_LD_12_RN_4_RD_24_0.png"],["C_Dist_500_LN_1_LD_4_RN_12_RD_16_1.png","C_Dist_500_LN_1_LD_4_RN_9_RD_12_1.png","C_Dist_500_LN_1_LD_9_RN_11_RD_18_1.png","C_Dist_500_LN_10_LD_24_RN_22_RD_24_1.png","C_Dist_500_LN_2_LD_12_RN_10_RD_15_1.png","C_Dist_500_LN_2_LD_12_RN_12_RD_18_1.png","C_Dist_500_LN_2_LD_12_RN_4_RD_6_1.png","C_Dist_500_LN_2_LD_24_RN_7_RD_12_1.png","C_Dist_500_LN_2_LD_5_RN_18_RD_20_1.png","C_Dist_500_LN_2_LD_5_RN_9_RD_10_1.png","C_Dist_500_LN_2_LD_8_RN_12_RD_16_1.png","C_Dist_500_LN_2_LD_8_RN_21_RD_28_1.png","C_Dist_500_LN_3_LD_10_RN_4_RD_5_1.png","C_Dist_500_LN_3_LD_12_RN_15_RD_20_1.png","C_Dist_500_LN_3_LD_30_RN_6_RD_10_1.png","C_Dist_500_LN_3_LD_8_RN_14_RD_16_1.png","C_Dist_500_LN_4_LD_16_RN_15_RD_20_1.png","C_Dist_500_LN_4_LD_24_RN_12_RD_18_1.png","C_Dist_500_LN_5_LD_14_RN_6_RD_7_1.png","C_Dist_500_LN_7_LD_21_RN_20_RD_24_1.png","C_Dist_500_LN_7_LD_28_RN_12_RD_16_1.png","C_Dist_500_LN_7_LD_28_RN_9_RD_12_1.png","C_Dist_500_LN_9_LD_27_RN_20_RD_24_1.png"]],"dist500_I":[["I_Dist_500_LN_2_LD_3_RN_4_RD_24_0.png","I_Dist_500_LN_5_LD_6_RN_6_RD_18_0.png","I_Dist_500_LN_7_LD_8_RN_9_RD_24_0.png"],["I_Dist_500_LN_7_LD_21_RN_5_RD_6_1.png"]],"dist500_S":[["E_Dist_500_LN_6_LD_8_RN_6_RD_24_0.png"],["E_Dist_500_LN_2_LD_12_RN_2_RD_3_1.png","E_Dist_500_LN_6_LD_24_RN_6_RD_8_1.png"]]}},{"start_time":1551891988083,"click_time":1551891989701,"finger_time":1551891989440,"fix_duration":1021.5661090219684,"trial":1,"RT":1357,"MT":261,"sideResp":2,"stimulus":[],"xmouse":[807,807,807,807,807,807,807,807,807,807,807,807,807,807,807,807,807,807,807,807,807,807,807,807,807,807,807,807,807,807,807,807,807,807,807,807,807,807,807,807,807,807,807,807,807,807,807,807,807,807,807,807,807,807,807,807,807,807,807,807,807,807,807,807,807,808,837,861,921,952,979,1002,1019,1035,1032,1031,1031,1038,1050,1075,1086],"ymouse":[606,606,606,606,606,606,606,606,606,606,606,606,606,606,606,606,606,606,606,606,606,606,606,606,606,606,606,606,606,606,606,606,606,606,606,606,606,606,606,606,606,606,606,606,606,606,606,606,606,606,606,606,606,606,606,606,606,606,606,606,606,606,606,606,606,606,591,579,538,508,458,389,327,236,206,197,194,187,174,118,80],"timestamp_mouse":[17,45,57,78,97,118,137,157,177,196,218,237,257,278,298,317,337,358,378,397,417,437,458,477,497,517,538,558,577,597,618,638,656,677,698,717,738,758,778,798,818,837,858,877,898,916,937,958,978,998,1017,1038,1058,1077,1097,1118,1138,1156,1177,1197,1218,1237,1257,1278,1296,1317,1337,1356,1377,1397,1417,1437,1457,1477,1498,1517,1537,1557,1577,1597,1618],"xSR":741.5,"ySR":573.95,"xT1":424.9,"yT1":0,"xT2":1058.1,"yT2":0,"toosoon":0,"cond_shown":"Congruent","ratio_trial":100,"L_num":9,"L_den":15,"R_num":8,"R_den":16,"correct_side":1,"subjID":"DavidSantiago BernalPuerto33","gender":"0","school":"6","age":"11"},{"start_time":1551891996979,"click_time":1551891998300,"finger_time":1551891997880,"fix_duration":796.3914400675814,"trial":2,"RT":901,"MT":420,"sideResp":2,"stimulus":[],"xmouse":[807,807,807,807,807,807,807,807,807,807,807,807,807,807,807,807,807,807,807,807,807,807,807,807,807,807,807,807,807,807,807,807,807,807,807,807,807,807,807,807,807,807,807,807,819,870,929,976,998,1008,1004,1004,1004,1004,1004,1004,1004,1004,1004,1027,1053,1070,1083,1097,1105,1105,1105],"ymouse":[614,614,614,614,614,614,614,614,614,614,614,614,614,614,614,614,614,614,614,614,614,614,614,614,614,614,614,614,614,614,614,614,614,614,614,614,614,614,614,614,614,614,614,614,607,560,512,465,442,419,409,391,371,353,338,335,334,331,328,309,295,284,275,262,193,135,57],"timestamp_mouse":[8,21,41,60,81,101,122,142,162,182,202,221,242,262,281,301,321,342,361,380,401,421,441,462,480,502,522,541,561,582,601,622,641,661,681,700,721,741,761,782,801,821,850,861,882,901,921,941,961,981,1001,1021,1041,1061,1081,1100,1121,1142,1162,1180,1201,1221,1241,1262,1281,1300,1321],"xSR":741.5,"ySR":573.95,"xT1":424.9,"yT1":0,"xT2":1058.1,"yT2":0,"toosoon":0,"cond_shown":"Congruent","ratio_trial":200,"L_num":5,"L_den":10,"R_num":14,"R_den":20,"correct_side":2,"subjID":"DavidSantiago BernalPuerto33","gender":"0","school":"6","age":"11"},{"start_time":1551892002302,"click_time":1551892005060,"finger_time":1551892003880,"fix_duration":1479.3109845194467,"trial":3,"RT":1578,"MT":1180,"sideResp":1,"stimulus":[],"xmouse":[753,753,753,753,753,753,753,753,753,753,753,753,753,753,753,753,753,753,753,753,753,753,753,753,753,753,753,753,753,753,753,753,753,753,753,753,753,753,753,753,753,753,753,753,753,753,753,753,753,753,753,753,753,753,753,753,753,753,753,753,753,753,753,753,753,753,753,753,753,753,753,753,753,753,753,753,754,824,873,912,952,990,1040,1050,1058,1065,1071,1083,1085,1086,1088,1089,1098,1119,1128,1130,1132,1132,1132,1132,1132,1132,1132,1132,1132,1132,1132,1132,1132,1132,1132,1129,1114,1092,1080,1077,1076,1075,1058,1004,907,802,723,669,653,636,616,583,580,580,580,577,575,574,561,542,526,515],"ymouse":[625,625,625,625,625,625,625,625,625,625,625,625,625,625,625,625,625,625,625,625,625,625,625,625,625,625,625,625,625,625,625,625,625,625,625,625,625,625,625,625,625,625,625,625,625,625,625,625,625,625,625,625,625,625,625,625,625,625,625,625,625,625,625,625,625,625,625,625,625,625,625,625,625,625,625,625,622,579,548,502,433,349,234,212,192,180,166,141,138,137,135,132,117,106,104,102,100,100,100,100,100,100,100,100,100,100,100,100,100,100,100,100,110,128,138,142,142,143,143,138,117,87,63,43,35,28,21,16,16,16,16,18,26,30,38,41,43,45],"timestamp_mouse":[18,40,58,78,98,117,139,158,178,199,219,238,257,279,299,318,338,357,379,399,417,439,459,479,498,518,537,559,578,599,618,638,658,678,699,719,737,759,778,798,819,839,859,877,899,918,939,958,978,998,1019,1039,1058,1078,1099,1118,1139,1158,1178,1199,1219,1238,1259,1279,1298,1318,1338,1358,1378,1399,1418,1439,1459,1479,1498,1518,1538,1557,1578,1598,1618,1639,1658,1677,1698,1718,1738,1758,1778,1798,1818,1837,1858,1877,1898,1918,1939,1959,1978,1997,2018,2039,2059,2078,2097,2119,2139,2159,2177,2198,2218,2239,2258,2278,2298,2319,2338,2358,2378,2398,2417,2438,2458,2479,2498,2519,2539,2558,2579,2597,2618,2638,2658,2679,2698,2717,2738,2758],"xSR":741.5,"ySR":573.95,"xT1":424.9,"yT1":0,"xT2":1058.1,"yT2":0,"toosoon":0,"cond_shown":"Incongruent","ratio_trial":200,"L_num":1,"L_den":3,"R_num":2,"R_den":15,"correct_side":1,"subjID":"DavidSantiago BernalPuerto33","gender":"0","school":"6","age":"11"},{"start_time":1551892006385,"click_time":1551892008240,"finger_time":1551892007800,"fix_duration":344.7447036420937,"trial":4,"RT":1415,"MT":440,"sideResp":1,"stimulus":[],"xmouse":[771,771,771,771,771,771,771,771,771,771,771,771,771,771,771,771,771,771,771,771,771,771,771,771,771,771,771,771,771,771,771,771,771,771,771,771,771,771,771,771,771,771,771,771,771,771,771,771,771,771,771,771,771,771,771,771,771,771,771,771,771,771,771,771,771,771,771,771,771,772,772,772,772,772,769,758,752,749,744,730,712,695,678,660,572,498,470,469,469,469,469,470,470],"ymouse":[612,612,612,612,612,612,612,612,612,612,612,612,612,612,612,612,612,612,612,612,612,612,612,612,612,612,612,612,612,612,612,612,612,612,612,612,612,612,612,612,612,612,612,612,612,612,612,612,612,612,612,612,612,612,612,612,612,612,612,612,612,612,612,612,612,612,612,612,612,579,550,517,463,319,268,243,227,220,210,196,179,158,133,106,32,0,0,0,0,0,0,0,3],"timestamp_mouse":[19,38,55,75,96,114,135,155,174,195,215,234,256,275,296,315,335,356,375,395,415,436,455,475,495,515,534,556,575,595,614,636,654,674,695,716,735,756,775,795,815,836,856,874,895,915,935,956,975,995,1016,1035,1055,1075,1095,1115,1135,1155,1175,1195,1216,1235,1255,1275,1296,1315,1334,1356,1375,1396,1415,1435,1456,1475,1495,1515,1536,1556,1575,1596,1615,1635,1655,1675,1695,1715,1736,1755,1775,1795,1815,1836,1855],"xSR":741.5,"ySR":573.95,"xT1":424.9,"yT1":0,"xT2":1058.1,"yT2":0,"toosoon":0,"cond_shown":"Congruent","ratio_trial":300,"L_num":11,"L_den":22,"R_num":1,"R_den":5,"correct_side":1,"subjID":"DavidSantiago BernalPuerto33","gender":"0","school":"6","age":"11"},{"start_time":1551892010315,"click_time":1551892012141,"finger_time":1551892011580,"fix_duration":1373.7109020768635,"trial":5,"RT":1265,"MT":561,"sideResp":1,"stimulus":[],"xmouse":[786,786,786,786,786,786,786,786,786,786,786,786,786,786,786,786,786,786,786,786,786,786,786,786,786,786,786,786,787,787,787,787,787,787,787,787,787,787,787,787,787,787,787,787,787,787,787,787,787,787,787,787,787,787,787,787,787,787,787,787,787,787,784,769,751,733,709,668,634,615,606,597,581,578,573,571,567,551,548,548,548,548,548,548,548,548,546,541,540,540,539,521],"ymouse":[623,623,623,623,623,623,623,623,623,623,623,623,623,623,623,623,623,623,623,623,623,623,623,623,623,623,623,623,623,623,623,623,623,623,623,623,623,623,623,623,623,623,623,623,623,623,623,623,623,623,623,623,623,623,623,623,623,623,623,623,623,619,590,529,464,402,343,260,206,181,166,149,116,106,97,92,86,59,55,54,54,54,54,54,54,54,54,54,54,54,54,54],"timestamp_mouse":[9,25,45,66,84,106,125,145,164,186,206,225,246,265,285,306,325,346,366,384,406,425,445,465,485,506,525,546,565,586,604,626,646,664,685,706,725,745,766,785,806,826,845,865,885,906,926,945,965,985,1005,1026,1045,1064,1085,1105,1125,1146,1165,1186,1205,1225,1245,1265,1285,1306,1326,1345,1365,1385,1405,1425,1445,1465,1485,1505,1526,1545,1564,1585,1605,1626,1645,1666,1685,1706,1725,1745,1765,1785,1805,1825],"xSR":741.5,"ySR":573.95,"xT1":424.9,"yT1":0,"xT2":1058.1,"yT2":0,"toosoon":0,"cond_shown":"Congruent","ratio_trial":300,"L_num":4,"L_den":5,"R_num":2,"R_den":4,"correct_side":1,"subjID":"DavidSantiago BernalPuerto33","gender":"0","school":"6","age":"11"},{"start_time":1551892014034,"click_time":1551892015660,"finger_time":1551892015341,"fix_duration":832.571334229762,"trial":6,"RT":1307,"MT":319,"sideResp":1,"stimulus":[],"xmouse":[798,798,798,798,798,798,798,798,798,798,798,798,798,798,798,798,798,798,798,798,798,798,798,798,798,798,798,798,798,798,798,798,798,798,798,798,798,798,798,798,798,798,798,798,798,798,798,798,798,798,798,798,798,798,798,798,798,798,798,798,798,798,798,798,796,775,712,675,663,656,650,642,637,632,626,614,588,582,580,572,557,506],"ymouse":[600,600,600,600,600,600,600,600,600,600,600,600,600,600,600,600,600,600,600,600,600,600,600,600,600,600,600,600,600,600,600,600,600,600,600,600,600,600,600,600,600,600,600,600,600,600,600,600,600,600,600,600,600,600,600,600,600,600,600,600,600,600,600,595,583,534,384,282,248,231,222,211,204,197,188,174,153,146,144,132,110,55],"timestamp_mouse":[15,39,47,66,86,106,126,146,167,187,207,226,246,267,287,307,327,346,366,386,407,426,445,467,486,507,526,547,567,586,606,626,646,667,685,707,727,747,767,786,805,827,846,867,887,907,927,945,967,986,1006,1027,1045,1067,1086,1106,1127,1147,1167,1187,1206,1226,1247,1267,1287,1307,1326,1346,1366,1387,1405,1426,1446,1466,1486,1507,1526,1547,1566,1586,1606,1626],"xSR":741.5,"ySR":573.95,"xT1":424.9,"yT1":0,"xT2":1058.1,"yT2":0,"toosoon":0,"cond_shown":"Incongruent","ratio_trial":300,"L_num":4,"L_den":5,"R_num":6,"R_den":12,"correct_side":1,"subjID":"DavidSantiago BernalPuerto33","gender":"0","school":"6","age":"11"},{"start_time":1551892016782,"click_time":1551892018521,"finger_time":1551892018220,"fix_duration":401.8187157078972,"trial":7,"RT":1438,"MT":301,"sideResp":1,"stimulus":[],"xmouse":[785,785,785,785,785,785,785,785,785,785,785,785,785,785,785,785,785,785,785,785,785,785,785,785,785,785,785,785,785,785,785,785,785,785,785,785,785,785,785,785,785,785,785,785,785,785,785,785,785,785,785,787,787,787,787,787,787,787,787,787,787,787,787,787,787,787,787,787,787,787,782,769,749,704,683,664,638,613,585,577,563,549,537,531,531,530,521],"ymouse":[628,628,628,628,628,628,628,628,628,628,628,628,628,628,628,628,628,628,628,628,628,628,628,628,628,628,628,628,628,628,628,628,628,628,628,628,628,628,628,628,628,628,628,628,628,628,628,628,628,628,628,627,627,627,627,627,627,627,627,627,627,627,627,627,627,627,627,627,626,616,590,557,501,394,343,290,238,200,161,145,113,88,68,59,59,59,58],"timestamp_mouse":[19,38,58,77,98,117,138,158,178,198,219,238,258,279,298,319,338,358,379,398,419,438,459,479,498,518,539,558,579,598,617,639,658,678,698,717,739,758,778,798,819,838,857,878,899,918,938,958,978,998,1017,1038,1058,1077,1098,1119,1138,1158,1179,1198,1218,1239,1259,1278,1298,1319,1337,1359,1378,1397,1418,1438,1459,1478,1498,1519,1539,1558,1578,1597,1618,1639,1658,1677,1698,1718,1738],"xSR":741.5,"ySR":573.95,"xT1":424.9,"yT1":0,"xT2":1058.1,"yT2":0,"toosoon":0,"cond_shown":"Incongruent","ratio_trial":100,"L_num":4,"L_den":8,"R_num":8,"R_den":20,"correct_side":1,"subjID":"DavidSantiago BernalPuerto33","gender":"0","school":"6","age":"11"},{"start_time":1551892022090,"click_time":1551892024860,"finger_time":1551892024581,"fix_duration":1187.1528208380832,"trial":8,"RT":2491,"MT":279,"sideResp":1,"stimulus":[],"xmouse":[798,798,798,798,798,798,798,798,798,798,798,798,798,798,798,798,798,798,798,798,798,798,798,798,798,798,798,798,798,798,798,798,798,798,798,798,798,798,798,798,798,798,798,798,798,798,798,798,798,798,798,798,798,798,798,798,798,798,798,798,798,798,798,798,798,798,798,798,798,798,798,798,798,798,797,797,797,797,797,797,797,797,797,797,797,797,797,797,797,797,797,797,797,797,797,797,797,797,797,797,797,797,797,797,797,797,797,797,797,797,797,797,797,797,797,797,797,797,797,797,797,797,796,796,792,780,760,732,646,602,575,558,550,546,542,535,525,514,506],"ymouse":[651,651,651,651,651,651,651,651,651,651,651,651,651,651,651,651,651,651,651,651,651,651,651,651,651,651,651,651,651,651,651,651,651,651,651,651,651,651,651,651,651,651,651,651,651,651,651,651,651,641,635,631,629,628,628,628,628,628,628,628,628,628,628,628,628,628,628,628,628,628,628,628,628,628,628,628,628,628,628,628,628,628,628,628,628,628,628,628,628,628,628,628,628,628,628,628,628,628,628,628,628,628,628,628,628,628,628,628,628,628,628,628,628,628,628,628,628,628,628,628,628,628,624,609,573,527,461,387,235,175,147,131,127,125,121,116,109,101,94],"timestamp_mouse":[11,34,50,70,90,110,130,150,171,190,210,231,251,270,291,310,330,351,370,390,411,431,451,471,490,510,530,551,570,590,610,631,651,669,691,711,731,751,771,790,810,830,851,870,891,911,931,951,971,990,1010,1031,1050,1071,1090,1110,1131,1150,1170,1190,1211,1231,1250,1271,1291,1311,1330,1350,1371,1389,1411,1431,1451,1470,1491,1510,1531,1551,1571,1591,1611,1631,1651,1670,1690,1711,1731,1750,1771,1791,1810,1831,1851,1870,1891,1910,1931,1951,1970,1990,2011,2029,2051,2071,2090,2110,2131,2151,2171,2191,2211,2229,2250,2270,2291,2311,2331,2351,2371,2391,2410,2430,2450,2470,2491,2510,2531,2551,2570,2590,2610,2630,2651,2671,2690,2710,2731,2750,2770],"xSR":741.5,"ySR":573.95,"xT1":424.9,"yT1":0,"xT2":1058.1,"yT2":0,"toosoon":0,"cond_shown":"Incongruent","ratio_trial":200,"L_num":7,"L_den":10,"R_num":12,"R_den":24,"correct_side":1,"subjID":"DavidSantiago BernalPuerto33","gender":"0","school":"6","age":"11"},{"start_time":1551892026237,"click_time":1551892027660,"finger_time":1551892027460,"fix_duration":516.5973628937696,"trial":9,"RT":1223,"MT":200,"sideResp":2,"stimulus":[],"xmouse":[773,773,773,773,773,773,773,773,773,773,773,773,773,773,773,773,773,773,773,773,773,773,773,773,773,773,773,773,773,773,773,773,773,773,773,773,773,773,773,773,773,773,773,773,773,773,773,773,773,773,773,773,773,773,779,788,812,814,814,814,816,828,871,904,938,968,1004,1011,1017,1026,1041,1080],"ymouse":[610,610,610,610,610,610,610,610,610,611,611,611,611,611,611,611,611,611,611,611,611,611,611,611,611,611,611,611,611,611,611,611,611,611,611,611,611,611,611,611,611,611,611,611,611,611,611,611,611,611,611,611,611,611,610,603,586,581,581,581,576,551,449,388,329,283,219,198,185,167,147,69],"timestamp_mouse":[9,24,44,64,84,103,123,144,163,183,203,224,244,264,283,303,323,343,363,383,404,424,444,464,483,504,524,543,564,583,603,623,644,664,684,704,724,744,764,784,803,823,844,864,886,904,923,944,964,983,1002,1024,1044,1064,1083,1104,1123,1144,1163,1183,1203,1223,1243,1263,1283,1303,1323,1343,1363,1383,1403,1423],"xSR":741.5,"ySR":573.95,"xT1":424.9,"yT1":0,"xT2":1058.1,"yT2":0,"toosoon":0,"cond_shown":"Incongruent","ratio_trial":300,"L_num":13,"L_den":26,"R_num":12,"R_den":15,"correct_side":2,"subjID":"DavidSantiago BernalPuerto33","gender":"0","school":"6","age":"11"},{"start_time":1551892028752,"click_time":1551892030480,"finger_time":1551892030100,"fix_duration":250,"trial":10,"RT":1348,"MT":380,"sideResp":2,"stimulus":[],"xmouse":[796,796,796,796,796,796,796,796,796,796,796,796,796,796,796,796,796,796,796,796,796,796,796,796,796,796,796,796,796,796,796,796,796,796,796,796,796,796,796,796,796,796,796,796,796,796,796,796,796,796,796,796,796,796,796,796,796,796,796,796,796,796,796,796,796,798,827,849,869,890,908,947,978,990,1003,1017,1024,1030,1036,1047,1054,1054,1054,1054,1054,1058,1060],"ymouse":[628,628,628,628,628,628,628,628,628,628,628,628,628,628,628,628,628,628,628,628,628,628,628,628,628,628,628,628,628,628,628,628,628,628,628,628,628,628,628,628,628,628,628,628,628,628,628,628,628,628,628,628,628,628,628,628,628,628,628,628,628,628,628,628,627,625,579,539,496,450,395,271,209,186,161,113,94,83,78,74,68,68,68,68,68,67,67],"timestamp_mouse":[9,39,48,69,89,108,129,149,168,188,209,229,247,269,288,308,327,349,368,388,408,429,448,468,488,508,528,549,569,589,609,628,648,668,689,709,728,747,769,787,809,828,848,869,888,909,928,948,968,989,1008,1028,1048,1068,1088,1109,1128,1148,1168,1188,1208,1229,1249,1268,1288,1308,1328,1348,1368,1389,1408,1429,1448,1469,1488,1507,1528,1548,1568,1588,1608,1629,1648,1668,1689,1708,1728],"xSR":741.5,"ySR":573.95,"xT1":424.9,"yT1":0,"xT2":1058.1,"yT2":0,"toosoon":0,"cond_shown":"Congruent","ratio_trial":200,"L_num":6,"L_den":20,"R_num":11,"R_den":22,"correct_side":2,"subjID":"DavidSantiago BernalPuerto33","gender":"0","school":"6","age":"11"},{"start_time":1551892032347,"click_time":1551892033520,"finger_time":1551892033320,"fix_duration":1006.0148723484302,"trial":11,"RT":973,"MT":200,"sideResp":2,"stimulus":[],"xmouse":[752,752,752,752,752,752,752,752,752,752,752,752,752,752,752,752,752,752,752,752,752,752,752,752,752,752,752,752,752,752,752,752,752,752,752,752,752,752,752,752,752,752,752,752,752,752,752,761,777,809,883,905,940,967,985,1032,1051,1066,1083],"ymouse":[614,614,614,614,614,614,614,614,614,614,614,614,614,614,614,614,614,614,614,614,614,614,614,614,614,614,614,614,614,614,614,614,614,614,614,614,614,614,614,614,614,614,614,614,614,614,608,588,554,498,396,365,313,270,241,172,146,118,84],"timestamp_mouse":[13,34,53,73,93,114,133,153,174,194,213,233,254,274,293,313,333,353,374,393,413,434,453,472,493,513,533,554,572,593,614,633,654,673,693,713,734,753,773,793,813,833,864,874,894,913,933,953,973,993,1014,1034,1053,1073,1093,1113,1133,1153,1173],"xSR":741.5,"ySR":573.95,"xT1":424.9,"yT1":0,"xT2":1058.1,"yT2":0,"toosoon":0,"cond_shown":"Incongruent","ratio_trial":200,"L_num":11,"L_den":20,"R_num":3,"R_den":4,"correct_side":2,"subjID":"DavidSantiago BernalPuerto33","gender":"0","school":"6","age":"11"},{"start_time":1551892035025,"click_time":1551892036660,"finger_time":1551892036341,"fix_duration":582.1330180242448,"trial":12,"RT":1316,"MT":319,"sideResp":2,"stimulus":[],"xmouse":[814,814,814,814,814,814,814,814,814,814,814,814,814,814,814,814,814,814,814,814,814,814,814,814,814,814,814,814,814,814,814,814,814,814,814,814,814,814,814,814,814,814,814,814,814,814,814,814,814,814,814,814,814,814,814,814,814,814,814,814,812,808,808,814,835,858,903,926,932,934,938,963,977,987,995,1002,1029,1057,1072,1080,1086,1103],"ymouse":[652,652,652,652,652,652,652,652,652,652,652,652,652,652,652,652,652,652,652,652,652,652,652,652,652,652,652,652,652,652,652,652,652,652,652,652,652,652,652,652,652,652,652,652,652,652,652,652,652,652,652,652,652,652,652,652,652,652,652,652,652,651,648,629,590,553,487,434,407,383,356,300,279,265,252,233,188,158,145,134,119,87],"timestamp_mouse":[15,36,55,75,96,115,135,155,175,195,215,236,255,276,295,315,336,354,374,395,415,435,455,475,494,514,535,555,575,595,615,635,654,675,695,715,735,756,776,795,815,835,856,875,896,915,934,955,975,995,1015,1035,1056,1075,1095,1116,1135,1156,1175,1196,1215,1235,1255,1275,1295,1316,1335,1354,1375,1395,1415,1435,1454,1475,1496,1516,1535,1556,1575,1595,1615,1635],"xSR":741.5,"ySR":573.95,"xT1":424.9,"yT1":0,"xT2":1058.1,"yT2":0,"toosoon":0,"cond_shown":"Congruent","ratio_trial":200,"L_num":3,"L_den":10,"R_num":11,"R_den":22,"correct_side":2,"subjID":"DavidSantiago BernalPuerto33","gender":"0","school":"6","age":"11"},{"start_time":1551892037472,"click_time":1551892038880,"finger_time":1551892038121,"fix_duration":250,"trial":13,"RT":649,"MT":759,"sideResp":1,"stimulus":[],"xmouse":[787,787,787,787,787,787,787,787,787,787,787,787,787,787,787,787,787,787,787,787,787,787,787,787,787,787,787,787,787,799,804,808,808,808,808,808,808,808,808,808,808,808,808,808,808,806,805,804,803,802,802,802,801,795,730,662,627,600,581,571,560,555,549,543,542,542,537,530,526,525,523],"ymouse":[661,661,661,661,661,661,661,661,661,661,661,661,661,661,661,661,661,661,661,661,661,661,661,661,661,661,661,661,661,630,604,580,561,550,550,550,550,550,550,550,550,550,550,550,552,559,569,573,576,577,577,577,563,520,372,255,194,137,96,74,53,46,40,35,34,34,34,34,34,34,34],"timestamp_mouse":[8,37,49,68,88,109,129,148,168,188,208,228,248,268,289,307,328,349,368,387,409,429,448,468,488,508,528,548,568,588,608,628,649,668,688,708,728,749,768,788,808,829,848,868,887,909,929,948,969,988,1009,1028,1048,1068,1087,1109,1128,1148,1168,1188,1208,1228,1248,1267,1288,1308,1328,1349,1368,1388,1408],"xSR":741.5,"ySR":573.95,"xT1":424.9,"yT1":0,"xT2":1058.1,"yT2":0,"toosoon":0,"cond_shown":"Incongruent","ratio_trial":300,"L_num":1,"L_den":2,"R_num":3,"R_den":15,"correct_side":1,"subjID":"DavidSantiago BernalPuerto33","gender":"0","school":"6","age":"11"},{"start_time":1551892039911,"click_time":1551892041340,"finger_time":1551892041240,"fix_duration":250,"trial":14,"RT":1329,"MT":100,"sideResp":1,"stimulus":[],"xmouse":[819,819,820,821,822,822,822,822,822,822,822,822,822,822,823,823,823,823,823,823,823,823,823,823,823,823,823,823,823,823,823,823,823,823,823,823,823,823,823,823,823,823,823,823,823,823,823,823,823,823,823,823,823,823,823,823,823,823,823,823,823,823,823,823,823,811,778,730,604,552,517,495],"ymouse":[613,613,612,612,612,612,612,612,612,612,612,612,612,612,611,611,611,611,611,611,611,611,611,611,611,611,611,611,611,611,611,611,611,611,611,611,611,611,611,611,611,611,611,611,611,611,611,611,611,611,611,611,611,611,611,611,611,611,611,611,611,611,611,611,608,574,503,420,239,167,125,96],"timestamp_mouse":[12,34,49,70,89,109,129,148,170,189,209,229,249,269,289,309,329,348,369,389,409,429,449,470,490,510,529,549,568,590,610,629,649,669,690,709,729,750,770,788,810,829,849,870,889,909,930,949,969,990,1010,1029,1050,1069,1089,1109,1130,1150,1169,1189,1210,1229,1250,1269,1289,1310,1329,1349,1369,1390,1409,1429],"xSR":741.5,"ySR":573.95,"xT1":424.9,"yT1":0,"xT2":1058.1,"yT2":0,"toosoon":0,"cond_shown":"Incongruent","ratio_trial":100,"L_num":13,"L_den":26,"R_num":12,"R_den":20,"correct_side":2,"subjID":"DavidSantiago BernalPuerto33","gender":"0","school":"6","age":"11"},{"start_time":1551892045553,"click_time":1551892046800,"finger_time":1551892046420,"fix_duration":1411.6280656112826,"trial":15,"RT":867,"MT":380,"sideResp":2,"stimulus":[],"xmouse":[795,795,795,795,794,794,794,794,794,794,794,796,797,797,797,797,797,797,797,797,797,797,797,797,797,797,797,797,797,797,797,797,797,797,797,797,797,797,797,798,799,805,823,832,839,845,846,847,847,848,848,848,848,839,827,821,821,821,836,892,1041,1110,1127],"ymouse":[645,645,644,644,643,643,643,641,639,638,636,632,630,628,628,628,628,628,628,628,628,628,628,628,628,628,628,628,628,628,628,628,628,628,628,628,628,628,628,628,626,615,582,558,543,529,527,524,518,507,492,492,492,502,516,524,524,524,515,468,285,148,71],"timestamp_mouse":[12,27,57,67,87,107,127,147,167,187,207,228,247,267,287,307,327,347,367,388,407,426,448,467,487,507,527,548,567,588,607,628,648,668,687,707,728,748,767,787,807,828,847,867,888,907,927,947,968,988,1008,1028,1047,1068,1088,1107,1126,1148,1167,1187,1207,1227,1247],"xSR":741.5,"ySR":573.95,"xT1":424.9,"yT1":0,"xT2":1058.1,"yT2":0,"toosoon":0,"cond_shown":"Incongruent","ratio_trial":200,"L_num":6,"L_den":20,"R_num":3,"R_den":6,"correct_side":2,"subjID":"DavidSantiago BernalPuerto33","gender":"0","school":"6","age":"11"},{"start_time":1551892047993,"click_time":1551892049641,"finger_time":1551892049300,"fix_duration":250,"trial":16,"RT":1307,"MT":341,"sideResp":2,"stimulus":[],"xmouse":[755,755,755,755,755,755,755,755,755,755,755,755,755,755,755,755,755,755,755,755,755,755,755,755,755,755,755,755,755,755,755,755,755,755,755,755,755,755,755,755,755,755,755,755,755,755,755,755,755,755,755,755,755,755,755,755,755,755,755,755,755,755,755,756,788,849,922,999,1061,1126,1133,1137,1138,1142,1143,1145,1145,1145,1145,1145,1145,1145,1143],"ymouse":[632,633,635,635,635,635,635,635,635,635,635,635,635,635,635,635,635,635,635,635,635,635,635,635,635,635,635,635,635,635,635,635,635,635,635,635,635,635,635,635,635,635,635,635,635,635,635,635,635,635,635,635,635,635,635,635,635,635,635,635,635,635,635,635,608,555,494,430,376,298,280,268,258,237,227,214,200,186,172,136,120,105,94],"timestamp_mouse":[8,32,48,68,87,107,128,147,167,186,208,228,246,267,288,307,327,348,367,388,407,428,447,467,487,507,528,548,567,587,608,627,647,668,688,708,728,747,767,787,808,828,848,867,887,907,927,948,968,988,1007,1027,1048,1068,1087,1107,1128,1147,1167,1188,1207,1228,1248,1268,1287,1307,1327,1347,1367,1388,1407,1427,1447,1467,1487,1507,1527,1547,1567,1587,1607,1627,1647],"xSR":741.5,"ySR":573.95,"xT1":424.9,"yT1":0,"xT2":1058.1,"yT2":0,"toosoon":0,"cond_shown":"Congruent","ratio_trial":200,"L_num":13,"L_den":26,"R_num":14,"R_den":20,"correct_side":2,"subjID":"DavidSantiago BernalPuerto33","gender":"0","school":"6","age":"11"},{"start_time":1551892052174,"click_time":1551892054040,"finger_time":1551892053479,"fix_duration":1492.7517025634004,"trial":17,"RT":1305,"MT":561,"sideResp":1,"stimulus":[],"xmouse":[767,767,767,767,767,767,767,767,767,767,767,767,767,767,767,767,767,767,767,767,767,767,767,767,767,767,767,767,767,767,767,767,767,767,767,767,767,767,767,767,767,767,767,767,767,767,767,767,767,767,767,767,767,767,767,767,767,767,767,767,767,767,767,767,769,769,769,756,733,702,697,693,687,679,670,667,659,644,626,594,590,589,589,585,568,552,552,552,552,538,536,536,534,518],"ymouse":[641,641,641,641,641,641,641,641,641,641,641,641,641,641,641,641,641,641,641,641,641,641,641,641,641,641,641,641,641,641,641,641,641,641,641,641,641,641,641,641,641,641,641,641,641,641,641,641,641,641,641,641,641,641,641,641,641,641,641,641,641,641,641,641,608,559,491,419,348,269,255,247,238,226,210,204,196,180,159,103,84,79,78,74,66,58,58,58,57,50,49,49,49,49],"timestamp_mouse":[15,39,47,67,86,106,126,147,167,186,207,226,246,267,286,307,327,347,367,387,407,426,446,467,486,506,527,546,567,587,607,626,647,666,686,707,726,747,766,786,807,827,847,866,887,907,927,947,967,987,1006,1026,1046,1067,1085,1106,1126,1147,1166,1186,1207,1226,1246,1266,1286,1305,1326,1347,1366,1386,1405,1426,1446,1466,1486,1506,1526,1546,1567,1585,1607,1626,1646,1665,1686,1707,1726,1745,1766,1785,1806,1826,1846,1866],"xSR":741.5,"ySR":573.95,"xT1":424.9,"yT1":0,"xT2":1058.1,"yT2":0,"toosoon":0,"cond_shown":"Congruent","ratio_trial":200,"L_num":16,"L_den":20,"R_num":12,"R_den":20,"correct_side":1,"subjID":"DavidSantiago BernalPuerto33","gender":"0","school":"6","age":"11"},{"start_time":1551892055562,"click_time":1551892057241,"finger_time":1551892056880,"fix_duration":1019.1436381208212,"trial":18,"RT":1318,"MT":361,"sideResp":1,"stimulus":[],"xmouse":[782,782,782,782,782,782,782,782,782,782,782,782,782,782,782,782,782,782,782,782,782,782,782,782,782,782,782,782,782,782,782,782,782,782,782,782,782,782,782,782,782,782,782,782,782,782,782,782,782,782,782,782,782,782,782,782,782,782,782,782,782,782,782,782,783,783,776,763,750,740,722,702,664,651,643,636,631,614,581,547,528,528,528,525,510],"ymouse":[636,636,636,636,636,636,636,636,636,636,636,636,636,636,636,636,636,636,636,636,636,636,636,636,636,636,636,636,636,636,636,636,636,636,636,636,636,636,636,636,636,636,636,636,636,636,636,636,636,636,636,636,636,636,636,636,636,636,636,636,636,636,636,636,636,627,534,447,362,297,212,163,92,65,48,33,29,24,13,0,0,0,0,0,10],"timestamp_mouse":[1,31,38,58,78,99,118,138,159,178,198,218,239,259,277,298,319,339,359,379,398,418,438,458,478,498,518,538,558,578,598,618,638,658,678,697,718,738,759,778,798,818,839,858,878,898,918,938,957,979,998,1018,1038,1058,1079,1098,1118,1138,1159,1178,1199,1219,1238,1259,1278,1298,1318,1338,1359,1379,1398,1419,1438,1459,1479,1498,1518,1538,1559,1578,1598,1618,1638,1658,1678],"xSR":741.5,"ySR":573.95,"xT1":424.9,"yT1":0,"xT2":1058.1,"yT2":0,"toosoon":0,"cond_shown":"Incongruent","ratio_trial":100,"L_num":3,"L_den":6,"R_num":4,"R_den":10,"correct_side":1,"subjID":"DavidSantiago BernalPuerto33","gender":"0","school":"6","age":"11"},{"start_time":1551892058461,"click_time":1551892059740,"finger_time":1551892059460,"fix_duration":439.425426877186,"trial":19,"RT":999,"MT":280,"sideResp":2,"stimulus":[],"xmouse":[809,809,809,809,809,809,809,809,809,810,810,810,810,810,810,810,810,810,810,810,810,810,810,810,810,810,810,810,810,810,810,810,811,812,812,813,813,813,813,813,813,813,813,813,813,813,813,817,825,872,924,988,1050,1101,1163,1167,1167,1167,1167,1170,1170,1168,1162,1134],"ymouse":[662,662,662,662,662,662,662,662,662,662,662,662,662,662,662,662,662,662,662,662,662,662,662,662,662,662,662,662,662,662,662,662,662,662,660,655,655,655,655,655,655,655,655,655,655,655,655,647,634,572,491,384,274,178,56,33,10,6,0,0,0,0,0,8],"timestamp_mouse":[19,39,59,79,99,120,140,159,179,200,218,240,260,280,300,320,340,360,379,399,420,439,460,480,498,520,540,559,579,600,619,640,659,680,699,720,739,760,779,800,818,840,859,878,899,919,939,960,979,999,1019,1039,1060,1080,1099,1120,1139,1159,1179,1199,1219,1238,1260,1279],"xSR":741.5,"ySR":573.95,"xT1":424.9,"yT1":0,"xT2":1058.1,"yT2":0,"toosoon":0,"cond_shown":"Congruent","ratio_trial":300,"L_num":2,"L_den":10,"R_num":12,"R_den":24,"correct_side":2,"subjID":"DavidSantiago BernalPuerto33","gender":"0","school":"6","age":"11"},{"start_time":1551892060831,"click_time":1551892061840,"finger_time":1551892061459,"fix_duration":250,"trial":20,"RT":628,"MT":381,"sideResp":1,"stimulus":[],"xmouse":[772,772,772,772,772,772,772,772,772,772,772,772,772,772,772,772,772,772,772,772,772,772,772,772,772,772,772,772,772,772,772,762,754,752,752,751,740,728,720,712,706,698,686,659,629,616,616,608,576,537,519],"ymouse":[599,599,599,599,599,599,599,599,599,599,599,599,599,599,599,599,599,599,599,599,599,599,599,599,599,599,599,599,599,593,581,491,441,410,390,373,335,299,269,242,223,204,191,168,141,127,126,121,111,97,87],"timestamp_mouse":[9,32,49,69,89,109,129,150,169,189,209,229,248,270,289,308,330,349,369,389,410,429,449,469,489,509,530,548,569,589,609,628,649,669,689,710,729,750,769,790,809,829,849,869,889,909,930,949,969,989,1009],"xSR":741.5,"ySR":573.95,"xT1":424.9,"yT1":0,"xT2":1058.1,"yT2":0,"toosoon":0,"cond_shown":"Congruent","ratio_trial":300,"L_num":20,"L_den":25,"R_num":13,"R_den":26,"correct_side":1,"subjID":"DavidSantiago BernalPuerto33","gender":"0","school":"6","age":"11"},{"start_time":1551892062812,"click_time":1551892065741,"finger_time":1551892065061,"fix_duration":250,"trial":21,"RT":2249,"MT":680,"sideResp":2,"stimulus":[],"xmouse":[772,772,772,772,772,772,772,772,772,772,772,772,772,772,772,772,772,772,772,772,772,772,772,772,772,772,772,772,772,772,772,772,772,772,772,772,772,772,772,772,772,772,772,772,772,772,772,772,772,772,772,772,772,772,772,772,772,772,772,772,772,772,772,772,772,772,772,772,772,772,772,772,772,772,772,772,772,772,772,772,772,772,772,772,772,772,772,772,772,772,772,772,772,772,772,772,772,772,772,772,772,772,772,772,772,772,772,773,783,801,816,834,855,864,883,917,959,997,1005,1008,1008,1008,1008,1008,1020,1038,1050,1062,1074,1085,1097,1110,1130,1133,1133,1133,1133,1133,1133,1133,1133,1133,1133,1133,1133,1134,1138],"ymouse":[627,627,627,627,627,627,627,627,627,627,627,627,627,627,627,627,627,627,627,627,627,627,627,627,627,627,627,627,627,627,627,627,627,627,627,627,627,627,627,627,627,627,627,627,627,627,627,627,627,627,627,627,627,627,627,627,627,627,627,627,627,627,627,627,627,627,627,627,627,627,627,627,627,627,627,627,627,627,627,627,627,627,627,627,627,627,627,627,627,627,627,627,627,627,627,627,627,627,627,627,627,627,627,627,627,627,627,628,618,603,590,574,537,513,472,419,358,281,244,229,228,228,228,228,219,206,192,166,150,142,135,124,108,105,104,103,103,103,103,103,103,103,103,103,103,100,88],"timestamp_mouse":[8,35,47,69,88,108,129,148,168,189,209,228,249,269,288,308,328,348,368,389,408,428,448,468,488,509,528,548,569,589,608,629,648,668,688,709,728,748,769,789,808,828,848,869,888,908,929,949,969,988,1008,1028,1049,1069,1089,1108,1129,1148,1169,1188,1208,1227,1249,1268,1288,1307,1329,1348,1369,1388,1409,1429,1448,1468,1488,1508,1528,1548,1569,1588,1608,1629,1648,1669,1688,1708,1728,1747,1769,1788,1807,1829,1848,1868,1888,1908,1928,1947,1969,1988,2008,2029,2048,2068,2088,2108,2128,2148,2169,2188,2208,2229,2248,2268,2288,2308,2328,2348,2368,2388,2408,2429,2449,2468,2489,2508,2528,2548,2567,2588,2608,2628,2648,2669,2688,2708,2728,2749,2768,2789,2809,2828,2849,2869,2888,2908,2929],"xSR":741.5,"ySR":573.95,"xT1":424.9,"yT1":0,"xT2":1058.1,"yT2":0,"toosoon":0,"cond_shown":"Congruent","ratio_trial":100,"L_num":1,"L_den":2,"R_num":3,"R_den":5,"correct_side":2,"subjID":"DavidSantiago BernalPuerto33","gender":"0","school":"6","age":"11"},{"start_time":1551892066813,"click_time":1551892068400,"finger_time":1551892068140,"fix_duration":332.4961152189775,"trial":22,"RT":1327,"MT":260,"sideResp":2,"stimulus":[],"xmouse":[817,817,817,817,817,817,817,817,817,817,817,817,817,817,817,817,817,817,817,817,817,817,817,817,817,817,817,817,817,817,817,817,817,817,817,817,817,817,817,817,817,817,817,817,817,817,817,817,817,817,817,817,817,817,817,817,817,817,817,817,817,817,817,817,820,830,873,914,986,1012,1026,1032,1043,1045,1050,1053,1058,1070,1075,1081],"ymouse":[623,623,623,623,623,623,623,623,623,623,623,623,623,623,623,623,623,623,623,623,623,623,623,623,623,623,623,623,623,623,623,623,623,623,623,623,623,623,623,623,623,623,623,623,623,623,623,623,623,623,623,623,623,623,623,623,623,623,623,623,623,623,623,623,621,612,580,543,401,341,302,279,253,242,223,205,184,142,124,92],"timestamp_mouse":[8,28,61,68,88,107,127,148,167,186,207,227,248,268,288,307,327,348,368,387,407,427,447,467,487,507,528,547,568,587,607,627,647,667,687,706,727,747,767,788,808,826,848,867,886,907,927,947,967,988,1007,1027,1048,1067,1088,1108,1128,1148,1168,1187,1208,1228,1247,1267,1288,1308,1327,1347,1368,1387,1407,1427,1446,1467,1488,1507,1527,1547,1568,1587],"xSR":741.5,"ySR":573.95,"xT1":424.9,"yT1":0,"xT2":1058.1,"yT2":0,"toosoon":0,"cond_shown":"Congruent","ratio_trial":200,"L_num":9,"L_den":30,"R_num":13,"R_den":26,"correct_side":2,"subjID":"DavidSantiago BernalPuerto33","gender":"0","school":"6","age":"11"},{"start_time":1551892069472,"click_time":1551892071259,"finger_time":1551892070741,"fix_duration":250,"trial":23,"RT":1269,"MT":518,"sideResp":1,"stimulus":[],"xmouse":[813,813,813,813,813,813,813,813,813,813,813,813,813,813,813,813,813,813,813,813,813,813,813,813,813,813,813,813,813,813,813,813,813,813,813,813,813,813,813,813,813,813,813,813,813,813,813,813,813,813,813,813,813,813,813,813,813,813,813,813,813,810,807,795,749,691,655,633,626,625,625,623,614,608,605,603,596,581,567,558,557,556,556,556,556,553,551,549,537,489],"ymouse":[610,610,610,610,610,610,610,610,610,610,610,610,610,610,610,610,610,610,610,610,610,610,610,610,610,610,610,610,610,610,610,610,610,610,610,610,610,610,610,610,610,610,610,610,610,610,610,610,610,610,610,610,610,610,610,610,610,610,610,610,610,592,581,531,397,278,219,188,176,174,174,172,167,163,161,159,150,132,114,92,86,85,85,85,83,77,75,73,67,46],"timestamp_mouse":[11,28,48,68,88,111,127,149,168,189,209,228,248,269,288,309,328,348,369,388,409,428,448,468,488,507,528,549,568,588,608,627,648,668,688,709,728,748,768,788,807,827,847,867,889,909,928,948,969,989,1009,1027,1048,1068,1088,1108,1128,1148,1169,1189,1209,1229,1248,1269,1288,1309,1328,1348,1368,1388,1408,1428,1448,1468,1488,1508,1528,1549,1568,1588,1608,1628,1649,1667,1687,1707,1729,1748,1767,1787],"xSR":741.5,"ySR":573.95,"xT1":424.9,"yT1":0,"xT2":1058.1,"yT2":0,"toosoon":0,"cond_shown":"Incongruent","ratio_trial":200,"L_num":7,"L_den":10,"R_num":14,"R_den":28,"correct_side":1,"subjID":"DavidSantiago BernalPuerto33","gender":"0","school":"6","age":"11"},{"start_time":1551892073345,"click_time":1551892075620,"finger_time":1551892075160,"fix_duration":1344.8361508283567,"trial":24,"RT":1815,"MT":460,"sideResp":2,"stimulus":[],"xmouse":[799,799,800,800,800,800,797,797,797,797,797,797,797,797,797,797,797,797,797,797,797,797,797,797,797,797,797,797,797,797,797,797,797,797,797,797,797,797,797,797,797,797,797,797,797,797,797,797,797,797,797,797,797,797,797,797,797,797,797,797,797,797,797,797,797,797,797,797,797,797,797,797,797,797,797,797,797,797,797,797,797,797,797,797,797,797,797,797,797,798,817,835,855,879,894,924,943,954,962,972,997,1006,1006,1006,1006,1013,1022,1033,1041,1046,1046,1046,1050,1062],"ymouse":[624,623,620,619,619,619,620,620,620,620,620,620,620,620,620,620,620,620,620,620,620,620,620,620,620,620,620,620,620,620,620,620,620,620,620,620,620,620,620,620,620,620,620,620,620,620,620,620,620,620,620,620,620,620,620,620,620,620,620,620,620,620,620,620,620,620,620,620,620,620,620,620,620,620,620,620,620,620,620,620,620,620,620,620,620,620,620,620,620,615,569,514,441,352,327,294,278,258,237,215,178,155,146,143,143,132,124,113,104,100,99,99,97,90],"timestamp_mouse":[15,35,55,75,96,115,136,155,175,195,216,236,254,276,295,316,336,356,376,394,416,436,455,476,495,515,535,555,575,595,616,636,655,676,696,716,736,756,775,796,814,836,856,876,895,915,936,955,976,995,1016,1036,1056,1075,1094,1115,1135,1154,1175,1195,1215,1235,1255,1276,1295,1315,1335,1355,1375,1394,1415,1435,1455,1476,1494,1515,1536,1554,1575,1596,1615,1634,1656,1675,1695,1715,1734,1755,1775,1796,1815,1836,1855,1875,1895,1915,1935,1956,1975,1996,2015,2035,2055,2076,2095,2114,2135,2155,2175,2194,2215,2235,2255,2275],"xSR":741.5,"ySR":573.95,"xT1":424.9,"yT1":0,"xT2":1058.1,"yT2":0,"toosoon":0,"cond_shown":"Congruent","ratio_trial":100,"L_num":3,"L_den":20,"R_num":4,"R_den":16,"correct_side":2,"subjID":"DavidSantiago BernalPuerto33","gender":"0","school":"6","age":"11"},{"start_time":1551892077724,"click_time":1551892079381,"finger_time":1551892079000,"fix_duration":1163.0841731158803,"trial":25,"RT":1276,"MT":381,"sideResp":2,"stimulus":[],"xmouse":[796,796,796,796,796,796,796,796,796,796,796,796,796,796,796,796,796,796,796,796,796,796,796,796,796,796,796,796,796,796,796,796,796,796,796,796,796,796,796,796,796,796,796,796,796,796,796,796,796,796,796,796,796,796,796,796,796,796,796,796,796,796,806,852,892,935,1004,1019,1025,1029,1032,1033,1033,1033,1035,1035,1035,1035,1035,1037,1041,1056,1060],"ymouse":[597,597,597,597,597,597,597,597,597,597,597,597,597,597,597,597,597,597,597,597,597,597,597,597,597,597,597,597,597,597,597,597,597,597,597,597,597,597,597,597,597,597,597,597,597,597,597,597,597,597,597,597,597,597,597,597,597,597,597,597,597,597,579,490,413,334,207,174,152,136,124,106,81,66,57,55,55,55,55,55,52,44,43],"timestamp_mouse":[16,36,56,77,96,116,135,157,176,196,216,236,256,277,297,316,336,357,375,396,416,437,456,477,496,516,536,555,577,596,616,636,656,677,696,716,737,757,777,796,817,837,856,876,896,915,937,956,977,997,1016,1036,1056,1077,1096,1116,1137,1156,1176,1196,1216,1236,1257,1276,1296,1316,1336,1356,1376,1395,1416,1435,1456,1475,1495,1516,1536,1556,1577,1596,1617,1636,1657],"xSR":741.5,"ySR":573.95,"xT1":424.9,"yT1":0,"xT2":1058.1,"yT2":0,"toosoon":0,"cond_shown":"Congruent","ratio_trial":200,"L_num":13,"L_den":26,"R_num":14,"R_den":20,"correct_side":2,"subjID":"DavidSantiago BernalPuerto33","gender":"0","school":"6","age":"11"},{"start_time":1551892081174,"click_time":1551892082761,"finger_time":1551892082420,"fix_duration":1053.542833924763,"trial":26,"RT":1246,"MT":341,"sideResp":1,"stimulus":[],"xmouse":[781,781,781,781,781,781,781,781,781,781,781,781,781,781,781,781,781,781,781,781,781,781,781,781,781,781,781,781,781,781,781,781,781,781,781,781,781,781,781,781,781,781,781,781,781,781,781,781,781,781,781,781,781,781,781,781,781,781,781,781,780,774,762,747,714,691,656,625,597,545,525,516,515,515,511,508,507,509,516,524],"ymouse":[603,603,603,603,603,603,603,603,603,603,603,603,603,603,603,603,603,603,603,603,603,603,603,603,603,603,603,603,603,603,603,603,603,603,603,603,603,603,603,603,603,603,603,603,603,603,603,603,603,603,603,603,603,603,603,603,603,603,603,601,592,578,551,515,432,383,331,294,266,235,224,216,211,206,186,174,164,152,135,70],"timestamp_mouse":[9,32,45,66,86,106,126,146,166,186,206,227,246,266,287,306,327,346,365,386,406,427,446,466,487,506,527,546,567,586,605,626,647,667,687,706,726,746,767,786,807,826,846,866,886,906,927,948,966,986,1006,1028,1048,1066,1086,1106,1127,1147,1167,1187,1206,1226,1246,1266,1286,1306,1327,1346,1366,1387,1407,1426,1447,1466,1486,1506,1526,1547,1566,1587],"xSR":741.5,"ySR":573.95,"xT1":424.9,"yT1":0,"xT2":1058.1,"yT2":0,"toosoon":0,"cond_shown":"Congruent","ratio_trial":300,"L_num":11,"L_den":22,"R_num":2,"R_den":10,"correct_side":1,"subjID":"DavidSantiago BernalPuerto33","gender":"0","school":"6","age":"11"},{"start_time":1551892084013,"click_time":1551892085480,"finger_time":1551892085360,"fix_duration":250,"trial":27,"RT":1347,"MT":120,"sideResp":2,"stimulus":[],"xmouse":[769,769,769,769,769,769,769,771,781,788,795,799,800,800,800,800,800,800,800,800,800,800,800,800,800,800,800,800,800,800,800,800,800,800,800,800,800,800,800,800,800,800,800,800,800,800,800,800,800,800,800,800,800,800,800,800,800,800,800,800,800,800,800,800,800,807,812,886,940,1009,1033,1046,1055,1063],"ymouse":[654,654,654,654,654,654,654,651,644,638,633,630,629,629,629,629,629,629,629,629,629,629,629,629,629,629,629,629,629,629,629,629,629,629,629,629,629,629,629,629,629,629,629,629,629,629,629,629,629,629,629,629,629,629,629,629,629,629,629,629,629,629,629,629,629,620,607,477,383,241,165,123,87,72],"timestamp_mouse":[19,34,48,68,87,108,128,148,167,187,207,228,248,268,287,309,327,348,367,388,409,428,447,467,488,507,529,547,568,588,608,627,648,669,687,709,729,747,768,789,807,829,848,868,888,908,928,948,968,989,1009,1028,1047,1067,1089,1107,1127,1147,1168,1187,1207,1228,1247,1267,1288,1307,1328,1347,1368,1388,1407,1428,1447,1467],"xSR":741.5,"ySR":573.95,"xT1":424.9,"yT1":0,"xT2":1058.1,"yT2":0,"toosoon":0,"cond_shown":"Congruent","ratio_trial":200,"L_num":5,"L_den":10,"R_num":14,"R_den":20,"correct_side":2,"subjID":"DavidSantiago BernalPuerto33","gender":"0","school":"6","age":"11"},{"start_time":1551892092233,"click_time":1551892093540,"finger_time":1551892093201,"fix_duration":1131.9534795319694,"trial":28,"RT":968,"MT":339,"sideResp":2,"stimulus":[],"xmouse":[817,817,817,817,817,817,817,817,817,817,817,817,817,817,817,817,817,817,817,817,817,817,817,817,817,817,817,817,817,817,817,817,817,817,817,817,817,817,817,817,817,817,817,817,817,817,818,837,868,936,974,1016,1024,1027,1027,1027,1026,1030,1042,1053,1057,1060,1063,1068,1077,1092],"ymouse":[616,616,616,616,616,616,616,616,616,616,616,616,616,616,616,616,616,616,616,616,616,616,616,616,616,616,616,616,616,616,616,616,616,616,616,616,616,616,616,616,616,616,616,616,616,616,616,600,564,468,404,330,311,296,284,271,239,225,210,201,194,167,151,134,116,93],"timestamp_mouse":[10,41,47,67,89,107,127,147,169,188,207,228,249,267,288,307,328,348,367,389,408,428,447,469,488,507,529,549,568,587,609,627,649,667,688,709,728,747,767,788,807,827,848,867,888,907,927,948,968,988,1007,1027,1047,1067,1087,1108,1128,1148,1167,1189,1208,1228,1247,1268,1287,1307],"xSR":741.5,"ySR":573.95,"xT1":424.9,"yT1":0,"xT2":1058.1,"yT2":0,"toosoon":0,"cond_shown":"Incongruent","ratio_trial":300,"L_num":13,"L_den":26,"R_num":12,"R_den":15,"correct_side":2,"subjID":"DavidSantiago BernalPuerto33","gender":"0","school":"6","age":"11"},{"start_time":1551892094587,"click_time":1551892096200,"finger_time":1551892095900,"fix_duration":426.1901486384465,"trial":29,"RT":1313,"MT":300,"sideResp":2,"stimulus":[],"xmouse":[762,762,764,769,769,769,770,771,778,781,781,781,781,781,781,781,781,781,781,781,781,781,781,781,781,781,781,781,781,781,781,781,781,781,782,779,776,775,775,775,775,775,775,775,775,775,775,775,775,775,775,775,775,775,775,775,775,775,775,775,775,775,775,783,809,848,889,928,976,999,1019,1040,1049,1062,1070,1076,1080,1084,1086,1088,1091],"ymouse":[640,640,640,636,636,636,635,635,632,631,631,631,631,631,631,631,631,631,631,631,631,631,631,631,631,631,631,631,631,631,631,631,631,631,630,630,630,630,631,631,631,631,631,631,631,631,631,631,631,631,631,631,631,631,631,631,631,631,631,631,631,631,631,621,597,558,512,452,349,295,246,192,173,147,137,129,123,117,108,102,98],"timestamp_mouse":[13,38,53,73,94,115,133,153,174,195,215,234,253,273,295,313,335,353,373,393,413,433,454,475,493,514,534,553,575,595,615,633,654,674,693,713,735,753,775,794,814,833,855,874,893,915,933,953,974,993,1014,1033,1055,1074,1094,1115,1133,1153,1174,1193,1214,1234,1253,1274,1293,1313,1334,1353,1373,1394,1414,1434,1454,1473,1493,1514,1534,1555,1574,1594,1613],"xSR":741.5,"ySR":573.95,"xT1":424.9,"yT1":0,"xT2":1058.1,"yT2":0,"toosoon":0,"cond_shown":"Incongruent","ratio_trial":300,"L_num":4,"L_den":20,"R_num":2,"R_den":4,"correct_side":2,"subjID":"DavidSantiago BernalPuerto33","gender":"0","school":"6","age":"11"},{"start_time":1551892098159,"click_time":1551892099500,"finger_time":1551892099080,"fix_duration":1097.2246882633524,"trial":30,"RT":921,"MT":420,"sideResp":1,"stimulus":[],"xmouse":[788,788,788,788,788,788,788,788,788,788,788,788,788,788,788,788,788,788,788,788,788,788,788,788,788,788,788,788,788,788,788,788,788,788,788,788,788,788,788,788,788,788,788,788,788,787,775,752,709,657,585,579,579,579,579,571,570,569,569,569,569,569,569,568,563,536,525,521],"ymouse":[601,601,601,601,601,601,601,601,601,601,601,601,601,601,601,601,601,601,601,601,601,601,601,601,601,601,601,601,601,601,601,601,601,601,601,601,601,601,601,601,601,601,601,601,601,597,572,534,484,424,323,300,283,275,264,232,218,209,196,184,153,133,119,101,81,40,27,22],"timestamp_mouse":[9,31,43,62,81,102,123,141,161,181,203,222,241,263,282,301,321,342,362,382,402,422,441,462,481,502,521,543,561,583,603,621,641,662,681,703,721,743,762,782,803,821,841,863,881,901,921,941,961,981,1002,1022,1041,1061,1082,1101,1121,1142,1162,1181,1201,1223,1241,1262,1282,1301,1321,1341],"xSR":741.5,"ySR":573.95,"xT1":424.9,"yT1":0,"xT2":1058.1,"yT2":0,"toosoon":0,"cond_shown":"Congruent","ratio_trial":100,"L_num":1,"L_den":2,"R_num":3,"R_den":5,"correct_side":2,"subjID":"DavidSantiago BernalPuerto33","gender":"0","school":"6","age":"11"},{"start_time":1551892101282,"click_time":1551892103141,"finger_time":1551892102760,"fix_duration":758.319398331721,"trial":31,"RT":1478,"MT":381,"sideResp":1,"stimulus":[],"xmouse":[803,803,803,803,803,803,803,803,803,803,803,803,803,803,803,803,803,803,803,803,803,803,803,803,803,803,803,803,803,803,803,810,813,815,818,818,818,818,818,818,818,818,818,818,818,818,818,818,818,818,818,818,818,818,818,818,818,818,818,818,818,818,818,818,818,818,818,818,818,818,818,818,818,811,789,773,752,703,667,622,616,613,610,606,603,601,598,593,580,568,565,556,541,516],"ymouse":[606,606,606,606,606,606,606,606,606,606,606,606,606,606,606,606,606,606,606,606,606,606,606,606,606,606,606,606,606,606,606,604,602,601,600,600,600,600,600,600,600,600,600,600,600,600,600,600,600,600,600,600,600,600,600,600,600,600,600,600,600,600,600,600,600,600,600,600,600,600,600,600,600,595,569,533,467,338,252,149,129,110,95,80,68,45,25,13,0,0,0,14,34,57],"timestamp_mouse":[1,33,39,60,78,100,120,138,158,178,200,219,238,260,278,298,320,338,359,379,398,420,438,459,478,498,518,539,558,580,598,618,639,659,678,699,718,740,758,778,798,819,838,860,878,900,919,938,959,978,998,1018,1039,1059,1079,1098,1118,1139,1158,1179,1198,1218,1240,1258,1278,1298,1320,1338,1358,1379,1400,1420,1438,1458,1478,1498,1519,1540,1558,1578,1598,1618,1639,1658,1678,1698,1718,1739,1759,1778,1798,1818,1838,1859],"xSR":741.5,"ySR":573.95,"xT1":424.9,"yT1":0,"xT2":1058.1,"yT2":0,"toosoon":0,"cond_shown":"Congruent","ratio_trial":200,"L_num":5,"L_den":10,"R_num":14,"R_den":20,"correct_side":2,"subjID":"DavidSantiago BernalPuerto33","gender":"0","school":"6","age":"11"},{"start_time":1551892104795,"click_time":1551892106160,"finger_time":1551892105580,"fix_duration":934.2060051959426,"trial":32,"RT":785,"MT":580,"sideResp":1,"stimulus":[],"xmouse":[814,814,814,814,814,814,814,814,814,814,814,814,814,814,814,814,814,814,814,814,814,814,814,814,814,814,814,814,814,814,814,814,814,814,814,814,814,814,815,838,841,836,816,785,783,780,771,756,718,692,678,663,644,603,583,563,546,531,512,511,511,511,511,511,511,511,510,509,508],"ymouse":[604,604,604,604,604,604,604,604,604,604,604,604,604,604,604,604,604,604,604,604,604,604,604,604,604,604,604,604,604,604,604,604,604,604,604,604,604,604,604,553,531,505,476,428,412,390,366,338,293,269,257,246,234,204,188,172,159,148,137,136,136,136,136,122,113,106,103,102,91],"timestamp_mouse":[8,25,50,66,86,106,125,146,166,185,206,226,246,267,285,306,325,347,365,385,405,426,445,467,486,506,526,545,566,585,607,625,646,665,687,706,726,745,765,785,805,826,846,866,885,906,926,946,966,987,1006,1025,1045,1066,1085,1105,1126,1146,1165,1185,1205,1225,1245,1265,1285,1305,1327,1347,1365],"xSR":741.5,"ySR":573.95,"xT1":424.9,"yT1":0,"xT2":1058.1,"yT2":0,"toosoon":0,"cond_shown":"Congruent","ratio_trial":300,"L_num":12,"L_den":24,"R_num":2,"R_den":10,"correct_side":1,"subjID":"DavidSantiago BernalPuerto33","gender":"0","school":"6","age":"11"},{"start_time":1551892107608,"click_time":1551892109361,"finger_time":1551892108960,"fix_duration":646.9283293368418,"trial":33,"RT":1352,"MT":401,"sideResp":1,"stimulus":[],"xmouse":[803,803,803,803,803,803,803,803,803,803,803,803,803,803,803,803,803,803,803,803,803,803,803,803,803,803,803,803,803,803,803,803,803,803,803,803,803,803,803,803,803,803,803,803,803,803,803,803,803,803,803,803,803,803,803,803,803,803,803,803,803,803,803,803,803,805,805,795,755,729,712,704,672,643,623,613,610,608,608,608,608,608,599,587,576,563,547,489],"ymouse":[647,647,647,647,647,647,647,647,647,647,647,647,647,647,647,647,647,647,647,647,647,647,647,647,647,647,647,647,647,647,647,647,647,647,647,647,647,647,647,647,647,647,647,647,647,647,647,647,647,647,647,647,647,647,647,647,647,647,647,647,647,647,647,647,647,625,615,553,479,443,421,409,380,364,346,331,318,295,277,263,245,223,167,138,117,101,87,61],"timestamp_mouse":[13,36,53,73,93,113,132,152,174,193,212,234,253,273,293,314,332,352,373,393,412,433,454,473,492,512,534,552,573,593,613,632,652,674,692,713,734,752,773,793,813,832,853,874,893,913,932,952,974,993,1012,1034,1053,1072,1092,1113,1133,1152,1172,1193,1213,1232,1254,1274,1292,1312,1334,1352,1372,1392,1413,1433,1453,1472,1493,1513,1533,1552,1573,1592,1612,1633,1652,1672,1692,1712,1732,1753],"xSR":741.5,"ySR":573.95,"xT1":424.9,"yT1":0,"xT2":1058.1,"yT2":0,"toosoon":0,"cond_shown":"Congruent","ratio_trial":200,"L_num":6,"L_den":15,"R_num":3,"R_den":15,"correct_side":1,"subjID":"DavidSantiago BernalPuerto33","gender":"0","school":"6","age":"11"},{"start_time":1551892113519,"click_time":1551892115360,"finger_time":1551892114761,"fix_duration":296.15778129678426,"trial":34,"RT":1242,"MT":599,"sideResp":2,"stimulus":[],"xmouse":[825,825,825,825,825,825,825,825,825,825,825,825,825,825,825,825,825,825,825,825,825,825,825,825,825,825,825,825,825,825,825,825,825,825,825,825,825,825,825,825,825,825,825,825,825,825,825,825,825,825,825,825,825,825,825,825,825,825,825,825,833,837,854,880,902,919,940,995,1025,1050,1068,1081,1087,1090,1094,1098,1100,1100,1100,1100,1100,1100,1099,1098,1098,1098,1098,1096,1096,1096,1096,1097,1099],"ymouse":[637,637,637,637,637,637,637,637,637,637,637,637,637,637,637,637,637,637,637,637,637,637,637,637,637,637,637,637,637,637,637,637,637,637,637,637,637,637,637,637,637,637,637,637,637,637,637,637,637,637,637,637,637,637,637,637,637,637,637,637,625,618,576,536,509,487,460,389,352,327,309,294,275,265,256,239,221,192,180,168,153,139,123,122,122,122,118,111,110,108,107,105,97],"timestamp_mouse":[8,21,41,61,83,101,122,141,162,182,201,221,241,261,282,301,323,342,361,382,403,422,442,462,481,502,523,543,562,581,603,621,643,661,681,702,721,741,762,781,802,821,842,862,881,901,922,941,962,983,1001,1022,1041,1063,1081,1101,1122,1142,1163,1181,1201,1222,1242,1261,1281,1302,1321,1341,1361,1382,1402,1422,1442,1462,1481,1502,1522,1542,1561,1581,1601,1623,1641,1661,1681,1701,1721,1741,1761,1782,1801,1822,1841],"xSR":741.5,"ySR":573.95,"xT1":424.9,"yT1":0,"xT2":1058.1,"yT2":0,"toosoon":0,"cond_shown":"Congruent","ratio_trial":200,"L_num":6,"L_den":20,"R_num":11,"R_den":22,"correct_side":2,"subjID":"DavidSantiago BernalPuerto33","gender":"0","school":"6","age":"11"},{"start_time":1551892117689,"click_time":1551892119020,"finger_time":1551892118661,"fix_duration":1327.347190046116,"trial":35,"RT":972,"MT":359,"sideResp":2,"stimulus":[],"xmouse":[798,798,798,798,798,798,798,798,798,798,798,798,798,798,798,798,798,798,798,798,798,798,798,798,798,798,798,798,798,798,798,798,798,798,798,798,798,798,798,798,798,798,798,798,798,798,798,805,867,942,1016,1069,1117,1189,1208,1218,1218,1221,1226,1226,1223,1218,1212,1210,1199,1164,1135],"ymouse":[613,613,613,613,613,613,613,613,613,613,613,613,613,613,613,613,613,613,613,613,613,613,613,613,613,613,613,613,613,613,613,613,613,613,613,613,613,613,613,613,613,613,613,613,613,613,613,613,577,532,475,411,340,233,209,180,165,147,125,117,108,97,88,84,76,66,58],"timestamp_mouse":[12,37,53,73,91,113,131,151,172,192,211,232,251,271,292,312,332,351,371,391,413,431,452,473,492,511,532,552,572,593,611,631,651,673,691,711,732,753,771,792,813,832,852,872,892,911,931,951,972,991,1012,1032,1051,1072,1091,1111,1132,1151,1172,1191,1211,1231,1251,1271,1293,1311,1331],"xSR":741.5,"ySR":573.95,"xT1":424.9,"yT1":0,"xT2":1058.1,"yT2":0,"toosoon":0,"cond_shown":"Incongruent","ratio_trial":200,"L_num":9,"L_den":15,"R_num":8,"R_den":10,"correct_side":2,"subjID":"DavidSantiago BernalPuerto33","gender":"0","school":"6","age":"11"},{"start_time":1551892120626,"click_time":1551892122600,"finger_time":1551892122080,"fix_duration":842.6244332001842,"trial":36,"RT":1454,"MT":520,"sideResp":2,"stimulus":[],"xmouse":[778,778,778,778,778,778,778,778,778,778,778,778,778,778,778,778,778,778,778,778,778,778,778,778,778,778,778,778,778,778,778,778,778,778,778,778,778,778,778,778,778,778,778,778,778,778,778,778,778,778,778,778,778,778,778,778,778,778,778,778,778,778,778,778,778,778,778,778,778,778,778,778,793,815,832,836,837,837,837,837,837,835,835,835,837,845,891,925,945,966,985,1034,1056,1075,1098,1118,1133,1137,1143],"ymouse":[592,592,592,592,592,592,592,592,592,592,592,592,592,592,592,592,592,592,592,592,592,592,592,592,592,592,592,592,592,592,592,592,592,592,592,592,592,592,592,592,592,592,592,592,592,592,592,592,592,592,592,592,592,592,592,592,592,592,592,592,592,592,592,592,592,592,592,592,592,592,592,592,572,535,505,498,497,497,497,497,497,499,499,499,500,497,464,441,425,403,378,300,271,243,210,176,137,120,88],"timestamp_mouse":[15,35,55,76,94,114,135,154,174,196,214,235,255,275,295,315,335,354,374,396,415,434,455,475,495,514,536,555,574,594,615,635,654,675,695,714,736,754,776,795,814,835,856,874,895,915,934,954,974,994,1015,1035,1054,1075,1096,1114,1136,1155,1175,1195,1216,1236,1256,1275,1295,1315,1335,1355,1375,1394,1415,1434,1454,1474,1494,1515,1535,1554,1574,1595,1615,1635,1655,1675,1694,1715,1734,1754,1774,1794,1814,1834,1854,1874,1894,1914,1934,1955,1974],"xSR":741.5,"ySR":573.95,"xT1":424.9,"yT1":0,"xT2":1058.1,"yT2":0,"toosoon":0,"cond_shown":"Congruent","ratio_trial":200,"L_num":3,"L_den":10,"R_num":7,"R_den":14,"correct_side":2,"subjID":"DavidSantiago BernalPuerto33","gender":"0","school":"6","age":"11"},{"start_time":1551892124668,"click_time":1551892126661,"finger_time":1551892126060,"fix_duration":1226.7465117195,"trial":37,"RT":1392,"MT":601,"sideResp":1,"stimulus":[],"xmouse":[801,801,801,801,801,801,801,801,801,801,801,801,801,801,801,801,801,801,801,801,801,801,801,801,801,801,801,801,801,801,801,801,801,801,801,801,801,801,801,801,801,801,801,801,801,801,801,801,801,801,801,801,801,801,801,801,801,801,801,801,801,801,801,801,801,796,787,779,769,762,761,761,760,752,728,711,700,683,671,656,651,647,634,620,604,598,597,594,592,583,580,576,576,576,560,539,535,531,528,508],"ymouse":[625,625,625,625,625,625,625,625,625,625,625,625,625,625,625,625,625,625,625,625,625,625,625,625,625,625,625,625,625,625,625,625,625,625,625,625,625,625,625,625,625,625,625,625,625,625,625,625,625,625,625,625,625,625,625,625,625,625,625,625,625,625,625,625,625,616,602,590,577,570,568,568,567,557,521,485,454,417,387,342,319,289,247,201,153,140,137,131,129,114,106,100,99,99,91,78,74,70,63,30],"timestamp_mouse":[14,40,53,72,93,113,132,152,173,192,212,233,254,272,292,313,333,352,372,393,414,434,453,473,493,514,534,554,573,593,614,634,652,673,693,712,732,752,774,792,813,833,854,873,893,914,934,954,973,993,1013,1033,1052,1074,1094,1113,1134,1154,1172,1193,1214,1232,1252,1273,1294,1314,1332,1353,1373,1392,1412,1433,1452,1472,1492,1513,1532,1552,1573,1592,1613,1633,1653,1672,1692,1712,1733,1754,1773,1792,1812,1833,1852,1873,1892,1912,1932,1953,1973,1993],"xSR":741.5,"ySR":573.95,"xT1":424.9,"yT1":0,"xT2":1058.1,"yT2":0,"toosoon":0,"cond_shown":"Congruent","ratio_trial":100,"L_num":3,"L_den":6,"R_num":2,"R_den":5,"correct_side":1,"subjID":"DavidSantiago BernalPuerto33","gender":"0","school":"6","age":"11"},{"start_time":1551892128153,"click_time":1551892129701,"finger_time":1551892129440,"fix_duration":250,"trial":38,"RT":1287,"MT":261,"sideResp":2,"stimulus":[],"xmouse":[801,801,801,801,801,801,801,801,801,801,801,801,801,801,801,801,801,801,801,801,801,801,801,801,801,801,801,801,801,801,801,801,801,801,801,801,801,801,801,801,801,801,801,801,801,801,798,791,789,789,789,789,789,789,789,789,789,789,789,789,789,788,788,810,837,916,949,975,1001,1016,1036,1044,1056,1065,1074,1098,1117,1129],"ymouse":[617,617,617,617,617,617,617,617,617,617,617,617,617,617,617,617,617,617,617,617,617,617,617,617,617,617,617,617,617,617,617,617,617,617,617,617,617,617,617,617,617,617,617,617,617,617,617,619,621,621,621,621,621,621,621,621,621,621,621,621,621,621,621,598,557,423,363,303,261,232,193,177,156,141,130,115,103,91],"timestamp_mouse":[8,37,47,68,87,107,127,149,168,187,208,227,248,267,289,308,328,348,368,388,408,428,449,468,487,509,528,547,567,587,607,628,649,667,689,708,727,748,767,788,808,827,849,867,887,908,927,949,968,988,1007,1028,1049,1069,1087,1107,1128,1147,1167,1187,1207,1229,1248,1267,1287,1307,1327,1348,1367,1388,1408,1428,1447,1467,1487,1508,1527,1548],"xSR":741.5,"ySR":573.95,"xT1":424.9,"yT1":0,"xT2":1058.1,"yT2":0,"toosoon":0,"cond_shown":"Incongruent","ratio_trial":100,"L_num":3,"L_den":9,"R_num":7,"R_den":30,"correct_side":1,"subjID":"DavidSantiago BernalPuerto33","gender":"0","school":"6","age":"11"},{"start_time":1551892131681,"click_time":1551892133201,"finger_time":1551892132781,"fix_duration":1019.8422897183425,"trial":39,"RT":1100,"MT":420,"sideResp":2,"stimulus":[],"xmouse":[762,762,762,762,762,762,762,762,762,762,762,762,762,762,762,762,762,762,762,762,762,762,762,762,762,762,762,762,762,762,762,762,762,762,762,762,762,762,762,762,762,762,762,762,762,762,762,762,762,762,762,762,766,770,810,851,909,922,926,928,933,950,981,1012,1114,1168,1186,1186,1174,1157,1155,1155,1154,1154,1148,1128,1117],"ymouse":[608,608,608,608,608,608,608,608,608,608,608,608,608,608,608,608,608,608,608,608,608,608,608,608,608,608,608,608,608,608,608,608,608,608,608,608,608,608,608,608,608,608,608,608,608,608,608,608,608,608,608,608,605,602,580,563,538,530,527,525,518,495,453,393,187,86,15,4,0,0,0,0,0,0,0,0,1],"timestamp_mouse":[2,19,46,61,81,99,119,139,160,179,201,220,239,260,281,299,320,339,359,380,400,419,441,460,479,500,521,539,560,579,599,621,641,659,681,699,720,739,760,779,800,820,840,861,881,899,920,940,961,980,1000,1019,1039,1060,1079,1100,1119,1141,1159,1179,1199,1220,1240,1259,1279,1299,1319,1339,1360,1380,1399,1419,1439,1460,1480,1499,1519],"xSR":741.5,"ySR":573.95,"xT1":424.9,"yT1":0,"xT2":1058.1,"yT2":0,"toosoon":0,"cond_shown":"Incongruent","ratio_trial":200,"L_num":14,"L_den":30,"R_num":6,"R_den":9,"correct_side":2,"subjID":"DavidSantiago BernalPuerto33","gender":"0","school":"6","age":"11"},{"start_time":1551892134945,"click_time":1551892136581,"finger_time":1551892136301,"fix_duration":821.9842600071463,"trial":40,"RT":1356,"MT":280,"sideResp":2,"stimulus":[],"xmouse":[795,795,795,795,795,795,795,795,795,795,795,795,795,795,795,795,795,795,795,795,795,795,795,795,795,795,795,795,795,795,795,795,795,795,795,795,795,795,795,795,795,795,795,795,795,795,795,795,795,795,795,795,795,795,795,795,795,795,795,795,795,795,795,795,795,803,824,859,902,946,989,1003,1037,1062,1083,1114,1123,1130,1136,1140,1141,1142],"ymouse":[622,622,622,622,622,622,622,622,622,622,622,622,622,622,622,622,622,622,622,622,622,622,622,622,622,622,622,622,622,622,622,622,622,622,622,622,622,622,622,622,622,622,622,622,622,622,622,622,622,622,622,622,622,622,622,622,622,622,622,622,622,622,622,622,622,616,600,571,533,493,421,392,334,289,252,184,159,142,129,119,105,97],"timestamp_mouse":[30,35,55,75,96,115,136,155,176,195,215,235,255,276,295,315,336,357,375,395,416,435,457,476,495,515,537,555,576,596,616,636,657,676,695,717,735,756,775,797,817,836,856,877,895,916,937,956,975,995,1016,1036,1057,1076,1096,1116,1135,1155,1176,1196,1215,1237,1256,1275,1296,1315,1335,1356,1376,1396,1415,1435,1455,1477,1496,1515,1535,1555,1576,1597,1615,1636],"xSR":741.5,"ySR":573.95,"xT1":424.9,"yT1":0,"xT2":1058.1,"yT2":0,"toosoon":0,"cond_shown":"Congruent","ratio_trial":100,"L_num":15,"L_den":25,"R_num":13,"R_den":26,"correct_side":1,"subjID":"DavidSantiago BernalPuerto33","gender":"0","school":"6","age":"11"},{"start_time":1551892138130,"click_time":1551892139661,"finger_time":1551892139380,"fix_duration":568.5060494076298,"trial":41,"RT":1250,"MT":281,"sideResp":1,"stimulus":[],"xmouse":[755,755,756,756,757,757,757,757,757,757,757,757,757,757,757,757,757,757,757,757,757,757,757,757,757,757,757,757,757,757,757,757,757,757,757,757,757,757,757,757,757,757,757,757,757,757,757,757,757,757,757,757,757,757,757,757,757,757,757,757,757,755,733,709,689,675,662,656,648,640,630,582,560,542,535,529,502],"ymouse":[597,597,598,598,598,598,598,598,598,598,598,598,598,598,598,598,598,598,598,598,598,598,598,598,598,598,598,598,598,598,598,598,598,598,598,598,598,598,598,598,598,598,598,598,598,598,598,598,598,598,598,598,598,598,598,598,598,598,598,598,598,592,546,496,448,399,341,320,301,283,256,174,144,123,114,103,58],"timestamp_mouse":[11,36,51,70,90,111,132,150,170,191,210,232,250,271,290,310,330,352,370,392,412,430,451,470,492,510,531,551,571,592,611,630,652,670,691,711,730,751,772,790,811,832,850,871,892,911,932,951,971,991,1012,1031,1051,1072,1090,1111,1130,1152,1170,1190,1210,1230,1250,1270,1292,1311,1331,1350,1370,1391,1410,1430,1450,1470,1491,1511,1531],"xSR":741.5,"ySR":573.95,"xT1":424.9,"yT1":0,"xT2":1058.1,"yT2":0,"toosoon":0,"cond_shown":"Congruent","ratio_trial":100,"L_num":3,"L_den":6,"R_num":2,"R_den":5,"correct_side":1,"subjID":"DavidSantiago BernalPuerto33","gender":"0","school":"6","age":"11"},{"start_time":1551892141807,"click_time":1551892143461,"finger_time":1551892143080,"fix_duration":1364.8704926573996,"trial":42,"RT":1273,"MT":381,"sideResp":1,"stimulus":[],"xmouse":[825,825,825,825,825,825,825,825,825,825,825,825,825,825,825,825,825,825,825,825,825,825,825,825,825,825,825,825,825,825,825,825,825,825,825,825,825,825,825,825,825,825,825,825,825,825,825,825,825,825,825,825,825,825,825,825,826,828,828,829,829,830,830,827,803,762,722,667,646,625,617,615,613,613,613,607,599,586,586,580,565,536,501],"ymouse":[629,629,629,629,629,629,629,629,629,629,629,629,629,629,629,629,629,629,629,629,629,629,629,629,629,629,629,629,629,629,629,629,629,629,629,629,629,629,629,629,629,629,629,629,629,629,629,629,629,629,629,629,629,629,629,629,629,629,629,629,628,627,604,569,508,433,362,254,217,187,175,169,157,153,144,131,115,91,88,80,66,48,22],"timestamp_mouse":[13,35,53,73,93,113,134,153,175,193,215,235,254,274,294,315,334,354,375,394,415,435,454,474,494,514,535,555,574,594,614,633,655,674,693,714,734,754,774,794,813,834,854,874,893,915,935,954,974,994,1013,1035,1054,1074,1094,1113,1134,1153,1174,1194,1214,1234,1253,1273,1294,1313,1334,1353,1373,1394,1415,1434,1454,1473,1494,1514,1533,1554,1574,1594,1613,1634,1654],"xSR":741.5,"ySR":573.95,"xT1":424.9,"yT1":0,"xT2":1058.1,"yT2":0,"toosoon":0,"cond_shown":"Incongruent","ratio_trial":100,"L_num":9,"L_den":15,"R_num":14,"R_den":28,"correct_side":1,"subjID":"DavidSantiago BernalPuerto33","gender":"0","school":"6","age":"11"},{"start_time":1551892144650,"click_time":1551892146061,"finger_time":1551892145661,"fix_duration":348.9887768930141,"trial":43,"RT":1011,"MT":400,"sideResp":2,"stimulus":[],"xmouse":[768,768,768,768,768,768,768,768,768,768,768,768,768,768,768,768,768,768,768,768,768,768,768,768,768,768,768,768,768,768,768,768,768,768,768,768,768,768,768,768,768,768,768,768,768,768,768,768,769,773,787,792,798,808,822,864,897,924,953,983,1035,1052,1065,1074,1079,1083,1083,1083,1083,1083,1083],"ymouse":[586,586,588,589,589,589,589,589,589,589,589,589,589,589,589,589,589,589,589,589,589,589,589,589,589,589,589,589,589,589,589,589,589,589,589,589,589,589,589,589,589,589,589,589,589,589,589,589,589,589,567,558,547,533,513,461,419,385,350,313,241,210,185,168,153,130,126,123,119,111,96],"timestamp_m