[{"start_time":1551893185985,"click_time":1551893187893,"finger_time":1551893185993,"fix_duration":1107.2503913901892,"trial":0,"RT":8,"MT":1900,"sideResp":1,"stimulus":"img/500/equaldotsize/R/2_Ratio_500_L_3_R_6.png","xmouse":[762,762,762,762,762,762,762,762,762,762,762,762,762,762,762,762,762,762,762,762,762,762,762,762,762,762,762,762,768,777,809,822,823,823,823,823,823,823,823,823,821,815,812,811,811,811,811,811,811,811,811,811,811,811,811,811,811,811,811,811,811,811,811,811,811,811,811,811,801,770,614,515,485,483,483,483,491,498,501,499,497,499,511,523,536,536,536,536,536,536,534,533,533,533,533,516],"ymouse":[529,529,529,529,529,529,529,529,529,529,529,529,529,529,529,529,529,529,529,529,529,529,529,529,529,529,529,540,561,579,620,630,631,631,631,631,631,631,631,631,623,617,616,616,616,616,616,616,616,616,616,616,616,616,616,616,616,616,616,616,616,616,616,616,616,616,616,616,616,608,543,504,498,498,498,494,467,430,355,310,261,250,235,214,133,110,92,83,83,83,86,87,87,87,87,87],"timestamp_mouse":[8,27,48,68,87,108,128,148,169,189,208,228,247,268,289,308,329,347,368,387,407,428,447,468,488,507,527,548,567,587,608,629,648,668,687,707,728,749,768,787,808,827,849,868,889,907,928,948,967,988,1007,1028,1048,1067,1088,1107,1129,1149,1168,1189,1207,1229,1247,1269,1288,1308,1329,1347,1367,1387,1408,1428,1449,1468,1489,1508,1527,1547,1567,1588,1608,1628,1648,1668,1688,1707,1728,1748,1768,1789,1809,1828,1849,1869,1887,1908],"xSR":741.5,"ySR":469.95,"xT1":424.9,"yT1":0,"xT2":1058.1,"yT2":0,"toosoon":0,"cond_shown":"equaldotsize","ratio_trial":500,"smaller_num":"3","larger_num":"6","correct_side":2,"subjID":"DavidSantiagoBernalPuerto33","gender":"0","age":"11","school":"6","test":{"fix_dur":[250,1500],"timestim":300,"targets_dim":[100,100],"targets_relative_coord":[0.3,0.7],"size_stim":[880,420],"start_dim":[100,100],"size_start":[300,300],"size_fix":60,"samplingrate":20,"img_types":["equaldotsize","equaldotanddens","randomdotsizeEA"],"ratios":[250,500,750,900],"rep_conds":9,"nTrials":120,"trials_to_rest":500,"Trials_order":[3,101,58,117,65,43,20,98,30,5,55,10,0,35,24,40,76,112,13,9,45,118,113,11,49,102,95,116,41,29,42,114,115,66,94,84,1,104,4,88,12,16,34,81,78,54,48,53,93,90,103,7,27,52,91,79,21,100,6,47,99,36,85,51,111,26,14,73,19,69,17,72,18,83,110,57,63,105,96,71,59,97,2,82,32,109,74,75,38,86,119,87,56,8,70,50,77,64,62,39,25,107,15,46,68,31,67,60,108,44,80,33,92,22,28,23,106,37,89,61],"cond_shown":["equaldotsize","randomdotsizeEA","equaldotanddens","equaldotsize","randomdotsizeEA","equaldotanddens","randomdotsizeEA","randomdotsizeEA","equaldotsize","randomdotsizeEA","equaldotanddens","equaldotanddens","equaldotsize","randomdotsizeEA","equaldotsize","equaldotanddens","equaldotanddens","equaldotanddens","equaldotanddens","equaldotsize","equaldotsize","equaldotanddens","randomdotsizeEA","randomdotsizeEA","equaldotanddens","equaldotsize","randomdotsizeEA","randomdotsizeEA","randomdotsizeEA","randomdotsizeEA","equaldotsize","equaldotsize","equaldotanddens","equaldotsize","equaldotanddens","equaldotsize","equaldotanddens","randomdotsizeEA","equaldotanddens","equaldotanddens","equaldotsize","equaldotanddens","equaldotanddens","equaldotsize","equaldotsize","equaldotsize","equaldotsize","randomdotsizeEA","equaldotsize","equaldotsize","equaldotanddens","equaldotanddens","equaldotsize","equaldotanddens","equaldotanddens","equaldotanddens","equaldotsize","equaldotanddens","equaldotsize","randomdotsizeEA","equaldotsize","equaldotsize","equaldotanddens","equaldotsize","equaldotsize","randomdotsizeEA","randomdotsizeEA","equaldotanddens","equaldotanddens","equaldotsize","randomdotsizeEA","equaldotsize","equaldotsize","randomdotsizeEA","randomdotsizeEA","equaldotsize","equaldotsize","equaldotsize","equaldotsize","randomdotsizeEA","randomdotsizeEA","equaldotanddens","randomdotsizeEA","equaldotanddens","randomdotsizeEA","equaldotanddens","randomdotsizeEA","equaldotsize","randomdotsizeEA","randomdotsizeEA","randomdotsizeEA","equaldotsize","randomdotsizeEA","randomdotsizeEA","equaldotanddens","randomdotsizeEA","randomdotsizeEA","equaldotanddens","randomdotsizeEA","equaldotsize","equaldotanddens","randomdotsizeEA","equaldotsize","equaldotanddens","randomdotsizeEA","equaldotanddens","equaldotanddens","equaldotsize","equaldotsize","randomdotsizeEA","randomdotsizeEA","equaldotsize","randomdotsizeEA","equaldotanddens","equaldotanddens","randomdotsizeEA","equaldotanddens","equaldotanddens","randomdotsizeEA","equaldotanddens"],"ratio_trial":[500,500,900,900,500,750,750,250,750,500,750,900,250,900,250,500,500,500,250,900,900,900,500,900,250,750,900,750,500,500,750,750,750,750,900,250,250,750,500,500,250,500,900,900,750,750,250,500,900,750,750,750,500,500,750,750,900,500,750,900,500,250,250,500,500,250,250,250,750,900,500,250,750,900,250,900,500,900,250,900,900,250,250,900,750,250,250,500,250,250,900,500,750,750,900,250,500,500,250,500,250,900,500,900,750,750,750,250,250,750,750,900,750,900,500,900,900,250,500,250],"smaller_num":["3","10","18","9","6","3","3","6","15","4","15","18","3","18","4","5","6","9","3","9","18","9","1","18","6","18","18","6","10","9","15","6","3","3","18","3","2","12","2","6","3","3","18","18","6","15","6","2","9","3","6","3","6","1","6","12","18","5","12","18","4","2","2","2","6","3","2","5","6","9","6","3","9","18","6","18","2","18","2","9","9","2","2","9","15","2","3","10","6","1","9","6","12","15","18","2","5","9","2","5","3","18","2","9","6","18","12","6","1","6","3","18","9","18","9","18","18","2","6","3"],"larger_num":["6","20","20","10","12","4","4","24","20","8","20","20","12","20","16","10","12","18","12","10","20","10","2","20","24","24","20","8","20","18","20","8","4","4","20","12","8","16","4","12","12","6","20","20","8","20","24","4","10","4","8","4","12","2","8","16","20","10","16","20","8","8","8","4","12","12","8","20","8","10","12","12","12","20","24","20","4","20","8","10","10","8","8","10","20","8","12","20","24","4","10","12","16","20","20","8","10","18","8","10","12","20","4","10","8","24","16","24","4","8","4","20","12","20","18","20","20","8","12","12"],"correct_side":[2,2,2,2,1,1,2,2,2,1,1,2,1,2,2,2,1,2,2,2,1,2,2,1,2,1,1,1,2,1,1,2,1,1,1,1,2,2,1,1,1,2,2,1,2,2,1,1,2,1,1,1,1,2,1,2,2,1,2,2,1,1,1,1,1,2,2,2,2,2,1,2,2,2,2,1,2,2,1,2,2,2,2,2,2,1,1,2,1,2,1,1,2,1,1,2,2,2,1,2,2,2,1,1,1,1,2,2,2,2,2,1,2,1,1,1,1,1,1,1],"img_shown":["img/500/equaldotsize/R/2_Ratio_500_L_3_R_6.png","img/500/randomdotsizeEA/R/3_Ratio_500_L_10_R_20.png","img/900/equaldotanddens/R/14_Ratio_900_L_18_R_20.png","img/900/equaldotsize/R/15_Ratio_900_L_9_R_10.png","img/500/randomdotsizeEA/L/11_Ratio_500_L_12_R_6.png","img/750/equaldotanddens/L/9_Ratio_750_L_4_R_3.png","img/750/randomdotsizeEA/R/7_Ratio_750_L_3_R_4.png","img/250/randomdotsizeEA/R/6_Ratio_250_L_6_R_24.png","img/750/equaldotsize/R/4_Ratio_750_L_15_R_20.png","img/500/randomdotsizeEA/L/8_Ratio_500_L_8_R_4.png","img/750/equaldotanddens/L/1_Ratio_750_L_20_R_15.png","img/900/equaldotanddens/R/14_Ratio_900_L_18_R_20.png","img/250/equaldotsize/L/14_Ratio_250_L_12_R_3.png","img/900/randomdotsizeEA/R/11_Ratio_900_L_18_R_20.png","img/250/equaldotsize/R/10_Ratio_250_L_4_R_16.png","img/500/equaldotanddens/R/14_Ratio_500_L_5_R_10.png","img/500/equaldotanddens/L/13_Ratio_500_L_12_R_6.png","img/500/equaldotanddens/R/6_Ratio_500_L_9_R_18.png","img/250/equaldotanddens/R/11_Ratio_250_L_3_R_12.png","img/900/equaldotsize/R/15_Ratio_900_L_9_R_10.png","img/900/equaldotsize/L/4_Ratio_900_L_20_R_18.png","img/900/equaldotanddens/R/7_Ratio_900_L_9_R_10.png","img/500/randomdotsizeEA/R/12_Ratio_500_L_1_R_2.png","img/900/randomdotsizeEA/L/8_Ratio_900_L_20_R_18.png","img/250/equaldotanddens/R/6_Ratio_250_L_6_R_24.png","img/750/equaldotsize/L/6_Ratio_750_L_24_R_18.png","img/900/randomdotsizeEA/L/10_Ratio_900_L_20_R_18.png","img/750/randomdotsizeEA/L/13_Ratio_750_L_8_R_6.png","img/500/randomdotsizeEA/R/3_Ratio_500_L_10_R_20.png","img/500/randomdotsizeEA/L/4_Ratio_500_L_18_R_9.png","img/750/equaldotsize/L/1_Ratio_750_L_20_R_15.png","img/750/equaldotsize/R/2_Ratio_750_L_6_R_8.png","img/750/equaldotanddens/L/8_Ratio_750_L_4_R_3.png","img/750/equaldotsize/L/10_Ratio_750_L_4_R_3.png","img/900/equaldotanddens/L/4_Ratio_900_L_20_R_18.png","img/250/equaldotsize/L/15_Ratio_250_L_12_R_3.png","img/250/equaldotanddens/R/13_Ratio_250_L_2_R_8.png","img/750/randomdotsizeEA/R/11_Ratio_750_L_12_R_16.png","img/500/equaldotanddens/L/5_Ratio_500_L_4_R_2.png","img/500/equaldotanddens/L/11_Ratio_500_L_12_R_6.png","img/250/equaldotsize/L/14_Ratio_250_L_12_R_3.png","img/500/equaldotanddens/R/2_Ratio_500_L_3_R_6.png","img/900/equaldotanddens/R/11_Ratio_900_L_18_R_20.png","img/900/equaldotsize/L/10_Ratio_900_L_20_R_18.png","img/750/equaldotsize/R/2_Ratio_750_L_6_R_8.png","img/750/equaldotsize/R/3_Ratio_750_L_15_R_20.png","img/250/equaldotsize/L/5_Ratio_250_L_24_R_6.png","img/500/randomdotsizeEA/L/10_Ratio_500_L_4_R_2.png","img/900/equaldotsize/R/5_Ratio_900_L_9_R_10.png","img/750/equaldotsize/L/8_Ratio_750_L_4_R_3.png","img/750/equaldotanddens/L/13_Ratio_750_L_8_R_6.png","img/750/equaldotanddens/L/8_Ratio_750_L_4_R_3.png","img/500/equaldotsize/L/13_Ratio_500_L_12_R_6.png","img/500/equaldotanddens/R/12_Ratio_500_L_1_R_2.png","img/750/equaldotanddens/L/13_Ratio_750_L_8_R_6.png","img/750/equaldotanddens/R/11_Ratio_750_L_12_R_16.png","img/900/equaldotsize/R/11_Ratio_900_L_18_R_20.png","img/500/equaldotanddens/L/7_Ratio_500_L_10_R_5.png","img/750/equaldotsize/R/11_Ratio_750_L_12_R_16.png","img/900/randomdotsizeEA/R/9_Ratio_900_L_18_R_20.png","img/500/equaldotsize/L/8_Ratio_500_L_8_R_4.png","img/250/equaldotsize/L/3_Ratio_250_L_8_R_2.png","img/250/equaldotanddens/L/3_Ratio_250_L_8_R_2.png","img/500/equaldotsize/L/10_Ratio_500_L_4_R_2.png","img/500/equaldotsize/L/13_Ratio_500_L_12_R_6.png","img/250/randomdotsizeEA/R/9_Ratio_250_L_3_R_12.png","img/250/randomdotsizeEA/R/13_Ratio_250_L_2_R_8.png","img/250/equaldotanddens/R/12_Ratio_250_L_5_R_20.png","img/750/equaldotanddens/R/2_Ratio_750_L_6_R_8.png","img/900/equaldotsize/R/5_Ratio_900_L_9_R_10.png","img/500/randomdotsizeEA/L/13_Ratio_500_L_12_R_6.png","img/250/equaldotsize/R/9_Ratio_250_L_3_R_12.png","img/750/equaldotsize/R/15_Ratio_750_L_9_R_12.png","img/900/randomdotsizeEA/R/9_Ratio_900_L_18_R_20.png","img/250/randomdotsizeEA/R/6_Ratio_250_L_6_R_24.png","img/900/equaldotsize/L/8_Ratio_900_L_20_R_18.png","img/500/equaldotsize/R/9_Ratio_500_L_2_R_4.png","img/900/equaldotsize/R/9_Ratio_900_L_18_R_20.png","img/250/equaldotsize/L/7_Ratio_250_L_8_R_2.png","img/900/randomdotsizeEA/R/3_Ratio_900_L_9_R_10.png","img/900/randomdotsizeEA/R/5_Ratio_900_L_9_R_10.png","img/250/equaldotanddens/R/13_Ratio_250_L_2_R_8.png","img/250/randomdotsizeEA/R/13_Ratio_250_L_2_R_8.png","img/900/equaldotanddens/R/7_Ratio_900_L_9_R_10.png","img/750/randomdotsizeEA/R/3_Ratio_750_L_15_R_20.png","img/250/equaldotanddens/L/7_Ratio_250_L_8_R_2.png","img/250/randomdotsizeEA/L/14_Ratio_250_L_12_R_3.png","img/500/equaldotsize/R/3_Ratio_500_L_10_R_20.png","img/250/randomdotsizeEA/L/5_Ratio_250_L_24_R_6.png","img/250/randomdotsizeEA/R/8_Ratio_250_L_1_R_4.png","img/900/randomdotsizeEA/L/1_Ratio_900_L_10_R_9.png","img/500/equaldotsize/L/13_Ratio_500_L_12_R_6.png","img/750/randomdotsizeEA/R/11_Ratio_750_L_12_R_16.png","img/750/randomdotsizeEA/L/1_Ratio_750_L_20_R_15.png","img/900/equaldotanddens/L/2_Ratio_900_L_20_R_18.png","img/250/randomdotsizeEA/R/13_Ratio_250_L_2_R_8.png","img/500/randomdotsizeEA/R/14_Ratio_500_L_5_R_10.png","img/500/equaldotanddens/R/6_Ratio_500_L_9_R_18.png","img/250/randomdotsizeEA/L/7_Ratio_250_L_8_R_2.png","img/500/equaldotsize/R/14_Ratio_500_L_5_R_10.png","img/250/equaldotanddens/R/11_Ratio_250_L_3_R_12.png","img/900/randomdotsizeEA/R/11_Ratio_900_L_18_R_20.png","img/500/equaldotsize/L/5_Ratio_500_L_4_R_2.png","img/900/equaldotanddens/L/1_Ratio_900_L_10_R_9.png","img/750/randomdotsizeEA/L/13_Ratio_750_L_8_R_6.png","img/750/equaldotanddens/L/6_Ratio_750_L_24_R_18.png","img/750/equaldotanddens/R/11_Ratio_750_L_12_R_16.png","img/250/equaldotsize/R/6_Ratio_250_L_6_R_24.png","img/250/equaldotsize/R/8_Ratio_250_L_1_R_4.png","img/750/randomdotsizeEA/R/2_Ratio_750_L_6_R_8.png","img/750/randomdotsizeEA/R/7_Ratio_750_L_3_R_4.png","img/900/equaldotsize/L/2_Ratio_900_L_20_R_18.png","img/750/randomdotsizeEA/R/15_Ratio_750_L_9_R_12.png","img/900/equaldotanddens/L/4_Ratio_900_L_20_R_18.png","img/500/equaldotanddens/L/4_Ratio_500_L_18_R_9.png","img/900/randomdotsizeEA/L/8_Ratio_900_L_20_R_18.png","img/900/equaldotanddens/L/8_Ratio_900_L_20_R_18.png","img/250/equaldotanddens/L/7_Ratio_250_L_8_R_2.png","img/500/randomdotsizeEA/L/13_Ratio_500_L_12_R_6.png","img/250/equaldotanddens/L/15_Ratio_250_L_12_R_3.png"],"Rat0":[["12_Ratio_0_L_9_R_0.png","13_Ratio_0_L_6_R_0.png","5_Ratio_0_L_2_R_0.png","6_Ratio_0_L_4_R_0.png","8_Ratio_0_L_6_R_0.png"],["1_Ratio_0_L_0_R_17.png","10_Ratio_0_L_0_R_22.png","11_Ratio_0_L_0_R_1.png","14_Ratio_0_L_0_R_24.png","15_Ratio_0_L_0_R_4.png","2_Ratio_0_L_0_R_5.png","3_Ratio_0_L_0_R_17.png","4_Ratio_0_L_0_R_7.png","7_Ratio_0_L_0_R_19.png","9_Ratio_0_L_0_R_15.png"]],"Rat250":[["1_Ratio_250_L_8_R_2.png","14_Ratio_250_L_12_R_3.png","15_Ratio_250_L_12_R_3.png","2_Ratio_250_L_16_R_4.png","3_Ratio_250_L_8_R_2.png","5_Ratio_250_L_24_R_6.png","7_Ratio_250_L_8_R_2.png"],["10_Ratio_250_L_4_R_16.png","11_Ratio_250_L_3_R_12.png","12_Ratio_250_L_5_R_20.png","13_Ratio_250_L_2_R_8.png","4_Ratio_250_L_3_R_12.png","6_Ratio_250_L_6_R_24.png","8_Ratio_250_L_1_R_4.png","9_Ratio_250_L_3_R_12.png"]],"Rat500":[["10_Ratio_500_L_4_R_2.png","11_Ratio_500_L_12_R_6.png","13_Ratio_500_L_12_R_6.png","4_Ratio_500_L_18_R_9.png","5_Ratio_500_L_4_R_2.png","7_Ratio_500_L_10_R_5.png","8_Ratio_500_L_8_R_4.png"],["1_Ratio_500_L_9_R_18.png","12_Ratio_500_L_1_R_2.png","14_Ratio_500_L_5_R_10.png","15_Ratio_500_L_1_R_2.png","2_Ratio_500_L_3_R_6.png","3_Ratio_500_L_10_R_20.png","6_Ratio_500_L_9_R_18.png","9_Ratio_500_L_2_R_4.png"]],"Rat750":[["1_Ratio_750_L_20_R_15.png","10_Ratio_750_L_4_R_3.png","13_Ratio_750_L_8_R_6.png","14_Ratio_750_L_8_R_6.png","6_Ratio_750_L_24_R_18.png","8_Ratio_750_L_4_R_3.png","9_Ratio_750_L_4_R_3.png"],["11_Ratio_750_L_12_R_16.png","12_Ratio_750_L_3_R_4.png","15_Ratio_750_L_9_R_12.png","2_Ratio_750_L_6_R_8.png","3_Ratio_750_L_15_R_20.png","4_Ratio_750_L_15_R_20.png","5_Ratio_750_L_15_R_20.png","7_Ratio_750_L_3_R_4.png"]],"Rat900":[["1_Ratio_900_L_10_R_9.png","10_Ratio_900_L_20_R_18.png","2_Ratio_900_L_20_R_18.png","4_Ratio_900_L_20_R_18.png","8_Ratio_900_L_20_R_18.png"],["11_Ratio_900_L_18_R_20.png","12_Ratio_900_L_18_R_20.png","13_Ratio_900_L_18_R_20.png","14_Ratio_900_L_18_R_20.png","15_Ratio_900_L_9_R_10.png","3_Ratio_900_L_9_R_10.png","5_Ratio_900_L_9_R_10.png","6_Ratio_900_L_9_R_10.png","7_Ratio_900_L_9_R_10.png","9_Ratio_900_L_18_R_20.png"]],"Rat1000":[["10_Ratio_1000_L_16_R_16.png","11_Ratio_1000_L_6_R_6.png","12_Ratio_1000_L_14_R_14.png","13_Ratio_1000_L_20_R_20.png","15_Ratio_1000_L_15_R_15.png","2_Ratio_1000_L_17_R_17.png","4_Ratio_1000_L_9_R_9.png","5_Ratio_1000_L_6_R_6.png","6_Ratio_1000_L_19_R_19.png","8_Ratio_1000_L_14_R_14.png","9_Ratio_1000_L_25_R_25.png"],["1_Ratio_1000_L_1_R_1.png","14_Ratio_1000_L_17_R_17.png","3_Ratio_1000_L_17_R_17.png","7_Ratio_1000_L_6_R_6.png"]]}},{"start_time":1551893189852,"click_time":1551893191093,"finger_time":1551893190952,"fix_duration":1198.4771733933246,"trial":1,"RT":1100,"MT":141,"sideResp":2,"stimulus":"img/500/randomdotsizeEA/R/3_Ratio_500_L_10_R_20.png","xmouse":[799,799,799,799,799,799,799,799,799,799,799,799,799,799,799,799,799,799,799,799,799,799,799,799,799,799,799,799,799,799,799,799,799,799,799,799,799,799,799,799,799,799,799,799,799,799,799,799,799,799,799,799,799,799,809,826,851,919,944,970,999,1093,1144],"ymouse":[613,613,613,613,613,613,613,613,613,613,613,613,613,613,613,613,613,613,613,613,613,613,613,613,613,613,613,613,613,613,613,613,613,613,613,613,613,613,613,613,613,613,613,613,613,613,613,613,613,613,613,613,613,613,596,573,538,437,393,340,287,124,51],"timestamp_mouse":[9,38,40,61,80,100,120,141,160,182,201,220,242,260,280,300,321,342,361,380,400,422,440,460,481,500,522,541,561,580,601,621,641,662,680,702,721,740,762,781,800,822,840,860,880,902,921,941,960,982,1000,1021,1041,1060,1080,1100,1120,1140,1161,1181,1201,1221,1241],"xSR":741.5,"ySR":573.95,"xT1":424.9,"yT1":0,"xT2":1058.1,"yT2":0,"toosoon":0,"cond_shown":"randomdotsizeEA","ratio_trial":500,"smaller_num":"10","larger_num":"20","correct_side":2,"subjID":"DavidSantiagoBernalPuerto33","gender":"0","age":"11","school":"6"},{"start_time":1551893193133,"click_time":1551893194313,"finger_time":1551893193813,"fix_duration":959.4999838403886,"trial":2,"RT":680,"MT":500,"sideResp":1,"stimulus":"img/900/equaldotanddens/R/14_Ratio_900_L_18_R_20.png","xmouse":[811,811,811,811,811,811,811,811,811,811,811,811,811,811,811,811,811,811,811,811,811,811,811,811,811,811,811,811,811,811,811,811,812,832,842,844,844,844,844,844,844,844,844,844,833,805,764,711,597,571,563,552,527,491,491,490,493,493,494,495],"ymouse":[609,609,609,609,609,609,609,609,609,609,609,609,609,609,609,609,609,609,609,609,609,609,609,609,609,609,609,609,609,609,609,609,609,586,575,573,573,573,573,573,573,573,573,573,555,518,475,430,342,302,257,197,152,109,109,108,107,107,100,90],"timestamp_mouse":[1,20,39,59,81,99,120,140,160,179,200,221,241,260,279,301,320,339,360,379,399,419,439,460,481,499,519,540,559,580,601,621,640,660,680,701,720,739,760,780,800,819,840,860,879,900,920,939,959,981,999,1019,1039,1060,1079,1099,1121,1141,1159,1180],"xSR":741.5,"ySR":573.95,"xT1":424.9,"yT1":0,"xT2":1058.1,"yT2":0,"toosoon":0,"cond_shown":"equaldotanddens","ratio_trial":900,"smaller_num":"18","larger_num":"20","correct_side":2,"subjID":"DavidSantiagoBernalPuerto33","gender":"0","age":"11","school":"6"},{"start_time":1551893196308,"click_time":1551893197733,"finger_time":1551893197033,"fix_duration":1173.7349604500316,"trial":3,"RT":725,"MT":700,"sideResp":2,"stimulus":"img/900/equaldotsize/R/15_Ratio_900_L_9_R_10.png","xmouse":[828,828,828,828,828,828,828,828,828,828,828,828,828,828,828,828,828,828,828,828,828,828,828,828,828,828,828,828,828,828,828,828,828,828,828,828,840,860,876,909,929,953,968,985,1006,1022,1043,1059,1070,1092,1105,1115,1119,1116,1101,1094,1091,1090,1090,1091,1092,1092,1094,1094,1100,1102,1103,1104,1104,1104,1104,1117],"ymouse":[622,622,622,622,622,622,622,622,622,622,622,622,622,622,622,622,622,622,622,622,622,622,622,622,622,622,622,622,622,622,622,622,622,622,608,590,561,515,484,428,401,372,349,322,297,289,284,279,274,253,235,216,193,179,162,154,149,146,137,133,129,128,122,120,111,107,102,101,101,101,100,87],"timestamp_mouse":[8,25,48,65,85,106,126,145,164,185,204,225,244,265,286,305,325,345,364,385,406,424,445,466,485,505,526,544,566,585,605,626,646,664,686,704,725,745,764,784,806,825,844,865,886,904,924,944,964,984,1005,1025,1045,1064,1084,1104,1125,1145,1165,1184,1205,1224,1245,1266,1285,1304,1326,1345,1365,1384,1404,1425],"xSR":741.5,"ySR":573.95,"xT1":424.9,"yT1":0,"xT2":1058.1,"yT2":0,"toosoon":0,"cond_shown":"equaldotsize","ratio_trial":900,"smaller_num":"9","larger_num":"10","correct_side":2,"subjID":"DavidSantiagoBernalPuerto33","gender":"0","age":"11","school":"6"},{"start_time":1551893198865,"click_time":1551893200373,"finger_time":1551893199993,"fix_duration":250,"trial":4,"RT":1128,"MT":380,"sideResp":1,"stimulus":"img/500/randomdotsizeEA/L/11_Ratio_500_L_12_R_6.png","xmouse":[763,763,763,763,763,763,763,763,763,763,763,763,763,763,763,763,763,763,763,763,763,763,763,763,763,763,763,763,763,763,763,763,763,763,763,763,763,763,763,763,763,763,763,763,763,763,763,763,763,763,763,763,763,763,763,761,720,649,560,482,428,428,428,428,427,426,426,427,428,430,432,433,436,438,438,444],"ymouse":[597,597,597,597,597,597,597,597,597,597,597,597,597,597,597,597,597,597,597,597,597,597,597,597,597,597,597,597,597,597,597,597,597,597,597,597,597,597,597,597,597,597,597,597,597,597,597,597,597,597,597,597,597,597,597,586,510,431,348,282,233,233,231,230,227,224,210,202,191,179,162,133,124,116,114,98],"timestamp_mouse":[8,38,47,69,89,108,128,147,169,188,207,228,247,269,288,309,327,348,367,387,408,428,448,468,488,509,528,547,568,589,607,627,648,667,689,707,727,747,769,788,808,829,848,868,888,908,928,947,967,988,1009,1029,1047,1069,1087,1108,1128,1147,1168,1188,1208,1228,1248,1267,1288,1308,1329,1348,1368,1388,1409,1428,1448,1468,1489,1508],"xSR":741.5,"ySR":573.95,"xT1":424.9,"yT1":0,"xT2":1058.1,"yT2":0,"toosoon":0,"cond_shown":"randomdotsizeEA","ratio_trial":500,"smaller_num":"6","larger_num":"12","correct_side":1,"subjID":"DavidSantiagoBernalPuerto33","gender":"0","age":"11","school":"6"},{"start_time":1551893203326,"click_time":1551893205053,"finger_time":1551893204393,"fix_duration":250,"trial":5,"RT":1067,"MT":660,"sideResp":1,"stimulus":"img/750/equaldotanddens/L/9_Ratio_750_L_4_R_3.png","xmouse":[788,788,788,788,788,788,788,788,788,788,788,788,788,788,788,788,788,788,788,788,788,788,788,788,788,788,788,788,788,788,788,788,788,788,788,788,788,788,788,788,788,788,788,788,788,788,788,788,788,788,787,786,787,838,850,853,855,845,828,809,796,780,766,718,693,681,672,660,615,592,564,556,530,529,529,528,528,528,528,528,528,528,528,528,528,526,514],"ymouse":[633,633,633,633,633,633,633,633,633,633,633,633,633,633,633,633,633,633,633,633,633,633,633,633,633,633,633,633,633,633,633,633,633,633,633,633,633,633,633,633,633,633,633,633,633,633,633,633,633,633,633,632,627,540,506,482,457,371,321,271,229,169,135,93,81,74,68,57,32,25,24,24,36,37,37,38,38,38,38,38,38,38,38,38,38,39,42],"timestamp_mouse":[20,37,47,67,86,108,127,146,166,186,208,227,248,266,288,307,327,347,366,387,407,427,447,466,487,507,527,546,566,587,607,626,647,668,687,708,726,747,766,788,806,827,848,867,886,906,928,948,966,987,1007,1027,1047,1067,1086,1108,1127,1147,1166,1188,1206,1226,1246,1267,1287,1307,1327,1346,1366,1386,1407,1426,1447,1467,1486,1508,1528,1547,1566,1587,1606,1626,1648,1666,1687,1706,1727],"xSR":741.5,"ySR":573.95,"xT1":424.9,"yT1":0,"xT2":1058.1,"yT2":0,"toosoon":0,"cond_shown":"equaldotanddens","ratio_trial":750,"smaller_num":"3","larger_num":"4","correct_side":1,"subjID":"DavidSantiagoBernalPuerto33","gender":"0","age":"11","school":"6"},{"start_time":1551893208523,"click_time":1551893210594,"finger_time":1551893209873,"fix_duration":469.6088177834077,"trial":6,"RT":1350,"MT":721,"sideResp":2,"stimulus":"img/750/randomdotsizeEA/R/7_Ratio_750_L_3_R_4.png","xmouse":[790,790,790,790,790,790,790,790,790,790,790,790,790,790,790,790,790,790,790,790,790,790,790,790,790,790,790,790,790,790,790,790,790,790,790,790,790,790,790,790,790,790,790,790,790,790,790,790,790,790,790,790,790,790,790,790,790,790,790,790,790,790,790,790,790,787,780,759,752,751,751,751,751,751,751,751,751,751,751,753,764,782,826,883,901,912,920,953,1012,1066,1105,1151,1179,1181,1181,1181,1181,1182,1182,1180,1178,1177,1173,1141],"ymouse":[609,609,609,609,609,609,609,609,609,609,609,609,609,609,609,609,609,609,609,609,609,609,609,609,609,609,609,609,609,609,609,609,609,609,609,609,609,609,609,609,609,609,609,609,609,609,609,609,609,609,609,609,609,609,609,609,609,609,609,609,609,609,609,609,609,599,584,553,544,542,542,542,542,542,542,542,542,542,542,535,518,488,401,307,285,272,264,242,217,194,180,162,140,132,126,123,119,112,106,102,98,97,92,73],"timestamp_mouse":[9,31,50,70,89,111,129,151,169,189,211,231,249,270,289,310,330,350,370,391,411,431,449,471,491,511,530,549,570,591,610,630,650,670,691,710,731,750,769,790,810,831,849,869,890,911,929,950,970,990,1009,1030,1049,1070,1089,1109,1129,1150,1171,1189,1210,1229,1249,1270,1289,1311,1330,1350,1369,1389,1411,1431,1449,1470,1490,1509,1529,1550,1570,1590,1609,1630,1650,1671,1689,1709,1729,1750,1769,1790,1810,1830,1850,1870,1889,1910,1929,1950,1969,1991,2011,2029,2049,2071],"xSR":741.5,"ySR":573.95,"xT1":424.9,"yT1":0,"xT2":1058.1,"yT2":0,"toosoon":0,"cond_shown":"randomdotsizeEA","ratio_trial":750,"smaller_num":"3","larger_num":"4","correct_side":2,"subjID":"DavidSantiagoBernalPuerto33","gender":"0","age":"11","school":"6"},{"start_time":1551893212566,"click_time":1551893213654,"finger_time":1551893213373,"fix_duration":1091.9741893830353,"trial":7,"RT":807,"MT":281,"sideResp":2,"stimulus":"img/250/randomdotsizeEA/R/6_Ratio_250_L_6_R_24.png","xmouse":[787,787,787,787,787,787,787,787,787,787,787,787,787,787,787,787,787,787,787,787,787,787,787,787,787,787,787,787,787,787,787,787,787,787,787,787,791,798,807,824,886,914,950,984,1014,1082,1107,1119,1124,1128,1139,1144,1147,1149,1150],"ymouse":[646,646,646,646,646,646,646,646,646,646,646,646,646,646,646,646,646,646,646,646,646,646,646,646,646,646,646,646,646,646,646,646,646,646,646,646,640,632,627,619,582,547,466,398,333,196,160,141,133,130,123,117,114,104,98],"timestamp_mouse":[8,38,46,67,87,106,127,146,166,187,207,227,247,268,288,307,327,347,368,387,406,427,447,466,487,507,527,546,567,587,608,627,648,666,687,708,727,747,766,786,806,826,846,867,887,907,926,947,966,987,1007,1026,1046,1067,1088],"xSR":741.5,"ySR":573.95,"xT1":424.9,"yT1":0,"xT2":1058.1,"yT2":0,"toosoon":0,"cond_shown":"randomdotsizeEA","ratio_trial":250,"smaller_num":"6","larger_num":"24","correct_side":2,"subjID":"DavidSantiagoBernalPuerto33","gender":"0","age":"11","school":"6"},{"start_time":1551893215214,"click_time":1551893217193,"finger_time":1551893216573,"fix_duration":640.4878249514687,"trial":8,"RT":1359,"MT":620,"sideResp":2,"stimulus":"img/750/equaldotsize/R/4_Ratio_750_L_15_R_20.png","xmouse":[799,799,799,799,799,799,799,799,799,799,799,799,799,799,799,799,799,799,799,799,799,799,799,799,799,799,799,799,799,799,799,799,799,799,799,799,799,799,799,799,799,799,799,799,799,799,799,799,799,799,799,799,799,799,799,799,799,799,799,799,799,799,799,799,799,799,799,821,847,873,894,912,932,942,948,957,968,996,1004,1009,1015,1022,1042,1055,1068,1081,1090,1098,1100,1100,1100,1101,1104,1105,1106,1107,1111,1112,1117],"ymouse":[584,584,584,584,584,584,584,584,584,584,584,584,584,584,584,584,584,584,584,584,584,584,584,584,584,584,584,584,584,584,584,584,584,584,584,584,584,584,584,584,584,584,584,584,584,584,584,584,584,584,584,584,584,584,584,584,584,584,584,584,584,584,584,584,584,584,577,538,502,466,435,401,348,323,303,280,260,221,209,200,191,183,173,168,164,159,155,151,148,148,148,144,139,136,134,131,123,111,88],"timestamp_mouse":[20,38,59,78,100,118,140,158,179,198,219,240,260,278,299,320,339,359,380,399,419,440,459,479,499,518,538,559,579,598,618,638,659,679,698,720,738,758,779,798,819,839,858,878,898,919,938,958,978,999,1020,1039,1058,1078,1098,1120,1138,1158,1179,1198,1219,1238,1258,1278,1300,1318,1338,1359,1380,1398,1420,1438,1458,1478,1499,1518,1538,1558,1578,1599,1620,1638,1659,1678,1698,1719,1740,1758,1778,1799,1819,1838,1858,1878,1898,1919,1939,1958,1979],"xSR":741.5,"ySR":573.95,"xT1":424.9,"yT1":0,"xT2":1058.1,"yT2":0,"toosoon":0,"cond_shown":"equaldotsize","ratio_trial":750,"smaller_num":"15","larger_num":"20","correct_side":2,"subjID":"DavidSantiagoBernalPuerto33","gender":"0","age":"11","school":"6"},{"start_time":1551893219200,"click_time":1551893220392,"finger_time":1551893219973,"fix_duration":686.6622507584237,"trial":9,"RT":773,"MT":419,"sideResp":1,"stimulus":"img/500/randomdotsizeEA/L/8_Ratio_500_L_8_R_4.png","xmouse":[793,793,793,793,793,793,793,793,793,793,793,793,793,793,793,793,793,793,793,793,793,793,793,793,793,793,793,793,793,793,793,793,793,793,793,793,793,792,783,778,770,760,751,742,728,710,691,667,632,626,617,605,587,571,571,571,571,571,568,463],"ymouse":[598,598,598,598,598,598,598,598,598,598,598,598,598,598,598,598,598,598,598,598,598,598,598,598,598,598,598,598,598,598,598,598,598,598,598,598,584,574,513,487,466,449,435,421,390,365,343,323,274,257,234,208,178,149,149,149,149,147,136,41],"timestamp_mouse":[12,38,52,73,92,114,132,154,172,194,213,232,254,273,293,313,333,353,372,393,414,433,453,472,492,512,533,554,573,593,613,632,654,674,694,714,733,754,773,793,812,832,853,872,892,913,933,953,972,993,1012,1032,1052,1072,1093,1113,1133,1153,1172,1192],"xSR":741.5,"ySR":573.95,"xT1":424.9,"yT1":0,"xT2":1058.1,"yT2":0,"toosoon":0,"cond_shown":"randomdotsizeEA","ratio_trial":500,"smaller_num":"4","larger_num":"8","correct_side":1,"subjID":"DavidSantiagoBernalPuerto33","gender":"0","age":"11","school":"6"},{"start_time":1551893222345,"click_time":1551893223354,"finger_time":1551893223013,"fix_duration":1052.6344784421144,"trial":10,"RT":668,"MT":341,"sideResp":1,"stimulus":"img/750/equaldotanddens/L/1_Ratio_750_L_20_R_15.png","xmouse":[811,811,811,811,811,811,811,811,811,811,811,811,811,811,811,811,811,811,811,811,811,811,811,811,811,811,811,811,811,811,811,811,790,771,744,702,586,546,528,519,510,477,469,465,462,460,460,460,460,460,465],"ymouse":[608,608,608,608,608,608,608,608,608,608,608,608,608,608,608,608,608,608,608,608,608,608,608,608,608,608,608,608,608,608,608,604,585,564,519,447,288,233,204,187,169,124,117,113,110,106,104,102,101,101,96],"timestamp_mouse":[9,32,48,68,87,108,128,148,169,189,207,228,247,269,287,307,327,348,367,388,408,429,447,468,487,509,528,548,568,588,607,627,648,668,687,707,728,747,768,788,808,828,847,868,887,908,928,948,967,988,1009],"xSR":741.5,"ySR":573.95,"xT1":424.9,"yT1":0,"xT2":1058.1,"yT2":0,"toosoon":0,"cond_shown":"equaldotanddens","ratio_trial":750,"smaller_num":"15","larger_num":"20","correct_side":1,"subjID":"DavidSantiagoBernalPuerto33","gender":"0","age":"11","school":"6"},{"start_time":1551893224484,"click_time":1551893226072,"finger_time":1551893225413,"fix_duration":250,"trial":11,"RT":929,"MT":659,"sideResp":2,"stimulus":"img/900/equaldotanddens/R/14_Ratio_900_L_18_R_20.png","xmouse":[824,824,824,824,824,824,824,824,824,824,824,824,824,824,824,824,824,824,824,824,824,824,824,824,824,824,824,824,824,824,824,824,824,824,825,827,827,827,827,827,827,827,827,827,830,839,848,858,872,894,898,902,908,912,925,957,979,999,1017,1028,1053,1086,1123,1139,1145,1145,1146,1146,1147,1156,1153,1134,1113,1105,1104,1104,1104,1104,1104,1103],"ymouse":[599,599,599,599,599,599,599,599,599,599,599,599,599,599,599,599,599,599,599,599,599,599,599,599,599,599,599,599,599,599,599,599,599,599,598,596,596,596,596,596,596,596,596,596,593,577,562,539,508,424,399,389,386,385,383,359,338,320,304,292,258,218,173,157,152,152,151,150,144,111,0,0,0,0,0,0,0,0,0,1],"timestamp_mouse":[10,39,50,69,88,109,128,149,170,188,209,229,248,269,290,309,329,350,368,388,410,430,450,468,489,508,529,548,569,590,608,630,650,669,690,709,729,748,770,790,808,829,850,868,888,908,929,949,969,989,1008,1030,1049,1069,1088,1108,1128,1149,1168,1190,1209,1230,1249,1269,1288,1309,1328,1350,1369,1388,1408,1429,1448,1469,1489,1509,1528,1549,1569,1588],"xSR":741.5,"ySR":573.95,"xT1":424.9,"yT1":0,"xT2":1058.1,"yT2":0,"toosoon":0,"cond_shown":"equaldotanddens","ratio_trial":900,"smaller_num":"18","larger_num":"20","correct_side":2,"subjID":"DavidSantiagoBernalPuerto33","gender":"0","age":"11","school":"6"},{"start_time":1551893227224,"click_time":1551893228513,"finger_time":1551893227852,"fix_duration":250,"trial":12,"RT":628,"MT":661,"sideResp":1,"stimulus":"img/250/equaldotsize/L/14_Ratio_250_L_12_R_3.png","xmouse":[812,812,812,812,812,812,812,812,812,812,812,812,812,812,812,812,812,812,812,812,812,812,812,812,812,812,812,811,804,799,794,788,778,742,717,691,671,658,652,647,637,622,601,573,570,569,569,569,564,561,557,554,554,553,547,544,542,541,541,540,539,539,537,532,521],"ymouse":[621,621,621,621,621,621,621,621,621,621,621,621,621,621,621,621,621,621,621,621,621,621,621,621,621,621,621,617,602,589,575,558,536,473,433,395,367,345,335,327,316,302,285,255,245,239,224,212,179,162,149,140,135,113,95,81,76,75,75,74,74,74,72,68,63],"timestamp_mouse":[8,39,49,68,89,108,128,149,169,190,209,228,250,270,290,309,328,348,369,389,408,428,449,469,488,510,529,549,569,589,609,628,649,668,689,709,728,748,769,788,809,829,849,869,888,908,929,949,968,989,1009,1029,1048,1068,1089,1108,1130,1149,1168,1188,1210,1230,1249,1268,1289],"xSR":741.5,"ySR":573.95,"xT1":424.9,"yT1":0,"xT2":1058.1,"yT2":0,"toosoon":0,"cond_shown":"equaldotsize","ratio_trial":250,"smaller_num":"3","larger_num":"12","correct_side":1,"subjID":"DavidSantiagoBernalPuerto33","gender":"0","age":"11","school":"6"},{"start_time":1551893229640,"click_time":1551893231773,"finger_time":1551893230993,"fix_duration":285.77814805918365,"trial":13,"RT":1353,"MT":780,"sideResp":1,"stimulus":"img/900/randomdotsizeEA/R/11_Ratio_900_L_18_R_20.png","xmouse":[771,771,771,771,771,771,771,771,771,771,771,771,771,771,771,771,771,771,771,771,771,771,771,771,771,771,771,771,771,771,771,771,771,771,771,771,771,771,775,777,778,778,778,778,778,778,778,778,778,778,778,778,778,778,778,778,778,778,778,778,778,778,778,778,778,779,781,780,775,768,758,744,706,679,650,599,580,572,572,572,572,572,565,562,561,561,558,535,522,518,518,518,512,505,503,502,502,502,502,502,503,504,504,504,504,499,498],"ymouse":[623,623,623,623,623,623,623,623,623,623,623,623,623,623,623,623,623,623,623,623,623,623,623,623,623,623,623,623,623,623,623,623,623,623,623,623,623,623,616,611,610,610,610,610,610,610,610,610,610,610,610,610,610,610,610,610,610,610,610,610,610,610,610,610,604,595,585,572,562,551,539,524,492,475,453,411,392,372,365,360,355,344,301,279,266,261,251,213,198,193,193,189,176,169,166,165,165,165,158,149,137,128,119,117,112,101,99],"timestamp_mouse":[12,34,53,73,93,114,132,152,172,192,212,234,253,274,293,313,333,354,372,392,413,432,454,472,494,513,533,554,573,594,614,632,652,673,692,713,733,754,773,792,813,834,852,872,894,912,934,952,972,992,1013,1033,1052,1073,1094,1112,1133,1152,1174,1192,1214,1232,1254,1273,1293,1314,1333,1353,1372,1394,1413,1432,1453,1472,1492,1512,1533,1553,1573,1592,1614,1632,1652,1673,1693,1712,1732,1753,1772,1793,1813,1834,1853,1873,1893,1913,1933,1953,1972,1993,2013,2033,2053,2073,2092,2113,2133],"xSR":741.5,"ySR":573.95,"xT1":424.9,"yT1":0,"xT2":1058.1,"yT2":0,"toosoon":0,"cond_shown":"randomdotsizeEA","ratio_trial":900,"smaller_num":"18","larger_num":"20","correct_side":2,"subjID":"DavidSantiagoBernalPuerto33","gender":"0","age":"11","school":"6"},{"start_time":1551893232865,"click_time":1551893233674,"finger_time":1551893233513,"fix_duration":250,"trial":14,"RT":648,"MT":161,"sideResp":2,"stimulus":"img/250/equaldotsize/R/10_Ratio_250_L_4_R_16.png","xmouse":[780,780,780,780,780,780,780,780,780,780,780,780,780,780,780,780,780,780,780,780,780,780,780,780,780,780,780,780,780,780,793,816,848,883,926,992,1051,1068,1085,1112,1150],"ymouse":[632,632,632,632,632,632,632,632,632,632,632,632,632,632,632,632,632,632,632,632,632,632,632,632,632,632,632,632,632,632,619,600,572,536,481,378,253,215,180,122,55],"timestamp_mouse":[9,37,48,68,87,109,128,148,167,189,207,228,247,267,289,307,328,347,368,387,408,427,448,468,489,509,528,548,567,589,608,628,648,667,687,707,727,747,768,787,808],"xSR":741.5,"ySR":573.95,"xT1":424.9,"yT1":0,"xT2":1058.1,"yT2":0,"toosoon":0,"cond_shown":"equaldotsize","ratio_trial":250,"smaller_num":"4","larger_num":"16","correct_side":2,"subjID":"DavidSantiagoBernalPuerto33","gender":"0","age":"11","school":"6"},{"start_time":1551893236300,"click_time":1551893237133,"finger_time":1551893236792,"fix_duration":1326.0295585598446,"trial":15,"RT":492,"MT":341,"sideResp":2,"stimulus":"img/500/equaldotanddens/R/14_Ratio_500_L_5_R_10.png","xmouse":[817,819,819,819,819,819,819,819,819,819,819,819,819,819,819,819,819,819,819,819,819,819,819,819,822,824,833,842,862,871,882,896,933,979,1007,1027,1032,1033,1034,1041,1048,1059],"ymouse":[583,582,582,582,582,582,582,582,582,582,582,582,582,582,582,582,582,582,582,582,582,582,582,576,569,560,544,527,500,485,467,443,350,240,187,157,135,117,87,77,71,64],"timestamp_mouse":[15,40,53,73,93,112,133,154,172,192,212,234,252,274,292,314,332,354,372,393,413,434,453,473,492,512,532,552,573,594,612,632,652,673,692,712,733,753,774,792,812,833],"xSR":741.5,"ySR":573.95,"xT1":424.9,"yT1":0,"xT2":1058.1,"yT2":0,"toosoon":0,"cond_shown":"equaldotanddens","ratio_trial":500,"smaller_num":"5","larger_num":"10","correct_side":2,"subjID":"DavidSantiagoBernalPuerto33","gender":"0","age":"11","school":"6"},{"start_time":1551893239144,"click_time":1551893240233,"finger_time":1551893239793,"fix_duration":1151.335214884773,"trial":16,"RT":649,"MT":440,"sideResp":1,"stimulus":"img/500/equaldotanddens/L/13_Ratio_500_L_12_R_6.png","xmouse":[786,786,786,786,786,786,786,786,786,786,786,786,786,786,786,786,786,786,786,786,786,786,786,786,786,786,786,786,787,789,790,790,785,773,761,750,741,725,713,697,661,621,571,563,563,563,552,542,531,527,527,527,527,525,522],"ymouse":[638,638,638,638,638,638,638,638,638,638,638,638,638,638,638,638,638,638,638,638,638,638,638,638,638,638,638,639,635,618,613,590,533,487,453,426,407,379,362,340,304,272,228,214,208,198,161,138,119,112,112,112,110,101,94],"timestamp_mouse":[9,29,49,69,89,109,129,149,169,189,210,229,249,268,290,309,329,349,370,389,408,430,448,470,490,509,529,549,570,589,608,628,649,668,688,708,728,749,770,789,808,828,848,868,889,909,929,948,969,989,1008,1028,1048,1069,1089],"xSR":741.5,"ySR":573.95,"xT1":424.9,"yT1":0,"xT2":1058.1,"yT2":0,"toosoon":0,"cond_shown":"equaldotanddens","ratio_trial":500,"smaller_num":"6","larger_num":"12","correct_side":1,"subjID":"DavidSantiagoBernalPuerto33","gender":"0","age":"11","school":"6"},{"start_time":1551893241591,"click_time":1551893242773,"finger_time":1551893242152,"fix_duration":417.67097367603156,"trial":17,"RT":561,"MT":621,"sideResp":2,"stimulus":"img/500/equaldotanddens/R/6_Ratio_500_L_9_R_18.png","xmouse":[792,792,792,792,792,792,792,792,792,792,792,792,792,792,792,792,792,792,792,792,792,792,792,792,792,792,792,807,848,913,1023,1046,1053,1057,1060,1065,1068,1071,1076,1084,1086,1087,1089,1093,1099,1101,1103,1103,1103,1103,1103,1103,1103,1103,1102,1095,1091,1088,1088,1088],"ymouse":[612,612,612,612,612,612,612,612,612,612,612,612,612,612,612,612,612,612,612,612,612,612,612,612,612,612,612,603,577,534,429,396,383,376,371,358,344,334,319,292,277,266,255,240,219,210,198,187,176,166,154,147,142,138,133,118,109,102,100,99],"timestamp_mouse":[8,38,42,61,83,101,123,141,162,181,202,222,242,262,281,303,323,342,362,383,403,421,441,462,481,502,522,542,561,581,603,622,642,661,683,702,721,741,762,782,801,821,852,861,882,902,923,941,962,981,1003,1021,1041,1061,1081,1102,1122,1141,1161,1182],"xSR":741.5,"ySR":573.95,"xT1":424.9,"yT1":0,"xT2":1058.1,"yT2":0,"toosoon":0,"cond_shown":"equaldotanddens","ratio_trial":500,"smaller_num":"9","larger_num":"18","correct_side":2,"subjID":"DavidSantiagoBernalPuerto33","gender":"0","age":"11","school":"6"},{"start_time":1551893245160,"click_time":1551893246273,"finger_time":1551893246032,"fix_duration":1485.9830429844558,"trial":18,"RT":872,"MT":241,"sideResp":2,"stimulus":"img/250/equaldotanddens/R/11_Ratio_250_L_3_R_12.png","xmouse":[771,771,771,771,771,771,771,771,771,771,771,771,771,771,771,771,771,771,771,771,771,771,771,771,771,771,771,771,771,771,771,771,771,771,771,771,771,771,771,773,810,827,840,855,867,882,942,977,1012,1040,1070,1074,1074,1074,1074,1077],"ymouse":[613,613,613,613,613,613,613,613,613,613,613,613,613,613,613,613,613,613,613,613,613,613,613,613,613,613,613,613,613,613,613,613,613,613,613,613,613,613,613,613,610,607,602,593,583,568,513,477,422,358,241,208,177,148,123,84],"timestamp_mouse":[14,32,52,72,92,113,132,153,172,193,213,232,253,273,293,313,332,352,372,392,413,434,454,473,492,514,532,552,573,592,612,632,652,672,694,712,732,752,772,792,812,832,852,872,892,912,932,952,972,994,1013,1033,1052,1072,1093,1113],"xSR":741.5,"ySR":573.95,"xT1":424.9,"yT1":0,"xT2":1058.1,"yT2":0,"toosoon":0,"cond_shown":"equaldotanddens","ratio_trial":250,"smaller_num":"3","larger_num":"12","correct_side":2,"subjID":"DavidSantiagoBernalPuerto33","gender":"0","age":"11","school":"6"},{"start_time":1551893248382,"click_time":1551893249573,"finger_time":1551893249032,"fix_duration":987.0450626963952,"trial":19,"RT":650,"MT":541,"sideResp":1,"stimulus":"img/900/equaldotsize/R/15_Ratio_900_L_9_R_10.png","xmouse":[781,781,781,781,781,781,781,781,781,781,781,781,781,781,781,781,781,781,781,781,781,781,781,781,781,781,781,781,781,779,771,759,747,720,647,628,621,619,614,603,550,525,510,504,505,506,506,502,497,497,497,497,497,497,497,497,497,497,497,497],"ymouse":[626,626,626,626,626,626,626,626,626,626,626,626,626,626,626,626,626,626,626,626,626,626,626,626,626,626,626,626,626,623,599,574,544,503,419,408,404,402,399,388,346,328,314,304,289,279,263,245,217,211,196,191,181,162,135,111,106,102,100,95],"timestamp_mouse":[10,39,50,70,91,111,131,150,172,190,210,232,250,271,292,312,330,350,371,392,411,431,451,470,491,510,532,551,571,591,610,631,650,670,691,710,730,751,772,791,810,830,851,870,891,910,931,952,970,990,1010,1031,1050,1070,1091,1110,1131,1151,1172,1191],"xSR":741.5,"ySR":573.95,"xT1":424.9,"yT1":0,"xT2":1058.1,"yT2":0,"toosoon":0,"cond_shown":"equaldotsize","ratio_trial":900,"smaller_num":"9","larger_num":"10","correct_side":2,"subjID":"DavidSantiagoBernalPuerto33","gender":"0","age":"11","school":"6"},{"start_time":1551893250810,"click_time":1551893251733,"finger_time":1551893251434,"fix_duration":255.3676654194451,"trial":20,"RT":624,"MT":299,"sideResp":1,"stimulus":"img/900/equaldotsize/L/4_Ratio_900_L_20_R_18.png","xmouse":[753,753,753,753,753,753,753,753,753,753,753,753,753,753,753,753,753,753,753,753,753,753,753,753,753,753,753,753,753,753,754,754,749,738,672,633,604,589,539,525,518,514,509,506,498,494,491],"ymouse":[601,601,601,601,601,601,601,601,601,601,601,601,601,601,601,601,601,601,601,601,601,601,601,601,601,601,601,601,601,601,592,572,495,392,221,135,93,72,9,0,0,0,0,0,0,0,2],"timestamp_mouse":[8,32,43,62,82,102,123,143,162,183,202,222,243,262,283,302,322,342,362,383,404,422,442,462,482,503,522,542,563,584,602,624,643,663,682,702,723,744,763,782,802,823,843,862,882,902,923],"xSR":741.5,"ySR":573.95,"xT1":424.9,"yT1":0,"xT2":1058.1,"yT2":0,"toosoon":0,"cond_shown":"equaldotsize","ratio_trial":900,"smaller_num":"18","larger_num":"20","correct_side":1,"subjID":"DavidSantiagoBernalPuerto33","gender":"0","age":"11","school":"6"},{"start_time":1551893253184,"click_time":1551893254572,"finger_time":1551893253993,"fix_duration":610.7936519108597,"trial":21,"RT":809,"MT":579,"sideResp":2,"stimulus":"img/900/equaldotanddens/R/7_Ratio_900_L_9_R_10.png","xmouse":[782,782,782,782,782,782,782,782,782,782,782,782,782,782,782,782,782,782,782,782,782,782,782,782,782,782,782,782,782,782,782,782,782,782,782,782,782,782,782,784,849,906,977,1049,1107,1148,1152,1154,1154,1156,1171,1174,1174,1174,1174,1174,1174,1174,1174,1174,1174,1174,1174,1174,1174,1174,1174,1172,1172,1153],"ymouse":[648,648,648,648,648,648,648,648,648,648,648,648,648,648,648,648,648,648,648,648,648,648,648,648,648,648,648,648,648,648,648,648,648,648,648,648,648,648,648,641,524,455,384,310,241,171,154,135,128,106,82,77,74,72,71,71,71,71,71,71,71,71,71,71,71,71,71,71,71,67],"timestamp_mouse":[9,39,48,68,90,108,129,150,168,189,208,229,249,269,289,308,329,349,369,388,409,429,448,468,490,509,529,549,569,590,608,628,650,669,689,709,729,749,770,788,809,828,850,869,888,909,928,949,970,989,1009,1028,1048,1068,1088,1109,1128,1148,1169,1190,1209,1229,1249,1268,1288,1308,1328,1348,1368,1388],"xSR":741.5,"ySR":573.95,"xT1":424.9,"yT1":0,"xT2":1058.1,"yT2":0,"toosoon":0,"cond_shown":"equaldotanddens","ratio_trial":900,"smaller_num":"9","larger_num":"10","correct_side":2,"subjID":"DavidSantiagoBernalPuerto33","gender":"0","age":"11","school":"6"},{"start_time":1551893256873,"click_time":1551893258073,"finger_time":1551893257473,"fix_duration":1419.4239152167422,"trial":22,"RT":600,"MT":600,"sideResp":2,"stimulus":"img/500/randomdotsizeEA/R/12_Ratio_500_L_1_R_2.png","xmouse":[801,801,801,801,801,801,801,801,801,801,801,801,801,801,801,801,801,801,801,801,801,801,801,801,801,801,803,812,817,819,819,819,819,819,819,819,811,787,745,682,577,569,569,569,569,569,581,609,645,700,800,1012,1079,1109,1120,1121,1121,1121,1122,1129,1138],"ymouse":[614,614,614,614,614,614,614,614,614,614,614,614,614,614,614,614,614,614,614,614,614,614,614,614,614,614,607,595,587,577,570,570,570,570,570,570,550,518,467,403,325,321,321,321,321,321,302,290,278,269,259,238,210,186,152,138,136,135,127,114,91],"timestamp_mouse":[1,19,39,63,80,100,119,140,159,179,199,220,241,260,280,299,319,340,360,379,399,420,441,460,481,500,520,539,559,579,600,619,641,660,679,699,720,739,759,780,800,819,839,860,880,899,921,940,959,980,999,1020,1040,1059,1079,1099,1120,1139,1160,1180,1200],"xSR":741.5,"ySR":573.95,"xT1":424.9,"yT1":0,"xT2":1058.1,"yT2":0,"toosoon":0,"cond_shown":"randomdotsizeEA","ratio_trial":500,"smaller_num":"1","larger_num":"2","correct_side":2,"subjID":"DavidSantiagoBernalPuerto33","gender":"0","age":"11","school":"6"},{"start_time":1551893260090,"click_time":1551893261872,"finger_time":1551893261212,"fix_duration":1314.9439355426348,"trial":23,"RT":1122,"MT":660,"sideResp":1,"stimulus":"img/900/randomdotsizeEA/L/8_Ratio_900_L_20_R_18.png","xmouse":[801,801,801,801,801,801,801,801,801,801,801,801,801,801,801,801,801,801,801,801,801,801,801,801,801,801,801,801,801,801,801,801,801,801,801,801,801,801,801,801,801,801,801,801,801,801,801,801,801,801,801,801,801,801,801,795,788,778,753,722,672,668,662,640,625,577,576,576,576,576,576,576,572,571,571,570,562,553,545,544,544,543,528,525,523,523,523,523,523,523],"ymouse":[610,610,610,610,610,610,610,610,610,610,610,610,610,610,610,610,610,610,610,610,610,610,610,610,610,610,610,610,610,610,610,610,610,610,610,610,610,610,610,610,610,610,610,610,610,610,610,610,610,610,610,610,610,610,606,588,571,549,508,464,384,365,346,324,315,280,274,264,251,241,222,210,191,188,186,183,170,156,146,145,144,140,122,119,117,117,115,112,103,93],"timestamp_mouse":[8,33,42,62,82,104,122,142,162,182,202,222,243,263,282,303,323,344,363,382,402,422,442,462,482,502,524,542,562,583,603,624,642,662,683,703,723,744,762,782,802,822,842,862,882,902,923,943,962,982,1002,1023,1043,1063,1083,1104,1122,1142,1162,1182,1202,1224,1243,1263,1282,1303,1322,1342,1363,1382,1402,1423,1442,1463,1483,1503,1522,1542,1562,1582,1603,1622,1642,1662,1682,1703,1722,1742,1762,1782],"xSR":741.5,"ySR":573.95,"xT1":424.9,"yT1":0,"xT2":1058.1,"yT2":0,"toosoon":0,"cond_shown":"randomdotsizeEA","ratio_trial":900,"smaller_num":"18","larger_num":"20","correct_side":1,"subjID":"DavidSantiagoBernalPuerto33","gender":"0","age":"11","school":"6"},{"start_time":1551893264168,"click_time":1551893265073,"finger_time":1551893264732,"fix_duration":1492.8758605034477,"trial":24,"RT":564,"MT":341,"sideResp":2,"stimulus":"img/250/equaldotanddens/R/6_Ratio_250_L_6_R_24.png","xmouse":[762,762,762,762,762,762,762,762,762,762,762,762,762,762,762,762,762,762,762,762,762,762,762,762,762,762,767,777,810,858,966,996,1023,1039,1050,1057,1063,1064,1066,1068,1069,1069,1069,1072,1080,1093],"ymouse":[616,616,616,616,616,616,616,616,616,616,616,616,616,616,616,616,616,616,616,616,616,616,616,616,616,616,613,603,573,524,304,232,193,177,168,161,145,133,120,112,108,108,108,107,104,98],"timestamp_mouse":[8,34,45,64,85,104,124,145,164,184,204,224,245,264,284,305,324,345,364,384,404,425,445,464,484,504,525,544,564,585,604,624,644,664,684,704,724,746,764,785,806,825,845,864,884,905],"xSR":741.5,"ySR":573.95,"xT1":424.9,"yT1":0,"xT2":1058.1,"yT2":0,"toosoon":0,"cond_shown":"equaldotanddens","ratio_trial":250,"smaller_num":"6","larger_num":"24","correct_side":2,"subjID":"DavidSantiagoBernalPuerto33","gender":"0","age":"11","school":"6"},{"start_time":1551893267084,"click_time":1551893268194,"finger_time":1551893267673,"fix_duration":1270.9223224802079,"trial":25,"RT":589,"MT":521,"sideResp":1,"stimulus":"img/750/equaldotsize/L/6_Ratio_750_L_24_R_18.png","xmouse":[803,803,803,803,803,803,803,803,803,803,803,803,803,803,803,803,803,803,803,803,803,803,803,803,803,803,800,799,796,784,770,749,710,700,670,669,669,668,666,651,644,643,643,643,638,609,597,590,588,582,580,580,580,580,575,469],"ymouse":[629,629,629,629,629,629,629,629,629,629,629,629,629,629,629,629,629,629,629,629,629,629,629,629,629,629,621,611,590,533,491,440,350,322,248,239,233,220,201,149,132,129,129,129,127,115,110,106,103,98,96,96,96,96,95,68],"timestamp_mouse":[8,39,48,69,89,109,130,148,169,189,209,228,248,269,288,308,328,349,370,388,408,428,448,469,488,508,528,548,569,589,609,629,648,669,688,708,728,748,768,789,808,829,848,869,888,908,929,949,969,989,1008,1028,1048,1068,1088,1110],"xSR":741.5,"ySR":573.95,"xT1":424.9,"yT1":0,"xT2":1058.1,"yT2":0,"toosoon":0,"cond_shown":"equaldotsize","ratio_trial":750,"smaller_num":"18","larger_num":"24","correct_side":1,"subjID":"DavidSantiagoBernalPuerto33","gender":"0","age":"11","school":"6"},{"start_time":1551893269634,"click_time":1551893270773,"finger_time":1551893270312,"fix_duration":280.28941851291523,"trial":26,"RT":678,"MT":461,"sideResp":1,"stimulus":"img/900/randomdotsizeEA/L/10_Ratio_900_L_20_R_18.png","xmouse":[818,818,818,818,818,818,818,818,818,818,818,818,818,818,818,818,818,818,818,818,818,818,818,818,818,818,818,818,818,818,816,797,776,744,720,696,691,669,664,661,659,654,649,639,625,615,612,612,601,573,546,527,522,517,514,511,504],"ymouse":[630,630,630,630,630,630,630,630,630,630,630,630,630,630,630,630,629,629,629,629,629,629,629,629,629,629,629,629,629,629,623,604,583,550,514,468,457,417,406,401,398,390,384,376,366,358,356,331,298,248,200,156,144,133,128,119,87],"timestamp_mouse":[20,38,58,78,99,118,140,158,178,198,218,239,259,278,298,319,340,358,380,398,418,439,459,478,499,520,538,559,578,599,618,639,658,678,698,720,738,759,778,799,818,839,858,878,898,918,939,960,978,998,1019,1038,1058,1078,1099,1120,1139],"xSR":741.5,"ySR":573.95,"xT1":424.9,"yT1":0,"xT2":1058.1,"yT2":0,"toosoon":0,"cond_shown":"randomdotsizeEA","ratio_trial":900,"smaller_num":"18","larger_num":"20","correct_side":1,"subjID":"DavidSantiagoBernalPuerto33","gender":"0","age":"11","school":"6"},{"start_time":1551893272465,"click_time":1551893273993,"finger_time":1551893273033,"fix_duration":970.1516609445164,"trial":27,"RT":568,"MT":960,"sideResp":1,"stimulus":"img/750/randomdotsizeEA/L/13_Ratio_750_L_8_R_6.png","xmouse":[810,810,810,815,817,817,817,817,817,817,817,817,817,817,817,817,817,818,819,819,819,819,819,819,820,822,829,831,832,833,834,834,835,838,840,840,839,839,839,839,839,835,828,807,789,775,773,773,771,769,761,758,755,753,753,753,754,783,873,973,1136,1156,1158,1159,1159,1154,1146,1142,1142,1138,1120,1101,1069,1013,924,590,508],"ymouse":[641,641,641,636,633,632,632,632,632,632,632,632,632,632,632,632,632,632,632,632,632,632,632,632,631,625,601,584,572,564,553,547,532,513,496,479,472,472,472,472,472,468,462,444,426,406,403,400,393,383,359,349,342,339,338,338,338,338,351,362,366,362,360,359,339,314,267,243,234,218,188,169,148,125,102,52,52],"timestamp_mouse":[9,40,47,67,88,107,127,148,168,187,209,228,248,267,289,309,328,348,367,388,408,428,448,467,487,507,527,548,568,587,607,629,648,667,687,707,727,748,768,787,808,827,847,867,887,907,928,947,968,987,1008,1028,1048,1067,1087,1108,1128,1147,1168,1187,1207,1227,1248,1267,1287,1307,1327,1347,1367,1387,1407,1428,1447,1467,1488,1508,1528],"xSR":741.5,"ySR":573.95,"xT1":424.9,"yT1":0,"xT2":1058.1,"yT2":0,"toosoon":0,"cond_shown":"randomdotsizeEA","ratio_trial":750,"smaller_num":"6","larger_num":"8","correct_side":1,"subjID":"DavidSantiagoBernalPuerto33","gender":"0","age":"11","school":"6"},{"start_time":1551893277753,"click_time":1551893278872,"finger_time":1551893278532,"fix_duration":1399.9504557313157,"trial":28,"RT":779,"MT":340,"sideResp":2,"stimulus":"img/500/randomdotsizeEA/R/3_Ratio_500_L_10_R_20.png","xmouse":[792,792,792,792,792,792,792,792,792,792,792,792,792,792,792,792,792,792,792,792,792,792,792,792,792,792,792,792,792,792,792,792,792,792,792,792,804,837,866,896,909,912,915,923,935,986,1023,1054,1076,1085,1104,1114,1124,1133,1143,1151],"ymouse":[631,631,631,631,631,631,631,631,631,631,631,631,631,631,631,631,631,631,631,631,631,631,631,631,631,631,631,631,631,631,631,631,631,631,631,631,618,576,535,493,472,465,455,442,427,355,296,243,203,186,155,144,133,122,111,88],"timestamp_mouse":[20,40,60,80,99,120,140,159,180,199,219,240,260,279,300,320,339,361,379,399,419,440,459,479,499,519,539,561,579,600,620,639,659,679,700,719,739,759,779,800,819,840,859,879,899,919,939,960,979,999,1019,1040,1059,1080,1099,1119],"xSR":741.5,"ySR":573.95,"xT1":424.9,"yT1":0,"xT2":1058.1,"yT2":0,"toosoon":0,"cond_shown":"randomdotsizeEA","ratio_trial":500,"smaller_num":"10","larger_num":"20","correct_side":2,"subjID":"DavidSantiagoBernalPuerto33","gender":"0","age":"11","school":"6"},{"start_time":1551893280373,"click_time":1551893281773,"finger_time":1551893281012,"fix_duration":739.4182820678658,"trial":29,"RT":639,"MT":761,"sideResp":1,"stimulus":"img/500/randomdotsizeEA/L/4_Ratio_500_L_18_R_9.png","xmouse":[753,753,753,753,753,753,753,753,753,753,753,753,753,753,753,753,753,753,753,753,753,753,753,753,753,753,753,753,753,753,754,744,735,725,707,682,616,603,600,593,585,557,547,542,540,540,540,537,531,528,527,524,523,523,522,518,507,504,504,504,504,502,501,501,501,501,501,501,501,501,499],"ymouse":[621,621,621,621,621,621,621,621,621,621,621,621,621,621,621,621,621,621,621,621,621,621,621,621,621,621,621,621,621,621,621,607,594,580,558,529,463,440,417,383,363,311,287,267,251,225,207,192,179,172,167,158,156,155,153,145,120,115,114,114,114,112,109,108,108,108,108,107,105,102,98],"timestamp_mouse":[1,34,39,60,81,99,119,140,159,180,201,220,240,260,279,300,320,339,360,379,400,419,439,461,479,499,519,540,560,579,599,620,639,659,679,700,720,741,759,779,800,819,839,860,880,900,919,940,959,979,999,1020,1040,1060,1079,1100,1119,1140,1159,1180,1200,1221,1239,1260,1280,1300,1320,1339,1359,1379,1400],"xSR":741.5,"ySR":573.95,"xT1":424.9,"yT1":0,"xT2":1058.1,"yT2":0,"toosoon":0,"cond_shown":"randomdotsizeEA","ratio_trial":500,"smaller_num":"9","larger_num":"18","correct_side":1,"subjID":"DavidSantiagoBernalPuerto33","gender":"0","age":"11","school":"6"},{"start_time":1551893283199,"click_time":1551893284473,"finger_time":1551893283893,"fix_duration":403.50720193337685,"trial":30,"RT":694,"MT":580,"sideResp":1,"stimulus":"img/750/equaldotsize/L/1_Ratio_750_L_20_R_15.png","xmouse":[767,767,767,767,767,767,767,767,767,767,767,767,767,767,767,767,767,767,767,767,767,767,767,767,767,767,767,767,767,767,767,767,768,766,740,716,683,638,622,605,599,591,574,528,521,520,520,522,522,522,522,522,522,522,520,518,514,514,511,507,503,501,501,499],"ymouse":[620,620,620,620,620,620,620,620,620,620,620,620,620,620,620,620,620,620,620,620,620,620,620,620,620,620,620,620,620,620,620,620,613,596,517,468,409,343,321,296,286,273,254,209,194,189,185,179,172,157,152,149,145,140,137,133,127,125,114,109,105,103,103,99],"timestamp_mouse":[13,35,54,74,94,114,133,154,174,195,214,234,254,274,293,313,334,353,373,394,413,434,453,473,494,514,534,554,574,593,614,635,653,673,694,715,735,754,773,794,813,833,854,874,894,913,933,953,974,994,1014,1033,1053,1074,1093,1113,1133,1154,1173,1193,1213,1234,1253,1274],"xSR":741.5,"ySR":573.95,"xT1":424.9,"yT1":0,"xT2":1058.1,"yT2":0,"toosoon":0,"cond_shown":"equaldotsize","ratio_trial":750,"smaller_num":"15","larger_num":"20","correct_side":1,"subjID":"DavidSantiagoBernalPuerto33","gender":"0","age":"11","school":"6"},{"start_time":1551893285506,"click_time":1551893286612,"finger_time":1551893286352,"fix_duration":250,"trial":31,"RT":846,"MT":260,"sideResp":2,"stimulus":"img/750/equaldotsize/R/2_Ratio_750_L_6_R_8.png","xmouse":[810,810,810,810,810,810,810,810,810,810,810,810,810,810,810,810,810,810,810,810,810,810,810,810,810,810,810,810,810,810,810,810,810,810,810,810,810,810,810,810,815,829,872,951,1029,1058,1082,1110,1127,1131,1136,1141,1151,1157,1160,1157],"ymouse":[608,608,608,608,608,608,608,608,608,608,608,608,608,608,608,608,608,608,608,608,608,608,608,608,608,608,608,608,608,608,608,608,608,608,608,608,608,608,608,608,607,594,548,469,403,378,349,305,258,241,227,211,181,157,113,94],"timestamp_mouse":[8,34,47,67,88,106,127,146,166,186,207,226,247,267,286,306,326,347,367,386,406,426,447,468,488,508,526,546,567,588,606,626,647,667,688,706,726,746,767,787,806,827,846,866,886,906,927,946,966,986,1008,1026,1046,1066,1086,1106],"xSR":741.5,"ySR":573.95,"xT1":424.9,"yT1":0,"xT2":1058.1,"yT2":0,"toosoon":0,"cond_shown":"equaldotsize","ratio_trial":750,"smaller_num":"6","larger_num":"8","correct_side":2,"subjID":"DavidSantiagoBernalPuerto33","gender":"0","age":"11","school":"6"},{"start_time":1551893288519,"click_time":1551893289452,"finger_time":1551893289273,"fix_duration":866.7005877941185,"trial":32,"RT":754,"MT":179,"sideResp":1,"stimulus":"img/750/equaldotanddens/L/8_Ratio_750_L_4_R_3.png","xmouse":[768,768,768,768,768,768,768,768,768,768,768,768,768,768,768,768,768,768,768,768,768,768,768,768,768,768,768,768,768,768,768,768,768,768,768,770,770,749,729,703,681,653,597,523,495,471,440],"ymouse":[600,600,600,600,600,600,600,600,600,600,600,600,600,600,600,600,600,600,600,600,600,600,600,600,600,600,600,600,600,600,600,600,600,600,600,600,588,501,453,410,377,338,273,205,175,137,79],"timestamp_mouse":[13,36,53,73,94,114,133,154,173,193,213,233,254,275,294,314,334,354,373,394,414,433,453,473,493,514,533,554,573,593,613,633,654,673,693,714,733,754,773,795,814,834,853,874,894,914,933],"xSR":741.5,"ySR":573.95,"xT1":424.9,"yT1":0,"xT2":1058.1,"yT2":0,"toosoon":0,"cond_shown":"equaldotanddens","ratio_trial":750,"smaller_num":"3","larger_num":"4","correct_side":1,"subjID":"DavidSantiagoBernalPuerto33","gender":"0","age":"11","school":"6"},{"start_time":1551893291322,"click_time":1551893292273,"finger_time":1551893291893,"fix_duration":828.8437498183255,"trial":33,"RT":571,"MT":380,"sideResp":1,"stimulus":"img/750/equaldotsize/L/10_Ratio_750_L_4_R_3.png","xmouse":[781,781,781,781,781,781,781,781,781,781,781,781,781,781,781,781,781,781,781,781,781,781,781,781,781,781,781,782,803,816,825,817,785,671,637,625,622,621,617,613,609,600,593,575,560,545,528,512],"ymouse":[637,637,637,637,637,637,637,637,637,637,637,637,637,637,637,637,637,637,637,637,637,637,637,637,637,637,636,628,560,516,468,415,362,248,214,198,189,181,163,153,145,133,124,100,84,70,57,45],"timestamp_mouse":[10,34,51,72,90,110,132,151,170,192,210,231,250,271,291,311,330,350,370,391,410,431,451,471,490,511,531,551,571,590,610,631,650,671,691,710,730,751,770,790,811,830,850,872,890,910,931,951],"xSR":741.5,"ySR":573.95,"xT1":424.9,"yT1":0,"xT2":1058.1,"yT2":0,"toosoon":0,"cond_shown":"equaldotsize","ratio_trial":750,"smaller_num":"3","larger_num":"4","correct_side":1,"subjID":"DavidSantiagoBernalPuerto33","gender":"0","age":"11","school":"6"},{"start_time":1551893293744,"click_time":1551893295212,"finger_time":1551893294472,"fix_duration":731.020936529833,"trial":34,"RT":728,"MT":740,"sideResp":1,"stimulus":"img/900/equaldotanddens/L/4_Ratio_900_L_20_R_18.png","xmouse":[791,791,791,791,791,791,791,791,791,791,791,791,791,791,791,791,791,791,791,791,791,791,791,791,791,791,791,791,791,791,791,791,791,791,801,816,849,902,923,946,955,964,988,998,1007,1015,1034,1044,1054,1064,1075,1078,1079,1079,1079,1079,1073,1053,1045,1041,1031,1006,847,755,677,621,588,565,564,564,562,550,527,519],"ymouse":[629,629,629,629,629,629,629,629,629,629,629,629,629,629,629,629,629,629,629,629,629,629,629,629,629,629,629,629,629,629,629,629,629,629,624,612,586,538,512,471,449,431,390,377,366,355,322,304,284,263,232,216,205,205,205,204,207,220,224,225,225,213,144,105,72,49,34,26,25,25,25,25,23,22],"timestamp_mouse":[15,28,48,68,89,109,128,148,168,188,208,228,248,269,288,308,328,348,368,390,409,428,448,469,488,508,529,548,568,588,610,629,648,669,689,708,728,748,769,788,808,828,848,868,889,908,929,948,968,990,1010,1028,1048,1068,1089,1108,1128,1149,1168,1190,1208,1228,1248,1268,1288,1308,1329,1349,1369,1389,1409,1429,1448,1468],"xSR":741.5,"ySR":573.95,"xT1":424.9,"yT1":0,"xT2":1058.1,"yT2":0,"toosoon":0,"cond_shown":"equaldotanddens","ratio_trial":900,"smaller_num":"18","larger_num":"20","correct_side":1,"subjID":"DavidSantiagoBernalPuerto33","gender":"0","age":"11","school":"6"},{"start_time":1551893297559,"click_time":1551893298473,"finger_time":1551893298154,"fix_duration":1424.7989076731544,"trial":35,"RT":595,"MT":319,"sideResp":1,"stimulus":"img/250/equaldotsize/L/15_Ratio_250_L_12_R_3.png","xmouse":[778,778,778,778,778,778,778,778,778,778,778,778,778,778,778,778,778,778,778,778,778,778,778,778,778,778,778,776,769,753,673,632,591,560,537,510,506,503,501,500,496,496,496,496,498,508],"ymouse":[641,641,641,641,641,641,641,641,641,641,641,641,641,641,641,641,641,641,641,641,641,641,641,641,641,641,641,633,610,555,403,340,285,243,216,185,176,169,160,152,143,135,131,124,113,75],"timestamp_mouse":[13,33,53,75,94,113,134,153,173,193,213,234,253,274,293,314,333,354,373,394,414,433,455,474,494,514,535,553,573,595,614,633,653,673,693,714,733,754,774,793,813,833,853,873,893,914],"xSR":741.5,"ySR":573.95,"xT1":424.9,"yT1":0,"xT2":1058.1,"yT2":0,"toosoon":0,"cond_shown":"equaldotsize","ratio_trial":250,"smaller_num":"3","larger_num":"12","correct_side":1,"subjID":"DavidSantiagoBernalPuerto33","gender":"0","age":"11","school":"6"},{"start_time":1551893300377,"click_time":1551893301212,"finger_time":1551893300852,"fix_duration":983.3518547702696,"trial":36,"RT":475,"MT":360,"sideResp":2,"stimulus":"img/250/equaldotanddens/R/13_Ratio_250_L_2_R_8.png","xmouse":[801,801,801,801,801,801,801,801,801,801,801,801,801,801,801,801,801,801,801,801,801,817,830,860,931,965,997,1050,1106,1156,1181,1194,1198,1200,1201,1202,1202,1199,1196,1187,1167,1153],"ymouse":[618,618,618,618,618,618,618,618,618,618,618,618,618,618,618,618,618,618,618,618,618,601,586,546,461,414,370,296,215,100,11,0,0,0,0,0,0,0,0,0,1,10],"timestamp_mouse":[19,35,55,75,95,115,137,155,175,195,216,236,255,275,295,316,336,357,375,396,416,435,455,475,496,515,535,555,575,596,615,635,656,676,695,716,735,755,775,797,816,835],"xSR":741.5,"ySR":573.95,"xT1":424.9,"yT1":0,"xT2":1058.1,"yT2":0,"toosoon":0,"cond_shown":"equaldotanddens","ratio_trial":250,"smaller_num":"2","larger_num":"8","correct_side":2,"subjID":"DavidSantiagoBernalPuerto33","gender":"0","age":"11","school":"6"},{"start_time":1551893304265,"click_time":1551893305872,"finger_time":1551893305251,"fix_duration":750.4985633269771,"trial":37,"RT":986,"MT":621,"sideResp":2,"stimulus":"img/750/randomdotsizeEA/R/11_Ratio_750_L_12_R_16.png","xmouse":[816,816,816,816,816,816,816,816,816,816,816,816,816,816,816,816,816,816,816,816,816,816,816,816,816,816,816,816,816,816,816,816,816,816,816,816,816,816,816,816,816,816,816,816,816,816,817,826,840,856,900,924,939,948,955,972,979,988,996,1007,1032,1041,1049,1052,1060,1067,1083,1088,1089,1089,1089,1089,1089,1089,1089,1089,1089,1089,1090,1092,1096],"ymouse":[620,620,620,620,620,620,620,620,620,620,620,620,620,620,620,620,620,620,620,620,620,620,620,620,620,620,620,620,620,620,620,620,620,620,620,620,620,620,620,620,620,620,620,620,620,620,619,603,577,542,437,373,317,276,246,204,193,184,175,167,146,136,126,123,119,117,109,106,105,105,105,105,105,105,105,105,105,105,105,103,97],"timestamp_mouse":[8,40,48,67,86,106,126,146,167,186,207,227,247,266,286,308,328,347,366,386,407,426,446,468,487,507,527,546,567,588,606,627,647,666,686,707,726,748,767,787,806,826,846,867,887,908,927,946,967,986,1007,1026,1048,1068,1087,1107,1127,1147,1167,1187,1207,1226,1246,1266,1287,1307,1326,1347,1367,1388,1407,1427,1446,1467,1488,1507,1527,1547,1567,1588,1607],"xSR":741.5,"ySR":573.95,"xT1":424.9,"yT1":0,"xT2":1058.1,"yT2":0,"toosoon":0,"cond_shown":"randomdotsizeEA","ratio_trial":750,"smaller_num":"12","larger_num":"16","correct_side":2,"subjID":"DavidSantiagoBernalPuerto33","gender":"0","age":"11","school":"6"},{"start_time":1551893307667,"click_time":1551893308831,"finger_time":1551893308231,"fix_duration":893.6843418158968,"trial":38,"RT":564,"MT":600,"sideResp":1,"stimulus":"img/500/equaldotanddens/L/5_Ratio_500_L_4_R_2.png","xmouse":[798,798,798,798,798,798,798,798,798,798,798,798,798,798,798,798,798,798,798,798,798,798,798,798,798,798,798,798,798,792,767,742,726,714,707,674,658,646,635,625,603,592,578,564,547,544,543,543,543,543,543,543,543,543,543,543,541,531,518],"ymouse":[597,597,597,597,597,597,597,597,597,597,597,597,597,597,597,597,597,597,597,597,597,597,597,597,597,597,597,579,564,528,448,406,374,351,326,259,230,209,191,175,148,132,117,103,89,86,86,86,86,86,86,86,86,86,86,86,86,78,69],"timestamp_mouse":[9,34,45,65,84,105,125,145,165,184,204,225,245,264,284,305,326,344,364,385,405,425,444,464,485,505,525,544,564,584,605,624,645,664,686,705,725,745,764,784,805,824,845,864,884,904,926,944,964,984,1006,1024,1044,1066,1086,1105,1125,1145,1164],"xSR":741.5,"ySR":573.95,"xT1":424.9,"yT1":0,"xT2":1058.1,"yT2":0,"toosoon":0,"cond_shown":"equaldotanddens","ratio_trial":500,"smaller_num":"2","larger_num":"4","correct_side":1,"subjID":"DavidSantiagoBernalPuerto33","gender":"0","age":"11","school":"6"},{"start_time":1551893310404,"click_time":1551893311451,"finger_time":1551893310953,"fix_duration":711.4372341764523,"trial":39,"RT":549,"MT":498,"sideResp":1,"stimulus":"img/500/equaldotanddens/L/11_Ratio_500_L_12_R_6.png","xmouse":[753,753,753,753,753,753,753,753,753,753,753,753,753,753,753,753,753,753,753,753,755,757,758,762,764,766,766,764,759,759,758,750,729,691,679,667,639,618,605,601,601,600,597,595,594,593,585,580,551,542,535,525,505],"ymouse":[612,612,612,612,612,612,612,612,612,612,612,612,612,612,612,612,612,612,612,612,612,612,612,608,603,596,586,573,549,528,499,460,412,327,299,272,232,208,195,187,183,178,173,170,167,164,143,134,98,91,84,74,59],"timestamp_mouse":[8,33,48,68,88,108,127,149,168,188,208,227,248,268,289,308,328,347,367,387,408,427,447,468,488,507,528,549,568,588,607,628,648,668,687,708,727,748,767,788,808,829,849,868,888,907,927,948,968,987,1007,1028,1047],"xSR":741.5,"ySR":573.95,"xT1":424.9,"yT1":0,"xT2":1058.1,"yT2":0,"toosoon":0,"cond_shown":"equaldotanddens","ratio_trial":500,"smaller_num":"6","larger_num":"12","correct_side":1,"subjID":"DavidSantiagoBernalPuerto33","gender":"0","age":"11","school":"6"},{"start_time":1551893312523,"click_time":1551893313451,"finger_time":1551893313072,"fix_duration":250,"trial":40,"RT":549,"MT":379,"sideResp":1,"stimulus":"img/250/equaldotsize/L/14_Ratio_250_L_12_R_3.png","xmouse":[784,784,784,784,784,784,784,784,784,784,784,784,784,784,784,784,784,784,784,784,784,784,784,784,784,784,781,771,759,745,732,714,684,617,586,567,559,554,541,532,522,514,500,500,500,500,499],"ymouse":[607,607,607,607,607,607,607,607,607,607,607,607,607,607,607,607,607,607,607,607,607,607,607,607,607,607,599,573,547,508,464,421,361,272,237,216,202,189,162,150,138,126,105,105,105,104,96],"timestamp_mouse":[10,30,50,69,88,108,130,148,169,190,208,229,249,269,290,309,328,348,369,390,408,429,449,468,489,509,530,549,568,588,609,630,648,668,689,708,728,748,768,788,809,830,849,868,888,908,928],"xSR":741.5,"ySR":573.95,"xT1":424.9,"yT1":0,"xT2":1058.1,"yT2":0,"toosoon":0,"cond_shown":"equaldotsize","ratio_trial":250,"smaller_num":"3","larger_num":"12","correct_side":1,"subjID":"DavidSantiagoBernalPuerto33","gender":"0","age":"11","school":"6"},{"start_time":1551893314459,"click_time":1551893315392,"finger_time":1551893314951,"fix_duration":267.0456449713605,"trial":41,"RT":492,"MT":441,"sideResp":2,"stimulus":"img/500/equaldotanddens/R/2_Ratio_500_L_3_R_6.png","xmouse":[803,803,803,803,803,803,803,803,803,803,803,803,803,803,803,803,803,803,803,803,803,803,808,831,845,883,989,1039,1083,1108,1118,1113,1106,1103,1102,1099,1098,1097,1092,1082,1076,1076,1078,1080,1083,1097,1100],"ymouse":[601,601,601,601,601,601,601,601,601,601,601,601,601,601,601,601,601,601,601,601,601,601,599,582,573,551,492,457,414,372,301,279,262,255,252,237,230,223,208,191,173,168,162,157,149,114,99],"timestamp_mouse":[28,33,53,73,93,112,133,154,174,193,213,233,253,272,294,314,333,352,373,392,413,432,453,472,492,512,533,554,572,593,613,632,653,672,693,713,733,752,772,793,813,833,853,872,893,913,932],"xSR":741.5,"ySR":573.95,"xT1":424.9,"yT1":0,"xT2":1058.1,"yT2":0,"toosoon":0,"cond_shown":"equaldotanddens","ratio_trial":500,"smaller_num":"3","larger_num":"6","correct_side":2,"subjID":"DavidSantiagoBernalPuerto33","gender":"0","age":"11","school":"6"},{"start_time":1551893317462,"click_time":1551893318831,"finger_time":1551893318371,"fix_duration":1189.7236365025508,"trial":42,"RT":909,"MT":460,"sideResp":2,"stimulus":"img/900/equaldotanddens/R/11_Ratio_900_L_18_R_20.png","xmouse":[792,792,792,792,792,792,792,792,792,792,792,792,792,792,792,792,792,792,792,792,792,792,792,792,792,792,792,792,792,792,792,792,792,792,792,792,792,792,792,792,792,792,792,792,792,873,940,991,1015,1027,1040,1052,1068,1099,1110,1160,1180,1193,1200,1205,1205,1205,1205,1205,1202,1195,1177,1160,1149],"ymouse":[611,611,611,611,611,611,611,611,611,611,611,611,611,611,611,611,611,611,611,611,611,611,611,611,611,611,611,611,611,611,611,611,611,611,611,611,611,611,611,611,611,611,611,611,609,494,399,325,289,273,258,248,233,209,203,167,154,144,133,124,120,120,120,119,116,111,100,92,86],"timestamp_mouse":[16,42,49,71,89,109,129,149,171,189,209,230,249,269,289,311,330,349,371,391,410,430,449,470,491,510,530,549,570,589,611,629,650,671,689,709,730,749,770,790,810,830,850,869,889,909,930,949,969,989,1010,1031,1049,1069,1089,1110,1130,1149,1170,1189,1209,1231,1250,1270,1289,1309,1331,1349,1369],"xSR":741.5,"ySR":573.95,"xT1":424.9,"yT1":0,"xT2":1058.1,"yT2":0,"toosoon":0,"cond_shown":"equaldotanddens","ratio_trial":900,"smaller_num":"18","larger_num":"20","correct_side":2,"subjID":"DavidSantiagoBernalPuerto33","gender":"0","age":"11","school":"6"},{"start_time":1551893319843,"click_time":1551893320772,"finger_time":1551893320372,"fix_duration":271.6063471228004,"trial":43,"RT":529,"MT":400,"sideResp":1,"stimulus":"img/900/equaldotsize/L/10_Ratio_900_L_20_R_18.png","xmouse":[783,783,783,783,783,783,783,783,783,783,783,783,783,783,783,783,783,783,783,783,783,783,783,783,783,784,768,747,719,697,676,644,628,616,608,603,592,587,585,585,585,572,564,556,550,538,496],"ymouse":[629,629,629,629,629,629,629,629,629,629,629,629,629,629,629,629,629,629,629,629,629,629,629,629,629,625,561,490,406,325,256,171,144,126,110,97,66,58,55,55,54,52,50,47,45,41,35],"timestamp_mouse":[9,29,49,70,88,109,129,148,170,188,209,228,250,268,288,308,330,350,369,389,409,428,449,469,488,510,529,548,569,588,608,629,648,669,689,709,728,748,769,789,809,829,848,868,888,909,929],"xSR":741.5,"ySR":573.95,"xT1":424.9,"yT1":0,"xT2":1058.1,"yT2":0,"toosoon":0,"cond_shown":"equaldotsize","ratio_trial":900,"smaller_num":"18","larger_num":"20","correct_side":1,"subjID":"DavidSantiagoBernalPuerto33","gender":"0","age":"11","school":"6"},{"start_time":1551893321903,"click_time":1551893322891,"finger_time":1551893322611,"fix_duration":250,"trial":44,"RT":708,"MT":280,"sideResp":2,"stimulus":"img/750/equaldotsize/R/2_Ratio_750_L_6_R_8.png","xmouse":[792,792,792,792,792,792,792,792,792,792,792,792,792,792,792,792,792,792,792,792,792,792,792,792,792,792,792,792,792,792,792,792,792,792,813,873,931,976,1020,1032,1044,1070,1080,1128,1135,1139,1143,1145,1139,1132],"ymouse":[603,603,603,603,603,603,603,603,603,603,603,603,603,603,603,603,603,603,603,603,603,603,603,603,603,603,603,603,603,603,603,603,603,603,598,556,512,473,422,401,381,345,330,259,236,214,192,167,110,83],"timestamp_mouse":[10,33,49,69,89,108,128,150,169,188,210,229,248,269,290,308,329,349,369,390,409,428,450,468,488,509,528,550,568,589,609,628,648,669,689,708,728,748,768,790,809,829,849,869,889,908,929,948,968,988],"xSR":741.5,"ySR":573.95,"xT1":424.9,"yT1":0,"xT2":1058.1,"yT2":0,"toosoon":0,"cond_shown":"equaldotsize","ratio_trial":750,"smaller_num":"6","larger_num":"8","correct_side":2,"subjID":"DavidSantiagoBernalPuerto33","gender":"0","age":"11","school":"6"},{"start_time":1551893324152,"click_time":1551893325032,"finger_time":1551893324752,"fix_duration":498.53351366135314,"trial":45,"RT":600,"MT":280,"sideResp":2,"stimulus":"img/750/equaldotsize/R/3_Ratio_750_L_15_R_20.png","xmouse":[777,777,777,777,777,777,777,777,777,777,777,777,777,777,777,777,777,777,777,777,777,777,777,777,777,777,777,788,803,829,864,984,1021,1047,1068,1082,1090,1093,1095,1097,1097,1098,1098,1099,1099],"ymouse":[634,634,634,634,634,634,634,634,634,634,634,634,634,634,634,634,634,634,634,634,634,634,634,634,634,634,634,626,615,592,563,449,403,365,323,289,232,210,192,175,155,111,103,101,98],"timestamp_mouse":[1,35,40,59,80,101,120,139,160,180,201,221,240,261,280,300,320,341,359,379,400,419,440,459,479,500,519,539,560,580,600,619,640,660,681,700,720,739,759,780,801,820,839,859,880],"xSR":741.5,"ySR":573.95,"xT1":424.9,"yT1":0,"xT2":1058.1,"yT2":0,"toosoon":0,"cond_shown":"equaldotsize","ratio_trial":750,"smaller_num":"15","larger_num":"20","correct_side":2,"subjID":"DavidSantiagoBernalPuerto33","gender":"0","age":"11","school":"6"},{"start_time":1551893327121,"click_time":1551893327992,"finger_time":1551893327632,"fix_duration":1347.8140891602259,"trial":46,"RT":511,"MT":360,"sideResp":1,"stimulus":"img/250/equaldotsize/L/5_Ratio_250_L_24_R_6.png","xmouse":[819,819,814,813,810,807,802,800,800,800,800,800,800,800,800,800,800,800,800,800,800,800,800,798,795,788,771,714,678,647,628,618,606,601,590,581,574,555,539,522,510,508,508,499],"ymouse":[604,604,604,604,604,604,604,604,604,604,604,604,604,604,604,604,604,604,604,604,604,604,604,600,579,553,500,369,312,270,247,229,164,135,112,96,78,31,11,0,0,0,0,1],"timestamp_mouse":[11,31,50,70,91,111,131,151,171,191,211,231,252,271,292,310,331,351,371,392,410,431,452,471,491,511,531,550,571,590,611,632,650,671,690,711,730,750,771,791,811,830,850,870],"xSR":741.5,"ySR":573.95,"xT1":424.9,"yT1":0,"xT2":1058.1,"yT2":0,"toosoon":0,"cond_shown":"equaldotsize","ratio_trial":250,"smaller_num":"6","larger_num":"24","correct_side":1,"subjID":"DavidSantiagoBernalPuerto33","gender":"0","age":"11","school":"6"},{"start_time":1551893329457,"click_time":1551893330332,"finger_time":1551893329911,"fix_duration":463.4710522659075,"trial":47,"RT":454,"MT":421,"sideResp":1,"stimulus":"img/500/randomdotsizeEA/L/10_Ratio_500_L_4_R_2.png","xmouse":[816,816,816,816,816,816,816,816,816,816,816,816,816,816,816,816,816,816,816,816,816,807,786,763,760,760,754,727,673,633,617,608,593,563,552,543,537,529,525,525,525,519,515,514],"ymouse":[631,631,631,631,631,631,631,631,631,631,631,631,631,631,631,631,631,631,631,631,629,598,551,516,512,512,506,486,453,421,394,379,355,311,287,255,240,218,195,172,156,129,116,97],"timestamp_mouse":[21,35,54,75,96,115,134,156,174,195,215,235,254,274,295,316,334,355,375,395,414,434,454,475,495,515,534,555,574,594,615,634,654,674,696,715,734,756,775,794,814,834,855,875],"xSR":741.5,"ySR":573.95,"xT1":424.9,"yT1":0,"xT2":1058.1,"yT2":0,"toosoon":0,"cond_shown":"randomdotsizeEA","ratio_trial":500,"smaller_num":"2","larger_num":"4","correct_side":1,"subjID":"DavidSantiagoBernalPuerto33","gender":"0","age":"11","school":"6"},{"start_time":1551893332567,"click_time":1551893333731,"finger_time":1551893333251,"fix_duration":1272.2764203138674,"trial":48,"RT":684,"MT":480,"sideResp":2,"stimulus":"img/900/equaldotsize/R/5_Ratio_900_L_9_R_10.png","xmouse":[787,787,787,787,787,787,787,787,787,787,787,787,787,787,787,787,787,787,787,787,787,787,787,787,787,787,787,787,787,787,787,787,802,813,845,883,948,966,973,980,985,1000,1011,1020,1031,1049,1057,1064,1069,1074,1081,1082,1083,1083,1083,1083,1087,1088,1090],"ymouse":[623,623,623,623,623,623,623,623,623,623,623,623,623,623,623,623,623,623,623,623,623,623,623,623,623,623,623,623,623,623,623,623,606,591,554,506,401,365,346,327,316,286,267,250,229,193,177,163,151,138,117,114,114,113,113,112,105,101,98],"timestamp_mouse":[8,35,46,65,84,105,124,144,164,185,206,224,246,265,286,305,325,346,364,384,405,426,446,466,485,506,524,545,565,585,606,625,645,665,684,705,725,746,764,784,804,824,845,865,885,905,925,946,964,985,1005,1024,1044,1065,1086,1104,1125,1145,1164],"xSR":741.5,"ySR":573.95,"xT1":424.9,"yT1":0,"xT2":1058.1,"yT2":0,"toosoon":0,"cond_shown":"equaldotsize","ratio_trial":900,"smaller_num":"9","larger_num":"10","correct_side":2,"subjID":"DavidSantiagoBernalPuerto33","gender":"0","age":"11","school":"6"},{"start_time":1551893335662,"click_time":1551893336593,"finger_time":1551893336192,"fix_duration":1128.6507258010936,"trial":49,"RT":530,"MT":401,"sideResp":1,"stimulus":"img/750/equaldotsize/L/8_Ratio_750_L_4_R_3.png","xmouse":[755,755,755,755,755,755,755,755,755,755,755,755,755,755,755,755,755,755,755,755,755,755,755,755,755,755,738,721,700,682,663,655,646,638,632,627,625,623,620,604,549,539,539,539,539,530,524],"ymouse":[622,622,622,622,622,622,622,622,622,622,622,622,622,622,622,622,622,622,622,622,622,622,622,622,621,582,487,435,391,362,327,309,288,270,255,241,225,205,183,149,89,74,72,72,72,69,69],"timestamp_mouse":[9,43,51,69,90,110,130,150,170,189,209,229,250,270,289,310,331,350,369,390,410,431,450,471,489,509,530,551,570,589,610,629,649,670,691,710,729,749,770,791,810,829,851,870,890,909,931],"xSR":741.5,"ySR":573.95,"xT1":424.9,"yT1":0,"xT2":1058.1,"yT2":0,"toosoon":0,"cond_shown":"equaldotsize","ratio_trial":750,"smaller_num":"3","larger_num":"4","correct_side":1,"subjID":"DavidSantiagoBernalPuerto33","gender":"0","age":"11","school":"6"},{"start_time":1551893337744,"click_time":1551893339012,"finger_time":1551893338371,"fix_duration":250,"trial":50,"RT":627,"MT":641,"sideResp":1,"stimulus":"img/750/equaldotanddens/L/13_Ratio_750_L_8_R_6.png","xmouse":[776,776,776,776,776,776,776,776,776,776,776,776,776,776,776,776,776,776,776,776,776,776,776,776,776,776,776,778,780,781,781,765,723,699,686,672,656,629,629,632,637,629,624,622,620,615,605,586,581,577,577,577,572,563,556,555,553,550,547,544,543,534,527,519],"ymouse":[648,648,648,648,648,648,648,648,648,648,648,648,648,648,648,648,648,648,648,648,648,648,648,648,648,648,648,642,630,605,581,531,452,419,401,384,365,327,308,287,264,207,188,173,160,145,121,64,51,46,44,44,44,44,44,44,44,45,45,46,46,50,53,54],"timestamp_mouse":[8,41,47,68,89,107,128,148,168,189,207,228,247,267,288,309,328,348,367,387,408,427,449,468,488,507,529,547,567,589,607,627,649,668,688,707,727,748,767,787,808,827,847,867,887,907,927,947,968,988,1008,1027,1048,1068,1087,1107,1127,1148,1167,1187,1208,1228,1247,1268],"xSR":741.5,"ySR":573.95,"xT1":424.9,"yT1":0,"xT2":1058.1,"yT2":0,"toosoon":0,"cond_shown":"equaldotanddens","ratio_trial":750,"smaller_num":"6","larger_num":"8","correct_side":1,"subjID":"DavidSantiagoBernalPuerto33","gender":"0","age":"11","school":"6"},{"start_time":1551893340803,"click_time":1551893341551,"finger_time":1551893341392,"fix_duration":810.2751860246316,"trial":51,"RT":589,"MT":159,"sideResp":1,"stimulus":"img/750/equaldotanddens/L/8_Ratio_750_L_4_R_3.png","xmouse":[772,772,772,772,772,772,772,772,772,772,772,772,772,772,772,772,772,772,772,772,772,772,772,772,772,772,772,772,772,751,730,700,672,617,585,555,525,498],"ymouse":[618,618,618,618,618,618,618,618,618,618,618,618,618,618,618,618,618,618,618,618,618,618,618,618,618,618,618,618,609,535,485,417,350,228,184,151,124,98],"timestamp_mouse":[9,34,48,69,88,109,128,150,169,188,208,228,250,268,288,309,328,349,370,390,409,429,448,470,490,509,529,549,568,589,608,629,649,669,688,708,729,748],"xSR":741.5,"ySR":573.95,"xT1":424.9,"yT1":0,"xT2":1058.1,"yT2":0,"toosoon":0,"cond_shown":"equaldotanddens","ratio_trial":750,"smaller_num":"3","larger_num":"4","correct_side":1,"subjID":"DavidSantiagoBernalPuerto33","gender":"0","age":"11","school":"6"},{"start_time":1551893342971,"click_time":1551893343852,"finger_time":1551893343532,"fix_duration":618.5855133933186,"trial":52,"RT":561,"MT":320,"sideResp":1,"stimulus":"img/500/equaldotsize/L/13_Ratio_500_L_12_R_6.png","xmouse":[786,786,786,786,786,786,786,786,786,786,786,786,786,786,786,786,786,786,786,786,786,786,786,786,786,786,783,778,764,743,680,668,651,630,599,565,560,556,549,534,521,516,506,490,479],"ymouse":[605,605,605,605,605,605,605,605,605,605,605,605,605,605,605,605,605,605,605,605,605,605,605,605,605,605,596,585,561,534,450,423,385,341,297,248,242,236,224,198,162,146,127,108,97],"timestamp_mouse":[8,31,42,61,81,102,121,142,162,181,201,221,241,260,281,300,320,341,362,381,401,420,442,460,481,502,520,540,561,581,601,620,640,662,681,701,720,741,761,781,801,820,840,860,881],"xSR":741.5,"ySR":573.95,"xT1":424.9,"yT1":0,"xT2":1058.1,"yT2":0,"toosoon":0,"cond_shown":"equaldotsize","ratio_trial":500,"smaller_num":"6","larger_num":"12","correct_side":1,"subjID":"DavidSantiagoBernalPuerto33","gender":"0","age":"11","school":"6"},{"start_time":1551893345504,"click_time":1551893346451,"finger_time":1551893346073,"fix_duration":811.8444820868025,"trial":53,"RT":569,"MT":378,"sideResp":2,"stimulus":"img/500/equaldotanddens/R/12_Ratio_500_L_1_R_2.png","xmouse":[810,810,810,810,810,810,810,810,810,810,810,810,810,810,810,810,810,810,810,810,810,810,810,810,810,813,817,831,853,921,949,985,1003,1022,1029,1038,1046,1052,1061,1062,1061,1057,1057,1057,1058,1060,1063,1069],"ymouse":[655,655,655,655,655,655,655,655,655,655,655,655,655,655,655,655,655,655,655,655,655,655,655,655,655,647,636,612,573,481,433,365,322,278,259,238,219,204,177,160,146,138,135,129,123,119,112,99],"timestamp_mouse":[9,34,47,69,89,108,129,147,168,189,207,229,249,268,289,309,328,347,368,388,408,429,449,468,488,507,527,547,569,587,608,629,649,667,688,708,727,749,768,787,807,828,848,867,888,908,929,947],"xSR":741.5,"ySR":573.95,"xT1":424.9,"yT1":0,"xT2":1058.1,"yT2":0,"toosoon":0,"cond_shown":"equaldotanddens","ratio_trial":500,"smaller_num":"1","larger_num":"2","correct_side":2,"subjID":"DavidSantiagoBernalPuerto33","gender":"0","age":"11","school":"6"},{"start_time":1551893348801,"click_time":1551893349512,"finger_time":1551893349371,"fix_duration":1388.5908833774258,"trial":54,"RT":570,"MT":141,"sideResp":1,"stimulus":"img/750/equaldotanddens/L/13_Ratio_750_L_8_R_6.png","xmouse":[795,795,795,795,795,795,795,795,795,795,795,795,795,795,795,795,795,795,795,795,795,795,795,795,795,795,795,793,785,744,711,677,644,572,541,517],"ymouse":[615,615,615,615,615,615,615,615,615,615,615,615,615,615,615,615,615,615,615,615,615,615,615,615,615,615,609,597,567,458,383,305,229,107,62,29],"timestamp_mouse":[12,34,50,72,90,112,130,151,171,191,212,230,250,271,291,310,330,351,371,391,410,432,450,471,491,510,530,551,570,591,611,631,652,671,690,711],"xSR":741.5,"ySR":573.95,"xT1":424.9,"yT1":0,"xT2":1058.1,"yT2":0,"toosoon":0,"cond_shown":"equaldotanddens","ratio_trial":750,"smaller_num":"6","larger_num":"8","correct_side":1,"subjID":"DavidSantiagoBernalPuerto33","gender":"0","age":"11","school":"6"},{"start_time":1551893350911,"click_time":1551893351852,"finger_time":1551893351372,"fix_duration":617.4486384779578,"trial":55,"RT":461,"MT":480,"sideResp":2,"stimulus":"img/750/equaldotanddens/R/11_Ratio_750_L_12_R_16.png","xmouse":[809,809,809,809,809,809,809,809,809,809,809,809,809,809,809,809,809,809,809,809,812,818,824,884,914,932,952,968,1011,1037,1059,1074,1086,1090,1094,1097,1097,1096,1090,1085,1082,1080,1077,1077,1077,1077,1077,1077],"ymouse":[649,649,649,649,649,649,649,649,649,649,649,649,649,649,649,649,649,649,649,649,648,641,635,569,545,531,517,502,449,413,382,361,333,318,288,269,247,226,205,176,161,145,124,114,110,106,102,96],"timestamp_mouse":[8,20,41,62,81,100,120,140,160,181,200,220,241,260,281,301,321,341,361,380,401,420,442,461,481,501,521,541,562,581,600,620,642,660,681,701,720,740,760,781,801,820,842,861,880,901,920,941],"xSR":741.5,"ySR":573.95,"xT1":424.9,"yT1":0,"xT2":1058.1,"yT2":0,"toosoon":0,"cond_shown":"equaldotanddens","ratio_trial":750,"smaller_num":"12","larger_num":"16","correct_side":2,"subjID":"DavidSantiagoBernalPuerto33","gender":"0","age":"11","school":"6"},{"start_time":1551893353104,"click_time":1551893354391,"finger_time":1551893353771,"fix_duration":250,"trial":56,"RT":667,"MT":620,"sideResp":2,"stimulus":"img/900/equaldotsize/R/11_Ratio_900_L_18_R_20.png","xmouse":[795,795,795,795,795,797,798,799,799,799,799,799,799,799,799,799,799,799,799,801,802,803,804,804,804,804,804,804,804,804,804,806,815,868,900,935,971,1003,1029,1055,1060,1063,1065,1069,1072,1072,1072,1072,1076,1078,1082,1084,1086,1086,1086,1086,1086,1086,1092,1094,1095,1095,1095,1095,1100],"ymouse":[655,655,655,655,655,654,651,650,649,649,649,649,649,649,649,649,649,647,646,643,641,639,638,638,638,638,638,638,638,638,638,634,625,566,526,483,434,378,328,265,245,232,216,208,188,176,167,160,151,145,136,131,129,129,129,129,129,128,117,111,109,109,109,109,97],"timestamp_mouse":[8,27,48,69,88,109,127,148,167,187,207,228,247,269,287,309,327,348,368,387,409,427,447,469,488,508,529,547,567,588,607,627,647,667,687,708,728,747,768,788,808,828,848,867,888,908,928,949,969,987,1008,1027,1048,1068,1088,1108,1129,1148,1168,1187,1207,1228,1248,1267,1287],"xSR":741.5,"ySR":573.95,"xT1":424.9,"yT1":0,"xT2":1058.1,"yT2":0,"toosoon":0,"cond_shown":"equaldotsize","ratio_trial":900,"smaller_num":"18","larger_num":"20","correct_side":2,"subjID":"DavidSantiagoBernalPuerto33","gender":"0","age":"11","school":"6"},{"start_time":1551893355664,"click_time":1551893357192,"finger_time":1551893356253,"fix_duration":350.4260200677755,"trial":57,"RT":589,"MT":939,"sideResp":1,"stimulus":"img/500/equaldotanddens/L/7_Ratio_500_L_10_R_5.png","xmouse":[750,750,750,751,751,759,762,763,764,764,764,764,764,764,764,764,764,764,764,764,764,764,764,764,764,764,765,766,766,766,738,725,722,725,726,720,717,716,715,711,706,691,683,671,662,653,644,640,635,628,615,609,605,600,596,585,578,569,558,549,544,543,543,538,536,530,530,527,525,522,520,516,512,510,510,509,505],"ymouse":[603,603,603,604,606,617,621,623,623,623,623,623,623,623,623,623,623,623,623,623,623,623,623,623,623,623,621,607,587,563,492,460,441,425,417,404,400,396,391,385,375,354,343,325,313,301,284,276,265,251,222,212,206,198,190,172,166,159,152,149,146,146,146,143,141,136,136,132,131,128,122,115,110,108,108,106,97],"timestamp_mouse":[8,41,48,67,88,108,128,147,168,188,207,228,247,268,288,308,327,348,368,388,407,428,447,468,488,507,528,547,569,589,608,628,648,668,687,708,728,747,768,787,807,828,849,868,887,908,929,947,969,987,1008,1027,1048,1069,1088,1108,1128,1147,1168,1188,1207,1227,1247,1268,1288,1308,1327,1347,1367,1388,1408,1427,1447,1468,1488,1508,1528],"xSR":741.5,"ySR":573.95,"xT1":424.9,"yT1":0,"xT2":1058.1,"yT2":0,"toosoon":0,"cond_shown":"equaldotanddens","ratio_trial":500,"smaller_num":"5","larger_num":"10","correct_side":1,"subjID":"DavidSantiagoBernalPuerto33","gender":"0","age":"11","school":"6"},{"start_time":1551893359704,"click_time":1551893360972,"finger_time":1551893360352,"fix_duration":250,"trial":58,"RT":648,"MT":620,"sideResp":2,"stimulus":"img/750/equaldotsize/R/11_Ratio_750_L_12_R_16.png","xmouse":[805,805,805,805,805,805,805,805,805,805,805,805,805,805,805,805,805,805,805,805,805,805,805,805,805,805,805,805,805,816,823,838,860,906,949,965,979,999,1032,1039,1045,1061,1078,1098,1127,1132,1133,1135,1139,1141,1141,1143,1147,1147,1147,1147,1147,1147,1148,1150,1150,1150,1150,1151],"ymouse":[624,624,624,624,624,624,624,624,624,624,624,624,624,624,624,624,624,624,624,624,624,624,624,624,624,624,624,624,624,610,601,583,557,502,446,425,405,381,343,335,330,319,307,290,250,240,237,231,223,219,218,208,182,177,162,159,154,149,135,122,111,105,104,99],"timestamp_mouse":[8,35,48,68,88,109,127,149,168,187,209,229,247,269,287,307,328,347,368,388,408,428,447,468,487,508,529,549,567,588,607,627,648,668,688,707,727,747,768,788,807,829,848,867,888,907,929,949,968,988,1008,1028,1048,1067,1087,1108,1128,1148,1168,1187,1207,1227,1249,1268],"xSR":741.5,"ySR":573.95,"xT1":424.9,"yT1":0,"xT2":1058.1,"yT2":0,"toosoon":0,"cond_shown":"equaldotsize","ratio_trial":750,"smaller_num":"12","larger_num":"16","correct_side":2,"subjID":"DavidSantiagoBernalPuerto33","gender":"0","age":"11","school":"6"},{"start_time":1551893362023,"click_time":1551893363192,"finger_time":1551893362611,"fix_duration":250,"trial":59,"RT":588,"MT":581,"sideResp":1,"stimulus":"img/900/randomdotsizeEA/R/9_Ratio_900_L_18_R_20.png","xmouse":[760,760,760,760,760,760,759,759,758,758,758,758,758,758,758,758,758,758,758,758,758,758,758,758,758,758,758,763,766,771,778,789,794,794,794,793,793,789,785,780,778,776,771,756,751,740,696,647,549,511,490,483,482,482,482,480,473,463,463],"ymouse":[612,612,612,612,612,612,612,614,615,615,615,615,615,615,615,615,615,615,615,615,615,615,615,615,615,615,615,599,584,562,535,499,435,415,400,392,385,357,345,334,331,327,322,314,305,285,241,208,159,137,125,121,120,120,120,119,112,100,96],"timestamp_mouse":[18,36,49,69,90,108,130,149,168,188,208,228,250,268,290,309,329,349,370,388,409,429,449,470,488,509,529,549,568,588,609,629,649,668,688,710,729,749,768,788,809,830,849,869,888,909,929,949,968,989,1009,1028,1049,1069,1088,1109,1129,1149,1169],"xSR":741.5,"ySR":573.95,"xT1":424.9,"yT1":0,"xT2":1058.1,"yT2":0,"toosoon":0,"cond_shown":"randomdotsizeEA","ratio_trial":900,"smaller_num":"18","larger_num":"20","correct_side":2,"subjID":"DavidSantiagoBernalPuerto33","gender":"0","age":"11","school":"6"},{"start_time":1551893364944,"click_time":1551893365691,"finger_time":1551893365392,"fix_duration":730.6656332954017,"trial":60,"RT":448,"MT":299,"sideResp":1,"stimulus":"img/500/equaldotsize/L/8_Ratio_500_L_8_R_4.png","xmouse":[788,788,788,788,788,788,788,788,788,788,788,788,788,788,788,788,788,788,788,788,788,787,765,756,743,724,699,680,658,634,617,564,546,535,532,532,528,518],"ymouse":[616,616,616,616,616,616,616,616,616,616,616,616,616,616,616,616,616,616,616,616,616,603,536,508,477,434,368,324,282,245,215,136,112,99,94,93,84,73],"timestamp_mouse":[9,40,48,68,88,109,128,147,169,188,209,229,248,267,288,307,329,349,369,389,408,427,448,468,488,508,528,547,569,587,608,628,647,667,688,707,727,747],"xSR":741.5,"ySR":573.95,"xT1":424.9,"yT1":0,"xT2":1058.1,"yT2":0,"toosoon":0,"cond_shown":"equaldotsize","ratio_trial":500,"smaller_num":"4","larger_num":"8","correct_side":1,"subjID":"DavidSantiagoBernalPuerto33","gender":"0","age":"11","school":"6"},{"start_time":1551893367033,"click_time":1551893367872,"finger_time":1551893367472,"fix_duration":418.7570539873914,"trial":61,"RT":439,"MT":400,"sideResp":1,"stimulus":"img/250/equaldotsize/L/3_Ratio_250_L_8_R_2.png","xmouse":[788,788,788,788,788,788,788,788,788,788,788,788,788,788,788,788,788,788,788,789,789,771,759,743,727,708,660,645,631,615,598,566,551,534,508,480,455,455,455,455,460,468],"ymouse":[625,625,625,625,625,625,625,625,625,625,625,625,625,625,625,625,625,625,625,615,600,532,507,487,468,446,389,369,348,327,302,258,236,214,185,157,132,132,132,130,118,91],"timestamp_mouse":[20,38,58,78,99,119,138,159,179,200,220,239,258,279,298,318,339,359,380,399,420,439,458,478,498,519,538,558,579,599,618,639,660,679,698,719,739,758,780,798,820,839],"xSR":741.5,"ySR":573.95,"xT1":424.9,"yT1":0,"xT2":1058.1,"yT2":0,"toosoon":0,"cond_shown":"equaldotsize","ratio_trial":250,"smaller_num":"2","larger_num":"8","correct_side":1,"subjID":"DavidSantiagoBernalPuerto33","gender":"0","age":"11","school":"6"},{"start_time":1551893369592,"click_time":1551893370572,"finger_time":1551893370033,"fix_duration":959.6326220845663,"trial":62,"RT":441,"MT":539,"sideResp":1,"stimulus":"img/250/equaldotanddens/L/3_Ratio_250_L_8_R_2.png","xmouse":[791,791,791,791,791,791,791,791,791,791,791,791,791,791,791,791,791,791,791,791,790,784,770,749,679,637,601,574,548,444,412,392,378,376,382,394,404,408,410,412,412,412,413,414,417,418,419,420,423,425],"ymouse":[626,626,626,626,626,626,626,626,626,626,626,626,626,626,626,626,626,626,626,626,625,596,554,510,402,344,295,249,218,147,127,113,101,98,85,74,67,63,60,58,58,58,58,58,58,57,57,57,56,56],"timestamp_mouse":[0,21,39,60,79,99,120,140,161,180,199,220,241,261,279,301,320,339,360,379,399,421,441,459,479,499,520,541,561,580,600,619,640,661,680,701,719,739,760,780,799,819,840,860,880,901,919,939,960,980],"xSR":741.5,"ySR":573.95,"xT1":424.9,"yT1":0,"xT2":1058.1,"yT2":0,"toosoon":0,"cond_shown":"equaldotanddens","ratio_trial":250,"smaller_num":"2","larger_num":"8","correct_side":1,"subjID":"DavidSantiagoBernalPuerto33","gender":"0","age":"11","school":"6"},{"start_time":1551893372595,"click_time":1551893373372,"finger_time":1551893372992,"fix_duration":1161.5410092430097,"trial":63,"RT":397,"MT":380,"sideResp":1,"stimulus":"img/500/equaldotsize/L/10_Ratio_500_L_4_R_2.png","xmouse":[751,751,751,751,751,751,751,751,751,751,751,751,751,751,751,751,751,751,743,730,712,694,675,651,641,629,617,606,589,585,577,563,550,538,536,532,524,513,510],"ymouse":[637,637,637,637,637,637,637,637,637,637,637,637,637,637,637,637,637,637,610,581,541,495,452,406,389,369,348,327,282,262,240,215,197,179,166,144,122,100,86],"timestamp_mouse":[20,40,57,77,97,116,138,158,178,197,216,238,258,276,297,317,336,357,377,397,416,436,458,476,497,516,537,558,577,597,617,636,657,677,696,716,736,757,776],"xSR":741.5,"ySR":573.95,"xT1":424.9,"yT1":0,"xT2":1058.1,"yT2":0,"toosoon":0,"cond_shown":"equaldotsize","ratio_trial":500,"smaller_num":"2","larger_num":"4","correct_side":1,"subjID":"DavidSantiagoBernalPuerto33","gender":"0","age":"11","school":"6"},{"start_time":1551893376235,"click_time":1551893377131,"finger_time":1551893376872,"fix_duration":443.7261571510236,"trial":64,"RT":637,"MT":259,"sideResp":1,"stimulus":"img/500/equaldotsize/L/13_Ratio_500_L_12_R_6.png","xmouse":[809,809,809,809,809,809,809,809,809,809,809,809,809,809,809,809,809,809,809,809,809,809,809,809,809,809,809,809,809,808,808,784,757,727,707,679,601,590,576,572,568,559,519,505,496],"ymouse":[630,630,630,630,630,630,630,630,630,630,630,630,630,630,630,630,630,630,630,630,630,630,630,630,630,630,630,630,630,623,607,457,355,257,179,114,15,5,0,0,0,0,0,0,2],"timestamp_mouse":[16,36,57,76,98,116,137,157,176,198,218,237,256,278,298,318,336,356,378,396,418,437,457,477,497,517,536,557,577,596,617,637,656,676,697,717,737,756,776,797,817,837,857,877,896],"xSR":741.5,"ySR":573.95,"xT1":424.9,"yT1":0,"xT2":1058.1,"yT2":0,"toosoon":0,"cond_shown":"equaldotsize","ratio_trial":500,"smaller_num":"6","larger_num":"12","correct_side":1,"subjID":"DavidSantiagoBernalPuerto33","gender":"0","age":"11","school":"6"},{"start_time":1551893380271,"click_time":1551893381053,"finger_time":1551893380753,"fix_duration":817.5242900074103,"trial":65,"RT":482,"MT":300,"sideResp":2,"stimulus":"img/250/randomdotsizeEA/R/9_Ratio_250_L_3_R_12.png","xmouse":[796,796,796,796,796,796,797,798,798,798,798,798,798,798,798,798,798,798,798,798,798,799,804,817,840,858,886,894,902,910,924,931,934,938,945,972,990,1011,1042,1075],"ymouse":[615,615,615,615,615,614,611,610,609,609,609,609,609,609,609,609,609,609,609,609,609,606,599,580,546,521,470,445,413,390,359,339,324,300,282,236,209,175,129,77],"timestamp_mouse":[8,34,41,60,81,100,120,142,160,180,202,220,241,261,280,301,320,340,361,382,401,421,440,462,482,500,520,540,561,580,601,621,640,661,682,701,721,742,761,782],"xSR":741.5,"ySR":573.95,"xT1":424.9,"yT1":0,"xT2":1058.1,"yT2":0,"toosoon":0,"cond_shown":"randomdotsizeEA","ratio_trial":250,"smaller_num":"3","larger_num":"12","correct_side":2,"subjID":"DavidSantiagoBernalPuerto33","gender":"0","age":"11","school":"6"},{"start_time":1551893383071,"click_time":1551893384252,"finger_time":1551893383632,"fix_duration":1276.2411171965502,"trial":66,"RT":561,"MT":620,"sideResp":2,"stimulus":"img/250/randomdotsizeEA/R/13_Ratio_250_L_2_R_8.png","xmouse":[796,796,796,796,796,796,796,796,796,796,796,796,796,796,796,796,796,796,796,796,796,796,796,796,795,798,802,810,824,841,858,895,906,913,922,930,934,939,948,962,977,999,1007,1017,1033,1045,1075,1081,1084,1086,1086,1086,1086,1088,1094,1097,1099,1100,1103,1106],"ymouse":[608,608,608,608,608,608,608,608,608,608,608,608,608,608,608,608,608,608,608,608,608,608,608,608,606,598,589,576,554,533,507,443,418,395,364,343,335,316,291,266,245,207,192,179,162,155,143,138,134,132,131,131,131,129,124,119,115,110,102,96],"timestamp_mouse":[10,22,41,61,81,100,120,142,160,181,201,221,241,262,282,301,321,341,361,380,400,421,441,461,482,501,522,542,561,582,601,620,641,661,681,701,720,741,761,780,801,821,841,861,880,900,921,941,961,981,1000,1020,1040,1061,1080,1101,1120,1142,1162,1181],"xSR":741.5,"ySR":573.95,"xT1":424.9,"yT1":0,"xT2":1058.1,"yT2":0,"toosoon":0,"cond_shown":"randomdotsizeEA","ratio_trial":250,"smaller_num":"2","larger_num":"8","correct_side":2,"subjID":"DavidSantiagoBernalPuerto33","gender":"0","age":"11","school":"6"},{"start_time":1551893385929,"click_time":1551893386833,"finger_time":1551893386472,"fix_duration":875.7449588052891,"trial":67,"RT":543,"MT":361,"sideResp":2,"stimulus":"img/250/equaldotanddens/R/12_Ratio_250_L_5_R_20.png","xmouse":[757,757,757,757,757,757,757,757,757,757,757,757,757,757,757,757,757,757,757,757,757,757,757,759,773,795,826,898,931,960,994,1029,1042,1060,1061,1061,1061,1061,1063,1064,1066,1067,1073,1076,1078,1081],"ymouse":[628,628,628,628,628,628,628,628,628,628,628,628,628,628,628,628,628,628,628,628,628,628,628,629,624,610,585,510,449,389,311,221,200,172,165,160,156,151,144,141,137,131,115,109,103,96],"timestamp_mouse":[8,22,42,62,84,103,123,142,163,182,204,224,242,263,283,302,323,343,363,384,402,422,443,463,483,503,522,543,562,583,602,624,643,663,683,702,724,742,762,782,804,823,843,862,883,904],"xSR":741.5,"ySR":573.95,"xT1":424.9,"yT1":0,"xT2":1058.1,"yT2":0,"toosoon":0,"cond_shown":"equaldotanddens","ratio_trial":250,"smaller_num":"5","larger_num":"20","correct_side":2,"subjID":"DavidSantiagoBernalPuerto33","gender":"0","age":"11","school":"6"},{"start_time":1551893388155,"click_time":1551893389471,"finger_time":1551893388872,"fix_duration":499.5031535082628,"trial":68,"RT":717,"MT":599,"sideResp":2,"stimulus":"img/750/equaldotanddens/R/2_Ratio_750_L_6_R_8.png","xmouse":[818,818,818,818,818,818,818,818,818,818,818,818,818,818,818,818,818,818,818,818,818,818,818,818,818,818,818,818,818,818,818,818,818,824,828,853,863,879,904,919,935,959,967,973,977,987,992,997,1003,1011,1016,1019,1021,1025,1030,1033,1036,1039,1044,1046,1046,1047,1048,1051,1056,1062],"ymouse":[611,611,611,611,611,611,611,611,611,611,611,611,611,611,611,611,611,611,611,611,611,611,611,611,611,611,611,611,611,611,611,611,611,600,592,547,522,486,414,374,336,275,244,212,183,139,124,108,93,76,65,62,62,61,60,60,60,60,60,60,60,60,60,60,60,60],"timestamp_mouse":[22,36,57,76,98,117,136,158,177,198,217,238,257,276,297,317,336,358,378,397,417,438,456,477,497,516,536,557,578,598,617,638,656,677,697,717,736,757,778,798,816,836,856,877,898,917,936,956,977,997,1017,1037,1056,1078,1098,1117,1138,1157,1178,1197,1218,1236,1256,1277,1296,1316],"xSR":741.5,"ySR":573.95,"xT1":424.9,"yT1":0,"xT2":1058.1,"yT2":0,"toosoon":0,"cond_shown":"equaldotanddens","ratio_trial":750,"smaller_num":"6","larger_num":"8","correct_side":2,"subjID":"DavidSantiagoBernalPuerto33","gender":"0","age":"11","school":"6"},{"start_time":1551893390526,"click_time":1551893391472,"finger_time":1551893391013,"fix_duration":372.7390765027512,"trial":69,"RT":487,"MT":459,"sideResp":1,"stimulus":"img/900/equaldotsize/R/5_Ratio_900_L_9_R_10.png","xmouse":[777,777,777,777,777,777,777,777,777,777,777,777,777,777,777,777,777,777,777,777,777,777,770,760,747,720,691,612,571,547,536,521,504,495,487,485,483,483,483,481,478,477,476,476,476,476,476,475],"ymouse":[639,639,639,639,639,639,639,639,639,639,639,639,639,639,639,639,639,639,639,639,639,639,615,586,550,502,463,367,316,281,259,230,201,184,171,164,159,156,145,139,129,124,121,121,120,113,107,98],"timestamp_mouse":[9,32,45,66,85,106,127,146,166,186,205,226,247,266,287,305,325,345,367,385,405,425,446,467,487,506,527,546,565,586,606,626,645,666,686,706,726,745,766,787,806,827,846,866,887,906,926,946],"xSR":741.5,"ySR":573.95,"xT1":424.9,"yT1":0,"xT2":1058.1,"yT2":0,"toosoon":0,"cond_shown":"equaldotsize","ratio_trial":900,"smaller_num":"9","larger_num":"10","correct_side":2,"subjID":"DavidSantiagoBernalPuerto33","gender":"0","age":"11","school":"6"},{"start_time":1551893392863,"click_time":1551893393832,"finger_time":1551893393512,"fix_duration":589.0733698642009,"trial":70,"RT":649,"MT":320,"sideResp":1,"stimulus":"img/500/randomdotsizeEA/L/13_Ratio_500_L_12_R_6.png","xmouse":[790,790,790,790,790,790,790,790,790,790,790,790,790,790,790,790,790,790,790,790,790,790,790,790,790,790,790,790,790,790,790,785,776,766,746,706,677,653,636,616,565,548,540,535,529,514,514,514,514],"ymouse":[599,599,599,599,599,599,599,599,599,599,599,599,599,5