[{"start_time":1551880585784,"click_time":1551880586984,"finger_time":1551880586564,"fix_duration":496.4983788654214,"trial":0,"RT":780,"MT":420,"sideResp":1,"stimulus":[],"xmouse":[802,802,802,802,802,802,802,802,802,802,802,802,802,802,802,802,802,802,802,802,802,802,802,802,802,802,802,802,802,802,802,802,802,802,802,802,802,802,802,791,773,738,658,585,568,560,559,560,560,562,563,563,563,563,563,563,563,563,557,536,507],"ymouse":[613,613,613,613,613,613,613,613,613,613,612,611,609,608,608,608,608,608,608,608,608,608,608,608,608,608,608,608,608,608,608,608,608,608,608,608,608,608,590,526,451,375,236,118,87,64,49,33,30,27,25,22,19,19,19,19,19,19,17,12,5],"timestamp_mouse":[6,19,43,60,80,99,119,139,159,179,199,219,239,259,280,300,320,339,359,379,399,420,441,460,480,501,520,540,559,579,600,620,640,659,681,699,719,739,759,780,800,819,839,860,880,899,919,941,959,979,999,1021,1039,1059,1079,1099,1120,1141,1159,1179,1199],"xSR":741.5,"ySR":526.5,"xT1":424.9,"yT1":0,"xT2":1058.1,"yT2":0,"toosoon":0,"cond_shown":"Congruent","ratio_trial":100,"L_num":11,"L_den":22,"R_num":4,"R_den":10,"correct_side":1,"subjID":"davidsantiagoforerocuervo18","gender":"0","age":"11","school":"6","test":{"fix_dur":[250,1500],"timestim":1000,"targets_dim":[100,100],"targets_relative_coord":[0.3,0.7],"size_stim":[880,420],"start_dim":[100,100],"size_start":[300,300],"size_fix":60,"samplingrate":20,"img_types":["Congruent","Incongruent"],"ratios":[100,200,300],"rep_conds":19,"nTrials":120,"trials_to_rest":500,"Trials_order":[36,92,2,51,47,52,76,105,53,114,34,111,106,65,12,69,100,16,64,84,11,31,93,6,17,44,15,38,56,58,57,24,75,66,8,83,68,107,29,55,46,32,20,91,7,60,0,73,30,25,118,98,43,45,50,37,81,119,4,3,28,112,110,94,86,103,82,72,13,71,49,9,41,1,90,104,99,23,39,62,79,88,40,97,116,19,5,22,78,14,26,87,27,33,115,80,74,67,109,18,113,77,89,108,21,54,117,35,95,70,102,63,10,101,48,42,59,96,85,61],"cond_shown":["Congruent","Congruent","Congruent","Incongruent","Incongruent","Congruent","Congruent","Incongruent","Incongruent","Congruent","Congruent","Incongruent","Congruent","Incongruent","Congruent","Incongruent","Congruent","Congruent","Congruent","Congruent","Incongruent","Incongruent","Incongruent","Congruent","Incongruent","Congruent","Incongruent","Congruent","Congruent","Congruent","Incongruent","Congruent","Incongruent","Congruent","Congruent","Incongruent","Congruent","Incongruent","Incongruent","Incongruent","Congruent","Congruent","Congruent","Incongruent","Incongruent","Congruent","Congruent","Incongruent","Congruent","Incongruent","Congruent","Congruent","Incongruent","Incongruent","Congruent","Incongruent","Incongruent","Incongruent","Congruent","Incongruent","Congruent","Congruent","Congruent","Congruent","Congruent","Incongruent","Congruent","Congruent","Incongruent","Incongruent","Incongruent","Incongruent","Incongruent","Incongruent","Congruent","Congruent","Incongruent","Incongruent","Incongruent","Congruent","Incongruent","Congruent","Congruent","Incongruent","Congruent","Incongruent","Incongruent","Congruent","Congruent","Congruent","Congruent","Incongruent","Incongruent","Incongruent","Incongruent","Congruent","Congruent","Incongruent","Incongruent","Congruent","Incongruent","Incongruent","Incongruent","Congruent","Incongruent","Congruent","Incongruent","Incongruent","Incongruent","Congruent","Congruent","Incongruent","Congruent","Incongruent","Congruent","Congruent","Incongruent","Congruent","Incongruent","Incongruent"],"ratio_trial":[100,200,200,200,300,300,300,200,300,100,300,200,300,300,100,200,300,300,300,100,300,100,200,100,300,200,200,200,200,300,200,100,200,100,200,300,200,300,300,100,300,200,200,100,100,100,100,100,100,100,300,200,100,200,200,100,200,300,300,200,300,300,200,300,200,100,300,100,100,300,100,200,300,100,100,200,200,300,200,200,100,300,300,100,200,100,300,300,100,200,200,200,200,200,100,200,200,100,100,100,300,300,300,100,200,100,200,300,300,300,100,200,300,300,100,100,300,100,100,100],"left_num":[11,5,16,9,4,20,11,1,1,2,5,7,8,4,4,6,1,20,7,2,13,9,1,6,8,6,3,8,15,3,14,1,14,11,9,13,8,13,4,3,20,6,12,13,6,3,2,13,2,8,1,3,8,3,20,9,3,4,24,3,20,18,3,7,5,9,3,6,8,13,13,7,3,9,9,3,1,7,11,16,2,20,11,6,11,12,4,3,9,3,20,7,4,7,3,6,8,4,6,10,8,4,4,3,3,7,7,3,4,4,10,4,3,4,3,7,4,4,2,9],"right_num":[4,14,12,8,2,13,4,2,2,11,7,8,1,6,6,3,11,8,20,6,12,13,3,15,14,3,11,2,4,11,12,3,12,6,4,12,3,12,8,7,14,11,6,12,7,2,11,6,6,1,3,14,1,11,9,13,1,2,2,1,9,9,9,20,14,20,2,5,1,12,6,8,4,13,8,14,2,8,3,12,8,9,2,13,3,9,2,2,8,7,9,8,1,14,4,7,2,8,7,3,9,2,2,4,11,15,12,4,6,1,3,6,11,2,4,9,2,6,6,6],"left_den":[22,10,20,15,20,25,22,3,2,5,25,10,16,5,8,20,5,25,14,5,26,15,2,12,10,15,4,15,25,12,30,2,30,22,20,26,15,26,5,9,25,20,15,26,10,6,5,26,5,20,5,10,20,4,25,15,10,20,30,10,25,20,12,14,10,10,6,20,20,26,26,10,6,15,15,10,3,10,20,20,4,25,22,10,22,24,20,6,15,10,25,10,30,10,6,12,15,8,10,25,10,20,20,20,4,14,10,6,5,10,25,5,12,20,20,14,20,8,4,18],"right_den":[10,20,20,10,4,26,20,15,10,22,14,16,5,12,10,6,22,16,25,12,15,26,10,25,28,15,20,6,10,20,18,5,18,15,16,15,9,15,16,30,28,22,10,20,14,5,22,10,12,2,6,28,2,20,15,26,2,4,4,2,18,15,20,25,20,25,10,25,2,15,10,16,20,26,16,28,15,20,4,20,20,18,10,26,10,15,4,10,16,14,15,16,3,28,10,10,6,20,14,10,18,4,4,16,20,25,24,20,12,10,10,10,20,4,16,15,4,10,15,10],"correct_side":[1,2,1,2,2,1,1,1,1,2,2,1,1,1,2,2,2,1,2,2,2,1,1,2,1,1,1,1,1,2,2,2,2,1,1,2,1,2,1,1,1,2,1,2,1,1,2,2,2,2,2,2,2,1,1,1,2,2,1,2,1,1,2,2,2,1,1,1,2,2,2,1,1,1,1,2,1,1,2,1,1,1,1,1,1,2,2,1,1,2,1,1,2,1,1,2,1,1,1,1,1,2,2,2,1,2,1,1,1,1,1,1,2,2,2,2,2,2,1,2],"img_shown":["img2/100/Congruent/L/C_Dist_100_LN_11_LD_22_RN_4_RD_10_0.png","img2/200/Congruent/R/C_Dist_200_LN_5_LD_10_RN_14_RD_20_1.png","img2/200/Congruent/L/C_Dist_200_LN_16_LD_20_RN_12_RD_20_0.png","img2/200/Incongruent/R/I_Dist_200_LN_9_LD_15_RN_8_RD_10_1.png","img2/300/Incongruent/R/I_Dist_300_LN_4_LD_20_RN_2_RD_4_1.png","img2/300/Congruent/L/C_Dist_300_LN_20_LD_25_RN_13_RD_26_0.png","img2/300/Congruent/L/C_Dist_300_LN_11_LD_22_RN_4_RD_20_0.png","img2/200/Incongruent/L/I_Dist_200_LN_1_LD_3_RN_2_RD_15_0.png","img2/300/Incongruent/L/I_Dist_300_LN_1_LD_2_RN_2_RD_10_0.png","img2/100/Congruent/R/C_Dist_100_LN_2_LD_5_RN_11_RD_22_1.png","img2/300/Congruent/R/C_Dist_300_LN_5_LD_25_RN_7_RD_14_1.png","img2/200/Incongruent/L/I_Dist_200_LN_7_LD_10_RN_8_RD_16_0.png","img2/300/Congruent/L/C_Dist_300_LN_8_LD_16_RN_1_RD_5_0.png","img2/300/Incongruent/L/I_Dist_300_LN_4_LD_5_RN_6_RD_12_0.png","img2/100/Congruent/R/C_Dist_100_LN_4_LD_8_RN_6_RD_10_1.png","img2/200/Incongruent/R/I_Dist_200_LN_6_LD_20_RN_3_RD_6_1.png","img2/300/Congruent/R/C_Dist_300_LN_1_LD_5_RN_11_RD_22_1.png","img2/300/Congruent/L/C_Dist_300_LN_20_LD_25_RN_8_RD_16_0.png","img2/300/Congruent/R/C_Dist_300_LN_7_LD_14_RN_20_RD_25_1.png","img2/100/Congruent/R/C_Dist_100_LN_2_LD_5_RN_6_RD_12_1.png","img2/300/Incongruent/R/I_Dist_300_LN_13_LD_26_RN_12_RD_15_1.png","img2/100/Incongruent/L/I_Dist_100_LN_9_LD_15_RN_13_RD_26_0.png","img2/200/Incongruent/L/I_Dist_200_LN_1_LD_2_RN_3_RD_10_0.png","img2/100/Congruent/R/C_Dist_100_LN_6_LD_12_RN_15_RD_25_1.png","img2/300/Incongruent/L/I_Dist_300_LN_8_LD_10_RN_14_RD_28_0.png","img2/200/Congruent/L/C_Dist_200_LN_6_LD_15_RN_3_RD_15_0.png","img2/200/Incongruent/L/I_Dist_200_LN_3_LD_4_RN_11_RD_20_0.png","img2/200/Congruent/L/C_Dist_200_LN_8_LD_15_RN_2_RD_6_0.png","img2/200/Congruent/L/C_Dist_200_LN_15_LD_25_RN_4_RD_10_0.png","img2/300/Congruent/R/C_Dist_300_LN_3_LD_12_RN_11_RD_20_1.png","img2/200/Incongruent/R/I_Dist_200_LN_14_LD_30_RN_12_RD_18_1.png","img2/100/Congruent/R/C_Dist_100_LN_1_LD_2_RN_3_RD_5_1.png","img2/200/Incongruent/R/I_Dist_200_LN_14_LD_30_RN_12_RD_18_1.png","img2/100/Congruent/L/C_Dist_100_LN_11_LD_22_RN_6_RD_15_0.png","img2/200/Congruent/L/C_Dist_200_LN_9_LD_20_RN_4_RD_16_0.png","img2/300/Incongruent/R/I_Dist_300_LN_13_LD_26_RN_12_RD_15_1.png","img2/200/Congruent/L/C_Dist_200_LN_8_LD_15_RN_3_RD_9_0.png","img2/300/Incongruent/R/I_Dist_300_LN_13_LD_26_RN_12_RD_15_1.png","img2/300/Incongruent/L/I_Dist_300_LN_4_LD_5_RN_8_RD_16_0.png","img2/100/Incongruent/L/I_Dist_100_LN_3_LD_9_RN_7_RD_30_0.png","img2/300/Congruent/L/C_Dist_300_LN_20_LD_25_RN_14_RD_28_0.png","img2/200/Congruent/R/C_Dist_200_LN_6_LD_20_RN_11_RD_22_1.png","img2/200/Congruent/L/C_Dist_200_LN_12_LD_15_RN_6_RD_10_0.png","img2/100/Incongruent/R/I_Dist_100_LN_13_LD_26_RN_12_RD_20_1.png","img2/100/Incongruent/L/I_Dist_100_LN_6_LD_10_RN_7_RD_14_0.png","img2/100/Congruent/L/C_Dist_100_LN_3_LD_6_RN_2_RD_5_0.png","img2/100/Congruent/R/C_Dist_100_LN_2_LD_5_RN_11_RD_22_1.png","img2/100/Incongruent/R/I_Dist_100_LN_13_LD_26_RN_6_RD_10_1.png","img2/100/Congruent/R/C_Dist_100_LN_2_LD_5_RN_6_RD_12_1.png","img2/100/Incongruent/R/I_Dist_100_LN_8_LD_20_RN_1_RD_2_1.png","img2/300/Congruent/R/C_Dist_300_LN_1_LD_5_RN_3_RD_6_1.png","img2/200/Congruent/R/C_Dist_200_LN_3_LD_10_RN_14_RD_28_1.png","img2/100/Incongruent/R/I_Dist_100_LN_8_LD_20_RN_1_RD_2_1.png","img2/200/Incongruent/L/I_Dist_200_LN_3_LD_4_RN_11_RD_20_0.png","img2/200/Congruent/L/C_Dist_200_LN_20_LD_25_RN_9_RD_15_0.png","img2/100/Incongruent/L/I_Dist_100_LN_9_LD_15_RN_13_RD_26_0.png","img2/200/Incongruent/R/I_Dist_200_LN_3_LD_10_RN_1_RD_2_1.png","img2/300/Incongruent/R/I_Dist_300_LN_4_LD_20_RN_2_RD_4_1.png","img2/300/Congruent/L/C_Dist_300_LN_24_LD_30_RN_2_RD_4_0.png","img2/200/Incongruent/R/I_Dist_200_LN_3_LD_10_RN_1_RD_2_1.png","img2/300/Congruent/L/C_Dist_300_LN_20_LD_25_RN_9_RD_18_0.png","img2/300/Congruent/L/C_Dist_300_LN_18_LD_20_RN_9_RD_15_0.png","img2/200/Congruent/R/C_Dist_200_LN_3_LD_12_RN_9_RD_20_1.png","img2/300/Congruent/R/C_Dist_300_LN_7_LD_14_RN_20_RD_25_1.png","img2/200/Congruent/R/C_Dist_200_LN_5_LD_10_RN_14_RD_20_1.png","img2/100/Incongruent/L/I_Dist_100_LN_9_LD_10_RN_20_RD_25_0.png","img2/300/Congruent/L/C_Dist_300_LN_3_LD_6_RN_2_RD_10_0.png","img2/100/Congruent/L/C_Dist_100_LN_6_LD_20_RN_5_RD_25_0.png","img2/100/Incongruent/R/I_Dist_100_LN_8_LD_20_RN_1_RD_2_1.png","img2/300/Incongruent/R/I_Dist_300_LN_13_LD_26_RN_12_RD_15_1.png","img2/100/Incongruent/R/I_Dist_100_LN_13_LD_26_RN_6_RD_10_1.png","img2/200/Incongruent/L/I_Dist_200_LN_7_LD_10_RN_8_RD_16_0.png","img2/300/Incongruent/L/I_Dist_300_LN_3_LD_6_RN_4_RD_20_0.png","img2/100/Incongruent/L/I_Dist_100_LN_9_LD_15_RN_13_RD_26_0.png","img2/100/Congruent/L/C_Dist_100_LN_9_LD_15_RN_8_RD_16_0.png","img2/200/Congruent/R/C_Dist_200_LN_3_LD_10_RN_14_RD_28_1.png","img2/200/Incongruent/L/I_Dist_200_LN_1_LD_3_RN_2_RD_15_0.png","img2/300/Incongruent/L/I_Dist_300_LN_7_LD_10_RN_8_RD_20_0.png","img2/200/Incongruent/R/I_Dist_200_LN_11_LD_20_RN_3_RD_4_1.png","img2/200/Congruent/L/C_Dist_200_LN_16_LD_20_RN_12_RD_20_0.png","img2/100/Incongruent/L/I_Dist_100_LN_2_LD_4_RN_8_RD_20_0.png","img2/300/Congruent/L/C_Dist_300_LN_20_LD_25_RN_9_RD_18_0.png","img2/300/Congruent/L/C_Dist_300_LN_11_LD_22_RN_2_RD_10_0.png","img2/100/Incongruent/L/I_Dist_100_LN_6_LD_10_RN_13_RD_26_0.png","img2/200/Congruent/L/C_Dist_200_LN_11_LD_22_RN_3_RD_10_0.png","img2/100/Incongruent/R/I_Dist_100_LN_12_LD_24_RN_9_RD_15_1.png","img2/300/Incongruent/R/I_Dist_300_LN_4_LD_20_RN_2_RD_4_1.png","img2/300/Congruent/L/C_Dist_300_LN_3_LD_6_RN_2_RD_10_0.png","img2/100/Congruent/L/C_Dist_100_LN_9_LD_15_RN_8_RD_16_0.png","img2/200/Congruent/R/C_Dist_200_LN_3_LD_10_RN_7_RD_14_1.png","img2/200/Congruent/L/C_Dist_200_LN_20_LD_25_RN_9_RD_15_0.png","img2/200/Incongruent/L/I_Dist_200_LN_7_LD_10_RN_8_RD_16_0.png","img2/200/Incongruent/R/I_Dist_200_LN_4_LD_30_RN_1_RD_3_1.png","img2/200/Incongruent/L/I_Dist_200_LN_7_LD_10_RN_14_RD_28_0.png","img2/100/Incongruent/L/I_Dist_100_LN_3_LD_6_RN_4_RD_10_0.png","img2/200/Congruent/R/C_Dist_200_LN_6_LD_12_RN_7_RD_10_1.png","img2/200/Congruent/L/C_Dist_200_LN_8_LD_15_RN_2_RD_6_0.png","img2/100/Incongruent/L/I_Dist_100_LN_4_LD_8_RN_8_RD_20_0.png","img2/100/Incongruent/L/I_Dist_100_LN_6_LD_10_RN_7_RD_14_0.png","img2/100/Congruent/L/C_Dist_100_LN_10_LD_25_RN_3_RD_10_0.png","img2/300/Incongruent/L/I_Dist_300_LN_8_LD_10_RN_9_RD_18_0.png","img2/300/Incongruent/R/I_Dist_300_LN_4_LD_20_RN_2_RD_4_1.png","img2/300/Incongruent/R/I_Dist_300_LN_4_LD_20_RN_2_RD_4_1.png","img2/100/Congruent/R/C_Dist_100_LN_3_LD_20_RN_4_RD_16_1.png","img2/200/Incongruent/L/I_Dist_200_LN_3_LD_4_RN_11_RD_20_0.png","img2/100/Congruent/R/C_Dist_100_LN_7_LD_14_RN_15_RD_25_1.png","img2/200/Incongruent/L/I_Dist_200_LN_7_LD_10_RN_12_RD_24_0.png","img2/300/Incongruent/L/I_Dist_300_LN_3_LD_6_RN_4_RD_20_0.png","img2/300/Incongruent/L/I_Dist_300_LN_4_LD_5_RN_6_RD_12_0.png","img2/300/Congruent/L/C_Dist_300_LN_4_LD_10_RN_1_RD_10_0.png","img2/100/Congruent/L/C_Dist_100_LN_10_LD_25_RN_3_RD_10_0.png","img2/200/Incongruent/L/I_Dist_200_LN_4_LD_5_RN_6_RD_10_0.png","img2/300/Congruent/R/C_Dist_300_LN_3_LD_12_RN_11_RD_20_1.png","img2/300/Incongruent/R/I_Dist_300_LN_4_LD_20_RN_2_RD_4_1.png","img2/100/Congruent/R/C_Dist_100_LN_3_LD_20_RN_4_RD_16_1.png","img2/100/Congruent/R/C_Dist_100_LN_7_LD_14_RN_9_RD_15_1.png","img2/300/Incongruent/R/I_Dist_300_LN_4_LD_20_RN_2_RD_4_1.png","img2/100/Congruent/R/C_Dist_100_LN_4_LD_8_RN_6_RD_10_1.png","img2/100/Incongruent/L/I_Dist_100_LN_2_LD_4_RN_6_RD_15_0.png","img2/100/Incongruent/R/I_Dist_100_LN_9_LD_18_RN_6_RD_10_1.png"],"dist100_C":[["C_Dist_100_LN_10_LD_25_RN_3_RD_10_0.png","C_Dist_100_LN_11_LD_22_RN_4_RD_10_0.png","C_Dist_100_LN_11_LD_22_RN_6_RD_15_0.png","C_Dist_100_LN_15_LD_25_RN_13_RD_26_0.png","C_Dist_100_LN_3_LD_6_RN_2_RD_5_0.png","C_Dist_100_LN_6_LD_20_RN_5_RD_25_0.png","C_Dist_100_LN_8_LD_16_RN_2_RD_5_0.png","C_Dist_100_LN_9_LD_15_RN_8_RD_16_0.png"],["C_Dist_100_LN_1_LD_2_RN_18_RD_30_1.png","C_Dist_100_LN_1_LD_2_RN_3_RD_5_1.png","C_Dist_100_LN_12_LD_30_RN_13_RD_26_1.png","C_Dist_100_LN_2_LD_5_RN_11_RD_22_1.png","C_Dist_100_LN_2_LD_5_RN_6_RD_12_1.png","C_Dist_100_LN_3_LD_20_RN_4_RD_16_1.png","C_Dist_100_LN_4_LD_10_RN_15_RD_30_1.png","C_Dist_100_LN_4_LD_8_RN_6_RD_10_1.png","C_Dist_100_LN_6_LD_12_RN_15_RD_25_1.png","C_Dist_100_LN_7_LD_14_RN_15_RD_25_1.png","C_Dist_100_LN_7_LD_14_RN_9_RD_15_1.png"]],"dist100_I":[["I_Dist_100_LN_1_LD_2_RN_8_RD_20_0.png","I_Dist_100_LN_2_LD_4_RN_6_RD_15_0.png","I_Dist_100_LN_2_LD_4_RN_8_RD_20_0.png","I_Dist_100_LN_3_LD_5_RN_11_RD_22_0.png","I_Dist_100_LN_3_LD_5_RN_8_RD_16_0.png","I_Dist_100_LN_3_LD_6_RN_4_RD_10_0.png","I_Dist_100_LN_3_LD_9_RN_7_RD_30_0.png","I_Dist_100_LN_4_LD_8_RN_8_RD_20_0.png","I_Dist_100_LN_6_LD_10_RN_11_RD_22_0.png","I_Dist_100_LN_6_LD_10_RN_13_RD_26_0.png","I_Dist_100_LN_6_LD_10_RN_7_RD_14_0.png","I_Dist_100_LN_9_LD_10_RN_20_RD_25_0.png","I_Dist_100_LN_9_LD_15_RN_13_RD_26_0.png","I_Dist_100_LN_9_LD_15_RN_14_RD_28_0.png"],["I_Dist_100_LN_10_LD_25_RN_8_RD_16_1.png","I_Dist_100_LN_10_LD_25_RN_9_RD_18_1.png","I_Dist_100_LN_11_LD_22_RN_9_RD_15_1.png","I_Dist_100_LN_12_LD_24_RN_9_RD_15_1.png","I_Dist_100_LN_12_LD_30_RN_2_RD_4_1.png","I_Dist_100_LN_13_LD_26_RN_12_RD_20_1.png","I_Dist_100_LN_13_LD_26_RN_6_RD_10_1.png","I_Dist_100_LN_17_LD_30_RN_10_RD_15_1.png","I_Dist_100_LN_6_LD_12_RN_3_RD_5_1.png","I_Dist_100_LN_8_LD_16_RN_6_RD_10_1.png","I_Dist_100_LN_8_LD_20_RN_1_RD_2_1.png","I_Dist_100_LN_9_LD_18_RN_6_RD_10_1.png"]],"dist100_S":[["E_Dist_100_LN_2_LD_12_RN_2_RD_30_0.png","E_Dist_100_LN_6_LD_10_RN_6_RD_12_0.png"],["E_Dist_100_LN_6_LD_12_RN_6_RD_10_1.png"]],"dist200_C":[["C_Dist_200_LN_11_LD_22_RN_3_RD_10_0.png","C_Dist_200_LN_12_LD_15_RN_6_RD_10_0.png","C_Dist_200_LN_12_LD_20_RN_6_RD_15_0.png","C_Dist_200_LN_14_LD_28_RN_6_RD_20_0.png","C_Dist_200_LN_15_LD_25_RN_4_RD_10_0.png","C_Dist_200_LN_16_LD_20_RN_12_RD_20_0.png","C_Dist_200_LN_16_LD_30_RN_9_RD_27_0.png","C_Dist_200_LN_20_LD_25_RN_9_RD_15_0.png","C_Dist_200_LN_21_LD_30_RN_2_RD_4_0.png","C_Dist_200_LN_4_LD_10_RN_3_RD_15_0.png","C_Dist_200_LN_4_LD_8_RN_3_RD_10_0.png","C_Dist_200_LN_6_LD_15_RN_3_RD_15_0.png","C_Dist_200_LN_7_LD_21_RN_2_RD_15_0.png","C_Dist_200_LN_8_LD_15_RN_2_RD_6_0.png","C_Dist_200_LN_8_LD_15_RN_3_RD_9_0.png","C_Dist_200_LN_8_LD_15_RN_7_RD_21_0.png","C_Dist_200_LN_9_LD_20_RN_4_RD_16_0.png"],["C_Dist_200_LN_1_LD_2_RN_21_RD_30_1.png","C_Dist_200_LN_13_LD_26_RN_14_RD_20_1.png","C_Dist_200_LN_3_LD_10_RN_11_RD_22_1.png","C_Dist_200_LN_3_LD_10_RN_14_RD_28_1.png","C_Dist_200_LN_3_LD_10_RN_7_RD_14_1.png","C_Dist_200_LN_3_LD_12_RN_9_RD_20_1.png","C_Dist_200_LN_3_LD_6_RN_14_RD_20_1.png","C_Dist_200_LN_5_LD_10_RN_14_RD_20_1.png","C_Dist_200_LN_6_LD_12_RN_7_RD_10_1.png","C_Dist_200_LN_6_LD_20_RN_11_RD_22_1.png","C_Dist_200_LN_7_LD_15_RN_18_RD_27_1.png","C_Dist_200_LN_9_LD_30_RN_13_RD_26_1.png"]],"dist200_I":[["I_Dist_200_LN_1_LD_2_RN_3_RD_10_0.png","I_Dist_200_LN_1_LD_3_RN_2_RD_15_0.png","I_Dist_200_LN_3_LD_4_RN_11_RD_20_0.png","I_Dist_200_LN_4_LD_5_RN_6_RD_10_0.png","I_Dist_200_LN_4_LD_6_RN_14_RD_30_0.png","I_Dist_200_LN_7_LD_10_RN_12_RD_24_0.png","I_Dist_200_LN_7_LD_10_RN_14_RD_28_0.png","I_Dist_200_LN_7_LD_10_RN_8_RD_16_0.png"],["I_Dist_200_LN_11_LD_20_RN_3_RD_4_1.png","I_Dist_200_LN_14_LD_30_RN_12_RD_18_1.png","I_Dist_200_LN_14_LD_30_RN_6_RD_9_1.png","I_Dist_200_LN_3_LD_10_RN_1_RD_2_1.png","I_Dist_200_LN_4_LD_30_RN_1_RD_3_1.png","I_Dist_200_LN_6_LD_20_RN_3_RD_6_1.png","I_Dist_200_LN_7_LD_15_RN_4_RD_6_1.png","I_Dist_200_LN_7_LD_15_RN_6_RD_9_1.png","I_Dist_200_LN_9_LD_15_RN_8_RD_10_1.png"]],"dist200_S":[["E_Dist_200_LN_3_LD_6_RN_3_RD_10_0.png"],["E_Dist_200_LN_3_LD_10_RN_3_RD_6_1.png"]],"dist300_C":[["C_Dist_300_LN_11_LD_22_RN_1_RD_5_0.png","C_Dist_300_LN_11_LD_22_RN_2_RD_10_0.png","C_Dist_300_LN_11_LD_22_RN_4_RD_20_0.png","C_Dist_300_LN_12_LD_24_RN_2_RD_10_0.png","C_Dist_300_LN_18_LD_20_RN_9_RD_15_0.png","C_Dist_300_LN_20_LD_25_RN_13_RD_26_0.png","C_Dist_300_LN_20_LD_25_RN_14_RD_28_0.png","C_Dist_300_LN_20_LD_25_RN_5_RD_10_0.png","C_Dist_300_LN_20_LD_25_RN_8_RD_16_0.png","C_Dist_300_LN_20_LD_25_RN_9_RD_18_0.png","C_Dist_300_LN_24_LD_30_RN_2_RD_4_0.png","C_Dist_300_LN_24_LD_30_RN_8_RD_16_0.png","C_Dist_300_LN_3_LD_6_RN_2_RD_10_0.png","C_Dist_300_LN_4_LD_10_RN_1_RD_10_0.png","C_Dist_300_LN_4_LD_5_RN_2_RD_4_0.png","C_Dist_300_LN_8_LD_16_RN_1_RD_5_0.png","C_Dist_300_LN_9_LD_10_RN_3_RD_5_0.png"],["C_Dist_300_LN_1_LD_20_RN_7_RD_20_1.png","C_Dist_300_LN_1_LD_3_RN_19_RD_30_1.png","C_Dist_300_LN_1_LD_30_RN_8_RD_24_1.png","C_Dist_300_LN_1_LD_5_RN_11_RD_22_1.png","C_Dist_300_LN_1_LD_5_RN_3_RD_6_1.png","C_Dist_300_LN_1_LD_5_RN_6_RD_12_1.png","C_Dist_300_LN_2_LD_10_RN_12_RD_24_1.png","C_Dist_300_LN_2_LD_20_RN_10_RD_25_1.png","C_Dist_300_LN_3_LD_12_RN_11_RD_20_1.png","C_Dist_300_LN_3_LD_6_RN_4_RD_5_1.png","C_Dist_300_LN_4_LD_20_RN_13_RD_26_1.png","C_Dist_300_LN_5_LD_25_RN_6_RD_12_1.png","C_Dist_300_LN_5_LD_25_RN_7_RD_14_1.png","C_Dist_300_LN_7_LD_14_RN_20_RD_25_1.png","C_Dist_300_LN_8_LD_15_RN_10_RD_12_1.png"]],"dist300_I":[["I_Dist_300_LN_1_LD_2_RN_2_RD_10_0.png","I_Dist_300_LN_1_LD_2_RN_3_RD_15_0.png","I_Dist_300_LN_2_LD_4_RN_6_RD_30_0.png","I_Dist_300_LN_3_LD_6_RN_4_RD_20_0.png","I_Dist_300_LN_4_LD_5_RN_6_RD_12_0.png","I_Dist_300_LN_4_LD_5_RN_8_RD_16_0.png","I_Dist_300_LN_7_LD_10_RN_8_RD_20_0.png","I_Dist_300_LN_8_LD_10_RN_14_RD_28_0.png","I_Dist_300_LN_8_LD_10_RN_9_RD_18_0.png"],["I_Dist_300_LN_13_LD_26_RN_12_RD_15_1.png","I_Dist_300_LN_4_LD_20_RN_2_RD_4_1.png"]],"dist300_S":[["E_Dist_300_LN_9_LD_12_RN_9_RD_20_0.png"],["E_Dist_300_LN_18_LD_30_RN_18_RD_20_1.png","E_Dist_300_LN_3_LD_10_RN_3_RD_5_1.png","E_Dist_300_LN_9_LD_20_RN_9_RD_12_1.png"]],"dist500_C":[["C_Dist_500_LN_10_LD_13_RN_7_RD_26_0.png","C_Dist_500_LN_10_LD_15_RN_4_RD_24_0.png","C_Dist_500_LN_12_LD_16_RN_3_RD_12_0.png","C_Dist_500_LN_12_LD_18_RN_4_RD_24_0.png","C_Dist_500_LN_15_LD_18_RN_5_RD_15_0.png","C_Dist_500_LN_15_LD_20_RN_1_RD_4_0.png","C_Dist_500_LN_18_LD_27_RN_1_RD_6_0.png","C_Dist_500_LN_20_LD_24_RN_1_RD_3_0.png","C_Dist_500_LN_20_LD_24_RN_3_RD_9_0.png","C_Dist_500_LN_20_LD_24_RN_7_RD_21_0.png","C_Dist_500_LN_20_LD_28_RN_3_RD_14_0.png","C_Dist_500_LN_21_LD_28_RN_6_RD_24_0.png","C_Dist_500_LN_22_LD_28_RN_2_RD_7_0.png","C_Dist_500_LN_25_LD_30_RN_9_RD_27_0.png","C_Dist_500_LN_4_LD_6_RN_1_RD_6_0.png","C_Dist_500_LN_5_LD_6_RN_2_RD_6_0.png","C_Dist_500_LN_6_LD_9_RN_1_RD_6_0.png","C_Dist_500_LN_7_LD_10_RN_1_RD_5_0.png","C_Dist_500_LN_8_LD_12_RN_1_RD_6_0.png","C_Dist_500_LN_8_LD_12_RN_4_RD_24_0.png"],["C_Dist_500_LN_1_LD_4_RN_12_RD_16_1.png","C_Dist_500_LN_1_LD_4_RN_9_RD_12_1.png","C_Dist_500_LN_1_LD_9_RN_11_RD_18_1.png","C_Dist_500_LN_10_LD_24_RN_22_RD_24_1.png","C_Dist_500_LN_2_LD_12_RN_10_RD_15_1.png","C_Dist_500_LN_2_LD_12_RN_12_RD_18_1.png","C_Dist_500_LN_2_LD_12_RN_4_RD_6_1.png","C_Dist_500_LN_2_LD_24_RN_7_RD_12_1.png","C_Dist_500_LN_2_LD_5_RN_18_RD_20_1.png","C_Dist_500_LN_2_LD_5_RN_9_RD_10_1.png","C_Dist_500_LN_2_LD_8_RN_12_RD_16_1.png","C_Dist_500_LN_2_LD_8_RN_21_RD_28_1.png","C_Dist_500_LN_3_LD_10_RN_4_RD_5_1.png","C_Dist_500_LN_3_LD_12_RN_15_RD_20_1.png","C_Dist_500_LN_3_LD_30_RN_6_RD_10_1.png","C_Dist_500_LN_3_LD_8_RN_14_RD_16_1.png","C_Dist_500_LN_4_LD_16_RN_15_RD_20_1.png","C_Dist_500_LN_4_LD_24_RN_12_RD_18_1.png","C_Dist_500_LN_5_LD_14_RN_6_RD_7_1.png","C_Dist_500_LN_7_LD_21_RN_20_RD_24_1.png","C_Dist_500_LN_7_LD_28_RN_12_RD_16_1.png","C_Dist_500_LN_7_LD_28_RN_9_RD_12_1.png","C_Dist_500_LN_9_LD_27_RN_20_RD_24_1.png"]],"dist500_I":[["I_Dist_500_LN_2_LD_3_RN_4_RD_24_0.png","I_Dist_500_LN_5_LD_6_RN_6_RD_18_0.png","I_Dist_500_LN_7_LD_8_RN_9_RD_24_0.png"],["I_Dist_500_LN_7_LD_21_RN_5_RD_6_1.png"]],"dist500_S":[["E_Dist_500_LN_6_LD_8_RN_6_RD_24_0.png"],["E_Dist_500_LN_2_LD_12_RN_2_RD_3_1.png","E_Dist_500_LN_6_LD_24_RN_6_RD_8_1.png"]]}},{"start_time":1551880589264,"click_time":1551880591064,"finger_time":1551880590383,"fix_duration":519.5750408542145,"trial":1,"RT":1119,"MT":681,"sideResp":2,"stimulus":[],"xmouse":[790,790,790,790,790,790,790,790,790,790,790,790,790,790,790,790,790,790,790,790,790,790,790,790,790,790,790,790,790,790,790,790,790,790,790,790,790,790,790,790,790,790,790,790,790,790,790,790,790,790,790,790,790,790,790,790,849,981,1139,1454,1569,1569,1569,1569,1569,1569,1569,1569,1569,1569,1529,1473,1442,1426,1392,1372,1349,1314,1295,1258,1244,1238,1231,1223,1208,1202,1193,1167,1143,1117,1111],"ymouse":[606,606,606,606,606,606,606,606,606,606,606,606,606,606,606,606,606,606,606,606,606,606,606,606,606,606,606,606,606,606,606,606,606,606,606,606,606,606,606,606,606,606,606,606,606,606,606,606,606,606,606,606,606,606,606,606,585,530,470,332,248,248,248,248,248,248,248,248,248,0,0,0,0,0,0,2,10,29,38,46,46,45,40,31,17,11,3,0,0,0,1],"timestamp_mouse":[1,25,39,59,80,100,120,139,160,179,199,219,240,260,279,299,319,340,360,380,400,419,439,461,480,499,521,541,559,579,599,619,640,660,680,701,719,741,760,780,799,819,839,859,879,901,919,939,959,979,999,1019,1040,1060,1079,1099,1119,1139,1159,1179,1199,1220,1239,1260,1279,1300,1320,1339,1359,1380,1399,1420,1440,1459,1480,1500,1520,1539,1559,1579,1599,1620,1639,1660,1679,1701,1721,1739,1759,1779,1799],"xSR":741.5,"ySR":573.95,"xT1":424.9,"yT1":0,"xT2":1058.1,"yT2":0,"toosoon":0,"cond_shown":"Congruent","ratio_trial":200,"L_num":5,"L_den":10,"R_num":14,"R_den":20,"correct_side":2,"subjID":"davidsantiagoforerocuervo18","gender":"0","school":"6","age":"11"},{"start_time":1551880595713,"click_time":1551880597023,"finger_time":1551880596463,"fix_duration":848.1667745064514,"trial":2,"RT":750,"MT":560,"sideResp":1,"stimulus":[],"xmouse":[794,794,794,794,794,794,794,794,794,794,794,794,794,794,794,794,794,794,794,794,794,794,794,794,794,794,794,794,794,794,794,794,794,794,793,785,750,720,682,643,598,524,487,436,385,335,295,282,274,270,265,256,255,255,255,255,274,300,337,375,409,448,462,463,463,463],"ymouse":[647,646,646,646,646,646,646,646,646,646,646,646,646,643,643,643,643,643,643,643,643,643,641,640,640,640,640,640,640,640,640,640,640,640,638,630,605,583,551,510,456,352,276,188,102,14,0,0,0,0,0,0,0,0,0,0,18,43,74,101,118,121,114,111,102,98],"timestamp_mouse":[10,30,51,71,91,111,131,151,171,192,211,231,251,272,290,311,330,351,371,391,410,430,451,470,491,511,531,551,571,591,610,630,651,671,690,710,730,750,772,791,810,830,850,871,891,910,930,950,971,990,1010,1032,1050,1070,1090,1110,1130,1150,1171,1190,1210,1230,1250,1270,1290,1310],"xSR":741.5,"ySR":573.95,"xT1":424.9,"yT1":0,"xT2":1058.1,"yT2":0,"toosoon":0,"cond_shown":"Congruent","ratio_trial":200,"L_num":16,"L_den":20,"R_num":12,"R_den":20,"correct_side":1,"subjID":"davidsantiagoforerocuervo18","gender":"0","school":"6","age":"11"},{"start_time":1551880598697,"click_time":1551880599944,"finger_time":1551880599363,"fix_duration":752.8935199293103,"trial":3,"RT":666,"MT":581,"sideResp":1,"stimulus":[],"xmouse":[816,816,816,816,816,816,816,816,816,816,816,816,816,816,816,816,816,816,816,816,816,816,816,816,816,816,816,816,816,816,814,806,782,770,748,733,721,717,717,717,717,717,715,713,708,698,684,643,619,596,577,551,511,503,501,497,497,497,497,497,497,497,490],"ymouse":[608,608,608,608,608,608,608,608,608,608,608,608,608,608,608,608,608,608,608,608,608,608,608,608,608,608,608,608,608,609,607,598,574,559,531,515,501,495,495,495,495,493,487,483,476,461,446,407,382,355,325,289,238,226,220,211,206,201,197,185,164,136,76],"timestamp_mouse":[11,27,48,68,87,107,127,147,167,186,206,227,247,267,287,307,327,346,366,387,407,426,447,467,487,506,527,547,567,586,606,626,646,666,686,706,726,747,767,787,807,826,846,866,887,906,926,946,967,986,1007,1027,1046,1066,1087,1106,1126,1146,1166,1186,1206,1228,1247],"xSR":741.5,"ySR":573.95,"xT1":424.9,"yT1":0,"xT2":1058.1,"yT2":0,"toosoon":0,"cond_shown":"Incongruent","ratio_trial":200,"L_num":9,"L_den":15,"R_num":8,"R_den":10,"correct_side":2,"subjID":"davidsantiagoforerocuervo18","gender":"0","school":"6","age":"11"},{"start_time":1551880601456,"click_time":1551880602724,"finger_time":1551880602305,"fix_duration":250,"trial":4,"RT":849,"MT":419,"sideResp":1,"stimulus":[],"xmouse":[793,793,793,793,793,793,793,793,793,793,793,793,793,793,793,793,793,793,793,793,793,793,793,793,793,793,793,793,793,793,793,793,793,793,793,793,792,791,789,777,770,759,746,720,698,660,607,509,457,408,403,400,399,398,396,396,396,396,396,396,397,403,418,441],"ymouse":[604,604,604,604,604,604,604,604,604,604,604,604,604,604,604,604,604,604,604,604,604,604,604,604,604,604,604,604,604,604,604,604,604,604,604,604,603,602,600,589,583,574,562,518,477,422,346,227,165,97,81,68,59,55,47,42,32,22,20,18,18,18,21,31],"timestamp_mouse":[8,32,47,68,88,108,128,148,167,187,208,228,248,268,289,308,328,348,367,387,408,428,447,467,488,508,528,548,567,587,608,628,648,668,687,707,727,747,767,787,807,827,849,869,888,907,928,947,969,989,1008,1029,1047,1067,1088,1108,1127,1147,1169,1187,1207,1228,1247,1267],"xSR":741.5,"ySR":573.95,"xT1":424.9,"yT1":0,"xT2":1058.1,"yT2":0,"toosoon":0,"cond_shown":"Incongruent","ratio_trial":300,"L_num":4,"L_den":20,"R_num":2,"R_den":4,"correct_side":2,"subjID":"davidsantiagoforerocuervo18","gender":"0","school":"6","age":"11"},{"start_time":1551880604114,"click_time":1551880604903,"finger_time":1551880604783,"fix_duration":409.0724148732927,"trial":5,"RT":669,"MT":120,"sideResp":1,"stimulus":[],"xmouse":[763,763,763,763,763,763,763,763,763,763,763,763,764,764,764,765,766,766,767,767,767,767,767,767,767,767,767,767,767,767,767,760,746,721,710,677,614,577,527,481],"ymouse":[634,634,634,634,634,634,634,634,634,634,634,634,634,634,634,634,632,632,631,631,631,631,631,631,631,631,631,631,631,631,626,610,593,558,542,452,277,186,105,54],"timestamp_mouse":[12,30,50,69,89,110,130,150,169,189,210,230,250,271,289,309,329,349,370,390,410,429,450,470,490,510,529,549,570,590,609,630,649,669,690,709,729,750,770,789],"xSR":741.5,"ySR":573.95,"xT1":424.9,"yT1":0,"xT2":1058.1,"yT2":0,"toosoon":0,"cond_shown":"Congruent","ratio_trial":300,"L_num":20,"L_den":25,"R_num":13,"R_den":26,"correct_side":1,"subjID":"davidsantiagoforerocuervo18","gender":"0","school":"6","age":"11"},{"start_time":1551880606678,"click_time":1551880609164,"finger_time":1551880608123,"fix_duration":1013.6146417560718,"trial":6,"RT":1445,"MT":1041,"sideResp":2,"stimulus":[],"xmouse":[798,798,798,798,798,798,798,798,798,798,798,798,798,798,798,798,798,798,798,798,798,798,798,798,798,798,798,798,798,798,798,798,798,798,798,798,798,798,798,798,798,798,798,798,798,798,798,798,798,798,798,798,798,798,798,798,798,798,798,798,798,798,798,798,798,798,798,798,789,779,765,753,746,742,742,739,738,736,719,713,710,708,706,706,706,706,706,707,730,756,778,798,819,873,918,959,1009,1023,1026,1022,1014,1006,993,989,988,986,985,984,986,992,1000,1014,1027,1041,1045,1048,1051,1053,1054,1054,1054,1054,1054,1054,1059],"ymouse":[616,616,616,616,616,616,616,616,616,616,616,616,616,616,616,616,616,616,616,616,616,616,616,616,616,616,616,616,616,616,616,616,616,616,616,616,616,616,616,616,616,616,616,616,616,616,616,616,616,616,616,616,616,616,616,616,616,616,616,616,616,616,616,616,616,616,616,616,607,598,587,576,570,563,561,549,545,532,483,467,459,455,452,451,451,451,451,450,444,437,430,421,413,395,379,359,331,321,301,283,261,236,199,182,169,156,144,135,122,114,105,95,86,74,70,66,63,60,60,60,60,60,60,59,59],"timestamp_mouse":[8,25,46,66,85,106,125,146,167,185,207,225,245,266,285,305,327,346,366,386,406,426,446,466,486,506,526,546,565,586,607,626,646,666,685,705,725,745,767,787,806,826,846,866,886,905,925,945,965,985,1005,1026,1045,1065,1086,1106,1127,1146,1166,1187,1206,1225,1245,1265,1285,1307,1326,1345,1365,1385,1405,1425,1445,1465,1485,1505,1527,1546,1565,1586,1606,1626,1645,1665,1685,1706,1725,1745,1765,1785,1806,1825,1846,1865,1885,1905,1926,1945,1965,1985,2006,2025,2047,2065,2086,2105,2126,2145,2165,2185,2205,2225,2246,2265,2285,2306,2327,2345,2365,2386,2406,2426,2447,2465,2485],"xSR":741.5,"ySR":573.95,"xT1":424.9,"yT1":0,"xT2":1058.1,"yT2":0,"toosoon":0,"cond_shown":"Congruent","ratio_trial":300,"L_num":11,"L_den":22,"R_num":4,"R_den":20,"correct_side":1,"subjID":"davidsantiagoforerocuervo18","gender":"0","school":"6","age":"11"},{"start_time":1551880611525,"click_time":1551880612785,"finger_time":1551880612183,"fix_duration":1180.5051194950304,"trial":7,"RT":658,"MT":602,"sideResp":2,"stimulus":[],"xmouse":[774,774,774,774,774,774,774,774,774,774,774,774,774,774,774,774,774,774,774,774,777,781,790,809,825,828,828,828,828,828,830,840,854,858,864,865,865,866,869,871,872,872,873,873,873,873,873,873,873,873,873,874,883,889,908,940,965,999,1026,1043,1061,1068,1073],"ymouse":[591,591,591,591,591,591,591,591,591,591,591,591,591,591,591,591,591,591,591,591,591,594,601,618,639,642,642,642,642,642,643,625,589,578,559,557,557,557,557,557,557,557,557,557,557,557,557,557,557,557,557,554,533,522,476,367,301,232,180,151,118,107,98],"timestamp_mouse":[30,38,58,79,98,119,139,159,179,198,219,239,259,279,298,318,339,359,379,399,418,438,459,479,498,519,539,559,579,598,618,638,658,680,699,718,739,758,778,798,819,838,858,880,899,919,939,959,978,998,1019,1040,1058,1079,1098,1118,1138,1160,1178,1199,1218,1238,1260],"xSR":741.5,"ySR":573.95,"xT1":424.9,"yT1":0,"xT2":1058.1,"yT2":0,"toosoon":0,"cond_shown":"Incongruent","ratio_trial":200,"L_num":1,"L_den":3,"R_num":2,"R_den":15,"correct_side":1,"subjID":"davidsantiagoforerocuervo18","gender":"0","school":"6","age":"11"},{"start_time":1551880614665,"click_time":1551880619023,"finger_time":1551880618405,"fix_duration":679.0777601157663,"trial":8,"RT":3740,"MT":618,"sideResp":2,"stimulus":[],"xmouse":[801,801,801,801,801,801,801,801,801,801,801,801,801,801,801,801,801,801,801,801,801,801,801,801,801,801,801,801,801,801,801,801,801,801,801,801,801,801,801,801,801,801,801,801,801,801,801,801,801,801,801,801,801,801,801,801,801,801,801,801,801,801,801,801,801,801,801,801,801,801,801,801,801,801,801,801,801,801,801,801,801,801,801,801,801,801,801,801,801,801,801,801,801,801,801,801,801,801,801,801,801,801,801,801,801,801,801,801,801,801,801,801,801,801,801,801,801,801,801,801,801,801,801,801,801,801,801,801,801,801,801,801,801,801,801,801,801,801,801,801,801,801,801,801,801,801,801,801,801,801,801,801,801,801,801,801,801,801,801,801,801,801,801,801,801,801,801,801,801,801,801,801,801,801,801,801,801,801,801,801,801,801,801,801,810,824,840,922,964,1001,1024,1039,1053,1069,1072,1072,1072,1072,1077,1079,1080,1080,1080,1080,1080,1080,1080,1080,1080,1079,1078,1078,1078,1081,1088,1091,1091,1091],"ymouse":[629,629,629,629,629,629,629,629,629,629,629,629,629,629,629,629,629,629,629,629,629,629,629,629,629,629,629,629,629,629,629,629,629,629,629,629,629,629,629,629,629,629,629,629,629,629,629,629,629,629,629,629,629,629,629,629,629,629,629,629,629,629,629,629,629,629,629,629,629,629,629,629,629,629,629,629,629,629,629,629,629,629,629,629,629,629,630,630,630,630,630,630,630,630,630,630,630,630,630,630,630,630,630,630,630,630,630,630,630,630,630,630,630,630,630,630,630,630,630,630,630,630,630,630,630,630,630,630,630,630,630,630,630,630,630,630,630,630,630,630,630,630,630,630,630,630,630,630,630,630,630,630,630,630,630,630,630,630,630,630,630,630,630,630,630,630,630,630,630,630,630,630,630,630,630,630,630,630,630,630,630,630,630,622,605,585,568,505,472,441,420,401,385,366,362,362,362,362,339,324,312,301,289,262,251,239,228,202,193,180,168,158,152,140,126,108,101,82],"timestamp_mouse":[25,39,59,79,99,119,140,160,179,198,219,238,258,279,299,319,339,358,380,399,419,440,458,478,499,519,539,558,578,599,619,639,659,678,698,719,740,759,779,799,818,839,859,879,899,919,939,959,979,999,1019,1039,1059,1079,1099,1118,1139,1159,1178,1198,1219,1239,1260,1278,1298,1319,1339,1359,1378,1398,1419,1439,1459,1479,1499,1519,1539,1560,1579,1599,1618,1639,1659,1679,1699,1719,1739,1758,1778,1799,1819,1839,1859,1879,1899,1918,1939,1959,1978,1999,2019,2038,2058,2078,2099,2119,2139,2159,2179,2198,2219,2239,2259,2279,2299,2320,2338,2359,2380,2398,2419,2439,2459,2479,2499,2518,2540,2559,2579,2598,2618,2639,2659,2679,2699,2719,2738,2758,2779,2799,2819,2839,2859,2878,2899,2919,2939,2959,2979,2999,3018,3039,3058,3078,3099,3119,3139,3158,3178,3199,3219,3238,3258,3279,3299,3319,3339,3358,3379,3399,3419,3439,3459,3479,3498,3518,3539,3559,3579,3599,3618,3638,3659,3678,3698,3718,3740,3760,3778,3799,3819,3839,3858,3878,3898,3919,3939,3959,3978,3998,4019,4038,4059,4078,4098,4118,4138,4160,4178,4198,4219,4239,4259,4278,4299,4318,4339,4358],"xSR":741.5,"ySR":573.95,"xT1":424.9,"yT1":0,"xT2":1058.1,"yT2":0,"toosoon":0,"cond_shown":"Incongruent","ratio_trial":300,"L_num":1,"L_den":2,"R_num":2,"R_den":10,"correct_side":1,"subjID":"davidsantiagoforerocuervo18","gender":"0","school":"6","age":"11"},{"start_time":1551880622794,"click_time":1551880626424,"finger_time":1551880624363,"fix_duration":250,"trial":9,"RT":1569,"MT":2061,"sideResp":2,"stimulus":[],"xmouse":[808,808,808,808,808,808,808,808,808,808,808,808,808,808,808,808,808,808,808,808,808,808,808,808,808,808,808,808,808,808,808,808,808,808,808,808,808,808,808,808,808,808,808,808,808,808,808,808,808,808,808,808,808,808,808,808,808,808,808,808,808,808,808,808,808,808,808,808,808,808,808,808,808,808,808,817,821,835,843,857,864,869,879,889,908,927,945,986,1012,1042,1105,1197,1241,1273,1304,1325,1342,1365,1379,1395,1416,1427,1423,1409,1386,1369,1360,1343,1334,1324,1319,1317,1315,1312,1312,1309,1307,1299,1292,1288,1283,1278,1272,1267,1260,1253,1245,1227,1215,1195,1189,1186,1186,1186,1186,1186,1186,1186,1186,1186,1186,1186,1186,1186,1186,1186,1186,1186,1184,1184,1183,1182,1181,1181,1181,1181,1181,1181,1178,1173,1164,1161,1161,1161,1161,1161,1161,1161,1161,1161,1161,1161,1161,1161,1161,1161,1159,1156,1153,1151,1149,1148],"ymouse":[632,632,632,632,632,632,632,632,632,632,632,632,632,632,632,632,632,632,632,632,632,632,632,632,632,632,632,632,632,632,632,632,632,632,632,632,632,632,632,632,632,632,632,632,632,632,632,632,632,632,632,632,632,632,632,632,632,632,631,631,631,631,631,631,631,631,631,631,631,631,631,631,631,631,631,631,632,633,635,636,636,636,637,639,645,649,653,656,656,656,651,627,614,601,584,569,552,510,484,456,396,332,309,288,265,250,241,218,206,192,181,168,155,148,146,141,139,132,129,126,123,120,116,113,110,107,105,99,97,94,93,93,93,93,93,93,93,93,93,93,93,93,93,93,93,93,93,93,93,94,97,101,103,104,104,104,104,104,104,104,102,101,101,101,101,101,101,101,101,101,101,101,101,101,101,101,101,101,101,100,100,99],"timestamp_mouse":[10,29,50,70,89,110,130,150,170,190,210,229,250,270,290,310,330,350,370,389,410,430,450,470,490,510,530,550,569,590,610,630,650,670,691,709,729,750,770,790,809,829,850,870,890,910,930,949,969,990,1010,1029,1050,1071,1091,1109,1130,1149,1170,1190,1210,1230,1251,1269,1289,1310,1330,1351,1371,1389,1409,1430,1450,1470,1489,1509,1529,1549,1569,1589,1611,1631,1650,1669,1689,1709,1731,1749,1770,1790,1810,1831,1850,1869,1890,1910,1929,1950,1969,1989,2009,2031,2049,2069,2089,2109,2130,2149,2171,2189,2210,2229,2249,2270,2289,2310,2329,2349,2369,2389,2411,2429,2450,2469,2489,2510,2529,2549,2570,2590,2609,2630,2650,2670,2689,2711,2729,2749,2770,2790,2810,2831,2850,2869,2890,2910,2930,2950,2969,2990,3010,3031,3049,3070,3089,3109,3130,3150,3170,3189,3209,3229,3250,3270,3290,3310,3329,3350,3370,3390,3410,3431,3450,3470,3490,3510,3529,3549,3569,3589,3609,3629],"xSR":741.5,"ySR":573.95,"xT1":424.9,"yT1":0,"xT2":1058.1,"yT2":0,"toosoon":0,"cond_shown":"Congruent","ratio_trial":100,"L_num":2,"L_den":5,"R_num":11,"R_den":22,"correct_side":2,"subjID":"davidsantiagoforerocuervo18","gender":"0","school":"6","age":"11"},{"start_time":1551880629248,"click_time":1551880632045,"finger_time":1551880631624,"fix_duration":862.0178715963867,"trial":10,"RT":2376,"MT":421,"sideResp":2,"stimulus":[],"xmouse":[791,791,791,791,791,791,791,791,791,791,791,791,791,791,791,791,791,791,791,791,791,791,791,791,791,791,791,791,791,791,791,791,791,791,791,791,791,791,791,791,791,791,791,791,791,791,791,791,791,791,791,791,791,791,791,791,791,791,791,791,791,791,791,791,791,791,791,791,791,791,791,791,791,791,791,791,791,791,791,791,791,791,791,791,791,791,791,791,791,791,791,791,791,791,791,791,791,791,791,791,791,791,791,791,791,791,791,791,791,791,791,791,791,791,791,791,791,826,894,1148,1266,1344,1383,1401,1428,1437,1439,1429,1397,1383,1381,1380,1385,1386,1383,1382,1371,1337,1284,1138],"ymouse":[641,641,641,641,641,641,641,641,641,641,641,641,641,641,641,641,641,641,641,641,641,641,641,641,641,641,641,641,641,641,641,641,641,641,641,641,641,641,641,641,641,641,641,641,641,641,641,641,641,641,641,641,641,641,641,641,641,641,641,641,641,641,641,641,641,641,641,641,641,641,641,641,641,641,641,641,641,641,641,641,641,641,641,641,641,641,641,641,641,641,641,641,641,641,641,641,641,641,641,641,641,641,641,641,641,641,641,641,641,641,641,641,641,641,641,641,641,613,568,389,295,216,137,64,0,0,0,0,0,0,6,22,44,64,75,75,68,44,25,5],"timestamp_mouse":[25,36,56,76,95,115,137,155,177,197,215,237,256,276,295,315,335,356,376,396,416,436,456,476,496,515,535,556,575,595,616,636,655,676,695,715,736,756,776,796,816,835,855,876,896,916,936,955,977,996,1016,1036,1056,1075,1095,1116,1137,1155,1176,1196,1216,1236,1256,1275,1295,1316,1336,1356,1376,1396,1415,1435,1456,1476,1496,1516,1537,1556,1576,1596,1615,1636,1656,1676,1696,1716,1736,1755,1775,1796,1816,1836,1856,1876,1896,1916,1935,1955,1976,1995,2016,2036,2055,2076,2095,2115,2136,2155,2176,2196,2215,2235,2255,2276,2296,2316,2335,2355,2376,2397,2416,2436,2455,2475,2496,2515,2536,2556,2576,2597,2615,2637,2656,2676,2697,2717,2735,2755,2777,2797],"xSR":741.5,"ySR":573.95,"xT1":424.9,"yT1":0,"xT2":1058.1,"yT2":0,"toosoon":0,"cond_shown":"Congruent","ratio_trial":300,"L_num":5,"L_den":25,"R_num":7,"R_den":14,"correct_side":2,"subjID":"davidsantiagoforerocuervo18","gender":"0","school":"6","age":"11"},{"start_time":1551880635309,"click_time":1551880637264,"finger_time":1551880636863,"fix_duration":1465.131177714855,"trial":11,"RT":1554,"MT":401,"sideResp":2,"stimulus":[],"xmouse":[785,785,785,785,785,785,785,785,785,785,785,785,785,785,785,785,785,785,785,785,785,785,785,785,785,785,785,785,785,785,785,785,785,785,785,785,785,785,785,785,785,785,785,785,785,785,785,785,785,785,785,785,785,785,785,785,785,785,785,785,785,785,785,785,785,785,785,785,785,785,785,785,785,785,785,792,828,851,876,902,919,942,953,969,983,1017,1033,1049,1061,1070,1078,1093,1099,1105,1115,1118,1120,1120],"ymouse":[657,657,657,657,657,657,657,657,657,657,657,657,657,657,657,657,657,657,657,657,657,657,657,657,657,657,657,657,657,657,657,657,657,657,657,657,657,657,657,657,657,657,657,657,657,657,657,657,657,657,657,657,657,657,657,657,657,657,657,657,657,657,657,657,657,657,657,657,657,657,657,657,653,650,641,628,574,546,516,486,466,436,420,395,379,344,325,305,285,260,237,197,181,165,134,119,102,98],"timestamp_mouse":[15,35,55,76,95,115,135,155,175,196,215,234,254,274,295,315,335,355,374,394,416,436,454,475,495,515,535,554,574,595,614,635,655,674,695,715,735,755,774,794,816,835,854,875,895,915,935,955,975,994,1015,1036,1055,1074,1094,1114,1135,1155,1175,1195,1215,1234,1255,1275,1295,1315,1335,1355,1375,1394,1415,1434,1454,1474,1495,1515,1534,1554,1575,1594,1614,1634,1655,1675,1695,1716,1734,1754,1774,1794,1816,1835,1856,1875,1896,1915,1936,1954],"xSR":741.5,"ySR":573.95,"xT1":424.9,"yT1":0,"xT2":1058.1,"yT2":0,"toosoon":0,"cond_shown":"Incongruent","ratio_trial":200,"L_num":7,"L_den":10,"R_num":8,"R_den":16,"correct_side":1,"subjID":"davidsantiagoforerocuervo18","gender":"0","school":"6","age":"11"},{"start_time":1551880638771,"click_time":1551880640124,"finger_time":1551880639684,"fix_duration":526.8926366665879,"trial":12,"RT":913,"MT":440,"sideResp":1,"stimulus":[],"xmouse":[782,782,782,782,782,782,782,782,782,782,782,782,782,782,782,782,782,782,782,782,782,782,782,782,782,782,782,782,782,782,782,782,782,778,775,771,767,762,756,755,755,754,753,751,748,744,739,733,724,720,719,719,719,719,719,718,712,704,681,668,655,633,604,587,558,517,476,452],"ymouse":[637,637,637,637,637,637,637,637,637,637,637,637,637,637,637,637,637,637,637,637,637,637,637,637,637,637,637,637,637,637,637,637,637,632,626,619,611,604,597,595,594,593,592,585,579,569,560,550,537,533,531,531,531,531,531,530,520,509,477,458,437,406,366,340,289,215,125,52],"timestamp_mouse":[13,33,53,73,93,113,134,153,172,194,213,233,254,274,293,313,333,353,373,393,413,432,452,473,492,513,533,553,573,593,613,633,652,672,692,712,733,753,772,792,814,834,852,874,892,913,933,953,973,993,1013,1033,1053,1073,1094,1112,1133,1153,1174,1192,1213,1233,1254,1272,1292,1314,1333,1353],"xSR":741.5,"ySR":573.95,"xT1":424.9,"yT1":0,"xT2":1058.1,"yT2":0,"toosoon":0,"cond_shown":"Congruent","ratio_trial":300,"L_num":8,"L_den":16,"R_num":1,"R_den":5,"correct_side":1,"subjID":"davidsantiagoforerocuervo18","gender":"0","school":"6","age":"11"},{"start_time":1551880642995,"click_time":1551880644304,"finger_time":1551880643724,"fix_duration":250,"trial":13,"RT":729,"MT":580,"sideResp":2,"stimulus":[],"xmouse":[789,789,789,789,789,789,789,789,789,789,789,789,789,789,789,789,789,789,789,789,789,789,789,789,789,789,789,789,789,789,789,789,789,789,800,810,845,951,1003,1033,1047,1047,1047,1047,1047,1047,1047,1048,1048,1048,1049,1050,1054,1058,1064,1067,1071,1075,1079,1084,1093,1096,1102,1104,1110,1113],"ymouse":[646,646,646,646,646,646,646,646,646,646,646,646,646,646,646,646,646,646,646,646,646,646,646,646,646,646,646,646,646,646,646,646,646,646,632,618,576,457,409,381,367,366,366,364,356,343,334,318,312,299,289,278,254,238,221,208,196,173,161,151,137,133,125,119,109,96],"timestamp_mouse":[9,29,49,69,89,108,129,150,169,189,208,228,248,269,289,309,329,349,368,388,410,428,449,469,490,509,529,549,569,589,609,629,649,669,689,709,729,749,770,789,810,829,849,868,890,909,930,949,968,988,1009,1029,1050,1068,1089,1109,1128,1149,1170,1189,1210,1229,1250,1269,1289,1309],"xSR":741.5,"ySR":573.95,"xT1":424.9,"yT1":0,"xT2":1058.1,"yT2":0,"toosoon":0,"cond_shown":"Incongruent","ratio_trial":300,"L_num":4,"L_den":5,"R_num":6,"R_den":12,"correct_side":1,"subjID":"davidsantiagoforerocuervo18","gender":"0","school":"6","age":"11"},{"start_time":1551880645460,"click_time":1551880646965,"finger_time":1551880646343,"fix_duration":315.7786417014541,"trial":14,"RT":883,"MT":622,"sideResp":2,"stimulus":[],"xmouse":[803,803,803,803,803,803,803,803,803,803,803,803,803,803,803,803,803,803,803,803,803,803,803,803,803,803,803,803,803,803,803,803,803,803,803,803,803,803,803,803,803,803,806,813,840,853,865,876,880,881,883,888,890,890,891,893,908,974,1032,1161,1201,1216,1249,1253,1247,1244,1243,1243,1242,1242,1240,1237,1224,1204,1160,1142],"ymouse":[622,622,622,622,622,622,622,622,622,622,622,622,622,622,622,622,622,622,622,622,622,622,622,622,622,622,622,622,622,622,622,622,622,622,622,622,622,622,622,622,622,614,608,591,550,533,518,499,488,487,487,487,487,487,485,477,455,374,307,144,62,16,0,0,0,0,0,0,0,0,0,2,13,28,75,96],"timestamp_mouse":[11,30,44,65,83,104,124,144,163,184,204,224,244,264,284,304,324,344,364,383,404,424,444,463,484,504,524,544,563,583,604,624,644,664,683,705,724,744,763,784,803,825,844,865,883,904,924,944,965,984,1003,1024,1044,1065,1083,1103,1123,1144,1165,1184,1204,1225,1244,1263,1284,1304,1323,1343,1363,1383,1403,1425,1444,1465,1483,1505],"xSR":741.5,"ySR":573.95,"xT1":424.9,"yT1":0,"xT2":1058.1,"yT2":0,"toosoon":0,"cond_shown":"Congruent","ratio_trial":100,"L_num":4,"L_den":8,"R_num":6,"R_den":10,"correct_side":2,"subjID":"davidsantiagoforerocuervo18","gender":"0","school":"6","age":"11"},{"start_time":1551880649539,"click_time":1551880650825,"finger_time":1551880650363,"fix_duration":1434.9499543172678,"trial":15,"RT":824,"MT":462,"sideResp":1,"stimulus":[],"xmouse":[801,801,801,801,801,801,801,801,801,801,801,801,801,801,801,801,801,801,801,801,801,801,801,801,801,801,801,801,801,801,801,801,801,801,801,801,801,801,801,796,774,735,670,548,396,352,325,307,299,296,293,293,293,293,292,293,295,300,309,336,353,371,391,410,444],"ymouse":[617,617,617,617,617,617,617,617,617,617,617,617,617,617,617,617,617,617,617,617,617,617,617,617,617,617,617,617,617,617,617,617,617,617,617,617,617,617,617,611,589,557,513,451,363,324,290,260,235,216,195,185,182,171,155,149,143,135,126,108,98,89,81,72,54],"timestamp_mouse":[7,31,44,64,85,105,125,145,165,185,204,225,245,265,285,304,325,345,365,386,405,426,445,465,484,505,525,545,564,584,605,625,645,665,685,705,725,744,764,786,805,824,845,865,886,905,925,944,965,984,1004,1026,1045,1065,1086,1105,1124,1145,1165,1186,1204,1224,1244,1265,1286],"xSR":741.5,"ySR":573.95,"xT1":424.9,"yT1":0,"xT2":1058.1,"yT2":0,"toosoon":0,"cond_shown":"Incongruent","ratio_trial":200,"L_num":6,"L_den":20,"R_num":3,"R_den":6,"correct_side":2,"subjID":"davidsantiagoforerocuervo18","gender":"0","school":"6","age":"11"},{"start_time":1551880652126,"click_time":1551880653344,"finger_time":1551880653125,"fix_duration":420.8928692351933,"trial":16,"RT":999,"MT":219,"sideResp":2,"stimulus":[],"xmouse":[803,803,803,803,803,803,803,803,803,803,803,803,803,803,803,803,803,803,803,803,803,803,803,803,803,803,803,803,803,803,803,803,803,803,803,803,803,803,803,803,803,803,803,803,803,803,803,803,803,825,862,900,935,966,977,995,1003,1012,1027,1049,1093],"ymouse":[606,606,606,606,606,606,606,606,606,606,606,606,606,606,606,606,606,606,606,606,606,606,606,606,606,606,606,606,606,606,606,606,606,606,606,606,606,606,606,606,606,606,606,606,606,606,606,606,606,558,487,418,366,321,302,263,242,220,190,157,96],"timestamp_mouse":[28,38,58,78,97,118,139,158,178,198,219,237,259,277,298,317,338,358,378,398,417,438,458,478,497,519,537,557,577,599,618,637,657,678,698,717,737,758,777,799,818,837,857,878,898,917,937,958,977,999,1018,1037,1058,1079,1097,1118,1137,1157,1178,1197,1217],"xSR":741.5,"ySR":573.95,"xT1":424.9,"yT1":0,"xT2":1058.1,"yT2":0,"toosoon":0,"cond_shown":"Congruent","ratio_trial":300,"L_num":1,"L_den":5,"R_num":11,"R_den":22,"correct_side":2,"subjID":"davidsantiagoforerocuervo18","gender":"0","school":"6","age":"11"},{"start_time":1551880656061,"click_time":1551880656943,"finger_time":1551880656743,"fix_duration":536.0343287699969,"trial":17,"RT":682,"MT":200,"sideResp":1,"stimulus":[],"xmouse":[787,787,787,787,787,787,787,787,787,787,787,787,787,787,787,787,787,787,787,787,787,787,787,787,787,787,787,787,787,787,787,786,781,761,677,642,605,593,565,564,562,559,552,523,512],"ymouse":[628,628,628,628,628,628,628,628,628,628,628,628,628,628,628,628,628,628,628,628,628,628,628,628,628,628,628,628,628,628,628,626,619,585,448,399,331,305,236,230,224,205,174,108,93],"timestamp_mouse":[7,26,42,62,83,102,122,143,163,182,202,222,242,262,282,302,322,342,362,382,402,422,442,461,482,502,522,542,563,582,602,622,642,663,682,701,722,742,763,782,802,822,842,863,881],"xSR":741.5,"ySR":573.95,"xT1":424.9,"yT1":0,"xT2":1058.1,"yT2":0,"toosoon":0,"cond_shown":"Congruent","ratio_trial":300,"L_num":20,"L_den":25,"R_num":8,"R_den":16,"correct_side":1,"subjID":"davidsantiagoforerocuervo18","gender":"0","school":"6","age":"11"},{"start_time":1551880659641,"click_time":1551880660805,"finger_time":1551880660403,"fix_duration":1456.00200712927,"trial":18,"RT":762,"MT":402,"sideResp":2,"stimulus":[],"xmouse":[796,796,796,796,796,796,796,796,796,796,796,796,796,796,796,796,796,796,796,796,796,796,796,796,796,796,796,796,796,796,796,796,796,796,796,796,799,811,854,950,1049,1076,1095,1113,1136,1173,1182,1185,1185,1185,1187,1189,1189,1189,1189,1173,1156,1135,1106],"ymouse":[646,646,646,646,646,646,646,646,646,646,646,646,646,646,646,646,646,646,646,646,646,646,646,646,646,646,646,646,646,646,646,646,646,646,646,646,630,587,497,374,286,264,248,231,214,195,191,189,189,189,183,176,171,164,156,133,118,107,94],"timestamp_mouse":[8,29,42,62,82,102,122,142,162,182,202,222,242,261,283,301,322,342,362,382,402,422,442,462,482,502,522,542,562,582,603,622,642,662,682,701,723,742,762,782,803,822,843,862,882,901,922,942,962,981,1002,1022,1042,1062,1082,1102,1122,1142,1163],"xSR":741.5,"ySR":573.95,"xT1":424.9,"yT1":0,"xT2":1058.1,"yT2":0,"toosoon":0,"cond_shown":"Congruent","ratio_trial":300,"L_num":7,"L_den":14,"R_num":20,"R_den":25,"correct_side":2,"subjID":"davidsantiagoforerocuervo18","gender":"0","school":"6","age":"11"},{"start_time":1551880662295,"click_time":1551880663523,"finger_time":1551880663204,"fix_duration":250,"trial":19,"RT":909,"MT":319,"sideResp":2,"stimulus":[],"xmouse":[793,793,793,793,793,793,793,793,793,793,793,793,793,793,793,793,793,793,793,793,793,793,793,793,793,793,793,793,793,793,793,795,799,802,805,807,807,807,807,807,807,807,807,810,817,823,828,853,871,891,908,930,970,985,996,1005,1017,1031,1040,1051,1061,1072],"ymouse":[612,612,612,612,612,612,612,612,612,612,612,612,612,612,612,612,612,612,612,612,612,612,612,612,612,612,612,612,612,612,612,612,605,600,596,593,593,593,593,593,593,593,592,590,581,573,562,508,465,417,377,333,272,250,228,203,173,144,132,117,102,86],"timestamp_mouse":[8,28,48,68,88,108,128,148,168,188,208,228,248,268,288,308,329,348,368,388,408,428,448,468,488,507,528,548,569,588,608,629,647,667,688,707,728,749,768,788,809,829,847,868,887,909,928,948,968,987,1008,1028,1048,1068,1088,1108,1128,1148,1169,1188,1209,1228],"xSR":741.5,"ySR":573.95,"xT1":424.9,"yT1":0,"xT2":1058.1,"yT2":0,"toosoon":0,"cond_shown":"Congruent","ratio_trial":100,"L_num":2,"L_den":5,"R_num":6,"R_den":12,"correct_side":2,"subjID":"davidsantiagoforerocuervo18","gender":"0","school":"6","age":"11"},{"start_time":1551880665756,"click_time":1551880667543,"finger_time":1551880667123,"fix_duration":1331.8298005008226,"trial":20,"RT":1367,"MT":420,"sideResp":2,"stimulus":[],"xmouse":[788,788,788,788,788,788,788,788,788,788,788,788,788,788,788,788,788,788,788,788,788,788,788,788,788,788,788,784,782,779,776,775,774,773,767,764,763,763,763,763,763,763,763,763,763,763,763,763,763,763,763,763,763,763,763,766,771,772,774,774,774,774,776,778,791,800,810,822,838,898,948,1000,1057,1129,1171,1177,1179,1182,1190,1209,1215,1217,1217,1217,1217,1217,1216,1204,1184,1152],"ymouse":[636,636,636,636,636,636,636,636,636,636,636,636,636,636,636,636,636,636,636,636,636,636,636,636,636,636,636,637,637,637,637,637,636,636,636,635,635,635,635,635,635,635,635,635,635,635,635,635,635,635,635,635,635,635,635,634,633,633,633,633,633,633,633,632,625,617,607,592,564,456,397,331,268,186,114,93,75,55,34,0,0,0,0,0,0,0,0,6,18,35],"timestamp_mouse":[8,31,47,67,87,107,127,147,167,187,207,228,247,266,287,307,327,347,367,387,407,427,447,467,487,507,527,546,567,586,607,627,646,666,688,707,728,747,767,787,807,827,847,866,886,907,927,947,967,987,1007,1027,1047,1067,1087,1106,1128,1148,1167,1188,1207,1227,1248,1267,1286,1306,1328,1347,1367,1387,1408,1427,1447,1466,1487,1507,1527,1547,1567,1587,1607,1628,1647,1668,1688,1707,1727,1747,1767,1787],"xSR":741.5,"ySR":573.95,"xT1":424.9,"yT1":0,"xT2":1058.1,"yT2":0,"toosoon":0,"cond_shown":"Incongruent","ratio_trial":300,"L_num":13,"L_den":26,"R_num":12,"R_den":15,"correct_side":2,"subjID":"davidsantiagoforerocuervo18","gender":"0","school":"6","age":"11"},{"start_time":1551880669341,"click_time":1551880671163,"finger_time":1551880670743,"fix_duration":716.8009736242429,"trial":21,"RT":1402,"MT":420,"sideResp":1,"stimulus":[],"xmouse":[771,771,771,771,771,771,771,771,771,771,771,771,771,771,771,771,771,771,771,771,771,771,771,771,771,771,771,772,772,772,772,773,774,779,779,780,781,781,781,781,781,781,781,781,781,781,781,781,781,781,781,781,781,781,781,781,781,781,781,781,781,781,781,781,781,781,781,781,781,781,781,780,775,766,738,698,674,649,625,604,578,563,553,548,545,542,541,541,539,536,529,524],"ymouse":[595,595,595,595,595,595,595,595,595,595,595,595,595,595,595,595,595,595,595,595,595,595,595,595,595,595,595,596,596,596,596,596,596,595,595,594,593,593,593,593,593,593,593,593,593,593,593,593,593,593,593,593,593,593,593,593,593,593,593,593,593,593,593,593,593,593,593,591,588,581,558,548,531,509,432,294,237,190,145,110,67,44,27,14,0,0,0,0,0,0,0,3],"timestamp_mouse":[7,29,42,62,82,102,122,142,162,183,202,222,242,263,282,303,322,342,362,382,402,422,442,462,482,502,522,543,562,582,602,623,642,662,681,702,722,742,762,782,802,822,842,862,882,902,922,942,962,982,1002,1022,1042,1062,1082,1102,1122,1142,1162,1182,1202,1222,1242,1262,1282,1302,1322,1341,1362,1382,1402,1422,1442,1463,1482,1502,1522,1542,1561,1583,1601,1623,1642,1663,1682,1703,1723,1743,1763,1782,1802,1822],"xSR":741.5,"ySR":573.95,"xT1":424.9,"yT1":0,"xT2":1058.1,"yT2":0,"toosoon":0,"cond_shown":"Incongruent","ratio_trial":100,"L_num":9,"L_den":15,"R_num":13,"R_den":26,"correct_side":1,"subjID":"davidsantiagoforerocuervo18","gender":"0","school":"6","age":"11"},{"start_time":1551880673042,"click_time":1551880674104,"finger_time":1551880673662,"fix_duration":798.9962817680303,"trial":22,"RT":620,"MT":442,"sideResp":2,"stimulus":[],"xmouse":[781,781,781,781,781,781,781,781,781,781,781,781,781,781,781,781,781,781,781,781,781,781,781,781,781,781,781,781,781,781,827,900,1001,1099,1223,1241,1248,1248,1248,1251,1258,1259,1259,1251,1237,1200,1192,1188,1188,1188,1185,1173,1159,1147],"ymouse":[631,631,631,631,631,631,631,631,631,631,631,631,631,631,631,631,631,631,631,631,631,631,631,631,631,631,631,631,631,631,582,508,409,314,192,173,164,158,142,126,87,66,44,23,6,0,0,0,0,0,0,4,13,25],"timestamp_mouse":[6,28,42,61,80,102,121,141,161,181,201,221,241,262,281,301,321,341,361,380,401,422,441,461,481,501,521,541,561,580,601,620,641,661,682,700,721,741,761,781,801,821,842,861,881,901,921,941,961,982,1000,1021,1042,1062],"xSR":741.5,"ySR":573.95,"xT1":424.9,"yT1":0,"xT2":1058.1,"yT2":0,"toosoon":0,"cond_shown":"Incongruent","ratio_trial":200,"L_num":1,"L_den":2,"R_num":3,"R_den":10,"correct_side":1,"subjID":"davidsantiagoforerocuervo18","gender":"0","school":"6","age":"11"},{"start_time":1551880681268,"click_time":1551880682443,"finger_time":1551880681923,"fix_duration":1362.1317621035012,"trial":23,"RT":655,"MT":520,"sideResp":2,"stimulus":[],"xmouse":[773,773,773,773,773,773,773,773,773,773,773,773,773,773,773,773,773,773,773,773,773,773,773,773,773,773,773,773,782,798,821,839,856,896,903,904,902,899,895,897,908,920,957,988,1043,1114,1219,1283,1354,1359,1355,1339,1317,1282,1266,1249,1219,1198,1151],"ymouse":[616,616,616,616,616,616,616,616,616,616,616,616,616,616,616,616,616,616,616,616,616,616,616,616,616,616,616,617,618,618,614,608,596,558,538,515,477,452,419,411,398,385,352,327,290,239,155,65,0,0,0,0,0,0,1,9,28,45,81],"timestamp_mouse":[15,35,55,75,95,115,135,155,175,195,215,235,255,275,295,315,335,355,375,395,414,435,455,475,495,515,535,555,575,594,614,635,655,675,695,715,735,755,776,795,816,835,856,875,895,915,936,956,975,995,1015,1035,1054,1075,1095,1115,1135,1155,1175],"xSR":741.5,"ySR":573.95,"xT1":424.9,"yT1":0,"xT2":1058.1,"yT2":0,"toosoon":0,"cond_shown":"Congruent","ratio_trial":100,"L_num":6,"L_den":12,"R_num":15,"R_den":25,"correct_side":2,"subjID":"davidsantiagoforerocuervo18","gender":"0","school":"6","age":"11"},{"start_time":1551880684105,"click_time":1551880685603,"finger_time":1551880684823,"fix_duration":820.6666619391699,"trial":24,"RT":718,"MT":780,"sideResp":1,"stimulus":[],"xmouse":[816,816,816,816,816,816,816,816,816,816,816,816,816,816,816,816,816,816,816,816,816,816,816,816,816,816,816,816,816,816,816,816,814,797,785,771,755,748,741,733,724,708,703,699,695,690,680,675,668,660,648,620,607,599,589,581,561,554,554,554,554,554,552,547,546,546,546,546,546,546,543,538,534,529,511],"ymouse":[632,632,632,632,632,632,632,632,632,632,632,632,632,632,632,632,632,632,632,632,632,632,632,632,632,632,632,632,632,632,632,627,621,598,582,565,541,531,519,499,471,415,397,384,371,357,325,305,281,255,223,175,157,144,129,114,85,77,77,77,77,76,74,69,68,67,67,67,67,67,64,60,58,55,51],"timestamp_mouse":[32,38,58,78,98,118,138,158,178,198,218,239,258,278,298,318,338,358,378,398,418,438,458,479,498,518,538,558,578,597,618,638,658,678,698,718,738,758,778,798,818,838,858,879,898,918,938,957,978,998,1019,1038,1058,1078,1098,1118,1138,1158,1177,1199,1218,1238,1258,1278,1298,1319,1338,1358,1378,1399,1419,1438,1458,1478,1498],"xSR":741.5,"ySR":573.95,"xT1":424.9,"yT1":0,"xT2":1058.1,"yT2":0,"toosoon":0,"cond_shown":"Incongruent","ratio_trial":300,"L_num":8,"L_den":10,"R_num":14,"R_den":28,"correct_side":1,"subjID":"davidsantiagoforerocuervo18","gender":"0","school":"6","age":"11"},{"start_time":1551880688234,"click_time":1551880689764,"finger_time":1551880689044,"fix_duration":309.1456307714536,"trial":25,"RT":810,"MT":720,"sideResp":1,"stimulus":[],"xmouse":[811,811,811,811,811,811,811,811,811,811,811,811,811,811,811,811,811,811,811,811,811,811,811,811,811,811,811,811,811,811,811,811,809,808,807,807,806,805,802,801,801,801,804,805,806,806,806,806,806,806,806,806,804,794,761,733,700,671,643,622,619,620,623,625,626,626,625,623,620,614,612,609,602,590,574,529,518],"ymouse":[640,640,640,640,640,640,640,640,640,640,640,640,640,640,640,640,640,640,640,640,640,640,640,640,640,640,640,640,640,640,640,640,639,639,639,639,638,635,624,609,571,559,551,547,545,545,545,545,545,545,545,545,540,524,447,382,314,249,184,111,52,34,20,9,2,0,0,0,0,0,0,0,1,10,22,47,51],"timestamp_mouse":[8,35,49,69,89,109,129,150,169,190,209,229,249,269,289,309,329,349,369,389,409,429,449,469,489,510,529,549,569,589,610,630,649,670,689,709,729,749,769,789,810,829,850,869,890,909,928,949,969,990,1009,1029,1049,1069,1090,1110,1130,1149,1169,1189,1209,1229,1249,1269,1290,1309,1329,1349,1369,1389,1409,1429,1449,1469,1489,1509,1529],"xSR":741.5,"ySR":573.95,"xT1":424.9,"yT1":0,"xT2":1058.1,"yT2":0,"toosoon":0,"cond_shown":"Congruent","ratio_trial":200,"L_num":6,"L_den":15,"R_num":3,"R_den":15,"correct_side":1,"subjID":"davidsantiagoforerocuervo18","gender":"0","school":"6","age":"11"},{"start_time":1551880691606,"click_time":1551880692683,"finger_time":1551880692203,"fix_duration":722.255651718846,"trial":26,"RT":597,"MT":480,"sideResp":2,"stimulus":[],"xmouse":[760,760,760,760,760,760,760,760,760,760,760,760,760,760,760,760,760,760,760,760,760,760,760,760,760,760,760,771,792,814,846,909,934,953,972,1003,1092,1142,1179,1216,1238,1240,1241,1243,1243,1243,1239,1235,1234,1229,1224,1197,1174,1144],"ymouse":[614,614,614,614,614,614,614,614,614,614,614,614,614,614,614,614,614,614,614,614,614,614,614,614,614,614,614,608,585,562,534,493,475,463,437,395,284,227,182,129,92,83,70,53,35,21,1,0,0,0,0,0,1,5],"timestamp_mouse":[17,37,56,77,97,117,137,157,177,197,217,237,257,278,297,317,337,357,376,398,417,437,457,477,497,517,536,557,577,597,617,637,657,677,697,718,737,757,777,797,818,837,857,877,897,918,937,956,977,997,1017,1037,1057,1077],"xSR":741.5,"ySR":573.95,"xT1":424.9,"yT1":0,"xT2":1058.1,"yT2":0,"toosoon":0,"cond_shown":"Incongruent","ratio_trial":200,"L_num":3,"L_den":4,"R_num":11,"R_den":20,"correct_side":1,"subjID":"davidsantiagoforerocuervo18","gender":"0","school":"6","age":"11"},{"start_time":1551880695616,"click_time":1551880697824,"finger_time":1551880697043,"fix_duration":1451.3214324980117,"trial":27,"RT":1427,"MT":781,"sideResp":1,"stimulus":[],"xmouse":[805,805,805,805,805,805,805,805,805,805,805,805,805,805,805,805,805,805,805,805,805,805,805,805,805,805,805,805,805,805,805,805,805,805,805,805,805,805,805,805,805,808,808,808,808,808,808,808,808,808,808,808,808,808,808,808,808,808,808,808,807,806,806,805,805,805,803,801,798,796,794,784,775,766,762,759,759,758,756,755,754,753,753,752,749,747,737,728,700,675,649,615,612,610,606,598,589,581,575,553,542,499,485,475,467,462,462,462,462,459,453],"ymouse":[628,628,628,628,628,628,628,628,628,628,628,628,628,628,628,628,628,628,628,628,628,628,628,628,628,628,628,628,628,628,628,628,628,628,628,628,628,628,628,628,627,623,623,623,623,623,623,623,623,623,623,623,623,623,623,623,623,623,621,620,619,617,617,616,616,615,609,605,592,584,574,541,518,498,486,479,473,465,456,449,441,437,437,437,434,431,423,419,410,403,389,366,357,345,329,272,227,170,113,32,11,0,0,0,0,0,0,0,0,0,15],"timestamp_mouse":[9,37,47,68,87,107,127,147,168,188,207,227,247,267,287,307,327,347,367,387,408,427,447,467,487,508,526,547,568,587,608,628,647,667,687,707,727,747,766,787,807,827,847,867,888,908,927,947,967,987,1006,1027,1047,1067,1087,1108,1127,1147,1167,1187,1207,1227,1246,1267,1286,1308,1327,1346,1367,1387,1407,1427,1447,1467,1487,1508,1527,1547,1567,1586,1607,1627,1647,1667,1687,1707,1727,1747,1767,1787,1807,1827,1848,1867,1887,1908,1927,1947,1967,1987,2007,2027,2047,2067,2087,2107,2128,2147,2166,2187,2208],"xSR":741.5,"ySR":573.95,"xT1":424.9,"yT1":0,"xT2":1058.1,"yT2":0,"toosoon":0,"cond_shown":"Congruent","ratio_trial":200,"L_num":8,"L_den":15,"R_num":2,"R_den":6,"correct_side":1,"subjID":"davidsantiagoforerocuervo18","gender":"0","school":"6","age":"11"},{"start_time":1551880701197,"click_time":1551880702524,"finger_time":1551880701963,"fix_duration":1191.6277122803954,"trial":28,"RT":766,"MT":561,"sideResp":1,"stimulus":[],"xmouse":[791,791,791,791,791,791,791,791,791,791,791,791,791,791,791,791,791,791,791,791,791,791,791,791,791,791,791,791,791,791,791,791,791,791,791,791,788,787,787,786,772,752,707,687,673,662,644,638,634,631,622,614,588,566,547,529,516,505,505,505,505,505,505,504,501,499,496],"ymouse":[594,594,594,594,594,594,594,594,594,594,594,594,594,594,594,594,594,594,594,594,594,594,594,594,594,594,594,594,594,594,594,594,594,594,594,594,591,578,564,541,491,447,363,329,303,283,251,242,238,236,230,222,199,181,162,145,132,121,119,119,119,119,119,116,109,100,92],"timestamp_mouse":[7,26,46,66,86,106,126,146,166,186,206,225,246,266,286,306,327,346,366,386,406,426,446,466,487,506,526,546,566,586,606,626,646,666,686,706,726,745,766,786,806,826,847,866,887,906,927,946,966,986,1008,1026,1046,1066,1086,1106,1126,1146,1166,1187,1206,1226,1246,1266,1286,1306,1327],"xSR":741.5,"ySR":573.95,"xT1":424.9,"yT1":0,"xT2":1058.1,"yT2":0,"toosoon":0,"cond_shown":"Congruent","ratio_trial":200,"L_num":15,"L_den":25,"R_num":4,"R_den":10,"correct_side":1,"subjID":"davidsantiagoforerocuervo18","gender":"0","school":"6","age":"11"},{"start_time":1551880704716,"click_time":1551880706023,"finger_time":1551880705643,"fix_duration":1269.070746821193,"trial":29,"RT":927,"MT":380,"sideResp":2,"stimulus":[],"xmouse":[803,803,803,803,803,803,803,803,803,803,803,803,803,803,803,803,803,803,803,803,803,803,803,803,803,803,803,803,803,803,803,803,803,803,803,803,803,803,803,803,803,803,803,809,825,836,867,888,904,917,926,939,948,956,967,978,986,989,992,995,1017,1037,1062,1085,1112,1123],"ymouse":[631,631,631,631,631,631,631,631,631,631,631,631,631,631,631,631,631,631,631,631,631,631,631,631,631,631,631,631,631,631,631,631,631,631,631,631,631,631,631,631,631,631,631,627,620,613,589,571,558,546,538,527,516,505,489,465,427,408,386,363,300,255,205,161,111,93],"timestamp_mouse":[8,37,46,67,87,107,127,147,167,187,208,227,246,267,287,307,327,347,367,387,407,428,447,466,487,507,527,547,567,588,607,628,647,668,687,707,727,747,767,787,808,828,847,867,887,907,927,947,968,987,1008,1027,1047,1066,1087,1107,1127,1147,1167,1187,1208,1227,1246,1267,1287,1307],"xSR":741.5,"ySR":573.95,"xT1":424.9,"yT1":0,"xT2":1058.1,"yT2":0,"toosoon":0,"cond_shown":"Congruent","ratio_trial":300,"L_num":3,"L_den":12,"R_num":11,"R_den":20,"correct_side":2,"subjID":"davidsantiagoforerocuervo18","gender":"0","school":"6","age":"11"},{"start_time":1551880713209,"click_time":1551880714243,"finger_time":1551880713703,"fix_duration":665.6693273569718,"trial":30,"RT":494,"MT":540,"sideResp":2,"stimulus":[],"xmouse":[802,802,802,802,801,799,799,799,799,799,799,799,799,799,799,799,799,799,799,799,799,799,799,799,799,797,788,780,770,755,741,704,684,677,676,676,678,683,692,713,732,793,833,871,907,936,994,1019,1045,1090,1109,1124],"ymouse":[593,593,593,593,593,591,590,590,590,590,590,590,590,590,590,590,590,590,590,590,590,590,590,583,563,542,504,488,475,448,426,369,337,323,320,319,316,315,314,309,303,283,266,250,232,220,188,170,148,117,103,79],"timestamp_mouse":[14,34,54,74,94,114,134,154,174,194,214,234,254,274,294,314,334,355,374,394,414,434,453,475,494,514,534,554,574,594,615,634,653,674,694,714,734,754,775,794,814,834,854,874,894,914,937,954,974,994,1013,1034],"xSR":741.5,"ySR":573.95,"xT1":424.9,"yT1":0,"xT2":1058.1,"yT2":0,"toosoon":0,"cond_shown":"Incongruent","ratio_trial":200,"L_num":14,"L_den":30,"R_num":12,"R_den":18,"correct_side":2,"subjID":"davidsantiagoforerocuervo18","gender":"0","school":"6","age":"11"},{"start_time":1551880715475,"click_time":1551880716764,"finger_time":1551880716484,"fix_duration":250,"trial":31,"RT":1009,"MT":280,"sideResp":2,"stimulus":[],"xmouse":[785,785,785,785,785,785,785,785,785,785,785,785,785,785,785,785,785,785,785,785,785,785,785,785,785,785,785,785,785,785,785,785,785,785,785,785,785,785,785,785,785,785,785,785,785,785,785,785,788,796,813,834,864,870,873,873,873,873,882,896,919,953,996,1084,1125],"ymouse":[630,630,630,630,630,630,630,630,630,630,630,630,630,630,630,630,630,630,630,630,630,630,630,630,630,630,630,630,630,630,630,630,630,630,630,630,630,630,630,630,630,630,630,630,630,630,630,629,614,596,565,528,467,452,445,444,444,444,434,418,389,344,279,144,80],"timestamp_mouse":[7,27,49,69,88,109,128,148,168,188,208,227,249,268,289,308,329,348,368,388,407,428,448,468,488,508,528,549,568,589,609,629,649,670,688,708,729,749,769,789,810,829,848,870,889,909,928,949,969,989,1009,1028,1049,1069,1089,1109,1129,1149,1169,1189,1208,1229,1248,1268,1289],"xSR":741.5,"ySR":573.95,"xT1":424.9,"yT1":0,"xT2":1058.1,"yT2":0,"toosoon":0,"cond_shown":"Congruent","ratio_trial":100,"L_num":1,"L_den":2,"R_num":3,"R_den":5,"correct_side":2,"subjID":"davidsantiagoforerocuervo18","gender":"0","school":"6","age":"11"},{"start_time":1551880718004,"click_time":1551880719604,"finger_time":1551880719263,"fix_duration":458.46375063859193,"trial":32,"RT":1259,"MT":341,"sideResp":2,"stimulus":[],"xmouse":[782,782,782,782,782,782,782,782,782,782,782,782,782,782,782,782,782,782,782,782,782,782,782,782,782,782,782,782,782,782,782,782,782,782,782,782,782,782,782,782,782,782,782,782,782,782,782,782,782,782,782,782,782,782,782,782,782,782,782,782,782,782,786,801,822,852,929,968,996,1020,1034,1041,1041,1042,1042,1042,1042,1042,1044,1056,1070],"ymouse":[595,595,595,595,595,595,595,595,595,595,595,595,595,595,595,595,595,595,595,595,595,595,595,595,595,595,595,595,595,595,595,595,595,595,595,595,595,595,595,595,595,595,595,595,595,595,595,595,595,595,595,595,595,595,595,595,595,595,595,595,595,595,592,571,527,462,302,213,123,47,0,0,0,0,0,0,0,0,0,2,9],"timestamp_mouse":[5,20,40,60,80,101,120,139,160,180,200,220,240,259,280,300,320,340,360,379,399,420,440,460,480,500,520,540,560,580,599,620,639,660,680,700,719,740,760,780,800,821,840,860,880,899,920,939,959,979,1001,1021,1040,1059,1081,1100,1120,1140,1160,1180,1200,1219,1241,1259,1281,1300,1321,1340,1360,1381,1400,1421,1440,1459,1480,1500,1519,1540,1560,1580,1600],"xSR":741.5,"ySR":573.95,"xT1":424.9,"yT1":0,"xT2":1058.1,"yT2":0,"toosoon":0,"cond_shown":"Incongruent","ratio_trial":200,"L_num":14,"L_den":30,"R_num":12,"R_den":18,"correct_side":2,"subjID":"davidsantiagoforerocuervo18","gender":"0","school":"6","age":"11"},{"start_time":1551880721281,"click_time":1551880722784,"finger_time":1551880722564,"fix_duration":375.29614825461033,"trial":33,"RT":1283,"MT":220,"sideResp":2,"stimulus":[],"xmouse":[776,776,776,776,776,776,776,776,776,776,776,776,776,776,776,776,776,776,776,776,776,776,776,776,776,776,776,776,776,776,776,776,776,776,776,776,776,776,776,776,776,776,776,776,776,776,776,776,776,776,776,776,776,776,776,776,776,776,776,776,776,776,783,810,847,897,987,1070,1079,1079,1073,1068,1065,1063,1063,1064],"ymouse":[617,617,617,617,617,617,617,617,617,617,617,617,617,617,617,617,617,617,617,617,617,617,617,617,617,617,617,617,617,617,617,617,617,617,617,617,617,617,617,617,617,617,617,617,617,617,617,617,617,617,617,617,617,617,617,617,617,617,617,617,617,617,610,582,539,480,367,243,208,181,158,146,137,120,110,92],"timestamp_mouse":[8,26,43,63,83,102,123,143,162,183,202,223,242,263,283,302,323,342,363,383,402,423,442,462,483,503,523,543,562,582,602,623,643,663,683,704,723,744,762,782,803,823,843,862,882,903,923,943,964,983,1003,1024,1043,1062,1082,1103,1122,1142,1163,1183,1203,1223,1243,1263,1283,1303,1323,1344,1362,1382,1403,1423,1444,1463,1483,1502],"xSR":741.5,"ySR":573.95,"xT1":424.9,"yT1":0,"xT2":1058.1,"yT2":0,"toosoon":0,"cond_shown":"Congruent","ratio_trial":100,"L_num":11,"L_den":22,"R_num":6,"R_den":15,"correct_side":1,"subjID":"davidsantiagoforerocuervo18","gender":"0","school":"6","age":"11"},{"start_time":1551880724529,"click_time":1551880726244,"finger_time":1551880725844,"fix_duration":784.3783283070969,"trial":34,"RT":1315,"MT":400,"sideResp":1,"stimulus":[],"xmouse":[785,785,785,783,783,783,783,783,783,783,783,783,783,783,783,783,783,783,783,783,783,783,783,783,783,783,783,783,783,783,783,783,783,783,783,783,783,783,783,783,783,783,783,783,783,783,783,783,783,783,783,783,783,783,783,783,783,783,783,783,783,783,781,768,749,676,629,600,578,523,493,461,437,426,416,413,413,413,412,410,408,408,408,408,422,433],"ymouse":[635,635,635,635,635,635,635,635,635,635,635,635,635,635,635,635,635,635,635,635,635,635,635,635,635,635,635,635,635,635,635,635,635,635,635,635,635,635,635,635,635,635,635,635,635,635,635,635,635,635,635,635,635,635,635,635,635,635,635,635,635,635,634,621,601,527,482,440,401,303,255,204,161,135,107,74,52,32,18,5,0,0,0,0,12,22],"timestamp_mouse":[25,36,55,76,95,115,134,154,174,195,215,235,255,274,296,314,336,356,374,396,414,435,456,475,495,515,535,554,575,595,615,635,654,675,695,715,735,755,774,795,815,834,855,875,895,915,935,955,975,995,1015,1035,1055,1075,1095,1115,1134,1155,1175,1196,1214,1236,1255,1275,1294,1315,1335,1355,1375,1396,1414,1435,1455,1474,1495,1515,1535,1555,1575,1595,1615,1636,1655,1675,1696,1714],"xSR":741.5,"ySR":573.95,"xT1":424.9,"yT1":0,"xT2":1058.1,"yT2":0,"toosoon":0,"cond_shown":"Congruent","ratio_trial":200,"L_num":9,"L_den":20,"R_num":4,"R_den":16,"correct_side":1,"subjID":"davidsantiagoforerocuervo18","gender":"0","school":"6","age":"11"},{"start_time":1551880728335,"click_time":1551880730045,"finger_time":1551880729644,"fix_duration":790.0652757514343,"trial":35,"RT":1309,"MT":401,"sideResp":2,"stimulus":[],"xmouse":[787,787,787,787,787,787,787,787,787,787,787,787,787,787,787,787,787,787,787,787,787,787,787,787,787,787,787,787,787,787,787,787,787,787,787,787,787,787,787,787,787,787,787,787,787,787,787,787,787,787,787,787,787,787,787,787,787,787,787,787,787,787,787,791,808,915,1002,1081,1136,1200,1221,1233,1237,1244,1247,1263,1268,1274,1278,1279,1273,1268,1260,1252,1219,1089],"ymouse":[598,598,598,598,598,598,598,598,598,598,598,598,598,598,598,598,598,598,598,598,598,598,598,598,598,598,598,598,598,598,598,598,598,598,598,598,598,598,598,598,598,598,598,598,598,598,598,598,598,598,598,598,598,598,598,598,598,598,598,598,598,598,598,595,583,508,449,397,357,284,247,216,187,143,118,70,50,32,15,0,0,0,0,0,6,44],"timestamp_mouse":[8,36,49,69,89,108,128,149,169,190,208,229,249,269,288,308,329,350,369,389,408,428,449,469,489,509,529,549,569,588,609,628,648,670,688,709,728,748,769,789,808,828,850,869,889,910,928,948,969,989,1009,1029,1049,1069,1088,1110,1129,1148,1168,1189,1209,1229,1250,1269,1289,1309,1328,1349,1369,1390,1409,1429,1449,1469,1489,1509,1530,1548,1570,1589,1608,1629,1649,1669,1690,1710],"xSR":741.5,"ySR":573.95,"xT1":424.9,"yT1":0,"xT2":1058.1,"yT2":0,"toosoon":0,"cond_shown":"Incongruent","ratio_trial":300,"L_num":13,"L_den":26,"R_num":12,"R_den":15,"correct_side":2,"subjID":"davidsantiagoforerocuervo18","gender":"0","school":"6","age":"11"},{"start_time":1551880731931,"click_time":1551880733564,"finger_time":1551880733204,"fix_duration":785.7215737916536,"trial":36,"RT":1273,"MT":360,"sideResp":1,"stimulus":[],"xmouse":[765,765,765,765,765,765,765,765,765,765,765,765,765,765,765,765,765,765,765,765,765,765,765,765,765,765,765,765,765,765,765,765,765,765,765,765,765,765,765,765,765,765,765,768,768,769,769,769,769,769,769,769,769,769,769,769,769,769,769,769,769,763,758,736,717,684,671,660,652,635,627,618,613,608,607,599,589,577,566,553,527,516],"ymouse":[603,603,603,603,603,603,603,603,603,603,603,603,603,603,603,603,603,603,603,603,603,603,603,603,603,603,603,603,603,603,603,603,603,603,603,603,603,603,603,604,606,608,610,615,618,621,623,623,623,623,623,623,623,623,623,623,623,623,623,623,623,617,612,593,580,557,545,530,512,463,436,406,375,323,276,179,141,108,83,59,33,26],"timestamp_mouse":[24,33,53,74,94,113,133,153,172,192,213,233,252,272,293,313,333,353,373,392,412,433,453,473,493,513,533,552,574,593,613,632,652,673,693,713,733,753,773,793,813,833,853,873,893,914,934,953,973,993,1014,1032,1053,1073,1093,1113,1133,1152,1172,1193,1213,1233,1253,1273,1292,1314,1333,1353,1372,1394,1413,1433,1453,1473,1493,1513,1533,1552,1572,1593,1613,1633],"xSR":741.5,"ySR":573.95,"xT1":424.9,"yT1":0,"xT2":1058.1,"yT2":0,"toosoon":0,"cond_shown":"Congruent","ratio_trial":200,"L_num":8,"L_den":15,"R_num":3,"R_den":9,"correct_side":1,"subjID":"davidsantiagoforerocuervo18","gender":"0","school":"6","age":"11"},{"start_time":1551880735040,"click_time":1551880736384,"finger_time":1551880736044,"fix_duration":854.1881859021555,"trial":37,"RT":1004,"MT":340,"sideResp":2,"stimulus":[],"xmouse":[793,793,793,793,793,793,793,793,793,793,793,793,793,793,793,793,793,793,793,793,793,793,793,793,793,793,793,793,793,793,793,793,793,793,793,793,793,793,793,793,793,793,793,793,793,793,793,793,797,806,880,926,967,985,992,993,992,991,994,999,998,990,988,988,1010,1030,1048,1065],"ymouse":[636,636,636,636,636,636,636,636,636,636,636,636,636,636,636,636,636,636,636,636,636,636,636,636,636,636,636,636,636,636,636,636,636,636,636,636,636,636,636,636,636,636,636,636,636,636,636,636,636,634,614,602,591,583,575,553,537,517,475,436,344,292,245,212,153,129,111,97],"timestamp_mouse":[7,31,43,64,84,104,124,144,164,184,204,224,243,263,284,304,324,344,364,384,404,424,445,464,484,504,523,544,563,584,603,623,644,664,684,704,724,743,764,785,804,824,844,864,884,904,924,945,964,983,1004,1024,1044,1064,1084,1104,1124,1144,1164,1184,1203,1224,1244,1264,1285,1304,1325,1344],"xSR":741.5,"ySR":573.95,"xT1":424.9,"yT1":0,"xT2":1058.1,"yT2":0,"toosoon":0,"cond_shown":"Incongruent","ratio_trial":300,"L_num":13,"L_den":26,"R_num":12,"R_den":15,"correct_side":2,"subjID":"davidsantiagoforerocuervo18","gender":"0","school":"6","age":"11"},{"start_time":1551880737805,"click_time":1551880738964,"finger_time":1551880738525,"fix_duration":540.1785307634779,"trial":38,"RT":720,"MT":439,"sideResp":1,"stimulus":[],"xmouse":[763,763,763,763,763,763,763,763,763,763,763,763,763,763,763,763,763,763,763,763,763,763,763,763,763,763,763,763,763,763,763,763,763,758,753,722,680,612,563,518,459,391,374,365,360,359,360,364,371,386,397,411,417,422,428,449,460,467],"ymouse":[627,627,627,627,627,627,627,627,627,627,627,627,627,627,627,627,627,627,627,627,627,627,627,627,627,627,627,627,627,627,627,627,627,622,618,595,568,538,512,479,411,324,300,285,276,267,243,230,215,189,177,164,160,155,148,120,106,94],"timestamp_mouse":[19,39,59,79,99,119,140,159,179,199,219,240,259,279,298,319,339,359,379,399,420,438,459,479,498,519,539,558,579,598,619,639,660,680,699,720,739,760,779,800,819,839,859,879,899,919,939,959,979,999,1019,1039,1059,1079,1099,1120,1139,1159],"xSR":741.5,"ySR":573.95,"xT1":424.9,"yT1":0,"xT2":1058.1,"yT2":0,"toosoon":0,"cond_shown":"Incongruent","ratio_trial":300,"L_num":4,"L_den":5,"R_num":8,"R_den":16,"correct_side":1,"subjID":"davidsantiagoforerocuervo18","gender":"0","school":"6","age":"11"},{"start_time":1551880740842,"click_time":1551880742425,"finger_time":1551880741965,"fix_duration":497.6997252319578,"trial":39,"RT":1123,"MT":460,"sideResp":1,"stimulus":[],"xmouse":[785,785,785,785,785,787,788,789,792,793,793,793,793,793,793,793,793,793,793,793,793,793,793,793,793,793,793,793,793,793,793,793,793,793,793,793,793,793,793,793,793,793,793,793,793,793,793,793,793,793,790,786,782,780,772,747,726,703,675,632,554,507,464,424,356,327,304,288,286,286,292,295,298,299,299,305,314,332,380,440],"ymouse":[631,631,631,631,631,631,631,631,631,631,631,631,631,631,631,631,631,631,631,631,631,631,631,631,631,631,631,631,631,631,631,631,631,631,631,631,631,631,631,631,631,631,631,631,631,631,631,631,631,631,631,631,631,631,625,593,563,530,500,454,383,332,267,212,122,83,39,0,0,0,0,0,0,0,0,0,5,18,50,76],"timestamp_mouse":[6,28,42,62,82,101,122,141,162,182,202,222,241,261,282,302,322,342,362,381,402,422,442,462,482,501,521,542,562,582,602,622,642,661,682,702,722,742,762,781,801,822,842,862,881,902,922,942,962,981,1002,1023,1042,1062,1082,1102,1123,1142,1161,1182,1203,1221,1241,1262,1283,1301,1323,1342,1363,1383,1402,1422,1443,1462,1483,1502,1523,1542,1562,1583],"xSR":741.5,"ySR":573.95,"xT1":424.9,"yT1":0,"xT2":1058.1,"yT2":0,"toosoon":0,"cond_shown":"Incongruent","ratio_trial":100,"L_num":3,"L_den":9,"R_num":7,"R_den":30,"correct_side":1,"subjID":"davidsantiagoforerocuervo18","gender":"0","school":"6","age":"11"},{"start_time":1551880743996,"click_time":1551880745264,"finger_time":1551880744845,"fix_duration":250,"trial":40,"RT":849,"MT":419,"sideResp":1,"stimulus":[],"xmouse":[783,783,783,783,783,783,783,783,783,783,783,783,783,783,783,783,783,783,783,783,783,783,783,783,783,783,783,783,783,783,783,782,771,758,752,749,749,749,749,749,749,746,729,712,691,673,657,620,594,567,522,493,446,431,423,420,418,418,418,418,418,418,421,425],"ymouse":[632,632,632,632,632,632,632,632,632,632,632,632,632,632,632,632,632,632,632,632,632,632,632,632,632,632,632,632,632,632,632,632,627,619,613,609,608,606,606,603,600,585,549,524,494,468,447,398,362,321,264,231,181,157,141,129,121,104,84,76,61,57,53,52],"timestamp_mouse":[8,29,47,68,88,109,128,148,168,188,208,228,248,268,288,308,329,348,368,388,408,428,447,468,489,508,527,549,567,588,608,628,649,668,688,707,728,749,768,787,808,828,849,868,888,907,928,947,968,989,1008,1028,1047,1068,1088,1108,1128,1148,1168,1187,1208,1227,1249,1268],"xSR":741.5,"ySR":573.95,"xT1":424.9,"yT1":0,"xT2":1058.1,"yT2":0,"toosoon":0,"cond_shown":"Congruent","ratio_trial":300,"L_num":20,"L_den":25,"R_num":14,"R_den":28,"correct_side":1,"subjID":"davidsantiagoforerocuervo18","gender":"0","school":"6","age":"11"},{"start_time":1551880752565,"click_time":1551880753744,"finger_time":1551880753304,"fix_duration":360.5886088285948,"trial":41,"RT":739,"MT":440,"sideResp":2,"stimulus":[],"xmouse":[786,786,785,785,785,785,785,785,785,785,785,785,785,785,785,785,785,785,785,785,785,785,785,785,785,785,785,785,785,785,785,786,789,804,819,839,858,874,889,891,902,907,917,926,926,926,929,937,969,995,1023,1054,1067,1082,1085,1085,1080,1075,1073],"ymouse":[610,610,612,613,613,613,613,613,613,613,613,613,613,613,613,613,613,613,613,613,613,613,613,613,613,613,613,613,613,613,613,614,614,614,613,608,601,591,580,576,561,557,551,545,545,545,540,523,449,385,320,249,217,160,137,122,112,104,99],"timestamp_mouse":[26,39,60,79,100,119,140,160,179,199,218,239,259,279,298,318,339,359,378,399,419,440,459,479,499,519,539,559,579,598,619,639,659,680,699,719,739,759,779,799,819,839,859,879,899,919,939,958,979,998,1019,1039,1058,1079,1099,1119,1139,1158,1179],"xSR":741.5,"ySR":573.95,"xT1":424.9,"yT1":0,"xT2":1058.1,"yT2":0,"toosoon":0,"cond_shown":"Congruent","ratio_trial":200,"L_num":6,"L_den":20,"R_num":11,"R_den":22,"correct_side":2,"subjID":"davidsantiagoforerocuervo18","gender":"0","school":"6","age":"11"},{"start_time":1551880755977,"click_time":1551880756964,"finger_time":1551880756564,"fix_duration":1291.7869679595713,"trial":42,"RT":587,"MT":400,"sideResp":1,"stimulus":[],"xmouse":[818,818,818,818,818,818,818,818,818,818,818,818,818,818,818,818,818,818,818,818,818,818,818,818,818,818,814,807,755,702,639,566,488,456,451,449,448,447,444,444,444,444,449,458,464,469,474,484,492,504],"ymouse":[637,637,637,637,637,637,637,637,637,637,637,637,637,637,637,637,637,637,637,637,637,637,637,637,637,637,637,634,592,545,486,423,351,318,309,305,301,295,273,259,241,236,221,207,196,187,177,144,117,83],"timestamp_mouse":[6,27,47,67,87,107,127,147,166,187,207,228,247,267,287,306,326,346,367,387,407,427,446,466,487,506,527,547,567,587,607,627,647,668,688,707,727,747,767,787,807,827,847,867,887,907,927,948,966,987],"xSR":741.5,"ySR":573.95,"xT1":424.9,"yT1":0,"xT2":1058.1,"yT2":0,"toosoon":0,"cond_shown":"Congruent","ratio_trial":200,"L_num":12,"L_den":15,"R_num":6,"R_den":10,"correct_side":1,"subjID":"davidsantiagoforerocuervo18","gender":"0","school":"6","age":"11"},{"start_time":1551880758948,"click_time":1551880760364,"finger_time":1551880760204,"fix_duration":1222.3776327828941,"trial":43,"RT":1256,"MT":160,"sideResp":2,"stimulus":[],"xmouse":[799,799,799,799,799,799,799,799,799,799,799,799,799,799,799,799,799,799,799,799,799,799,799,799,799,799,799,799,799,799,799,799,799,799,799,799,799,799,799,799,799,799,799,799,799,799,799,799,799,799,799,799,799,799,799,800,801,806,811,827,834,839,846,863,908,943,983,1023,1090,1120,1143],"ymouse":[646,646,646,646,646,646,646,646,646,646,646,646,646,646,646,646,646,646,646,646,646,646,646,646,646,646,646,646,646,646,646,646,646,646,646,646,646,646,646,646,646,646,646,646,646,646,646,646,646,646,646,646,646,646,646,646,646,637,629,611,602,594,581,553,474,411,344,275,157,114,80],"timestamp_mouse":[26,36,56,77,96,116,137,155,177,196,216,235,255,276,295,316,335,356,376,395,415,436,456,477,496,516,536,556,576,596,615,635,656,676,696,715,735,756,776,796,816,836,856,876,896,916,936,956,976,996,1016,1036,1056,1077,1096,1116,1136,1156,1176,1196,1216,1236,1256,1275,1296,1315,1336,1356,1376,1396,1416],"xSR":741.5,"ySR":573.95,"xT1":424.9,"yT1":0,"xT2":1058.1,"yT2":0,"toosoon":0,"cond_shown":"Incongruent","ratio_trial":100,"L_num":13,"L_den":26,"R_num":12,"R_den":20,"correct_side":2,"subjID":"davidsantiagoforerocuervo18","gender":"0","school":"6","age":"11"},{"start_time":1551880761691,"click_time":1551880763164,"finger_time":1551880762704,"fix_duration":624.4873524334364,"trial":44,"RT":1013,"MT":460,"sideResp":1,"stimulus":[],"xmouse":[747,747,747,747,747,747,747,747,747,747,747,747,747,747,747,747,747,747,747,747,747,747,747,747,747,747,747,747,747,747,747,747,747,747,747,747,747,747,747,747,747,747,747,747,747,747,747,747,747,743,730,714,662,616,584,552,529,482,465,453,445,444,442,442,446,455,461,470,471,471,471,472,473,472],"ymouse":[640,640,640,640,640,640,640,640,640,640,640,640,640,640,640,640,640,640,640,640,640,640,640,640,640,640,640,640,640,640,640,640,640,640,640,640,640,640,640,640,640,640,640,640,640,640,640,640,637,631,613,592,535,498,468,427,394,312,278,257,240,231,217,206,191,168,157,141,139,138,135,128,101,83],"timestamp_mouse":[14,33,53,73,93,114,133,153,174,192,213,234,253,273,292,313,334,353,373,393,413,433,453,473,492,513,533,553,573,593,614,633,653,673,693,713,732,753,773,793,813,833,852,873,893,913,933,953,973,993,1013,1034,1053,1074,1093,1113,1133,1153,1173,1193,1213,1232,1253,1272,1293,1313,1332,1353,1372,1393,1413,1433,1453,1473],"xSR":741.5,"ySR":573.95,"xT1":424.9,"yT1":0,"xT2":1058.1,"yT2":0,"toosoon":0,"cond_shown":"Incongruent","ratio_trial":100,"L_num":6,"L_den":10,"R_num":7,"R_den":14,"correct_side":1,"subjID":"davidsantiagoforerocuervo18","gender":"0","school":"6","age":"11"},{"start_time":1551880765592,"click_time":1551880767525,"finger_time":1551880766884,"fix_duration":306.53801178471207,"trial":45,"RT":1292,"MT":641,"sideResp":1,"stimulus":[],"xmouse":[785,785,785,785,785,785,785,785,785,785,785,785,785,785,785,785,785,785,785,785,785,785,785,785,785,785,785,785,785,785,785,785,785,785,785,785,786,786,787,787,787,787,787,787,787,787,787,787,787,787,787,787,787,787,787,787,787,787,787,787,787,787,776,765,749,729,702,641,620,606,593,579,569,564,554,540,532,530,530,530,530,529,519,516,515,515,515,515,515,515,515,514,514,514,514,512,508],"ymouse":[627,627,627,627,627,627,627,627,627,627,627,627,627,627,627,627,627,627,627,627,627,627,627,627,627,627,627,627,627,627,627,627,627,627,627,627,626,626,626,626,626,626,626,626,626,626,626,626,626,626,626,626,626,626,626,626,626,626,626,626,626,625,608,593,573,545,511,447,424,407,392,371,355,347,337,326,315,303,296,280,249,225,182,172,168,168,168,168,165,163,159,149,136,127,117,108,99],"timestamp_mouse":[12,32,52,72,92,112,132,152,172,192,212,232,252,272,292,312,333,352,372,391,411,432,453,472,492,511,532,552,572,592,612,632,651,673,693,712,731,752,772,792,812,831,852,873,891,911,932,952,972,991,1013,1032,1052,1072,1092,1112,1133,1152,1172,1193,1212,1231,1253,1272,1292,1312,1332,1352,1372,1392,1411,1431,1453,1472,1492,1511,1532,1552,1572,1592,1612,1632,1653,1673,1692,1711,1731,1751,1771,1792,1811,1832,1852,1872,1892,1912,1933],"xSR":741.5,"ySR":573.95,"xT1":424.9,"yT1":0,"xT2":1058.1,"yT2":0,"toosoon":0,"cond_shown":"Congruent","ratio_trial":100,"L_num":3,"L_den":6,"R_num":2,"R_den":5,"correct_side":1,"subjID":"davidsantiagoforerocuervo18","gender":"0","school":"6","age":"11"},{"start_time":1551880768474,"click_time":1551880770844,"finger_time":1551880769664,"fix_duration":250,"trial":46,"RT":1190,"MT":1180,"sideResp":2,"stimulus":[],"xmouse":[799,799,799,799,799,799,799,799,799,799,799,799,799,799,799,799,799,799,799,799,799,799,799,799,799,799,799,799,799,799,799,799,799,799,799,799,799,799,799,799,799,799,799,799,799,799,799,799,799,799,799,799,799,799,799,799,798,790,759,738,710,678,614,586,558,541,534,532,536,541,546,549,552,562,563,563,558,556,549,548,546,546,546,546,546,546,546,546,546,546,546,546,546,547,548,550,550,553,562,570,581,601,637,855,1014,1175,1387,1490,1576,1576,1576,1576,1566,1539,1486,1434,1335,1263,1141],"ymouse":[600,600,600,600,600,600,600,600,600,600,600,600,600,600,600,600,600,600,600,600,600,600,600,600,600,600,600,600,600,600,600,600,600,600,600,600,600,600,600,600,600,600,600,600,600,600,600,600,600,600,600,600,600,600,600,600,600,599,587,573,550,526,464,425,377,337,308,279,242,220,196,176,154,120,110,101,82,71,49,44,43,43,43,43,43,43,43,43,43,43,43,43,45,48,50,54,56,62,73,81,89,99,110,146,165,184,191,191,191,191,191,191,147,125,97,81,68,65,65],"timestamp_mouse":[10,30,49,70,89,109,130,151,169,191,209,229,250,270,290,310,330,349,370,390,410,430,449,470,489,509,530,550,570,590,611,630,651,670,690,709,729,750,770,790,810,830,850,870,889,910,930,950,970,990,1010,1030,1049,1070,1090,1110,1130,1151,1171,1190,1210,1230,1251,1270,1290,1309,1329,1350,1370,1390,1410,1430,1450,1470,1490,1509,1530,1550,1571,1591,1610,1630,1649,1670,1690,1710,1730,1749,1769,1790,1810,1830,1850,1869,1890,1910,1931,1950,1970,1990,2009,2030,2050,2070,2091,2110,2130,2149,2170,2189,2210,2230,2251,2269,2290,2310,2330,2350,2370],"xSR":741.5,"ySR":573.95,"xT1":424.9,"yT1":0,"xT2":1058.1,"yT2":0,"toosoon":0,"cond_shown":"Congruent","ratio_trial":100,"L_num":2,"L_den":5,"R_num":11,"R_den":22,"correct_side":2,"subjID":"davidsantiagoforerocuervo18","gender":"0","school":"6","age":"11"},{"start_time":1551880772195,"click_time":1551880773425,"finger_time":1551880772864,"fix_duration":250,"trial":47,"RT":669,"MT":561,"sideResp":1,"stimulus":[],"xmouse":[788,788,788,788,788,788,788,788,788,788,788,788,788,787,787,787,787,787,787,787,787,787,787,787,787,787,787,787,787,787,787,785,754,729,708,698,695,694,694,694,694,694,694,694,694,694,690,683,675,669,651,598,507,475,459,453,452,452,452,452,452,452],"ymouse":[646,646,646,646,646,646,646,646,646,646,647,647,647,646,646,646,646,646,646,646,646,646,646,646,646,646,646,646,646,646,646,644,622,608,593,583,580,578,578,578,578,578,578,578,578,578,574,561,545,523,492,399,224,161,134,120,115,115,114,113,106,92],"timestamp_mouse":[12,31,49,68,89,110,129,150,168,190,208,228,249,268,288,309,329,349,369,388,409,429,449,469,489,509,529,549,568,589,608,629,649,669,689,709,729,750,770,790,809,830,849,868,888,909,930,949,969,989,1010,1029,1049,1070,1089,1109,1130,1148,1170,1189,1210,1230],"xSR":741.5,"ySR":573.95,"xT1":424.9,"yT1":0,"xT2":1058.1,"yT2":0,"toosoon":0,"cond_shown":"Incongruent","ratio_trial":100,"L_num":13,"L_den":26,"R_num":6,"R_den":10,"correct_side":2,"subjID":"davidsantiagoforerocuervo18","gender":"0","school":"6","age":"11"},{"start_time":1551880775291,"click_time":1551880776884,"finger_time":1551880776664,"fix_duration":645.9332380946504,"trial":48,"RT":1373,"MT":220,"sideResp":2,"stimulus":[],"xmouse":[802,802,802,802,802,802,802,802,802,802,802,802,802,802,802,802,802,802,802,802,802,802,802,802,802,802,802,802,802,802,802,802,802,802,802,802,802,802,802,802,802,802,802,802,802,802,802,802,802,802,802,802,802,802,802,802,802,802,802,802,802,802,802,802,802,802,802,818,834,858,891,983,1033,1069,1093,1110,1121,1125,1127,1130],"ymouse":[634,634,634,634,634,634,634,634,634,634,634,634,634,634,634,634,634,634,634,634,634,634,634,634,634,634,634,634,634,634,634,634,634,634,634,634,634,634,634,634,634,634,634,634,634,634,634,634,634,634,634,634,634,634,634,634,634,634,634,634,634,634,634,634,634,634,631,596,570,534,480,354,295,248,214,186,153,135,115,96],"timestamp_mouse":[14,33,52,73,93,113,133,153,173,193,212,232,253,273,293,313,333,352,372,393,413,433,453,473,493,513,533,552,572,593,613,633,653,673,692,712,734,753,773,793,813,833,853,873,892,913,933,953,973,993,1013,1033,1053,1072,1093,1114,1133,1153,1173,1193,1214,1233,1253,1273,1294,1313,1333,1353,1373,1393,1414,1433,1453,1473,1492,1513,1534,1553,1573,1593],"xSR":741.5,"ySR":573.95,"xT1":424.9,"yT1":0,"xT2":1058.1,"yT2":0,"toosoon":0,"cond_shown":"Congruent","ratio_trial":100,"L_num":2,"L_den":5,"R_num":6,"R_den":12,"correct_side":2,"subjID":"davidsantiagoforerocuervo18","gender":"0","school":"6","age":"11"},{"start_time":1551880777984,"click_time":1551880779384,"finger_time":1551880779024,"fix_duration":479.68110689987145,"trial":49,"RT":1040,"MT":360,"sideResp":2,"stimulus":[],"xmouse":[805,805,805,805,805,805,805,805,805,805,805,805,805,803,803,803,803,803,803,803,803,803,803,803,803,803,803,803,803,803,803,803,803,803,803,803,803,803,803,803,803,803,803,803,803,803,803,803,803,803,806,814,835,849,860,869,879,889,909,918,928,937,963,974,990,1007,1020,1052,1064,1075,1081],"ymouse":[616,616,616,616,616,616,616,616,616,616,616,616,616,617,617,617,617,617,617,617,617,617,617,617,617,617,617,617,617,617,617,617,617,617,617,617,617,617,617,617,617,617,617,617,617,617,617,617,617,617,607,594,566,545,523,499,476,455,412,391,369,352,298,271,239,205,183,137,120,105,95],"timestamp_mouse":[9,21,41,60,80,99,120,140,160,180,200,220,239,260,280,300,320,340,360,380,400,420,440,460,480,500,520,541,560,580,600,620,639,660,680,700,720,741,760,780,800,820,840,860,881,899,919,940,960,980,1000,1021,1040,1059,1079,1101,1119,1140,1160,1180,1200,1220,1241,1259,1280,1300,1319,1340,1360,1380,1400],"xSR":741.5,"ySR":573.95,"xT1":424.9,"yT1":0,"xT2":1058.1,"yT2":0,"toosoon":0,"cond_shown":"Incongruent","ratio_trial":100,"L_num":8,"L_den":20,"R_num":1,"R_den":2,"correct_side":2,"subjID":"davidsantiagoforerocuervo18","gender":"0","school":"6","age":"11"},{"start_time":1551880780657,"click_time":1551880783484,"finger_time":1551880782424,"fix_duration":250,"trial":50,"RT":1767,"MT":1060,"sideResp":2,"stimulus":[],"xmouse":[766,766,766,766,766,766,766,766,766,766,766,766,766,766,766,766,766,766,766,766,766,766,766,766,766,766,766,766,766,766,766,766,766,766,766,766,766,766,766,766,766,766,766,766,766,766,766,766,766,766,766,766,766,766,766,766,766,766,766,766,766,766,766,766,766,766,766,766,766,766,766,766,766,766,766,766,766,766,766,766,766,766,766,768,777,787,801,827,850,874,893,907,919,934,940,950,960,979,998,1034,1043,1053,1056,1058,1059,1061,1063,1065,1070,1073,1073,1073,1074,1074,1074,1074,1075,1075,1075,1075,1075,1075,1074,1065,1052,1036,1020,1004,998,998,998,998,998,998,998,998,1000,1008,1040,1094,1111,1120],"ymouse":[619,619,619,619,619,619,619,619,619,619,619,619,619,619,619,619,619,619,619,619,619,619,619,619,619,619,619,619,619,619,619,619,619,619,619,619,619,619,619,619,619,619,619,619,619,619,619,619,619,619,619,619,619,619,619,619,619,619,619,619,619,619,619,619,619,619,619,619,619,619,619,619,619,619,619,619,619,619,619,619,619,619,619,619,616,611,597,577,543,492,449,416,394,358,341,320,295,252,221,170,156,147,142,140,139,136,134,130,125,122,122,121,120,119,119,119,118,118,118,118,118,118,119,134,150,166,183,194,200,200,200,200,200,200,200,200,199,192,168,126,109,95],"timestamp_mouse":[7,29,47,67,87,108,127,147,167,188,207,227,247,267,287,307,326,347,366,387,408,427,447,468,487,507,527,547,567,587,607,628,647,668,687,706,727,747,767,787,807,827,847,868,887,907,926,946,968,987,1007,1026,1047,1067,1087,1106,1127,1146,1167,1188,1207,1226,1246,1267,1287,1307,1327,1347,1368,1386,1407,1427,1447,1467,1487,1507,1527,1547,1566,1586,1606,1627,1648,1667,1687,1707,1727,1747,1767,1786,1808,1827,1847,1868,1887,1908,1928,1947,1967,1987,2008,2027,2047,2067,2086,2108,2127,2147,2166,2188,2207,2227,2247,2267,2287,2307,2326,2347,2367,2387,2407,2426,2446,2467,2486,2506,2526,2547,2568,2587,2607,2627,2647,2668,2688,2707,2727,2748,2767,2787,2807,2827],"xSR":741.5,"ySR":573.95,"xT1":424.9,"yT1":0,"xT2":1058.1,"yT2":0,"toosoon":0,"cond_shown":"Congruent","ratio_trial":300,"L_num":1,"L_den":5,"R_num":3,"R_den":6,"correct_side":2,"subjID":"davidsantiagoforerocuervo18","gender":"0","school":"6","age":"11"},{"start_time":1551880785260,"click_time":1551880787084,"finger_time":1551880786684,"fix_duration":833.3862746538995,"trial":51,"RT":1424,"MT":400,"sideResp":2,"stimulus":[],"xmouse":[803,803,803,803,803,803,803,803,803,803,803,803,803,803,803,803,803,803,803,803,803,803,803,803,803,803,803,803,802,799,797,796,795,794,794,794,794,794,794,794,794,794,794,794,794,794,794,794,794,794,794,794,794,794,794,794,794,794,794,794,794,794,794,794,794,794,794,794,795,819,832,842,853,888,911,945,987,1016,1032,1039,1041,1043,1046,1048,1053,1053,1053,1053,1053,1055,1057,1061],"ymouse":[625,625,625,625,625,625,625,625,625,625,625,625,625,625,625,625,625,625,625,625,625,625,625,625,625,625,625,625,626,626,626,626,626,626,626,626,626,626,626,626,626,626,626,626,626,626,626,626,626,626,626,626,626,626,626,626,626,626,626,626,626,626,626,626,626,626,626,626,625,606,590,566,525,403,334,251,151,54,0,0,0,0,0,0,0,0,0,0,0,1,6,14],"timestamp_mouse":[16,30,44,65,84,104,124,144,164,184,205,224,244,265,284,303,324,344,364,384,404,423,444,464,484,503,525,544,564,584,604,624,644,663,684,704,724,743,763,783,804,824,843,864,884,904,924,945,964,984,1004,1023,1043,1064,1085,1104,1125,1143,1164,1185,1204,1224,1244,1263,1285,1304,1324,1344,1364,1384,1404,1424,1444,1464,1485,1504,1524,1545,1564,1584,1604,1624,1644,1663,1684,1705,1725,1743,1764,1784,1804,1824],"xSR":741.5,"ySR":573.95,"xT1":424.9,"yT1":0,"xT2":1058.1,"yT2":0,"toosoon":0,"cond_shown":"Congruent","ratio_trial":200,"L_num":3,"L_den":10,"R_num":14,"R_den":28,"correct_side":2,"subjID":"davidsantiagoforerocuervo18","gender":"0","school":"6","age":"11"},{"start_time":1551880789268,"click_time":1551880791264,"finger_time":1551880789844,"fix_duration":1463.8281656679499,"trial":52,"RT":576,"MT":1420,"sideResp":2,"stimulus":[],"xmouse":[761,761,761,761,761,761,761,761,761,761,761,761,761,761,761,761,761,761,761,761,761,761,761,761,761,761,761,756,740,727,708,687,664,623,616,616,616,616,616,616,616,616,616,616,616,616,616,616,629,644,663,684,705,726,728,732,735,740,756,765,772,776,779,781,783,785,792,800,844,891,951,1021,1214,1304,1362,1393,1408,1410,1404,1352,1279,1205,1142,1064,1038,1017,1000,994,986,983,982,980,980,980,981,990,996,1004,1039,1062],"ymouse":[603,603,603,603,603,603,603,603,603,603,603,603,603,603,603,603,603,603,603,603,603,603,603,603,603,603,603,603,597,585,561,535,508,460,450,448,448,448,448,448,448,448,448,448,448,448,448,448,430,414,393,371,353,326,322,316,314,308,282,262,241,223,210,196,192,190,186,183,171,156,139,120,78,61,43,33,24,23,8,0,0,0,0,0,0,4,14,21,32,37,41,45,47,56,63,77,85,89,92,88],"timestamp_mouse":[15,35,56,76,96,116,136,156,176,196,216,236,255,276,296,315,335,356,376,395,416,436,456,475,496,516,536,556,576,596,616,635,656,676,695,716,736,756,775,795,816,836,857,875,896,916,936,956,976,996,1017,1036,1055,1076,1096,1116,1136,1156,1177,1196,1215,1236,1256,1276,1296,1315,1336,1356,1376,1396,1416,1436,1457,1475,1496,1516,1536,1556,1575,1595,1616,1636,1656,1675,1696,1716,1735,1756,1776,1797,1816,1835,1855,1875,1896,1915,1935,1956,1975,1996],"xSR":741.5,"ySR":573.95,"xT1":424.9,"yT1":0,"xT2":1058.1,"yT2":0,"toosoon":0,"cond_shown":"Incongruent","ratio_trial":100,"L_num":8,"L_den":20,"R_num":1,"R_den":2,"correct_side":2,"subjID":"davidsantiagoforerocuervo18","gender":"0","school":"6","age":"11"},{"start_time":1551880798357,"click_time":1551880799664,"finger_time":1551880799224,"fix_duration":1112.6331397236713,"trial":53,"RT":867,"MT":440,"sideResp":2,"stimulus":[],"xmouse":[791,791,791,791,791,791,791,791,792,792,793,793,793,793,793,793,793,793,793,793,793,793,793,793,793,793,793,793,793,793,793,793,793,793,793,793,793,793,794,800,805,811,816,818,821,824,827,830,834,842,851,853,863,870,884,893,903,916,948,964,979,994,1016,1043,1055,1059],"ymouse":[659,659,659,659,659,659,659,659,659,658,658,657,657,657,657,657,657,657,657,657,657,657,657,657,657,657,657,657,657,657,657,657,657,657,657,657,657,657,655,638,625,603,584,570,554,544,531,519,501,463,431,422,391,372,338,319,298,274,227,205,183,163,132,93,73,62],"timestamp_mouse":[8,31,46,67,87,108,127,147,167,187,207,227,247,266,286,306,326,347,367,387,407,427,446,467,487,506,527,547,567,587,607,627,647,668,686,706,727,747,767,787,807,828,847,867,887,907,927,947,966,987,1006,1027,1047,1066,1087,1106,1126,1147,1168,1186,1208,1226,1247,1267,1286,1307],"xSR":741.5,"ySR":573.95,"xT1":424.9,"yT1":0,"xT2":1058.1,"yT2":0,"toosoon":0,"cond_shown":"Incongruent","ratio_trial":200,"L_num":3,"L_den":4,"R_num":11,"R_den":20,"correct_side":1,"subjID":"davidsantiagoforerocuervo18","gender":"0","school":"6","age":"11"},{"start_time":1551880802331,"click_time":1551880803644,"finger_time":1551880803404,"fix_duration":1305.2145211772925,"trial":54,"RT":1073,"MT":240,"sideResp":1,"stimulus":[],"xmouse":[805,805,805,805,805,805,805,805,805,805,805,805,805,805,805,805,805,805,805,805,805,805,805,805,805,805,805,805,805,805,805,805,805,805,805,805,805,805,805,805,805,805,805,805,804,802,802,802,800,800,800,799,798,785,773,733,705,677,652,622,613,601,585,547,486,466],"ymouse":[616,616,616,616,616,616,616,616,616,616,616,616,616,616,616,616,616,616,616,616,616,616,616,616,616,616,616,616,616,616,616,616,616,616,616,616,616,616,616,616,616,616,616,616,610,597,592,588,586,584,584,581,579,559,539,469,426,389,359,329,320,307,285,232,133,84],"timestamp_mouse":[25,33,53,72,93,113,134,153,173,193,213,233,253,274,293,313,333,353,373,393,413,433,453,473,493,513,533,553,573,593,612,632,652,673,694,713,733,753,773,793,813,833,852,872,892,913,932,953,972,993,1014,1034,1052,1073,1093,1112,1132,1153,1174,1193,1213,1233,1252,1273,1293,1313],"xSR":741.5,"ySR":573.95,"xT1":424.9,"yT1":0,"xT2":1058.1,"yT2":0,"toosoon":0,"cond_shown":"Congruent","ratio_trial":200,"L_num":20,"L_den":25,"R_num":9,"R_den"