[{"start_time":1551881412578,"click_time":1551881413646,"finger_time":1551881413206,"fix_duration":569.1252957392189,"trial":0,"RT":628,"MT":440,"sideResp":1,"stimulus":"img/500/randomdotsizeEA/L/13_Ratio_500_L_12_R_6.png","xmouse":[813,813,813,813,813,813,813,813,813,813,813,813,813,813,813,813,813,813,813,813,813,813,813,813,813,813,813,813,813,813,813,812,804,792,778,761,723,708,691,675,669,662,657,652,646,637,595,571,554,542,534,534,529,516],"ymouse":[578,578,578,578,578,578,578,578,578,578,578,578,578,578,578,578,578,578,578,578,578,578,578,578,578,578,578,578,578,578,578,566,541,514,482,437,362,324,286,243,232,210,189,180,168,156,119,104,93,85,82,82,80,75],"timestamp_mouse":[7,31,47,67,87,107,127,147,167,188,207,227,247,267,287,308,328,347,367,387,407,427,448,468,487,507,527,547,568,587,607,628,647,667,687,707,727,748,767,787,807,827,847,867,887,907,927,947,968,987,1007,1027,1047,1067],"xSR":741.5,"ySR":526.5,"xT1":424.9,"yT1":0,"xT2":1058.1,"yT2":0,"toosoon":0,"cond_shown":"randomdotsizeEA","ratio_trial":500,"smaller_num":"6","larger_num":"12","correct_side":1,"subjID":"davidsantiagoforerocuervo18","gender":"0","age":"11","school":"6","test":{"fix_dur":[250,1500],"timestim":300,"targets_dim":[100,100],"targets_relative_coord":[0.3,0.7],"size_stim":[880,420],"start_dim":[100,100],"size_start":[300,300],"size_fix":60,"samplingrate":20,"img_types":["equaldotsize","equaldotanddens","randomdotsizeEA"],"ratios":[250,500,750,900],"rep_conds":9,"nTrials":120,"trials_to_rest":500,"Trials_order":[65,94,16,22,45,27,43,41,59,88,81,114,96,63,12,119,97,33,24,78,50,56,71,57,49,108,54,9,29,79,46,75,55,87,39,111,92,34,102,31,6,30,90,0,100,73,18,2,32,104,67,23,82,80,14,118,91,4,74,117,95,10,113,83,35,76,107,98,13,72,68,70,7,101,110,112,77,51,66,28,53,25,58,42,37,86,89,84,21,5,3,8,106,115,109,48,69,105,61,52,20,85,103,38,60,62,99,36,17,15,44,40,1,64,19,47,11,116,26,93],"cond_shown":["randomdotsizeEA","equaldotanddens","equaldotanddens","equaldotanddens","equaldotsize","equaldotsize","equaldotanddens","randomdotsizeEA","randomdotsizeEA","equaldotanddens","equaldotsize","equaldotsize","equaldotsize","equaldotsize","equaldotsize","randomdotsizeEA","equaldotanddens","equaldotsize","equaldotsize","equaldotsize","randomdotsizeEA","randomdotsizeEA","randomdotsizeEA","equaldotsize","equaldotanddens","equaldotsize","equaldotsize","equaldotsize","randomdotsizeEA","equaldotanddens","equaldotanddens","equaldotsize","equaldotanddens","equaldotsize","equaldotsize","equaldotsize","randomdotsizeEA","equaldotanddens","equaldotsize","equaldotanddens","equaldotsize","equaldotsize","equaldotsize","equaldotsize","equaldotanddens","equaldotanddens","equaldotsize","randomdotsizeEA","randomdotsizeEA","randomdotsizeEA","equaldotanddens","randomdotsizeEA","equaldotanddens","randomdotsizeEA","randomdotsizeEA","equaldotanddens","equaldotanddens","equaldotanddens","randomdotsizeEA","equaldotsize","randomdotsizeEA","equaldotanddens","randomdotsizeEA","randomdotsizeEA","randomdotsizeEA","equaldotanddens","randomdotsizeEA","randomdotsizeEA","equaldotanddens","equaldotsize","randomdotsizeEA","equaldotanddens","equaldotanddens","randomdotsizeEA","randomdotsizeEA","equaldotanddens","randomdotsizeEA","equaldotsize","equaldotsize","equaldotanddens","randomdotsizeEA","equaldotanddens","equaldotanddens","equaldotsize","equaldotanddens","randomdotsizeEA","randomdotsizeEA","equaldotsize","equaldotsize","randomdotsizeEA","equaldotsize","randomdotsizeEA","equaldotanddens","equaldotanddens","equaldotanddens","equaldotsize","equaldotsize","equaldotsize","equaldotanddens","equaldotanddens","randomdotsizeEA","equaldotanddens","equaldotanddens","randomdotsizeEA","equaldotsize","randomdotsizeEA","equaldotsize","equaldotsize","randomdotsizeEA","equaldotsize","randomdotsizeEA","equaldotanddens","equaldotanddens","equaldotanddens","equaldotanddens","randomdotsizeEA","randomdotsizeEA","randomdotsizeEA","randomdotsizeEA","equaldotsize"],"ratio_trial":[500,900,500,900,900,500,750,500,900,500,900,750,250,500,250,900,250,900,250,750,250,750,900,900,250,250,750,900,500,750,900,500,750,500,500,500,750,900,750,750,750,750,750,250,500,250,750,250,750,750,750,900,900,750,250,900,750,500,250,900,900,900,500,900,900,500,900,250,250,250,750,900,750,500,250,500,500,500,750,500,500,250,900,750,250,250,500,250,900,500,500,750,900,750,250,250,900,900,250,500,750,250,750,250,250,250,500,250,500,500,750,500,250,500,750,900,900,750,250,900],"smaller_num":["6","18","6","18","18","5","9","9","9","9","9","3","2","9","2","9","3","18","4","3","6","15","18","18","2","3","15","9","2","3","18","3","6","4","10","2","6","18","15","6","15","6","12","2","4","3","6","3","6","6","15","9","9","6","4","18","12","5","1","18","18","18","2","9","18","10","9","6","6","6","12","18","3","10","2","2","1","10","3","6","3","6","18","18","4","6","10","5","18","4","9","6","18","3","1","6","18","18","6","1","15","3","3","3","2","3","4","4","10","9","3","9","6","4","6","18","18","15","6","9"],"larger_num":["12","20","12","20","20","10","12","18","10","18","10","4","8","18","8","10","12","20","16","4","24","20","20","20","8","12","20","10","4","4","20","6","8","8","20","4","8","20","20","8","20","8","16","8","8","12","8","12","8","8","20","10","10","8","16","20","16","10","4","20","20","20","4","10","20","20","10","24","24","24","16","20","4","20","8","4","2","20","4","12","6","24","20","24","16","24","20","20","20","8","18","8","20","4","4","24","20","20","24","2","20","12","4","12","8","12","8","16","20","18","4","18","24","8","8","20","20","20","24","10"],"correct_side":[1,1,1,1,2,1,2,2,1,2,2,1,1,2,1,2,2,1,2,1,2,2,2,1,1,2,2,2,1,1,2,2,2,1,2,1,1,1,2,1,2,1,2,1,1,1,1,2,2,2,1,2,2,1,1,1,2,2,2,2,1,1,2,2,1,2,1,2,1,2,2,1,1,2,1,1,2,2,2,1,2,1,1,1,1,2,2,2,1,1,2,1,2,1,2,2,1,2,2,2,2,2,1,2,2,1,1,2,2,1,2,1,1,1,1,1,1,2,2,2],"img_shown":["img/500/randomdotsizeEA/L/13_Ratio_500_L_12_R_6.png","img/900/equaldotanddens/L/2_Ratio_900_L_20_R_18.png","img/500/equaldotanddens/L/13_Ratio_500_L_12_R_6.png","img/900/equaldotanddens/L/8_Ratio_900_L_20_R_18.png","img/900/equaldotsize/R/12_Ratio_900_L_18_R_20.png","img/500/equaldotsize/L/7_Ratio_500_L_10_R_5.png","img/750/equaldotanddens/R/15_Ratio_750_L_9_R_12.png","img/500/randomdotsizeEA/R/6_Ratio_500_L_9_R_18.png","img/900/randomdotsizeEA/L/1_Ratio_900_L_10_R_9.png","img/500/equaldotanddens/R/1_Ratio_500_L_9_R_18.png","img/900/equaldotsize/R/3_Ratio_900_L_9_R_10.png","img/750/equaldotsize/L/9_Ratio_750_L_4_R_3.png","img/250/equaldotsize/L/7_Ratio_250_L_8_R_2.png","img/500/equaldotsize/R/1_Ratio_500_L_9_R_18.png","img/250/equaldotsize/L/3_Ratio_250_L_8_R_2.png","img/900/randomdotsizeEA/R/3_Ratio_900_L_9_R_10.png","img/250/equaldotanddens/R/4_Ratio_250_L_3_R_12.png","img/900/equaldotsize/L/2_Ratio_900_L_20_R_18.png","img/250/equaldotsize/R/10_Ratio_250_L_4_R_16.png","img/750/equaldotsize/L/10_Ratio_750_L_4_R_3.png","img/250/randomdotsizeEA/R/6_Ratio_250_L_6_R_24.png","img/750/randomdotsizeEA/R/4_Ratio_750_L_15_R_20.png","img/900/randomdotsizeEA/R/9_Ratio_900_L_18_R_20.png","img/900/equaldotsize/L/4_Ratio_900_L_20_R_18.png","img/250/equaldotanddens/L/3_Ratio_250_L_8_R_2.png","img/250/equaldotsize/R/9_Ratio_250_L_3_R_12.png","img/750/equaldotsize/R/5_Ratio_750_L_15_R_20.png","img/900/equaldotsize/R/7_Ratio_900_L_9_R_10.png","img/500/randomdotsizeEA/L/10_Ratio_500_L_4_R_2.png","img/750/equaldotanddens/L/9_Ratio_750_L_4_R_3.png","img/900/equaldotanddens/R/12_Ratio_900_L_18_R_20.png","img/500/equaldotsize/R/2_Ratio_500_L_3_R_6.png","img/750/equaldotanddens/R/2_Ratio_750_L_6_R_8.png","img/500/equaldotsize/L/8_Ratio_500_L_8_R_4.png","img/500/equaldotsize/R/3_Ratio_500_L_10_R_20.png","img/500/equaldotsize/L/10_Ratio_500_L_4_R_2.png","img/750/randomdotsizeEA/L/13_Ratio_750_L_8_R_6.png","img/900/equaldotanddens/L/10_Ratio_900_L_20_R_18.png","img/750/equaldotsize/R/4_Ratio_750_L_15_R_20.png","img/750/equaldotanddens/L/14_Ratio_750_L_8_R_6.png","img/750/equaldotsize/R/3_Ratio_750_L_15_R_20.png","img/750/equaldotsize/L/13_Ratio_750_L_8_R_6.png","img/750/equaldotsize/R/11_Ratio_750_L_12_R_16.png","img/250/equaldotsize/L/3_Ratio_250_L_8_R_2.png","img/500/equaldotanddens/L/8_Ratio_500_L_8_R_4.png","img/250/equaldotanddens/L/15_Ratio_250_L_12_R_3.png","img/750/equaldotsize/L/14_Ratio_750_L_8_R_6.png","img/250/randomdotsizeEA/R/11_Ratio_250_L_3_R_12.png","img/750/randomdotsizeEA/R/2_Ratio_750_L_6_R_8.png","img/750/randomdotsizeEA/R/2_Ratio_750_L_6_R_8.png","img/750/equaldotanddens/L/1_Ratio_750_L_20_R_15.png","img/900/randomdotsizeEA/R/5_Ratio_900_L_9_R_10.png","img/900/equaldotanddens/R/7_Ratio_900_L_9_R_10.png","img/750/randomdotsizeEA/L/13_Ratio_750_L_8_R_6.png","img/250/randomdotsizeEA/L/2_Ratio_250_L_16_R_4.png","img/900/equaldotanddens/L/10_Ratio_900_L_20_R_18.png","img/750/equaldotanddens/R/11_Ratio_750_L_12_R_16.png","img/500/equaldotanddens/R/14_Ratio_500_L_5_R_10.png","img/250/randomdotsizeEA/R/8_Ratio_250_L_1_R_4.png","img/900/equaldotsize/R/11_Ratio_900_L_18_R_20.png","img/900/randomdotsizeEA/L/8_Ratio_900_L_20_R_18.png","img/900/equaldotanddens/L/8_Ratio_900_L_20_R_18.png","img/500/randomdotsizeEA/R/9_Ratio_500_L_2_R_4.png","img/900/randomdotsizeEA/R/3_Ratio_900_L_9_R_10.png","img/900/randomdotsizeEA/L/8_Ratio_900_L_20_R_18.png","img/500/equaldotanddens/R/3_Ratio_500_L_10_R_20.png","img/900/randomdotsizeEA/L/1_Ratio_900_L_10_R_9.png","img/250/randomdotsizeEA/R/6_Ratio_250_L_6_R_24.png","img/250/equaldotanddens/L/5_Ratio_250_L_24_R_6.png","img/250/equaldotsize/R/6_Ratio_250_L_6_R_24.png","img/750/randomdotsizeEA/R/11_Ratio_750_L_12_R_16.png","img/900/equaldotanddens/L/8_Ratio_900_L_20_R_18.png","img/750/equaldotanddens/L/9_Ratio_750_L_4_R_3.png","img/500/randomdotsizeEA/R/3_Ratio_500_L_10_R_20.png","img/250/randomdotsizeEA/L/3_Ratio_250_L_8_R_2.png","img/500/equaldotanddens/L/10_Ratio_500_L_4_R_2.png","img/500/randomdotsizeEA/R/12_Ratio_500_L_1_R_2.png","img/500/equaldotsize/R/3_Ratio_500_L_10_R_20.png","img/750/equaldotsize/R/7_Ratio_750_L_3_R_4.png","img/500/equaldotanddens/L/13_Ratio_500_L_12_R_6.png","img/500/randomdotsizeEA/R/2_Ratio_500_L_3_R_6.png","img/250/equaldotanddens/L/5_Ratio_250_L_24_R_6.png","img/900/equaldotanddens/L/2_Ratio_900_L_20_R_18.png","img/750/equaldotsize/L/6_Ratio_750_L_24_R_18.png","img/250/equaldotanddens/L/2_Ratio_250_L_16_R_4.png","img/250/randomdotsizeEA/R/6_Ratio_250_L_6_R_24.png","img/500/randomdotsizeEA/R/3_Ratio_500_L_10_R_20.png","img/250/equaldotsize/R/12_Ratio_250_L_5_R_20.png","img/900/equaldotsize/L/8_Ratio_900_L_20_R_18.png","img/500/randomdotsizeEA/L/8_Ratio_500_L_8_R_4.png","img/500/equaldotsize/R/1_Ratio_500_L_9_R_18.png","img/750/randomdotsizeEA/L/13_Ratio_750_L_8_R_6.png","img/900/equaldotanddens/R/13_Ratio_900_L_18_R_20.png","img/750/equaldotanddens/L/9_Ratio_750_L_4_R_3.png","img/250/equaldotanddens/R/8_Ratio_250_L_1_R_4.png","img/250/equaldotsize/R/6_Ratio_250_L_6_R_24.png","img/900/equaldotsize/L/4_Ratio_900_L_20_R_18.png","img/900/equaldotsize/R/12_Ratio_900_L_18_R_20.png","img/250/equaldotanddens/R/6_Ratio_250_L_6_R_24.png","img/500/equaldotanddens/R/12_Ratio_500_L_1_R_2.png","img/750/randomdotsizeEA/R/4_Ratio_750_L_15_R_20.png","img/250/equaldotanddens/R/4_Ratio_250_L_3_R_12.png","img/750/equaldotanddens/L/8_Ratio_750_L_4_R_3.png","img/250/randomdotsizeEA/R/9_Ratio_250_L_3_R_12.png","img/250/equaldotsize/R/13_Ratio_250_L_2_R_8.png","img/250/randomdotsizeEA/L/14_Ratio_250_L_12_R_3.png","img/500/equaldotsize/L/8_Ratio_500_L_8_R_4.png","img/250/equaldotsize/R/10_Ratio_250_L_4_R_16.png","img/500/randomdotsizeEA/R/3_Ratio_500_L_10_R_20.png","img/500/equaldotsize/L/4_Ratio_500_L_18_R_9.png","img/750/randomdotsizeEA/R/12_Ratio_750_L_3_R_4.png","img/500/equaldotanddens/L/4_Ratio_500_L_18_R_9.png","img/250/equaldotanddens/L/5_Ratio_250_L_24_R_6.png","img/500/equaldotanddens/L/8_Ratio_500_L_8_R_4.png","img/750/equaldotanddens/L/13_Ratio_750_L_8_R_6.png","img/900/randomdotsizeEA/L/10_Ratio_900_L_20_R_18.png","img/900/randomdotsizeEA/L/2_Ratio_900_L_20_R_18.png","img/750/randomdotsizeEA/R/4_Ratio_750_L_15_R_20.png","img/250/randomdotsizeEA/R/6_Ratio_250_L_6_R_24.png","img/900/equaldotsize/R/5_Ratio_900_L_9_R_10.png"],"Rat0":[["12_Ratio_0_L_9_R_0.png","13_Ratio_0_L_6_R_0.png","5_Ratio_0_L_2_R_0.png","6_Ratio_0_L_4_R_0.png","8_Ratio_0_L_6_R_0.png"],["1_Ratio_0_L_0_R_17.png","10_Ratio_0_L_0_R_22.png","11_Ratio_0_L_0_R_1.png","14_Ratio_0_L_0_R_24.png","15_Ratio_0_L_0_R_4.png","2_Ratio_0_L_0_R_5.png","3_Ratio_0_L_0_R_17.png","4_Ratio_0_L_0_R_7.png","7_Ratio_0_L_0_R_19.png","9_Ratio_0_L_0_R_15.png"]],"Rat250":[["1_Ratio_250_L_8_R_2.png","14_Ratio_250_L_12_R_3.png","15_Ratio_250_L_12_R_3.png","2_Ratio_250_L_16_R_4.png","3_Ratio_250_L_8_R_2.png","5_Ratio_250_L_24_R_6.png","7_Ratio_250_L_8_R_2.png"],["10_Ratio_250_L_4_R_16.png","11_Ratio_250_L_3_R_12.png","12_Ratio_250_L_5_R_20.png","13_Ratio_250_L_2_R_8.png","4_Ratio_250_L_3_R_12.png","6_Ratio_250_L_6_R_24.png","8_Ratio_250_L_1_R_4.png","9_Ratio_250_L_3_R_12.png"]],"Rat500":[["10_Ratio_500_L_4_R_2.png","11_Ratio_500_L_12_R_6.png","13_Ratio_500_L_12_R_6.png","4_Ratio_500_L_18_R_9.png","5_Ratio_500_L_4_R_2.png","7_Ratio_500_L_10_R_5.png","8_Ratio_500_L_8_R_4.png"],["1_Ratio_500_L_9_R_18.png","12_Ratio_500_L_1_R_2.png","14_Ratio_500_L_5_R_10.png","15_Ratio_500_L_1_R_2.png","2_Ratio_500_L_3_R_6.png","3_Ratio_500_L_10_R_20.png","6_Ratio_500_L_9_R_18.png","9_Ratio_500_L_2_R_4.png"]],"Rat750":[["1_Ratio_750_L_20_R_15.png","10_Ratio_750_L_4_R_3.png","13_Ratio_750_L_8_R_6.png","14_Ratio_750_L_8_R_6.png","6_Ratio_750_L_24_R_18.png","8_Ratio_750_L_4_R_3.png","9_Ratio_750_L_4_R_3.png"],["11_Ratio_750_L_12_R_16.png","12_Ratio_750_L_3_R_4.png","15_Ratio_750_L_9_R_12.png","2_Ratio_750_L_6_R_8.png","3_Ratio_750_L_15_R_20.png","4_Ratio_750_L_15_R_20.png","5_Ratio_750_L_15_R_20.png","7_Ratio_750_L_3_R_4.png"]],"Rat900":[["1_Ratio_900_L_10_R_9.png","10_Ratio_900_L_20_R_18.png","2_Ratio_900_L_20_R_18.png","4_Ratio_900_L_20_R_18.png","8_Ratio_900_L_20_R_18.png"],["11_Ratio_900_L_18_R_20.png","12_Ratio_900_L_18_R_20.png","13_Ratio_900_L_18_R_20.png","14_Ratio_900_L_18_R_20.png","15_Ratio_900_L_9_R_10.png","3_Ratio_900_L_9_R_10.png","5_Ratio_900_L_9_R_10.png","6_Ratio_900_L_9_R_10.png","7_Ratio_900_L_9_R_10.png","9_Ratio_900_L_18_R_20.png"]],"Rat1000":[["10_Ratio_1000_L_16_R_16.png","11_Ratio_1000_L_6_R_6.png","12_Ratio_1000_L_14_R_14.png","13_Ratio_1000_L_20_R_20.png","15_Ratio_1000_L_15_R_15.png","2_Ratio_1000_L_17_R_17.png","4_Ratio_1000_L_9_R_9.png","5_Ratio_1000_L_6_R_6.png","6_Ratio_1000_L_19_R_19.png","8_Ratio_1000_L_14_R_14.png","9_Ratio_1000_L_25_R_25.png"],["1_Ratio_1000_L_1_R_1.png","14_Ratio_1000_L_17_R_17.png","3_Ratio_1000_L_17_R_17.png","7_Ratio_1000_L_6_R_6.png"]]}},{"start_time":1551881415098,"click_time":1551881416145,"finger_time":1551881415585,"fix_duration":451.5045689856577,"trial":1,"RT":487,"MT":560,"sideResp":2,"stimulus":"img/900/equaldotanddens/L/2_Ratio_900_L_20_R_18.png","xmouse":[798,798,798,798,798,798,798,798,798,798,798,798,798,798,798,798,798,798,798,798,798,805,811,829,860,942,974,1005,1021,1027,1030,1031,1033,1035,1040,1040,1040,1040,1040,1040,1040,1040,1040,1040,1040,1040,1040,1040,1040,1040,1044,1052,1064],"ymouse":[627,627,627,627,627,627,627,627,627,627,627,627,627,627,627,627,627,627,627,627,627,623,613,588,546,388,308,230,181,161,152,149,143,129,97,78,71,70,70,70,70,70,70,70,70,70,70,70,70,70,70,68,65],"timestamp_mouse":[9,35,47,68,87,107,127,147,167,187,207,227,248,269,287,308,328,347,367,387,407,428,447,467,487,507,527,547,567,587,608,628,647,667,687,707,727,747,767,787,807,827,847,867,888,908,928,947,967,987,1008,1028,1047],"xSR":741.5,"ySR":573.95,"xT1":424.9,"yT1":0,"xT2":1058.1,"yT2":0,"toosoon":0,"cond_shown":"equaldotanddens","ratio_trial":900,"smaller_num":"18","larger_num":"20","correct_side":1,"subjID":"davidsantiagoforerocuervo18","gender":"0","age":"11","school":"6"},{"start_time":1551881418653,"click_time":1551881419665,"finger_time":1551881419365,"fix_duration":1485.8547125897637,"trial":2,"RT":712,"MT":300,"sideResp":1,"stimulus":"img/500/equaldotanddens/L/13_Ratio_500_L_12_R_6.png","xmouse":[801,801,801,801,801,801,801,801,801,801,801,801,801,801,801,801,801,801,801,801,801,801,801,801,801,801,801,801,801,801,801,801,801,801,803,805,811,798,789,779,764,741,683,662,648,639,630,613,591,551,500],"ymouse":[589,589,589,589,589,589,589,589,589,589,589,589,589,589,589,589,589,589,589,589,589,589,589,589,589,589,589,589,589,589,589,589,589,589,577,565,518,446,408,375,334,273,184,159,146,140,134,127,118,100,79],"timestamp_mouse":[13,32,52,73,92,112,132,152,173,193,212,232,252,272,292,312,332,352,372,392,413,432,452,472,492,512,533,552,572,592,612,632,653,672,692,712,732,752,772,792,812,833,853,873,893,912,932,952,972,992,1012],"xSR":741.5,"ySR":573.95,"xT1":424.9,"yT1":0,"xT2":1058.1,"yT2":0,"toosoon":0,"cond_shown":"equaldotanddens","ratio_trial":500,"smaller_num":"6","larger_num":"12","correct_side":1,"subjID":"davidsantiagoforerocuervo18","gender":"0","age":"11","school":"6"},{"start_time":1551881420994,"click_time":1551881421866,"finger_time":1551881421645,"fix_duration":427.03145217016095,"trial":3,"RT":651,"MT":221,"sideResp":2,"stimulus":"img/900/equaldotanddens/L/8_Ratio_900_L_20_R_18.png","xmouse":[802,802,802,800,800,800,800,800,800,800,800,800,800,800,800,800,800,800,800,800,800,800,800,800,800,800,800,800,800,800,802,830,859,898,955,1047,1069,1079,1081,1083,1094,1100,1107,1116],"ymouse":[624,624,624,624,623,623,623,623,623,623,623,623,623,623,623,623,623,623,623,623,623,623,623,623,623,623,623,623,623,623,623,602,569,516,430,279,233,203,183,158,130,118,107,91],"timestamp_mouse":[11,32,51,71,93,113,131,151,171,191,212,233,251,271,291,312,331,351,371,391,411,431,451,473,491,513,532,551,572,591,611,631,651,672,692,711,731,752,771,792,811,831,852,871],"xSR":741.5,"ySR":573.95,"xT1":424.9,"yT1":0,"xT2":1058.1,"yT2":0,"toosoon":0,"cond_shown":"equaldotanddens","ratio_trial":900,"smaller_num":"18","larger_num":"20","correct_side":1,"subjID":"davidsantiagoforerocuervo18","gender":"0","age":"11","school":"6"},{"start_time":1551881424437,"click_time":1551881425506,"finger_time":1551881425065,"fix_duration":250,"trial":4,"RT":628,"MT":441,"sideResp":2,"stimulus":"img/900/equaldotsize/R/12_Ratio_900_L_18_R_20.png","xmouse":[816,816,816,816,816,816,816,816,816,816,816,816,816,816,816,816,816,816,816,816,816,816,816,816,816,816,816,816,821,827,836,847,860,898,928,969,1004,1046,1085,1097,1107,1111,1113,1124,1136,1146,1152,1158,1158,1150,1146,1142,1139,1135],"ymouse":[632,632,632,632,632,632,632,632,632,632,632,632,632,632,632,632,632,632,632,632,632,632,632,632,632,632,632,632,628,623,613,598,576,510,462,409,359,299,243,223,211,203,197,182,173,165,157,144,137,118,112,107,101,96],"timestamp_mouse":[8,31,49,68,88,108,130,148,168,189,208,228,248,268,288,310,330,348,369,388,408,430,449,468,489,509,530,548,569,589,608,628,648,668,688,708,728,748,768,789,808,828,848,868,888,908,928,948,968,988,1009,1028,1048,1068],"xSR":741.5,"ySR":573.95,"xT1":424.9,"yT1":0,"xT2":1058.1,"yT2":0,"toosoon":0,"cond_shown":"equaldotsize","ratio_trial":900,"smaller_num":"18","larger_num":"20","correct_side":2,"subjID":"davidsantiagoforerocuervo18","gender":"0","age":"11","school":"6"},{"start_time":1551881426807,"click_time":1551881427846,"finger_time":1551881427625,"fix_duration":421.32281669550287,"trial":5,"RT":818,"MT":221,"sideResp":1,"stimulus":"img/500/equaldotsize/L/7_Ratio_500_L_10_R_5.png","xmouse":[825,825,825,825,825,825,825,825,825,825,825,825,825,825,825,825,825,825,825,825,825,825,825,825,825,825,825,825,825,825,825,825,825,825,825,825,825,825,824,787,750,709,667,632,605,578,563,546,522,499,491,486],"ymouse":[597,597,597,597,597,597,597,597,597,597,597,597,597,597,597,597,597,597,597,597,597,597,597,597,597,597,597,597,597,597,597,597,597,597,597,597,597,597,597,575,539,475,407,344,294,231,208,188,161,131,114,98],"timestamp_mouse":[28,39,59,78,99,118,139,158,178,198,218,238,258,279,299,318,338,358,378,398,418,439,459,478,498,518,539,558,578,598,618,638,659,679,700,718,738,758,778,799,818,839,858,878,899,918,938,958,978,998,1018,1039],"xSR":741.5,"ySR":573.95,"xT1":424.9,"yT1":0,"xT2":1058.1,"yT2":0,"toosoon":0,"cond_shown":"equaldotsize","ratio_trial":500,"smaller_num":"5","larger_num":"10","correct_side":1,"subjID":"davidsantiagoforerocuervo18","gender":"0","age":"11","school":"6"},{"start_time":1551881429258,"click_time":1551881430445,"finger_time":1551881429945,"fix_duration":551.5553482611195,"trial":6,"RT":687,"MT":500,"sideResp":2,"stimulus":"img/750/equaldotanddens/R/15_Ratio_750_L_9_R_12.png","xmouse":[801,801,801,801,801,801,801,801,801,801,801,801,801,801,801,801,801,801,801,801,801,801,801,801,801,801,801,801,801,801,801,801,807,814,822,829,839,852,861,870,878,887,902,911,926,937,952,968,977,985,990,995,1000,1018,1024,1030,1037,1051,1060,1069],"ymouse":[610,610,610,610,610,610,610,610,610,610,610,610,610,610,610,610,610,610,610,610,610,610,610,610,610,610,610,610,610,610,610,608,599,586,571,555,528,487,465,446,426,405,353,325,293,266,234,203,193,185,180,176,172,155,144,135,125,113,105,97],"timestamp_mouse":[8,27,48,67,87,108,127,147,168,187,208,228,247,267,288,307,328,347,367,387,407,427,448,468,487,507,527,547,567,587,607,627,648,667,687,707,727,747,767,787,809,827,847,867,887,907,929,947,968,987,1008,1027,1048,1068,1087,1107,1128,1147,1167,1187],"xSR":741.5,"ySR":573.95,"xT1":424.9,"yT1":0,"xT2":1058.1,"yT2":0,"toosoon":0,"cond_shown":"equaldotanddens","ratio_trial":750,"smaller_num":"9","larger_num":"12","correct_side":2,"subjID":"davidsantiagoforerocuervo18","gender":"0","age":"11","school":"6"},{"start_time":1551881431786,"click_time":1551881432805,"finger_time":1551881432445,"fix_duration":478.6397128794099,"trial":7,"RT":659,"MT":360,"sideResp":1,"stimulus":"img/500/randomdotsizeEA/R/6_Ratio_500_L_9_R_18.png","xmouse":[817,817,817,817,817,817,817,817,817,817,817,817,817,817,817,817,817,817,817,817,817,817,817,817,817,817,817,817,817,817,817,812,795,780,761,743,700,682,669,655,632,590,582,572,566,555,540,538,537,533,530,513],"ymouse":[600,600,600,600,600,600,600,600,600,600,600,600,600,600,600,600,600,600,600,600,600,600,600,600,600,600,600,600,600,600,600,598,576,554,534,512,453,425,402,376,323,207,155,110,86,69,51,50,48,42,37,16],"timestamp_mouse":[1,30,39,59,79,99,119,139,159,181,199,219,239,259,279,300,320,339,359,379,399,419,439,459,480,499,519,539,559,579,599,619,639,659,679,699,719,739,760,779,800,819,839,859,879,899,919,939,959,979,999,1019],"xSR":741.5,"ySR":573.95,"xT1":424.9,"yT1":0,"xT2":1058.1,"yT2":0,"toosoon":0,"cond_shown":"randomdotsizeEA","ratio_trial":500,"smaller_num":"9","larger_num":"18","correct_side":2,"subjID":"davidsantiagoforerocuervo18","gender":"0","age":"11","school":"6"},{"start_time":1551881433796,"click_time":1551881434885,"finger_time":1551881434385,"fix_duration":250,"trial":8,"RT":589,"MT":500,"sideResp":1,"stimulus":"img/900/randomdotsizeEA/L/1_Ratio_900_L_10_R_9.png","xmouse":[811,811,811,811,811,811,811,811,811,811,811,811,811,811,811,811,811,811,811,811,811,811,811,811,811,811,816,820,821,822,822,822,822,822,822,819,813,809,807,806,811,811,810,802,791,767,729,708,691,678,640,607,563,518,476],"ymouse":[614,614,614,614,614,614,614,614,614,614,614,614,614,614,614,614,614,614,614,614,614,614,614,614,614,613,598,584,575,568,564,564,564,564,564,555,540,525,508,487,451,435,418,400,379,349,313,299,288,270,205,165,132,105,85],"timestamp_mouse":[25,30,50,69,89,109,129,150,169,189,209,230,250,269,289,309,330,350,371,389,409,429,449,470,490,511,529,549,569,589,609,629,649,669,689,709,729,749,769,789,810,830,849,869,889,910,929,949,969,990,1009,1029,1049,1069,1089],"xSR":741.5,"ySR":573.95,"xT1":424.9,"yT1":0,"xT2":1058.1,"yT2":0,"toosoon":0,"cond_shown":"randomdotsizeEA","ratio_trial":900,"smaller_num":"9","larger_num":"10","correct_side":1,"subjID":"davidsantiagoforerocuervo18","gender":"0","age":"11","school":"6"},{"start_time":1551881437140,"click_time":1551881438385,"finger_time":1551881437785,"fix_duration":1393.2680475663312,"trial":9,"RT":645,"MT":600,"sideResp":2,"stimulus":"img/500/equaldotanddens/R/1_Ratio_500_L_9_R_18.png","xmouse":[770,770,770,770,770,770,770,770,770,770,770,770,770,770,770,770,770,770,770,770,770,770,770,770,770,770,770,770,770,770,778,789,827,894,923,944,950,954,951,946,944,942,942,941,949,973,1016,1073,1172,1208,1227,1232,1233,1223,1214,1207,1203,1198,1191,1175,1167,1161,1157],"ymouse":[648,648,648,648,648,648,648,648,648,648,648,648,648,648,648,648,648,648,648,648,648,648,648,648,648,648,648,648,648,648,644,630,573,458,408,366,342,323,283,261,241,219,191,169,156,142,124,108,79,64,55,50,48,35,32,29,29,29,29,37,43,48,52],"timestamp_mouse":[11,27,45,67,85,105,125,145,165,185,205,225,246,265,285,306,325,345,365,385,405,425,445,466,485,506,525,545,566,586,605,625,645,665,685,705,725,745,765,785,805,825,847,865,885,905,925,945,965,985,1005,1025,1046,1065,1086,1105,1125,1145,1165,1185,1205,1225,1245],"xSR":741.5,"ySR":573.95,"xT1":424.9,"yT1":0,"xT2":1058.1,"yT2":0,"toosoon":0,"cond_shown":"equaldotanddens","ratio_trial":500,"smaller_num":"9","larger_num":"18","correct_side":2,"subjID":"davidsantiagoforerocuervo18","gender":"0","age":"11","school":"6"},{"start_time":1551881440999,"click_time":1551881442026,"finger_time":1551881441566,"fix_duration":250,"trial":10,"RT":567,"MT":460,"sideResp":2,"stimulus":"img/900/equaldotsize/R/3_Ratio_900_L_9_R_10.png","xmouse":[801,801,801,801,801,801,801,801,801,801,801,801,801,801,801,801,801,801,801,801,801,801,801,801,801,801,804,816,836,863,938,962,974,985,993,1007,1017,1027,1034,1038,1038,1037,1037,1037,1037,1040,1051,1057,1060,1062,1062,1064],"ymouse":[618,618,618,618,618,618,618,618,618,618,618,618,618,618,618,618,618,618,618,618,618,618,618,618,618,618,610,592,566,532,425,373,327,292,265,220,198,179,162,148,129,125,125,125,125,119,110,104,101,100,100,98],"timestamp_mouse":[8,35,46,67,87,107,126,146,167,187,208,226,247,268,287,306,326,347,367,387,407,426,447,467,486,506,528,547,567,587,607,627,647,667,687,707,726,747,767,787,807,827,847,867,886,906,927,947,967,986,1007,1027],"xSR":741.5,"ySR":573.95,"xT1":424.9,"yT1":0,"xT2":1058.1,"yT2":0,"toosoon":0,"cond_shown":"equaldotsize","ratio_trial":900,"smaller_num":"9","larger_num":"10","correct_side":2,"subjID":"davidsantiagoforerocuervo18","gender":"0","age":"11","school":"6"},{"start_time":1551881444282,"click_time":1551881445426,"finger_time":1551881444826,"fix_duration":1414.5565688965964,"trial":11,"RT":544,"MT":600,"sideResp":1,"stimulus":"img/750/equaldotsize/L/9_Ratio_750_L_4_R_3.png","xmouse":[780,780,780,780,780,780,780,780,780,780,780,780,780,780,780,780,780,780,780,780,780,780,780,780,780,780,772,761,744,726,705,603,533,465,411,371,352,345,339,333,331,331,330,330,333,342,350,373,378,382,384,384,387,392,398,406,412,427],"ymouse":[606,606,606,606,606,606,606,606,606,606,606,606,606,606,606,606,606,606,606,606,606,606,606,606,606,605,585,564,536,507,463,319,231,153,95,54,21,8,0,0,0,0,0,0,0,0,0,6,9,11,11,12,15,17,20,26,32,48],"timestamp_mouse":[7,34,43,63,83,104,124,145,164,184,203,224,244,264,284,303,324,344,364,384,403,424,443,465,484,504,524,544,563,584,604,624,645,664,685,704,724,745,765,785,805,823,845,864,884,903,924,943,964,984,1005,1023,1043,1063,1084,1103,1123,1143],"xSR":741.5,"ySR":573.95,"xT1":424.9,"yT1":0,"xT2":1058.1,"yT2":0,"toosoon":0,"cond_shown":"equaldotsize","ratio_trial":750,"smaller_num":"3","larger_num":"4","correct_side":1,"subjID":"davidsantiagoforerocuervo18","gender":"0","age":"11","school":"6"},{"start_time":1551881447748,"click_time":1551881448986,"finger_time":1551881448406,"fix_duration":1421.09978533591,"trial":12,"RT":658,"MT":580,"sideResp":1,"stimulus":"img/250/equaldotsize/L/7_Ratio_250_L_8_R_2.png","xmouse":[814,814,814,814,814,814,814,814,814,814,814,814,814,814,814,814,814,814,814,814,814,814,814,814,814,814,814,814,813,808,796,769,722,699,677,658,641,616,601,588,575,566,560,540,524,510,497,478,475,472,471,470,470,470,470,470,470,470,470,470,472,483],"ymouse":[622,622,622,622,622,622,622,622,622,622,622,622,622,622,622,622,622,622,622,622,622,622,622,622,622,622,622,622,621,620,611,581,516,479,437,403,374,332,310,291,274,252,236,197,177,160,146,131,128,125,122,118,115,115,115,115,115,115,114,111,102,73],"timestamp_mouse":[17,38,58,78,98,119,138,157,179,198,218,239,258,278,299,318,337,357,378,398,419,437,457,478,498,518,538,557,579,598,617,638,658,677,698,719,738,757,777,797,818,838,857,878,898,918,938,958,977,998,1019,1038,1057,1078,1098,1118,1137,1158,1177,1197,1218,1238],"xSR":741.5,"ySR":573.95,"xT1":424.9,"yT1":0,"xT2":1058.1,"yT2":0,"toosoon":0,"cond_shown":"equaldotsize","ratio_trial":250,"smaller_num":"2","larger_num":"8","correct_side":1,"subjID":"davidsantiagoforerocuervo18","gender":"0","age":"11","school":"6"},{"start_time":1551881450946,"click_time":1551881451866,"finger_time":1551881451426,"fix_duration":719.5913445974574,"trial":13,"RT":480,"MT":440,"sideResp":2,"stimulus":"img/500/equaldotsize/R/1_Ratio_500_L_9_R_18.png","xmouse":[798,798,798,798,798,798,798,798,798,798,798,798,798,798,798,798,798,798,798,798,798,798,799,804,832,858,883,909,946,956,960,961,964,968,976,984,1001,1029,1113,1142,1155,1156,1156,1156,1156,1157,1156],"ymouse":[608,608,608,608,608,608,608,608,608,608,608,608,608,608,608,608,608,608,608,608,608,608,609,602,542,493,443,384,276,236,189,177,149,106,53,29,4,0,0,0,0,0,0,0,0,0,1],"timestamp_mouse":[2,25,40,60,79,99,119,140,160,180,200,220,240,259,279,300,319,339,360,380,401,421,440,460,480,500,521,540,560,579,601,620,640,659,679,700,721,740,760,780,800,820,840,860,879,899,920],"xSR":741.5,"ySR":573.95,"xT1":424.9,"yT1":0,"xT2":1058.1,"yT2":0,"toosoon":0,"cond_shown":"equaldotsize","ratio_trial":500,"smaller_num":"9","larger_num":"18","correct_side":2,"subjID":"davidsantiagoforerocuervo18","gender":"0","age":"11","school":"6"},{"start_time":1551881453269,"click_time":1551881454146,"finger_time":1551881453826,"fix_duration":441.14609276059633,"trial":14,"RT":557,"MT":320,"sideResp":1,"stimulus":"img/250/equaldotsize/L/3_Ratio_250_L_8_R_2.png","xmouse":[806,806,806,806,806,806,806,806,806,806,806,806,806,806,806,806,806,806,806,806,806,806,806,806,806,800,769,727,678,629,583,501,481,470,460,448,436,432,430,429,429,430,432,435],"ymouse":[649,649,649,649,649,649,649,649,649,649,649,649,649,649,649,649,649,649,649,649,649,649,649,649,644,629,579,528,483,439,398,322,296,275,257,229,199,181,161,145,130,114,106,95],"timestamp_mouse":[17,37,56,77,97,117,137,157,176,197,217,236,256,277,296,317,338,357,378,397,417,437,457,477,497,517,537,557,577,596,617,637,656,676,697,717,737,757,776,798,816,836,857,877],"xSR":741.5,"ySR":573.95,"xT1":424.9,"yT1":0,"xT2":1058.1,"yT2":0,"toosoon":0,"cond_shown":"equaldotsize","ratio_trial":250,"smaller_num":"2","larger_num":"8","correct_side":1,"subjID":"davidsantiagoforerocuervo18","gender":"0","age":"11","school":"6"},{"start_time":1551881455780,"click_time":1551881457286,"finger_time":1551881456507,"fix_duration":993.7145580440034,"trial":15,"RT":727,"MT":779,"sideResp":2,"stimulus":"img/900/randomdotsizeEA/R/3_Ratio_900_L_9_R_10.png","xmouse":[791,791,791,791,791,791,791,791,791,791,791,791,791,791,791,791,791,791,791,791,791,791,791,791,791,791,791,791,791,791,791,791,791,791,795,805,880,913,950,980,1010,1018,1016,1011,1009,1007,1006,1006,1006,1006,1006,1006,1006,1006,1003,1000,991,990,990,990,990,993,1000,1008,1017,1026,1036,1036,1036,1035,1035,1041,1043,1047,1054,1064],"ymouse":[613,613,613,613,613,613,613,613,613,613,613,613,613,613,613,613,613,613,613,613,613,613,613,613,613,613,613,613,613,613,613,613,613,613,612,608,556,514,455,399,335,296,283,275,269,263,252,248,243,243,241,241,240,240,240,240,243,243,243,243,243,234,222,210,197,182,156,147,137,122,115,105,103,101,95,89],"timestamp_mouse":[8,25,46,66,86,106,125,147,166,186,206,226,246,266,286,305,325,346,366,386,407,426,446,466,485,506,527,546,565,585,606,625,646,666,686,706,727,745,766,786,807,827,847,865,886,906,926,945,966,986,1005,1026,1046,1065,1086,1105,1126,1145,1166,1186,1206,1226,1247,1265,1286,1305,1325,1347,1366,1385,1405,1426,1445,1465,1486,1506],"xSR":741.5,"ySR":573.95,"xT1":424.9,"yT1":0,"xT2":1058.1,"yT2":0,"toosoon":0,"cond_shown":"randomdotsizeEA","ratio_trial":900,"smaller_num":"9","larger_num":"10","correct_side":2,"subjID":"davidsantiagoforerocuervo18","gender":"0","age":"11","school":"6"},{"start_time":1551881459286,"click_time":1551881460366,"finger_time":1551881459886,"fix_duration":1039.8254382793225,"trial":16,"RT":600,"MT":480,"sideResp":2,"stimulus":"img/250/equaldotanddens/R/4_Ratio_250_L_3_R_12.png","xmouse":[809,809,809,809,809,809,809,809,809,809,809,809,809,809,809,809,809,809,809,809,809,809,809,809,807,807,807,807,809,815,827,864,895,914,928,936,956,969,984,1000,1016,1040,1040,1040,1043,1057,1089,1097,1097,1097,1097,1097,1099,1102,1105],"ymouse":[614,614,614,614,614,614,614,614,614,614,614,614,614,614,614,614,614,614,614,614,614,614,614,614,615,616,616,616,615,600,573,487,429,376,339,308,277,265,251,238,226,205,195,182,168,146,118,113,113,113,113,112,106,102,97],"timestamp_mouse":[6,19,43,59,80,100,120,140,160,180,200,220,240,260,279,300,320,340,360,380,399,419,440,460,480,500,521,540,560,580,600,620,639,660,679,699,719,741,760,781,799,819,840,860,879,899,920,939,960,980,1000,1020,1040,1060,1079],"xSR":741.5,"ySR":573.95,"xT1":424.9,"yT1":0,"xT2":1058.1,"yT2":0,"toosoon":0,"cond_shown":"equaldotanddens","ratio_trial":250,"smaller_num":"3","larger_num":"12","correct_side":2,"subjID":"davidsantiagoforerocuervo18","gender":"0","age":"11","school":"6"},{"start_time":1551881461540,"click_time":1551881462246,"finger_time":1551881462126,"fix_duration":333.0661879552842,"trial":17,"RT":586,"MT":120,"sideResp":1,"stimulus":"img/900/equaldotsize/L/2_Ratio_900_L_20_R_18.png","xmouse":[791,791,791,791,791,791,791,791,791,791,791,791,791,791,791,791,791,791,791,791,791,791,791,791,791,791,791,791,785,775,755,725,657,562,535,522],"ymouse":[641,641,641,641,641,641,641,641,641,641,641,641,641,641,641,641,641,641,641,641,641,641,640,636,629,626,623,616,579,538,477,407,280,112,75,60],"timestamp_mouse":[7,27,46,66,86,106,126,146,166,185,206,226,246,267,286,307,325,345,366,386,406,426,446,466,485,506,526,545,565,586,606,627,646,665,685,705],"xSR":741.5,"ySR":573.95,"xT1":424.9,"yT1":0,"xT2":1058.1,"yT2":0,"toosoon":0,"cond_shown":"equaldotsize","ratio_trial":900,"smaller_num":"18","larger_num":"20","correct_side":1,"subjID":"davidsantiagoforerocuervo18","gender":"0","age":"11","school":"6"},{"start_time":1551881464249,"click_time":1551881465306,"finger_time":1551881464786,"fix_duration":1402.7158143706545,"trial":18,"RT":537,"MT":520,"sideResp":2,"stimulus":"img/250/equaldotsize/R/10_Ratio_250_L_4_R_16.png","xmouse":[812,812,812,812,812,812,812,812,812,812,812,812,812,812,812,812,812,812,812,812,812,812,812,812,813,821,852,911,930,945,965,983,1001,1023,1024,1024,1017,1020,1026,1030,1032,1032,1032,1032,1032,1032,1032,1032,1032,1032,1034,1046,1084],"ymouse":[643,643,643,643,643,643,643,643,643,643,643,643,643,643,643,643,643,643,643,643,643,643,643,633,618,590,514,413,375,337,300,269,235,185,165,143,111,76,61,53,49,48,48,48,48,48,48,48,48,48,49,55,65],"timestamp_mouse":[17,36,57,77,96,117,138,157,177,197,217,237,257,277,297,317,336,356,377,396,418,437,456,476,496,517,537,557,576,596,616,636,657,678,697,716,737,756,778,797,816,836,857,877,897,917,937,957,977,997,1017,1036,1056],"xSR":741.5,"ySR":573.95,"xT1":424.9,"yT1":0,"xT2":1058.1,"yT2":0,"toosoon":0,"cond_shown":"equaldotsize","ratio_trial":250,"smaller_num":"4","larger_num":"16","correct_side":2,"subjID":"davidsantiagoforerocuervo18","gender":"0","age":"11","school":"6"},{"start_time":1551881466548,"click_time":1551881467266,"finger_time":1551881467046,"fix_duration":500.0014027377205,"trial":19,"RT":498,"MT":220,"sideResp":1,"stimulus":"img/750/equaldotsize/L/10_Ratio_750_L_4_R_3.png","xmouse":[803,803,803,803,803,803,803,803,803,803,803,803,803,803,803,803,803,803,803,803,803,803,797,791,780,763,734,643,595,558,543,533,532,529,527,524],"ymouse":[619,619,619,619,619,619,619,619,619,619,619,619,619,619,619,619,619,619,619,619,619,618,602,582,555,517,457,302,216,145,115,93,84,74,57,38],"timestamp_mouse":[18,38,58,77,98,118,137,158,178,198,218,238,258,277,299,318,338,357,379,398,419,437,459,478,498,518,537,557,577,598,617,637,657,678,698,718],"xSR":741.5,"ySR":573.95,"xT1":424.9,"yT1":0,"xT2":1058.1,"yT2":0,"toosoon":0,"cond_shown":"equaldotsize","ratio_trial":750,"smaller_num":"3","larger_num":"4","correct_side":1,"subjID":"davidsantiagoforerocuervo18","gender":"0","age":"11","school":"6"},{"start_time":1551881469579,"click_time":1551881470666,"finger_time":1551881470146,"fix_duration":250,"trial":20,"RT":567,"MT":520,"sideResp":2,"stimulus":"img/250/randomdotsizeEA/R/6_Ratio_250_L_6_R_24.png","xmouse":[797,797,797,797,797,797,797,797,797,797,797,797,797,797,797,797,797,797,797,797,797,797,797,797,797,797,797,797,797,790,774,757,753,752,753,760,794,819,849,880,928,987,1011,1029,1045,1056,1070,1074,1075,1077,1080,1086,1087,1087,1086],"ymouse":[610,610,610,610,610,610,610,610,610,610,610,610,610,610,610,610,610,610,610,610,610,610,610,610,610,608,597,584,568,549,521,488,474,464,459,450,428,414,395,374,336,295,274,255,232,209,173,160,155,149,139,122,113,104,96],"timestamp_mouse":[10,29,47,66,87,107,127,146,167,186,206,227,247,267,286,307,327,346,367,388,406,426,447,466,487,506,526,547,567,586,606,627,646,666,687,706,727,747,767,786,806,827,846,868,887,906,926,947,967,987,1007,1027,1046,1066,1087],"xSR":741.5,"ySR":573.95,"xT1":424.9,"yT1":0,"xT2":1058.1,"yT2":0,"toosoon":0,"cond_shown":"randomdotsizeEA","ratio_trial":250,"smaller_num":"6","larger_num":"24","correct_side":2,"subjID":"davidsantiagoforerocuervo18","gender":"0","age":"11","school":"6"},{"start_time":1551881472371,"click_time":1551881473325,"finger_time":1551881473147,"fix_duration":724.5515404784466,"trial":21,"RT":776,"MT":178,"sideResp":1,"stimulus":"img/750/randomdotsizeEA/R/4_Ratio_750_L_15_R_20.png","xmouse":[750,750,750,750,750,750,750,750,750,750,750,750,750,750,750,750,750,750,750,750,750,750,750,750,750,750,750,750,750,750,750,749,749,749,749,747,747,745,739,726,696,636,601,556,506,465,436,429],"ymouse":[646,646,646,646,646,646,646,646,646,646,646,646,646,646,646,646,646,646,647,647,647,647,647,647,647,647,647,647,647,647,644,637,630,623,615,608,601,583,563,531,474,378,316,251,182,139,100,86],"timestamp_mouse":[15,35,55,75,95,114,135,155,175,194,215,235,256,274,294,315,336,354,375,395,415,435,454,475,494,516,535,555,575,595,616,635,654,674,695,714,735,755,776,795,815,835,855,874,895,914,935,954],"xSR":741.5,"ySR":573.95,"xT1":424.9,"yT1":0,"xT2":1058.1,"yT2":0,"toosoon":0,"cond_shown":"randomdotsizeEA","ratio_trial":750,"smaller_num":"15","larger_num":"20","correct_side":2,"subjID":"davidsantiagoforerocuervo18","gender":"0","age":"11","school":"6"},{"start_time":1551881475797,"click_time":1551881476726,"finger_time":1551881476465,"fix_duration":1449.5847716305004,"trial":22,"RT":668,"MT":261,"sideResp":2,"stimulus":"img/900/randomdotsizeEA/R/9_Ratio_900_L_18_R_20.png","xmouse":[796,796,796,795,795,795,795,795,795,795,795,795,795,795,795,795,795,795,795,795,795,795,795,795,795,795,795,795,795,795,795,795,799,812,845,924,955,972,981,995,1023,1043,1064,1079,1087,1089,1084],"ymouse":[604,604,604,605,605,605,605,605,605,605,605,605,605,605,605,605,605,605,605,605,605,605,605,605,605,605,605,605,605,605,605,600,582,553,504,401,366,344,327,302,262,235,204,174,144,115,74],"timestamp_mouse":[11,37,49,69,88,109,130,149,169,189,208,229,249,269,289,309,328,349,369,388,409,429,449,468,488,509,529,549,568,588,608,628,648,668,688,709,730,749,768,788,809,828,848,868,888,908,929],"xSR":741.5,"ySR":573.95,"xT1":424.9,"yT1":0,"xT2":1058.1,"yT2":0,"toosoon":0,"cond_shown":"randomdotsizeEA","ratio_trial":900,"smaller_num":"18","larger_num":"20","correct_side":2,"subjID":"davidsantiagoforerocuervo18","gender":"0","age":"11","school":"6"},{"start_time":1551881477994,"click_time":1551881479026,"finger_time":1551881478827,"fix_duration":547.619429688691,"trial":23,"RT":833,"MT":199,"sideResp":2,"stimulus":"img/900/equaldotsize/L/4_Ratio_900_L_20_R_18.png","xmouse":[792,792,792,792,792,792,792,792,792,792,792,792,792,792,792,792,792,792,792,792,792,792,792,792,792,792,792,792,792,792,792,792,792,792,792,792,792,792,793,794,799,811,841,887,935,982,1026,1032,1035,1039,1051,1062],"ymouse":[612,612,612,612,612,612,612,612,612,612,612,612,612,612,612,612,612,612,612,612,612,612,612,612,612,612,612,612,612,612,612,612,612,612,612,611,609,607,605,601,588,563,510,440,372,309,223,199,177,147,109,94],"timestamp_mouse":[25,32,52,72,92,111,131,152,172,192,212,231,251,272,293,313,332,351,371,391,411,431,453,472,492,513,533,552,571,591,612,632,651,671,692,712,732,752,772,791,812,833,852,872,892,912,932,952,971,991,1011,1032],"xSR":741.5,"ySR":573.95,"xT1":424.9,"yT1":0,"xT2":1058.1,"yT2":0,"toosoon":0,"cond_shown":"equaldotsize","ratio_trial":900,"smaller_num":"18","larger_num":"20","correct_side":1,"subjID":"davidsantiagoforerocuervo18","gender":"0","age":"11","school":"6"},{"start_time":1551881480456,"click_time":1551881481586,"finger_time":1551881481085,"fix_duration":388.9392449833445,"trial":24,"RT":629,"MT":501,"sideResp":1,"stimulus":"img/250/equaldotanddens/L/3_Ratio_250_L_8_R_2.png","xmouse":[794,794,794,794,794,794,794,794,794,794,794,794,794,794,794,794,794,794,794,794,794,794,794,794,794,794,794,794,793,786,772,754,724,632,562,511,481,472,466,464,464,464,463,463,463,463,463,463,462,462,462,464,465,465,465,463,457],"ymouse":[639,639,639,639,639,639,639,639,639,639,639,639,639,639,639,639,639,639,639,639,639,639,639,639,639,639,639,639,635,620,594,562,519,404,342,297,258,241,220,216,214,212,207,205,205,204,203,183,172,162,152,147,138,130,119,107,95],"timestamp_mouse":[11,29,51,70,91,111,130,150,169,189,209,229,249,270,290,310,329,349,370,391,410,430,449,469,490,511,529,549,570,591,609,629,650,669,689,709,729,750,769,789,810,831,849,869,890,911,930,950,970,989,1010,1029,1050,1069,1090,1110,1130],"xSR":741.5,"ySR":573.95,"xT1":424.9,"yT1":0,"xT2":1058.1,"yT2":0,"toosoon":0,"cond_shown":"equaldotanddens","ratio_trial":250,"smaller_num":"2","larger_num":"8","correct_side":1,"subjID":"davidsantiagoforerocuervo18","gender":"0","age":"11","school":"6"},{"start_time":1551881486482,"click_time":1551881488726,"finger_time":1551881487045,"fix_duration":1355.1646385608037,"trial":25,"RT":563,"MT":1681,"sideResp":2,"stimulus":"img/250/equaldotsize/R/9_Ratio_250_L_3_R_12.png","xmouse":[800,800,800,800,800,800,800,800,800,800,800,800,800,800,800,800,800,800,800,800,800,800,800,800,800,800,803,817,847,876,893,906,909,919,937,954,981,981,982,982,983,989,1001,1015,1016,1016,1016,1016,1016,1016,1016,1016,1016,1016,1016,1016,1016,1016,1016,1016,1016,1016,1016,1016,1016,1016,1016,1016,1016,1031,1078,1176,1236,1278,1310,1331,1348,1381,1389,1394,1396,1396,1396,1396,1391,1380,1353,1340,1328,1316,1302,1285,1236,1213,1198,1193,1192,1192,1192,1192,1191,1181,1178,1178,1178,1178,1174,1172,1170,1167,1165,1161,1133],"ymouse":[640,640,640,640,640,640,640,640,640,640,640,640,640,640,640,640,640,640,640,640,640,640,640,640,640,640,636,616,579,542,522,500,493,482,467,457,450,450,450,452,465,533,606,709,737,737,737,737,737,737,737,737,737,737,737,737,737,737,737,737,737,737,737,737,737,737,737,737,737,677,497,126,0,0,0,0,0,0,0,0,0,0,0,0,0,5,12,14,16,17,19,22,28,32,35,38,38,38,38,38,38,44,45,45,45,45,47,48,48,48,48,48,48],"timestamp_mouse":[7,34,45,64,84,104,123,143,164,184,203,223,244,264,283,305,323,344,364,385,404,423,445,464,484,505,523,543,563,583,603,624,643,663,683,704,724,744,765,783,803,823,844,864,884,904,924,944,964,984,1004,1023,1044,1064,1084,1103,1124,1143,1164,1184,1204,1225,1243,1263,1283,1303,1324,1344,1363,1383,1403,1423,1443,1463,1483,1503,1523,1545,1565,1585,1605,1625,1645,1665,1685,1705,1724,1745,1765,1785,1803,1823,1844,1863,1883,1903,1923,1944,1964,1984,2003,2024,2043,2064,2084,2103,2125,2144,2163,2183,2204,2223,2243],"xSR":741.5,"ySR":573.95,"xT1":424.9,"yT1":0,"xT2":1058.1,"yT2":0,"toosoon":0,"cond_shown":"equaldotsize","ratio_trial":250,"smaller_num":"3","larger_num":"12","correct_side":2,"subjID":"davidsantiagoforerocuervo18","gender":"0","age":"11","school":"6"},{"start_time":1551881491741,"click_time":1551881493066,"finger_time":1551881492505,"fix_duration":534.3010963737969,"trial":26,"RT":764,"MT":561,"sideResp":2,"stimulus":"img/750/equaldotsize/R/5_Ratio_750_L_15_R_20.png","xmouse":[810,810,810,810,810,810,810,810,810,810,810,810,810,810,810,810,810,810,810,810,810,810,810,810,810,810,810,810,810,810,810,810,810,810,810,810,810,816,847,888,965,1112,1203,1314,1363,1366,1365,1356,1345,1341,1333,1330,1320,1310,1269,1242,1212,1190,1173,1171,1171,1171,1171,1171,1169,1164,1156],"ymouse":[610,610,610,610,610,610,610,610,610,610,610,610,610,610,610,610,610,610,610,610,610,610,610,610,610,610,610,610,610,610,610,610,610,610,610,610,610,600,556,505,414,256,161,28,0,0,0,0,0,0,0,0,0,0,10,18,27,37,45,45,45,45,45,45,46,49,53],"timestamp_mouse":[7,27,44,65,84,106,124,144,164,186,205,225,245,264,284,305,325,344,364,384,405,425,445,465,484,504,525,544,564,585,605,625,644,664,685,705,725,745,764,784,805,824,844,865,884,905,926,944,965,984,1005,1024,1044,1064,1084,1104,1125,1145,1164,1185,1204,1224,1244,1265,1284,1304,1325],"xSR":741.5,"ySR":573.95,"xT1":424.9,"yT1":0,"xT2":1058.1,"yT2":0,"toosoon":0,"cond_shown":"equaldotsize","ratio_trial":750,"smaller_num":"15","larger_num":"20","correct_side":2,"subjID":"davidsantiagoforerocuervo18","gender":"0","age":"11","school":"6"},{"start_time":1551881495316,"click_time":1551881495987,"finger_time":1551881495746,"fix_duration":1108.4134146343665,"trial":27,"RT":430,"MT":241,"sideResp":2,"stimulus":"img/900/equaldotsize/R/7_Ratio_900_L_9_R_10.png","xmouse":[782,782,782,782,782,782,782,782,782,782,782,782,785,787,790,791,794,794,794,795,797,799,801,804,810,812,823,843,876,961,1001,1037,1069,1109],"ymouse":[607,607,607,607,607,607,607,607,607,607,607,607,606,604,598,593,589,587,585,583,577,572,564,557,546,538,515,468,405,273,218,161,103,10],"timestamp_mouse":[11,34,49,69,90,111,130,150,169,189,210,230,249,269,290,309,329,349,369,389,410,430,450,469,489,510,530,550,569,590,609,629,650,671],"xSR":741.5,"ySR":573.95,"xT1":424.9,"yT1":0,"xT2":1058.1,"yT2":0,"toosoon":0,"cond_shown":"equaldotsize","ratio_trial":900,"smaller_num":"9","larger_num":"10","correct_side":2,"subjID":"davidsantiagoforerocuervo18","gender":"0","age":"11","school":"6"},{"start_time":1551881498097,"click_time":1551881499145,"finger_time":1551881498645,"fix_duration":1289.4818592500446,"trial":28,"RT":548,"MT":500,"sideResp":1,"stimulus":"img/500/randomdotsizeEA/L/10_Ratio_500_L_4_R_2.png","xmouse":[803,803,803,803,803,803,803,803,803,803,803,803,803,803,803,803,803,803,803,803,803,803,803,803,803,803,803,803,799,793,779,776,775,775,775,772,766,759,753,746,736,735,734,733,724,688,668,650,631,607,554,531,515],"ymouse":[579,579,579,579,579,579,579,579,579,579,579,579,579,579,579,579,579,579,579,579,579,579,579,579,579,579,579,556,509,450,359,331,308,297,288,255,235,214,198,184,173,172,172,172,167,150,139,127,117,103,70,56,42],"timestamp_mouse":[9,38,49,69,88,108,128,149,168,188,208,229,248,268,289,309,329,348,369,389,409,429,448,469,488,508,528,548,569,588,608,629,648,668,688,709,729,748,768,788,808,828,849,868,888,908,928,948,970,988,1008,1029,1048],"xSR":741.5,"ySR":573.95,"xT1":424.9,"yT1":0,"xT2":1058.1,"yT2":0,"toosoon":0,"cond_shown":"randomdotsizeEA","ratio_trial":500,"smaller_num":"2","larger_num":"4","correct_side":1,"subjID":"davidsantiagoforerocuervo18","gender":"0","age":"11","school":"6"},{"start_time":1551881500519,"click_time":1551881501305,"finger_time":1551881501025,"fix_duration":591.989639349858,"trial":29,"RT":506,"MT":280,"sideResp":2,"stimulus":"img/750/equaldotanddens/L/9_Ratio_750_L_4_R_3.png","xmouse":[777,777,777,777,777,777,777,777,777,777,777,777,777,777,777,777,777,777,777,777,777,777,778,791,826,843,859,872,885,916,941,974,1004,1041,1066,1075,1083,1095,1111,1154],"ymouse":[621,621,621,621,621,621,621,621,621,621,621,621,621,621,621,621,621,621,621,621,621,621,620,610,587,574,559,546,531,486,451,406,363,297,234,210,184,154,121,64],"timestamp_mouse":[9,31,47,66,86,107,127,146,166,186,206,227,247,266,286,307,327,347,367,386,407,426,446,466,487,506,526,546,566,586,606,627,646,666,686,707,726,746,766,786],"xSR":741.5,"ySR":573.95,"xT1":424.9,"yT1":0,"xT2":1058.1,"yT2":0,"toosoon":0,"cond_shown":"equaldotanddens","ratio_trial":750,"smaller_num":"3","larger_num":"4","correct_side":1,"subjID":"davidsantiagoforerocuervo18","gender":"0","age":"11","school":"6"},{"start_time":1551881502879,"click_time":1551881503785,"finger_time":1551881503406,"fix_duration":752.7925772893759,"trial":30,"RT":527,"MT":379,"sideResp":2,"stimulus":"img/900/equaldotanddens/R/12_Ratio_900_L_18_R_20.png","xmouse":[808,807,807,807,807,807,807,807,807,807,807,807,807,807,807,807,807,807,807,807,807,807,807,807,812,821,926,1007,1102,1195,1274,1344,1350,1351,1351,1349,1346,1335,1328,1316,1300,1281,1233,1204,1163,1139],"ymouse":[629,630,630,630,630,630,630,630,630,630,630,630,630,630,630,630,630,630,630,630,630,630,630,630,627,615,497,405,309,219,128,22,4,0,0,0,0,0,0,0,0,0,4,10,22,28],"timestamp_mouse":[7,27,46,66,87,106,126,147,167,187,206,228,246,268,286,307,326,348,367,386,407,426,446,466,486,507,527,546,566,587,607,626,646,666,686,707,727,746,766,786,806,826,847,866,888,906],"xSR":741.5,"ySR":573.95,"xT1":424.9,"yT1":0,"xT2":1058.1,"yT2":0,"toosoon":0,"cond_shown":"equaldotanddens","ratio_trial":900,"smaller_num":"18","larger_num":"20","correct_side":2,"subjID":"davidsantiagoforerocuervo18","gender":"0","age":"11","school":"6"},{"start_time":1551881505817,"click_time":1551881506785,"finger_time":1551881506345,"fix_duration":1430.7596804777002,"trial":31,"RT":528,"MT":440,"sideResp":2,"stimulus":"img/500/equaldotsize/R/2_Ratio_500_L_3_R_6.png","xmouse":[797,797,797,797,797,797,797,797,797,797,797,797,797,797,797,797,797,797,797,797,797,797,797,797,797,802,806,816,826,877,900,916,931,943,971,982,992,1006,1012,1018,1018,1019,1020,1021,1023,1030,1044,1057,1073],"ymouse":[592,592,592,592,592,592,592,592,592,592,592,592,592,592,592,592,592,592,592,592,592,592,592,592,592,576,565,526,494,408,375,350,326,305,260,239,216,179,156,115,104,99,95,93,87,79,68,60,52],"timestamp_mouse":[10,34,48,69,88,108,129,148,168,188,208,229,249,269,288,310,328,348,368,389,409,428,448,469,488,509,528,550,568,589,610,628,648,668,688,709,729,748,768,788,808,829,850,868,888,908,928,949,968],"xSR":741.5,"ySR":573.95,"xT1":424.9,"yT1":0,"xT2":1058.1,"yT2":0,"toosoon":0,"cond_shown":"equaldotsize","ratio_trial":500,"smaller_num":"3","larger_num":"6","correct_side":2,"subjID":"davidsantiagoforerocuervo18","gender":"0","age":"11","school":"6"},{"start_time":1551881507916,"click_time":1551881508805,"finger_time":1551881508705,"fix_duration":250,"trial":32,"RT":789,"MT":100,"sideResp":2,"stimulus":"img/750/equaldotanddens/R/2_Ratio_750_L_6_R_8.png","xmouse":[790,790,790,790,790,790,790,790,790,790,790,790,790,790,790,790,790,790,790,790,790,790,790,790,790,790,790,790,790,790,790,790,790,790,790,790,790,791,798,845,878,919,968,1031,1068],"ymouse":[592,592,592,592,592,592,592,592,592,592,592,592,592,592,592,592,592,592,592,592,592,592,592,592,592,592,592,592,592,592,592,592,592,592,592,592,592,592,587,525,473,396,294,144,46],"timestamp_mouse":[9,35,49,69,90,109,130,149,169,189,210,231,249,269,289,310,330,350,370,390,409,430,451,470,489,510,530,549,569,589,609,631,650,669,689,709,729,751,769,789,809,829,849,869,889],"xSR":741.5,"ySR":573.95,"xT1":424.9,"yT1":0,"xT2":1058.1,"yT2":0,"toosoon":0,"cond_shown":"equaldotanddens","ratio_trial":750,"smaller_num":"6","larger_num":"8","correct_side":2,"subjID":"davidsantiagoforerocuervo18","gender":"0","age":"11","school":"6"},{"start_time":1551881511360,"click_time":1551881512345,"finger_time":1551881511926,"fix_duration":1230.3938699517976,"trial":33,"RT":566,"MT":419,"sideResp":1,"stimulus":"img/500/equaldotsize/L/8_Ratio_500_L_8_R_4.png","xmouse":[750,750,750,750,750,750,750,750,750,750,750,750,750,750,750,750,750,750,750,750,750,750,750,750,750,750,752,754,754,754,752,738,693,672,651,638,631,626,625,623,619,613,610,610,610,610,607,571,541,506],"ymouse":[612,612,612,612,612,612,612,612,612,612,612,612,612,612,612,612,612,612,612,612,612,612,612,612,612,612,606,587,567,542,510,424,285,236,203,186,176,170,165,157,141,120,112,112,112,112,109,95,86,76],"timestamp_mouse":[12,27,46,67,85,105,125,145,166,187,205,226,245,265,285,306,326,345,365,385,406,425,445,465,487,505,525,546,566,586,605,625,645,665,686,705,725,745,766,785,806,825,845,867,885,905,925,945,966,985],"xSR":741.5,"ySR":573.95,"xT1":424.9,"yT1":0,"xT2":1058.1,"yT2":0,"toosoon":0,"cond_shown":"equaldotsize","ratio_trial":500,"smaller_num":"4","larger_num":"8","correct_side":1,"subjID":"davidsantiagoforerocuervo18","gender":"0","age":"11","school":"6"},{"start_time":1551881514333,"click_time":1551881515787,"finger_time":1551881514945,"fix_duration":926.900149954778,"trial":34,"RT":612,"MT":842,"sideResp":2,"stimulus":"img/500/equaldotsize/R/3_Ratio_500_L_10_R_20.png","xmouse":[778,778,778,778,778,778,778,778,778,778,778,778,778,778,778,778,778,778,778,778,778,778,778,778,778,778,778,778,791,814,843,901,942,993,1009,1017,1026,1032,1043,1050,1056,1059,1059,1059,1059,1063,1069,1075,1081,1084,1086,1089,1090,1095,1097,1099,1100,1100,1100,1100,1100,1098,1096,1093,1093,1093,1092,1092,1091,1090,1089,1088,1088],"ymouse":[631,631,631,631,631,631,631,631,631,631,631,631,631,631,631,631,631,631,631,631,631,631,631,631,631,631,631,631,622,598,561,488,438,361,331,308,290,276,250,236,221,207,198,183,178,169,161,152,141,135,131,125,123,117,113,108,105,103,103,103,103,103,103,102,102,102,102,102,102,102,102,100,99],"timestamp_mouse":[12,36,53,72,92,112,133,152,172,192,212,232,252,273,292,313,333,352,372,393,413,432,453,473,493,512,532,552,573,592,612,632,652,673,693,713,733,753,772,793,812,833,853,873,893,913,932,952,972,993,1013,1032,1054,1074,1094,1112,1132,1153,1172,1193,1213,1232,1253,1273,1292,1313,1332,1352,1373,1393,1413,1434,1454],"xSR":741.5,"ySR":573.95,"xT1":424.9,"yT1":0,"xT2":1058.1,"yT2":0,"toosoon":0,"cond_shown":"equaldotsize","ratio_trial":500,"smaller_num":"10","larger_num":"20","correct_side":2,"subjID":"davidsantiagoforerocuervo18","gender":"0","age":"11","school":"6"},{"start_time":1551881517474,"click_time":1551881518466,"finger_time":1551881518065,"fix_duration":687.8140978645466,"trial":35,"RT":591,"MT":401,"sideResp":1,"stimulus":"img/500/equaldotsize/L/10_Ratio_500_L_4_R_2.png","xmouse":[830,830,830,830,830,830,830,830,830,830,830,830,830,830,830,830,830,830,830,830,830,830,830,830,830,830,825,811,798,788,777,761,753,747,741,729,709,691,673,652,622,561,541,529,520,514,510,505,500,494],"ymouse":[615,615,615,615,615,615,615,615,615,615,615,615,615,615,615,615,615,615,615,615,615,615,615,615,615,615,611,596,581,569,554,520,502,488,473,448,411,381,352,322,289,227,207,194,183,168,140,124,104,84],"timestamp_mouse":[12,31,51,72,93,112,131,151,173,193,212,232,252,271,293,312,332,351,373,391,411,431,452,471,491,512,531,553,571,591,611,631,651,671,691,711,731,751,771,791,811,831,852,871,892,911,931,952,971,992],"xSR":741.5,"ySR":573.95,"xT1":424.9,"yT1":0,"xT2":1058.1,"yT2":0,"toosoon":0,"cond_shown":"equaldotsize","ratio_trial":500,"smaller_num":"2","larger_num":"4","correct_side":1,"subjID":"davidsantiagoforerocuervo18","gender":"0","age":"11","school":"6"},{"start_time":1551881520419,"click_time":1551881521885,"finger_time":1551881521026,"fix_duration":951.2472662915383,"trial":36,"RT":607,"MT":859,"sideResp":1,"stimulus":"img/750/randomdotsizeEA/L/13_Ratio_750_L_8_R_6.png","xmouse":[798,798,798,798,798,798,798,798,798,798,798,798,798,798,798,798,798,798,798,798,798,798,798,798,798,800,805,808,813,832,842,851,860,866,885,902,929,978,1007,1026,1034,1032,1024,1006,956,923,880,834,765,695,677,663,651,640,627,594,572,546,496,427,405,395,393,391,388,387,387,387,387,393,399,409,422,439],"ymouse":[621,621,621,621,621,621,621,621,621,621,621,621,621,621,621,621,621,621,621,621,621,621,621,621,621,619,616,614,610,595,586,578,570,564,533,506,459,371,323,289,267,262,258,252,238,229,213,191,150,91,72,57,45,38,29,12,4,0,0,0,0,0,0,1,14,18,21,22,24,34,43,56,69,78],"timestamp_mouse":[7,31,47,67,86,107,126,146,167,187,206,227,246,266,286,308,326,346,367,388,407,427,446,466,488,507,527,546,566,587,607,626,646,666,687,706,727,747,766,786,806,826,846,867,886,906,926,946,966,986,1006,1027,1048,1067,1087,1106,1127,1147,1166,1187,1207,1226,1247,1266,1286,1307,1327,1346,1366,1387,1406,1426,1446,1466],"xSR":741.5,"ySR":573.95,"xT1":424.9,"yT1":0,"xT2":1058.1,"yT2":0,"toosoon":0,"cond_shown":"randomdotsizeEA","ratio_trial":750,"smaller_num":"6","larger_num":"8","correct_side":1,"subjID":"davidsantiagoforerocuervo18","gender":"0","age":"11","school":"6"},{"start_time":1551881523268,"click_time":1551881524385,"finger_time":1551881523727,"fix_duration":741.6298382418915,"trial":37,"RT":459,"MT":658,"sideResp":2,"stimulus":"img/900/equaldotanddens/L/10_Ratio_900_L_20_R_18.png","xmouse":[794,794,794,794,794,794,794,794,794,794,794,794,794,794,794,794,794,794,794,794,794,795,802,808,813,816,817,818,820,822,827,836,842,852,871,888,959,1011,1072,1139,1210,1347,1375,1385,1385,1385,1385,1385,1384,1383,1378,1349,1319,1275,1217,1128],"ymouse":[586,586,586,586,586,586,586,586,586,586,586,586,586,586,586,586,586,586,586,586,586,586,569,549,533,524,520,516,511,507,500,484,473,462,441,421,346,299,247,195,143,41,15,0,0,0,0,0,0,0,0,0,0,0,4,16],"timestamp_mouse":[17,38,57,78,97,117,137,159,178,197,217,238,258,278,297,317,337,358,378,397,418,438,459,477,499,517,538,559,577,597,618,637,657,678,698,717,737,758,778,798,818,837,857,877,897,918,938,958,978,997,1019,1038,1057,1079,1099,1117],"xSR":741.5,"ySR":573.95,"xT1":424.9,"yT1":0,"xT2":1058.1,"yT2":0,"toosoon":0,"cond_shown":"equaldotanddens","ratio_trial":900,"smaller_num":"18","larger_num":"20","correct_side":1,"subjID":"davidsantiagoforerocuervo18","gender":"0","age":"11","school":"6"},{"start_time":1551881525761,"click_time":1551881526686,"finger_time":1551881526447,"fix_duration":555.9501365078324,"trial":38,"RT":686,"MT":239,"sideResp":2,"stimulus":"img/750/equaldotsize/R/4_Ratio_750_L_15_R_20.png","xmouse":[799,797,796,795,795,795,795,795,795,795,795,795,795,795,795,795,795,795,795,795,795,795,795,795,795,795,795,795,795,795,795,795,796,811,837,881,928,986,998,1003,1003,1008,1033,1063,1100,1126,1137],"ymouse":[612,613,613,614,614,614,614,614,614,614,614,614,614,614,614,614,614,614,614,614,614,614,614,614,614,614,614,614,614,614,614,614,613,594,558,500,444,360,330,302,295,265,217,184,148,116,94],"timestamp_mouse":[4,24,45,65,85,104,124,144,165,185,204,224,244,264,286,306,325,344,364,384,405,425,445,464,484,504,524,545,565,584,604,624,644,664,686,704,724,744,765,785,804,824,845,866,884,905,925],"xSR":741.5,"ySR":573.95,"xT1":424.9,"yT1":0,"xT2":1058.1,"yT2":0,"toosoon":0,"cond_shown":"equaldotsize","ratio_trial":750,"smaller_num":"15","larger_num":"20","correct_side":2,"subjID":"davidsantiagoforerocuervo18","gender":"0","age":"11","school":"6"},{"start_time":1551881527643,"click_time":1551881528666,"finger_time":1551881528285,"fix_duration":357.24898186520716,"trial":39,"RT":642,"MT":381,"sideResp":1,"stimulus":"img/750/equaldotanddens/L/14_Ratio_750_L_8_R_6.png","xmouse":[767,767,767,767,767,767,767,767,767,767,767,767,767,767,767,767,767,767,767,767,767,767,767,767,767,767,767,767,767,767,767,765,757,726,708,694,679,666,653,648,645,643,642,639,634,627,620,613,588,566,531,500],"ymouse":[652,652,652,652,652,652,652,652,652,652,652,652,652,652,652,652,652,652,652,652,652,652,652,652,652,652,652,652,652,649,624,594,554,443,388,334,285,237,205,198,193,191,189,179,171,161,155,149,130,111,80,51],"timestamp_mouse":[7,23,42,62,82,102,122,143,163,182,203,223,242,264,283,302,323,342,363,382,404,422,442,463,483,503,523,542,562,584,603,622,642,662,682,702,722,744,763,783,802,822,844,862,882,902,923,942,964,982,1003,1022],"xSR":741.5,"ySR":573.95,"xT1":424.9,"yT1":0,"xT2":1058.1,"yT2":0,"toosoon":0,"cond_shown":"equaldotanddens","ratio_trial":750,"smaller_num":"6","larger_num":"8","correct_side":1,"subjID":"davidsantiagoforerocuervo18","gender":"0","age":"11","school":"6"},{"start_time":1551881531136,"click_time":1551881532006,"finger_time":1551881531705,"fix_duration":1450.6984205557073,"trial":40,"RT":569,"MT":301,"sideResp":2,"stimulus":"img/750/equaldotsize/R/3_Ratio_750_L_15_R_20.png","xmouse":[785,785,785,785,785,785,785,785,785,785,785,785,785,785,785,785,785,785,785,785,785,785,785,785,785,785,787,805,917,982,1037,1077,1097,1097,1093,1092,1092,1095,1106,1108,1108,1107,1101,1101],"ymouse":[608,608,608,608,608,608,608,608,608,608,608,608,608,608,608,608,608,608,608,608,608,608,608,608,608,608,605,589,494,441,388,337,295,267,257,247,235,221,188,164,140,121,104,96],"timestamp_mouse":[9,32,49,69,91,109,131,149,169,189,211,230,250,270,289,309,329,349,369,390,410,430,449,470,490,510,530,549,569,590,610,630,650,669,689,710,729,751,769,789,810,830,850,870],"xSR":741.5,"ySR":573.95,"xT1":424.9,"yT1":0,"xT2":1058.1,"yT2":0,"toosoon":0,"cond_shown":"equaldotsize","ratio_trial":750,"smaller_num":"15","larger_num":"20","correct_side":2,"subjID":"davidsantiagoforerocuervo18","gender":"0","age":"11","school":"6"},{"start_time":1551881534029,"click_time":1551881535086,"finger_time":1551881534706,"fix_duration":1102.6757001163053,"trial":41,"RT":677,"MT":380,"sideResp":1,"stimulus":"img/750/equaldotsize/L/13_Ratio_750_L_8_R_6.png","xmouse":[773,773,773,773,773,773,773,773,773,773,773,773,773,773,773,773,773,773,773,773,773,773,773,773,773,773,773,773,773,773,773,773,788,825,862,896,921,930,931,930,927,917,903,846,803,737,710,640,589,570,551,533,520],"ymouse":[592,592,592,592,592,592,592,592,592,592,592,592,592,592,592,592,592,592,592,592,592,592,592,592,592,592,592,592,592,592,592,592,581,559,539,520,506,495,489,486,483,476,467,427,394,317,286,211,161,144,122,100,82],"timestamp_mouse":[29,36,58,77,97,117,137,156,176,198,217,237,257,276,296,317,337,357,376,397,416,436,456,476,496,517,537,557,576,596,616,636,656,677,698,716,736,756,776,798,817,838,856,876,897,917,937,957,976,996,1018,1036,1057],"xSR":741.5,"ySR":573.95,"xT1":424.9,"yT1":0,"xT2":1058.1,"yT2":0,"toosoon":0,"cond_shown":"equaldotsize","ratio_trial":750,"smaller_num":"6","larger_num":"8","correct_side":1,"subjID":"davidsantiagoforerocuervo18","gender":"0","age":"11","school":"6"},{"start_time":1551881537314,"click_time":1551881538305,"finger_time":1551881537846,"fix_duration":1185.3680325975079,"trial":42,"RT":532,"MT":459,"sideResp":2,"stimulus":"img/750/equaldotsize/R/11_Ratio_750_L_12_R_16.png","xmouse":[813,813,813,813,813,813,813,813,813,813,813,813,813,813,813,813,813,813,813,813,813,813,813,813,818,828,840,858,880,923,942,962,985,1015,1030,1033,1035,1035,1037,1043,1048,1056,1057,1062,1068,1073,1078,1087,1096,1114],"ymouse":[623,623,623,623,623,623,623,623,623,623,623,623,623,623,623,623,623,623,623,623,623,623,623,623,612,591,563,520,471,388,353,323,294,260,234,229,225,224,222,214,205,183,178,163,149,141,132,119,101,67],"timestamp_mouse":[11,36,51,71,92,112,133,151,171,192,212,231,251,271,291,312,332,351,372,392,412,432,452,472,491,511,532,551,571,592,612,632,652,672,691,711,731,751,772,792,812,831,851,871,891,913,932,952,973,991],"xSR":741.5,"ySR":573.95,"xT1":424.9,"yT1":0,"xT2":1058.1,"yT2":0,"toosoon":0,"cond_shown":"equaldotsize","ratio_trial":750,"smaller_num":"12","larger_num":"16","correct_side":2,"subjID":"davidsantiagoforerocuervo18","gender":"0","age":"11","school":"6"},{"start_time":1551881540608,"click_time":1551881541466,"finger_time":1551881541086,"fix_duration":1300.9503468488185,"trial":43,"RT":478,"MT":380,"sideResp":1,"stimulus":"img/250/equaldotsize/L/3_Ratio_250_L_8_R_2.png","xmouse":[778,778,778,778,778,778,778,778,778,778,778,778,778,778,778,778,778,778,778,778,778,778,779,779,761,749,733,713,691,664,654,644,638,627,599,582,566,550,532,517,512,507,502],"ymouse":[635,635,635,635,635,635,635,635,635,635,635,635,635,635,635,635,635,635,635,635,635,619,596,570,459,398,341,286,216,121,78,47,27,9,0,0,0,0,0,0,0,0,3],"timestamp_mouse":[27,37,57,77,98,118,137,157,177,197,218,238,257,277,297,317,337,358,378,398,417,437,457,478,497,518,539,558,579,597,618,638,657,677,697,719,738,758,778,798,817,838,858],"xSR":741.5,"ySR":573.95,"xT1":424.9,"yT1":0,"xT2":1058.1,"yT2":0,"toosoon":0,"cond_shown":"equaldotsize","ratio_trial":250,"smaller_num":"2","larger_num":"8","correct_side":1,"subjID":"davidsantiagoforerocuervo18","gender":"0","age":"11","school":"6"},{"start_time":1551881543050,"click_time":1551881543905,"finger_time":1551881543686,"fix_duration":743.129864287481,"trial":44,"RT":636,"MT":219,"sideResp":1,"stimulus":"img/500/equaldotanddens/L/8_Ratio_500_L_8_R_4.png","xmouse":[791,791,791,791,791,791,791,791,791,791,791,791,791,791,791,791,791,791,791,791,791,791,791,791,791,791,791,791,790,783,774,762,746,730,713,678,653,597,574,553,539,528,510],"ymouse":[639,639,639,639,639,639,639,639,639,639,639,639,639,639,639,639,639,639,639,639,639,639,639,639,639,639,639,639,630,613,592,563,474,420,365,280,226,134,103,73,51,31,7],"timestamp_mouse":[15,35,56,76,95,115,136,156,176,196,215,236,256,277,296,315,336,356,376,395,416,436,456,475,495,515,536,556,576,597,615,636,655,676,695,717,736,756,776,796,817,836,855],"xSR":741.5,"ySR":573.95,"xT1":424.9,"yT1":0,"xT2":1058.1,"yT2":0,"toosoon":0,"cond_shown":"equaldotanddens","ratio_trial":500,"smaller_num":"4","larger_num":"8","correct_side":1,"subjID":"davidsantiagoforerocuervo18","gender":"0","age":"11","school":"6"},{"start_time":1551881546366,"click_time":1551881547605,"finger_time":1551881547166,"fix_duration":318.8935403708493,"trial":45,"RT":800,"MT":439,"sideResp":1,"stimulus":"img/250/equaldotanddens/L/15_Ratio_250_L_12_R_3.png","xmouse":[777,777,777,777,777,777,777,777,777,777,777,777,777,777,777,777,777,777,777,777,777,777,777,777,777,777,777,777,777,777,777,777,777,777,777,777,777,777,772,769,752,726,656,621,588,568,558,551,549,546,543,540,539,539,539,539,539,538,537,536,534,530,515],"ymouse":[600,600,600,600,600,600,600,600,600,600,600,600,600,600,600,600,600,600,600,600,600,600,600,600,600,600,600,600,600,600,600,600,600,600,600,600,600,600,593,587,554,490,320,245,186,147,121,78,64,53,46,42,41,41,41,41,41,41,41,41,41,41,41],"timestamp_mouse":[1,19,39,60,80,100,119,139,160,179,200,220,240,260,280,300,319,339,360,379,399,419,440,460,480,499,519,539,559,579,600,619,639,659,680,699,719,739,759,779,800,819,839,859,879,900,920,940,961,979,1000,1019,1040,1060,1080,1100,1120,1139,1159,1180,1200,1220,1239],"xSR":741.5,"ySR":573.95,"xT1":424.9,"yT1":0,"xT2":1058.1,"yT2":0,"toosoon":0,"cond_shown":"equaldotanddens","ratio_trial":250,"smaller_num":"3","larger_num":"12","correct_side":1,"subjID":"davidsantiagoforerocuervo18","gender":"0","age":"11","school":"6"},{"start_time":1551881549490,"click_time":1551881550765,"finger_time":1551881550106,"fix_duration":784.4862486169786,"trial":46,"RT":616,"MT":659,"sideResp":1,"stimulus":"img/750/equaldotsize/L/14_Ratio_750_L_8_R_6.png","xmouse":[760,760,760,760,760,760,760,760,760,760,760,760,760,760,760,760,760,760,760,760,760,760,760,760,760,756,754,752,751,748,738,730,718,684,653,578,537,501,470,446,419,411,411,417,421,421,420,420,416,413,413,416,423,428,429,429,429,429,429,430,433,441,452,464],"ymouse":[637,637,637,637,637,637,637,637,637,637,637,637,637,637,637,637,637,637,637,637,637,637,637,634,622,601,593,587,582,574,539,509,470,384,311,134,42,0,0,0,0,0,0,0,0,0,0,0,17,45,106,126,138,144,144,144,144,144,144,144,143,130,115,93],"timestamp_mouse":[16,36,56,75,95,115,136,156,175,195,216,236,256,275,295,315,336,356,375,395,416,435,456,476,496,516,536,557,575,596,616,635,655,675,697,716,737,756,776,796,815,835,855,876,897,917,937,956,975,995,1016,1036,1055,1077,1097,1116,1137,1156,1176,1195,1215,1235,1256,1275],"xSR":741.5,"ySR":573.95,"xT1":424.9,"yT1":0,"xT2":1058.1,"yT2":0,"toosoon":0,"cond_shown":"equaldotsize","ratio_trial":750,"smaller_num":"6","larger_num":"8","correct_side":1,"subjID":"davidsantiagoforerocuervo18","gender":"0","age":"11","school":"6"},{"start_time":1551881552152,"click_time":1551881553125,"finger_time":1551881552806,"fix_duration":545.2097532184557,"trial":47,"RT":654,"MT":319,"sideResp":2,"stimulus":"img/250/randomdotsizeEA/R/11_Ratio_250_L_3_R_12.png","xmouse":[815,815,815,815,815,815,815,815,815,815,815,815,815,815,815,815,815,815,815,815,815,815,815,815,815,815,815,815,815,815,815,815,841,879,929,975,1002,1020,1023,1025,1035,1044,1052,1055,1057,1057,1057,1057,1059],"ymouse":[599,599,599,599,599,599,599,599,599,599,599,599,599,599,599,599,599,599,599,599,599,599,599,599,599,599,599,599,599,599,599,599,573,534,473,405,350,276,250,216,144,107,54,37,27,24,24,24,23],"timestamp_mouse":[14,35,54,73,93,113,133,153,174,194,214,233,253,273,293,314,334,354,373,393,414,433,453,474,494,515,533,553,574,594,613,634,654,674,694,713,734,753,774,794,814,834,854,874,894,913,933,953,973],"xSR":741.5,"ySR":573.95,"xT1":424.9,"yT1":0,"xT2":1058.1,"yT2":0,"toosoon":0,"cond_shown":"randomdotsizeEA","ratio_trial":250,"smaller_num":"3","larger_num":"12","correct_side":2,"subjID":"davidsantiagoforerocuervo18","gender":"0","age":"11","school":"6"},{"start_time":1551881555123,"click_time":1551881556547,"finger_time":1551881555726,"fix_duration":1356.859311102183,"trial":48,"RT":603,"MT":821,"sideResp":2,"stimulus":"img/750/randomdotsizeEA/R/2_Ratio_750_L_6_R_8.png","xmouse":[803,803,803,803,803,803,803,803,803,803,803,803,803,803,803,803,803,803,803,803,803,803,803,803,803,803,803,803,803,794,781,760,733,691,659,648,642,640,638,636,636,636,637,645,683,721,789,867,952,1112,1175,1218,1241,1266,1293,1303,1305,1305,1299,1281,1264,1243,1218,1179,1144,1140,1139,1139,1139,1139,1140,1153],"ymouse":[605,605,605,605,605,605,605,605,605,605,605,605,605,605,605,605,605,605,605,605,605,605,605,605,605,605,605,605,604,584,564,538,506,460,412,393,379,368,355,338,333,330,326,323,317,317,317,317,315,315,312,304,292,270,229,209,191,175,165,148,146,146,146,146,144,143,143,143,142,136,125,97],"timestamp_mouse":[8,28,43,62,83,103,123,142,163,182,202,223,243,263,283,302,322,343,363,383,403,422,442,462,483,503,522,542,564,583,603,624,642,664,683,703,723,742,764,782,803,822,842,863,883,903,923,942,962,982,1003,1022,1042,1064,1082,1104,1123,1143,1162,1182,1203,1222,1242,1263,1284,1304,1323,1343,1362,1383,1403,1424],"xSR":741.5,"ySR":573.95,"xT1":424.9,"yT1":0,"xT2":1058.1,"yT2":0,"toosoon":0,"cond_shown":"randomdotsizeEA","ratio_trial":750,"smaller_num":"6","larger_num":"8","correct_side":2,"subjID":"davidsantiagoforerocuervo18","gender":"0","age":"11","school":"6"},{"start_time":1551881557658,"click_time":1551881558505,"finger_time":1551881558306,"fix_duration":250,"trial":49,"RT":648,"MT":199,"sideResp":2,"stimulus":"img/750/randomdotsizeEA/R/2_Ratio_750_L_6_R_8.png","xmouse":[796,796,795,795,795,795,795,795,795,795,795,795,795,795,795,795,795,795,795,795,795,795,795,795,795,800,804,809,811,813,815,821,887,966,1045,1080,1094,1106,1116,1118,1118,1116,1113],"ymouse":[611,612,612,612,612,612,612,612,612,612,612,612,612,612,612,612,612,612,612,612,612,612,612,612,612,612,611,611,611,609,607,602,555,499,443,401,351,263,210,179,148,122,80],"timestamp_mouse":[7,28,47,67,87,107,128,148,167,189,208,227,247,267,287,307,327,348,367,387,407,427,448,468,487,508,529,548,568,588,608,629,648,669,687,708,727,748,769,788,807,828,847],"xSR":741.5,"ySR":573.95,"xT1":424.9,"yT1":0,"xT2":1058.1,"yT2":0,"toosoon":0,"cond_shown":"randomdotsizeEA","ratio_trial":750,"smaller_num":"6","larger_num":"8","correct_side":2,"subjID":"davidsantiagoforerocuervo18","gender":"0","age":"11","school":"6"},{"start_time":1551881559756,"click_time":1551881560946,"finger_time":1551881560465,"fix_duration":250.91060051623614,"trial":50,"RT":709,"MT":481,"sideResp":1,"stimulus":"img/750/equaldotanddens/L/1_Ratio_750_L_20_R_15.png","xmouse":[762,762,762,762,762,762,762,762,762,762,762,762,762,762,762,762,762,762,762,762,762,762,762,762,762,762,762,762,762,762,762,762,762,762,755,741,720,659,628,609,598,593,591,591,591,591,588,571,563,555,551,543,530,522,513,503,493,478,474,471],"ymouse":[620,620,620,620,620,620,620,620,620,620,620,620,620,620,620,620,620,620,620,620,620,620,620,620,620,620,620,620,620,620,620,620,620,620,605,584,548,454,405,364,326,292,251,218,168,127,85,1,0,0,0,0,0,0,0,0,0,0,0,1],"timestamp_mouse":[10,35,49,69,89,109,129,150,170,189,209,230,249,269,290,309,329,349,370,390,409,430,450,470,489,510,530,549,569,589,609,631,650,669,691,709,729,749,771,789,810,830,849,869,890,910,931,951,969,990,1009,1031,1049,1069,1091,1111,1130,1149,1171,1190],"xSR":741.5,"ySR":573.95,"xT1":424.9,"yT1":0,"xT2":1058.1,"yT2":0,"toosoon":0,"cond_shown":"equaldotanddens","ratio_trial":750,"smaller_num":"15","larger_num":"20","correct_side":1,"subjID":"davidsantiagoforerocuervo18","gender":"0","age":"11","school":"6"},{"start_time":1551881564334,"click_time":1551881565507,"finger_time":1551881565005,"fix_duration":1248.4959101990758,"trial":51,"RT":671,"MT":502,"sideResp":2,"stimulus":"img/900/randomdotsizeEA/R/5_Ratio_900_L_9_R_10.png","xmouse":[801,801,801,801,801,801,801,801,801,801,801,801,801,801,801,801,801,801,801,801,801,801,801,801,801,801,801,801,801,801,801,801,804,851,887,931,977,1015,1056,1134,1169,1198,1221,1238,1242,1246,1248,1248,1241,1233,1224,1208,1175,1129,1116,1111,1110,1107,1100],"ymouse":[624,624,624,624,624,624,624,624,624,624,624,624,624,624,624,624,624,624,624,624,624,624,624,624,624,624,624,624,624,624,624,624,622,590,564,532,493,450,399,292,243,201,160,126,113,100,86,69,38,28,21,15,6,0,0,0,0,0,2],"timestamp_mouse":[12,33,53,71,91,111,131,151,172,191,211,231,251,271,292,311,331,352,371,391,411,432,451,471,491,512,532,552,571,592,612,632,653,671,692,711,732,751,772,791,812,832,852,871,891,912,931,951,971,993,1011,1031,1053,1072,1091,1111,1131,1151,1173],"xSR":741.5,"ySR":573.95,"xT1":424.9,"yT1":0,"xT2":1058.1,"yT2":0,"toosoon":0,"cond_shown":"randomdotsizeEA","ratio_trial":900,"smaller_num":"9","larger_num":"10","correct_side":2,"subjID":"davidsantiagoforerocuervo18","gender":"0","age":"11","school":"6"},{"start_time":1551881567127,"click_time":1551881568106,"finger_time":1551881567826,"fix_duration":581.2635539618371,"trial":52,"RT":699,"MT":280,"sideResp":2,"stimulus":"img/900/equaldotanddens/R/7_Ratio_900_L_9_R_10.png","xmouse":[779,779,779,779,779,779,779,779,779,779,779,779,779,779,779,779,779,779,779,779,779,779,779,779,779,779,779,779,779,779,779,781,785,823,873,947,1038,1130,1206,1253,1253,1244,1237,1226,1220,1205,1189,1166,1116],"ymouse":[616,616,616,616,616,616,616,616,616,616,616,616,616,616,616,616,616,616,616,616,616,616,616,616,616,616,616,616,616,616,616,615,613,577,527,444,346,258,192,139,131,114,102,81,69,60,52,49,40],"timestamp_mouse":[28,38,58,79,99,118,138,158,178,198,218,239,259,278,299,319,338,358,378,398,418,439,459,478,498,518,539,559,578,598,618,639,659,679,699,719,738,759,778,799,819,838,860,878,898,918,939,958,978],"xSR":741.5,"ySR":573.95,"xT1":424.9,"yT1":0,"xT2":1058.1,"yT2":0,"toosoon":0,"cond_shown":"equaldotanddens","ratio_trial":900,"smaller_num":"9","larger_num":"10","correct_side":2,"subjID":"davidsantiagoforerocuervo18","gender":"0","age":"11","school":"6"},{"start_time":1551881570343,"click_time":1551881572285,"finger_time":1551881570966,"fix_duration":1355.2113744065496,"trial":53,"RT":623,"MT":1319,"sideResp":1,"stimulus":"img/750/randomdotsizeEA/L/13_Ratio_750_L_8_R_6.png","xmouse":[803,803,803,803,803,803,803,803,803,803,803,803,803,803,803,803,803,803,803,803,803,803,803,803,803,803,803,803,803,805,814,843,859,881,895,917,958,1011,1119,1172,1220,1251,1270,1271,1271,1271,1271,1271,1264,1259,1254,1252,1251,1242,1234,1226,1219,1213,1190,1163,1125,1079,1007,936,909,883,847,790,664,600,561,543,539,548,558,566,575,579,581,576,561,534,516,465,445,427,415,409,408,402,393,391,390,398,402,411,420,428],"ymouse":[611,611,611,611,611,611,611,611,611,611,611,611,611,611,611,611,611,611,611,611,611,611,611,611,611,611,611,611,611,611,605,583,568,526,492,441,379,317,207,145,96,62,38,33,33,33,32,29,18,13,11,10,10,16,29,44,60,81,150,210,269,325,387,412,413,413,413,413,409,395,377,360,339,283,258,229,199,173,118,88,57,12,0,0,0,0,0,0,0,4,22,28,38,51,55,58,63,66],"timestamp_mouse":[7,25,42,62,82,102,122,143,163,183,202,222,242,263,282,302,323,343,362,382,403,422,442,462,482,503,524,542,562,583,602,623,644,663,682,702,723,743,764,783,802,824,843,863,883,902,922,942,962,984,1003,1022,1044,1063,1083,1103,1123,1142,1162,1182,1203,1223,1243,1263,1284,1303,1324,1342,1362,1383,1403,1423,1443,1462,1482,1502,1522,1544,1564,1584,1603,1622,1642,1662,1683,1703,1723,1744,1763,1783,1803,1822,1843,1863,1882,1903,1922,1942],"xSR":741.5,"ySR":573.95,"xT1":424.9,"yT1":0,"xT2":1058.1,"yT2":0,"toosoon":0,"cond_shown":"randomdotsizeEA","ratio_trial":750,"smaller_num":"6","larger_num":"8","correct_side":1,"subjID":"davidsantiagoforerocuervo18","gender":"0","age":"11","school":"6"},{"start_time":1551881574516,"click_time":1551881575587,"finger_time":1551881575166,"fix_duration":1228.3396724544043,"trial":54,"RT":650,"MT":421,"sideResp":1,"stimulus":"img/250/randomdotsizeEA/L/2_Ratio_250_L_16_R_4.png","xmouse":[765,765,765,765,765,765,765,765,765,765,765,765,765,765,765,765,765,765,765,765,765,765,765,765,765,765,768,768,770,777,778,778,778,775,758,742,716,681,641,587,569,556,535,525,508,505,503,502,500,499,499,499,498,496],"ymouse":[623,623,623,623,623,623,623,623,623,623,623,623,623,623,623,623,623,623,623,623,623,623,623,623,623,623,621,618,614,597,586,574,555,539,480,435,376,312,243,128,92,69,37,21,0,0,0,0,0,0,0,0,0,5],"timestamp_mouse":[12,34,49,69,89,109,130,150,169,189,209,229,250,269,289,309,329,349,370,389,411,431,449,469,490,510,530,550,570,590,610,631,650,671,689,710,730,750,770,789,809,829,850,870,889,909,931,950,970,990,1009,1030,1049,1070],"xSR":741.5,"ySR":573.95,"xT1":424.9,"yT1":0,"xT2":1058.1,"yT2":0,"toosoon":0,"cond_shown":"randomdotsizeEA","ratio_trial":250,"smaller_num":"4","larger_num":"16","correct_side":1,"subjID":"davidsantiagoforerocuervo18","gender":"0","age":"11","school":"6"},{"start_time":1551881577840,"click_time":1551881578767,"finger_time":1551881578566,"fix_duration":1372.2731821638477,"trial":55,"RT":726,"MT":201,"sideResp":2,"stimulus":"img/900/equaldotanddens/L/10_Ratio_900_L_20_R_18.png","xmouse":[760,760,760,760,760,760,760,760,760,760,760,760,760,760,760,760,760,760,760,760,760,760,760,760,760,760,760,760,760,760,760,760,760,760,760,775,808,846,904,920,933,944,955,991,1022,1053,1092],"ymouse":[615,615,615,615,615,615,615,615,615,615,615,615,615,615,615,615,615,615,615,615,615,615,615,615,615,615,615,615,615,615,615,615,615,615,615,603,573,525,408,356,307,271,243,192,155,120,64],"timestamp_mouse":[7,28,45,66,85,105,126,145,166,187,205,227,247,265,286,305,326,345,365,385,405,426,445,465,485,507,525,545,565,585,605,625,645,666,686,705,726,745,765,786,806,826,846,867,886,905,926],"xSR":741.5,"ySR":573.95,"xT1":424.9,"yT1":0,"xT2":1058.1,"yT2":0,"toosoon":0,"cond_shown":"equaldotanddens","ratio_trial":900,"smaller_num":"18","larger_num":"20","correct_side":1,"subjID":"davidsantiagoforerocuervo18","gender":"0","age":"11","school":"6"},{"start_time":1551881579887,"click_time":1551881580946,"finger_time":1551881580586,"fix_duration":280.7575607306146,"trial":56,"RT":699,"MT":360,"sideResp":2,"stimulus":"img/750/equaldotanddens/R/11_Ratio_750_L_12_R_16.png","xmouse":[795,795,795,795,795,795,795,795,795,795,795,795,795,795,795,795,795,795,795,795,795,795,795,795,795,795,795,795,795,795,795,795,801,834,859,939,981,1020,1058,1087,1142,1158,1172,1183,1190,1191,1191,1191,1187,1182,1168,1161,1144],"ymouse":[633,633,633,633,633,633,633,633,633,633,633,633,633,633,633,633,633,633,633,633,633,633,633,633,633,633,633,633,633,633,633,633,626,596,562,447,380,313,247,196,123,103,83,67,52,49,49,48,48,47,47,47,53],"timestamp_mouse":[24,39,59,78,98,118,138,158,178,198,218,239,258,278,299,318,338,358,379,399,420,438,460,478,498,518,539,558,579,598,619,639,658,679,699,719,739,759,779,798,819,839,858,879,900,920,938,959,978,998,1018,1038,1059],"xSR":741.5,"ySR":573.95,"xT1":424.9,"yT1":0,"xT2":1058.1,"yT2":0,"toosoon":0,"cond_shown":"equaldotanddens","ratio_trial":750,"smaller_num":"12","larger_num":"16","correct_side":2,"subjID":"davidsantiagoforerocuervo18","gender":"0","age":"11","school":"6"},{"start_time":1551881582556,"click_time":1551881583346,"finger_time":1551881583266,"fix_duration":648.6718063901917,"trial":57,"RT":710,"MT":80,"sideResp":2,"stimulus":"img/500/equaldotanddens/R/14_Ratio_500_L_5_R_10.png","xmouse":[804,804,804,804,804,804,804,804,804,804,804,804,804,804,804,804,804,804,804,804,804,804,804,804,804,804,803,801,800,799,799,799,799,801,822,867,933,1069,1098,1102],"ymouse":[636,636,636,636,636,636,636,636,636,636,636,636,636,636,636,636,636,636,636,636,636,636,636,636,636,636,635,634,632,631,631,631,631,623,596,533,448,255,157,48],"timestamp_mouse":[10,29,49,69,89,109,129,149,169,189,209,229,249,270,290,309,329,349,370,389,409,429,449,470,489,509,529,550,569,590,609,629,649,670,690,710,729,751,769,790],"xSR":741.5,"ySR":573.95,"xT1":424.9,"yT1":0,"xT2":1058.1,"yT2":0,"toosoon":0,"cond_shown":"equaldotanddens","ratio_trial":500,"smaller_num":"5","larger_num":"10","correct_side":2,"subjID":"davidsantiagoforerocuervo18","gender":"0","age":"11","school":"6"},{"start_time":1551881585700,"click_time":1551881587107,"finger_time":1551881586466,"fix_duration":1493.716433436383,"trial":58,"RT":766,"MT":641,"sideResp":1,"stimulus":"img/250/randomdotsizeEA/R/8_Ratio_250_L_1_R_4.png","xmouse":[810,810,810,810,810,810,810,810,810,810,810,810,810,810,810,810,810,810,810,810,810,810,810,810,810,810,810,810,810,810,810,810,810,810,810,810,810,822,860,928,1008,1023,1031,1037,1044,1057,1062,1070,1077,1080,1081,1081,1081,1081,1081,1077,1067,1052,1030,999,908,861,808,749,706,646,621,596,568,541,497],"ymouse":[625,625,625,625,625,625,625,625,625,625,625,625,625,625,625,625,625,625,625,625,625,625,625,625,625,625,625,625,625,625,625,625,625,625,625,625,625,618,601,571,522,508,499,487,472,441,422,400,383,376,374,374,374,374,374,374,374,374,374,374,374,372,361,330,296,230,199,169,142,119,82],"timestamp_mouse":[13,30,45,65,85,105,126,145,165,186,205,225,245,265,286,305,326,346,366,385,405,425,445,465,485,505,525,546,566,586,605,625,647,666,685,705,725,746,766,786,806,827,845,865,886,906,925,946,966,986,1006,1026,1045,1065,1085,1106,1125,1146,1165,1185,1205,1226,1245,1266,1285,1305,1327,1345,1366,1385,1406],"xSR":741.5,"ySR":573.95,"xT1":424.9,"yT1":0,"xT2":1058.1,"yT2":0,"toosoon":0,"cond_shown":"randomdotsizeEA","ratio_trial":250,"smaller_num":"1","larger_num":"4","correct_side":2,"subjID":"davidsantiagoforerocuervo18","gender":"0","age":"11","school":"6"},{"start_time":1551881591482,"click_time":1551881592206,"finger_time":1551881592025,"fix_duration":1475.6530356561607,"trial":59,"RT":543,"MT":181,"sideResp":2,"stimulus":"img/900/equaldotsize/R/11_Ratio_900_L_18_R_20.png","xmouse":[818,818,818,818,818,818,818,818,818,818,818,818,818,818,818,818,818,818,818,818,818,818,818,818,818,820,835,849,871,899,927,979,1007,1042,1069,1097,1110],"ymouse":[606,606,606,606,606,606,606,606,606,606,606,606,606,606,606,606,606,606,606,606,606,606,606,606,606,604,583,565,539,502,459,354,297,241,184,117,77],"timestamp_mouse":[8,36,45,64,83,103,123,144,164,183,203,223,243,265,284,303,324,343,363,385,403,423,444,464,484,504,523,543,563,583,603,623,644,664,684,705,723],"xSR":741.5,"ySR":573.95,"xT1":424.9,"yT1":0,"xT2":1058.1,"yT2":0,"toosoon":0,"cond_shown":"equaldotsize","ratio_trial":900,"smaller_num":"18","larger_num":"20","correct_side":2,"subjID":"davidsantiagoforerocuervo18","gender":"0","age":"11","school":"6"},{"start_time":1551881594555,"click_time":1551881595585,"finger_time":1551881595285,"fix_duration":1347.9126585480851,"trial":60,"RT":730,"MT":300,"sideResp":2,"stimulus":"img/900/randomdotsizeEA/L/8_Ratio_900_L_20_R_18.png","xmouse":[815,815,815,815,815,815,815,815,815,815,815,815,815,815,815,815,815,815,815,815,815,815,815,815,815,815,815,815,815,815,815,815,815,815,819,831,852,891,939,948,955,975,1019,1034,1049,1057,1064,1074,1082,1092,1101,1111],"ymouse":[598,598,598,598,598,598,598,598,598,598,598,598,598,598,598,598,598,598,598,598,598,598,598,598,598,598,598,598,598,598,598,598,598,598,591,578,555,520,445,416,386,339,280,258,237,220,202,164,145,128,111,89],"timestamp_mouse":[10,30,50,70,90,110,130,150,170,190,211,230,250,270,291,310,330,350,371,391,411,430,450,470,491,510,530,550,570,591,611,630,650,671,691,711,730,750,770,791,811,831,851,870,891,911,931,950,971,991,1011,1030],"xSR":741.5,"ySR":573.95,"xT1":424.9,"yT1":0,"xT2":1058.1,"yT2":0,"toosoon":0,"cond_shown":"randomdotsizeEA","ratio_trial":900,"smaller_num":"18","larger_num":"20","correct_side":1,"subjID":"davidsantiagoforerocuervo18","gender":"0","age":"11","school":"6"},{"start_time":1551881597131,"click_time":1551881598066,"finger_time":1551881597767,"fix_duration":644.2657896452886,"trial":61,"RT":636,"MT":299,"sideResp":1,"stimulus":"img/900/equaldotanddens/L/8_Ratio_900_L_20_R_18.png","xmouse":[781,781,781,781,781,781,781,781,781,781,781,781,781,781,781,781,781,781,781,781,781,781,781,781,781,781,781,781,781,781,775,771,746,715,632,585,544,508,464,459,458,458,458,458,458,458,458],"ymouse":[591,591,591,591,591,591,591,591,591,591,591,591,591,591,591,591,591,591,591,591,591,591,591,591,591,591,591,591,591,591,579,569,509,439,240,132,38,0,0,0,0,0,0,0,0,0,1],"timestamp_mouse":[15,38,54,74,94,115,134,155,174,194,214,234,254,274,295,314,335,355,375,394,414,434,454,474,494,515,536,554,574,594,615,636,654,674,695,715,735,754,775,794,816,835,854,875,895,914,935],"xSR":741.5,"ySR":573.95,"xT1":424.9,"yT1":0,"xT2":1058.1,"yT2":0,"toosoon":0,"cond_shown":"equaldotanddens","ratio_trial":900,"smaller_num":"18","larger_num":"20","correct_side":1,"subjID":"davidsantiagoforerocuervo18","gender":"0","age":"11","school":"6"},{"start_time":1551881600444,"click_time":1551881601446,"finger_time":1551881601046,"fix_duration":1457.7381223533193,"trial":62,"RT":602,"MT":400,"sideResp":2,"stimulus":"img/500/randomdotsizeEA/R/9_Ratio_500_L_2_R_4.png","xmouse":[766,766,766,766,766,766,766,766,766,766,766,766,766,766,766,766,766,766,766,766,766,766,766,766,766,766,766,766,776,787,800,820,846,919,958,994,1018,1037,1048,1057,1068,1081,1095,1120,1123,1123,1123,1123,1123,1123,1118],"ymouse":[621,621,621,621,621,621,621,621,621,621,621,621,621,621,621,621,621,621,621,621,621,621,621,621,621,621,621,620,602,589,570,541,496,341,250,166,97,48,20,6,0,0,0,0,0,0,0,0,0,0,4],"timestamp_mouse":[6,24,43,61,81,102,121,141,161,181,201,221,242,261,281,301,321,342,361,381,402,421,441,463,481,502,521,541,561,581,602,622,641,662,683,701,721,741,761,781,801,821,842,862,882,901,922,941,961,982,1002],"xSR":741.5,"ySR":573.95,"xT1":424.9,"yT1":0,"xT2":1058.1,"yT2":0,"toosoon":0,"cond_shown":"randomdotsizeEA","ratio_trial":500,"smaller_num":"2","larger_num":"4","correct_side":2,"subjID":"davidsantiagoforerocuervo18","gender":"0","age":"11","school":"6"},{"start_time":1551881603253,"click_time":1551881604346,"finger_time":1551881603965,"fix_duration":1227.1496534759353,"trial":63,"RT":712,"MT":381,"sideResp":1,"stimulus":"img/900/randomdotsizeEA/R/3_Ratio_900_L_9_R_10.png","xmouse":[792,792,792,792,792,792,792,792,792,792,792,792,792,792,792,792,792,792,792,792,792,792,792,792,792,792,792,792,792,792,792,792,792,790,788,781,768,743,721,700,684,674,658,651,634,627,600,576,567,562,557,553,540,530,523],"ymouse":[600,600,600,600,600,600,600,600,600,600,600,600,600,600,600,600,600,600,600,600,600,600,600,600,600,600,600,600,600,600,600,600,600,592,584,562,514,422,376,332,304,287,262,249,223,213,176,127,106,93,85,78,65,56,49],"timestamp_mouse":[12,32,52,72,92,112,132,152,172,193,212,232,252,272,293,312,332,354,373,393,414,433,452,472,492,513,532,552,572,592,612,634,652,672,694,712,732,752,772,793,812,833,853,873,893,912,932,952,972,992,1012,1034,1053,1072,1093],"xSR":741.5,"ySR":573.95,"xT1":424.9,"yT1":0,"xT2":1058.1,"yT2":0,"toosoon":0,"cond_shown":"randomdotsizeEA","ratio_trial":900,"smaller_num":"9","larger_num":"10","correct_side":2,"subjID":"davidsantiagoforerocuervo18","gender":"0","age":"11","school":"6"},{"start_time":1551881606334,"click_time":1551881607546,"finger_time":1551881607185,"fix_duration":887.2627160448936,"trial":64,"RT":851,"MT":361,"sideResp":1,"stimulus":"img/900/randomdotsizeEA/L/8_Ratio_900_L_20_R_18.png","xmouse":[799,799,799,799,799,799,799,798,798,798,797,797,797,797,797,797,797,797,797,797,797,797,797,797,797,797,797,797,797,797,797,797,797,802,807,811,813,815,815,815,815,815,815,793,770,750,731,710,679,671,666,663,655,642,630,614,596,576,545,530,521],"ymouse":[620,620,620,620,620,620,620,623,623,623,624,624,624,624,624,624,624,624,624,624,624,624,624,624,624,624,624,624,624,624,624,624,624,622,620,619,618,618,618,618,615,596,572,491,435,389,345,302,248,237,231,224,202,158,136,119,105,93,66,53,44],"timestamp_mouse":[11,33,53,72,91,112,133,152,172,191,211,231,251,272,291,313,332,351,371,391,412,432,451,471,491,511,532,552,572,591,611,631,651,672,691,712,732,752,771,791,811,832,851,871,892,911,932,951,971,992,1011,1031,1051,1071,1091,1111,1133,1151,1172,1193,1212],"xSR":741.5,"ySR":573.95,"xT1":424.9,"yT1":0,"xT2":1058.1,"yT2":0,"toosoon":0,"cond_shown":"randomdotsizeEA","ratio_trial":900,"smaller_num":"18","larger_num":"20","correct_side":1,"subjID":"davidsantiagoforerocuervo18","gender":"0","age":"11","school":"6"},{"start_time":1551881611269,"click_time":1551881612205,"finger_time":1551881611845,"fix_duration":1462.6928165394968,"trial":65,"RT":576,"MT":360,"sideResp":2,"stimulus":"img/500/equaldotanddens/R/3_Ratio_500_L_10_R_20.png","xmouse":[798,798,799,800,800,800,800,800,800,800,800,800,800,800,800,800,800,800,800,800,800,800,800,800,800,802,815,837,875,923,961,995,1003,1005,1007,1010,1014,1015,1015,1014,1012,1020,1034,1049,1068,1084,1124],"ymouse":[649,646,644,643,643,643,643,643,643,643,643,643,643,643,643,643,643,643,643,643,643,643,643,643,642,637,612,582,541,492,442,381,362,347,335,316,283,262,242,222,204,170,155,141,128,116,80],"timestamp_mouse":[17,36,58,76,96,116,137,158,176,196,216,237,257,276,296,316,337,357,377,397,416,436,456,476,497,516,536,556,576,597,616,636,658,677,696,716,736,757,776,797,817,837,856,877,897,916,936],"xSR":741.5,"ySR":573.95,"xT1":424.9,"yT1":0,"xT2":1058.1,"yT2":0,"toosoon":0,"cond_shown":"equaldotanddens","ratio_trial":500,"smaller_num":"10","larger_num":"20","correct_side":2,"subjID":"davidsantiagoforerocuervo18","gender":"0","age":"11","school":"6"},{"start_time":1551881614324,"click_time":1551881615325,"finger_time":1551881615025,"fix_duration":1277.0541309173282,"trial":66,"RT":701,"MT":300,"sideResp":1,"stimulus":"img/900/randomdotsizeEA/L/1_Ratio_900_L_10_R_9.png","xmouse":[772,772,772,772,772,772,772,772,772,772,772,772,772,772,772,772,772,772,772,772,772,772,772,772,772,772,772,772,772,772,772,772,772,772,767,756,732,701,670,627,613,607,601,598,583,568,549,535,522,504,489],"ymouse":[639,639,639,638,637,637,637,637,637,637,637,637,637,637,637,637,637,637,637,637,637,637,637,637,637,637,637,637,637,637,637,637,637,632,582,511,427,352,280,189,165,155,150,149,149,146,140,136,131,113,91],"timestamp_mouse":[1,30,41,61,82,102,122,141,161,181,201,221,242,262,282,301,321,341,361,381,401,421,442,462,481,501,521,541,562,581,602,622,641,661,681,701,722,742,761,782,802,823,841,861,881,903,921,941,962,981,1001],"xSR":741.5,"ySR":573.95,"xT1":424.9,"yT1":0,"xT2":1058.1,"yT2":0,"toosoon":0,"cond_shown":"randomdotsizeEA","ratio_trial":900,"smaller_num":"9","larger_num":"10","correct_side":1,"subjID":"davidsantiagoforerocuervo18","gender":"0","age":"11","school":"6"},{"start_time":1551881617329,"click_time":1551881618285,"finger_time":1551881618006,"fix_duration":1302.8000579474522,"trial":67,"RT":677,"MT":279,"sideResp":2,"stimulus":"img/250/randomdotsizeEA/R/6_Ratio_250_L_6_R_24.png","xmouse":[772,772,772,772,772,772,772,772,772,772,772,772,772,772,772,772,772,772,772,772,772,772,772,772,772,774,774,776,781,788,792,797,807,830,845,863,880,898,944,965,982,994,1010,1029,1043,1062,1090,1117],"ymouse":[634,634,634,634,634,634,634,634,634,634,634,634,634,634,634,634,634,634,634,634,634,634,634,634,634,634,634,631,621,612,606,599,586,550,522,485,447,392,282,238,207,189,174,161,153,136,110,80],"timestamp_mouse":[19,38,56,76,97,118,137,156,176,196,216,236,256,276,297,317,336,356,376,396,416,436,457,476,497,516,537,556,578,597,616,637,656,677,696,716,736,756,777,797,816,836,856,876,897,917,937,956],"xSR":741.5,"ySR":573.95,"xT1":424.9,"yT1":0,"xT2":1058.1,"yT2":0,"toosoon":0,"cond_shown":"randomdotsizeEA","ratio_trial":250,"smaller_num":"6","larger_num":"24","correct_side":2,"subjID":"davidsantiagoforerocuervo18","gender":"0","age":"11","school":"6"},{"start_time":1551881619456,"click_time":1551881620445,"finger_time":1551881620045,"fix_duration":250,"trial":68,"RT":589,"MT":400,"sideResp":1,"stimulus":"img/250/equaldotanddens/L/5_Ratio_250_L_24_R_6.png","xmouse":[796,796,796,796,796,796,796,796,796,796,796,796,796,796,796,796,796,796,796,796,796,796,796,796,796,796,796,796,793,783,764,735,669,646,632,625,624,624,624,624,622,618,611,605,595,577,565,539,528,508],"ymouse":[596,596,596,596,596,596,596,596,596,596,596,596,596,596,596,596,596,596,596,596,596,596,596,596,596,596,596,596,595,572,537,487,368,304,248,215,205,199,193,186,177,168,154,144,130,107,91,60,46,32],"timestamp_mouse":[8,30,50,69,90,109,129,149,169,189,209,229,249,269,289,309,330,349,369,389,409,429,449,469,489,509,529,549,569,589,609,629,650,669,690,709,729,749,769,789,809,829,850,869,889,909,929,949,969,989],"xSR":741.5,"ySR":573.95,"xT1":424.9,"yT1":0,"xT2":1058.1,"yT2":0,"toosoon":0,"cond_shown":"equaldotanddens","ratio_trial":250,"smaller_num":"6","larger_num":"24","correct_side":1,"subjID":"davidsantiagoforerocuervo18","gender":"0","age":"11","school":"6"},{"start_time":1551881622681,"click_time":1551881623385,"finger_time":1551881623146,"fix_duration":1214.7326018194576,"trial":69,"RT":465,"MT":239,"sideResp":2,"stimulus":"img/250/equaldotsize/R/6_Ratio_250_L_6_R_24.png","xmouse":[796,796,796,796,796,796,796,796,796,796,796,796,796,796,800,803,810,814,815,816,817,822,833,849,867,902,949,971,989,1009,1027,1067,1083,1097,1109,1113],"ymouse":[610,610,610,610,610,610,610,610,610,610,610,610,610,610,606,601,595,592,591,590,589,586,577,560,542,495,415,378,342,303,267,198,169,143,106,82],"timestamp_mouse":[12,36,44,64,84,104,124,144,165,184,204,224,244,264,284,304,324,344,364,384,404,424,445,465,485,504,524,545,564,585,604,624,644,664,684,704],"xSR":741.5,"ySR":573.95,"xT1":424.9,"yT1":0,"xT2":1058.1,"yT2":0,"toosoon":0,"cond_shown":"equaldotsize","ratio_trial":250,"smaller_num":"6","larger_num":"24","correct_side":2,"subjID":"davidsantiagoforerocuervo18","gender":"0","age":"11","school":"6"},{"start_time":1551881624876,"click_time":1551881625765,"finger_time":1551881625285,"fix_duration":749.1890265930863,"trial":70,"RT":409,"MT":480,"sideResp":1,"stimulus":"img/750/randomdotsizeEA/R/11_Ratio_750_L_12_R_16.png","xmouse":[814,814,814,814,814,814,814,814,814,814,814,814,814,814,814,814,814,809,800,787,770,746,736,726,716,708,702,701,700,698,694,674,659,644,632,612,592,585,580,574,567,550,541,530,523],"ymouse":[629,629,629,629,629,629,629,629,629,629,629,629,629,629,629,629,622,613,602,585,564,522,497,472,450,429,416,414,408,397,378,310,263,230,201,173,155,153,150,139,122,77,60,46,35],"timestamp_mouse":[10,29,49,69,89,109,129,149,169,189,209,229,249,269,289,310,329,349,369,390,409,430,449,470,489,509,529,550,569,589,609,630,650,669,689,710,729,748,769,789,809,830,850,869,889],"xSR":741.5,"ySR":573.95,"xT1":424.9,"yT1":0,"xT2":1058.1,"yT2":0,"toosoon":0,"cond_shown":"randomdotsizeEA","ratio_trial":750,"smaller_num":"12","larger_num":"16","correct_side":2,"subjID":"davidsantiagoforerocuervo18","gender":"0","age":"11","school":"6"},{"start_time":1551881627423,"click_time":1551881629225,"finger_time":1551881628065,"fix_duration":656.1882864534563,"trial":71,"RT":642,"MT":1160,"sideResp":1,"stimulus":"img/900/equaldotanddens/L/8_Ratio_900_L_20_R_18.png","xmouse":[813,813,813,813,813,813,813,813,813,813,813,813,813,813,813,813,813,813,813,813,813,813,813,813,813,813,813,813,813,813,822,835,850,874,929,944,957,959,963,965,965,965,965,965,965,965,961,957,949,939,935,929,920,905,840,790,735,654,622,446,370,288,214,148,75,64,64,74,86,126,151,191,241,288,352,363,364,364,364,366,367,371,379,388,399,401,405,410,415,423,426],"ymouse":[625,625,625,625,625,625,625,625,625,625,625,625,625,625,625,625,625,625,625,625,625,625,625,625,625,625,625,625,625,617,606,591,572,543,459,422,386,378,364,354,351,351,351,351,351,350,350,353,358,372,378,384,389,394,400,398,382,338,321,171,99,19,0,0,0,0,0,0,0,13,27,44,62,75,84,85,85,85,85,85,84,82,77,74,70,69,69,68,66,65,65],"timestamp_mouse":[9,31,43,62,82,102,122,142,162,182,202,222,242,262,282,302,322,343,362,382,402,422,442,462,482,503,522,542,562,582,603,622,642,663,683,703,722,741,762,781,803,822,842,863,882,903,922,942,962,982,1003,1022,1042,1062,1083,1103,1122,1142,1162,1182,1203,1223,1243,1262,1284,1302,1322,1342,1362,1382,1401,1423,1442,1462,1482,1502,1522,1543,1562,1582,1603,1622,1642,1663,1682,1702,1722,1742,1762,1782,1802],"xSR":741.5,"ySR":573.95,"xT1":424.9,"yT1":0,"xT2":1058.1,"yT2":0,"toosoon":0,"cond_shown":"equaldotanddens","ratio_trial":900,"smaller_num":"18","larger_num":"20","correct_side":1,"subjID":"davidsantiagoforerocuervo18","gender":"0","age":"11","school":"6"},{"start_time":1551881632296,"click_time":1551881633345,"finger_time":1551881632905,"fix_duration":948.0980864514928,"trial":72,"RT":609,"MT":440,"sideResp":2,"stimulus":"img/750/equaldotanddens/L/9_Ratio_750_L_4_R_3.png","xmouse":[791,791,791,791,791,791,791,791,791,791,791,791,791,791,791,791,791,791,791,791,791,791,791,791,791,791,791,791,794,799,842,884,918,939,947,947,947,947,947,947,947,947,947,952,963,985,993,999,1008,1021,1059,1087,1109],"ymouse":[623,623,623,623,623,623,623,623,623,623,623,623,623,623,623,623,623,623,623,623,623,623,623,623,623,623,623,623,615,608,548,499,457,429,413,413,413,413,411,409,400,393,386,360,335,278,252,229,208,187,132,100,75],"timestamp_mouse":[8,36,50,69,89,109,129,149,169,189,209,229,249,269,289,310,329,350,369,389,409,430,449,469,489,509,529,549,570,589,609,629,649,669,690,710,729,749,769,789,810,829,849,869,889,909,928,949,970,989,1009,1029,1049],"xSR":741.5,"ySR":573.95,"xT1":424.9,"yT1":0,"xT2":1058.1,"yT2":0,"toosoon":0,"cond_shown":"equaldotanddens","ratio_trial":750,"smaller_num":"3","larger_num":"4","correct_side":1,"subjID":"davidsantiagoforerocuervo18","gender":"0","age":"11","school":"6"},{"start_time":1551881634494,"click_time":1551881635386,"finger_time":1551881635165,"fix_duration":408.85982779129336,"trial":73,"RT":671,"MT":221,"sideResp":2,"stimulus":"img/500/randomdotsizeEA/R/3_Ratio_500_L_10_R_20.png","xmouse":[758,758,758,758,758,758,758,758,758,758,758,758,758,758,758,758,758,758,758,758,758,758,759,759,759,759,759,759,759,759,762,768,784,808,868,950,973,983,997,1015,1050,1060,1072,1075,1078],"ymouse":[600,600,600,600,600,600,600,600,600,600,600,600,600,600,600,600,600,600,600,600,600,600,600,600,600,600,600,600,600,600,600,600,589,565,495,393,351,324,293,248,167,145,116,107,89],"timestamp_mouse":[11,31,51,71,91,111,131,152,171,191,211,231,251,270,291,311,331,351,371,391,411,431,451,471,491,511,530,551,571,591,611,631,651,671,692,711,731,751,771,791,811,831,852,871,892],"xSR":741.5,"ySR":573.95,"xT1":424.9,"yT1":0,"xT2":1058.1,"yT2":0,"toosoon":0,"cond_shown":"randomdotsizeEA","ratio_trial":500,"smaller_num":"10","larger_num":"20","correct_side":2,"subjID":"davidsantiagoforerocuervo18","gender":"0","age":"11","school":"6"},{"start_time":1551881637588,"click_time":1551881638346,"finger_time":1551881638106,"fix_duration":1481.1954075183824,"trial":74,"RT":518,"MT":240,"sideResp":1,"stimulus":"img/250/randomdotsizeEA/L/3_Ratio_250_L_8_R_2.png","xmouse":[815,815,815,815,815,815,815,815,815,815,815,