[{"start_time":1551801210444,"click_time":1551801212247,"finger_time":1551801211927,"fix_duration":250,"trial":0,"RT":1483,"MT":320,"sideResp":1,"stimulus":"img/250/equaldotsize/L/3_Ratio_250_L_8_R_2.png","xmouse":[802,802,802,802,802,802,802,802,802,802,802,802,802,802,802,802,802,802,802,802,802,802,802,802,802,802,802,802,802,802,802,802,802,802,802,802,802,802,802,802,802,802,802,802,802,802,801,794,789,787,787,787,787,787,787,787,787,787,787,787,787,788,789,790,792,793,793,793,793,793,793,793,784,765,738,668,630,598,575,544,538,526,521,519,518,518,518,518,518,517,516],"ymouse":[552,552,552,552,552,552,552,552,552,552,552,552,552,552,552,552,552,552,552,552,552,552,552,552,552,552,552,552,552,552,552,552,552,552,552,552,552,552,552,552,552,552,552,552,552,552,548,539,533,529,529,529,529,529,529,529,529,529,529,529,529,532,536,539,543,547,547,547,547,547,547,548,540,514,482,414,377,343,316,269,244,203,180,169,163,146,133,118,110,103,98],"timestamp_mouse":[6,31,42,63,83,104,123,143,163,183,203,223,243,263,283,304,323,343,363,383,403,423,443,463,483,503,523,543,563,583,603,623,644,664,683,703,723,743,763,783,803,823,843,863,882,903,923,943,963,984,1003,1024,1042,1062,1083,1103,1123,1142,1163,1183,1202,1223,1243,1263,1283,1303,1323,1342,1364,1382,1404,1423,1444,1463,1483,1503,1523,1543,1563,1584,1602,1622,1643,1663,1683,1704,1723,1744,1763,1783,1803],"xSR":741.5,"ySR":526.5,"xT1":424.9,"yT1":0,"xT2":1058.1,"yT2":0,"toosoon":0,"cond_shown":"equaldotsize","ratio_trial":250,"smaller_num":"2","larger_num":"8","correct_side":1,"subjID":"santiagomartin18","gender":"0","age":"12","school":"6","test":{"fix_dur":[250,1500],"timestim":300,"targets_dim":[100,100],"targets_relative_coord":[0.3,0.7],"size_stim":[880,420],"start_dim":[100,100],"size_start":[300,300],"size_fix":60,"samplingrate":20,"img_types":["equaldotsize","equaldotanddens","randomdotsizeEA"],"ratios":[250,500,750,900],"rep_conds":9,"nTrials":120,"trials_to_rest":500,"Trials_order":[12,65,94,117,50,88,87,30,54,20,7,49,101,68,57,67,13,85,34,93,17,96,3,100,71,53,39,90,115,119,48,4,24,14,31,41,56,32,10,106,25,114,70,102,69,38,5,23,44,60,19,73,28,118,59,61,112,35,97,64,16,1,103,116,104,79,109,40,75,47,8,43,91,80,99,86,58,15,21,52,107,55,62,51,66,84,22,26,2,37,36,9,89,95,98,29,78,111,77,18,46,0,33,42,92,108,11,76,105,81,82,27,83,45,72,113,63,6,74,110],"cond_shown":["equaldotsize","randomdotsizeEA","equaldotanddens","equaldotsize","randomdotsizeEA","equaldotanddens","equaldotsize","equaldotsize","equaldotsize","randomdotsizeEA","equaldotanddens","equaldotanddens","randomdotsizeEA","randomdotsizeEA","equaldotsize","equaldotanddens","equaldotanddens","equaldotanddens","equaldotanddens","equaldotsize","randomdotsizeEA","equaldotsize","equaldotsize","equaldotanddens","randomdotsizeEA","randomdotsizeEA","equaldotsize","equaldotsize","equaldotanddens","randomdotsizeEA","equaldotsize","equaldotanddens","equaldotsize","randomdotsizeEA","equaldotanddens","randomdotsizeEA","randomdotsizeEA","randomdotsizeEA","equaldotanddens","equaldotanddens","equaldotanddens","equaldotsize","equaldotanddens","equaldotsize","equaldotsize","randomdotsizeEA","randomdotsizeEA","randomdotsizeEA","randomdotsizeEA","equaldotsize","equaldotanddens","equaldotanddens","equaldotanddens","equaldotanddens","randomdotsizeEA","equaldotanddens","equaldotanddens","randomdotsizeEA","equaldotanddens","equaldotanddens","equaldotanddens","equaldotanddens","equaldotanddens","randomdotsizeEA","randomdotsizeEA","equaldotanddens","equaldotanddens","equaldotanddens","equaldotsize","randomdotsizeEA","randomdotsizeEA","equaldotanddens","equaldotanddens","randomdotsizeEA","equaldotsize","randomdotsizeEA","equaldotanddens","equaldotsize","equaldotsize","equaldotanddens","randomdotsizeEA","equaldotanddens","randomdotsizeEA","equaldotsize","equaldotsize","equaldotsize","equaldotanddens","randomdotsizeEA","randomdotsizeEA","equaldotanddens","equaldotsize","equaldotsize","randomdotsizeEA","randomdotsizeEA","randomdotsizeEA","randomdotsizeEA","equaldotsize","equaldotsize","randomdotsizeEA","equaldotsize","equaldotanddens","equaldotsize","equaldotsize","equaldotsize","randomdotsizeEA","equaldotsize","randomdotsizeEA","equaldotanddens","equaldotsize","equaldotsize","equaldotanddens","equaldotsize","randomdotsizeEA","equaldotsize","equaldotsize","randomdotsizeEA","equaldotsize","equaldotsize","randomdotsizeEA","randomdotsizeEA"],"ratio_trial":[250,500,900,900,250,500,500,750,750,750,750,250,500,750,900,750,250,250,900,900,500,250,500,500,900,500,500,750,750,900,250,500,250,250,750,500,750,750,900,900,250,750,900,750,900,250,500,900,750,250,750,250,500,900,900,250,500,900,250,500,500,250,750,750,750,750,250,500,500,900,750,750,750,750,500,250,900,500,900,500,900,750,250,500,750,250,900,250,250,250,250,900,500,900,250,500,750,500,500,750,900,250,900,750,750,250,900,500,900,900,900,500,900,900,250,500,500,750,250,250],"smaller_num":["2","10","18","18","4","3","6","3","15","6","3","2","2","6","18","3","4","2","9","18","9","3","9","4","18","10","2","3","12","9","4","6","3","4","3","2","15","6","18","9","2","6","9","12","18","3","3","18","12","4","3","3","5","18","18","4","6","9","2","5","5","6","18","6","6","3","4","1","2","18","18","3","15","12","6","2","18","5","18","3","18","9","2","9","3","6","18","3","2","4","5","18","2","18","6","10","3","9","1","15","18","1","9","15","6","2","9","5","9","9","18","6","18","9","2","2","4","3","3","2"],"larger_num":["8","20","20","20","16","6","12","4","20","8","4","8","4","8","20","4","16","8","10","20","18","12","18","8","20","20","4","4","16","10","16","12","12","16","4","4","20","8","20","10","8","8","10","16","20","12","6","20","16","16","4","12","10","20","20","16","12","10","8","10","10","24","24","8","8","4","16","2","4","20","24","4","20","16","12","8","20","10","20","6","20","12","8","18","4","24","20","12","8","16","20","20","4","20","24","20","4","18","2","20","20","4","10","20","8","8","10","10","10","10","20","12","20","10","8","4","8","4","12","8"],"correct_side":[1,2,1,1,1,2,1,1,1,2,1,1,1,1,2,1,1,1,1,1,1,2,1,1,2,2,2,1,2,2,2,1,1,1,2,1,1,2,2,2,1,1,2,2,2,2,2,2,2,1,2,2,2,1,2,2,1,1,1,2,2,1,1,2,2,1,2,2,1,1,1,1,2,2,1,1,1,2,1,2,2,2,1,1,2,2,1,2,1,1,2,1,2,1,1,2,1,2,2,2,1,2,2,2,2,1,1,1,1,1,1,1,1,2,1,1,1,2,2,1],"img_shown":["img/250/equaldotsize/L/3_Ratio_250_L_8_R_2.png","img/500/randomdotsizeEA/R/3_Ratio_500_L_10_R_20.png","img/900/equaldotanddens/L/2_Ratio_900_L_20_R_18.png","img/900/equaldotsize/L/10_Ratio_900_L_20_R_18.png","img/250/randomdotsizeEA/L/2_Ratio_250_L_16_R_4.png","img/500/equaldotanddens/R/2_Ratio_500_L_3_R_6.png","img/500/equaldotsize/L/11_Ratio_500_L_12_R_6.png","img/750/equaldotsize/L/8_Ratio_750_L_4_R_3.png","img/750/equaldotsize/L/1_Ratio_750_L_20_R_15.png","img/750/randomdotsizeEA/R/2_Ratio_750_L_6_R_8.png","img/750/equaldotanddens/L/9_Ratio_750_L_4_R_3.png","img/250/equaldotanddens/L/3_Ratio_250_L_8_R_2.png","img/500/randomdotsizeEA/L/5_Ratio_500_L_4_R_2.png","img/750/randomdotsizeEA/L/14_Ratio_750_L_8_R_6.png","img/900/equaldotsize/R/9_Ratio_900_L_18_R_20.png","img/750/equaldotanddens/L/10_Ratio_750_L_4_R_3.png","img/250/equaldotanddens/L/2_Ratio_250_L_16_R_4.png","img/250/equaldotanddens/L/7_Ratio_250_L_8_R_2.png","img/900/equaldotanddens/L/1_Ratio_900_L_10_R_9.png","img/900/equaldotsize/L/2_Ratio_900_L_20_R_18.png","img/500/randomdotsizeEA/L/4_Ratio_500_L_18_R_9.png","img/250/equaldotsize/R/4_Ratio_250_L_3_R_12.png","img/500/equaldotsize/L/4_Ratio_500_L_18_R_9.png","img/500/equaldotanddens/L/8_Ratio_500_L_8_R_4.png","img/900/randomdotsizeEA/R/9_Ratio_900_L_18_R_20.png","img/500/randomdotsizeEA/R/3_Ratio_500_L_10_R_20.png","img/500/equaldotsize/R/9_Ratio_500_L_2_R_4.png","img/750/equaldotsize/L/10_Ratio_750_L_4_R_3.png","img/750/equaldotanddens/R/11_Ratio_750_L_12_R_16.png","img/900/randomdotsizeEA/R/7_Ratio_900_L_9_R_10.png","img/250/equaldotsize/R/10_Ratio_250_L_4_R_16.png","img/500/equaldotanddens/L/13_Ratio_500_L_12_R_6.png","img/250/equaldotsize/L/15_Ratio_250_L_12_R_3.png","img/250/randomdotsizeEA/L/2_Ratio_250_L_16_R_4.png","img/750/equaldotanddens/R/7_Ratio_750_L_3_R_4.png","img/500/randomdotsizeEA/L/5_Ratio_500_L_4_R_2.png","img/750/randomdotsizeEA/L/1_Ratio_750_L_20_R_15.png","img/750/randomdotsizeEA/R/2_Ratio_750_L_6_R_8.png","img/900/equaldotanddens/R/14_Ratio_900_L_18_R_20.png","img/900/equaldotanddens/R/7_Ratio_900_L_9_R_10.png","img/250/equaldotanddens/L/7_Ratio_250_L_8_R_2.png","img/750/equaldotsize/L/14_Ratio_750_L_8_R_6.png","img/900/equaldotanddens/R/15_Ratio_900_L_9_R_10.png","img/750/equaldotsize/R/11_Ratio_750_L_12_R_16.png","img/900/equaldotsize/R/12_Ratio_900_L_18_R_20.png","img/250/randomdotsizeEA/R/9_Ratio_250_L_3_R_12.png","img/500/randomdotsizeEA/R/2_Ratio_500_L_3_R_6.png","img/900/randomdotsizeEA/R/11_Ratio_900_L_18_R_20.png","img/750/randomdotsizeEA/R/11_Ratio_750_L_12_R_16.png","img/250/equaldotsize/L/2_Ratio_250_L_16_R_4.png","img/750/equaldotanddens/R/7_Ratio_750_L_3_R_4.png","img/250/equaldotanddens/R/9_Ratio_250_L_3_R_12.png","img/500/equaldotanddens/R/14_Ratio_500_L_5_R_10.png","img/900/equaldotanddens/L/2_Ratio_900_L_20_R_18.png","img/900/randomdotsizeEA/R/13_Ratio_900_L_18_R_20.png","img/250/equaldotanddens/R/10_Ratio_250_L_4_R_16.png","img/500/equaldotanddens/L/11_Ratio_500_L_12_R_6.png","img/900/randomdotsizeEA/L/1_Ratio_900_L_10_R_9.png","img/250/equaldotanddens/L/3_Ratio_250_L_8_R_2.png","img/500/equaldotanddens/R/14_Ratio_500_L_5_R_10.png","img/500/equaldotanddens/R/14_Ratio_500_L_5_R_10.png","img/250/equaldotanddens/L/5_Ratio_250_L_24_R_6.png","img/750/equaldotanddens/L/6_Ratio_750_L_24_R_18.png","img/750/randomdotsizeEA/R/2_Ratio_750_L_6_R_8.png","img/750/randomdotsizeEA/R/2_Ratio_750_L_6_R_8.png","img/750/equaldotanddens/L/8_Ratio_750_L_4_R_3.png","img/250/equaldotanddens/R/10_Ratio_250_L_4_R_16.png","img/500/equaldotanddens/R/12_Ratio_500_L_1_R_2.png","img/500/equaldotsize/L/10_Ratio_500_L_4_R_2.png","img/900/randomdotsizeEA/L/2_Ratio_900_L_20_R_18.png","img/750/randomdotsizeEA/L/6_Ratio_750_L_24_R_18.png","img/750/equaldotanddens/L/8_Ratio_750_L_4_R_3.png","img/750/equaldotanddens/R/5_Ratio_750_L_15_R_20.png","img/750/randomdotsizeEA/R/11_Ratio_750_L_12_R_16.png","img/500/equaldotsize/L/13_Ratio_500_L_12_R_6.png","img/250/randomdotsizeEA/L/3_Ratio_250_L_8_R_2.png","img/900/equaldotanddens/L/8_Ratio_900_L_20_R_18.png","img/500/equaldotsize/R/14_Ratio_500_L_5_R_10.png","img/900/equaldotsize/L/8_Ratio_900_L_20_R_18.png","img/500/equaldotanddens/R/2_Ratio_500_L_3_R_6.png","img/900/randomdotsizeEA/R/11_Ratio_900_L_18_R_20.png","img/750/equaldotanddens/R/15_Ratio_750_L_9_R_12.png","img/250/randomdotsizeEA/L/7_Ratio_250_L_8_R_2.png","img/500/equaldotsize/L/4_Ratio_500_L_18_R_9.png","img/750/equaldotsize/R/7_Ratio_750_L_3_R_4.png","img/250/equaldotsize/R/6_Ratio_250_L_6_R_24.png","img/900/equaldotanddens/L/4_Ratio_900_L_20_R_18.png","img/250/randomdotsizeEA/R/9_Ratio_250_L_3_R_12.png","img/250/randomdotsizeEA/L/3_Ratio_250_L_8_R_2.png","img/250/equaldotanddens/L/2_Ratio_250_L_16_R_4.png","img/250/equaldotsize/R/12_Ratio_250_L_5_R_20.png","img/900/equaldotsize/L/2_Ratio_900_L_20_R_18.png","img/500/randomdotsizeEA/R/9_Ratio_500_L_2_R_4.png","img/900/randomdotsizeEA/L/8_Ratio_900_L_20_R_18.png","img/250/randomdotsizeEA/L/5_Ratio_250_L_24_R_6.png","img/500/randomdotsizeEA/R/3_Ratio_500_L_10_R_20.png","img/750/equaldotsize/L/10_Ratio_750_L_4_R_3.png","img/500/equaldotsize/R/1_Ratio_500_L_9_R_18.png","img/500/randomdotsizeEA/R/12_Ratio_500_L_1_R_2.png","img/750/equaldotsize/R/5_Ratio_750_L_15_R_20.png","img/900/equaldotanddens/L/2_Ratio_900_L_20_R_18.png","img/250/equaldotsize/R/8_Ratio_250_L_1_R_4.png","img/900/equaldotsize/R/3_Ratio_900_L_9_R_10.png","img/750/equaldotsize/R/5_Ratio_750_L_15_R_20.png","img/750/randomdotsizeEA/R/2_Ratio_750_L_6_R_8.png","img/250/equaldotsize/L/3_Ratio_250_L_8_R_2.png","img/900/randomdotsizeEA/L/1_Ratio_900_L_10_R_9.png","img/500/equaldotanddens/L/7_Ratio_500_L_10_R_5.png","img/900/equaldotsize/L/1_Ratio_900_L_10_R_9.png","img/900/equaldotsize/L/1_Ratio_900_L_10_R_9.png","img/900/equaldotanddens/L/8_Ratio_900_L_20_R_18.png","img/500/equaldotsize/L/11_Ratio_500_L_12_R_6.png","img/900/randomdotsizeEA/L/8_Ratio_900_L_20_R_18.png","img/900/equaldotsize/R/3_Ratio_900_L_9_R_10.png","img/250/equaldotsize/L/3_Ratio_250_L_8_R_2.png","img/500/randomdotsizeEA/L/5_Ratio_500_L_4_R_2.png","img/500/equaldotsize/L/8_Ratio_500_L_8_R_4.png","img/750/equaldotsize/R/12_Ratio_750_L_3_R_4.png","img/250/randomdotsizeEA/R/9_Ratio_250_L_3_R_12.png","img/250/randomdotsizeEA/L/3_Ratio_250_L_8_R_2.png"],"Rat0":[["12_Ratio_0_L_9_R_0.png","13_Ratio_0_L_6_R_0.png","5_Ratio_0_L_2_R_0.png","6_Ratio_0_L_4_R_0.png","8_Ratio_0_L_6_R_0.png"],["1_Ratio_0_L_0_R_17.png","10_Ratio_0_L_0_R_22.png","11_Ratio_0_L_0_R_1.png","14_Ratio_0_L_0_R_24.png","15_Ratio_0_L_0_R_4.png","2_Ratio_0_L_0_R_5.png","3_Ratio_0_L_0_R_17.png","4_Ratio_0_L_0_R_7.png","7_Ratio_0_L_0_R_19.png","9_Ratio_0_L_0_R_15.png"]],"Rat250":[["1_Ratio_250_L_8_R_2.png","14_Ratio_250_L_12_R_3.png","15_Ratio_250_L_12_R_3.png","2_Ratio_250_L_16_R_4.png","3_Ratio_250_L_8_R_2.png","5_Ratio_250_L_24_R_6.png","7_Ratio_250_L_8_R_2.png"],["10_Ratio_250_L_4_R_16.png","11_Ratio_250_L_3_R_12.png","12_Ratio_250_L_5_R_20.png","13_Ratio_250_L_2_R_8.png","4_Ratio_250_L_3_R_12.png","6_Ratio_250_L_6_R_24.png","8_Ratio_250_L_1_R_4.png","9_Ratio_250_L_3_R_12.png"]],"Rat500":[["10_Ratio_500_L_4_R_2.png","11_Ratio_500_L_12_R_6.png","13_Ratio_500_L_12_R_6.png","4_Ratio_500_L_18_R_9.png","5_Ratio_500_L_4_R_2.png","7_Ratio_500_L_10_R_5.png","8_Ratio_500_L_8_R_4.png"],["1_Ratio_500_L_9_R_18.png","12_Ratio_500_L_1_R_2.png","14_Ratio_500_L_5_R_10.png","15_Ratio_500_L_1_R_2.png","2_Ratio_500_L_3_R_6.png","3_Ratio_500_L_10_R_20.png","6_Ratio_500_L_9_R_18.png","9_Ratio_500_L_2_R_4.png"]],"Rat750":[["1_Ratio_750_L_20_R_15.png","10_Ratio_750_L_4_R_3.png","13_Ratio_750_L_8_R_6.png","14_Ratio_750_L_8_R_6.png","6_Ratio_750_L_24_R_18.png","8_Ratio_750_L_4_R_3.png","9_Ratio_750_L_4_R_3.png"],["11_Ratio_750_L_12_R_16.png","12_Ratio_750_L_3_R_4.png","15_Ratio_750_L_9_R_12.png","2_Ratio_750_L_6_R_8.png","3_Ratio_750_L_15_R_20.png","4_Ratio_750_L_15_R_20.png","5_Ratio_750_L_15_R_20.png","7_Ratio_750_L_3_R_4.png"]],"Rat900":[["1_Ratio_900_L_10_R_9.png","10_Ratio_900_L_20_R_18.png","2_Ratio_900_L_20_R_18.png","4_Ratio_900_L_20_R_18.png","8_Ratio_900_L_20_R_18.png"],["11_Ratio_900_L_18_R_20.png","12_Ratio_900_L_18_R_20.png","13_Ratio_900_L_18_R_20.png","14_Ratio_900_L_18_R_20.png","15_Ratio_900_L_9_R_10.png","3_Ratio_900_L_9_R_10.png","5_Ratio_900_L_9_R_10.png","6_Ratio_900_L_9_R_10.png","7_Ratio_900_L_9_R_10.png","9_Ratio_900_L_18_R_20.png"]],"Rat1000":[["10_Ratio_1000_L_16_R_16.png","11_Ratio_1000_L_6_R_6.png","12_Ratio_1000_L_14_R_14.png","13_Ratio_1000_L_20_R_20.png","15_Ratio_1000_L_15_R_15.png","2_Ratio_1000_L_17_R_17.png","4_Ratio_1000_L_9_R_9.png","5_Ratio_1000_L_6_R_6.png","6_Ratio_1000_L_19_R_19.png","8_Ratio_1000_L_14_R_14.png","9_Ratio_1000_L_25_R_25.png"],["1_Ratio_1000_L_1_R_1.png","14_Ratio_1000_L_17_R_17.png","3_Ratio_1000_L_17_R_17.png","7_Ratio_1000_L_6_R_6.png"]]}},{"start_time":1551801216533,"click_time":1551801218187,"finger_time":1551801217827,"fix_duration":565.0859985507593,"trial":1,"RT":1294,"MT":360,"sideResp":2,"stimulus":"img/500/randomdotsizeEA/R/3_Ratio_500_L_10_R_20.png","xmouse":[782,782,782,782,782,782,782,782,782,782,782,782,782,782,782,782,782,782,782,782,782,782,782,782,782,782,782,782,782,782,782,782,782,782,782,782,782,782,782,782,782,782,782,781,781,781,781,781,781,780,780,780,780,780,780,780,780,781,781,784,785,789,795,807,849,885,969,1033,1102,1178,1230,1230,1230,1230,1230,1230,1230,1230,1230,1230,1230,1230,1153],"ymouse":[528,528,528,528,528,528,528,528,528,528,528,528,528,528,528,528,528,528,528,528,528,528,528,528,528,528,528,528,528,528,528,528,528,528,528,528,528,528,528,528,528,528,528,528,528,528,528,528,528,528,528,528,528,528,528,528,528,528,528,530,532,535,535,535,528,514,459,406,324,147,3,3,3,3,3,3,3,3,3,3,3,3,13],"timestamp_mouse":[19,40,54,74,94,115,133,155,174,194,214,234,254,274,294,314,333,355,375,394,413,435,454,474,493,513,535,554,574,594,614,634,654,674,694,714,734,754,774,794,814,834,854,874,894,914,934,954,974,994,1014,1034,1054,1074,1093,1113,1134,1154,1174,1194,1214,1234,1254,1274,1294,1313,1334,1354,1374,1394,1414,1434,1454,1473,1495,1515,1534,1554,1573,1595,1614,1634,1654],"xSR":741.5,"ySR":494.65000000000003,"xT1":424.9,"yT1":0,"xT2":1058.1,"yT2":0,"toosoon":0,"cond_shown":"randomdotsizeEA","ratio_trial":500,"smaller_num":"10","larger_num":"20","correct_side":2,"subjID":"santiagomartin18","gender":"0","age":"12","school":"6"},{"start_time":1551801219359,"click_time":1551801220307,"finger_time":1551801220207,"fix_duration":250,"trial":2,"RT":848,"MT":100,"sideResp":2,"stimulus":"img/900/equaldotanddens/L/2_Ratio_900_L_20_R_18.png","xmouse":[803,803,803,803,803,803,803,803,803,803,803,803,803,803,803,803,803,803,803,803,803,803,803,803,803,803,803,803,803,803,803,803,803,803,803,803,803,803,803,803,805,810,820,868,920,984,1060,1082],"ymouse":[515,515,515,515,515,515,515,515,515,515,515,515,515,515,515,515,515,515,515,515,515,515,515,515,515,515,515,515,515,515,515,515,515,515,515,515,515,515,515,513,508,498,481,396,303,211,104,75],"timestamp_mouse":[8,32,48,68,89,108,128,148,168,188,208,228,248,268,289,307,328,348,368,387,407,428,448,467,488,509,528,547,568,588,608,627,647,668,689,708,728,748,767,788,808,827,848,868,888,908,928,947],"xSR":741.5,"ySR":494.65000000000003,"xT1":424.9,"yT1":0,"xT2":1058.1,"yT2":0,"toosoon":0,"cond_shown":"equaldotanddens","ratio_trial":900,"smaller_num":"18","larger_num":"20","correct_side":1,"subjID":"santiagomartin18","gender":"0","age":"12","school":"6"},{"start_time":1551801221492,"click_time":1551801222407,"finger_time":1551801222308,"fix_duration":264.19264422097064,"trial":3,"RT":816,"MT":99,"sideResp":2,"stimulus":"img/900/equaldotsize/L/10_Ratio_900_L_20_R_18.png","xmouse":[788,788,788,788,788,788,788,788,788,788,788,788,788,788,788,788,788,788,788,788,788,788,788,788,789,790,793,794,795,795,795,795,795,795,795,796,803,808,822,835,846,878,923,994,1073,1148],"ymouse":[521,521,521,521,521,521,521,521,521,521,521,521,521,521,521,521,521,521,521,521,521,521,521,521,521,521,518,516,516,516,516,516,516,516,515,515,514,513,507,495,483,438,358,253,142,39],"timestamp_mouse":[15,36,55,75,95,114,135,155,175,195,216,235,256,274,295,315,335,355,374,395,415,434,456,475,495,515,536,555,575,595,615,636,655,675,695,715,735,755,775,795,816,835,856,876,895,915],"xSR":741.5,"ySR":494.65000000000003,"xT1":424.9,"yT1":0,"xT2":1058.1,"yT2":0,"toosoon":0,"cond_shown":"equaldotsize","ratio_trial":900,"smaller_num":"18","larger_num":"20","correct_side":1,"subjID":"santiagomartin18","gender":"0","age":"12","school":"6"},{"start_time":1551801224533,"click_time":1551801225707,"finger_time":1551801225367,"fix_duration":1284.1543935445577,"trial":4,"RT":834,"MT":340,"sideResp":1,"stimulus":"img/250/randomdotsizeEA/L/2_Ratio_250_L_16_R_4.png","xmouse":[819,819,819,819,819,819,819,819,819,819,819,819,819,819,819,819,819,819,819,819,819,819,819,819,819,819,819,819,819,819,819,819,819,819,819,819,819,819,819,812,798,782,768,755,746,743,738,733,724,692,674,654,633,611,579,557,549,529,519],"ymouse":[550,550,550,550,550,550,550,550,550,550,550,550,550,550,550,550,550,550,550,550,550,550,550,550,550,550,550,550,550,550,550,550,550,550,550,550,550,550,550,530,505,478,454,417,359,336,314,300,286,260,247,233,220,203,164,138,129,109,97],"timestamp_mouse":[25,34,54,74,94,114,134,154,174,194,213,234,254,274,294,314,334,355,374,394,414,433,454,474,494,514,535,554,573,594,614,633,654,673,695,714,734,753,775,795,814,834,855,874,894,915,934,954,974,995,1013,1035,1054,1075,1094,1114,1134,1154,1174],"xSR":741.5,"ySR":494.65000000000003,"xT1":424.9,"yT1":0,"xT2":1058.1,"yT2":0,"toosoon":0,"cond_shown":"randomdotsizeEA","ratio_trial":250,"smaller_num":"4","larger_num":"16","correct_side":1,"subjID":"santiagomartin18","gender":"0","age":"12","school":"6"},{"start_time":1551801227664,"click_time":1551801228886,"finger_time":1551801228446,"fix_duration":877.8591853991805,"trial":5,"RT":782,"MT":440,"sideResp":2,"stimulus":"img/500/equaldotanddens/R/2_Ratio_500_L_3_R_6.png","xmouse":[768,768,768,768,768,768,768,768,768,768,768,768,768,768,768,768,768,768,768,768,768,768,768,768,768,768,768,768,768,768,768,768,768,775,780,787,793,799,815,827,845,861,881,942,986,1027,1050,1066,1091,1102,1122,1132,1140,1144,1144,1144,1144,1144,1139,1137,1135,1135],"ymouse":[532,532,532,532,532,532,532,532,532,532,532,532,532,532,532,532,532,532,532,532,532,532,532,532,532,532,532,532,532,532,532,532,531,528,525,521,517,513,501,491,471,453,429,348,299,261,245,233,211,200,183,174,168,164,163,162,158,149,127,115,100,83],"timestamp_mouse":[7,25,42,61,82,102,122,142,162,182,202,222,241,261,282,302,323,342,362,382,402,421,442,462,482,503,523,541,562,582,603,622,642,663,682,702,722,743,763,782,801,822,843,863,881,902,922,941,963,983,1002,1022,1042,1063,1082,1102,1122,1142,1162,1182,1203,1222],"xSR":741.5,"ySR":494.65000000000003,"xT1":424.9,"yT1":0,"xT2":1058.1,"yT2":0,"toosoon":0,"cond_shown":"equaldotanddens","ratio_trial":500,"smaller_num":"3","larger_num":"6","correct_side":2,"subjID":"santiagomartin18","gender":"0","age":"12","school":"6"},{"start_time":1551801230822,"click_time":1551801231886,"finger_time":1551801231506,"fix_duration":975.5891397247843,"trial":6,"RT":684,"MT":380,"sideResp":1,"stimulus":"img/500/equaldotsize/L/11_Ratio_500_L_12_R_6.png","xmouse":[794,794,794,794,794,794,794,794,794,794,794,794,794,794,794,794,794,794,794,794,794,794,794,796,798,800,803,803,803,804,804,805,805,805,805,805,801,799,798,796,767,736,670,611,555,497,485,479,478,478,475,471,463,462],"ymouse":[509,509,509,509,509,509,509,509,509,509,509,509,509,509,509,509,509,509,509,509,509,509,509,509,509,509,510,510,510,510,509,507,505,501,494,473,451,431,408,383,322,293,248,215,179,137,128,122,120,120,118,115,104,99],"timestamp_mouse":[6,25,44,63,83,104,125,144,163,185,204,224,244,265,283,305,324,344,364,384,403,424,444,464,484,504,524,543,563,584,604,624,644,664,684,704,724,745,764,784,804,825,844,864,883,905,924,944,964,983,1005,1023,1045,1064],"xSR":741.5,"ySR":494.65000000000003,"xT1":424.9,"yT1":0,"xT2":1058.1,"yT2":0,"toosoon":0,"cond_shown":"equaldotsize","ratio_trial":500,"smaller_num":"6","larger_num":"12","correct_side":1,"subjID":"santiagomartin18","gender":"0","age":"12","school":"6"},{"start_time":1551801236218,"click_time":1551801238046,"finger_time":1551801237346,"fix_duration":250,"trial":7,"RT":1128,"MT":700,"sideResp":1,"stimulus":"img/750/equaldotsize/L/8_Ratio_750_L_4_R_3.png","xmouse":[793,793,793,793,793,793,793,793,793,793,793,793,793,793,793,793,793,793,793,793,793,793,793,793,793,793,793,793,793,793,793,793,793,793,793,793,793,793,793,793,793,793,793,793,793,793,793,793,793,793,793,793,793,794,794,791,790,790,790,790,792,795,796,795,788,763,748,737,729,729,729,722,718,717,714,705,663,635,607,585,565,559,558,558,556,545,537,534,533,532,527,524],"ymouse":[524,524,524,524,524,524,524,524,524,524,524,524,524,524,524,524,524,524,524,524,524,524,524,524,524,524,524,524,524,524,524,524,524,524,524,524,524,524,524,524,524,524,524,524,524,524,524,524,524,524,524,524,524,523,521,503,486,466,449,439,433,425,401,374,351,306,286,266,243,201,108,71,63,62,62,66,100,118,133,141,141,136,131,122,113,99,91,87,83,78,68,63],"timestamp_mouse":[7,37,48,67,88,108,128,148,168,187,207,228,248,268,288,308,327,348,368,388,408,428,448,468,488,508,527,548,568,588,608,629,647,667,689,708,728,749,767,788,808,828,849,867,888,908,928,948,967,988,1008,1028,1048,1069,1088,1109,1128,1149,1168,1188,1207,1228,1248,1269,1288,1309,1329,1348,1368,1388,1408,1428,1448,1468,1488,1507,1528,1547,1568,1588,1608,1628,1648,1669,1688,1708,1727,1748,1767,1788,1808,1828],"xSR":741.5,"ySR":494.65000000000003,"xT1":424.9,"yT1":0,"xT2":1058.1,"yT2":0,"toosoon":0,"cond_shown":"equaldotsize","ratio_trial":750,"smaller_num":"3","larger_num":"4","correct_side":1,"subjID":"santiagomartin18","gender":"0","age":"12","school":"6"},{"start_time":1551801239413,"click_time":1551801240466,"finger_time":1551801240166,"fix_duration":366.3992421873187,"trial":8,"RT":753,"MT":300,"sideResp":1,"stimulus":"img/750/equaldotsize/L/1_Ratio_750_L_20_R_15.png","xmouse":[794,794,794,794,794,794,794,794,794,794,794,794,794,794,794,794,794,794,794,794,794,794,794,794,794,794,794,794,794,794,794,794,794,794,794,792,774,750,712,672,580,549,537,530,523,518,510,503,499,496,496,495,491],"ymouse":[520,520,520,520,520,520,520,520,520,520,520,520,520,520,520,520,520,520,520,520,520,520,520,520,520,520,520,520,520,520,520,520,520,520,520,520,511,494,461,427,346,314,291,267,244,221,174,156,144,131,119,100,91],"timestamp_mouse":[15,32,53,73,93,112,132,153,173,193,212,233,252,273,293,314,333,352,372,393,412,432,453,473,493,512,532,553,573,592,612,633,653,672,693,713,733,753,772,793,814,833,854,873,893,912,933,953,972,993,1013,1033,1052],"xSR":741.5,"ySR":494.65000000000003,"xT1":424.9,"yT1":0,"xT2":1058.1,"yT2":0,"toosoon":0,"cond_shown":"equaldotsize","ratio_trial":750,"smaller_num":"15","larger_num":"20","correct_side":1,"subjID":"santiagomartin18","gender":"0","age":"12","school":"6"},{"start_time":1551801242440,"click_time":1551801243686,"finger_time":1551801243327,"fix_duration":1213.0147031211095,"trial":9,"RT":887,"MT":359,"sideResp":1,"stimulus":"img/750/randomdotsizeEA/R/2_Ratio_750_L_6_R_8.png","xmouse":[760,760,760,760,760,760,760,760,760,760,760,760,760,760,760,760,760,760,760,760,760,760,760,760,760,760,760,760,760,760,760,760,760,760,760,760,760,760,760,760,761,760,753,742,699,675,653,628,606,545,509,500,483,478,475,475,475,474,469,461,456,449,448],"ymouse":[554,554,554,554,554,554,554,554,554,554,554,554,554,554,554,554,554,554,554,554,554,554,554,554,554,554,554,554,554,554,554,554,554,554,554,554,554,554,554,554,547,539,520,501,452,423,390,357,321,247,213,205,189,181,164,158,152,146,139,128,118,102,94],"timestamp_mouse":[7,31,46,65,85,106,126,146,166,185,206,225,247,266,285,307,326,346,366,385,406,426,446,466,485,506,526,547,566,586,605,625,646,667,686,706,726,746,767,786,806,826,846,866,887,905,926,946,966,987,1006,1026,1046,1065,1087,1106,1125,1146,1166,1186,1207,1226,1246],"xSR":741.5,"ySR":494.65000000000003,"xT1":424.9,"yT1":0,"xT2":1058.1,"yT2":0,"toosoon":0,"cond_shown":"randomdotsizeEA","ratio_trial":750,"smaller_num":"6","larger_num":"8","correct_side":2,"subjID":"santiagomartin18","gender":"0","age":"12","school":"6"},{"start_time":1551801245755,"click_time":1551801247527,"finger_time":1551801246706,"fix_duration":1326.1998434490665,"trial":10,"RT":951,"MT":821,"sideResp":1,"stimulus":"img/750/equaldotanddens/L/9_Ratio_750_L_4_R_3.png","xmouse":[790,790,790,790,790,790,790,790,790,790,790,790,790,790,790,790,790,790,790,790,790,790,790,790,790,790,790,790,790,790,790,790,790,790,790,790,790,790,790,790,790,794,796,800,800,801,800,795,781,777,773,771,770,770,770,770,770,770,770,770,770,770,770,770,770,770,770,770,770,770,770,770,770,770,770,770,772,777,783,772,749,723,700,651,620,573,540,511,473],"ymouse":[541,541,541,541,541,541,541,541,541,541,541,541,541,541,541,541,541,541,541,541,541,541,541,541,541,541,541,541,541,541,541,541,541,541,541,541,541,541,541,541,541,540,538,531,523,506,499,493,486,484,482,481,481,481,481,481,481,481,481,481,481,481,481,481,481,481,481,481,481,481,481,481,481,481,481,481,479,477,466,458,445,422,395,339,302,236,187,136,57],"timestamp_mouse":[11,34,51,70,91,111,131,151,171,191,211,231,251,270,291,311,330,351,371,392,411,431,450,471,491,511,530,551,571,591,611,631,650,671,692,711,732,751,770,790,811,831,852,872,891,911,931,951,971,990,1011,1031,1050,1072,1091,1111,1131,1151,1170,1192,1211,1231,1251,1272,1291,1311,1331,1351,1372,1390,1412,1432,1451,1471,1491,1511,1531,1552,1572,1591,1611,1631,1651,1671,1691,1711,1731,1752,1772],"xSR":741.5,"ySR":494.65000000000003,"xT1":424.9,"yT1":0,"xT2":1058.1,"yT2":0,"toosoon":0,"cond_shown":"equaldotanddens","ratio_trial":750,"smaller_num":"3","larger_num":"4","correct_side":1,"subjID":"santiagomartin18","gender":"0","age":"12","school":"6"},{"start_time":1551801249242,"click_time":1551801250406,"finger_time":1551801250046,"fix_duration":835.1461243761828,"trial":11,"RT":804,"MT":360,"sideResp":1,"stimulus":"img/250/equaldotanddens/L/3_Ratio_250_L_8_R_2.png","xmouse":[784,784,784,784,784,784,784,784,784,784,784,784,784,784,784,784,784,784,784,784,784,784,784,784,784,784,784,784,784,784,784,784,784,784,784,784,784,784,783,769,758,746,721,702,647,625,611,596,582,558,550,544,537,533,528,520,516,511,504],"ymouse":[543,543,543,543,543,543,543,543,543,543,543,543,543,543,543,543,543,543,543,543,543,543,543,543,543,543,543,543,543,543,543,543,543,543,543,543,543,543,537,510,491,473,440,415,312,266,235,213,195,170,165,159,153,150,146,139,129,114,97],"timestamp_mouse":[7,28,43,64,84,104,123,144,165,183,204,224,244,264,284,305,324,345,363,384,405,423,444,464,484,503,525,543,564,584,604,624,644,664,684,704,724,744,764,785,804,824,843,864,884,904,924,944,964,985,1005,1024,1044,1064,1083,1104,1124,1144,1164],"xSR":741.5,"ySR":494.65000000000003,"xT1":424.9,"yT1":0,"xT2":1058.1,"yT2":0,"toosoon":0,"cond_shown":"equaldotanddens","ratio_trial":250,"smaller_num":"2","larger_num":"8","correct_side":1,"subjID":"santiagomartin18","gender":"0","age":"12","school":"6"},{"start_time":1551801252167,"click_time":1551801253527,"finger_time":1551801253027,"fix_duration":860.0268946726162,"trial":12,"RT":860,"MT":500,"sideResp":1,"stimulus":"img/500/randomdotsizeEA/L/5_Ratio_500_L_4_R_2.png","xmouse":[756,756,756,756,756,756,756,756,756,756,756,756,756,756,756,756,756,756,756,756,756,756,756,756,756,756,756,756,756,756,756,756,756,756,756,756,756,756,756,756,756,756,747,741,719,701,685,672,654,649,647,643,631,622,611,600,591,582,575,574,572,568,558,554,544,538,530,516],"ymouse":[506,506,506,506,506,506,506,506,506,506,506,506,506,506,506,506,506,506,506,506,506,506,506,506,506,506,506,506,506,506,506,506,506,506,506,506,506,506,506,506,506,504,480,464,428,403,383,369,343,330,320,306,271,253,225,208,192,179,166,163,155,142,120,112,97,86,75,62],"timestamp_mouse":[24,38,59,79,99,119,139,158,178,199,219,239,259,278,298,319,339,359,379,399,419,439,459,479,499,520,539,559,579,599,619,638,658,679,698,719,739,759,780,799,819,839,860,878,899,918,938,960,979,999,1019,1039,1060,1078,1099,1119,1139,1158,1179,1198,1219,1239,1259,1279,1300,1319,1339,1360],"xSR":741.5,"ySR":494.65000000000003,"xT1":424.9,"yT1":0,"xT2":1058.1,"yT2":0,"toosoon":0,"cond_shown":"randomdotsizeEA","ratio_trial":500,"smaller_num":"2","larger_num":"4","correct_side":1,"subjID":"santiagomartin18","gender":"0","age":"12","school":"6"},{"start_time":1551801255173,"click_time":1551801256186,"finger_time":1551801256046,"fix_duration":745.9166741536386,"trial":13,"RT":873,"MT":140,"sideResp":1,"stimulus":"img/750/randomdotsizeEA/L/14_Ratio_750_L_8_R_6.png","xmouse":[788,788,788,788,788,788,788,788,788,788,788,788,788,788,788,788,788,788,788,788,788,788,788,788,788,788,788,788,788,788,788,788,788,788,788,788,788,788,788,788,788,776,771,729,681,651,619,546,512,488,472],"ymouse":[514,514,514,514,514,514,514,514,514,514,514,514,514,514,514,514,514,514,514,514,514,514,514,514,514,514,514,514,514,514,514,514,514,514,514,514,514,514,514,514,514,504,499,440,365,316,270,179,139,110,91],"timestamp_mouse":[16,33,54,73,93,112,133,154,172,193,213,233,253,273,293,314,333,353,372,394,413,433,453,473,492,513,533,553,573,592,613,633,653,674,693,712,733,753,773,793,812,833,853,873,892,913,934,954,973,993,1013],"xSR":741.5,"ySR":494.65000000000003,"xT1":424.9,"yT1":0,"xT2":1058.1,"yT2":0,"toosoon":0,"cond_shown":"randomdotsizeEA","ratio_trial":750,"smaller_num":"6","larger_num":"8","correct_side":1,"subjID":"santiagomartin18","gender":"0","age":"12","school":"6"},{"start_time":1551801258286,"click_time":1551801259486,"finger_time":1551801259046,"fix_duration":1257.0117528450194,"trial":14,"RT":760,"MT":440,"sideResp":1,"stimulus":"img/900/equaldotsize/R/9_Ratio_900_L_18_R_20.png","xmouse":[765,765,765,765,765,765,765,765,765,765,765,765,765,765,765,765,765,765,765,765,765,765,765,765,765,765,765,765,765,765,765,765,765,765,765,765,763,751,731,689,661,638,606,593,583,578,573,570,567,562,556,553,549,547,546,546,544,542,538,528,519],"ymouse":[555,555,555,555,555,555,555,555,555,555,555,555,555,555,555,555,555,555,555,555,555,555,555,555,555,555,555,555,555,555,555,555,555,555,555,555,553,529,480,403,360,327,274,247,224,203,184,163,113,94,77,66,59,54,54,54,54,54,54,54,54],"timestamp_mouse":[1,20,43,60,81,99,121,140,160,180,199,220,240,259,280,301,320,340,360,380,400,419,440,460,480,500,520,540,560,579,600,620,641,660,679,701,720,741,760,780,800,821,841,859,880,900,920,939,960,979,1001,1021,1040,1059,1079,1100,1120,1141,1160,1180,1200],"xSR":741.5,"ySR":494.65000000000003,"xT1":424.9,"yT1":0,"xT2":1058.1,"yT2":0,"toosoon":0,"cond_shown":"equaldotsize","ratio_trial":900,"smaller_num":"18","larger_num":"20","correct_side":2,"subjID":"santiagomartin18","gender":"0","age":"12","school":"6"},{"start_time":1551801261236,"click_time":1551801262726,"finger_time":1551801262127,"fix_duration":908.8738915793471,"trial":15,"RT":891,"MT":599,"sideResp":1,"stimulus":"img/750/equaldotanddens/L/10_Ratio_750_L_4_R_3.png","xmouse":[833,833,833,833,833,833,833,833,833,833,833,833,833,833,833,833,833,833,833,833,834,835,835,835,821,809,805,805,805,805,805,805,805,805,805,805,805,805,805,805,805,805,803,793,752,728,706,676,654,636,633,623,609,596,584,577,576,579,592,607,614,624,626,626,626,626,625,616,596,549,536,531,531,530,522],"ymouse":[549,549,549,549,549,549,549,549,549,549,549,549,549,549,549,549,549,549,549,549,549,541,532,531,541,552,554,554,554,554,554,554,554,554,554,554,554,554,554,554,554,554,554,536,457,417,375,322,280,218,180,131,110,97,92,90,89,83,64,42,33,14,9,8,8,8,7,13,27,53,55,57,57,57,57],"timestamp_mouse":[10,34,49,70,90,111,130,150,170,190,209,230,250,270,290,310,330,350,370,390,409,430,451,471,490,509,530,550,570,590,609,629,650,671,690,709,729,750,770,790,810,829,850,870,890,909,930,950,970,990,1010,1030,1051,1070,1089,1110,1130,1150,1170,1190,1209,1230,1250,1270,1290,1310,1330,1349,1369,1390,1410,1430,1450,1470,1490],"xSR":741.5,"ySR":494.65000000000003,"xT1":424.9,"yT1":0,"xT2":1058.1,"yT2":0,"toosoon":0,"cond_shown":"equaldotanddens","ratio_trial":750,"smaller_num":"3","larger_num":"4","correct_side":1,"subjID":"santiagomartin18","gender":"0","age":"12","school":"6"},{"start_time":1551801263937,"click_time":1551801264786,"finger_time":1551801264646,"fix_duration":250,"trial":16,"RT":709,"MT":140,"sideResp":1,"stimulus":"img/250/equaldotanddens/L/2_Ratio_250_L_16_R_4.png","xmouse":[810,806,799,796,793,791,786,786,786,785,785,785,785,785,785,785,785,785,785,785,785,785,785,785,785,785,785,785,785,785,785,785,782,777,760,685,600,548,512,493,469,457,444],"ymouse":[540,541,543,544,546,548,549,549,549,549,549,548,547,547,547,547,547,547,547,547,547,547,547,547,547,547,547,547,547,547,547,547,541,531,505,374,254,195,162,145,120,103,86],"timestamp_mouse":[8,35,48,69,89,109,129,149,169,189,209,229,249,269,289,308,328,349,369,389,409,429,448,469,488,509,529,549,569,590,608,629,649,669,689,709,729,748,769,788,809,828,849],"xSR":741.5,"ySR":494.65000000000003,"xT1":424.9,"yT1":0,"xT2":1058.1,"yT2":0,"toosoon":0,"cond_shown":"equaldotanddens","ratio_trial":250,"smaller_num":"4","larger_num":"16","correct_side":1,"subjID":"santiagomartin18","gender":"0","age":"12","school":"6"},{"start_time":1551801268094,"click_time":1551801269286,"finger_time":1551801268826,"fix_duration":266.20735805924124,"trial":17,"RT":732,"MT":460,"sideResp":1,"stimulus":"img/250/equaldotanddens/L/7_Ratio_250_L_8_R_2.png","xmouse":[750,750,750,750,750,750,750,750,750,750,750,750,750,750,750,750,750,750,750,750,750,750,750,750,750,750,750,750,750,750,750,750,750,750,750,747,731,698,658,603,538,409,361,319,298,288,282,282,282,282,282,282,282,282,282,282,370,394,420,428],"ymouse":[514,514,514,514,514,514,514,514,514,514,514,514,514,514,514,514,514,514,514,514,514,514,514,514,514,514,514,514,514,514,514,514,514,514,514,512,494,449,390,318,243,130,94,63,43,26,2,0,0,0,0,0,0,0,0,0,8,18,30,33],"timestamp_mouse":[11,32,51,72,92,111,131,152,173,192,212,232,252,273,292,312,332,352,372,392,412,432,452,472,492,513,531,551,572,592,612,631,651,671,692,712,732,752,772,791,813,833,851,871,892,912,932,952,972,992,1012,1032,1052,1073,1092,1112,1132,1153,1172,1192],"xSR":741.5,"ySR":494.65000000000003,"xT1":424.9,"yT1":0,"xT2":1058.1,"yT2":0,"toosoon":0,"cond_shown":"equaldotanddens","ratio_trial":250,"smaller_num":"2","larger_num":"8","correct_side":1,"subjID":"santiagomartin18","gender":"0","age":"12","school":"6"},{"start_time":1551801271367,"click_time":1551801272525,"finger_time":1551801272086,"fix_duration":1120.5301558179142,"trial":18,"RT":719,"MT":439,"sideResp":2,"stimulus":"img/900/equaldotanddens/L/1_Ratio_900_L_10_R_9.png","xmouse":[802,802,802,802,802,802,802,802,802,802,802,802,802,802,802,802,802,802,802,802,802,802,802,802,802,802,802,802,802,802,802,802,803,814,829,852,874,896,944,969,987,1000,1023,1039,1045,1049,1050,1050,1050,1050,1048,1048,1049,1050,1051,1054,1059,1066],"ymouse":[541,541,541,541,541,541,541,541,541,541,541,541,541,541,541,541,541,541,541,541,541,541,541,541,541,541,541,541,541,541,541,541,539,526,513,500,491,476,439,415,386,362,316,277,256,241,233,225,209,202,193,179,153,146,138,125,110,88],"timestamp_mouse":[25,39,59,79,100,118,139,159,179,200,219,239,259,279,299,319,339,359,379,399,419,438,459,479,500,519,539,558,579,599,619,639,659,679,699,719,739,758,779,799,819,839,859,878,898,918,938,959,979,1000,1018,1039,1058,1080,1099,1120,1138,1158],"xSR":741.5,"ySR":494.65000000000003,"xT1":424.9,"yT1":0,"xT2":1058.1,"yT2":0,"toosoon":0,"cond_shown":"equaldotanddens","ratio_trial":900,"smaller_num":"9","larger_num":"10","correct_side":1,"subjID":"santiagomartin18","gender":"0","age":"12","school":"6"},{"start_time":1551801275057,"click_time":1551801276227,"finger_time":1551801275866,"fix_duration":250,"trial":19,"RT":809,"MT":361,"sideResp":1,"stimulus":"img/900/equaldotsize/L/2_Ratio_900_L_20_R_18.png","xmouse":[791,791,791,791,791,791,791,791,791,791,791,791,791,791,791,791,791,791,791,791,791,791,791,789,785,784,783,782,782,782,782,782,782,782,782,782,782,779,767,751,714,682,652,593,569,553,538,529,514,503,488,484,484,485,494,498,504,507,509],"ymouse":[541,541,541,541,541,541,541,541,541,541,541,541,541,541,541,541,541,541,541,541,541,541,541,541,543,545,545,546,546,546,546,546,546,546,546,546,546,541,519,499,457,429,401,338,309,290,273,262,230,210,181,169,162,155,146,140,125,107,75],"timestamp_mouse":[10,31,49,69,88,109,129,148,168,189,209,229,249,269,290,309,329,349,368,388,409,429,449,469,489,509,530,549,570,589,610,630,649,668,689,709,729,749,770,789,809,828,850,869,888,909,929,948,969,989,1009,1029,1049,1068,1089,1108,1130,1149,1170],"xSR":741.5,"ySR":494.65000000000003,"xT1":424.9,"yT1":0,"xT2":1058.1,"yT2":0,"toosoon":0,"cond_shown":"equaldotsize","ratio_trial":900,"smaller_num":"18","larger_num":"20","correct_side":1,"subjID":"santiagomartin18","gender":"0","age":"12","school":"6"},{"start_time":1551801278125,"click_time":1551801278827,"finger_time":1551801278466,"fix_duration":677.5501955762682,"trial":20,"RT":341,"MT":361,"sideResp":2,"stimulus":"img/500/randomdotsizeEA/L/4_Ratio_500_L_18_R_9.png","xmouse":[743,743,743,743,743,743,743,743,743,744,748,751,754,759,766,789,803,827,860,899,925,931,939,948,957,976,986,998,1002,1005,1016,1024,1033,1044,1055,1076],"ymouse":[548,548,548,548,548,548,548,548,548,549,549,549,549,548,544,525,509,473,400,309,246,234,224,214,205,197,192,188,186,184,172,164,151,135,120,93],"timestamp_mouse":[6,30,41,60,81,101,121,142,161,181,201,221,241,262,282,302,321,341,360,382,402,420,440,461,480,501,520,541,560,581,602,620,641,661,681,702],"xSR":741.5,"ySR":494.65000000000003,"xT1":424.9,"yT1":0,"xT2":1058.1,"yT2":0,"toosoon":0,"cond_shown":"randomdotsizeEA","ratio_trial":500,"smaller_num":"9","larger_num":"18","correct_side":1,"subjID":"santiagomartin18","gender":"0","age":"12","school":"6"},{"start_time":1551801281110,"click_time":1551801282005,"finger_time":1551801281705,"fix_duration":1343.6470176240011,"trial":21,"RT":595,"MT":300,"sideResp":1,"stimulus":"img/250/equaldotsize/R/4_Ratio_250_L_3_R_12.png","xmouse":[781,781,781,781,781,781,781,781,781,781,781,781,781,781,781,781,781,781,781,781,781,781,781,781,781,781,781,779,775,770,756,749,740,726,705,639,616,578,558,539,511,498,485,473,467],"ymouse":[525,525,525,525,525,525,525,525,525,525,525,525,525,525,525,525,525,525,525,525,525,525,525,525,525,525,525,517,502,488,459,450,439,420,386,306,284,243,218,196,158,138,119,102,90],"timestamp_mouse":[16,36,56,76,96,116,136,156,175,196,216,236,255,276,296,316,336,355,375,396,416,436,456,475,495,516,536,556,575,595,617,635,656,675,696,716,735,756,776,795,817,835,856,876,895],"xSR":741.5,"ySR":494.65000000000003,"xT1":424.9,"yT1":0,"xT2":1058.1,"yT2":0,"toosoon":0,"cond_shown":"equaldotsize","ratio_trial":250,"smaller_num":"3","larger_num":"12","correct_side":2,"subjID":"santiagomartin18","gender":"0","age":"12","school":"6"},{"start_time":1551801298460,"click_time":1551801299486,"finger_time":1551801299206,"fix_duration":1173.258892004495,"trial":22,"RT":746,"MT":280,"sideResp":1,"stimulus":"img/500/equaldotsize/L/4_Ratio_500_L_18_R_9.png","xmouse":[808,808,808,808,808,808,808,808,808,808,808,808,808,808,808,808,808,808,808,808,808,808,808,808,808,809,809,809,809,809,809,809,809,809,809,806,792,768,714,687,637,608,608,608,608,608,608,608,608,608,608,457],"ymouse":[552,552,552,552,552,552,552,552,552,552,552,552,552,552,552,552,552,552,552,552,552,552,552,552,552,552,552,552,550,549,549,549,549,549,548,538,515,475,355,266,98,14,14,14,14,14,14,14,14,14,14,1],"timestamp_mouse":[7,28,45,65,86,107,126,146,166,185,207,226,246,265,285,306,326,346,366,386,405,426,446,466,486,505,525,546,566,585,606,626,646,666,685,705,725,746,766,787,805,826,846,867,886,905,926,947,966,986,1006,1026],"xSR":741.5,"ySR":494.65000000000003,"xT1":424.9,"yT1":0,"xT2":1058.1,"yT2":0,"toosoon":0,"cond_shown":"equaldotsize","ratio_trial":500,"smaller_num":"9","larger_num":"18","correct_side":1,"subjID":"santiagomartin18","gender":"0","age":"12","school":"6"},{"start_time":1551801301230,"click_time":1551801302227,"finger_time":1551801301906,"fix_duration":521.0675522390368,"trial":23,"RT":676,"MT":321,"sideResp":1,"stimulus":"img/500/equaldotanddens/L/8_Ratio_500_L_8_R_4.png","xmouse":[823,823,823,823,823,823,823,823,823,823,823,823,823,823,823,823,823,823,823,823,823,823,823,823,823,823,823,823,822,820,815,795,767,729,652,627,606,590,577,564,553,546,540,535,530,524,517,510,500,487],"ymouse":[550,550,550,550,550,550,550,550,550,550,550,550,550,550,550,550,550,550,550,550,550,550,550,550,550,550,550,550,550,550,548,530,507,473,403,376,349,327,308,278,243,218,200,190,178,164,147,131,117,98],"timestamp_mouse":[24,35,56,76,95,116,136,156,176,195,216,236,256,276,296,316,336,357,376,395,416,436,456,477,496,516,537,555,576,595,615,635,655,676,696,715,736,755,775,796,816,835,855,876,896,916,936,956,976,996],"xSR":741.5,"ySR":494.65000000000003,"xT1":424.9,"yT1":0,"xT2":1058.1,"yT2":0,"toosoon":0,"cond_shown":"equaldotanddens","ratio_trial":500,"smaller_num":"4","larger_num":"8","correct_side":1,"subjID":"santiagomartin18","gender":"0","age":"12","school":"6"},{"start_time":1551801303859,"click_time":1551801304626,"finger_time":1551801304385,"fix_duration":371.72174800397437,"trial":24,"RT":526,"MT":241,"sideResp":2,"stimulus":"img/900/randomdotsizeEA/R/9_Ratio_900_L_18_R_20.png","xmouse":[802,803,803,803,803,803,803,803,803,803,803,803,803,803,803,803,804,805,807,809,810,810,812,815,826,834,844,855,887,936,981,1033,1070,1105,1110,1111,1112,1115,1122],"ymouse":[555,555,555,555,555,555,555,555,555,555,555,555,555,555,555,555,555,555,554,553,553,551,548,543,517,501,487,474,438,365,295,227,181,146,140,136,130,117,73],"timestamp_mouse":[8,31,47,67,86,107,126,146,167,187,208,226,246,267,286,306,327,346,366,386,406,426,446,466,487,506,526,548,566,587,606,626,647,668,686,707,727,746,766],"xSR":741.5,"ySR":494.65000000000003,"xT1":424.9,"yT1":0,"xT2":1058.1,"yT2":0,"toosoon":0,"cond_shown":"randomdotsizeEA","ratio_trial":900,"smaller_num":"18","larger_num":"20","correct_side":2,"subjID":"santiagomartin18","gender":"0","age":"12","school":"6"},{"start_time":1551801305877,"click_time":1551801306565,"finger_time":1551801306426,"fix_duration":250,"trial":25,"RT":549,"MT":139,"sideResp":2,"stimulus":"img/500/randomdotsizeEA/R/3_Ratio_500_L_10_R_20.png","xmouse":[792,792,792,792,792,792,792,792,792,792,792,792,792,792,792,792,792,792,792,792,792,792,792,795,799,804,811,832,855,912,966,1015,1066,1071,1071],"ymouse":[523,523,523,523,523,523,523,523,523,523,523,523,523,523,523,523,523,523,523,523,523,523,523,521,515,507,499,465,425,329,250,177,111,100,95],"timestamp_mouse":[8,29,50,69,89,109,129,149,168,189,209,229,249,269,289,309,329,348,368,389,409,429,449,468,488,508,530,549,568,588,609,628,649,668,688],"xSR":741.5,"ySR":494.65000000000003,"xT1":424.9,"yT1":0,"xT2":1058.1,"yT2":0,"toosoon":0,"cond_shown":"randomdotsizeEA","ratio_trial":500,"smaller_num":"10","larger_num":"20","correct_side":2,"subjID":"santiagomartin18","gender":"0","age":"12","school":"6"},{"start_time":1551801308561,"click_time":1551801309327,"finger_time":1551801309105,"fix_duration":973.1209096421335,"trial":26,"RT":544,"MT":222,"sideResp":2,"stimulus":"img/500/equaldotsize/R/9_Ratio_500_L_2_R_4.png","xmouse":[790,790,790,790,790,790,790,790,790,790,790,790,790,790,790,790,790,790,790,790,790,790,790,790,798,812,829,847,921,972,1016,1051,1074,1096,1100,1108,1117,1128,1142],"ymouse":[527,527,527,527,527,527,527,527,527,527,527,527,527,527,527,527,527,527,527,527,527,527,527,528,525,515,499,483,389,323,258,213,188,167,163,147,130,109,74],"timestamp_mouse":[11,29,44,64,85,105,125,145,165,185,205,224,245,265,285,305,324,344,365,385,405,425,444,465,484,504,524,544,565,584,604,625,645,665,685,704,724,745,766],"xSR":741.5,"ySR":494.65000000000003,"xT1":424.9,"yT1":0,"xT2":1058.1,"yT2":0,"toosoon":0,"cond_shown":"equaldotsize","ratio_trial":500,"smaller_num":"2","larger_num":"4","correct_side":2,"subjID":"santiagomartin18","gender":"0","age":"12","school":"6"},{"start_time":1551801311089,"click_time":1551801311966,"finger_time":1551801311566,"fix_duration":1042.0518131013453,"trial":27,"RT":477,"MT":400,"sideResp":2,"stimulus":"img/750/equaldotsize/L/10_Ratio_750_L_4_R_3.png","xmouse":[800,800,800,800,800,800,800,800,800,800,800,800,800,800,800,800,800,800,800,800,800,800,800,800,806,819,838,890,928,945,961,981,988,997,1006,1015,1023,1038,1047,1053,1055,1057,1058,1059],"ymouse":[522,522,522,522,522,522,522,522,522,522,522,522,522,522,522,522,522,522,522,522,522,512,503,491,474,446,412,336,285,263,243,213,198,177,154,134,114,84,66,55,51,48,46,46],"timestamp_mouse":[18,38,57,77,96,117,137,157,177,197,217,236,256,276,297,318,336,357,377,397,417,437,456,477,498,516,537,556,576,596,617,637,657,677,697,717,737,756,777,796,816,837,856,877],"xSR":741.5,"ySR":494.65000000000003,"xT1":424.9,"yT1":0,"xT2":1058.1,"yT2":0,"toosoon":0,"cond_shown":"equaldotsize","ratio_trial":750,"smaller_num":"3","larger_num":"4","correct_side":1,"subjID":"santiagomartin18","gender":"0","age":"12","school":"6"},{"start_time":1551801313828,"click_time":1551801314366,"finger_time":1551801314045,"fix_duration":920.4029814610353,"trial":28,"RT":217,"MT":321,"sideResp":1,"stimulus":"img/750/equaldotanddens/R/11_Ratio_750_L_12_R_16.png","xmouse":[764,764,764,764,764,764,764,762,758,753,728,706,687,675,657,646,632,617,604,576,567,562,560,557,533,507,475],"ymouse":[544,544,544,544,544,544,544,540,534,527,493,452,420,398,361,341,318,293,271,234,222,215,212,201,162,123,79],"timestamp_mouse":[26,37,58,78,97,118,138,158,179,197,217,238,257,278,298,317,337,358,377,397,417,438,458,477,498,518,538],"xSR":741.5,"ySR":494.65000000000003,"xT1":424.9,"yT1":0,"xT2":1058.1,"yT2":0,"toosoon":0,"cond_shown":"equaldotanddens","ratio_trial":750,"smaller_num":"12","larger_num":"16","correct_side":2,"subjID":"santiagomartin18","gender":"0","age":"12","school":"6"},{"start_time":1551801316664,"click_time":1551801317826,"finger_time":1551801317545,"fix_duration":1277.509861699313,"trial":29,"RT":881,"MT":281,"sideResp":2,"stimulus":"img/900/randomdotsizeEA/R/7_Ratio_900_L_9_R_10.png","xmouse":[807,807,807,807,807,807,807,807,807,807,807,807,807,807,807,807,807,807,807,807,807,807,807,807,807,807,807,807,807,807,807,807,807,807,807,807,807,807,807,807,807,807,807,812,835,869,909,956,995,1003,1006,1013,1018,1034,1042,1047,1054,1056,1061],"ymouse":[542,542,542,542,542,542,542,542,542,542,542,542,542,542,542,542,542,542,542,542,542,542,542,542,542,542,542,542,542,542,542,542,542,542,542,542,542,542,542,542,542,542,542,535,494,443,392,338,261,225,204,186,171,137,115,90,68,58,49],"timestamp_mouse":[6,22,42,62,83,102,123,142,161,182,202,222,242,262,282,302,321,341,361,382,402,422,442,462,483,503,522,543,561,581,602,621,642,662,682,701,722,742,762,782,802,823,842,862,881,903,922,942,962,981,1001,1022,1042,1063,1082,1102,1123,1141,1161],"xSR":741.5,"ySR":494.65000000000003,"xT1":424.9,"yT1":0,"xT2":1058.1,"yT2":0,"toosoon":0,"cond_shown":"randomdotsizeEA","ratio_trial":900,"smaller_num":"9","larger_num":"10","correct_side":2,"subjID":"santiagomartin18","gender":"0","age":"12","school":"6"},{"start_time":1551801319629,"click_time":1551801320666,"finger_time":1551801320165,"fix_duration":1002.8128485789473,"trial":30,"RT":536,"MT":501,"sideResp":2,"stimulus":"img/250/equaldotsize/R/10_Ratio_250_L_4_R_16.png","xmouse":[831,831,831,831,831,831,831,831,831,831,831,831,831,831,831,831,831,831,831,831,831,831,831,831,831,836,842,850,859,875,887,927,970,1019,1093,1118,1149,1180,1199,1213,1213,1213,1213,1213,1213,1213,1213,1213,1213,1191,1174,1146],"ymouse":[571,571,571,571,571,571,571,571,571,571,571,571,571,571,571,571,571,571,571,571,571,571,571,571,571,564,559,553,544,515,490,430,376,322,220,173,115,64,30,3,3,3,3,3,3,3,3,3,3,2,11,26],"timestamp_mouse":[25,36,57,77,97,118,136,157,177,197,216,236,257,276,296,317,336,356,377,397,417,438,457,477,497,516,536,556,577,598,617,637,657,676,696,717,737,758,777,797,818,836,856,878,897,917,936,956,976,997,1016,1036],"xSR":741.5,"ySR":494.65000000000003,"xT1":424.9,"yT1":0,"xT2":1058.1,"yT2":0,"toosoon":0,"cond_shown":"equaldotsize","ratio_trial":250,"smaller_num":"4","larger_num":"16","correct_side":2,"subjID":"santiagomartin18","gender":"0","age":"12","school":"6"},{"start_time":1551801321917,"click_time":1551801322846,"finger_time":1551801322505,"fix_duration":250,"trial":31,"RT":588,"MT":341,"sideResp":1,"stimulus":"img/500/equaldotanddens/L/13_Ratio_500_L_12_R_6.png","xmouse":[782,782,782,782,782,782,782,782,782,782,782,782,782,782,782,782,782,782,782,782,782,782,782,781,780,774,772,769,764,759,750,714,683,648,616,565,552,538,532,527,512,506,501,500,499,497,496],"ymouse":[515,515,515,515,515,515,515,515,515,515,515,515,515,515,515,515,515,515,515,515,515,515,515,516,516,507,505,501,496,489,477,429,391,355,320,263,243,216,200,185,150,136,124,119,114,102,97],"timestamp_mouse":[16,36,48,69,89,109,130,149,169,189,209,229,248,268,289,309,329,349,369,389,409,429,448,468,488,509,528,549,568,588,609,629,648,669,689,710,728,748,768,790,809,828,849,870,890,910,929],"xSR":741.5,"ySR":494.65000000000003,"xT1":424.9,"yT1":0,"xT2":1058.1,"yT2":0,"toosoon":0,"cond_shown":"equaldotanddens","ratio_trial":500,"smaller_num":"6","larger_num":"12","correct_side":1,"subjID":"santiagomartin18","gender":"0","age":"12","school":"6"},{"start_time":1551801324770,"click_time":1551801325806,"finger_time":1551801325307,"fix_duration":1242.9248285421313,"trial":32,"RT":537,"MT":499,"sideResp":1,"stimulus":"img/250/equaldotsize/L/15_Ratio_250_L_12_R_3.png","xmouse":[783,783,783,783,783,783,783,783,783,783,783,783,783,783,783,783,783,783,783,783,783,783,782,777,765,753,741,731,709,696,683,671,653,646,635,629,621,604,599,593,591,591,587,583,573,565,556,535,526,519,513,511],"ymouse":[582,582,582,582,582,582,582,582,582,582,582,582,582,582,582,582,582,582,582,582,582,583,577,565,539,518,499,479,444,425,407,389,359,346,320,305,289,263,256,250,248,247,241,235,221,209,193,155,134,117,104,99],"timestamp_mouse":[15,35,57,76,96,117,136,156,175,196,215,236,256,276,296,316,336,357,376,396,416,435,456,475,496,515,537,556,576,595,617,636,657,675,695,715,737,756,776,795,816,836,856,875,896,915,935,957,976,996,1016,1036],"xSR":741.5,"ySR":494.65000000000003,"xT1":424.9,"yT1":0,"xT2":1058.1,"yT2":0,"toosoon":0,"cond_shown":"equaldotsize","ratio_trial":250,"smaller_num":"3","larger_num":"12","correct_side":1,"subjID":"santiagomartin18","gender":"0","age":"12","school":"6"},{"start_time":1551801327350,"click_time":1551801328626,"finger_time":1551801327866,"fix_duration":383.8596227964307,"trial":33,"RT":516,"MT":760,"sideResp":1,"stimulus":"img/250/randomdotsizeEA/L/2_Ratio_250_L_16_R_4.png","xmouse":[764,764,764,764,764,764,764,764,764,764,764,764,764,764,764,764,764,764,764,764,764,764,764,763,760,754,749,742,717,691,662,639,624,598,590,584,582,580,559,544,529,520,516,512,512,511,511,510,510,510,510,510,510,510,509,509,509,509,509,509,509,509,509,509],"ymouse":[525,525,525,525,525,525,525,525,525,525,525,525,525,525,525,525,525,525,525,525,525,523,522,512,504,493,487,477,437,394,355,324,307,276,265,254,249,247,232,224,218,210,207,200,200,199,195,192,185,180,173,163,157,149,149,149,149,149,143,136,127,121,114,96],"timestamp_mouse":[23,36,55,75,96,116,136,156,175,196,216,235,255,276,296,316,336,356,376,395,417,436,457,476,495,516,535,557,576,596,616,636,655,676,696,716,735,757,776,796,816,835,855,876,896,915,935,957,976,996,1015,1036,1056,1076,1095,1116,1135,1156,1176,1196,1215,1235,1256,1276],"xSR":741.5,"ySR":494.65000000000003,"xT1":424.9,"yT1":0,"xT2":1058.1,"yT2":0,"toosoon":0,"cond_shown":"randomdotsizeEA","ratio_trial":250,"smaller_num":"4","larger_num":"16","correct_side":1,"subjID":"santiagomartin18","gender":"0","age":"12","school":"6"},{"start_time":1551801330404,"click_time":1551801331826,"finger_time":1551801331185,"fix_duration":677.660089462764,"trial":34,"RT":781,"MT":641,"sideResp":2,"stimulus":"img/750/equaldotanddens/R/7_Ratio_750_L_3_R_4.png","xmouse":[800,800,800,800,800,800,800,800,800,800,800,800,800,800,800,800,800,800,800,800,800,800,800,800,800,800,800,800,800,800,800,800,800,800,801,805,810,819,824,832,840,865,885,923,949,969,995,1003,1009,1012,1015,1018,1021,1023,1024,1026,1029,1031,1032,1034,1036,1039,1041,1043,1046,1047,1051,1053,1054,1056,1059,1064],"ymouse":[557,557,557,557,557,557,557,557,557,557,557,557,557,557,557,557,557,557,557,557,557,557,557,557,557,556,555,553,552,551,550,547,545,538,534,527,519,503,496,485,471,437,412,365,329,299,246,227,214,207,202,198,191,184,171,160,144,137,132,129,126,122,119,117,114,113,110,108,106,104,101,94],"timestamp_mouse":[7,34,42,61,81,101,122,142,161,181,203,222,242,262,283,302,322,342,363,382,402,422,442,463,482,501,521,542,562,581,603,622,642,662,681,701,721,742,761,781,802,822,841,862,882,901,922,941,961,982,1003,1022,1043,1061,1081,1101,1122,1141,1161,1181,1202,1222,1241,1261,1282,1303,1321,1341,1362,1381,1401,1422],"xSR":741.5,"ySR":494.65000000000003,"xT1":424.9,"yT1":0,"xT2":1058.1,"yT2":0,"toosoon":0,"cond_shown":"equaldotanddens","ratio_trial":750,"smaller_num":"3","larger_num":"4","correct_side":2,"subjID":"santiagomartin18","gender":"0","age":"12","school":"6"},{"start_time":1551801334086,"click_time":1551801335386,"finger_time":1551801334626,"fix_duration":1018.9723892361554,"trial":35,"RT":540,"MT":760,"sideResp":1,"stimulus":"img/500/randomdotsizeEA/L/5_Ratio_500_L_4_R_2.png","xmouse":[765,765,765,765,765,765,765,765,765,765,765,765,765,765,765,765,765,765,766,766,766,766,767,767,768,770,772,774,775,777,777,777,776,772,763,747,727,674,648,606,512,440,378,303,284,273,268,268,274,281,285,288,304,316,332,347,360,380,394,406,415,422,422,422,423,426],"ymouse":[551,551,551,551,551,551,551,551,551,551,551,551,551,551,551,551,551,551,551,551,551,551,536,520,509,503,498,494,489,481,476,470,456,448,438,422,406,357,328,279,191,132,91,52,40,30,24,18,11,6,5,5,5,5,8,13,16,25,31,38,42,46,46,46,46,48],"timestamp_mouse":[6,20,40,59,79,100,120,139,160,180,200,220,240,260,280,299,321,339,360,380,400,419,440,459,479,500,519,540,561,580,599,620,640,660,680,699,719,740,759,780,801,821,840,860,880,899,919,939,960,979,999,1019,1040,1060,1080,1099,1120,1141,1160,1180,1199,1219,1240,1260,1280,1300],"xSR":741.5,"ySR":494.65000000000003,"xT1":424.9,"yT1":0,"xT2":1058.1,"yT2":0,"toosoon":0,"cond_shown":"randomdotsizeEA","ratio_trial":500,"smaller_num":"2","larger_num":"4","correct_side":1,"subjID":"santiagomartin18","gender":"0","age":"12","school":"6"},{"start_time":1551801336717,"click_time":1551801337546,"finger_time":1551801337386,"fix_duration":649.404768305849,"trial":36,"RT":669,"MT":160,"sideResp":1,"stimulus":"img/750/randomdotsizeEA/L/1_Ratio_750_L_20_R_15.png","xmouse":[804,804,804,804,804,804,804,804,804,804,804,804,804,804,804,804,804,804,804,804,805,804,803,801,800,799,799,798,797,796,789,777,762,737,700,625,586,539,510,485,454,448],"ymouse":[559,559,559,559,559,559,559,559,559,559,559,559,559,559,559,559,559,559,559,559,559,555,553,548,545,544,543,542,540,539,531,518,502,477,445,380,345,276,226,174,115,97],"timestamp_mouse":[11,38,48,69,89,109,129,148,168,189,209,229,249,268,288,309,329,349,369,389,409,429,450,468,489,508,529,549,568,589,609,628,648,669,688,709,730,748,768,788,809,829],"xSR":741.5,"ySR":494.65000000000003,"xT1":424.9,"yT1":0,"xT2":1058.1,"yT2":0,"toosoon":0,"cond_shown":"randomdotsizeEA","ratio_trial":750,"smaller_num":"15","larger_num":"20","correct_side":1,"subjID":"santiagomartin18","gender":"0","age":"12","school":"6"},{"start_time":1551801339033,"click_time":1551801340126,"finger_time":1551801339826,"fix_duration":385.9002312651062,"trial":37,"RT":793,"MT":300,"sideResp":2,"stimulus":"img/750/randomdotsizeEA/R/2_Ratio_750_L_6_R_8.png","xmouse":[799,799,799,799,799,799,799,799,799,799,799,799,799,799,799,799,799,799,799,799,799,799,799,799,799,799,799,800,801,801,802,802,802,802,802,803,805,808,814,841,871,899,927,955,995,1010,1024,1034,1043,1051,1053,1055,1056,1059,1067],"ymouse":[551,551,551,551,551,551,551,551,551,551,551,551,551,551,551,551,551,551,551,551,551,551,551,551,551,551,551,552,552,550,549,548,548,548,546,543,538,529,512,470,443,424,403,383,341,315,285,254,214,166,147,133,124,115,97],"timestamp_mouse":[24,33,53,72,92,114,133,152,172,193,213,232,253,272,292,312,333,353,373,393,414,432,453,472,493,513,533,554,573,593,613,632,653,673,693,712,733,752,773,793,812,833,853,873,893,913,933,952,972,992,1012,1033,1052,1074,1093],"xSR":741.5,"ySR":494.65000000000003,"xT1":424.9,"yT1":0,"xT2":1058.1,"yT2":0,"toosoon":0,"cond_shown":"randomdotsizeEA","ratio_trial":750,"smaller_num":"6","larger_num":"8","correct_side":2,"subjID":"santiagomartin18","gender":"0","age":"12","school":"6"},{"start_time":1551801341271,"click_time":1551801341987,"finger_time":1551801341786,"fix_duration":345.7864662943121,"trial":38,"RT":515,"MT":201,"sideResp":2,"stimulus":"img/900/equaldotanddens/R/14_Ratio_900_L_18_R_20.png","xmouse":[829,829,829,829,829,829,829,829,829,829,829,829,829,829,829,829,829,829,829,829,830,831,837,839,840,842,844,852,861,877,893,919,992,1025,1049,1062],"ymouse":[534,534,534,534,534,534,534,534,534,534,534,534,534,534,534,534,534,534,534,534,533,533,528,527,526,523,521,506,488,452,418,361,191,115,71,51],"timestamp_mouse":[15,34,56,75,95,115,135,154,176,195,214,234,255,275,295,316,334,355,376,395,415,436,455,475,495,515,535,555,576,594,614,634,655,674,695,716],"xSR":741.5,"ySR":494.65000000000003,"xT1":424.9,"yT1":0,"xT2":1058.1,"yT2":0,"toosoon":0,"cond_shown":"equaldotanddens","ratio_trial":900,"smaller_num":"18","larger_num":"20","correct_side":2,"subjID":"santiagomartin18","gender":"0","age":"12","school":"6"},{"start_time":1551801343397,"click_time":1551801344346,"finger_time":1551801344006,"fix_duration":250,"trial":39,"RT":609,"MT":340,"sideResp":2,"stimulus":"img/900/equaldotanddens/R/7_Ratio_900_L_9_R_10.png","xmouse":[776,776,776,776,776,776,776,776,776,776,776,776,776,776,776,776,776,776,776,776,776,776,776,776,776,776,776,779,782,786,793,829,863,879,891,902,914,920,929,940,957,998,1011,1027,1035,1041,1058,1069],"ymouse":[513,513,513,513,513,513,513,513,513,513,513,513,513,513,513,513,513,513,513,513,513,513,513,513,514,514,514,514,511,506,491,431,379,354,332,315,289,277,255,228,190,101,74,50,40,33,19,9],"timestamp_mouse":[8,29,49,68,88,110,128,148,169,188,208,229,249,269,289,308,329,349,369,389,409,428,448,469,490,509,528,548,569,590,609,628,649,669,689,708,728,749,768,789,809,829,849,868,889,909,929,949],"xSR":741.5,"ySR":494.65000000000003,"xT1":424.9,"yT1":0,"xT2":1058.1,"yT2":0,"toosoon":0,"cond_shown":"equaldotanddens","ratio_trial":900,"smaller_num":"9","larger_num":"10","correct_side":2,"subjID":"santiagomartin18","gender":"0","age":"12","school":"6"},{"start_time":1551801346136,"click_time":1551801347245,"finger_time":1551801346726,"fix_duration":849.0805651343313,"trial":40,"RT":590,"MT":519,"sideResp":1,"stimulus":"img/250/equaldotanddens/L/7_Ratio_250_L_8_R_2.png","xmouse":[755,755,755,755,755,755,755,755,755,755,755,755,755,755,755,755,755,755,755,755,755,755,755,755,755,755,755,755,755,734,717,697,683,669,648,638,622,615,611,603,596,589,582,575,562,558,550,545,543,543,543,543,542,539,526,520],"ymouse":[517,517,517,517,517,517,517,517,517,517,517,517,517,517,517,517,517,517,517,517,517,517,517,517,517,517,517,517,515,467,417,361,326,296,248,225,197,184,175,160,152,144,134,122,101,97,91,87,85,85,85,85,85,84,81,79],"timestamp_mouse":[10,35,50,70,89,109,131,149,170,190,210,230,249,269,290,310,329,349,370,390,410,430,450,469,489,509,530,549,570,590,610,630,649,669,690,710,730,750,769,790,810,829,849,870,890,910,930,950,970,990,1009,1029,1050,1069,1089,1109],"xSR":741.5,"ySR":494.65000000000003,"xT1":424.9,"yT1":0,"xT2":1058.1,"yT2":0,"toosoon":0,"cond_shown":"equaldotanddens","ratio_trial":250,"smaller_num":"2","larger_num":"8","correct_side":1,"subjID":"santiagomartin18","gender":"0","age":"12","school":"6"},{"start_time":1551801348937,"click_time":1551801350126,"finger_time":1551801349686,"fix_duration":710.4382974437616,"trial":41,"RT":749,"MT":440,"sideResp":1,"stimulus":"img/750/equaldotsize/L/14_Ratio_750_L_8_R_6.png","xmouse":[768,768,768,768,768,768,768,768,768,768,768,768,768,768,768,768,768,768,768,768,768,768,768,768,768,768,768,768,768,768,768,768,768,768,768,768,765,752,735,713,660,641,625,615,598,593,589,588,588,585,584,582,578,574,571,568,561,549,535,504],"ymouse":[513,513,513,513,513,513,513,513,513,513,513,513,513,513,513,513,513,513,513,513,513,513,513,513,513,513,513,513,513,513,513,513,513,513,513,513,509,491,462,423,335,300,271,247,204,185,165,158,149,128,121,113,105,97,93,90,90,89,89,89],"timestamp_mouse":[11,30,48,69,90,109,128,149,169,189,210,228,248,270,288,308,329,348,369,389,409,429,449,469,489,509,528,549,570,588,608,629,649,669,689,708,728,749,770,789,809,829,848,869,889,910,928,949,969,988,1009,1029,1050,1069,1089,1110,1129,1149,1169,1189],"xSR":741.5,"ySR":494.65000000000003,"xT1":424.9,"yT1":0,"xT2":1058.1,"yT2":0,"toosoon":0,"cond_shown":"equaldotsize","ratio_trial":750,"smaller_num":"6","larger_num":"8","correct_side":1,"subjID":"santiagomartin18","gender":"0","age":"12","school":"6"},{"start_time":1551801352092,"click_time":1551801353606,"finger_time":1551801352906,"fix_duration":1003.1615962903218,"trial":42,"RT":814,"MT":700,"sideResp":2,"stimulus":"img/900/equaldotanddens/R/15_Ratio_900_L_9_R_10.png","xmouse":[754,754,754,754,754,754,754,754,754,754,754,754,754,754,754,754,754,754,754,754,754,754,754,754,754,754,754,754,754,754,754,754,754,754,754,754,754,754,754,748,736,714,702,694,686,683,679,678,678,678,678,678,678,682,688,695,727,746,785,814,841,899,925,944,966,987,1015,1028,1036,1045,1053,1066,1071,1074,1077,1078],"ymouse":[513,513,513,513,513,513,513,513,513,513,513,513,513,513,513,513,513,513,513,513,513,513,513,513,513,513,513,513,513,513,513,513,513,513,513,513,513,513,513,512,503,483,473,464,454,449,442,440,439,438,437,436,435,434,433,433,426,420,409,395,378,340,323,310,294,281,259,246,234,217,201,167,151,132,113,99],"timestamp_mouse":[13,40,54,74,94,114,134,154,174,194,213,234,254,274,295,313,333,354,375,394,413,434,454,474,493,513,534,554,574,594,614,633,653,674,693,714,734,754,774,794,814,834,853,875,894,913,934,955,974,993,1014,1033,1053,1074,1095,1114,1134,1154,1174,1194,1215,1234,1254,1274,1293,1313,1333,1353,1373,1395,1415,1434,1454,1474,1493,1513],"xSR":741.5,"ySR":494.65000000000003,"xT1":424.9,"yT1":0,"xT2":1058.1,"yT2":0,"toosoon":0,"cond_shown":"equaldotanddens","ratio_trial":900,"smaller_num":"9","larger_num":"10","correct_side":2,"subjID":"santiagomartin18","gender":"0","age":"12","school":"6"},{"start_time":1551801354892,"click_time":1551801355765,"finger_time":1551801355485,"fix_duration":625.3183582112775,"trial":43,"RT":593,"MT":280,"sideResp":2,"stimulus":"img/750/equaldotsize/R/11_Ratio_750_L_12_R_16.png","xmouse":[823,823,823,823,823,823,823,823,823,823,823,823,823,823,823,823,823,823,823,823,823,823,823,823,823,823,823,825,833,843,858,897,918,943,969,993,1035,1057,1085,1095,1105,1118,1126,1134],"ymouse":[569,569,569,569,569,569,569,569,569,569,569,569,569,569,569,569,569,569,569,569,569,569,569,569,569,569,569,565,553,539,519,460,423,387,345,300,232,202,162,146,134,117,107,93],"timestamp_mouse":[14,34,53,74,94,114,134,153,173,193,213,233,253,273,293,313,333,353,373,393,413,434,453,473,493,513,533,552,573,593,613,634,653,673,693,713,733,754,773,793,813,834,853,873],"xSR":741.5,"ySR":494.65000000000003,"xT1":424.9,"yT1":0,"xT2":1058.1,"yT2":0,"toosoon":0,"cond_shown":"equaldotsize","ratio_trial":750,"smaller_num":"12","larger_num":"16","correct_side":2,"subjID":"santiagomartin18","gender":"0","age":"12","school":"6"},{"start_time":1551801357536,"click_time":1551801358506,"finger_time":1551801358105,"fix_duration":908.5533059063479,"trial":44,"RT":569,"MT":401,"sideResp":2,"stimulus":"img/900/equaldotsize/R/12_Ratio_900_L_18_R_20.png","xmouse":[801,801,801,801,801,801,801,801,801,801,801,801,801,801,801,801,801,801,801,801,801,801,801,801,802,809,822,831,840,861,876,892,914,941,999,1013,1024,1030,1034,1041,1045,1049,1053,1055,1068,1073,1092,1104,1112],"ymouse":[518,518,518,518,518,518,518,518,518,518,518,518,518,518,518,518,518,518,518,518,518,518,518,518,518,513,504,495,488,461,439,418,388,348,261,242,225,216,210,198,191,187,181,178,156,146,114,100,88],"timestamp_mouse":[9,35,49,69,89,108,129,149,169,189,209,229,249,269,289,309,329,349,369,389,409,429,448,469,489,509,529,549,569,589,609,630,650,669,689,709,729,749,770,789,809,828,849,869,890,910,929,950,970],"xSR":741.5,"ySR":494.65000000000003,"xT1":424.9,"yT1":0,"xT2":1058.1,"yT2":0,"toosoon":0,"cond_shown":"equaldotsize","ratio_trial":900,"smaller_num":"18","larger_num":"20","correct_side":2,"subjID":"santiagomartin18","gender":"0","age":"12","school":"6"},{"start_time":1551801360436,"click_time":1551801361506,"finger_time":1551801361065,"fix_duration":1168.235817112837,"trial":45,"RT":629,"MT":441,"sideResp":2,"stimulus":"img/250/randomdotsizeEA/R/9_Ratio_250_L_3_R_12.png","xmouse":[785,785,785,785,785,785,785,785,785,785,785,785,785,785,785,785,785,785,785,785,785,785,785,785,785,785,785,785,791,797,830,859,882,903,929,939,947,954,962,983,995,1012,1020,1025,1041,1050,1059,1066,1077,1115,1131,1143,1146,1150],"ymouse":[532,532,532,532,532,532,532,532,532,532,532,532,532,532,532,532,532,532,532,532,532,532,532,532,532,532,532,532,530,527,509,491,477,465,447,437,426,410,395,362,345,326,315,308,285,272,260,246,228,162,134,113,102,92],"timestamp_mouse":[9,41,49,69,89,109,129,149,170,189,209,229,250,269,289,309,329,349,370,389,409,429,449,469,489,509,529,549,569,589,609,629,649,669,690,709,729,749,770,789,809,829,849,870,889,909,929,950,969,988,1009,1029,1049,1070],"xSR":741.5,"ySR":494.65000000000003,"xT1":424.9,"yT1":0,"xT2":1058.1,"yT2":0,"toosoon":0,"cond_shown":"randomdotsizeEA","ratio_trial":250,"smaller_num":"3","larger_num":"12","correct_side":2,"subjID":"santiagomartin18","gender":"0","age":"12","school":"6"},{"start_time":1551801363324,"click_time":1551801364946,"finger_time":1551801364425,"fix_duration":897.23123980756,"trial":46,"RT":1101,"MT":521,"sideResp":2,"stimulus":"img/500/randomdotsizeEA/R/2_Ratio_500_L_3_R_6.png","xmouse":[780,780,780,780,780,780,780,780,780,780,780,780,780,780,780,780,780,780,780,780,780,780,780,780,780,780,780,780,780,780,780,780,780,780,780,780,780,780,780,780,780,780,780,780,780,780,780,780,780,780,780,780,780,781,784,802,812,835,868,909,1014,1066,1107,1131,1147,1168,1178,1194,1201,1204,1204,1204,1204,1204,1204,1196,1189,1180,1176,1171,1160,1155],"ymouse":[537,537,538,539,539,539,539,539,539,539,539,539,539,539,539,539,539,539,539,539,539,539,539,539,539,539,539,539,539,539,539,539,539,539,539,539,539,539,539,539,539,539,539,539,539,539,539,539,539,539,539,539,539,538,531,491,469,427,378,323,208,164,133,115,103,80,66,42,28,20,16,16,16,16,16,19,22,25,26,27,33,35],"timestamp_mouse":[9,30,41,60,81,101,121,141,162,181,201,221,241,260,281,301,320,341,361,382,401,421,442,460,481,501,521,541,561,581,602,621,641,661,681,702,722,740,762,782,801,821,841,861,882,901,921,942,961,981,1002,1021,1041,1061,1081,1101,1120,1141,1161,1181,1201,1221,1241,1261,1281,1301,1321,1341,1361,1382,1402,1421,1441,1460,1481,1501,1522,1541,1562,1582,1600,1622],"xSR":741.5,"ySR":494.65000000000003,"xT1":424.9,"yT1":0,"xT2":1058.1,"yT2":0,"toosoon":0,"cond_shown":"randomdotsizeEA","ratio_trial":500,"smaller_num":"3","larger_num":"6","correct_side":2,"subjID":"santiagomartin18","gender":"0","age":"12","school":"6"},{"start_time":1551801366376,"click_time":1551801367765,"finger_time":1551801367026,"fix_duration":250,"trial":47,"RT":650,"MT":739,"sideResp":1,"stimulus":"img/900/randomdotsizeEA/R/11_Ratio_900_L_18_R_20.png","xmouse":[803,803,803,803,803,803,803,803,803,803,803,803,803,803,803,803,803,803,803,803,803,803,803,803,803,803,803,804,804,804,804,804,807,818,863,895,921,941,945,948,949,950,950,950,950,946,926,858,814,767,732,711,702,701,699,697,688,656,635,615,595,580,560,553,546,544,542,536,526,507],"ymouse":[510,510,510,510,510,510,510,510,510,510,510,510,510,510,510,510,510,510,510,510,510,510,510,510,510,508,503,500,500,500,500,500,488,458,355,287,244,196,181,170,166,163,163,163,163,163,167,201,231,265,287,299,302,302,302,302,297,246,209,173,134,99,47,33,24,23,23,23,23,32],"timestamp_mouse":[9,34,50,69,89,109,128,149,169,189,209,230,249,269,289,309,329,349,369,390,409,429,449,469,489,509,529,549,569,589,609,629,650,670,688,709,729,749,769,789,810,829,849,869,888,909,930,950,969,989,1010,1029,1050,1069,1089,1109,1130,1150,1169,1189,1209,1229,1250,1270,1289,1309,1329,1349,1369,1389],"xSR":741.5,"ySR":494.65000000000003,"xT1":424.9,"yT1":0,"xT2":1058.1,"yT2":0,"toosoon":0,"cond_shown":"randomdotsizeEA","ratio_trial":900,"smaller_num":"18","larger_num":"20","correct_side":2,"subjID":"santiagomartin18","gender":"0","age":"12","school":"6"},{"start_time":1551801369157,"click_time":1551801369805,"finger_time":1551801369605,"fix_duration":250,"trial":48,"RT":448,"MT":200,"sideResp":2,"stimulus":"img/750/randomdotsizeEA/R/11_Ratio_750_L_12_R_16.png","xmouse":[750,750,750,750,750,750,750,750,750,750,750,750,750,750,750,750,750,750,750,750,754,776,830,929,970,1008,1020,1028,1055,1071,1089,1109,1130],"ymouse":[507,507,507,507,507,507,507,507,507,507,507,507,507,507,507,507,507,507,507,507,507,498,474,433,414,388,375,356,274,220,175,131,85],"timestamp_mouse":[7,30,48,69,88,108,128,148,168,188,208,228,248,268,288,308,328,348,368,389,409,428,448,467,488,508,528,548,569,589,608,628,648],"xSR":741.5,"ySR":494.65000000000003,"xT1":424.9,"yT1":0,"xT2":1058.1,"yT2":0,"toosoon":0,"cond_shown":"randomdotsizeEA","ratio_trial":750,"smaller_num":"12","larger_num":"16","correct_side":2,"subjID":"santiagomartin18","gender":"0","age":"12","school":"6"},{"start_time":1551801371243,"click_time":1551801371945,"finger_time":1551801371745,"fix_duration":496.29654841825857,"trial":49,"RT":502,"MT":200,"sideResp":1,"stimulus":"img/250/equaldotsize/L/2_Ratio_250_L_16_R_4.png","xmouse":[814,814,814,814,814,814,814,814,814,814,814,814,814,814,814,814,816,818,820,820,820,820,820,820,811,799,781,752,718,695,659,623,594,568,532,513],"ymouse":[545,545,545,545,545,545,545,545,545,545,545,545,545,545,545,544,540,538,537,534,533,531,530,529,514,494,463,417,370,337,279,228,187,155,101,69],"timestamp_mouse":[7,26,42,62,82,102,122,142,162,182,202,223,242,262,282,302,322,342,363,382,401,422,442,462,482,502,522,543,562,582,602,622,643,663,682,702],"xSR":741.5,"ySR":494.65000000000003,"xT1":424.9,"yT1":0,"xT2":1058.1,"yT2":0,"toosoon":0,"cond_shown":"equaldotsize","ratio_trial":250,"smaller_num":"4","larger_num":"16","correct_side":1,"subjID":"santiagomartin18","gender":"0","age":"12","school":"6"},{"start_time":1551801373052,"click_time":1551801374045,"finger_time":1551801373625,"fix_duration":285.8976031405959,"trial":50,"RT":573,"MT":420,"sideResp":2,"stimulus":"img/750/equaldotanddens/R/7_Ratio_750_L_3_R_4.png","xmouse":[779,779,779,779,779,779,779,779,779,779,779,779,779,779,779,779,779,779,779,779,779,779,780,785,789,799,810,820,842,858,880,895,909,936,944,950,954,959,978,995,1010,1033,1051,1062,1062,1063,1064,1065,1066,1071],"ymouse":[552,552,552,552,552,552,552,552,552,552,552,552,552,552,552,552,552,552,552,552,552,552,552,550,545,536,527,517,494,478,450,430,410,369,344,323,310,300,256,219,195,164,136,115,113,112,110,108,104,98],"timestamp_mouse":[13,36,53,73,93,113,133,153,173,193,213,233,253,273,293,313,333,353,373,393,413,433,453,473,493,513,533,554,573,594,613,633,653,674,694,713,732,753,773,793,813,833,854,873,894,913,932,953,973,993],"xSR":741.5,"ySR":494.65000000000003,"xT1":424.9,"yT1":0,"xT2":1058.1,"yT2":0,"toosoon":0,"cond_shown":"equaldotanddens","ratio_trial":750,"smaller_num":"3","larger_num":"4","correct_side":2,"subjID":"santiagomartin18","gender":"0","age":"12","school":"6"},{"start_time":1551801375769,"click_time":1551801376505,"finger_time":1551801376205,"fix_duration":942.425030762733,"trial":51,"RT":436,"MT":300,"sideResp":2,"stimulus":"img/250/equaldotanddens/R/9_Ratio_250_L_3_R_12.png","xmouse":[831,831,831,831,831,831,831,831,831,831,831,831,831,831,831,831,831,831,831,834,836,844,876,905,917,930,942,982,1001,1016,1029,1039,1050,1054,1056,1057,1059],"ymouse":[554,554,554,554,554,554,554,554,554,554,554,554,554,554,554,554,554,554,545,526,506,478,403,350,327,298,268,199,175,158,140,123,105,100,96,95,93],"timestamp_mouse":[17,35,57,76,96,116,136,156,176,197,216,236,255,276,296,316,336,356,376,396,416,436,456,475,496,516,536,557,576,596,616,636,656,677,696,716,736],"xSR":741.5,"ySR":494.65000000000003,"xT1":424.9,"yT1":0,"xT2":1058.1,"yT2":0,"toosoon":0,"cond_shown":"equaldotanddens","ratio_trial":250,"smaller_num":"3","larger_num":"12","correct_side":2,"subjID":"santiagomartin18","gender":"0","age":"12","school":"6"},{"start_time":1551801378103,"click_time":1551801378705,"finger_time":1551801378485,"fix_duration":636.3168930550477,"trial":52,"RT":382,"MT":220,"sideResp":2,"stimulus":"img/500/equaldotanddens/R/14_Ratio_500_L_5_R_10.png","xmouse":[795,795,795,795,795,795,795,795,795,795,795,795,795,795,796,798,803,812,833,854,873,907,925,939,950,962,990,1006,1040,1065,1077],"ymouse":[552,552,552,552,552,552,552,552,552,552,552,552,552,552,552,550,545,537,506,478,451,398,370,349,328,308,260,231,151,106,85],"timestamp_mouse":[7,33,42,62,82,102,122,142,162,182,202,222,242,262,282,303,322,343,362,382,403,422,442,462,483,502,522,543,562,582,602],"xSR":741.5,"ySR":494.65000000000003,"xT1":424.9,"yT1":0,"xT2":1058.1,"yT2":0,"toosoon":0,"cond_shown":"equaldotanddens","ratio_trial":500,"smaller_num":"5","larger_num":"10","correct_side":2,"subjID":"santiagomartin18","gender":"0","age":"12","school":"6"},{"start_time":1551801380089,"click_time":1551801380785,"finger_time":1551801380565,"fix_duration":562.128706577618,"trial":53,"RT":476,"MT":220,"sideResp":2,"stimulus":"img/900/equaldotanddens/L/2_Ratio_900_L_20_R_18.png","xmouse":[796,796,796,796,796,796,796,796,796,796,796,796,796,796,796,796,796,796,796,796,800,811,823,850,891,942,1038,1067,1083,1091,1098,1108,1110,1112,1116],"ymouse":[539,539,539,539,539,539,539,539,539,539,539,539,539,539,539,539,539,539,539,538,536,525,509,471,419,355,247,208,177,159,142,120,111,106,98],"timestamp_mouse":[16,36,56,76,96,116,136,156,176,196,216,236,256,276,296,316,336,356,376,397,416,436,456,476,496,516,536,556,576,596,616,636,655,676,696],"xSR":741.5,"ySR":494.65000000000003,"xT1":424.9,"yT1":0,"xT2":1058.1,"yT2":0,"toosoon":0,"cond_shown":"equaldotanddens","ratio_trial":900,"smaller_num":"18","larger_num":"20","correct_side":1,"subjID":"santiagomartin18","gender":"0","age":"12","school":"6"},{"start_time":1551801386176,"click_time":1551801386945,"finger_time":1551801386545,"fix_duration":1069.7237084145033,"trial":54,"RT":369,"MT":400,"sideResp":1,"stimulus":"img/900/randomdotsizeEA/R/13_Ratio_900_L_18_R_20.png","xmouse":[802,802,802,802,802,802,802,802,802,802,802,802,802,802,802,802,801,801,797,793,789,785,780,772,764,754,742,715,699,683,666,651,633,592,570,555,544,529,524],"ymouse":[540,540,540,540,540,540,540,540,540,540,540,540,540,540,540,537,527,498,467,440,423,412,402,389,378,365,350,318,298,280,260,241,214,143,105,82,62,36,29],"timestamp_mouse":[10,28,49,69,89,109,129,149,169,189,209,229,249,269,290,310,330,349,369,389,410,429,449,469,489,510,529,549,568,589,609,629,649,669,689,709,729,749,769],"xSR":741.5,"ySR":494.65000000000003,"xT1":424.9,"yT1":0,"xT2":1058.1,"yT2":0,"toosoon":0,"cond_shown":"randomdotsizeEA","ratio_trial":900,"smaller_num":"18","larger_num":"20","correct_side":2,"subjID":"santiagomartin18","gender":"0","age":"12","school":"6"},{"start_time":1551801388411,"click_time":1551801389426,"finger_time":1551801388726,"fix_duration":403.75856224522533,"trial":55,"RT":315,"MT":700,"sideResp":2,"stimulus":"img/250/equaldotanddens/R/10_Ratio_250_L_4_R_16.png","xmouse":[791,791,791,791,791,791,791,791,791,791,791,795,799,800,804,813,822,838,856,871,898,914,930,938,944,950,951,952,953,955,963,969,979,988,997,1016,1021,1024,1025,1027,1031,1032,1033,1034,1035,1042,1045,1049,1052,1055,1061],"ymouse":[564,564,564,564,564,564,564,564,564,562,556,548,539,530,520,493,472,446,419,397,357,335,300,273,249,220,212,207,203,199,185,177,162,151,140,118,112,108,106,104,100,99,98,97,96,92,90,88,86,83,79],"timestamp_mouse":[25,35,55,74,94,114,134,154,174,194,214,233,254,274,294,315,334,354,375,394,414,434,454,474,494,514,535,554,574,594,614,635,654,674,695,714,734,754,773,794,815,834,854,874,895,914,934,954,974,994,1014],"xSR":741.5,"ySR":494.65000000000003,"xT1":424.9,"yT1":0,"xT2":1058.1,"yT2":0,"toosoon":0,"cond_shown":"equaldotanddens","ratio_trial":250,"smaller_num":"4","larger_num":"16","correct_side":2,"subjID":"santiagomartin18","gender":"0","age":"12","school":"6"},{"start_time":1551801391741,"click_time":1551801392846,"finger_time":1551801392125,"fix_duration":1475.1536318067447,"trial":56,"RT":384,"MT":721,"sideResp":1,"stimulus":"img/500/equaldotanddens/L/11_Ratio_500_L_12_R_6.png","xmouse":[773,773,773,773,773,772,772,770,770,770,770,770,770,771,772,773,775,779,792,843,858,869,879,890,914,923,927,927,927,927,927,927,925,905,816,691,600,535,479,388,357,332,314,304,300,300,300,302,304,315,325,340,359,377,413,428],"ymouse":[579,579,579,579,579,578,577,574,574,573,571,571,571,570,570,568,563,553,531,452,433,421,410,396,366,354,345,343,343,343,343,343,341,334,296,241,208,177,144,79,56,38,27,22,21,21,21,21,21,22,23,25,28,32,50,60],"timestamp_mouse":[6,29,44,64,84,104,125,144,164,185,204,224,244,264,284,304,324,344,364,384,404,424,444,464,484,505,524,544,566,584,604,624,644,664,684,704,723,745,764,785,804,824,845,864,884,904,924,945,964,985,1004,1025,1044,1065,1084,1105],"xSR":741.5,"ySR":494.65000000000003,"xT1":424.9,"yT1":0,"xT2":1058.1,"yT2":0,"toosoon":0,"cond_shown":"equaldotanddens","ratio_trial":500,"smaller_num":"6","larger_num":"12","correct_side":1,"subjID":"santiagomartin18","gender":"0","age":"12","school":"6"},{"start_time":1551801394337,"click_time":1551801395465,"finger_time":1551801395045,"fix_duration":250,"trial":57,"RT":708,"MT":420,"sideResp":1,"stimulus":"img/900/randomdotsizeEA/L/1_Ratio_900_L_10_R_9.png","xmouse":[783,783,783,783,783,783,783,783,783,783,783,783,783,783,783,783,783,783,783,783,783,783,783,783,783,783,783,783,783,783,783,782,779,776,769,762,749,733,707,657,636,620,605,590,567,553,537,533,532,531,531,531,531,531,527,526,522],"ymouse":[527,527,527,527,527,527,527,527,527,527,527,527,527,527,527,527,527,527,527,527,527,527,527,527,527,527,527,527,527,527,527,524,519,515,501,483,440,383,333,273,258,247,236,223,202,187,172,168,162,142,126,116,106,98,86,79,72],"timestamp_mouse":[8,32,48,68,88,108,129,148,169,189,208,228,248,268,289,309,328,348,369,387,408,428,448,468,488,508,528,548,568,588,608,628,649,668,688,708,728,748,768,788,808,828,849,868,888,909,928,948,968,988,1008,1028,1048,1068,1088,1108,1128],"xSR":741.5,"ySR":494.65000000000003,"xT1":424.9,"yT1":0,"xT2":1058.1,"yT2":0,"toosoon":0,"cond_shown":"randomdotsizeEA","ratio_trial":900,"smaller_num":"9","larger_num":"10","correct_side":1,"subjID":"santiagomartin18","gender":"0","age":"12","school":"6"},{"start_time":1551801398677,"click_time":1551801399705,"finger_time":1551801399305,"fix_duration":250,"trial":58,"RT":628,"MT":400,"sideResp":1,"stimulus":"img/250/equaldotanddens/L/3_Ratio_250_L_8_R_2.png","xmouse":[760,760,760,760,760,760,760,760,760,760,760,760,760,760,760,760,760,760,760,760,760,760,760,760,760,760,760,760,760,761,748,718,656,636,624,615,610,605,605,604,600,594,589,587,586,586,584,572,557,532,512,490],"ymouse":[541,541,541,541,541,541,541,541,541,541,541,541,541,541,541,541,541,541,541,541,541,541,541,541,541,541,541,541,541,529,499,462,383,353,329,305,283,224,214,183,166,158,153,151,150,148,145,137,128,116,108,99],"timestamp_mouse":[8,28,48,68,88,108,128,148,168,188,208,229,248,268,288,308,328,348,368,387,408,429,448,468,489,508,528,548,568,588,608,628,648,668,688,708,728,749,769,788,808,828,848,868,888,908,928,948,969,988,1009,1028],"xSR":741.5,"ySR":494.65000000000003,"xT1":424.9,"yT1":0,"xT2":1058.1,"yT2":0,"toosoon":0,"cond_shown":"equaldotanddens","ratio_trial":250,"smaller_num":"2","larger_num":"8","correct_side":1,"subjID":"santiagomartin18","gender":"0","age":"12","school":"6"},{"start_time":1551801401522,"click_time":1551801402385,"finger_time":1551801402085,"fix_duration":1175.1527537457496,"trial":59,"RT":563,"MT":300,"sideResp":2,"stimulus":"img/500/equaldotanddens/R/14_Ratio_500_L_5_R_10.png","xmouse":[770,770,770,770,770,770,770,770,770,770,770,770,770,770,770,770,770,770,770,770,770,770,770,770,770,770,771,775,792,810,882,915,939,961,983,1029,1041,1081,1104,1120,1135,1137,1138,1138],"ymouse":[503,503,503,503,503,503,503,503,503,503,503,503,503,503,503,503,503,503,503,503,503,503,503,503,503,503,503,503,487,460,356,314,295,283,272,241,229,182,160,145,121,115,108,99],"timestamp_mouse":[7,31,43,63,83,104,124,143,163,183,203,224,243,263,283,303,324,343,363,384,403,423,443,463,483,503,523,544,563,583,603,623,643,663,683,704,724,743,763,783,804,823,843,863],"xSR":741.5,"ySR":494.65000000000003,"xT1":424.9,"yT1":0,"xT2":1058.1,"yT2":0,"toosoon":0,"cond_shown":"equaldotanddens","ratio_trial":500,"smaller_num":"5","larger_num":"10","correct_side":2,"subjID":"santiagomartin18","gender":"0","age":"12","school":"6"},{"start_time":1551801403457,"click_time":1551801404506,"finger_time":1551801403945,"fix_duration":250,"trial":60,"RT":488,"MT":561,"sideResp":2,"stimulus":"img/500/equaldotanddens/R/14_Ratio_500_L_5_R_10.png","xmouse":[792,792,792,792,792,792,792,792,792,792,792,792,792,792,792,792,792,792,792,792,792,792,792,811,831,853,877,897,930,937,958,968,978,991,999,1010,1019,1027,1041,1049,1049,1049,1049,1049,1049,1049,1049,1049,1049,1049,1049,1049,1077],"ymouse":[535,535,535,535,535,535,535,535,535,535,535,535,535,535,535,535,535,535,535,535,535,535,534,509,479,442,400,363,280,263,206,179,157,132,117,99,83,67,32,10,10,10,10,10,10,10,10,10,10,10,10,10,7],"timestamp_mouse":[8,28,48,68,88,108,128,148,169,188,208,227,248,268,288,308,328,348,368,387,408,428,448,468,488,508,529,548,569,589,608,628,648,669,688,708,728,748,768,788,808,829,848,868,888,908,929,948,968,988,1009,1029,1049],"xSR":741.5,"ySR":494.65000000000003,"xT1":424.9,"yT1":0,"xT2":1058.1,"yT2":0,"toosoon":0,"cond_shown":"equaldotanddens","ratio_trial":500,"smaller_num":"5","larger_num":"10","correct_side":2,"subjID":"santiagomartin18","gender":"0","age":"12","school":"6"},{"start_time":1551801405668,"click_time":1551801406545,"finger_time":1551801406165,"fix_duration":260.714113278722,"trial":61,"RT":497,"MT":380,"sideResp":1,"stimulus":"img/250/equaldotanddens/L/5_Ratio_250_L_24_R_6.png","xmouse":[791,791,791,791,791,791,791,791,791,791,791,791,791,791,791,791,791,791,791,791,791,788,783,780,775,768,756,714,681,608,572,539,507,498,495,495,495,500,502,503,504,504,504,504],"ymouse":[522,522,522,522,522,522,522,522,522,522,522,522,522,522,522,522,522,522,522,522,521,513,500,496,489,480,470,444,423,374,348,318,269,244,223,209,193,168,147,134,127,121,113,90],"timestamp_mouse":[17,37,57,78,96,117,138,157,177,198,217,237,257,277,297,317,337,357,377,397,417,437,457,477,497,517,536,557,577,597,617,637,657,677,697,717,737,758,777,797,817,838,857,877],"xSR":741.5,"ySR":494.65000000000003,"xT1":424.9,"yT1":0,"xT2":1058.1,"yT2":0,"toosoon":0,"cond_shown":"equaldotanddens","ratio_trial":250,"smaller_num":"6","larger_num":"24","correct_side":1,"subjID":"santiagomartin18","gender":"0","age":"12","school":"6"},{"start_time":1551801407929,"click_time":1551801408965,"finger_time":1551801408525,"fix_duration":563.05188124216,"trial":62,"RT":596,"MT":440,"sideResp":1,"stimulus":"img/750/equaldotanddens/L/6_Ratio_750_L_24_R_18.png","xmouse":[764,764,764,764,764,764,764,764,764,764,764,764,764,764,764,768,770,771,772,773,773,773,773,772,766,761,757,754,751,737,726,713,699,687,665,654,638,626,616,606,603,600,596,592,586,582,571,562,552,536,528,523],"ymouse":[534,534,534,534,534,534,534,534,534,534,534,534,534,534,534,533,532,531,530,529,528,526,523,522,517,514,511,509,506,494,484,471,453,437,393,364,329,306,288,258,248,235,221,209,186,177,156,143,129,110,100,92],"timestamp_mouse":[25,36,56,76,96,116,136,156,176,196,216,236,256,276,296,316,336,356,376,396,415,435,456,476,496,516,536,557,576,596,616,636,656,676,696,716,736,756,776,796,816,836,857,876,896,916,936,956,976,996,1016,1036],"xSR":741.5,"ySR":494.65000000000003,"xT1":424.9,"yT1":0,"xT2":1058.1,"yT2":0,"toosoon":0,"cond_shown":"equaldotanddens","ratio_trial":750,"smaller_num":"18","larger_num":"24","correct_side":1,"subjID":"santiagomartin18","gender":"0","age":"12","school":"6"},{"start_time":1551801410656,"click_time":1551801411425,"finger_time":1551801411205,"fix_duration":909.4213559249782,"trial":63,"RT":549,"MT":220,"sideResp":2,"stimulus":"img/750/randomdotsizeEA/R/2_Ratio_750_L_6_R_8.png","xmouse":[814,814,814,814,814,814,814,814,814,814,814,814,814,814,814,814,814,814,814,814,814,814,815,821,825,829,833,835,849,867,901,922,941,965,1014,1027,1037,1044,1059],"ymouse":[550,550,550,550,550,550,550,550,550,550,550,550,550,550,550,550,550,550,550,550,550,550,548,534,523,514,506,494,461,424,356,317,282,243,158,135,120,106,79],"timestamp_mouse":[9,32,49,69,89,109,129,149,169,189,209,229,249,269,289,309,329,349,370,389,409,429,449,469,489,509,530,549,569,589,609,629,649,669,689,709,729,749,769],"xSR":741.5,"ySR":494.65000000000003,"xT1":424.9,"yT1":0,"xT2":1058.1,"yT2":0,"toosoon":0,"cond_shown":"randomdotsizeEA","ratio_trial":750,"smaller_num":"6","larger_num":"8","correct_side":2,"subjID":"santiagomartin18","gender":"0","age":"12","school":"6"},{"start_time":1551801413612,"click_time":1551801414706,"finger_time":1551801413885,"fix_duration":1284.4584212457548,"trial":64,"RT":273,"MT":821,"sideResp":2,"stimulus":"img/750/randomdotsizeEA/R/2_Ratio_750_L_6_R_8.png","xmouse":[810,810,810,810,809,806,805,804,802,800,797,794,789,784,780,767,759,754,749,745,743,743,743,743,743,743,743,743,743,744,761,772,789,799,803,813,815,816,816,817,818,818,828,843,872,955,991,1017,1039,1056,1083,1097,1118,1130,1140],"ymouse":[534,534,534,534,534,531,530,528,526,523,518,511,502,494,486,464,451,441,432,426,422,422,422,422,422,422,422,422,422,421,439,453,475,488,499,521,531,537,541,542,544,544,534,509,458,329,286,256,235,220,184,164,132,111,95],"timestamp_mouse":[13,32,53,73,94,113,133,153,173,193,213,233,253,273,294,314,333,353,373,393,413,433,453,473,493,513,533,553,573,593,613,633,653,673,693,713,733,753,773,793,813,833,853,873,893,913,933,953,974,994,1013,1033,1053,1073,1093],"xSR":741.5,"ySR":494.65000000000003,"xT1":424.9,"yT1":0,"xT2":1058.1,"yT2":0,"toosoon":0,"cond_shown":"randomdotsizeEA","ratio_trial":750,"smaller_num":"6","larger_num":"8","correct_side":2,"subjID":"santiagomartin18","gender":"0","age":"12","school":"6"},{"start_time":1551801415795,"click_time":1551801417044,"finger_time":1551801416524,"fix_duration":250,"trial":65,"RT":729,"MT":520,"sideResp":1,"stimulus":"img/750/equaldotanddens/L/8_Ratio_750_L_4_R_3.png","xmouse":[810,810,810,810,810,810,810,810,810,810,810,810,810,810,810,810,810,810,810,810,810,810,810,810,810,810,810,810,810,810,810,810,810,806,798,787,764,750,735,724,713,694,686,683,680,675,674,672,666,661,655,650,640,631,626,615,588,573,559,547,539,525,521],"ymouse":[525,525,525,525,525,525,525,525,525,525,525,525,525,525,525,525,525,525,525,525,525,525,525,525,525,525,525,525,525,525,525,525,525,525,523,514,485,466,445,427,407,367,340,318,292,264,167,128,97,77,62,52,37,32,30,27,23,22,22,22,22,22,23],"timestamp_mouse":[12,29,48,69,89,109,128,148,168,189,209,229,248,269,290,309,329,348,368,388,408,428,448,468,489,509,529,548,568,588,609,628,648,668,690,708,729,749,769,789,809,829,848,869,889,910,929,948,968,988,1008,1029,1050,1068,1088,1108,1129,1149,1168,1188,1209,1229,1249],"xSR":741.5,"ySR":494.65000000000003,"xT1":424.9,"yT1":0,"xT2":1058.1,"yT2":0,"toosoon":0,"cond_shown":"equaldotanddens","ratio_trial":750,"smaller_num":"3","larger_num":"4","correct_side":1,"subjID":"santiagomartin18","gender":"0","age":"12","school":"6"},{"start_time":1551801418074,"click_time":1551801418845,"finger_time":1551801418544,"fix_duration":250,"trial":66,"RT":470,"MT":301,"sideResp":2,"stimulus":"img/250/equaldotanddens/R/10_Ratio_250_L_4_R_16.png","xmouse":[791,791,791,791,791,791,791,791,791,791,791,791,791,791,791,791,791,791,791,791,792,797,804,818,824,830,837,857,881,905,923,938,961,972,983,996,1013,1039,1092],"ymouse":[521,521,521,521,521,521,521,521,521,521,521,521,521,521,521,521,521,521,521,521,519,514,505,479,470,458,446,410,362,322,292,268,237,222,211,197,177,146,84],"timestamp_mouse":[10,29,50,69,90,109,130,149,169,189,210,229,249,269,290,310,330,349,369,390,410,429,450,470,490,509,530,550,569,590,609,629,650,669,689,709,730,749,771],"xSR":741.5,"ySR":494.65000000000003,"xT1":424.9,"yT1":0,"xT2":1058.1,"yT2":0,"toosoon":0,"cond_shown":"equaldotanddens","ratio_trial":250,"smaller_num":"4","larger_num":"16","correct_side":2,"subjID":"santiagomartin18","gender":"0","age":"12","school":"6"},{"start_time":1551801424122,"click_time":1551801425444,"finger_time":1551801424824,"fix_duration":1376.5711631328954,"trial":67,"RT":702,"MT":620,"sideResp":2,"stimulus":"img/500/equaldotanddens/R/12_Ratio_500_L_1_R_2.png","xmouse":[801,801,801,801,801,801,801,801,801,801,801,801,801,801,801,801,801,801,801,801,800,800,800,800,800,800,800,800,800,800,800,800,800,800,803,813,834,859,871,882,902,911,921,932,941,954,961,963,968,976,996,1002,1007,1013,1021,1043,1047,1047,1047,1048,1050,1050,1050,1052,1055,1058,1060],"ymouse":[527,527,527,527,527,527,527,527,527,527,527,527,527,527,527,527,527,527,527,527,527,527,527,527,527,527,527,527,527,527,527,527,527,527,519,487,422,366,339,306,241,216,193,172,152,122,109,105,97,87,64,60,56,52,47,35,34,34,34,34,34,34,35,37,40,46,48],"timestamp_mouse":[6,30,41,61,82,102,122,141,162,181,201,222,242,261,281,301,321,341,361,381,402,422,441,461,481,502,522,541,562,582,601,621,641,663,681,702,722,741,762,781,802,821,841,861,882,902,921,941,961,981,1002,1021,1041,1062,1082,1101,1121,1142,1162,1182,1202,1221,1241,1261,1281,1303,1322],"xSR":741.5,"ySR":494.65000000000003,"xT1":424.9,"yT1":0,"xT2":1058.1,"yT2":0,"toosoon":0,"cond_shown":"equaldotanddens","ratio_trial":500,"smaller_num":"1","larger_num":"2","correct_side":2,"subjID":"santiagomartin18","gender":"0","age":"12","school":"6"},{"start_time":1551801427008,"click_time":1551801428304,"finger_time":1551801428023,"fix_duration":583.5262571919981,"trial":68,"RT":1015,"MT":281,"sideResp":1,"stimulus":"img/500/equaldotsize/L/10_Ratio_500_L_4_R_2.png","xmouse":[800,800,800,800,800,800,800,800,800,800,800,800,800,800,800,800,800,800,800,800,800,800,800,800,800,800,800,800,800,800,801,803,808,809,811,811,811,811,811,811,811,811,811,811,811,811,807,803,792,773,696,635,559,523,501,489,489,488,485,478,471,470,468,468,467],"ymouse":[574,574,574,574,574,574,574,574,574,574,574,574,574,574,574,574,574,574,574,574,574,574,574,574,574,574,574,574,574,574,574,572,567,566,564,564,564,564,564,564,564,564,564,564,564,564,560,552,533,505,420,368,296,246,209,168,156,145,134,124,116,112,106,100,93],"timestamp_mouse":[27,35,55,75,96,115,136,156,175,197,216,236,257,275,295,316,336,355,375,395,416,436,456,475,496,516,536,555,575,595,616,636,656,676,696,716,736,756,776,795,816,836,856,875,895,915,935,955,975,996,1015,1035,1055,1076,1095,1116,1135,1155,1176,1195,1216,1235,1255,1275,1296],"xSR":741.5,"ySR":494.65000000000003,"xT1":424.9,"yT1":0,"xT2":1058.1,"yT2":0,"toosoon":0,"cond_shown":"equaldotsize","ratio_trial":500,"smaller_num":"2","larger_num":"4","correct_side":1,"subjID":"santiagomartin18","gender":"0","age":"12","school":"6"},{"start_time":1551801429885,"click_time":1551801431804,"finger_time":1551801431263,"fix_duration":720.8885455812477,"trial":69,"RT":1378,"MT":541,"sideResp":2,"stimulus":"img/900/randomdotsizeEA/L/2_Ratio_900_L_20_R_18.png","xmouse":[792,792,792,792,792,792,792,792,792,792,792,792,792,792,792,792,792,792,792,792,792,792,792,792,792,792,792,792,792,792,792,792,792,792,792,792,792,792,792,792,792,792,792,792,792,792,792,792,792,792,792,792,792,792,792,792,792,792,792,792,792,792,792,792,792,792,790,779,761,753,749,747,747,747,747,747,751,761,771,784,790,809,824,853,893,938,1010,1040,1053,1060,1070,1101,1119,1133,1144,1153],"ymouse":[535,535,535,535,535,535,535,535,535,535,535,535,535,535,535,535,535,535,535,535,535,535,535,535,535,535,535,535,535,535,535,535,535,535,535,535,535,535,535,535,535,535,535,535,535,535,535,535,535,535,535,535,535,535,535,535,535,535,535,535,535,535,535,535,535,535,522,504,476,462,453,451,451,450,450,450,447,445,443,438,434,417,402,379,347,311,244,208,191,181,169,144,127,116,104,96],"timestamp_mouse":[20,40,58,78,98,119,139,159,178,198,218,239,259,279,299,320,338,358,378,399,419,439,459,478,498,518,539,559,579,598,618,638,658,679,699,719,739,758,778,798,818,839,859,878,898,918,938,958,979,999,1018,1038,1058,1080,1099,1119,1138,1158,1178,1199,1219,1239,1258,1278,1298,1319,1338,1358,1378,1398,1418,1439,1459,1479,1499,1518,1538,1559,1578,1598,1618,1639,1658,1678,1698,1720,1739,1758,1778,1798,1818,1839,1858,1878,1898,1919],"xSR":741.5,"ySR":494.65000000000003,"xT1":424.9,"yT1":0,"xT2":1058.1,"yT2":0,"toosoon":0,"cond_shown":"randomdotsizeEA","ratio_trial":900,"smaller_num":"18","larger_num":"20","correct_side":1,"subjID":"santiagomartin18","gender":"0","age":"12","school":"6"},{"start_time":1551801435650,"click_time":1551801437163,"finger_time":1551801436503,"fix_duration":1225.1606203098636,"trial":70,"RT":853,"MT":660,"sideResp":1,"stimulus":"img/750/randomdotsizeEA/L/6_Ratio_750_L_24_R_18.png","xmouse":[801,801,801,801,801,801,801,801,801,801,801,801,801,801,801,801,801,801,801,801,801,801,801,801,801,801,801,801,801,801,801,801,801,801,801,801,801,801,801,797,785,775,764,738,724,709,692,679,656,646,640,636,633,633,631,628,627,625,621,613,579,526,468,422,421,421,421,421,421,421,421,421,421,426,433,438],"ymouse":[546,546,546,546,546,546,546,546,546,546,546,546,546,546,546,546,546,546,546,546,546,546,546,546,546,546,546,546,546,546,546,546,546,546,546,546,546,546,546,535,516,505,489,459,443,423,396,359,285,240,207,184,161,121,106,96,92,88,87,87,98,119,137,144,144,144,142,140,133,131,130,130,128,116,104,94],"timestamp_mouse":[14,36,54,73,94,114,133,153,174,194,213,233,253,273,293,315,334,353,373,393,415,433,453,473,493,513,534,553,574,595,614,634,654,674,693,714,734,753,773,794,813,834,853,874,893,913,934,954,974,993,1014,1034,1054,1074,1093,1113,1133,1153,1174,1194,1213,1233,1253,1274,1294,1314,1334,1354,1373,1393,1414,1433,1453,1474,1493,1513],"xSR":741.5,"ySR":494.65000000000003,"xT1":424.9,"yT1":0,"xT2":1058.1,"yT2":0,"toosoon":0,"cond_shown":"randomdotsizeEA","ratio_trial":750,"smaller_num":"18","larger_num":"24","correct_side":1,"subjID":"santiagomartin18","gender":"0","age":"12","school":"6"},{"start_time":1551801438570,"click_time":1551801440384,"finger_time":1551801439824,"fix_duration":745.4191147030849,"trial":71,"RT":1254,"MT":560,"sideResp":1,"stimulus":"img/750/equaldotanddens/L/8_Ratio_750_L_4_R_3.png","xmouse":[755,755,755,755,755,755,755,755,755,755,755,755,755,755,755,755,755,755,755,755,755,755,755,755,755,755,755,755,755,755,755,755,755,755,755,755,755,755,755,755,755,755,755,755,755,755,755,755,755,755,755,755,755,755,755,755,755,755,755,755,755,752,720,711,682,665,654,641,634,629,618,599,554,542,541,541,541,541,541,540,537,535,534,532,531,527,527,527,527,526,524],"ymouse":[533,533,533,533,533,533,533,533,533,533,533,533,533,533,533,533,533,533,533,533,533,533,533,533,533,533,533,533,533,533,533,533,533,533,533,533,533,533,533,533,533,533,533,533,533,533,533,533,533,533,533,533,533,533,533,533,533,533,533,533,533,527,503,496,472,452,432,402,378,334,261,188,123,116,115,115,115,115,115,115,115,115,114,113,111,107,105,102,97,90,81],"timestamp_mouse":[17,33,54,74,93,113,133,153,174,194,213,233,253,273,294,314,333,353,373,394,414,434,453,473,493,515,535,553,574,593,613,634,654,674,695,714,734,754,773,794,814,833,854,873,893,915,934,954,973,993,1013,1034,1054,1075,1094,1113,1135,1154,1173,1193,1213,1233,1254,1274,1293,1313,1334,1355,1373,1393,1415,1434,1454,1474,1493,1515,1535,1554,1573,1594,1615,1635,1653,1673,1693,1713,1733,1754,1773,1794,1814],"xSR":741.5,"ySR":494.65000000000003,"xT1":424.9,"yT1":0,"xT2":1058.1,"yT2":0,"toosoon":0,"cond_shown":"equaldotanddens","ratio_trial":750,"smaller_num":"3","larger_num":"4","correct_side":1,"subjID":"santiagomartin18","gender":"0","age":"12","school":"6"},{"start_time":1551801442029,"click_time":1551801443044,"finger_time":1551801442743,"fix_duration":924.408889319899,"trial":72,"RT":714,"MT":301,"sideResp":2,"stimulus":"img/750/equaldotanddens/R/5_Ratio_750_L_15_R_20.png","xmouse":[828,828,829,829,829,829,829,829,829,829,829,829,829,829,829,829,829,829,829,829,829,829,829,830,832,832,833,833,833,833,833,833,833,834,837,843,850,858,868,888,902,914,930,949,990,1002,1012,1023,1033,1054,1069],"ymouse":[555,555,555,555,555,555,555,555,555,555,555,555,555,555,555,555,555,555,555,555,555,555,555,555,554,554,553,553,553,553,553,553,553,553,550,544,536,521,499,453,406,360,312,264,165,136,115,95,78,40,22],"timestamp_mouse":[28,35,54,75,95,115,134,155,175,195,214,235,254,275,295,314,334,355,375,394,414,434,454,474,494,514,535,556,574,594,614,635,654,674,694,714,735,754,775,795,814,834,854,874,895,914,934,954,975,994,1015],"xSR":741.5,"ySR":494.65000000000003,"xT1":424.9,"yT1":0,"xT2":1058.1,"yT2":0,"toosoon":0,"cond_shown":"equaldotanddens","ratio_trial":750,"smaller_num":"15","larger_num":"20","correct_side":2,"subjID":"santiagomartin18","gender":"0","age":"12","school":"6"},{"start_time":1551801445105,"click_time":1551801446604,"finger_time":1551801445963,"fix_