[{"start_time":1551800559210,"click_time":1551800562016,"finger_time":1551800561736,"fix_duration":250,"trial":0,"RT":2526,"MT":280,"sideResp":1,"stimulus":[],"xmouse":[811,811,811,811,811,811,811,811,811,811,811,811,810,810,810,810,810,810,810,810,810,810,810,810,810,810,809,809,809,809,809,809,809,809,809,809,809,809,809,809,809,809,809,809,809,809,809,809,809,809,809,809,809,809,809,809,809,809,809,809,809,809,809,809,809,809,809,809,809,809,809,809,809,809,809,809,809,809,809,809,809,809,809,809,809,809,809,809,809,809,809,809,809,809,809,809,809,809,809,809,809,809,809,809,809,809,809,809,809,809,809,809,809,809,809,809,809,809,809,809,809,809,809,808,808,806,804,804,804,803,801,799,789,774,751,642,591,539,495,465,448],"ymouse":[586,586,586,586,586,586,586,586,586,586,586,586,586,586,586,586,586,586,586,586,586,586,586,586,586,586,585,585,585,585,585,585,585,585,585,585,585,585,585,585,585,585,584,583,582,579,579,578,578,578,578,577,577,577,576,576,576,576,576,576,576,576,576,576,576,576,576,576,576,575,574,574,574,574,573,573,573,572,572,572,572,572,572,572,572,572,572,572,572,572,572,572,572,571,571,571,571,571,571,571,571,571,571,571,571,571,571,571,571,571,571,571,571,571,571,571,571,571,571,571,571,571,571,567,552,497,480,472,468,464,461,459,450,435,411,318,274,217,163,119,66],"timestamp_mouse":[6,36,47,66,86,106,126,146,166,186,206,226,246,266,286,306,326,346,366,386,406,426,446,466,486,506,526,546,566,587,606,626,646,666,686,706,725,747,766,786,806,826,846,866,886,906,926,947,966,986,1007,1026,1046,1067,1086,1106,1126,1147,1166,1187,1206,1226,1246,1266,1286,1306,1326,1346,1367,1386,1406,1426,1446,1467,1486,1506,1527,1546,1566,1586,1606,1626,1646,1667,1686,1706,1727,1746,1766,1786,1806,1826,1846,1866,1886,1906,1926,1947,1966,1986,2006,2026,2046,2066,2086,2106,2126,2146,2166,2187,2206,2227,2246,2266,2287,2306,2326,2346,2366,2386,2407,2426,2446,2466,2487,2506,2526,2547,2566,2586,2606,2627,2647,2666,2686,2706,2727,2746,2766,2786,2806],"xSR":741.5,"ySR":526.5,"xT1":424.9,"yT1":0,"xT2":1058.1,"yT2":0,"toosoon":0,"cond_shown":"Congruent","ratio_trial":100,"L_num":11,"L_den":22,"R_num":6,"R_den":15,"correct_side":1,"subjID":"SANTIAGOMARTIN18","gender":"0","age":"12","school":"6","test":{"fix_dur":[250,1500],"timestim":1000,"targets_dim":[100,100],"targets_relative_coord":[0.3,0.7],"size_stim":[880,420],"start_dim":[100,100],"size_start":[300,300],"size_fix":60,"samplingrate":20,"img_types":["Congruent","Incongruent"],"ratios":[100,200,300],"rep_conds":19,"nTrials":120,"trials_to_rest":500,"Trials_order":[30,109,20,58,103,86,84,10,5,87,19,79,8,74,59,33,49,11,21,1,46,56,89,75,13,118,91,12,107,96,106,29,48,90,82,119,54,57,67,50,111,68,41,77,40,38,44,81,42,115,62,69,37,32,110,88,114,3,36,92,55,43,117,94,2,80,76,23,105,39,52,101,78,6,25,97,9,34,51,66,72,7,73,60,53,98,18,26,28,95,71,85,47,63,70,83,116,93,16,15,14,113,0,17,108,61,100,4,24,65,27,112,45,104,99,22,35,64,31,102],"cond_shown":["Congruent","Incongruent","Congruent","Congruent","Incongruent","Congruent","Congruent","Congruent","Incongruent","Incongruent","Incongruent","Incongruent","Congruent","Congruent","Incongruent","Incongruent","Incongruent","Incongruent","Incongruent","Incongruent","Congruent","Congruent","Incongruent","Incongruent","Incongruent","Congruent","Incongruent","Congruent","Incongruent","Congruent","Congruent","Incongruent","Congruent","Congruent","Congruent","Incongruent","Congruent","Incongruent","Incongruent","Congruent","Incongruent","Congruent","Incongruent","Incongruent","Congruent","Congruent","Congruent","Incongruent","Congruent","Incongruent","Congruent","Incongruent","Incongruent","Congruent","Congruent","Congruent","Congruent","Incongruent","Congruent","Congruent","Incongruent","Incongruent","Incongruent","Congruent","Congruent","Congruent","Congruent","Incongruent","Incongruent","Incongruent","Congruent","Incongruent","Congruent","Congruent","Incongruent","Incongruent","Incongruent","Congruent","Incongruent","Congruent","Congruent","Incongruent","Incongruent","Congruent","Incongruent","Congruent","Congruent","Congruent","Congruent","Incongruent","Incongruent","Incongruent","Incongruent","Incongruent","Congruent","Incongruent","Congruent","Incongruent","Congruent","Incongruent","Congruent","Incongruent","Congruent","Incongruent","Congruent","Incongruent","Congruent","Congruent","Congruent","Incongruent","Incongruent","Congruent","Incongruent","Congruent","Incongruent","Congruent","Incongruent","Congruent","Incongruent","Congruent"],"ratio_trial":[100,100,200,300,100,200,100,300,300,200,100,100,200,200,300,200,100,300,200,100,300,200,300,200,100,300,100,100,300,100,300,300,100,100,300,300,100,200,100,200,200,200,300,300,300,200,200,200,100,100,200,200,100,200,200,300,100,200,100,200,100,100,200,300,200,200,300,300,200,200,300,300,100,100,100,100,200,300,200,100,100,100,100,100,300,200,100,200,300,300,300,100,300,200,300,300,200,200,300,200,200,300,100,300,100,100,300,300,100,300,200,300,200,200,200,300,300,300,100,100],"left_num":[11,10,6,1,9,3,4,1,4,3,17,10,15,6,3,7,2,1,3,3,20,8,4,4,13,3,17,8,4,7,4,4,6,10,8,1,12,11,9,13,11,15,4,4,18,13,4,3,10,10,20,7,9,21,8,24,10,9,4,3,6,9,14,3,12,8,24,1,7,4,1,4,1,9,8,12,1,4,7,9,3,1,13,11,4,6,15,11,4,1,4,6,8,1,11,13,12,7,20,7,9,4,11,4,15,6,20,24,11,7,7,1,14,1,3,3,13,20,8,3],"right_num":[6,9,11,19,14,14,15,7,2,11,10,8,4,3,4,12,8,3,11,4,14,3,6,1,6,11,10,2,2,15,2,2,5,3,1,3,13,3,13,14,3,4,2,2,9,14,3,1,3,8,9,6,6,2,2,2,3,8,15,14,7,6,12,11,6,3,8,3,14,14,11,2,3,8,1,2,3,2,6,8,4,8,6,6,6,3,13,3,13,2,2,11,9,2,1,12,6,14,9,14,4,2,4,6,13,3,9,2,4,8,14,19,12,21,11,11,12,8,1,4],"left_den":[22,25,20,3,15,10,10,20,20,4,30,25,25,15,6,10,4,2,4,6,25,15,5,30,26,12,30,16,20,14,5,20,20,25,16,2,30,20,15,26,20,25,20,20,20,26,8,10,25,25,25,15,18,30,15,30,25,15,10,10,10,18,30,12,20,15,30,2,10,6,5,20,2,15,20,30,2,5,15,15,20,2,26,22,5,15,25,22,20,2,20,10,10,3,22,26,20,10,25,10,20,20,22,5,25,12,25,30,22,10,10,3,30,2,4,12,26,25,20,20],"right_den":[15,18,22,30,28,28,30,20,4,20,15,16,10,15,20,24,20,15,20,10,28,9,12,3,10,20,15,5,4,25,4,4,25,10,5,15,26,4,26,20,4,10,4,4,15,20,10,2,10,16,15,9,10,4,6,4,10,10,30,28,14,10,18,20,15,9,16,15,28,30,22,4,5,16,2,4,10,4,9,16,16,20,10,15,12,15,26,10,26,10,4,22,18,15,5,15,15,28,18,28,16,4,10,12,26,5,18,4,10,20,28,30,18,30,20,20,15,16,2,16],"correct_side":[1,2,2,2,1,2,2,2,2,1,2,2,1,1,1,1,1,1,1,1,1,1,1,2,2,2,2,1,2,2,1,2,1,1,1,1,2,2,1,2,2,1,2,2,1,2,1,2,1,2,1,2,2,1,1,1,1,2,2,2,1,2,2,2,1,1,1,1,1,1,2,2,2,1,2,2,1,1,2,1,2,1,2,1,1,1,1,1,2,1,2,1,1,1,1,2,1,1,1,1,1,2,1,1,1,2,1,1,1,1,1,2,2,2,1,2,2,1,2,2],"img_shown":["img2/100/Congruent/L/C_Dist_100_LN_11_LD_22_RN_6_RD_15_0.png","img2/100/Incongruent/R/I_Dist_100_LN_10_LD_25_RN_9_RD_18_1.png","img2/200/Congruent/R/C_Dist_200_LN_6_LD_20_RN_11_RD_22_1.png","img2/300/Congruent/R/C_Dist_300_LN_1_LD_3_RN_19_RD_30_1.png","img2/100/Incongruent/L/I_Dist_100_LN_9_LD_15_RN_14_RD_28_0.png","img2/200/Congruent/R/C_Dist_200_LN_3_LD_10_RN_14_RD_28_1.png","img2/100/Congruent/R/C_Dist_100_LN_4_LD_10_RN_15_RD_30_1.png","img2/300/Congruent/R/C_Dist_300_LN_1_LD_20_RN_7_RD_20_1.png","img2/300/Incongruent/R/I_Dist_300_LN_4_LD_20_RN_2_RD_4_1.png","img2/200/Incongruent/L/I_Dist_200_LN_3_LD_4_RN_11_RD_20_0.png","img2/100/Incongruent/R/I_Dist_100_LN_17_LD_30_RN_10_RD_15_1.png","img2/100/Incongruent/R/I_Dist_100_LN_10_LD_25_RN_8_RD_16_1.png","img2/200/Congruent/L/C_Dist_200_LN_15_LD_25_RN_4_RD_10_0.png","img2/200/Congruent/L/C_Dist_200_LN_6_LD_15_RN_3_RD_15_0.png","img2/300/Incongruent/L/I_Dist_300_LN_3_LD_6_RN_4_RD_20_0.png","img2/200/Incongruent/L/I_Dist_200_LN_7_LD_10_RN_12_RD_24_0.png","img2/100/Incongruent/L/I_Dist_100_LN_2_LD_4_RN_8_RD_20_0.png","img2/300/Incongruent/L/I_Dist_300_LN_1_LD_2_RN_3_RD_15_0.png","img2/200/Incongruent/L/I_Dist_200_LN_3_LD_4_RN_11_RD_20_0.png","img2/100/Incongruent/L/I_Dist_100_LN_3_LD_6_RN_4_RD_10_0.png","img2/300/Congruent/L/C_Dist_300_LN_20_LD_25_RN_14_RD_28_0.png","img2/200/Congruent/L/C_Dist_200_LN_8_LD_15_RN_3_RD_9_0.png","img2/300/Incongruent/L/I_Dist_300_LN_4_LD_5_RN_6_RD_12_0.png","img2/200/Incongruent/R/I_Dist_200_LN_4_LD_30_RN_1_RD_3_1.png","img2/100/Incongruent/R/I_Dist_100_LN_13_LD_26_RN_6_RD_10_1.png","img2/300/Congruent/R/C_Dist_300_LN_3_LD_12_RN_11_RD_20_1.png","img2/100/Incongruent/R/I_Dist_100_LN_17_LD_30_RN_10_RD_15_1.png","img2/100/Congruent/L/C_Dist_100_LN_8_LD_16_RN_2_RD_5_0.png","img2/300/Incongruent/R/I_Dist_300_LN_4_LD_20_RN_2_RD_4_1.png","img2/100/Congruent/R/C_Dist_100_LN_7_LD_14_RN_15_RD_25_1.png","img2/300/Congruent/L/C_Dist_300_LN_4_LD_5_RN_2_RD_4_0.png","img2/300/Incongruent/R/I_Dist_300_LN_4_LD_20_RN_2_RD_4_1.png","img2/100/Congruent/L/C_Dist_100_LN_6_LD_20_RN_5_RD_25_0.png","img2/100/Congruent/L/C_Dist_100_LN_10_LD_25_RN_3_RD_10_0.png","img2/300/Congruent/L/C_Dist_300_LN_8_LD_16_RN_1_RD_5_0.png","img2/300/Incongruent/L/I_Dist_300_LN_1_LD_2_RN_3_RD_15_0.png","img2/100/Congruent/R/C_Dist_100_LN_12_LD_30_RN_13_RD_26_1.png","img2/200/Incongruent/R/I_Dist_200_LN_11_LD_20_RN_3_RD_4_1.png","img2/100/Incongruent/L/I_Dist_100_LN_9_LD_15_RN_13_RD_26_0.png","img2/200/Congruent/R/C_Dist_200_LN_13_LD_26_RN_14_RD_20_1.png","img2/200/Incongruent/R/I_Dist_200_LN_11_LD_20_RN_3_RD_4_1.png","img2/200/Congruent/L/C_Dist_200_LN_15_LD_25_RN_4_RD_10_0.png","img2/300/Incongruent/R/I_Dist_300_LN_4_LD_20_RN_2_RD_4_1.png","img2/300/Incongruent/R/I_Dist_300_LN_4_LD_20_RN_2_RD_4_1.png","img2/300/Congruent/L/C_Dist_300_LN_18_LD_20_RN_9_RD_15_0.png","img2/200/Congruent/R/C_Dist_200_LN_13_LD_26_RN_14_RD_20_1.png","img2/200/Congruent/L/C_Dist_200_LN_4_LD_8_RN_3_RD_10_0.png","img2/200/Incongruent/R/I_Dist_200_LN_3_LD_10_RN_1_RD_2_1.png","img2/100/Congruent/L/C_Dist_100_LN_10_LD_25_RN_3_RD_10_0.png","img2/100/Incongruent/R/I_Dist_100_LN_10_LD_25_RN_8_RD_16_1.png","img2/200/Congruent/L/C_Dist_200_LN_20_LD_25_RN_9_RD_15_0.png","img2/200/Incongruent/R/I_Dist_200_LN_7_LD_15_RN_6_RD_9_1.png","img2/100/Incongruent/R/I_Dist_100_LN_9_LD_18_RN_6_RD_10_1.png","img2/200/Congruent/L/C_Dist_200_LN_21_LD_30_RN_2_RD_4_0.png","img2/200/Congruent/L/C_Dist_200_LN_8_LD_15_RN_2_RD_6_0.png","img2/300/Congruent/L/C_Dist_300_LN_24_LD_30_RN_2_RD_4_0.png","img2/100/Congruent/L/C_Dist_100_LN_10_LD_25_RN_3_RD_10_0.png","img2/200/Incongruent/R/I_Dist_200_LN_9_LD_15_RN_8_RD_10_1.png","img2/100/Congruent/R/C_Dist_100_LN_4_LD_10_RN_15_RD_30_1.png","img2/200/Congruent/R/C_Dist_200_LN_3_LD_10_RN_14_RD_28_1.png","img2/100/Incongruent/L/I_Dist_100_LN_6_LD_10_RN_7_RD_14_0.png","img2/100/Incongruent/R/I_Dist_100_LN_9_LD_18_RN_6_RD_10_1.png","img2/200/Incongruent/R/I_Dist_200_LN_14_LD_30_RN_12_RD_18_1.png","img2/300/Congruent/R/C_Dist_300_LN_3_LD_12_RN_11_RD_20_1.png","img2/200/Congruent/L/C_Dist_200_LN_12_LD_20_RN_6_RD_15_0.png","img2/200/Congruent/L/C_Dist_200_LN_8_LD_15_RN_3_RD_9_0.png","img2/300/Congruent/L/C_Dist_300_LN_24_LD_30_RN_8_RD_16_0.png","img2/300/Incongruent/L/I_Dist_300_LN_1_LD_2_RN_3_RD_15_0.png","img2/200/Incongruent/L/I_Dist_200_LN_7_LD_10_RN_14_RD_28_0.png","img2/200/Incongruent/L/I_Dist_200_LN_4_LD_6_RN_14_RD_30_0.png","img2/300/Congruent/R/C_Dist_300_LN_1_LD_5_RN_11_RD_22_1.png","img2/300/Incongruent/R/I_Dist_300_LN_4_LD_20_RN_2_RD_4_1.png","img2/100/Congruent/R/C_Dist_100_LN_1_LD_2_RN_3_RD_5_1.png","img2/100/Congruent/L/C_Dist_100_LN_9_LD_15_RN_8_RD_16_0.png","img2/100/Incongruent/R/I_Dist_100_LN_8_LD_20_RN_1_RD_2_1.png","img2/100/Incongruent/R/I_Dist_100_LN_12_LD_30_RN_2_RD_4_1.png","img2/200/Incongruent/L/I_Dist_200_LN_1_LD_2_RN_3_RD_10_0.png","img2/300/Congruent/L/C_Dist_300_LN_4_LD_5_RN_2_RD_4_0.png","img2/200/Incongruent/R/I_Dist_200_LN_7_LD_15_RN_6_RD_9_1.png","img2/100/Congruent/L/C_Dist_100_LN_9_LD_15_RN_8_RD_16_0.png","img2/100/Congruent/R/C_Dist_100_LN_3_LD_20_RN_4_RD_16_1.png","img2/100/Incongruent/L/I_Dist_100_LN_1_LD_2_RN_8_RD_20_0.png","img2/100/Incongruent/R/I_Dist_100_LN_13_LD_26_RN_6_RD_10_1.png","img2/100/Congruent/L/C_Dist_100_LN_11_LD_22_RN_6_RD_15_0.png","img2/300/Incongruent/L/I_Dist_300_LN_4_LD_5_RN_6_RD_12_0.png","img2/200/Congruent/L/C_Dist_200_LN_6_LD_15_RN_3_RD_15_0.png","img2/100/Congruent/L/C_Dist_100_LN_15_LD_25_RN_13_RD_26_0.png","img2/200/Congruent/L/C_Dist_200_LN_11_LD_22_RN_3_RD_10_0.png","img2/300/Congruent/R/C_Dist_300_LN_4_LD_20_RN_13_RD_26_1.png","img2/300/Incongruent/L/I_Dist_300_LN_1_LD_2_RN_2_RD_10_0.png","img2/300/Incongruent/R/I_Dist_300_LN_4_LD_20_RN_2_RD_4_1.png","img2/100/Incongruent/L/I_Dist_100_LN_6_LD_10_RN_11_RD_22_0.png","img2/300/Incongruent/L/I_Dist_300_LN_8_LD_10_RN_9_RD_18_0.png","img2/200/Incongruent/L/I_Dist_200_LN_1_LD_3_RN_2_RD_15_0.png","img2/300/Congruent/L/C_Dist_300_LN_11_LD_22_RN_1_RD_5_0.png","img2/300/Incongruent/R/I_Dist_300_LN_13_LD_26_RN_12_RD_15_1.png","img2/200/Congruent/L/C_Dist_200_LN_12_LD_20_RN_6_RD_15_0.png","img2/200/Incongruent/L/I_Dist_200_LN_7_LD_10_RN_14_RD_28_0.png","img2/300/Congruent/L/C_Dist_300_LN_20_LD_25_RN_9_RD_18_0.png","img2/200/Incongruent/L/I_Dist_200_LN_7_LD_10_RN_14_RD_28_0.png","img2/200/Congruent/L/C_Dist_200_LN_9_LD_20_RN_4_RD_16_0.png","img2/300/Incongruent/R/I_Dist_300_LN_4_LD_20_RN_2_RD_4_1.png","img2/100/Congruent/L/C_Dist_100_LN_11_LD_22_RN_4_RD_10_0.png","img2/300/Incongruent/L/I_Dist_300_LN_4_LD_5_RN_6_RD_12_0.png","img2/100/Congruent/L/C_Dist_100_LN_15_LD_25_RN_13_RD_26_0.png","img2/100/Incongruent/R/I_Dist_100_LN_6_LD_12_RN_3_RD_5_1.png","img2/300/Congruent/L/C_Dist_300_LN_20_LD_25_RN_9_RD_18_0.png","img2/300/Congruent/L/C_Dist_300_LN_24_LD_30_RN_2_RD_4_0.png","img2/100/Congruent/L/C_Dist_100_LN_11_LD_22_RN_4_RD_10_0.png","img2/300/Incongruent/L/I_Dist_300_LN_7_LD_10_RN_8_RD_20_0.png","img2/200/Incongruent/L/I_Dist_200_LN_7_LD_10_RN_14_RD_28_0.png","img2/300/Congruent/R/C_Dist_300_LN_1_LD_3_RN_19_RD_30_1.png","img2/200/Incongruent/R/I_Dist_200_LN_14_LD_30_RN_12_RD_18_1.png","img2/200/Congruent/R/C_Dist_200_LN_1_LD_2_RN_21_RD_30_1.png","img2/200/Incongruent/L/I_Dist_200_LN_3_LD_4_RN_11_RD_20_0.png","img2/300/Congruent/R/C_Dist_300_LN_3_LD_12_RN_11_RD_20_1.png","img2/300/Incongruent/R/I_Dist_300_LN_13_LD_26_RN_12_RD_15_1.png","img2/300/Congruent/L/C_Dist_300_LN_20_LD_25_RN_8_RD_16_0.png","img2/100/Incongruent/R/I_Dist_100_LN_8_LD_20_RN_1_RD_2_1.png","img2/100/Congruent/R/C_Dist_100_LN_3_LD_20_RN_4_RD_16_1.png"],"dist100_C":[["C_Dist_100_LN_10_LD_25_RN_3_RD_10_0.png","C_Dist_100_LN_11_LD_22_RN_4_RD_10_0.png","C_Dist_100_LN_11_LD_22_RN_6_RD_15_0.png","C_Dist_100_LN_15_LD_25_RN_13_RD_26_0.png","C_Dist_100_LN_3_LD_6_RN_2_RD_5_0.png","C_Dist_100_LN_6_LD_20_RN_5_RD_25_0.png","C_Dist_100_LN_8_LD_16_RN_2_RD_5_0.png","C_Dist_100_LN_9_LD_15_RN_8_RD_16_0.png"],["C_Dist_100_LN_1_LD_2_RN_18_RD_30_1.png","C_Dist_100_LN_1_LD_2_RN_3_RD_5_1.png","C_Dist_100_LN_12_LD_30_RN_13_RD_26_1.png","C_Dist_100_LN_2_LD_5_RN_11_RD_22_1.png","C_Dist_100_LN_2_LD_5_RN_6_RD_12_1.png","C_Dist_100_LN_3_LD_20_RN_4_RD_16_1.png","C_Dist_100_LN_4_LD_10_RN_15_RD_30_1.png","C_Dist_100_LN_4_LD_8_RN_6_RD_10_1.png","C_Dist_100_LN_6_LD_12_RN_15_RD_25_1.png","C_Dist_100_LN_7_LD_14_RN_15_RD_25_1.png","C_Dist_100_LN_7_LD_14_RN_9_RD_15_1.png"]],"dist100_I":[["I_Dist_100_LN_1_LD_2_RN_8_RD_20_0.png","I_Dist_100_LN_2_LD_4_RN_6_RD_15_0.png","I_Dist_100_LN_2_LD_4_RN_8_RD_20_0.png","I_Dist_100_LN_3_LD_5_RN_11_RD_22_0.png","I_Dist_100_LN_3_LD_5_RN_8_RD_16_0.png","I_Dist_100_LN_3_LD_6_RN_4_RD_10_0.png","I_Dist_100_LN_3_LD_9_RN_7_RD_30_0.png","I_Dist_100_LN_4_LD_8_RN_8_RD_20_0.png","I_Dist_100_LN_6_LD_10_RN_11_RD_22_0.png","I_Dist_100_LN_6_LD_10_RN_13_RD_26_0.png","I_Dist_100_LN_6_LD_10_RN_7_RD_14_0.png","I_Dist_100_LN_9_LD_10_RN_20_RD_25_0.png","I_Dist_100_LN_9_LD_15_RN_13_RD_26_0.png","I_Dist_100_LN_9_LD_15_RN_14_RD_28_0.png"],["I_Dist_100_LN_10_LD_25_RN_8_RD_16_1.png","I_Dist_100_LN_10_LD_25_RN_9_RD_18_1.png","I_Dist_100_LN_11_LD_22_RN_9_RD_15_1.png","I_Dist_100_LN_12_LD_24_RN_9_RD_15_1.png","I_Dist_100_LN_12_LD_30_RN_2_RD_4_1.png","I_Dist_100_LN_13_LD_26_RN_12_RD_20_1.png","I_Dist_100_LN_13_LD_26_RN_6_RD_10_1.png","I_Dist_100_LN_17_LD_30_RN_10_RD_15_1.png","I_Dist_100_LN_6_LD_12_RN_3_RD_5_1.png","I_Dist_100_LN_8_LD_16_RN_6_RD_10_1.png","I_Dist_100_LN_8_LD_20_RN_1_RD_2_1.png","I_Dist_100_LN_9_LD_18_RN_6_RD_10_1.png"]],"dist100_S":[["E_Dist_100_LN_2_LD_12_RN_2_RD_30_0.png","E_Dist_100_LN_6_LD_10_RN_6_RD_12_0.png"],["E_Dist_100_LN_6_LD_12_RN_6_RD_10_1.png"]],"dist200_C":[["C_Dist_200_LN_11_LD_22_RN_3_RD_10_0.png","C_Dist_200_LN_12_LD_15_RN_6_RD_10_0.png","C_Dist_200_LN_12_LD_20_RN_6_RD_15_0.png","C_Dist_200_LN_14_LD_28_RN_6_RD_20_0.png","C_Dist_200_LN_15_LD_25_RN_4_RD_10_0.png","C_Dist_200_LN_16_LD_20_RN_12_RD_20_0.png","C_Dist_200_LN_16_LD_30_RN_9_RD_27_0.png","C_Dist_200_LN_20_LD_25_RN_9_RD_15_0.png","C_Dist_200_LN_21_LD_30_RN_2_RD_4_0.png","C_Dist_200_LN_4_LD_10_RN_3_RD_15_0.png","C_Dist_200_LN_4_LD_8_RN_3_RD_10_0.png","C_Dist_200_LN_6_LD_15_RN_3_RD_15_0.png","C_Dist_200_LN_7_LD_21_RN_2_RD_15_0.png","C_Dist_200_LN_8_LD_15_RN_2_RD_6_0.png","C_Dist_200_LN_8_LD_15_RN_3_RD_9_0.png","C_Dist_200_LN_8_LD_15_RN_7_RD_21_0.png","C_Dist_200_LN_9_LD_20_RN_4_RD_16_0.png"],["C_Dist_200_LN_1_LD_2_RN_21_RD_30_1.png","C_Dist_200_LN_13_LD_26_RN_14_RD_20_1.png","C_Dist_200_LN_3_LD_10_RN_11_RD_22_1.png","C_Dist_200_LN_3_LD_10_RN_14_RD_28_1.png","C_Dist_200_LN_3_LD_10_RN_7_RD_14_1.png","C_Dist_200_LN_3_LD_12_RN_9_RD_20_1.png","C_Dist_200_LN_3_LD_6_RN_14_RD_20_1.png","C_Dist_200_LN_5_LD_10_RN_14_RD_20_1.png","C_Dist_200_LN_6_LD_12_RN_7_RD_10_1.png","C_Dist_200_LN_6_LD_20_RN_11_RD_22_1.png","C_Dist_200_LN_7_LD_15_RN_18_RD_27_1.png","C_Dist_200_LN_9_LD_30_RN_13_RD_26_1.png"]],"dist200_I":[["I_Dist_200_LN_1_LD_2_RN_3_RD_10_0.png","I_Dist_200_LN_1_LD_3_RN_2_RD_15_0.png","I_Dist_200_LN_3_LD_4_RN_11_RD_20_0.png","I_Dist_200_LN_4_LD_5_RN_6_RD_10_0.png","I_Dist_200_LN_4_LD_6_RN_14_RD_30_0.png","I_Dist_200_LN_7_LD_10_RN_12_RD_24_0.png","I_Dist_200_LN_7_LD_10_RN_14_RD_28_0.png","I_Dist_200_LN_7_LD_10_RN_8_RD_16_0.png"],["I_Dist_200_LN_11_LD_20_RN_3_RD_4_1.png","I_Dist_200_LN_14_LD_30_RN_12_RD_18_1.png","I_Dist_200_LN_14_LD_30_RN_6_RD_9_1.png","I_Dist_200_LN_3_LD_10_RN_1_RD_2_1.png","I_Dist_200_LN_4_LD_30_RN_1_RD_3_1.png","I_Dist_200_LN_6_LD_20_RN_3_RD_6_1.png","I_Dist_200_LN_7_LD_15_RN_4_RD_6_1.png","I_Dist_200_LN_7_LD_15_RN_6_RD_9_1.png","I_Dist_200_LN_9_LD_15_RN_8_RD_10_1.png"]],"dist200_S":[["E_Dist_200_LN_3_LD_6_RN_3_RD_10_0.png"],["E_Dist_200_LN_3_LD_10_RN_3_RD_6_1.png"]],"dist300_C":[["C_Dist_300_LN_11_LD_22_RN_1_RD_5_0.png","C_Dist_300_LN_11_LD_22_RN_2_RD_10_0.png","C_Dist_300_LN_11_LD_22_RN_4_RD_20_0.png","C_Dist_300_LN_12_LD_24_RN_2_RD_10_0.png","C_Dist_300_LN_18_LD_20_RN_9_RD_15_0.png","C_Dist_300_LN_20_LD_25_RN_13_RD_26_0.png","C_Dist_300_LN_20_LD_25_RN_14_RD_28_0.png","C_Dist_300_LN_20_LD_25_RN_5_RD_10_0.png","C_Dist_300_LN_20_LD_25_RN_8_RD_16_0.png","C_Dist_300_LN_20_LD_25_RN_9_RD_18_0.png","C_Dist_300_LN_24_LD_30_RN_2_RD_4_0.png","C_Dist_300_LN_24_LD_30_RN_8_RD_16_0.png","C_Dist_300_LN_3_LD_6_RN_2_RD_10_0.png","C_Dist_300_LN_4_LD_10_RN_1_RD_10_0.png","C_Dist_300_LN_4_LD_5_RN_2_RD_4_0.png","C_Dist_300_LN_8_LD_16_RN_1_RD_5_0.png","C_Dist_300_LN_9_LD_10_RN_3_RD_5_0.png"],["C_Dist_300_LN_1_LD_20_RN_7_RD_20_1.png","C_Dist_300_LN_1_LD_3_RN_19_RD_30_1.png","C_Dist_300_LN_1_LD_30_RN_8_RD_24_1.png","C_Dist_300_LN_1_LD_5_RN_11_RD_22_1.png","C_Dist_300_LN_1_LD_5_RN_3_RD_6_1.png","C_Dist_300_LN_1_LD_5_RN_6_RD_12_1.png","C_Dist_300_LN_2_LD_10_RN_12_RD_24_1.png","C_Dist_300_LN_2_LD_20_RN_10_RD_25_1.png","C_Dist_300_LN_3_LD_12_RN_11_RD_20_1.png","C_Dist_300_LN_3_LD_6_RN_4_RD_5_1.png","C_Dist_300_LN_4_LD_20_RN_13_RD_26_1.png","C_Dist_300_LN_5_LD_25_RN_6_RD_12_1.png","C_Dist_300_LN_5_LD_25_RN_7_RD_14_1.png","C_Dist_300_LN_7_LD_14_RN_20_RD_25_1.png","C_Dist_300_LN_8_LD_15_RN_10_RD_12_1.png"]],"dist300_I":[["I_Dist_300_LN_1_LD_2_RN_2_RD_10_0.png","I_Dist_300_LN_1_LD_2_RN_3_RD_15_0.png","I_Dist_300_LN_2_LD_4_RN_6_RD_30_0.png","I_Dist_300_LN_3_LD_6_RN_4_RD_20_0.png","I_Dist_300_LN_4_LD_5_RN_6_RD_12_0.png","I_Dist_300_LN_4_LD_5_RN_8_RD_16_0.png","I_Dist_300_LN_7_LD_10_RN_8_RD_20_0.png","I_Dist_300_LN_8_LD_10_RN_14_RD_28_0.png","I_Dist_300_LN_8_LD_10_RN_9_RD_18_0.png"],["I_Dist_300_LN_13_LD_26_RN_12_RD_15_1.png","I_Dist_300_LN_4_LD_20_RN_2_RD_4_1.png"]],"dist300_S":[["E_Dist_300_LN_9_LD_12_RN_9_RD_20_0.png"],["E_Dist_300_LN_18_LD_30_RN_18_RD_20_1.png","E_Dist_300_LN_3_LD_10_RN_3_RD_5_1.png","E_Dist_300_LN_9_LD_20_RN_9_RD_12_1.png"]],"dist500_C":[["C_Dist_500_LN_10_LD_13_RN_7_RD_26_0.png","C_Dist_500_LN_10_LD_15_RN_4_RD_24_0.png","C_Dist_500_LN_12_LD_16_RN_3_RD_12_0.png","C_Dist_500_LN_12_LD_18_RN_4_RD_24_0.png","C_Dist_500_LN_15_LD_18_RN_5_RD_15_0.png","C_Dist_500_LN_15_LD_20_RN_1_RD_4_0.png","C_Dist_500_LN_18_LD_27_RN_1_RD_6_0.png","C_Dist_500_LN_20_LD_24_RN_1_RD_3_0.png","C_Dist_500_LN_20_LD_24_RN_3_RD_9_0.png","C_Dist_500_LN_20_LD_24_RN_7_RD_21_0.png","C_Dist_500_LN_20_LD_28_RN_3_RD_14_0.png","C_Dist_500_LN_21_LD_28_RN_6_RD_24_0.png","C_Dist_500_LN_22_LD_28_RN_2_RD_7_0.png","C_Dist_500_LN_25_LD_30_RN_9_RD_27_0.png","C_Dist_500_LN_4_LD_6_RN_1_RD_6_0.png","C_Dist_500_LN_5_LD_6_RN_2_RD_6_0.png","C_Dist_500_LN_6_LD_9_RN_1_RD_6_0.png","C_Dist_500_LN_7_LD_10_RN_1_RD_5_0.png","C_Dist_500_LN_8_LD_12_RN_1_RD_6_0.png","C_Dist_500_LN_8_LD_12_RN_4_RD_24_0.png"],["C_Dist_500_LN_1_LD_4_RN_12_RD_16_1.png","C_Dist_500_LN_1_LD_4_RN_9_RD_12_1.png","C_Dist_500_LN_1_LD_9_RN_11_RD_18_1.png","C_Dist_500_LN_10_LD_24_RN_22_RD_24_1.png","C_Dist_500_LN_2_LD_12_RN_10_RD_15_1.png","C_Dist_500_LN_2_LD_12_RN_12_RD_18_1.png","C_Dist_500_LN_2_LD_12_RN_4_RD_6_1.png","C_Dist_500_LN_2_LD_24_RN_7_RD_12_1.png","C_Dist_500_LN_2_LD_5_RN_18_RD_20_1.png","C_Dist_500_LN_2_LD_5_RN_9_RD_10_1.png","C_Dist_500_LN_2_LD_8_RN_12_RD_16_1.png","C_Dist_500_LN_2_LD_8_RN_21_RD_28_1.png","C_Dist_500_LN_3_LD_10_RN_4_RD_5_1.png","C_Dist_500_LN_3_LD_12_RN_15_RD_20_1.png","C_Dist_500_LN_3_LD_30_RN_6_RD_10_1.png","C_Dist_500_LN_3_LD_8_RN_14_RD_16_1.png","C_Dist_500_LN_4_LD_16_RN_15_RD_20_1.png","C_Dist_500_LN_4_LD_24_RN_12_RD_18_1.png","C_Dist_500_LN_5_LD_14_RN_6_RD_7_1.png","C_Dist_500_LN_7_LD_21_RN_20_RD_24_1.png","C_Dist_500_LN_7_LD_28_RN_12_RD_16_1.png","C_Dist_500_LN_7_LD_28_RN_9_RD_12_1.png","C_Dist_500_LN_9_LD_27_RN_20_RD_24_1.png"]],"dist500_I":[["I_Dist_500_LN_2_LD_3_RN_4_RD_24_0.png","I_Dist_500_LN_5_LD_6_RN_6_RD_18_0.png","I_Dist_500_LN_7_LD_8_RN_9_RD_24_0.png"],["I_Dist_500_LN_7_LD_21_RN_5_RD_6_1.png"]],"dist500_S":[["E_Dist_500_LN_6_LD_8_RN_6_RD_24_0.png"],["E_Dist_500_LN_2_LD_12_RN_2_RD_3_1.png","E_Dist_500_LN_6_LD_24_RN_6_RD_8_1.png"]]}},{"start_time":1551800563607,"click_time":1551800565037,"finger_time":1551800564616,"fix_duration":250,"trial":1,"RT":1009,"MT":421,"sideResp":1,"stimulus":[],"xmouse":[774,770,769,768,768,768,768,768,768,768,768,768,768,768,768,768,768,768,768,768,768,768,768,768,768,768,768,768,768,768,768,768,768,769,769,769,770,770,770,770,770,770,770,769,767,764,763,761,759,758,757,757,757,755,754,753,753,753,753,753,753,752,751,751,746,732,724,714,694,658,539,507],"ymouse":[516,517,518,519,520,520,520,520,520,520,520,520,520,520,520,520,520,520,520,520,520,520,520,520,520,520,520,520,520,520,520,520,520,520,520,520,520,520,520,520,520,519,517,514,511,506,503,500,497,495,493,492,490,488,485,483,482,480,479,478,473,471,467,464,455,434,415,390,344,275,67,19],"timestamp_mouse":[13,29,54,69,89,109,129,149,169,190,209,229,250,269,289,309,329,349,369,389,410,429,449,469,489,509,530,549,569,589,609,629,649,669,689,709,729,749,769,789,809,829,849,869,889,909,929,949,969,989,1009,1030,1049,1069,1089,1109,1129,1149,1169,1189,1209,1229,1248,1269,1289,1309,1329,1349,1369,1389,1409,1430],"xSR":741.5,"ySR":494.65000000000003,"xT1":424.9,"yT1":0,"xT2":1058.1,"yT2":0,"toosoon":0,"cond_shown":"Incongruent","ratio_trial":100,"L_num":10,"L_den":25,"R_num":9,"R_den":18,"correct_side":2,"subjID":"SANTIAGOMARTIN18","gender":"0","school":"6","age":"12"},{"start_time":1551800566648,"click_time":1551800568817,"finger_time":1551800568616,"fix_duration":250,"trial":2,"RT":1968,"MT":201,"sideResp":2,"stimulus":[],"xmouse":[804,804,804,804,804,804,804,804,804,804,804,804,804,804,804,804,804,804,804,804,804,804,804,804,804,804,804,804,804,804,804,804,804,804,804,804,804,804,804,804,804,804,804,804,804,804,804,804,804,804,804,804,804,804,804,804,804,804,804,804,804,804,804,804,804,804,804,804,804,804,804,804,804,804,804,804,804,804,804,804,804,804,804,804,804,804,804,804,804,804,804,804,804,804,804,806,808,813,837,851,866,886,906,960,980,998,1017,1037,1062],"ymouse":[527,527,527,527,527,527,527,527,527,527,527,527,527,527,527,527,527,527,527,527,527,527,527,527,526,526,525,524,524,524,524,524,524,524,524,524,524,524,524,524,524,524,524,524,524,524,524,524,524,524,524,524,524,524,524,524,524,524,524,524,524,524,524,524,524,524,524,524,524,524,524,524,524,524,524,524,524,524,524,524,524,524,524,524,524,523,523,523,522,522,522,522,521,520,520,519,517,513,487,467,441,398,347,159,120,99,86,73,58],"timestamp_mouse":[12,30,48,68,88,108,128,148,168,188,208,228,248,267,288,308,328,348,368,388,408,428,448,468,488,508,528,548,568,588,608,628,648,668,689,708,728,748,768,787,808,828,848,868,888,908,928,949,969,988,1008,1028,1048,1068,1088,1108,1128,1148,1168,1188,1208,1228,1248,1268,1289,1308,1328,1348,1368,1388,1408,1428,1448,1468,1488,1508,1528,1549,1568,1588,1608,1628,1648,1668,1688,1708,1728,1748,1769,1788,1808,1828,1848,1868,1888,1908,1928,1948,1968,1988,2008,2028,2048,2068,2088,2108,2128,2149,2168],"xSR":741.5,"ySR":494.65000000000003,"xT1":424.9,"yT1":0,"xT2":1058.1,"yT2":0,"toosoon":0,"cond_shown":"Congruent","ratio_trial":200,"L_num":6,"L_den":20,"R_num":11,"R_den":22,"correct_side":2,"subjID":"SANTIAGOMARTIN18","gender":"0","school":"6","age":"12"},{"start_time":1551800570122,"click_time":1551800576936,"finger_time":1551800571896,"fix_duration":445.7343774205581,"trial":3,"RT":1774,"MT":5040,"sideResp":2,"stimulus":[],"xmouse":[770,770,771,771,772,772,772,772,772,772,772,772,772,772,772,772,772,772,772,772,772,772,772,772,772,772,772,772,772,772,772,772,772,772,772,772,772,772,772,772,772,772,772,772,772,772,772,772,772,772,772,772,772,772,772,772,772,772,772,772,772,772,772,772,772,774,775,775,775,775,775,775,775,775,775,775,775,775,775,775,775,775,775,775,776,783,803,827,867,987,1050,1110,1157,1193,1242,1262,1279,1286,1295,1301,1306,1309,1312,1313,1313,1313,1313,1313,1313,1313,1313,1313,1313,1313,1316,1322,1327,1331,1331,1331,1331,1331,1331,1331,1331,1331,1331,1331,1331,1332,1331,1330,1329,1329,1329,1329,1329,1329,1329,1329,1329,1329,1329,1329,1329,1329,1329,1329,1329,1329,1329,1329,1329,1329,1329,1329,1329,1329,1328,1318,1314,1314,1314,1314,1314,1314,1314,1314,1314,1314,1314,1313,1312,1311,1308,1304,1297,1288,1274,1255,1245,1231,1210,1184,1108,1056,1002,992,976,972,971,968,961,952,939,931,922,899,885,870,867,866,865,862,844,833,829,828,828,826,825,824,824,824,824,824,824,824,824,824,824,824,824,824,824,823,823,823,823,823,823,823,823,823,823,823,823,823,823,823,823,823,823,823,823,823,823,823,823,823,823,823,823,823,823,823,823,823,823,823,823,823,823,823,823,823,823,822,821,813,808,803,802,802,801,799,798,798,819,860,869,872,872,872,833,820,812,810,810,810,810,810,810,810,810,806,799,787,782,772,766,760,760,760,773,779,782,784,785,794,802,807,812,812,812,812,813,815,818,832,839,849,867,888,937,969,1009,1030,1030,1030,1030,1030,1030,1030,1030,1030,1030,1030,1030,1096,1094],"ymouse":[580,580,578,577,576,576,576,576,576,576,576,576,576,576,576,576,576,576,576,576,576,576,576,576,576,576,576,576,576,576,576,576,576,576,576,576,576,576,576,576,576,576,576,576,576,576,576,576,576,576,576,576,576,576,576,576,576,576,576,576,576,576,576,576,575,575,575,575,575,575,575,575,575,575,575,575,575,575,575,575,575,575,575,575,574,571,561,550,535,496,478,461,446,434,422,416,411,409,405,401,398,397,395,395,395,395,395,395,395,395,395,395,395,395,395,395,395,395,395,395,395,395,395,395,395,395,395,395,395,391,387,382,380,380,380,380,380,380,380,380,380,380,380,380,380,380,380,380,380,380,380,380,380,380,380,380,380,380,378,362,356,356,356,356,356,356,356,356,356,356,357,358,360,362,366,368,373,382,400,422,428,433,438,446,457,457,457,457,460,464,467,472,480,489,508,517,528,543,549,557,559,560,561,563,563,563,563,563,563,562,562,562,562,562,561,561,561,561,561,561,561,561,561,561,561,561,561,561,561,561,561,561,561,561,561,561,561,560,560,559,559,559,559,559,559,559,559,559,559,559,559,559,559,559,559,559,559,559,559,559,559,559,559,559,559,558,558,557,555,551,549,546,546,546,546,546,546,545,536,528,527,527,527,527,522,520,519,518,518,518,518,518,518,518,518,518,518,518,518,518,518,516,516,516,512,512,512,511,510,502,492,483,474,472,470,469,466,461,457,423,404,382,342,271,160,107,49,19,19,19,19,19,19,19,19,19,19,19,19,0,12],"timestamp_mouse":[14,34,55,74,94,114,134,154,174,194,214,234,254,274,294,314,334,354,374,394,414,434,454,474,494,514,534,554,574,594,614,634,654,674,694,714,734,753,774,794,814,834,854,875,894,914,934,954,974,994,1015,1033,1054,1075,1094,1114,1135,1154,1174,1194,1214,1235,1255,1274,1294,1314,1334,1354,1374,1395,1414,1434,1454,1475,1494,1514,1534,1554,1574,1594,1614,1634,1654,1674,1694,1714,1734,1754,1774,1794,1815,1833,1855,1875,1895,1914,1934,1954,1974,1994,2015,2034,2054,2075,2094,2114,2134,2154,2174,2194,2215,2234,2253,2274,2295,2314,2334,2355,2374,2394,2414,2434,2454,2474,2494,2514,2534,2554,2574,2594,2614,2634,2654,2674,2694,2714,2734,2754,2774,2794,2815,2834,2854,2874,2894,2914,2934,2955,2974,2994,3014,3034,3054,3074,3095,3114,3134,3154,3175,3194,3214,3234,3254,3274,3294,3314,3334,3354,3374,3394,3414,3434,3455,3474,3495,3515,3534,3554,3575,3594,3614,3634,3654,3674,3694,3714,3734,3754,3774,3794,3814,3834,3854,3874,3894,3914,3934,3954,3974,3994,4015,4034,4055,4074,4094,4115,4134,4154,4174,4194,4214,4234,4254,4274,4294,4314,4334,4355,4374,4394,4414,4434,4454,4474,4494,4513,4534,4554,4574,4594,4614,4634,4654,4674,4694,4714,4734,4754,4774,4794,4814,4834,4854,4874,4894,4914,4934,4954,4974,4994,5015,5034,5054,5074,5094,5113,5135,5154,5174,5194,5214,5234,5256,5274,5294,5314,5334,5354,5374,5394,5415,5434,5454,5474,5494,5514,5534,5554,5575,5594,5615,5634,5655,5675,5694,5714,5734,5754,5774,5794,5814,5834,5854,5874,5894,5914,5934,5954,5974,5994,6014,6034,6054,6074,6095,6114,6134,6154,6174,6194,6214,6234,6254,6274,6294,6314,6335,6354,6374,6394,6415,6434,6454,6474,6494,6515,6534,6554,6574,6594,6615,6634,6654,6674,6694,6715,6735,6754,6774,6794,6814],"xSR":741.5,"ySR":494.65000000000003,"xT1":424.9,"yT1":0,"xT2":1058.1,"yT2":0,"toosoon":0,"cond_shown":"Congruent","ratio_trial":300,"L_num":1,"L_den":3,"R_num":19,"R_den":30,"correct_side":2,"subjID":"SANTIAGOMARTIN18","gender":"0","school":"6","age":"12"},{"start_time":1551800578999,"click_time":1551800580816,"finger_time":1551800580616,"fix_duration":1182.8381952947093,"trial":4,"RT":1617,"MT":200,"sideResp":2,"stimulus":[],"xmouse":[784,784,784,784,784,784,784,784,784,784,784,784,784,784,784,784,784,784,784,784,784,784,784,784,784,784,784,784,784,784,784,784,784,784,784,784,784,784,784,784,784,784,784,784,784,784,784,784,784,784,784,784,784,784,784,784,784,784,784,784,784,784,784,784,784,784,784,784,784,784,784,784,784,784,784,784,785,788,789,792,808,823,839,885,920,983,1003,1034,1070,1099,1137],"ymouse":[508,508,508,508,508,508,508,508,508,508,508,508,508,508,508,508,508,508,508,508,508,508,508,508,508,508,508,508,508,508,508,508,508,508,508,508,508,508,508,508,508,508,508,508,508,508,508,508,508,508,508,508,508,508,508,508,508,508,508,508,508,508,508,508,508,508,508,508,508,508,507,507,507,507,507,507,506,503,501,499,481,466,450,404,373,298,278,236,177,119,46],"timestamp_mouse":[29,37,56,77,97,118,137,157,177,198,218,237,257,277,297,317,337,358,377,398,417,437,457,477,497,517,537,557,577,597,618,637,657,677,698,717,737,757,778,797,817,837,858,877,898,917,937,957,977,997,1017,1037,1057,1077,1097,1117,1138,1157,1177,1197,1218,1237,1257,1277,1296,1317,1337,1358,1376,1397,1417,1437,1458,1477,1498,1517,1537,1557,1578,1597,1617,1637,1657,1677,1698,1717,1737,1757,1777,1797,1817],"xSR":741.5,"ySR":494.65000000000003,"xT1":424.9,"yT1":0,"xT2":1058.1,"yT2":0,"toosoon":0,"cond_shown":"Incongruent","ratio_trial":100,"L_num":9,"L_den":15,"R_num":14,"R_den":28,"correct_side":1,"subjID":"SANTIAGOMARTIN18","gender":"0","school":"6","age":"12"},{"start_time":1551800587265,"click_time":1551800589076,"finger_time":1551800588597,"fix_duration":1268.7317282994657,"trial":5,"RT":1332,"MT":479,"sideResp":2,"stimulus":[],"xmouse":[789,789,789,789,789,789,789,789,789,789,789,789,789,789,789,789,789,789,789,789,789,789,789,789,789,789,789,789,789,789,789,789,789,789,789,789,789,789,789,789,789,789,789,789,789,789,789,789,789,789,789,789,789,789,789,790,790,790,791,791,791,791,794,797,798,801,809,844,874,908,947,983,992,992,992,992,993,999,1007,1018,1035,1042,1043,1044,1045,1047,1051,1054,1054,1055,1059],"ymouse":[519,519,519,519,519,519,519,519,519,519,519,519,519,519,519,519,519,519,519,519,519,519,519,519,519,519,519,519,519,519,519,519,519,519,519,519,519,519,519,519,519,519,519,519,519,519,519,519,519,519,519,519,518,517,516,514,513,512,511,511,510,509,505,502,501,497,489,456,423,369,307,225,175,158,146,139,131,107,71,49,31,23,21,20,19,19,19,19,19,19,20],"timestamp_mouse":[11,32,51,71,91,111,131,151,171,191,211,231,251,271,291,311,331,351,371,391,411,431,451,471,491,512,531,552,571,591,611,632,651,671,691,711,731,751,771,791,812,831,851,871,893,911,931,951,971,991,1011,1031,1051,1071,1091,1111,1132,1152,1172,1191,1211,1231,1251,1271,1291,1311,1332,1351,1371,1391,1411,1432,1451,1471,1491,1511,1531,1551,1571,1591,1611,1631,1651,1671,1691,1711,1732,1751,1771,1791,1811],"xSR":741.5,"ySR":494.65000000000003,"xT1":424.9,"yT1":0,"xT2":1058.1,"yT2":0,"toosoon":0,"cond_shown":"Congruent","ratio_trial":200,"L_num":3,"L_den":10,"R_num":14,"R_den":28,"correct_side":2,"subjID":"SANTIAGOMARTIN18","gender":"0","school":"6","age":"12"},{"start_time":1551800590991,"click_time":1551800592517,"finger_time":1551800592296,"fix_duration":914.587999577642,"trial":6,"RT":1305,"MT":221,"sideResp":2,"stimulus":[],"xmouse":[801,801,801,801,801,801,801,801,801,801,801,801,801,801,801,801,801,801,801,801,801,801,801,801,801,801,801,801,801,801,801,801,801,801,801,801,801,801,801,801,801,801,801,801,801,801,801,801,801,801,801,801,801,801,801,801,801,801,801,801,801,803,805,809,814,827,877,892,910,927,944,989,1008,1023,1039,1052,1068],"ymouse":[528,528,528,528,528,528,528,528,528,528,528,528,528,528,528,528,528,528,528,528,528,528,528,528,528,528,528,528,528,528,528,528,528,528,528,528,528,528,528,528,528,528,528,528,528,528,528,528,528,528,528,528,528,528,528,528,528,528,528,528,527,526,523,516,506,488,410,379,353,331,308,215,185,161,134,110,80],"timestamp_mouse":[8,37,45,65,85,105,125,145,165,185,205,225,245,265,286,305,325,345,367,385,405,425,445,465,485,506,525,545,565,585,605,626,645,665,685,705,725,745,765,786,805,825,845,865,885,905,925,945,965,985,1005,1026,1046,1065,1085,1105,1125,1146,1166,1185,1206,1226,1245,1265,1285,1305,1325,1345,1365,1385,1405,1425,1446,1465,1485,1505,1525],"xSR":741.5,"ySR":494.65000000000003,"xT1":424.9,"yT1":0,"xT2":1058.1,"yT2":0,"toosoon":0,"cond_shown":"Congruent","ratio_trial":100,"L_num":4,"L_den":10,"R_num":15,"R_den":30,"correct_side":2,"subjID":"SANTIAGOMARTIN18","gender":"0","school":"6","age":"12"},{"start_time":1551800596051,"click_time":1551800597916,"finger_time":1551800597516,"fix_duration":1012.1235400818402,"trial":7,"RT":1465,"MT":400,"sideResp":2,"stimulus":[],"xmouse":[783,783,783,783,783,783,783,783,783,783,783,783,783,783,783,783,783,783,783,783,783,783,783,783,783,783,783,783,783,783,783,783,783,783,783,783,783,783,783,783,783,783,783,783,783,783,783,783,783,783,783,783,783,783,783,783,783,783,783,783,783,783,783,783,783,783,783,784,787,790,794,798,808,827,846,870,892,913,941,949,956,962,972,981,984,987,990,996,1010,1016,1023,1030,1051,1083],"ymouse":[543,543,543,543,543,543,543,543,543,543,543,543,543,543,543,543,543,543,543,543,543,543,543,543,543,543,543,543,543,543,543,543,543,543,543,543,543,543,543,543,543,543,543,543,543,543,543,543,543,543,543,543,543,543,543,543,543,543,543,543,543,543,543,543,543,543,543,542,536,530,522,514,496,462,430,388,348,307,242,219,204,191,175,161,157,154,151,144,131,126,122,118,105,92],"timestamp_mouse":[7,25,45,66,86,105,125,145,165,185,205,225,245,265,285,305,325,345,365,385,405,425,444,465,485,506,524,545,565,585,605,625,645,665,685,705,725,745,765,784,805,825,845,865,884,905,925,946,965,984,1005,1025,1045,1065,1085,1105,1125,1146,1165,1185,1205,1225,1245,1265,1285,1306,1325,1346,1365,1385,1406,1424,1445,1465,1486,1504,1525,1545,1566,1586,1605,1625,1646,1664,1686,1705,1725,1745,1766,1786,1805,1825,1845,1865],"xSR":741.5,"ySR":494.65000000000003,"xT1":424.9,"yT1":0,"xT2":1058.1,"yT2":0,"toosoon":0,"cond_shown":"Congruent","ratio_trial":300,"L_num":1,"L_den":20,"R_num":7,"R_den":20,"correct_side":2,"subjID":"SANTIAGOMARTIN18","gender":"0","school":"6","age":"12"},{"start_time":1551800600612,"click_time":1551800602356,"finger_time":1551800601936,"fix_duration":575.7325742512512,"trial":8,"RT":1324,"MT":420,"sideResp":1,"stimulus":[],"xmouse":[794,794,794,794,794,794,794,794,794,794,794,794,794,794,794,794,794,794,794,794,794,794,794,794,794,794,794,794,794,794,794,794,794,794,794,794,794,794,794,794,794,794,794,794,794,794,794,794,794,794,794,794,794,794,794,794,794,794,794,794,794,794,794,793,796,798,798,797,797,797,797,787,773,728,680,614,595,579,562,546,502,477,452,442,439,440,443,448],"ymouse":[556,556,556,556,556,556,556,556,556,556,556,556,556,556,556,556,556,556,556,556,556,556,556,556,556,556,556,556,556,556,556,556,556,556,556,556,556,556,556,556,556,556,556,556,556,556,556,556,556,556,556,556,556,556,556,556,556,556,556,556,556,556,556,553,539,496,470,446,428,411,375,354,335,301,274,238,227,218,208,198,176,162,148,142,135,121,110,94],"timestamp_mouse":[11,32,44,64,85,104,124,144,164,184,204,224,244,264,284,304,324,344,363,385,405,425,444,464,484,504,524,544,564,584,604,624,644,664,684,704,724,745,764,784,804,825,844,864,884,904,924,943,964,984,1004,1024,1044,1064,1084,1104,1124,1144,1164,1184,1204,1224,1244,1264,1285,1304,1324,1344,1365,1385,1405,1425,1444,1464,1484,1503,1525,1544,1565,1585,1605,1625,1644,1664,1684,1703,1724,1744],"xSR":741.5,"ySR":494.65000000000003,"xT1":424.9,"yT1":0,"xT2":1058.1,"yT2":0,"toosoon":0,"cond_shown":"Incongruent","ratio_trial":300,"L_num":4,"L_den":20,"R_num":2,"R_den":4,"correct_side":2,"subjID":"SANTIAGOMARTIN18","gender":"0","school":"6","age":"12"},{"start_time":1551800612822,"click_time":1551800614476,"finger_time":1551800614096,"fix_duration":1165.92854820785,"trial":9,"RT":1274,"MT":380,"sideResp":2,"stimulus":[],"xmouse":[750,750,750,750,750,750,750,750,750,750,750,750,750,750,750,750,750,750,750,750,750,750,750,750,750,750,750,750,750,750,750,750,750,750,750,750,750,750,750,750,750,750,750,750,750,750,750,750,750,750,750,750,750,756,765,769,772,775,776,781,787,799,813,829,853,862,871,883,896,920,926,932,933,937,947,956,966,978,990,1016,1037,1058,1085],"ymouse":[566,566,566,566,566,566,566,566,566,566,566,566,566,566,566,566,566,566,566,566,566,566,566,566,566,566,566,566,566,566,566,566,566,566,566,566,566,566,566,566,566,566,566,566,566,566,566,566,566,566,566,566,564,557,549,546,544,542,541,536,531,520,504,482,429,403,382,363,345,297,271,235,224,213,200,188,174,160,148,129,119,108,94],"timestamp_mouse":[25,34,54,74,94,114,134,154,174,194,214,234,254,274,294,314,334,354,374,394,414,434,454,474,494,514,534,555,574,594,614,634,654,674,694,714,735,755,774,794,814,834,854,874,894,914,934,954,974,994,1014,1034,1054,1075,1094,1114,1135,1153,1174,1194,1215,1234,1254,1274,1294,1314,1334,1354,1374,1394,1414,1433,1454,1474,1495,1514,1534,1554,1574,1595,1614,1634,1654],"xSR":741.5,"ySR":494.65000000000003,"xT1":424.9,"yT1":0,"xT2":1058.1,"yT2":0,"toosoon":0,"cond_shown":"Incongruent","ratio_trial":200,"L_num":3,"L_den":4,"R_num":11,"R_den":20,"correct_side":1,"subjID":"SANTIAGOMARTIN18","gender":"0","school":"6","age":"12"},{"start_time":1551800629087,"click_time":1551800631416,"finger_time":1551800629335,"fix_duration":250,"trial":10,"RT":248,"MT":2081,"sideResp":2,"stimulus":[],"xmouse":[777,777,777,777,777,777,777,777,777,777,777,765,721,696,686,686,686,686,686,686,686,686,686,686,686,686,686,686,687,709,762,895,911,912,905,894,883,878,872,866,860,839,820,800,773,748,729,729,728,728,731,742,750,756,759,764,772,775,776,782,785,790,790,790,790,790,790,790,790,790,790,790,790,790,790,790,790,790,790,790,790,784,780,774,762,747,716,709,708,718,733,787,834,894,947,994,1047,1047,1047,1047,1047,1047,1047,1047,1047,1047,1047,1047,1047,1047,1047,1047,1047,1047,1047,1047,1095],"ymouse":[539,539,539,539,539,539,539,539,539,539,539,540,553,560,562,562,562,562,562,562,562,562,562,564,564,564,564,564,565,562,561,561,560,560,557,555,555,555,557,560,562,564,564,562,558,555,551,551,550,550,549,547,545,544,544,542,539,539,538,535,534,532,532,532,532,532,532,532,532,532,532,532,532,532,532,532,532,532,532,532,532,532,530,524,509,491,453,438,428,405,384,322,275,219,164,108,11,11,11,11,11,11,11,11,11,11,11,11,11,11,11,11,11,11,11,11,7],"timestamp_mouse":[8,28,48,68,88,108,128,148,168,188,208,228,248,268,288,308,328,349,368,388,408,428,448,468,488,509,529,549,568,588,608,628,648,669,688,708,729,749,768,788,808,828,848,868,888,908,928,948,968,988,1008,1028,1048,1068,1089,1109,1129,1148,1168,1188,1208,1228,1248,1268,1288,1308,1328,1348,1369,1388,1409,1428,1448,1468,1488,1508,1528,1550,1568,1588,1608,1628,1648,1668,1688,1708,1728,1748,1769,1788,1808,1828,1848,1868,1888,1909,1928,1948,1968,1988,2009,2028,2049,2068,2088,2109,2128,2149,2168,2188,2209,2228,2248,2268,2288,2310,2328],"xSR":741.5,"ySR":494.65000000000003,"xT1":424.9,"yT1":0,"xT2":1058.1,"yT2":0,"toosoon":0,"cond_shown":"Incongruent","ratio_trial":100,"L_num":17,"L_den":30,"R_num":10,"R_den":15,"correct_side":2,"subjID":"SANTIAGOMARTIN18","gender":"0","school":"6","age":"12"},{"start_time":1551800632708,"click_time":1551800634615,"finger_time":1551800634315,"fix_duration":412.7184288287369,"trial":11,"RT":1607,"MT":300,"sideResp":2,"stimulus":[],"xmouse":[798,798,798,798,798,798,798,798,798,798,798,798,798,798,798,798,798,798,798,798,798,798,798,798,798,798,798,798,798,798,798,798,798,798,798,798,798,798,798,798,798,798,798,798,798,798,798,798,798,798,798,798,798,798,798,798,798,798,798,798,798,798,798,798,798,798,798,798,798,798,798,798,798,798,798,798,798,798,798,798,816,845,906,962,994,994,994,994,994,994,994,994,994,994,994,1101],"ymouse":[566,566,567,567,567,567,567,567,567,567,567,567,567,567,567,567,567,567,567,567,567,567,567,567,567,567,567,567,567,567,567,567,567,567,567,567,567,567,567,567,567,567,567,567,567,567,567,567,567,567,567,567,567,567,567,567,567,567,567,567,567,567,567,567,567,567,567,567,567,567,567,567,567,567,567,567,567,567,560,532,466,386,287,173,81,81,81,81,81,81,81,81,81,81,81,16],"timestamp_mouse":[25,27,46,67,87,107,128,147,167,187,207,227,247,267,287,307,327,347,367,387,407,427,448,468,487,507,527,547,567,587,607,628,648,667,687,707,727,747,768,787,807,827,847,868,887,907,927,947,967,987,1007,1027,1047,1067,1087,1107,1127,1147,1167,1187,1207,1227,1247,1267,1287,1307,1327,1347,1367,1387,1407,1427,1447,1467,1487,1507,1527,1547,1567,1588,1607,1627,1647,1667,1687,1708,1727,1747,1767,1788,1807,1826,1847,1867,1887,1907],"xSR":741.5,"ySR":494.65000000000003,"xT1":424.9,"yT1":0,"xT2":1058.1,"yT2":0,"toosoon":0,"cond_shown":"Incongruent","ratio_trial":100,"L_num":10,"L_den":25,"R_num":8,"R_den":16,"correct_side":2,"subjID":"SANTIAGOMARTIN18","gender":"0","school":"6","age":"12"},{"start_time":1551800639597,"click_time":1551800641315,"finger_time":1551800641035,"fix_duration":960.2276234555687,"trial":12,"RT":1438,"MT":280,"sideResp":1,"stimulus":[],"xmouse":[770,770,770,770,770,770,770,770,770,770,770,770,770,770,770,770,770,770,770,770,770,770,770,770,770,770,770,770,770,770,770,770,770,770,770,770,770,770,770,770,770,770,770,770,770,770,770,770,770,770,770,770,770,770,770,770,770,770,770,770,770,770,770,770,770,770,770,770,770,770,756,734,700,667,632,618,617,614,610,599,513,478,464,460,460,463],"ymouse":[532,532,532,532,532,532,532,532,532,532,532,532,532,532,532,532,532,532,532,532,532,532,532,532,532,532,532,532,532,532,532,532,532,532,532,532,532,532,532,532,532,532,532,532,532,532,532,532,532,532,532,532,532,532,532,532,532,532,532,532,532,532,532,532,532,532,532,532,529,527,507,486,462,438,417,407,404,398,387,367,188,140,121,114,107,81],"timestamp_mouse":[17,45,58,78,98,118,138,158,178,198,218,238,258,278,298,318,338,358,378,398,419,438,458,478,498,518,538,558,578,598,618,639,658,678,698,718,738,758,778,798,818,838,858,878,898,918,938,958,978,998,1018,1038,1058,1078,1098,1118,1138,1159,1178,1198,1218,1238,1258,1278,1298,1318,1338,1359,1378,1398,1417,1438,1458,1478,1499,1517,1537,1558,1579,1598,1618,1638,1658,1678,1698,1718],"xSR":741.5,"ySR":494.65000000000003,"xT1":424.9,"yT1":0,"xT2":1058.1,"yT2":0,"toosoon":0,"cond_shown":"Congruent","ratio_trial":200,"L_num":15,"L_den":25,"R_num":4,"R_den":10,"correct_side":1,"subjID":"SANTIAGOMARTIN18","gender":"0","school":"6","age":"12"},{"start_time":1551800643249,"click_time":1551800645055,"finger_time":1551800644616,"fix_duration":532.8999890189278,"trial":13,"RT":1367,"MT":439,"sideResp":1,"stimulus":[],"xmouse":[827,827,827,827,827,827,827,827,827,827,827,827,827,827,827,827,827,827,827,827,827,827,827,827,827,827,827,827,827,827,827,827,827,827,827,827,827,827,827,827,827,827,827,827,827,827,827,827,827,827,827,827,827,827,827,827,827,827,827,827,827,827,827,827,827,823,818,801,720,666,623,603,590,583,576,570,562,559,558,558,558,555,552,549,549,549,549,549,538,529,524],"ymouse":[537,537,537,537,537,537,537,537,537,537,537,537,537,537,537,537,537,537,537,537,537,537,537,537,537,537,537,537,537,537,537,537,537,537,537,537,537,537,537,537,537,537,537,537,537,537,537,537,537,537,537,537,537,537,537,537,537,537,537,537,537,537,537,537,537,535,529,511,431,384,348,328,308,254,234,218,200,187,162,138,113,93,71,64,64,64,64,64,73,78,81],"timestamp_mouse":[6,33,46,66,86,106,126,146,166,186,206,226,246,266,286,306,326,346,366,386,406,426,446,466,486,506,526,546,566,586,607,626,646,667,686,706,726,746,766,788,806,826,846,866,886,906,926,946,966,986,1006,1027,1046,1067,1086,1106,1127,1146,1166,1186,1206,1225,1246,1266,1286,1307,1326,1347,1367,1387,1406,1426,1446,1466,1486,1506,1528,1547,1566,1587,1606,1626,1646,1666,1686,1706,1726,1746,1766,1786,1806],"xSR":741.5,"ySR":494.65000000000003,"xT1":424.9,"yT1":0,"xT2":1058.1,"yT2":0,"toosoon":0,"cond_shown":"Congruent","ratio_trial":200,"L_num":6,"L_den":15,"R_num":3,"R_den":15,"correct_side":1,"subjID":"SANTIAGOMARTIN18","gender":"0","school":"6","age":"12"},{"start_time":1551800647073,"click_time":1551800648855,"finger_time":1551800648476,"fix_duration":837.0697739111725,"trial":14,"RT":1403,"MT":379,"sideResp":2,"stimulus":[],"xmouse":[768,768,768,768,768,768,768,768,768,768,768,768,768,768,768,768,768,768,768,768,768,768,768,768,768,768,768,768,768,768,768,768,768,768,768,768,768,768,768,768,768,768,768,768,768,768,768,768,768,768,768,768,768,768,768,768,768,768,768,768,768,768,768,768,768,768,768,768,768,777,782,799,835,867,902,932,954,973,978,983,988,993,1004,1011,1018,1028,1038,1050,1055,1061],"ymouse":[503,503,503,503,503,503,503,503,503,503,503,503,503,503,503,503,503,503,503,503,503,503,503,503,503,503,503,503,503,503,503,503,503,503,503,503,503,503,503,503,503,503,503,503,503,503,503,503,503,503,503,503,503,503,503,503,503,503,503,503,503,503,503,503,503,503,503,503,503,498,494,481,441,401,359,322,289,255,242,222,192,159,114,94,77,61,48,36,32,29],"timestamp_mouse":[7,23,42,62,82,102,122,142,162,182,203,222,242,262,283,302,322,342,362,382,402,422,442,462,483,502,522,542,562,582,602,622,642,662,682,702,722,742,762,782,802,823,842,862,882,902,922,942,962,982,1002,1023,1042,1062,1082,1102,1122,1142,1162,1182,1202,1223,1242,1263,1282,1302,1323,1342,1362,1382,1402,1422,1442,1462,1482,1502,1522,1542,1562,1582,1602,1623,1642,1662,1682,1702,1723,1742,1762,1782],"xSR":741.5,"ySR":494.65000000000003,"xT1":424.9,"yT1":0,"xT2":1058.1,"yT2":0,"toosoon":0,"cond_shown":"Incongruent","ratio_trial":300,"L_num":3,"L_den":6,"R_num":4,"R_den":20,"correct_side":1,"subjID":"SANTIAGOMARTIN18","gender":"0","school":"6","age":"12"},{"start_time":1551800657416,"click_time":1551800660135,"finger_time":1551800659515,"fix_duration":899.070750048063,"trial":15,"RT":2099,"MT":620,"sideResp":2,"stimulus":[],"xmouse":[801,801,801,801,801,801,801,801,801,801,801,801,801,801,801,801,801,790,788,786,786,786,786,786,786,786,786,786,786,786,786,786,786,786,786,786,786,786,786,786,786,786,786,786,786,786,786,786,786,786,786,786,786,786,786,786,786,786,786,786,786,786,786,786,786,786,786,786,786,786,786,786,786,786,787,787,787,787,787,787,787,787,787,787,787,787,787,787,787,787,787,787,787,787,787,787,787,787,787,787,787,787,788,807,912,987,1070,1127,1147,1172,1180,1188,1191,1194,1207,1214,1218,1219,1219,1219,1219,1219,1219,1219,1213,1210,1208,1207,1206,1206,1206,1205,1203,1192,1161,1147],"ymouse":[574,574,574,574,574,574,574,574,574,574,574,574,574,574,574,574,574,558,555,553,553,553,553,553,553,553,553,553,553,553,553,553,553,553,553,553,553,553,553,553,553,553,553,553,553,553,553,553,553,553,553,553,553,553,553,553,553,553,553,553,553,553,553,553,553,553,553,553,553,553,553,553,553,551,545,545,545,545,545,545,545,545,545,545,545,545,545,545,545,545,545,545,545,545,545,545,545,545,545,545,545,545,541,532,468,400,303,238,214,165,143,126,114,104,70,56,50,48,48,48,48,48,48,48,50,53,57,61,62,62,62,63,63,63,71,77],"timestamp_mouse":[26,39,59,79,99,119,139,159,180,199,219,239,259,279,300,319,339,359,379,399,419,439,459,479,499,519,540,559,579,599,619,639,659,679,699,719,739,759,779,799,819,839,859,879,899,919,939,959,979,999,1019,1039,1059,1080,1099,1119,1139,1159,1179,1199,1219,1239,1259,1280,1299,1319,1339,1359,1379,1399,1419,1440,1459,1480,1499,1519,1539,1559,1579,1599,1619,1639,1659,1679,1699,1719,1739,1759,1780,1799,1819,1839,1859,1879,1899,1919,1939,1959,1979,1999,2019,2039,2059,2080,2099,2119,2139,2161,2179,2199,2219,2239,2259,2279,2300,2320,2339,2359,2379,2400,2419,2439,2459,2479,2499,2519,2539,2559,2580,2599,2619,2639,2660,2679,2699,2719],"xSR":741.5,"ySR":494.65000000000003,"xT1":424.9,"yT1":0,"xT2":1058.1,"yT2":0,"toosoon":0,"cond_shown":"Incongruent","ratio_trial":200,"L_num":7,"L_den":10,"R_num":12,"R_den":24,"correct_side":1,"subjID":"SANTIAGOMARTIN18","gender":"0","school":"6","age":"12"},{"start_time":1551800667933,"click_time":1551800669055,"finger_time":1551800668675,"fix_duration":876.9809080348356,"trial":16,"RT":742,"MT":380,"sideResp":2,"stimulus":[],"xmouse":[789,789,789,789,789,789,789,789,789,790,791,791,791,791,791,791,791,791,791,791,791,792,792,792,793,793,793,793,794,801,804,806,806,806,806,806,806,807,814,835,852,870,887,902,917,918,919,920,922,923,925,931,939,947,973,999,1074],"ymouse":[525,525,525,525,525,525,525,525,525,525,524,524,524,524,524,524,524,524,524,524,524,523,523,523,522,522,520,519,516,504,500,499,498,498,498,497,497,493,477,430,389,349,308,273,195,166,140,134,126,121,118,113,108,102,85,70,26],"timestamp_mouse":[2,30,42,62,82,102,122,143,162,182,203,222,242,262,282,302,322,342,362,382,402,423,442,462,482,503,522,543,563,582,602,623,642,663,682,702,722,742,762,782,802,822,843,862,882,902,922,943,962,982,1003,1022,1042,1063,1082,1102,1122],"xSR":741.5,"ySR":494.65000000000003,"xT1":424.9,"yT1":0,"xT2":1058.1,"yT2":0,"toosoon":0,"cond_shown":"Incongruent","ratio_trial":100,"L_num":2,"L_den":4,"R_num":8,"R_den":20,"correct_side":1,"subjID":"SANTIAGOMARTIN18","gender":"0","school":"6","age":"12"},{"start_time":1551800673728,"click_time":1551800675595,"finger_time":1551800675115,"fix_duration":671.4338928617818,"trial":17,"RT":1387,"MT":480,"sideResp":1,"stimulus":[],"xmouse":[814,814,814,814,814,814,814,814,814,814,814,814,814,814,814,814,814,814,814,814,814,814,814,814,814,813,813,813,813,813,813,813,813,813,813,813,813,813,813,813,813,813,813,813,813,813,813,813,813,813,813,813,813,813,813,813,813,813,813,813,813,813,813,813,813,813,813,809,802,694,617,543,468,425,399,398,396,395,390,388,388,391,401,412,429,433,433,433,435,440,443,444,444,441],"ymouse":[538,538,538,538,538,538,538,538,538,538,538,538,538,538,538,538,538,538,538,538,538,538,538,538,538,539,539,539,539,539,539,539,539,539,539,539,539,539,539,539,539,539,539,539,539,539,539,539,539,539,539,539,539,539,539,539,539,539,539,539,539,539,539,539,539,539,539,535,527,448,403,366,325,297,271,262,254,246,233,227,223,214,201,189,171,167,164,160,155,140,129,117,101,91],"timestamp_mouse":[7,31,47,67,87,107,127,147,167,187,207,227,248,268,287,307,327,347,367,387,407,426,447,468,487,507,527,548,568,587,607,627,647,667,687,707,727,749,768,787,807,827,848,867,887,907,927,947,967,987,1007,1027,1047,1067,1087,1107,1127,1147,1167,1187,1207,1228,1247,1267,1287,1307,1327,1347,1367,1387,1407,1427,1449,1468,1487,1507,1528,1547,1567,1587,1607,1627,1647,1668,1687,1708,1727,1747,1768,1787,1807,1827,1847,1867],"xSR":741.5,"ySR":494.65000000000003,"xT1":424.9,"yT1":0,"xT2":1058.1,"yT2":0,"toosoon":0,"cond_shown":"Incongruent","ratio_trial":300,"L_num":1,"L_den":2,"R_num":3,"R_den":15,"correct_side":1,"subjID":"SANTIAGOMARTIN18","gender":"0","school":"6","age":"12"},{"start_time":1551800677948,"click_time":1551800679456,"finger_time":1551800679115,"fix_duration":1450.1136058841291,"trial":18,"RT":1167,"MT":341,"sideResp":1,"stimulus":[],"xmouse":[829,829,829,829,829,829,829,829,829,829,829,829,829,829,829,829,829,829,829,829,829,829,829,829,829,829,829,829,829,829,829,829,829,829,829,829,827,826,824,823,822,821,817,813,811,811,811,811,811,811,811,811,811,811,808,801,790,765,727,706,683,663,645,611,599,581,563,537,517,503,492,486,483,480,478,475],"ymouse":[548,548,548,548,548,548,548,548,548,548,548,548,548,548,548,548,548,548,548,548,548,548,548,548,548,548,548,548,548,548,548,548,548,548,548,548,548,548,547,547,547,546,545,543,543,543,543,543,543,543,543,543,543,543,540,536,529,518,498,483,466,447,427,380,357,328,298,264,234,190,154,135,124,115,108,98],"timestamp_mouse":[7,33,48,68,87,107,127,148,167,187,207,227,248,267,288,307,327,347,367,387,407,427,447,467,487,507,527,547,567,587,607,627,647,667,687,707,727,747,767,787,807,827,847,867,887,908,927,947,967,988,1008,1027,1047,1067,1088,1107,1127,1147,1167,1187,1208,1227,1248,1267,1288,1307,1327,1347,1367,1387,1407,1428,1447,1467,1488,1508],"xSR":741.5,"ySR":494.65000000000003,"xT1":424.9,"yT1":0,"xT2":1058.1,"yT2":0,"toosoon":0,"cond_shown":"Incongruent","ratio_trial":200,"L_num":3,"L_den":4,"R_num":11,"R_den":20,"correct_side":1,"subjID":"SANTIAGOMARTIN18","gender":"0","school":"6","age":"12"},{"start_time":1551800681584,"click_time":1551800683415,"finger_time":1551800683315,"fix_duration":987.7081235033271,"trial":19,"RT":1731,"MT":100,"sideResp":1,"stimulus":[],"xmouse":[798,798,798,798,798,798,798,798,798,798,798,798,798,798,798,798,798,798,798,798,798,798,798,798,798,798,798,798,798,798,798,798,798,798,798,798,798,798,798,798,798,798,798,798,798,798,798,798,798,798,798,798,798,798,798,798,798,798,798,798,798,798,798,798,798,798,798,798,798,798,798,798,798,798,798,798,798,798,798,798,798,798,798,798,802,802,742,696,644,580,522,488],"ymouse":[552,552,552,552,552,552,552,552,552,552,552,552,552,552,552,552,552,552,552,552,552,552,552,552,552,552,552,552,552,552,552,552,552,552,552,552,552,552,552,552,552,552,552,552,552,552,552,552,552,552,552,552,552,552,552,552,552,552,552,552,552,552,552,552,552,552,552,552,552,552,552,552,552,552,552,552,552,552,552,552,552,552,552,552,548,529,421,341,257,172,112,79],"timestamp_mouse":[11,31,52,71,91,111,131,151,171,192,211,231,251,271,291,311,331,351,371,391,411,431,452,471,491,511,532,551,571,591,611,631,651,671,691,711,731,751,771,792,811,831,851,871,891,911,931,951,971,991,1011,1032,1051,1071,1091,1112,1131,1152,1171,1192,1212,1231,1251,1272,1291,1311,1331,1351,1371,1391,1411,1432,1451,1471,1491,1511,1531,1551,1571,1591,1611,1631,1652,1671,1692,1711,1731,1751,1771,1792,1811,1831],"xSR":741.5,"ySR":494.65000000000003,"xT1":424.9,"yT1":0,"xT2":1058.1,"yT2":0,"toosoon":0,"cond_shown":"Incongruent","ratio_trial":100,"L_num":3,"L_den":6,"R_num":4,"R_den":10,"correct_side":1,"subjID":"SANTIAGOMARTIN18","gender":"0","school":"6","age":"12"},{"start_time":1551800687107,"click_time":1551800688575,"finger_time":1551800688454,"fix_duration":629.9691148030013,"trial":20,"RT":1347,"MT":121,"sideResp":1,"stimulus":[],"xmouse":[772,772,772,772,772,772,772,772,772,772,772,772,772,772,772,772,772,772,772,772,772,772,772,772,772,772,772,772,772,772,772,772,772,772,772,772,772,772,772,772,772,772,772,772,772,772,772,772,772,772,772,772,772,772,772,772,772,772,772,772,772,772,772,772,772,772,771,769,766,761,684,617,547,483],"ymouse":[502,502,502,502,502,502,502,502,502,502,502,502,502,502,502,502,502,502,502,502,502,502,502,502,502,502,502,502,502,502,502,502,502,502,502,502,502,502,502,502,502,502,502,502,502,502,502,502,502,502,502,502,502,502,502,502,502,502,502,502,502,502,502,502,502,502,501,494,483,451,264,172,107,41],"timestamp_mouse":[8,34,46,67,87,106,128,146,166,186,207,226,247,267,287,306,326,348,366,386,406,426,448,466,487,507,526,546,567,587,607,627,646,666,687,707,726,746,766,787,807,827,847,866,886,906,926,946,966,986,1006,1026,1046,1067,1086,1106,1127,1146,1166,1186,1206,1227,1247,1267,1286,1307,1328,1347,1366,1386,1407,1426,1447,1468],"xSR":741.5,"ySR":494.65000000000003,"xT1":424.9,"yT1":0,"xT2":1058.1,"yT2":0,"toosoon":0,"cond_shown":"Congruent","ratio_trial":300,"L_num":20,"L_den":25,"R_num":14,"R_den":28,"correct_side":1,"subjID":"SANTIAGOMARTIN18","gender":"0","school":"6","age":"12"},{"start_time":1551800694039,"click_time":1551800696534,"finger_time":1551800696034,"fix_duration":263.64686855134124,"trial":21,"RT":1995,"MT":500,"sideResp":1,"stimulus":[],"xmouse":[755,758,761,764,764,764,764,764,765,765,765,765,765,765,765,765,765,765,765,765,765,765,765,765,765,765,765,765,765,765,765,765,765,765,765,765,765,765,765,765,765,765,765,765,765,765,765,765,765,765,765,765,765,765,765,765,765,765,765,765,765,765,765,765,765,765,765,765,765,765,765,765,765,765,765,765,765,765,765,765,765,765,765,765,765,765,765,765,765,765,765,765,765,765,765,765,765,765,766,727,687,656,626,617,623,632,638,638,638,629,606,543,484,406,390,382,379,378,379,388,393,399,405,424,434],"ymouse":[538,538,538,539,539,539,539,539,539,539,539,539,539,539,539,539,539,539,539,539,539,539,539,539,539,539,539,539,539,539,539,539,539,539,539,539,539,539,539,539,539,539,539,539,539,539,539,539,539,539,539,539,539,539,539,539,539,539,539,539,539,539,539,539,539,539,539,539,539,539,539,539,539,539,539,539,539,539,539,539,539,539,539,539,539,539,539,539,539,539,539,539,539,539,539,539,539,539,538,486,448,409,340,278,260,249,243,243,242,238,229,197,173,148,141,137,134,133,127,125,123,120,116,100,93],"timestamp_mouse":[15,35,55,74,95,115,134,154,175,194,214,234,254,274,294,315,334,354,375,395,414,434,455,475,494,514,535,554,574,596,616,634,654,674,694,714,735,755,774,794,815,834,854,874,894,914,935,954,974,994,1014,1034,1054,1074,1095,1115,1134,1154,1175,1195,1215,1235,1255,1274,1294,1315,1335,1356,1374,1394,1415,1435,1455,1474,1494,1515,1535,1556,1574,1595,1615,1634,1656,1675,1695,1714,1734,1754,1775,1794,1815,1834,1856,1875,1896,1915,1935,1955,1975,1995,2016,2035,2055,2074,2094,2114,2134,2154,2175,2195,2215,2236,2254,2274,2295,2316,2335,2354,2375,2395,2416,2435,2454,2475,2494],"xSR":741.5,"ySR":494.65000000000003,"xT1":424.9,"yT1":0,"xT2":1058.1,"yT2":0,"toosoon":0,"cond_shown":"Congruent","ratio_trial":200,"L_num":8,"L_den":15,"R_num":3,"R_den":9,"correct_side":1,"subjID":"SANTIAGOMARTIN18","gender":"0","school":"6","age":"12"},{"start_time":1551800699264,"click_time":1551800700974,"finger_time":1551800700614,"fix_duration":1489.0842540429053,"trial":22,"RT":1350,"MT":360,"sideResp":1,"stimulus":[],"xmouse":[804,804,804,804,804,804,804,804,804,804,804,804,804,804,804,804,804,804,804,804,804,804,804,804,804,804,804,804,804,804,804,804,804,804,804,804,804,804,804,804,804,804,804,804,804,804,804,804,804,804,804,804,804,804,804,804,804,804,804,804,804,804,804,804,804,804,804,792,761,684,646,501,390,377,373,373,373,377,379,381,382,386,397,409,422,434],"ymouse":[504,504,504,504,504,504,504,504,504,504,504,504,504,504,504,504,504,504,504,504,504,504,504,504,504,504,504,504,504,504,504,504,504,504,504,504,504,504,504,504,504,504,504,504,504,504,504,504,504,504,504,504,504,504,504,504,504,504,504,504,504,504,504,504,504,504,504,477,435,359,328,220,135,123,117,114,111,109,106,100,94,85,77,72,66,62],"timestamp_mouse":[10,31,50,70,90,110,130,151,169,189,209,229,249,270,289,309,330,350,369,389,409,429,449,470,489,509,529,550,570,589,609,630,650,669,691,710,729,750,769,789,810,829,849,870,890,911,929,949,969,989,1010,1030,1049,1069,1090,1109,1129,1149,1170,1190,1210,1230,1249,1269,1290,1310,1329,1350,1370,1389,1411,1430,1450,1469,1489,1511,1529,1550,1569,1590,1609,1629,1649,1669,1689,1710],"xSR":741.5,"ySR":494.65000000000003,"xT1":424.9,"yT1":0,"xT2":1058.1,"yT2":0,"toosoon":0,"cond_shown":"Incongruent","ratio_trial":300,"L_num":4,"L_den":5,"R_num":6,"R_den":12,"correct_side":1,"subjID":"SANTIAGOMARTIN18","gender":"0","school":"6","age":"12"},{"start_time":1551800703144,"click_time":1551800704934,"finger_time":1551800704174,"fix_duration":949.432153835302,"trial":23,"RT":1030,"MT":760,"sideResp":2,"stimulus":[],"xmouse":[791,791,791,791,791,791,791,791,791,791,791,791,791,791,791,791,791,791,791,791,791,791,791,791,791,791,791,791,791,791,791,791,791,791,791,791,791,791,791,791,791,791,791,791,791,791,791,791,791,791,793,807,817,840,852,880,915,943,979,984,988,989,991,1001,1011,1024,1024,1024,1024,1024,1024,1024,1024,1024,1024,1024,1024,1024,1024,1024,1024,1024,1024,1024,1024,1024,1024,1024,1024,1079],"ymouse":[503,503,503,503,503,503,503,503,503,503,503,503,503,503,503,503,503,503,503,503,503,503,503,503,503,503,503,503,503,503,503,503,503,503,503,503,503,503,503,503,503,503,503,503,503,503,503,503,503,503,500,488,476,426,383,316,225,140,67,56,50,47,42,29,18,5,5,5,5,5,5,5,5,5,5,5,5,5,5,5,5,5,5,5,5,5,5,5,5,15],"timestamp_mouse":[11,29,49,70,90,110,129,149,169,189,209,229,249,270,290,309,329,350,369,389,409,430,450,470,489,509,529,549,569,589,610,629,649,671,690,710,729,749,769,789,810,830,850,870,890,909,929,949,969,989,1010,1030,1049,1069,1090,1110,1129,1149,1169,1190,1209,1229,1250,1269,1289,1311,1330,1349,1369,1389,1409,1430,1451,1470,1489,1510,1529,1549,1569,1590,1610,1629,1649,1670,1690,1709,1729,1750,1770,1790],"xSR":741.5,"ySR":494.65000000000003,"xT1":424.9,"yT1":0,"xT2":1058.1,"yT2":0,"toosoon":0,"cond_shown":"Incongruent","ratio_trial":200,"L_num":4,"L_den":30,"R_num":1,"R_den":3,"correct_side":2,"subjID":"SANTIAGOMARTIN18","gender":"0","school":"6","age":"12"},{"start_time":1551800707297,"click_time":1551800709513,"finger_time":1551800708833,"fix_duration":1222.3939686374126,"trial":24,"RT":1536,"MT":680,"sideResp":2,"stimulus":[],"xmouse":[813,813,813,813,813,813,813,813,813,813,813,813,813,813,813,813,813,813,813,813,813,813,813,813,813,813,813,812,808,805,805,805,805,805,805,810,810,810,810,810,810,810,810,810,810,810,810,810,810,810,810,810,810,810,810,810,810,810,810,810,810,810,810,810,810,810,810,810,810,810,810,810,810,810,810,810,794,775,749,729,697,676,653,629,600,549,537,533,533,533,530,527,525,525,525,525,525,525,525,525,534,550,571,600,656,823,907,984,1029,1055,1062],"ymouse":[527,527,527,527,527,527,527,527,527,527,527,527,527,527,527,527,527,527,527,527,527,527,527,527,527,527,527,528,526,521,521,521,521,521,520,521,522,522,522,522,522,522,522,522,522,522,522,522,522,522,522,522,522,522,522,522,522,522,522,522,522,522,522,522,522,522,522,522,522,522,522,522,522,522,522,520,493,468,431,403,348,313,275,244,215,179,172,170,169,167,164,161,161,160,160,159,159,159,159,158,149,144,138,131,125,107,96,83,73,67,63],"timestamp_mouse":[28,37,57,76,96,116,136,157,177,198,216,236,256,276,297,317,336,356,376,396,417,437,456,477,496,516,536,556,577,597,617,637,656,676,697,717,737,756,776,796,816,836,857,877,898,917,937,956,977,997,1017,1036,1056,1076,1096,1116,1137,1157,1176,1196,1216,1236,1257,1277,1297,1316,1336,1356,1377,1397,1416,1436,1456,1477,1496,1517,1536,1556,1576,1596,1616,1637,1657,1676,1697,1716,1736,1756,1777,1796,1816,1836,1857,1876,1897,1917,1937,1956,1976,1996,2016,2036,2056,2076,2096,2116,2137,2157,2176,2197,2216],"xSR":741.5,"ySR":494.65000000000003,"xT1":424.9,"yT1":0,"xT2":1058.1,"yT2":0,"toosoon":0,"cond_shown":"Incongruent","ratio_trial":100,"L_num":13,"L_den":26,"R_num":6,"R_den":10,"correct_side":2,"subjID":"SANTIAGOMARTIN18","gender":"0","school":"6","age":"12"},{"start_time":1551800711488,"click_time":1551800713113,"finger_time":1551800712954,"fix_duration":773.4950715081092,"trial":25,"RT":1466,"MT":159,"sideResp":1,"stimulus":[],"xmouse":[821,821,821,821,821,821,821,821,821,821,821,821,821,821,821,821,821,821,821,821,821,821,821,821,821,821,821,821,821,821,821,821,821,821,821,821,821,821,821,821,821,821,821,821,821,821,821,821,821,821,821,821,821,821,821,821,821,821,821,821,821,821,821,821,821,821,821,821,821,821,821,818,796,768,718,648,544,532,524,524,522,518],"ymouse":[554,554,554,554,554,554,554,554,554,554,554,554,554,554,554,554,554,554,554,554,554,554,554,554,554,554,554,554,554,554,554,554,554,554,554,554,554,554,554,554,554,554,554,554,554,554,554,554,554,554,554,554,554,554,554,554,554,554,554,554,554,554,554,554,554,554,554,554,554,554,554,550,501,446,363,265,144,128,111,106,100,93],"timestamp_mouse":[8,36,45,65,85,105,125,145,166,185,206,226,245,267,285,305,325,345,366,386,406,427,447,465,486,505,526,545,565,586,606,625,645,665,685,705,726,745,766,785,805,825,845,866,885,906,925,945,965,985,1005,1025,1045,1065,1086,1106,1125,1145,1165,1185,1206,1226,1245,1265,1285,1305,1325,1346,1365,1385,1406,1426,1445,1466,1485,1507,1525,1545,1565,1586,1606,1625],"xSR":741.5,"ySR":494.65000000000003,"xT1":424.9,"yT1":0,"xT2":1058.1,"yT2":0,"toosoon":0,"cond_shown":"Congruent","ratio_trial":300,"L_num":3,"L_den":12,"R_num":11,"R_den":20,"correct_side":2,"subjID":"SANTIAGOMARTIN18","gender":"0","school":"6","age":"12"},{"start_time":1551800718658,"click_time":1551800719873,"finger_time":1551800719653,"fix_duration":1362.6526288033517,"trial":26,"RT":995,"MT":220,"sideResp":2,"stimulus":[],"xmouse":[790,790,790,790,790,790,790,790,790,790,790,790,790,790,790,790,790,790,790,790,790,790,790,790,790,790,790,790,790,790,790,790,790,790,790,790,790,790,790,790,790,790,790,790,790,790,790,798,810,834,864,905,954,979,1000,1019,1029,1045,1051,1058,1060],"ymouse":[541,541,541,541,541,541,541,541,541,541,541,541,541,541,541,541,541,541,541,541,541,541,541,541,541,541,541,541,541,541,541,541,541,541,541,541,541,541,541,541,541,541,541,541,541,541,541,529,508,465,419,359,278,228,175,130,108,75,68,56,53],"timestamp_mouse":[15,35,55,75,95,115,135,155,175,195,215,235,256,276,295,315,335,355,375,395,415,436,456,475,495,515,535,556,576,596,616,635,655,675,695,715,735,755,775,795,816,835,856,876,896,915,935,956,976,995,1016,1035,1056,1075,1096,1116,1136,1155,1175,1195,1215],"xSR":741.5,"ySR":494.65000000000003,"xT1":424.9,"yT1":0,"xT2":1058.1,"yT2":0,"toosoon":0,"cond_shown":"Incongruent","ratio_trial":100,"L_num":17,"L_den":30,"R_num":10,"R_den":15,"correct_side":2,"subjID":"SANTIAGOMARTIN18","gender":"0","school":"6","age":"12"},{"start_time":1551800722811,"click_time":1551800724154,"finger_time":1551800723994,"fix_duration":597.6139092542165,"trial":27,"RT":1183,"MT":160,"sideResp":2,"stimulus":[],"xmouse":[782,782,782,782,782,782,782,782,782,782,782,782,782,782,782,782,782,782,782,782,782,782,782,782,782,782,782,782,782,782,782,782,782,782,782,782,782,782,782,782,782,782,782,782,782,782,782,782,782,782,782,782,782,782,782,782,785,796,819,860,944,961,970,987,1026,1072,1082,1086],"ymouse":[565,565,565,565,565,565,565,565,565,565,565,565,565,565,565,565,565,565,565,565,565,565,565,565,565,565,565,565,565,565,565,565,565,565,565,565,565,565,565,565,565,565,565,565,565,565,565,565,565,565,565,565,565,565,565,565,561,553,536,502,381,343,315,278,204,122,101,89],"timestamp_mouse":[7,29,42,62,82,102,122,142,162,182,202,224,243,262,283,302,324,343,363,382,402,422,442,463,483,502,522,543,563,582,603,623,643,663,682,702,724,742,762,784,803,822,844,863,883,902,923,942,962,983,1002,1022,1043,1063,1082,1102,1122,1143,1162,1183,1202,1223,1243,1262,1282,1302,1323,1342],"xSR":741.5,"ySR":494.65000000000003,"xT1":424.9,"yT1":0,"xT2":1058.1,"yT2":0,"toosoon":0,"cond_shown":"Congruent","ratio_trial":100,"L_num":8,"L_den":16,"R_num":2,"R_den":5,"correct_side":1,"subjID":"SANTIAGOMARTIN18","gender":"0","school":"6","age":"12"},{"start_time":1551800725634,"click_time":1551800726833,"finger_time":1551800726673,"fix_duration":619.202563197126,"trial":28,"RT":1039,"MT":160,"sideResp":2,"stimulus":[],"xmouse":[809,809,809,809,809,809,809,809,809,809,809,809,809,809,809,809,809,809,809,809,809,809,809,809,809,809,809,809,809,809,809,809,809,809,809,809,809,809,809,809,809,809,809,809,809,809,809,809,809,809,816,829,851,903,982,1007,1024,1031,1039,1055,1063],"ymouse":[535,535,535,535,535,535,535,535,535,535,535,535,535,535,535,535,535,535,535,535,535,535,535,535,535,535,535,535,535,535,535,535,535,535,535,535,535,535,535,535,535,535,535,535,535,535,535,535,535,535,525,507,472,384,253,206,168,143,117,87,79],"timestamp_mouse":[1,25,39,59,79,99,119,140,160,179,199,221,240,259,280,299,319,340,361,380,400,419,439,460,480,500,520,539,559,579,599,619,639,660,680,700,720,740,759,779,800,820,839,859,879,899,919,939,960,980,1000,1020,1039,1059,1079,1099,1120,1139,1160,1179,1199],"xSR":741.5,"ySR":494.65000000000003,"xT1":424.9,"yT1":0,"xT2":1058.1,"yT2":0,"toosoon":0,"cond_shown":"Incongruent","ratio_trial":300,"L_num":4,"L_den":20,"R_num":2,"R_den":4,"correct_side":2,"subjID":"SANTIAGOMARTIN18","gender":"0","school":"6","age":"12"},{"start_time":1551800728317,"click_time":1551800730675,"finger_time":1551800730173,"fix_duration":681.3342813963219,"trial":29,"RT":1856,"MT":502,"sideResp":2,"stimulus":[],"xmouse":[825,825,825,825,825,824,824,824,824,824,824,824,824,824,824,824,824,824,824,824,824,824,824,824,824,824,824,824,824,824,824,824,824,824,824,824,824,824,824,824,824,824,824,824,824,824,824,824,824,824,824,824,824,824,824,824,824,824,824,824,824,824,824,824,824,824,824,824,824,824,824,824,824,824,824,824,824,824,824,824,824,824,824,824,824,824,824,824,824,824,826,835,848,877,955,984,1010,1024,1028,1029,1031,1032,1036,1049,1049,1049,1049,1049,1049,1049,1049,1049,1049,1049,1049,1049,1049,1105],"ymouse":[529,529,529,529,529,530,530,530,530,530,530,530,530,530,530,530,530,530,530,530,530,530,530,530,530,530,530,530,530,530,530,530,530,530,530,530,530,530,530,530,530,530,530,530,530,530,530,530,530,530,530,530,530,530,530,530,530,530,530,530,530,530,530,530,530,530,530,530,530,530,530,530,530,530,530,530,530,530,530,530,530,530,530,530,530,530,530,530,530,530,528,513,485,425,265,202,138,84,64,41,35,28,20,2,2,2,2,2,2,2,2,2,2,2,2,2,2,1],"timestamp_mouse":[17,36,56,76,97,116,136,156,177,197,216,238,258,277,297,317,337,356,376,396,416,436,456,477,496,517,536,556,576,597,616,636,656,676,697,717,737,756,776,796,817,837,856,876,896,917,937,958,976,996,1017,1037,1056,1076,1096,1116,1136,1156,1176,1197,1217,1236,1256,1276,1297,1317,1338,1356,1376,1396,1417,1437,1456,1476,1496,1516,1536,1556,1577,1597,1616,1636,1658,1677,1697,1716,1736,1756,1776,1796,1816,1837,1856,1878,1896,1917,1937,1956,1976,1996,2016,2036,2056,2076,2097,2117,2136,2157,2177,2197,2217,2236,2256,2278,2296,2318,2336,2358],"xSR":741.5,"ySR":494.65000000000003,"xT1":424.9,"yT1":0,"xT2":1058.1,"yT2":0,"toosoon":0,"cond_shown":"Congruent","ratio_trial":100,"L_num":7,"L_den":14,"R_num":15,"R_den":25,"correct_side":2,"subjID":"SANTIAGOMARTIN18","gender":"0","school":"6","age":"12"},{"start_time":1551800732312,"click_time":1551800734033,"finger_time":1551800733733,"fix_duration":618.8085892678245,"trial":30,"RT":1421,"MT":300,"sideResp":1,"stimulus":[],"xmouse":[786,786,786,786,786,786,786,786,786,786,786,786,786,786,786,786,786,786,786,786,786,786,786,786,786,786,786,786,786,786,786,786,786,786,786,786,786,786,786,786,786,786,786,786,786,786,786,786,786,786,786,786,786,786,786,786,786,786,786,786,786,786,786,786,786,786,786,786,786,786,776,760,730,705,676,626,612,601,594,586,565,555,545,538,532,515,496],"ymouse":[526,526,526,526,526,526,526,526,526,526,526,526,526,526,526,526,526,526,526,526,526,526,526,526,526,526,526,526,526,526,526,526,526,526,526,526,526,526,526,526,526,526,526,526,526,526,526,526,526,526,526,526,526,526,526,526,526,526,526,526,526,526,526,526,526,526,526,526,526,526,505,482,449,419,387,330,311,294,279,257,222,207,194,181,166,126,99],"timestamp_mouse":[7,25,41,62,82,101,121,141,161,182,202,221,241,261,281,302,322,341,361,381,401,421,442,462,481,501,521,541,561,582,602,621,641,661,681,702,722,741,761,781,801,822,842,861,881,901,921,942,962,981,1002,1021,1042,1062,1083,1101,1121,1142,1162,1182,1201,1221,1242,1262,1281,1302,1321,1341,1361,1381,1401,1421,1442,1461,1482,1501,1521,1541,1562,1581,1601,1621,1642,1661,1681,1701,1721],"xSR":741.5,"ySR":494.65000000000003,"xT1":424.9,"yT1":0,"xT2":1058.1,"yT2":0,"toosoon":0,"cond_shown":"Congruent","ratio_trial":300,"L_num":4,"L_den":5,"R_num":2,"R_den":4,"correct_side":1,"subjID":"SANTIAGOMARTIN18","gender":"0","school":"6","age":"12"},{"start_time":1551800735624,"click_time":1551800737094,"finger_time":1551800736893,"fix_duration":250,"trial":31,"RT":1269,"MT":201,"sideResp":2,"stimulus":[],"xmouse":[756,756,756,756,756,756,756,756,756,756,756,756,756,756,756,756,756,756,756,756,756,756,756,756,756,756,756,756,756,756,756,756,756,756,756,756,756,756,756,756,756,756,756,756,756,756,756,756,756,756,756,756,756,756,756,756,756,756,756,756,765,770,783,807,844,870,896,925,992,1019,1036,1048,1058,1072],"ymouse":[541,541,541,541,541,541,541,541,541,541,541,541,541,541,541,541,541,541,541,541,541,541,541,541,541,541,541,541,541,541,541,541,541,541,541,541,541,541,541,541,541,541,541,541,541,541,541,541,541,541,541,541,541,541,541,541,541,541,541,541,535,530,517,490,445,409,366,327,227,182,148,128,110,87],"timestamp_mouse":[9,29,49,69,89,110,130,150,169,189,209,230,250,269,291,309,329,349,369,389,409,429,449,469,490,509,531,550,570,589,609,629,649,669,691,710,729,750,769,789,811,830,849,869,889,910,929,949,969,990,1009,1030,1050,1070,1089,1109,1129,1149,1170,1189,1210,1229,1249,1269,1289,1310,1329,1350,1371,1389,1410,1430,1450,1469],"xSR":741.5,"ySR":494.65000000000003,"xT1":424.9,"yT1":0,"xT2":1058.1,"yT2":0,"toosoon":0,"cond_shown":"Incongruent","ratio_trial":300,"L_num":4,"L_den":20,"R_num":2,"R_den":4,"correct_side":2,"subjID":"SANTIAGOMARTIN18","gender":"0","school":"6","age":"12"},{"start_time":1551800740626,"click_time":1551800742573,"finger_time":1551800742333,"fix_duration":310.1296507535506,"trial":32,"RT":1707,"MT":240,"sideResp":1,"stimulus":[],"xmouse":[790,790,790,790,790,790,790,790,790,790,790,790,790,790,790,790,790,790,790,790,790,790,790,790,790,790,790,790,790,790,790,790,790,790,790,790,790,790,790,790,790,790,790,790,790,790,790,790,790,790,790,790,790,790,790,790,790,790,790,790,790,790,790,790,790,790,790,790,790,790,790,790,790,790,790,790,790,790,790,790,790,790,790,790,790,788,782,771,754,708,682,652,619,578,549,537,528,521],"ymouse":[516,517,517,517,517,517,517,517,517,517,517,517,517,517,517,517,517,517,517,517,517,517,517,517,517,517,517,517,517,517,517,517,517,517,517,517,517,517,517,517,517,517,517,517,517,517,517,517,517,517,517,517,517,517,517,517,517,517,517,517,517,517,517,517,517,517,517,517,517,517,517,517,517,517,517,517,517,517,517,517,517,517,517,517,505,488,462,428,390,310,274,235,199,158,121,105,93,82],"timestamp_mouse":[8,32,47,67,87,107,128,147,168,188,207,227,248,268,288,308,328,347,367,387,407,427,448,468,487,509,528,547,567,587,607,627,647,667,687,707,727,747,767,787,807,827,848,868,889,908,928,947,968,987,1007,1027,1047,1067,1088,1107,1127,1147,1168,1188,1208,1228,1247,1267,1287,1307,1328,1348,1367,1387,1407,1428,1447,1467,1487,1508,1528,1547,1568,1588,1607,1628,1648,1668,1687,1707,1728,1747,1767,1788,1807,1827,1847,1867,1887,1907,1927,1947],"xSR":741.5,"ySR":494.65000000000003,"xT1":424.9,"yT1":0,"xT2":1058.1,"yT2":0,"toosoon":0,"cond_shown":"Congruent","ratio_trial":100,"L_num":6,"L_den":20,"R_num":5,"R_den":25,"correct_side":1,"subjID":"SANTIAGOMARTIN18","gender":"0","school":"6","age":"12"},{"start_time":1551800746552,"click_time":1551800748093,"finger_time":1551800748013,"fix_duration":1477.8571259051319,"trial":33,"RT":1461,"MT":80,"sideResp":2,"stimulus":[],"xmouse":[817,817,817,817,817,817,817,817,817,817,817,817,817,817,817,817,817,817,817,817,817,817,817,817,817,817,817,817,817,817,817,817,817,817,817,817,817,817,817,817,817,817,817,817,817,817,817,817,817,817,817,817,817,817,817,817,817,817,817,817,817,817,817,817,817,817,817,817,817,817,818,822,830,879,918,975,1042,1132],"ymouse":[559,559,559,559,559,559,559,559,559,559,559,559,559,559,559,559,559,559,559,559,559,559,559,559,559,559,559,559,559,559,559,559,559,559,559,559,559,559,559,559,559,559,559,559,559,559,559,559,559,559,559,559,559,559,559,559,559,559,559,559,559,559,559,559,559,559,559,559,559,559,550,545,529,459,387,301,206,76],"timestamp_mouse":[7,27,41,62,82,102,121,141,161,181,201,221,242,262,282,302,321,341,361,382,403,422,442,461,481,501,521,541,561,581,602,622,641,661,681,702,722,741,761,781,801,821,841,861,881,901,921,942,962,981,1002,1022,1042,1062,1082,1101,1121,1141,1162,1183,1201,1223,1242,1261,1281,1302,1321,1342,1362,1383,1403,1421,1442,1461,1482,1502,1522,1541],"xSR":741.5,"ySR":494.65000000000003,"xT1":424.9,"yT1":0,"xT2":1058.1,"yT2":0,"toosoon":0,"cond_shown":"Congruent","ratio_trial":100,"L_num":10,"L_den":25,"R_num":3,"R_den":10,"correct_side":1,"subjID":"SANTIAGOMARTIN18","gender":"0","school":"6","age":"12"},{"start_time":1551800750741,"click_time":1551800752673,"finger_time":1551800751674,"fix_duration":1464.4903911208626,"trial":34,"RT":933,"MT":999,"sideResp":2,"stimulus":[],"xmouse":[751,751,751,751,751,751,751,751,751,751,751,751,751,751,751,751,751,751,751,751,751,751,751,751,751,751,751,751,751,751,751,751,751,751,751,751,751,751,751,751,751,751,751,751,758,773,803,865,982,1036,1071,1088,1095,1097,1098,1110,1116,1137,1157,1161,1165,1167,1171,1174,1175,1175,1175,1175,1175,1175,1175,1175,1175,1175,1175,1175,1175,1174,1174,1174,1174,1174,1176,1177,1177,1175,1167,1156,1150,1150,1150,1150,1146,1143,1135,1125,1114],"ymouse":[518,518,518,518,518,518,518,518,518,518,518,518,518,518,518,518,518,518,518,518,518,518,518,518,518,518,518,518,518,518,518,518,518,518,519,519,519,519,519,519,519,519,519,519,514,504,477,407,293,253,232,222,216,213,208,184,173,141,111,100,90,81,73,62,59,59,59,59,59,59,59,59,59,59,59,59,60,69,74,81,90,100,117,154,176,196,214,236,243,243,243,243,219,192,145,109,80],"timestamp_mouse":[13,33,53,73,93,113,133,152,174,193,212,232,252,273,292,312,332,353,373,393,412,432,453,473,493,514,533,553,572,593,613,632,652,672,693,714,733,752,772,792,814,833,853,872,893,913,933,952,972,993,1013,1033,1054,1073,1093,1113,1133,1152,1173,1192,1212,1232,1254,1272,1292,1312,1332,1352,1373,1393,1413,1434,1454,1472,1494,1513,1532,1554,1572,1593,1612,1632,1652,1672,1693,1712,1732,1752,1772,1792,1813,1832,1853,1872,1893,1912,1932],"xSR":741.5,"ySR":494.65000000000003,"xT1":424.9,"yT1":0,"xT2":1058.1,"yT2":0,"toosoon":0,"cond_shown":"Congruent","ratio_trial":300,"L_num":8,"L_den":16,"R_num":1,"R_den":5,"correct_side":1,"subjID":"SANTIAGOMARTIN18","gender":"0","school":"6","age":"12"},{"start_time":1551800754025,"click_time":1551800755013,"finger_time":1551800754693,"fix_duration":250,"trial":35,"RT":668,"MT":320,"sideResp":1,"stimulus":[],"xmouse":[811,811,811,811,811,811,811,811,811,811,810,810,809,809,809,809,809,809,809,809,809,809,809,809,809,809,809,809,809,808,807,807,806,801,786,770,756,747,739,717,700,672,643,612,596,594,590,580,567,523],"ymouse":[505,505,505,505,505,505,505,505,505,505,505,505,505,505,505,505,505,505,505,505,505,505,505,505,505,505,504,504,504,503,502,501,498,488,453,426,401,379,358,308,270,211,158,111,93,92,92,91,89,81],"timestamp_mouse":[8,32,50,69,89,108,128,148,169,188,209,228,249,268,289,309,329,348,369,388,409,429,449,469,489,508,528,549,568,588,608,628,649,668,688,708,728,748,769,788,808,828,848,868,888,908,930,948,968,988],"xSR":741.5,"ySR":494.65000000000003,"xT1":424.9,"yT1":0,"xT2":1058.1,"yT2":0,"toosoon":0,"cond_shown":"Incongruent","ratio_trial":300,"L_num":1,"L_den":2,"R_num":3,"R_den":15,"correct_side":1,"subjID":"SANTIAGOMARTIN18","gender":"0","school":"6","age":"12"},{"start_time":1551800757514,"click_time":1551800759614,"finger_time":1551800759013,"fix_duration":1419.8555975134593,"trial":36,"RT":1499,"MT":601,"sideResp":1,"stimulus":[],"xmouse":[801,801,801,801,801,801,801,801,801,801,801,801,801,801,801,801,801,801,801,801,801,801,801,801,801,801,801,801,801,801,801,801,801,801,801,801,801,801,801,801,801,801,801,801,801,801,801,801,801,801,801,801,801,801,801,801,801,801,801,801,801,801,801,801,801,801,801,801,801,801,801,801,801,801,800,787,770,742,715,685,668,661,655,651,649,640,628,604,594,539,515,500,494,490,487,482,480,479,479,479,479,479,479,479,479,477],"ymouse":[543,543,543,543,543,543,543,543,543,543,543,543,543,543,543,543,543,543,543,543,543,543,543,543,543,543,543,543,543,543,543,543,543,543,543,543,543,543,543,543,543,543,543,543,543,543,543,543,543,543,543,543,543,543,543,543,543,543,543,543,543,543,543,543,543,543,543,543,543,543,543,543,543,543,533,488,443,393,345,302,270,258,251,247,245,237,230,213,205,171,158,148,143,140,136,127,122,120,117,115,113,111,108,105,101,97],"timestamp_mouse":[1,27,39,59,79,101,120,139,159,179,200,220,240,259,279,301,320,340,359,380,400,419,440,460,480,501,520,539,559,580,600,620,639,660,680,701,719,739,761,779,799,819,840,860,881,900,920,940,960,979,999,1020,1040,1060,1080,1100,1120,1139,1159,1180,1199,1219,1240,1260,1280,1300,1320,1339,1361,1380,1399,1419,1439,1460,1479,1499,1519,1539,1560,1579,1600,1620,1640,1659,1680,1699,1720,1739,1760,1781,1799,1819,1839,1859,1879,1899,1920,1940,1960,1979,2000,2020,2039,2059,2080,2099],"xSR":741.5,"ySR":494.65000000000003,"xT1":424.9,"yT1":0,"xT2":1058.1,"yT2":0,"toosoon":0,"cond_shown":"Congruent","ratio_trial":100,"L_num":12,"L_den":30,"R_num":13,"R_den":26,"correct_side":2,"subjID":"SANTIAGOMARTIN18","gender":"0","school":"6","age":"12"},{"start_time":1551800766548,"click_time":1551800767874,"finger_time":1551800767533,"fix_duration":1433.5063281639345,"trial":37,"RT":985,"MT":341,"sideResp":2,"stimulus":[],"xmouse":[790,790,790,790,790,790,790,790,790,790,790,790,790,790,790,790,790,790,790,790,790,790,790,790,790,790,790,790,790,790,790,790,790,790,790,790,790,790,790,790,790,790,790,790,790,792,800,814,832,847,868,894,919,981,1014,1040,1061,1082,1108,1119,1129,1131,1132,1137,1140,1140,1140],"ymouse":[526,526,526,526,526,526,526,526,526,526,526,526,526,526,526,526,526,526,526,526,526,526,526,526,526,526,526,526,526,526,526,526,526,526,526,526,526,526,526,526,526,526,526,526,526,527,527,525,517,506,486,452,419,342,304,274,248,214,178,165,153,147,141,119,108,100,97],"timestamp_mouse":[7,26,45,66,86,106,125,145,165,186,206,226,245,265,285,305,325,346,366,385,405,425,445,466,486,506,525,545,565,586,606,626,646,665,685,705,726,746,766,785,805,825,846,866,886,905,925,946,965,985,1006,1026,1045,1065,1085,1105,1126,1145,1165,1185,1205,1225,1245,1265,1286,1305,1325],"xSR":741.5,"ySR":494.65000000000003,"xT1":424.9,"yT1":0,"xT2":1058.1,"yT2":0,"toosoon":0,"cond_shown":"Incongruent","ratio_trial":200,"L_num":11,"L_den":20,"R_num":3,"R_den":4,"correct_side":2,"subjID":"SANTIAGOMARTIN18","gender":"0","school":"6","age":"12"},{"start_time":1551800770488,"click_time":1551800771814,"finger_time":1551800771313,"fix_duration":1454.7350458232947,"trial":38,"RT":825,"MT":501,"sideResp":1,"stimulus":[],"xmouse":[793,793,793,793,793,793,793,793,793,793,793,793,793,793,793,793,793,793,793,793,793,793,793,793,793,793,793,793,793,793,793,793,793,793,793,793,793,793,793,793,788,721,671,618,579,551,508,493,473,452,416,407,407,407,407,407,407,407,407,407,407,407,407,407,407,407,443],"ymouse":[505,505,505,505,505,505,505,505,505,505,505,505,505,505,505,505,505,505,505,505,505,505,505,505,505,505,505,505,505,505,505,505,505,505,505,505,505,505,505,505,503,467,438,401,368,336,255,208,162,109,26,4,4,4,4,4,4,4,4,4,4,4,4,4,4,4,13],"timestamp_mouse":[8,36,45,65,86,106,126,146,166,185,207,227,246,266,286,306,327,345,366,386,405,425,445,465,485,505,525,546,565,585,606,626,646,666,686,705,726,746,765,786,805,825,846,867,886,905,925,945,966,986,1005,1026,1045,1067,1085,1105,1127,1147,1166,1186,1206,1226,1246,1266,1286,1307,1325],"xSR":741.5,"ySR":494.65000000000003,"xT1":424.9,"yT1":0,"xT2":1058.1,"yT2":0,"toosoon":0,"cond_shown":"Incongruent","ratio_trial":100,"L_num":9,"L_den":15,"R_num":13,"R_den":26,"correct_side":1,"subjID":"SANTIAGOMARTIN18","gender":"0","school":"6","age":"12"},{"start_time":1551800773437,"click_time":1551800775853,"finger_time":1551800775595,"fix_duration":401.01515354788864,"trial":39,"RT":2158,"MT":258,"sideResp":2,"stimulus":[],"xmouse":[771,771,771,771,771,771,771,771,771,771,771,771,771,771,771,771,771,771,771,771,771,771,771,771,771,771,771,771,771,771,771,771,771,771,771,771,771,771,771,771,771,771,771,771,771,771,771,771,771,771,771,771,771,771,771,771,771,771,771,771,771,771,771,771,771,771,771,771,771,771,771,771,771,771,771,771,771,771,771,771,771,771,771,771,771,771,771,771,771,771,771,771,771,771,771,771,771,771,771,771,771,771,771,771,771,771,771,1093,1093,1093,1093,1093,1093,1092,1089,1085,1078,1074,1071,1072,1076],"ymouse":[509,509,509,509,509,509,509,509,509,509,509,509,509,509,509,509,509,509,509,509,509,509,509,509,509,509,509,509,509,509,509,509,509,509,509,509,509,509,509,509,509,509,509,509,509,509,509,509,509,509,509,509,509,509,509,509,509,509,509,509,509,509,509,509,509,509,509,509,509,509,509,509,509,509,509,509,509,509,509,509,509,509,509,509,509,509,509,509,509,509,509,509,509,509,509,509,509,509,509,509,509,509,509,509,509,509,509,228,228,228,228,228,228,227,222,210,191,169,124,105,75],"timestamp_mouse":[18,38,57,76,96,116,136,157,177,196,216,237,256,277,297,317,336,356,377,397,416,437,457,477,496,516,536,556,577,597,618,636,656,676,696,717,737,757,776,796,816,836,857,877,897,916,936,956,977,997,1018,1037,1056,1076,1096,1117,1137,1157,1176,1196,1216,1236,1256,1277,1297,1317,1336,1356,1376,1396,1416,1436,1457,1477,1497,1516,1536,1556,1577,1597,1617,1636,1656,1676,1696,1717,1737,1757,1776,1796,1816,1836,1856,1877,1897,1917,1936,1956,1976,1997,2017,2036,2057,2077,2097,2116,2136,2158,2176,2198,2217,2236,2256,2276,2297,2316,2337,2356,2376,2396,2416],"xSR":741.5,"ySR":494.65000000000003,"xT1":424.9,"yT1":0,"xT2":1058.1,"yT2":0,"toosoon":0,"cond_shown":"Congruent","ratio_trial":200,"L_num":13,"L_den":26,"R_num":14,"R_den":20,"correct_side":2,"subjID":"SANTIAGOMARTIN18","gender":"0","school":"6","age":"12"},{"start_time":1551800777843,"click_time":1551800778874,"finger_time":1551800778573,"fix_duration":708.2821313591527,"trial":40,"RT":730,"MT":301,"sideResp":2,"stimulus":[],"xmouse":[813,812,811,811,811,811,811,811,811,811,811,811,811,811,811,811,811,811,811,811,811,811,811,811,811,811,811,811,811,811,811,811,811,811,819,829,842,856,900,929,957,983,1019,1048,1063,1073,1079,1081,1081,1081,1081,1081],"ymouse":[520,520,520,520,520,520,520,520,520,520,520,520,520,520,520,520,520,520,520,520,520,520,520,520,520,520,520,520,520,520,520,520,520,520,515,508,493,473,411,370,315,253,183,141,127,118,110,107,106,103,100,91],"timestamp_mouse":[11,31,50,71,91,110,131,151,171,191,210,230,250,271,291,311,330,350,370,390,411,431,451,470,491,512,530,550,570,591,611,631,650,670,690,710,730,751,771,790,810,830,850,870,891,910,930,950,970,991,1011,1031],"xSR":741.5,"ySR":494.65000000000003,"xT1":424.9,"yT1":0,"xT2":1058.1,"yT2":0,"toosoon":0,"cond_shown":"Incongruent","ratio_trial":200,"L_num":11,"L_den":20,"R_num":3,"R_den":4,"correct_side":2,"subjID":"SANTIAGOMARTIN18","gender":"0","school":"6","age":"12"},{"start_time":1551800782999,"click_time":1551800784173,"finger_time":1551800784053,"fix_duration":1285.1263379889947,"trial":41,"RT":1054,"MT":120,"sideResp":1,"stimulus":[],"xmouse":[786,786,786,786,786,786,786,786,786,786,786,786,786,786,786,786,786,786,786,786,786,786,786,786,786,786,786,786,786,786,786,786,786,786,786,786,786,786,786,788,790,791,792,793,793,793,793,793,793,793,793,787,776,750,699,597,551,496,448],"ymouse":[510,510,510,510,510,510,510,510,510,510,510,510,510,510,510,510,510,510,510,510,510,510,510,510,510,510,510,510,510,510,510,510,510,510,510,510,510,510,510,510,510,510,510,510,510,510,510,510,510,510,509,495,474,429,334,209,164,110,73],"timestamp_mouse":[25,34,55,75,94,114,134,155,175,194,214,234,254,275,295,315,334,354,374,395,415,435,454,474,494,515,535,555,574,594,614,634,655,675,695,714,734,754,774,794,814,835,854,875,894,914,934,954,975,994,1014,1035,1054,1076,1094,1114,1134,1154,1174],"xSR":741.5,"ySR":494.65000000000003,"xT1":424.9,"yT1":0,"xT2":1058.1,"yT2":0,"toosoon":0,"cond_shown":"Congruent","ratio_trial":200,"L_num":15,"L_den":25,"R_num":4,"R_den":10,"correct_side":1,"subjID":"SANTIAGOMARTIN18","gender":"0","school":"6","age":"12"},{"start_time":1551800786145,"click_time":1551800787514,"finger_time":1551800787053,"fix_duration":649.444423211494,"trial":42,"RT":908,"MT":461,"sideResp":2,"stimulus":[],"xmouse":[818,818,818,818,818,818,818,818,818,818,818,818,818,818,818,818,818,818,818,818,818,818,818,818,818,818,818,818,818,818,818,818,818,818,818,818,818,818,818,818,818,818,818,818,821,827,845,865,972,1041,1100,1143,1169,1194,1199,1200,1200,1200,1200,1200,1200,1200,1200,1200,1200,1198,1191,1180,1146],"ymouse":[508,508,508,508,508,508,508,508,508,508,508,508,508,508,508,508,508,508,508,508,508,508,508,508,508,508,508,508,508,508,508,508,508,508,508,508,508,508,508,508,508,508,508,507,502,492,472,449,316,233,163,114,85,62,57,50,46,38,29,27,27,27,27,27,26,26,28,35,49],"timestamp_mouse":[8,31,49,69,89,108,129,149,169,189,208,228,248,268,289,308,328,348,368,390,408,428,448,469,489,509,528,548,568,589,608,629,649,668,688,708,729,749,769,789,808,828,848,868,888,908,928,948,968,988,1010,1029,1048,1068,1088,1108,1128,1148,1168,1189,1209,1229,1248,1268,1288,1308,1328,1348,1369],"xSR":741.5,"ySR":494.65000000000003,"xT1":424.9,"yT1":0,"xT2":1058.1,"yT2":0,"toosoon":0,"cond_shown":"Incongruent","ratio_trial":300,"L_num":4,"L_den":20,"R_num":2,"R_den":4,"correct_side":2,"subjID":"SANTIAGOMARTIN18","gender":"0","school":"6","age":"12"},{"start_time":1551800791370,"click_time":1551800792213,"finger_time":1551800792133,"fix_duration":955.1045947689088,"trial":43,"RT":763,"MT":80,"sideResp":2,"stimulus":[],"xmouse":[811,811,811,811,811,811,811,811,811,811,811,811,811,811,811,811,811,811,811,811,811,811,811,811,811,811,811,811,811,811,811,811,811,811,811,811,811,820,833,852,890,1011,1119],"ymouse":[521,521,521,521,521,521,521,521,521,521,521,521,521,521,521,521,521,521,521,521,521,521,521,521,521,521,521,521,521,521,521,521,521,521,521,521,521,502,475,432,368,201,32],"timestamp_mouse":[6,24,44,64,83,103,124,144,164,183,204,223,244,264,283,304,324,344,364,384,405,424,443,464,483,504,524,544,563,583,603,623,644,664,683,704,724,743,763,783,804,825,843],"xSR":741.5,"ySR":494.65000000000003,"xT1":424.9,"yT1":0,"xT2":1058.1,"yT2":0,"toosoon":0,"cond_shown":"Incongruent","ratio_trial":300,"L_num":4,"L_den":20,"R_num":2,"R_den":4,"correct_side":2,"subjID":"SANTIAGOMARTIN18","gender":"0","school":"6","age":"12"},{"start_time":1551800794105,"click_time":1551800795553,"finger_time":1551800795253,"fix_duration":250,"trial":44,"RT":1148,"MT":300,"sideResp":1,"stimulus":[],"xmouse":[756,756,756,756,756,756,756,756,756,756,756,756,756,756,756,756,756,756,756,756,756,756,756,756,756,756,756,756,756,756,756,756,756,756,756,756,756,756,756,756,756,756,756,756,756,756,756,756,756,756,756,756,756,756,756,756,748,741,725,709,675,651,593,541,497,430,423,416,413,412,420,433,448],"ymouse":[510,510,510,510,510,510,510,510,510,510,510,510,510,510,510,510,510,510,510,510,510,510,510,510,510,510,510,510,510,510,510,510,510,510,510,510,510,510,510,510,510,510,510,510,510,510,510,510,510,510,510,510,510,510,510,510,504,498,486,477,452,423,355,296,256,192,185,178,169,158,134,113,91],"timestamp_mouse":[11,36,49,69,89,108,128,149,169,190,209,229,248,268,288,308,328,348,368,388,408,428,449,468,488,509,529,549,570,588,608,629,648,668,690,709,729,748,769,789,809,828,850,869,889,910,929,948,969,988,1009,1029,1049,1068,1089,1108,1128,1148,1168,1188,1208,1228,1250,1268,1288,1308,1328,1349,1368,1388,1408,1428,1448],"xSR":741.5,"ySR":494.65000000000003,"xT1":424.9,"yT1":0,"xT2":1058.1,"yT2":0,"toosoon":0,"cond_shown":"Congruent","ratio_trial":300,"L_num":18,"L_den":20,"R_num":9,"R_den":15,"correct_side":1,"subjID":"SANTIAGOMARTIN18","gender":"0","school":"6","age":"12"},{"start_time":1551800797509,"click_time":1551800798873,"finger_time":1551800798413,"fix_duration":853.6348764403057,"trial":45,"RT":904,"MT":460,"sideResp":2,"stimulus":[],"xmouse":[807,807,807,807,807,807,807,807,807,807,807,807,807,807,807,807,807,807,807,807,807,807,807,807,807,807,807,807,807,807,807,807,807,807,807,807,807,807,807,807,807,807,807,809,813,845,871,901,947,973,1000,1000,1000,1000,1000,1000,1000,1000,1000,1000,1000,1000,1000,1000,1038,1046,1049,1056,1068],"ymouse":[512,512,512,512,512,512,512,512,512,512,512,512,512,512,512,512,512,512,512,512,512,512,512,512,512,512,512,512,512,512,512,512,512,512,512,512,512,512,512,512,512,512,512,508,497,421,357,267,110,45,3,3,3,3,3,3,3,3,3,3,3,3,3,3,15,33,39,48,64],"timestamp_mouse":[7,32,44,64,84,104,124,144,165,184,204,225,244,264,284,304,325,344,364,386,404,424,444,464,484,504,525,545,565,584,605,625,644,664,684,704,725,745,764,785,804,824,845,864,884,904,924,945,964,984,1004,1024,1045,1065,1085,1106,1126,1145,1164,1184,1205,1226,1245,1265,1284,1304,1325,1345,1364],"xSR":741.5,"ySR":494.65000000000003,"xT1":424.9,"yT1":0,"xT2":1058.1,"yT2":0,"toosoon":0,"cond_shown":"Congruent","ratio_trial":200,"L_num":13,"L_den":26,"R_num":14,"R_den":20,"correct_side":2,"subjID":"SANTIAGOMARTIN18","gender":"0","school":"6","age":"12"},{"start_time":1551800801152,"click_time":1551800802295,"finger_time":1551800801893,"fix_duration":937.2108583320925,"trial":46,"RT":741,"MT":402,"sideResp":1,"stimulus":[],"xmouse":[822,822,822,822,821,821,821,820,820,820,820,820,820,820,820,820,820,820,820,820,820,820,820,820,820,820,820,820,820,820,820,820,820,820,820,820,807,788,720,695,681,666,645,595,576,554,549,534,513,509,509,509,508,507,507,507,507,505],"ymouse":[510,510,510,510,510,511,511,511,511,511,511,511,511,511,511,511,511,511,511,511,511,511,511,511,511,511,511,511,511,511,511,511,511,511,511,511,500,478,393,363,349,333,317,280,262,242,238,221,192,185,184,184,174,165,154,150,138,86],"timestamp_mouse":[6,24,41,61,81,101,121,142,163,181,201,221,241,262,282,302,322,341,361,381,401,422,442,462,481,501,521,542,562,582,601,621,642,662,681,701,721,741,761,781,801,821,841,861,881,901,922,941,961,981,1002,1021,1043,1061,1082,1101,1121,1142],"xSR":741.5,"ySR":494.65000000000003,"xT1":424.9,"yT1":0,"xT2":1058.1,"yT2":0,"toosoon":0,"cond_shown":"Congruent","ratio_trial":200,"L_num":4,"L_den":8,"R_num":3,"R_den":10,"correct_side":1,"subjID":"SANTIAGOMARTIN18","gender":"0","school":"6","age":"12"},{"start_time":1551800804897,"click_time":1551800806095,"finger_time":1551800805654,"fix_duration":1321.6583019582586,"trial":47,"RT":757,"MT":441,"sideResp":2,"stimulus":[],"xmouse":[796,796,796,796,796,796,796,796,796,796,796,796,796,796,796,796,796,796,796,796,796,796,796,796,796,796,796,796,796,796,796,796,796,796,796,796,798,808,820,830,841,850,864,880,903,946,958,971,974,976,981,990,1004,1019,1031,1040,1044,1051,1058,1066],"ymouse":[527,527,527,527,527,527,527,527,527,527,527,527,527,527,527,527,527,527,527,527,527,527,527,527,527,527,527,527,527,527,527,527,527,527,525,515,505,488,472,458,438,416,384,341,292,201,183,165,162,159,152,137,117,93,79,66,62,53,45,38],"timestamp_mouse":[26,36,56,77,98,116,136,156,177,197,216,237,256,276,296,316,337,356,378,396,416,436,457,476,497,516,537,557,576,596,616,636,657,677,696,716,736,757,776,796,816,837,856,876,898,916,936,956,977,996,1016,1036,1056,1076,1097,1116,1136,1156,1176,1198],"xSR":741.5,"ySR":494.65000000000003,"xT1":424.9,"yT1":0,"xT2":1058.1,"yT2":0,"toosoon":0,"cond_shown":"Incongruent","ratio_trial":200,"L_num":3,"L_den":10,"R_num":1,"R_den":2,"correct_side":2,"subjID":"SANTIAGOMARTIN18","gender":"0","school":"6","age":"12"},{"start_time":1551800808144,"click_time":1551800809972,"finger_time":1551800808932,"fix_duration":250,"trial":48,"RT":788,"MT":1040,"sideResp":1,"stimulus":[],"xmouse":[754,754,754,755,756,757,758,761,764,766,766,766,766,766,766,766,766,766,766,766,766,766,766,766,766,766,766,766,766,766,766,766,766,766,770,779,789,801,835,850,860,862,862,862,862,862,862,862,862,861,858,856,855,854,852,848,844,836,831,826,823,820,817,813,813,813,813,813,813,813,813,813,813,813,813,813,813,813,810,799,778,744,697,598,559,513,502,487,485,485,484,482],"ymouse":[566,566,566,566,566,565,565,563,562,561,561,561,561,561,561,561,561,561,561,561,561,561,561,561,561,561,561,561,561,561,561,561,561,561,560,554,546,537,511,501,493,489,489,489,489,489,489,489,489,494,497,500,502,505,508,512,518,531,538,545,549,554,557,560,560,560,560,560,560,560,560,560,560,560,560,560,560,560,558,541,515,479,443,372,346,308,297,264,188,162,134,77],"timestamp_mouse":[8,29,47,68,88,108,128,149,168,188,208,228,248,268,288,308,328,348,368,388,408,428,449,468,489,509,527,549,568,588,608,628,649,668,689,708,728,747,768,788,808,828,848,868,888,908,928,948,968,988,1008,1028,1048,1068,1088,1107,1128,1150,1169,1188,1208,1228,1248,1267,1288,1308,1328,1348,1367,1388,1408,1428,1448,1468,1487,1508,1528,1548,1568,1588,1608,1628,1648,1668,1688,1708,1728,1748,1768,1788,1808,1828],"xSR":741.5,"ySR":494.65000000000003,"xT1":424.9,"yT1":0,"xT2":1058.1,"yT2":0,"toosoon":0,"cond_shown":"Congruent","ratio_trial":100,"L_num":10,"L_den":25,"R_num":3,"R_den":10,"correct_side":1,"subjID":"SANTIAGOMARTIN18","gender":"0","school":"6","age":"12"},{"start_time":1551800815508,"click_time":1551800817032,"finger_time":1551800816872,"fix_duration":655.2588154192031,"trial":49,"RT":1364,"MT":160,"sideResp":2,"stimulus":[],"xmouse":[795,794,793,793,793,793,793,793,793,793,793,793,793,793,793,793,793,793,793,793,793,793,793,793,793,793,793,793,793,793,793,793,793,793,793,793,793,793,793,793,793,793,793,793,793,793,793,793,793,793,793,793,793,793,793,793,793,793,793,793,793,793,793,793,793,793,794,809,857,895,968,1003,1031,1053,1068,1082,1088],"ymouse":[555,554,552,552,552,552,551,551,551,551,551,551,551,551,551,551,551,551,551,551,551,551,551,551,551,551,551,551,551,551,551,551,551,551,551,551,551,551,551,551,551,551,551,551,551,551,551,551,551,551,551,551,551,551,551,551,551,551,551,551,551,551,551,551,551,550,539,515,449,406,297,238,190,157,137,112,99],"timestamp_mouse":[9,32,44,64,84,104,124,144,164,184,204,224,244,264,284,305,323,344,364,384,405,425,444,464,484,504,524,544,564,584,604,624,644,664,685,704,724,744,764,784,804,824,844,864,884,904,924,944,964,984,1003,1024,1044,1064,1084,1105,1124,1144,1164,1183,1204,1224,1244,1264,1284,1304,1324,1344,1364,1383,1403,1424,1444,1464,1484,1504,1524],"xSR":741.5,"ySR":494.65000000000003,"xT1":424.9,"yT1":0,"xT2":1058.1,"yT2":0,"toosoon":0,"cond_shown":"Incongruent","ratio_trial":100,"L_num":10,"L_den":25,"R_num":8,"R_den":16,"correct_side":2,"subjID":"SANTIAGOMARTIN18","gender":"0","school":"6","age":"12"},{"start_time":1551800818623,"click_time":1551800819792,"finger_time":1551800819372,"fix_duration":250,"trial":50,"RT":749,"MT":420,"sideResp":1,"stimulus":[],"xmouse":[804,804,804,804,804,804,804,804,804,804,804,804,804,804,804,804,804,804,804,804,804,804,804,804,804,804,804,804,804,804,804,804,804,803,800,795,776,740,704,658,641,631,623,615,594,578,568,563,562,560,559,557,555,551,537,529,521,510,504],"ymouse":[543,543,543,543,543,543,543,543,543,543,543,543,543,543,543,543,543,543,543,543,543,543,543,543,543,543,543,543,543,543,543,543,543,543,536,529,507,466,426,372,352,336,320,294,253,231,213,201,188,182,178,173,171,166,155,148,137,1