[{"start_time":1551901076440,"click_time":1551901079703,"finger_time":1551901076448,"fix_duration":1492.593127858966,"trial":0,"RT":8,"MT":3255,"sideResp":2,"stimulus":"img/250/randomdotsizeEA/R/6_Ratio_250_L_6_R_24.png","xmouse":[773,773,773,773,773,773,773,773,773,773,773,773,773,773,773,773,773,773,773,773,773,773,773,773,773,773,773,773,773,773,773,773,773,774,774,774,774,774,774,774,774,774,774,774,774,774,774,774,774,774,774,774,774,774,774,774,774,774,774,774,774,774,774,774,774,774,774,774,774,774,774,774,774,774,774,774,774,774,774,774,774,774,774,774,774,774,774,774,774,774,774,774,774,775,775,777,777,777,777,777,777,777,777,777,777,777,777,777,777,777,777,777,777,777,777,777,777,777,777,777,777,777,777,777,777,777,777,777,777,777,777,777,777,778,781,791,797,800,805,809,827,838,851,866,880,890,908,929,968,995,1024,1051,1058,1060,1064,1070,1073,1081,1086,1093,1108,1117,1126,1134],"ymouse":[508,508,508,508,508,508,508,508,508,508,508,508,508,508,508,508,508,508,508,508,508,508,508,508,508,508,508,508,508,508,508,508,508,512,530,546,576,587,596,599,601,601,601,601,601,601,601,601,601,601,601,601,601,601,601,601,601,601,601,601,601,601,601,601,601,601,601,601,601,601,601,601,601,601,601,601,601,601,601,601,601,601,601,601,601,601,601,601,601,601,601,601,603,604,605,608,608,608,608,608,608,608,608,608,608,608,608,608,608,608,608,608,608,608,608,608,608,608,608,608,608,608,608,608,608,608,608,608,608,608,608,608,608,606,600,574,564,554,543,534,502,483,461,441,420,401,369,350,326,307,291,269,262,253,244,228,220,203,190,175,141,123,106,94],"timestamp_mouse":[8,21,43,62,83,103,123,143,163,183,201,221,241,262,283,302,322,343,361,381,402,421,442,462,482,503,522,543,562,582,601,621,642,662,683,701,722,741,763,781,802,822,842,863,882,902,923,943,962,982,1002,1022,1042,1061,1083,1102,1123,1142,1163,1182,1201,1222,1241,1263,1282,1301,1321,1342,1362,1381,1402,1422,1441,1462,1481,1503,1523,1543,1562,1581,1602,1622,1642,1661,1682,1701,1722,1743,1763,1781,1801,1823,1842,1861,1882,1902,1922,1941,1962,1982,2003,2023,2041,2063,2083,2101,2122,2142,2163,2182,2202,2223,2242,2261,2281,2302,2323,2342,2361,2382,2402,2423,2442,2462,2482,2502,2522,2543,2561,2583,2601,2621,2642,2662,2683,2702,2721,2742,2761,2782,2802,2821,2841,2861,2882,2902,2923,2942,2961,2981,3002,3023,3042,3062,3082,3103,3122,3142,3162,3182,3203,3222,3243,3262],"xSR":733.5,"ySR":472.55,"xT1":420.09999999999997,"yT1":0,"xT2":1046.8999999999999,"yT2":0,"toosoon":0,"cond_shown":"randomdotsizeEA","ratio_trial":250,"smaller_num":"6","larger_num":"24","correct_side":2,"subjID":"dianasofiaavendañobeltran5","gender":"1","age":"11","school":"6","test":{"fix_dur":[250,1500],"timestim":300,"targets_dim":[100,100],"targets_relative_coord":[0.3,0.7],"size_stim":[880,420],"start_dim":[100,100],"size_start":[300,300],"size_fix":60,"samplingrate":20,"img_types":["equaldotsize","equaldotanddens","randomdotsizeEA"],"ratios":[250,500,750,900],"rep_conds":9,"nTrials":120,"trials_to_rest":500,"Trials_order":[110,93,17,47,16,43,4,65,87,101,15,2,32,74,77,90,59,102,30,112,12,26,99,50,5,78,97,81,38,48,11,34,23,18,31,61,63,86,8,105,9,10,39,62,119,69,66,88,1,64,68,25,44,6,27,55,72,51,28,22,82,41,13,71,109,7,91,83,96,75,58,107,53,73,76,108,46,33,92,19,36,79,24,115,49,67,106,95,94,54,45,35,85,0,113,89,111,117,104,57,114,40,21,56,84,3,100,60,98,42,70,116,37,118,29,14,52,80,103,20],"cond_shown":["randomdotsizeEA","equaldotsize","randomdotsizeEA","randomdotsizeEA","equaldotanddens","equaldotanddens","equaldotanddens","randomdotsizeEA","equaldotsize","randomdotsizeEA","equaldotsize","randomdotsizeEA","randomdotsizeEA","randomdotsizeEA","randomdotsizeEA","equaldotsize","randomdotsizeEA","equaldotsize","equaldotsize","equaldotanddens","equaldotsize","randomdotsizeEA","equaldotsize","randomdotsizeEA","randomdotsizeEA","equaldotsize","equaldotanddens","equaldotsize","randomdotsizeEA","equaldotsize","randomdotsizeEA","equaldotanddens","randomdotsizeEA","equaldotsize","equaldotanddens","equaldotanddens","equaldotsize","randomdotsizeEA","randomdotsizeEA","equaldotsize","equaldotsize","equaldotanddens","equaldotsize","randomdotsizeEA","randomdotsizeEA","equaldotsize","equaldotsize","equaldotanddens","equaldotanddens","equaldotanddens","randomdotsizeEA","equaldotanddens","randomdotsizeEA","equaldotsize","equaldotsize","equaldotanddens","equaldotsize","equaldotsize","equaldotanddens","equaldotanddens","equaldotanddens","randomdotsizeEA","equaldotanddens","randomdotsizeEA","equaldotanddens","equaldotanddens","equaldotanddens","randomdotsizeEA","equaldotsize","equaldotsize","equaldotanddens","randomdotsizeEA","randomdotsizeEA","equaldotanddens","equaldotanddens","equaldotsize","equaldotanddens","equaldotsize","randomdotsizeEA","equaldotanddens","equaldotsize","equaldotanddens","equaldotsize","equaldotanddens","equaldotanddens","equaldotanddens","equaldotanddens","randomdotsizeEA","equaldotanddens","equaldotsize","equaldotsize","randomdotsizeEA","equaldotanddens","equaldotsize","randomdotsizeEA","randomdotsizeEA","equaldotsize","equaldotsize","randomdotsizeEA","equaldotsize","equaldotsize","equaldotanddens","equaldotsize","randomdotsizeEA","equaldotsize","equaldotsize","equaldotanddens","equaldotsize","randomdotsizeEA","equaldotsize","equaldotanddens","randomdotsizeEA","equaldotanddens","equaldotanddens","randomdotsizeEA","randomdotsizeEA","equaldotanddens","randomdotsizeEA","equaldotanddens","randomdotsizeEA"],"ratio_trial":[250,900,500,900,500,750,500,500,500,500,500,250,750,250,500,750,900,750,750,500,250,250,500,250,500,750,250,900,250,250,900,900,900,750,750,250,500,250,750,900,900,900,500,250,900,900,750,500,250,500,750,250,750,750,500,750,250,500,500,900,900,500,250,900,250,750,750,900,250,500,900,900,500,250,500,250,900,900,750,750,250,750,250,750,250,750,900,900,900,750,900,900,250,250,500,500,500,900,750,900,750,500,900,750,250,500,500,250,250,750,900,750,250,900,500,250,500,750,750,750],"smaller_num":["6","9","2","18","2","15","1","2","2","10","6","4","3","3","2","15","18","12","6","9","2","2","5","4","2","3","3","18","6","3","18","18","9","15","12","2","6","4","9","9","18","18","5","2","9","18","6","6","1","3","12","5","6","6","6","3","2","2","1","18","18","4","5","18","3","15","6","18","6","9","9","18","3","3","1","3","18","9","3","12","2","3","2","18","4","15","18","9","18","6","9","18","3","3","3","2","9","18","18","9","3","3","9","15","2","9","2","4","2","15","18","3","2","9","9","3","5","15","15","15"],"larger_num":["24","10","4","20","4","20","2","4","4","20","12","16","4","12","4","20","20","16","8","18","8","8","10","16","4","4","12","20","24","12","20","20","10","20","16","8","12","16","12","10","20","20","10","8","10","20","8","12","4","6","16","20","8","8","12","4","8","4","2","20","20","8","20","20","12","20","8","20","24","18","10","20","6","12","2","12","20","10","4","16","8","4","8","24","16","20","20","10","20","8","10","20","12","12","6","4","18","20","24","10","4","6","10","20","8","18","4","16","8","20","20","4","8","10","18","12","10","20","20","20"],"correct_side":[2,1,1,1,2,1,2,1,1,2,1,2,1,1,2,1,1,2,1,2,1,2,1,1,2,1,1,1,2,2,2,1,1,2,2,1,1,2,2,2,1,2,2,1,2,1,2,1,2,2,2,2,1,1,1,1,1,1,2,1,1,1,2,2,2,1,2,1,1,2,1,1,2,1,2,2,2,2,1,2,1,1,1,1,1,2,2,1,2,2,2,1,2,1,2,1,1,2,1,2,1,2,2,2,1,2,2,1,1,2,1,1,2,2,2,2,2,2,1,2],"img_shown":["img/250/randomdotsizeEA/R/6_Ratio_250_L_6_R_24.png","img/900/equaldotsize/L/1_Ratio_900_L_10_R_9.png","img/500/randomdotsizeEA/L/10_Ratio_500_L_4_R_2.png","img/900/randomdotsizeEA/L/8_Ratio_900_L_20_R_18.png","img/500/equaldotanddens/R/9_Ratio_500_L_2_R_4.png","img/750/equaldotanddens/L/1_Ratio_750_L_20_R_15.png","img/500/equaldotanddens/R/15_Ratio_500_L_1_R_2.png","img/500/randomdotsizeEA/L/5_Ratio_500_L_4_R_2.png","img/500/equaldotsize/L/10_Ratio_500_L_4_R_2.png","img/500/randomdotsizeEA/R/3_Ratio_500_L_10_R_20.png","img/500/equaldotsize/L/13_Ratio_500_L_12_R_6.png","img/250/randomdotsizeEA/R/10_Ratio_250_L_4_R_16.png","img/750/randomdotsizeEA/L/10_Ratio_750_L_4_R_3.png","img/250/randomdotsizeEA/L/14_Ratio_250_L_12_R_3.png","img/500/randomdotsizeEA/R/9_Ratio_500_L_2_R_4.png","img/750/equaldotsize/L/1_Ratio_750_L_20_R_15.png","img/900/randomdotsizeEA/L/10_Ratio_900_L_20_R_18.png","img/750/equaldotsize/R/11_Ratio_750_L_12_R_16.png","img/750/equaldotsize/L/13_Ratio_750_L_8_R_6.png","img/500/equaldotanddens/R/1_Ratio_500_L_9_R_18.png","img/250/equaldotsize/L/3_Ratio_250_L_8_R_2.png","img/250/randomdotsizeEA/R/13_Ratio_250_L_2_R_8.png","img/500/equaldotsize/L/7_Ratio_500_L_10_R_5.png","img/250/randomdotsizeEA/L/2_Ratio_250_L_16_R_4.png","img/500/randomdotsizeEA/R/9_Ratio_500_L_2_R_4.png","img/750/equaldotsize/L/8_Ratio_750_L_4_R_3.png","img/250/equaldotanddens/L/15_Ratio_250_L_12_R_3.png","img/900/equaldotsize/L/2_Ratio_900_L_20_R_18.png","img/250/randomdotsizeEA/R/6_Ratio_250_L_6_R_24.png","img/250/equaldotsize/R/4_Ratio_250_L_3_R_12.png","img/900/randomdotsizeEA/R/11_Ratio_900_L_18_R_20.png","img/900/equaldotanddens/L/8_Ratio_900_L_20_R_18.png","img/900/randomdotsizeEA/L/1_Ratio_900_L_10_R_9.png","img/750/equaldotsize/R/3_Ratio_750_L_15_R_20.png","img/750/equaldotanddens/R/11_Ratio_750_L_12_R_16.png","img/250/equaldotanddens/L/7_Ratio_250_L_8_R_2.png","img/500/equaldotsize/L/13_Ratio_500_L_12_R_6.png","img/250/randomdotsizeEA/R/10_Ratio_250_L_4_R_16.png","img/750/randomdotsizeEA/R/15_Ratio_750_L_9_R_12.png","img/900/equaldotsize/R/5_Ratio_900_L_9_R_10.png","img/900/equaldotsize/L/8_Ratio_900_L_20_R_18.png","img/900/equaldotanddens/R/13_Ratio_900_L_18_R_20.png","img/500/equaldotsize/R/14_Ratio_500_L_5_R_10.png","img/250/randomdotsizeEA/L/7_Ratio_250_L_8_R_2.png","img/900/randomdotsizeEA/R/3_Ratio_900_L_9_R_10.png","img/900/equaldotsize/L/8_Ratio_900_L_20_R_18.png","img/750/equaldotsize/R/2_Ratio_750_L_6_R_8.png","img/500/equaldotanddens/L/13_Ratio_500_L_12_R_6.png","img/250/equaldotanddens/R/8_Ratio_250_L_1_R_4.png","img/500/equaldotanddens/R/2_Ratio_500_L_3_R_6.png","img/750/randomdotsizeEA/R/11_Ratio_750_L_12_R_16.png","img/250/equaldotanddens/R/12_Ratio_250_L_5_R_20.png","img/750/randomdotsizeEA/L/13_Ratio_750_L_8_R_6.png","img/750/equaldotsize/L/14_Ratio_750_L_8_R_6.png","img/500/equaldotsize/L/11_Ratio_500_L_12_R_6.png","img/750/equaldotanddens/L/8_Ratio_750_L_4_R_3.png","img/250/equaldotsize/L/7_Ratio_250_L_8_R_2.png","img/500/equaldotsize/L/10_Ratio_500_L_4_R_2.png","img/500/equaldotanddens/R/15_Ratio_500_L_1_R_2.png","img/900/equaldotanddens/L/10_Ratio_900_L_20_R_18.png","img/900/equaldotanddens/L/2_Ratio_900_L_20_R_18.png","img/500/randomdotsizeEA/L/8_Ratio_500_L_8_R_4.png","img/250/equaldotanddens/R/12_Ratio_250_L_5_R_20.png","img/900/randomdotsizeEA/R/14_Ratio_900_L_18_R_20.png","img/250/equaldotanddens/R/9_Ratio_250_L_3_R_12.png","img/750/equaldotanddens/L/1_Ratio_750_L_20_R_15.png","img/750/equaldotanddens/R/2_Ratio_750_L_6_R_8.png","img/900/randomdotsizeEA/L/4_Ratio_900_L_20_R_18.png","img/250/equaldotsize/L/5_Ratio_250_L_24_R_6.png","img/500/equaldotsize/R/1_Ratio_500_L_9_R_18.png","img/900/equaldotanddens/L/1_Ratio_900_L_10_R_9.png","img/900/randomdotsizeEA/L/4_Ratio_900_L_20_R_18.png","img/500/randomdotsizeEA/R/2_Ratio_500_L_3_R_6.png","img/250/equaldotanddens/L/14_Ratio_250_L_12_R_3.png","img/500/equaldotanddens/R/12_Ratio_500_L_1_R_2.png","img/250/equaldotsize/R/9_Ratio_250_L_3_R_12.png","img/900/equaldotanddens/R/14_Ratio_900_L_18_R_20.png","img/900/equaldotsize/R/7_Ratio_900_L_9_R_10.png","img/750/randomdotsizeEA/L/8_Ratio_750_L_4_R_3.png","img/750/equaldotanddens/R/11_Ratio_750_L_12_R_16.png","img/250/equaldotsize/L/3_Ratio_250_L_8_R_2.png","img/750/equaldotanddens/L/10_Ratio_750_L_4_R_3.png","img/250/equaldotsize/L/3_Ratio_250_L_8_R_2.png","img/750/equaldotanddens/L/6_Ratio_750_L_24_R_18.png","img/250/equaldotanddens/L/2_Ratio_250_L_16_R_4.png","img/750/equaldotanddens/R/3_Ratio_750_L_15_R_20.png","img/900/equaldotanddens/R/14_Ratio_900_L_18_R_20.png","img/900/randomdotsizeEA/L/1_Ratio_900_L_10_R_9.png","img/900/equaldotanddens/R/13_Ratio_900_L_18_R_20.png","img/750/equaldotsize/R/2_Ratio_750_L_6_R_8.png","img/900/equaldotsize/R/15_Ratio_900_L_9_R_10.png","img/900/randomdotsizeEA/L/2_Ratio_900_L_20_R_18.png","img/250/equaldotanddens/R/9_Ratio_250_L_3_R_12.png","img/250/equaldotsize/L/14_Ratio_250_L_12_R_3.png","img/500/randomdotsizeEA/R/2_Ratio_500_L_3_R_6.png","img/500/randomdotsizeEA/L/5_Ratio_500_L_4_R_2.png","img/500/equaldotsize/L/4_Ratio_500_L_18_R_9.png","img/900/equaldotsize/R/12_Ratio_900_L_18_R_20.png","img/750/randomdotsizeEA/L/6_Ratio_750_L_24_R_18.png","img/900/equaldotsize/R/15_Ratio_900_L_9_R_10.png","img/750/equaldotsize/L/8_Ratio_750_L_4_R_3.png","img/500/equaldotanddens/R/2_Ratio_500_L_3_R_6.png","img/900/equaldotsize/R/5_Ratio_900_L_9_R_10.png","img/750/randomdotsizeEA/R/3_Ratio_750_L_15_R_20.png","img/250/equaldotsize/L/3_Ratio_250_L_8_R_2.png","img/500/equaldotsize/R/1_Ratio_500_L_9_R_18.png","img/500/equaldotanddens/R/9_Ratio_500_L_2_R_4.png","img/250/equaldotsize/L/2_Ratio_250_L_16_R_4.png","img/250/randomdotsizeEA/L/3_Ratio_250_L_8_R_2.png","img/750/equaldotsize/R/4_Ratio_750_L_15_R_20.png","img/900/equaldotanddens/L/4_Ratio_900_L_20_R_18.png","img/750/randomdotsizeEA/L/10_Ratio_750_L_4_R_3.png","img/250/equaldotanddens/R/13_Ratio_250_L_2_R_8.png","img/900/equaldotanddens/R/15_Ratio_900_L_9_R_10.png","img/500/randomdotsizeEA/R/6_Ratio_500_L_9_R_18.png","img/250/randomdotsizeEA/R/4_Ratio_250_L_3_R_12.png","img/500/equaldotanddens/R/14_Ratio_500_L_5_R_10.png","img/750/randomdotsizeEA/R/5_Ratio_750_L_15_R_20.png","img/750/equaldotanddens/L/1_Ratio_750_L_20_R_15.png","img/750/randomdotsizeEA/R/5_Ratio_750_L_15_R_20.png"],"Rat0":[["12_Ratio_0_L_9_R_0.png","13_Ratio_0_L_6_R_0.png","5_Ratio_0_L_2_R_0.png","6_Ratio_0_L_4_R_0.png","8_Ratio_0_L_6_R_0.png"],["1_Ratio_0_L_0_R_17.png","10_Ratio_0_L_0_R_22.png","11_Ratio_0_L_0_R_1.png","14_Ratio_0_L_0_R_24.png","15_Ratio_0_L_0_R_4.png","2_Ratio_0_L_0_R_5.png","3_Ratio_0_L_0_R_17.png","4_Ratio_0_L_0_R_7.png","7_Ratio_0_L_0_R_19.png","9_Ratio_0_L_0_R_15.png"]],"Rat250":[["1_Ratio_250_L_8_R_2.png","14_Ratio_250_L_12_R_3.png","15_Ratio_250_L_12_R_3.png","2_Ratio_250_L_16_R_4.png","3_Ratio_250_L_8_R_2.png","5_Ratio_250_L_24_R_6.png","7_Ratio_250_L_8_R_2.png"],["10_Ratio_250_L_4_R_16.png","11_Ratio_250_L_3_R_12.png","12_Ratio_250_L_5_R_20.png","13_Ratio_250_L_2_R_8.png","4_Ratio_250_L_3_R_12.png","6_Ratio_250_L_6_R_24.png","8_Ratio_250_L_1_R_4.png","9_Ratio_250_L_3_R_12.png"]],"Rat500":[["10_Ratio_500_L_4_R_2.png","11_Ratio_500_L_12_R_6.png","13_Ratio_500_L_12_R_6.png","4_Ratio_500_L_18_R_9.png","5_Ratio_500_L_4_R_2.png","7_Ratio_500_L_10_R_5.png","8_Ratio_500_L_8_R_4.png"],["1_Ratio_500_L_9_R_18.png","12_Ratio_500_L_1_R_2.png","14_Ratio_500_L_5_R_10.png","15_Ratio_500_L_1_R_2.png","2_Ratio_500_L_3_R_6.png","3_Ratio_500_L_10_R_20.png","6_Ratio_500_L_9_R_18.png","9_Ratio_500_L_2_R_4.png"]],"Rat750":[["1_Ratio_750_L_20_R_15.png","10_Ratio_750_L_4_R_3.png","13_Ratio_750_L_8_R_6.png","14_Ratio_750_L_8_R_6.png","6_Ratio_750_L_24_R_18.png","8_Ratio_750_L_4_R_3.png","9_Ratio_750_L_4_R_3.png"],["11_Ratio_750_L_12_R_16.png","12_Ratio_750_L_3_R_4.png","15_Ratio_750_L_9_R_12.png","2_Ratio_750_L_6_R_8.png","3_Ratio_750_L_15_R_20.png","4_Ratio_750_L_15_R_20.png","5_Ratio_750_L_15_R_20.png","7_Ratio_750_L_3_R_4.png"]],"Rat900":[["1_Ratio_900_L_10_R_9.png","10_Ratio_900_L_20_R_18.png","2_Ratio_900_L_20_R_18.png","4_Ratio_900_L_20_R_18.png","8_Ratio_900_L_20_R_18.png"],["11_Ratio_900_L_18_R_20.png","12_Ratio_900_L_18_R_20.png","13_Ratio_900_L_18_R_20.png","14_Ratio_900_L_18_R_20.png","15_Ratio_900_L_9_R_10.png","3_Ratio_900_L_9_R_10.png","5_Ratio_900_L_9_R_10.png","6_Ratio_900_L_9_R_10.png","7_Ratio_900_L_9_R_10.png","9_Ratio_900_L_18_R_20.png"]],"Rat1000":[["10_Ratio_1000_L_16_R_16.png","11_Ratio_1000_L_6_R_6.png","12_Ratio_1000_L_14_R_14.png","13_Ratio_1000_L_20_R_20.png","15_Ratio_1000_L_15_R_15.png","2_Ratio_1000_L_17_R_17.png","4_Ratio_1000_L_9_R_9.png","5_Ratio_1000_L_6_R_6.png","6_Ratio_1000_L_19_R_19.png","8_Ratio_1000_L_14_R_14.png","9_Ratio_1000_L_25_R_25.png"],["1_Ratio_1000_L_1_R_1.png","14_Ratio_1000_L_17_R_17.png","3_Ratio_1000_L_17_R_17.png","7_Ratio_1000_L_6_R_6.png"]]}},{"start_time":1551901081616,"click_time":1551901083122,"finger_time":1551901082701,"fix_duration":811.1337400779365,"trial":1,"RT":1085,"MT":421,"sideResp":1,"stimulus":"img/900/equaldotsize/L/1_Ratio_900_L_10_R_9.png","xmouse":[791,791,791,791,791,791,791,791,791,791,791,791,791,791,791,791,791,791,791,791,791,791,791,791,791,791,791,791,791,791,791,791,791,791,791,791,791,791,791,791,791,791,791,791,791,791,791,791,791,791,791,791,791,791,776,754,735,690,685,681,677,673,654,636,623,616,610,601,596,591,584,575,560,553,541,523],"ymouse":[620,620,620,620,620,620,620,620,620,620,620,620,620,620,620,620,620,620,620,620,620,620,620,620,620,620,620,620,620,620,620,620,620,620,620,620,620,620,620,620,620,620,620,620,620,620,620,620,620,620,620,620,620,593,523,445,377,268,256,247,238,225,188,163,143,133,124,114,107,100,92,81,64,58,52,47],"timestamp_mouse":[8,37,46,67,85,106,127,146,165,186,205,225,247,265,285,306,325,345,365,386,406,426,445,465,485,505,525,546,565,585,606,625,645,667,685,707,726,746,765,786,806,827,847,865,886,906,926,947,965,987,1007,1025,1046,1066,1085,1105,1126,1146,1165,1185,1205,1227,1246,1266,1287,1306,1325,1345,1365,1386,1405,1426,1445,1466,1486,1506],"xSR":741.5,"ySR":573.95,"xT1":424.9,"yT1":0,"xT2":1058.1,"yT2":0,"toosoon":0,"cond_shown":"equaldotsize","ratio_trial":900,"smaller_num":"9","larger_num":"10","correct_side":1,"subjID":"dianasofiaavendañobeltran5","gender":"1","age":"11","school":"6"},{"start_time":1551901085355,"click_time":1551901086501,"finger_time":1551901085982,"fix_duration":1251.2955004621608,"trial":2,"RT":627,"MT":519,"sideResp":1,"stimulus":"img/500/randomdotsizeEA/L/10_Ratio_500_L_4_R_2.png","xmouse":[780,780,780,781,780,780,780,780,780,780,780,780,780,780,780,780,780,780,780,780,780,780,780,780,780,780,780,779,774,768,765,763,762,759,754,725,704,679,659,643,628,623,619,606,581,545,541,540,540,540,540,538,538,538,538,535,527,517],"ymouse":[642,642,642,640,639,639,639,639,639,639,639,639,639,639,639,639,639,639,639,639,639,639,639,639,639,639,638,631,609,588,574,568,560,552,524,393,340,283,237,210,172,156,140,113,81,54,51,51,51,51,57,62,63,63,63,63,58,53],"timestamp_mouse":[8,33,46,67,86,108,127,147,167,187,207,226,246,268,286,306,328,346,367,388,406,428,447,468,486,507,527,546,567,586,606,627,646,666,686,706,726,748,767,787,806,827,847,868,886,906,926,946,968,988,1008,1027,1047,1066,1087,1107,1126,1146],"xSR":741.5,"ySR":573.95,"xT1":424.9,"yT1":0,"xT2":1058.1,"yT2":0,"toosoon":0,"cond_shown":"randomdotsizeEA","ratio_trial":500,"smaller_num":"2","larger_num":"4","correct_side":1,"subjID":"dianasofiaavendañobeltran5","gender":"1","age":"11","school":"6"},{"start_time":1551901088349,"click_time":1551901090021,"finger_time":1551901089601,"fix_duration":1004.5589724837796,"trial":3,"RT":1252,"MT":420,"sideResp":2,"stimulus":"img/900/randomdotsizeEA/L/8_Ratio_900_L_20_R_18.png","xmouse":[786,786,786,786,786,786,786,786,786,786,786,786,786,786,786,786,786,786,786,786,786,786,786,786,786,786,786,786,786,786,786,786,786,786,786,786,786,786,786,786,786,786,786,786,786,786,786,786,786,786,786,786,786,786,786,786,786,786,786,788,801,813,821,835,877,933,955,976,1003,1031,1099,1161,1201,1222,1231,1233,1233,1232,1231,1226,1194,1178,1162,1147],"ymouse":[638,638,638,638,638,638,638,638,638,638,638,638,638,638,638,638,638,638,638,638,638,638,638,638,638,638,638,638,638,638,638,638,638,638,638,638,638,638,638,638,638,638,638,638,638,638,638,638,638,638,638,638,638,638,638,638,638,638,638,636,618,592,569,545,507,460,441,425,408,386,326,278,244,227,216,206,202,196,192,184,146,128,108,90],"timestamp_mouse":[12,33,54,73,92,112,133,153,174,193,213,232,252,272,292,313,333,353,373,393,413,432,452,473,493,512,532,552,573,593,614,632,654,673,694,712,734,754,772,794,812,832,853,872,892,913,933,952,974,992,1012,1032,1052,1073,1093,1112,1134,1152,1172,1193,1212,1233,1252,1273,1294,1313,1333,1352,1373,1392,1414,1434,1452,1472,1492,1513,1532,1553,1573,1594,1612,1632,1652,1672],"xSR":741.5,"ySR":573.95,"xT1":424.9,"yT1":0,"xT2":1058.1,"yT2":0,"toosoon":0,"cond_shown":"randomdotsizeEA","ratio_trial":900,"smaller_num":"18","larger_num":"20","correct_side":1,"subjID":"dianasofiaavendañobeltran5","gender":"1","age":"11","school":"6"},{"start_time":1551901091133,"click_time":1551901092502,"finger_time":1551901092123,"fix_duration":250,"trial":4,"RT":990,"MT":379,"sideResp":2,"stimulus":"img/500/equaldotanddens/R/9_Ratio_500_L_2_R_4.png","xmouse":[816,816,816,816,816,816,816,816,816,816,816,816,816,816,816,816,816,816,816,816,816,816,816,816,816,816,816,816,816,816,816,816,816,816,816,816,816,816,816,816,816,816,816,816,816,816,816,820,830,852,875,927,955,984,1013,1040,1072,1078,1080,1082,1083,1090,1099,1104,1107,1111,1115,1118,1121],"ymouse":[633,633,633,633,633,633,633,633,633,633,633,633,633,633,633,633,633,633,633,633,633,633,633,633,633,633,633,633,633,633,633,633,633,633,633,633,633,633,633,633,633,633,633,633,633,633,633,617,584,537,493,403,366,325,290,260,222,213,208,205,201,190,176,162,150,137,112,101,92],"timestamp_mouse":[9,38,50,68,88,109,129,150,168,188,209,228,248,268,290,308,328,350,368,388,409,429,450,468,489,509,529,548,569,589,609,630,650,669,689,709,728,748,770,790,809,830,850,868,889,909,928,948,969,990,1009,1028,1048,1068,1090,1109,1129,1150,1169,1188,1209,1229,1248,1268,1288,1310,1330,1349,1369],"xSR":741.5,"ySR":573.95,"xT1":424.9,"yT1":0,"xT2":1058.1,"yT2":0,"toosoon":0,"cond_shown":"equaldotanddens","ratio_trial":500,"smaller_num":"2","larger_num":"4","correct_side":2,"subjID":"dianasofiaavendañobeltran5","gender":"1","age":"11","school":"6"},{"start_time":1551901094314,"click_time":1551901095662,"finger_time":1551901095083,"fix_duration":970.6946713930889,"trial":5,"RT":769,"MT":579,"sideResp":1,"stimulus":"img/750/equaldotanddens/L/1_Ratio_750_L_20_R_15.png","xmouse":[780,780,780,780,780,780,780,780,780,780,780,780,780,780,780,780,780,780,780,780,780,780,780,780,780,780,780,780,780,780,780,780,780,780,780,780,780,780,776,768,757,738,686,674,667,661,657,656,656,656,656,655,639,622,601,582,572,568,568,565,560,553,550,550,547,544,537,522],"ymouse":[615,615,615,615,615,615,615,615,615,615,615,615,615,615,615,615,615,615,615,615,615,615,615,615,615,615,615,615,615,615,615,615,615,615,615,615,615,596,550,508,452,390,265,238,218,204,196,189,187,186,183,171,147,133,122,114,110,108,108,106,103,99,93,91,83,74,64,47],"timestamp_mouse":[8,33,49,68,88,107,127,149,168,187,207,228,248,267,288,307,328,347,368,389,407,427,448,469,487,507,527,547,567,588,609,627,649,669,688,707,729,747,769,787,808,828,847,867,888,908,928,947,967,987,1008,1029,1047,1067,1088,1108,1127,1148,1168,1189,1208,1228,1248,1269,1288,1307,1328,1348],"xSR":741.5,"ySR":573.95,"xT1":424.9,"yT1":0,"xT2":1058.1,"yT2":0,"toosoon":0,"cond_shown":"equaldotanddens","ratio_trial":750,"smaller_num":"15","larger_num":"20","correct_side":1,"subjID":"dianasofiaavendañobeltran5","gender":"1","age":"11","school":"6"},{"start_time":1551901099177,"click_time":1551901100281,"finger_time":1551901099823,"fix_duration":1074.429498850683,"trial":6,"RT":646,"MT":458,"sideResp":2,"stimulus":"img/500/equaldotanddens/R/15_Ratio_500_L_1_R_2.png","xmouse":[807,807,807,807,807,807,807,807,807,807,807,807,807,807,807,807,807,807,807,807,807,807,807,807,807,807,807,807,806,804,800,798,797,797,799,805,814,824,839,899,922,945,970,999,1040,1052,1063,1071,1079,1083,1084,1088,1089,1089,1089,1090],"ymouse":[626,626,626,626,626,626,626,626,626,626,626,626,626,626,626,626,626,626,626,626,626,626,626,626,626,626,626,626,626,611,588,577,563,551,528,511,494,470,440,371,353,336,318,298,269,257,244,233,225,218,211,193,173,151,112,96],"timestamp_mouse":[8,29,45,66,86,105,124,145,166,186,205,226,244,264,285,306,324,344,365,384,404,424,446,466,486,506,525,544,564,584,605,625,646,664,684,705,725,745,765,785,804,824,845,865,884,904,925,944,965,985,1005,1024,1045,1064,1084,1104],"xSR":741.5,"ySR":573.95,"xT1":424.9,"yT1":0,"xT2":1058.1,"yT2":0,"toosoon":0,"cond_shown":"equaldotanddens","ratio_trial":500,"smaller_num":"1","larger_num":"2","correct_side":2,"subjID":"dianasofiaavendañobeltran5","gender":"1","age":"11","school":"6"},{"start_time":1551901101455,"click_time":1551901102543,"finger_time":1551901102222,"fix_duration":411.1396609641379,"trial":7,"RT":767,"MT":321,"sideResp":1,"stimulus":"img/500/randomdotsizeEA/L/5_Ratio_500_L_4_R_2.png","xmouse":[773,773,773,773,773,773,773,773,773,773,773,773,773,773,773,773,773,773,773,773,773,773,773,773,773,773,773,773,773,773,773,773,773,773,773,773,773,760,730,689,600,574,556,547,540,531,529,528,528,528,528,528,528,526,522],"ymouse":[614,614,614,614,614,614,614,614,614,614,614,614,614,614,614,614,614,614,614,614,614,614,614,614,614,614,614,614,614,614,614,614,614,614,614,614,614,592,537,465,310,256,215,184,160,123,105,99,95,93,86,81,74,62,50],"timestamp_mouse":[8,33,46,66,86,107,126,146,167,188,206,226,248,266,287,306,326,346,366,388,407,426,446,468,486,507,528,546,568,586,606,627,647,667,687,707,728,747,767,787,806,827,846,866,887,907,928,947,966,986,1006,1026,1047,1068,1088],"xSR":741.5,"ySR":573.95,"xT1":424.9,"yT1":0,"xT2":1058.1,"yT2":0,"toosoon":0,"cond_shown":"randomdotsizeEA","ratio_trial":500,"smaller_num":"2","larger_num":"4","correct_side":1,"subjID":"dianasofiaavendañobeltran5","gender":"1","age":"11","school":"6"},{"start_time":1551901104637,"click_time":1551901105282,"finger_time":1551901105182,"fix_duration":1012.2001230221522,"trial":8,"RT":545,"MT":100,"sideResp":1,"stimulus":"img/500/equaldotsize/L/10_Ratio_500_L_4_R_2.png","xmouse":[794,794,794,794,794,794,794,794,794,794,794,794,794,794,794,794,794,794,794,794,794,794,794,794,794,794,787,765,729,688,639,550,522],"ymouse":[648,648,648,648,648,648,648,648,648,648,648,648,648,648,648,648,648,648,648,648,648,648,648,648,648,648,613,535,436,345,254,112,59],"timestamp_mouse":[8,33,44,64,86,104,124,145,166,185,205,225,244,265,285,304,326,344,364,385,405,425,445,465,484,505,526,545,564,584,604,624,644],"xSR":741.5,"ySR":573.95,"xT1":424.9,"yT1":0,"xT2":1058.1,"yT2":0,"toosoon":0,"cond_shown":"equaldotsize","ratio_trial":500,"smaller_num":"2","larger_num":"4","correct_side":1,"subjID":"dianasofiaavendañobeltran5","gender":"1","age":"11","school":"6"},{"start_time":1551901107414,"click_time":1551901108422,"finger_time":1551901107921,"fix_duration":989.2312751065485,"trial":9,"RT":507,"MT":501,"sideResp":2,"stimulus":"img/500/randomdotsizeEA/R/3_Ratio_500_L_10_R_20.png","xmouse":[787,787,787,787,787,787,787,787,787,787,787,787,787,787,787,787,787,787,787,787,787,789,797,806,821,836,849,850,850,850,850,850,855,869,895,942,999,1139,1171,1182,1188,1189,1189,1189,1189,1189,1187,1176,1169,1160,1155],"ymouse":[597,597,597,597,597,597,597,597,597,597,597,597,597,597,597,597,597,597,597,597,597,597,591,585,579,573,567,566,566,566,566,566,561,544,511,450,376,194,150,122,105,97,92,89,89,88,82,74,73,72,71],"timestamp_mouse":[9,28,47,68,88,109,127,147,169,188,208,228,247,268,289,308,327,348,368,387,408,427,447,467,488,507,528,547,568,588,607,627,647,668,688,707,728,747,768,788,807,828,849,867,888,907,927,947,968,989,1007],"xSR":741.5,"ySR":573.95,"xT1":424.9,"yT1":0,"xT2":1058.1,"yT2":0,"toosoon":0,"cond_shown":"randomdotsizeEA","ratio_trial":500,"smaller_num":"10","larger_num":"20","correct_side":2,"subjID":"dianasofiaavendañobeltran5","gender":"1","age":"11","school":"6"},{"start_time":1551901109533,"click_time":1551901110722,"finger_time":1551901110241,"fix_duration":250,"trial":10,"RT":708,"MT":481,"sideResp":1,"stimulus":"img/500/equaldotsize/L/13_Ratio_500_L_12_R_6.png","xmouse":[815,815,815,815,815,815,815,815,815,815,815,815,815,815,815,815,815,815,815,815,815,815,815,815,815,815,815,815,815,815,815,815,813,805,791,762,708,683,666,653,646,635,627,623,617,612,602,594,584,575,551,512,496,489,486,486,484,484,484,484],"ymouse":[632,632,632,632,632,632,632,632,632,632,632,632,632,632,632,632,632,632,632,632,632,632,632,632,632,632,632,632,632,632,632,632,624,607,578,532,443,401,361,326,302,260,245,236,227,220,208,200,194,187,173,149,137,131,128,125,117,111,104,97],"timestamp_mouse":[9,29,50,68,88,110,130,149,170,190,209,229,248,268,289,308,329,350,368,390,409,429,449,469,489,510,529,548,569,588,608,629,648,668,690,708,728,750,769,789,810,828,848,870,889,910,929,949,969,989,1010,1028,1048,1070,1089,1110,1128,1149,1169,1189],"xSR":741.5,"ySR":573.95,"xT1":424.9,"yT1":0,"xT2":1058.1,"yT2":0,"toosoon":0,"cond_shown":"equaldotsize","ratio_trial":500,"smaller_num":"6","larger_num":"12","correct_side":1,"subjID":"dianasofiaavendañobeltran5","gender":"1","age":"11","school":"6"},{"start_time":1551901111813,"click_time":1551901113182,"finger_time":1551901112562,"fix_duration":250,"trial":11,"RT":749,"MT":620,"sideResp":2,"stimulus":"img/250/randomdotsizeEA/R/10_Ratio_250_L_4_R_16.png","xmouse":[775,775,775,775,775,775,775,775,775,775,775,775,775,775,775,775,775,775,775,775,775,775,775,775,775,775,776,778,778,778,778,778,779,782,788,799,811,874,900,937,966,993,1023,1032,1041,1049,1057,1073,1076,1080,1082,1082,1082,1083,1086,1089,1093,1106,1111,1113,1115,1116,1119,1119,1119,1119,1119,1100,1094],"ymouse":[642,642,642,642,642,642,642,642,642,642,642,642,642,642,642,642,642,642,642,642,642,642,642,642,642,641,641,639,639,639,639,639,639,636,631,623,614,569,546,518,494,473,435,417,401,387,372,346,338,323,306,291,263,253,243,236,230,213,203,196,186,176,160,154,144,135,126,101,97],"timestamp_mouse":[10,33,48,68,88,108,130,149,168,189,210,228,250,268,289,309,329,348,369,388,409,430,449,468,489,509,528,548,569,588,609,628,649,670,689,709,729,749,769,789,808,829,848,868,888,908,928,948,968,988,1008,1029,1049,1070,1089,1108,1128,1148,1168,1188,1208,1228,1248,1268,1289,1309,1329,1349,1369],"xSR":741.5,"ySR":573.95,"xT1":424.9,"yT1":0,"xT2":1058.1,"yT2":0,"toosoon":0,"cond_shown":"randomdotsizeEA","ratio_trial":250,"smaller_num":"4","larger_num":"16","correct_side":2,"subjID":"dianasofiaavendañobeltran5","gender":"1","age":"11","school":"6"},{"start_time":1551901114349,"click_time":1551901116162,"finger_time":1551901115161,"fix_duration":286.37160230757485,"trial":12,"RT":812,"MT":1001,"sideResp":1,"stimulus":"img/750/randomdotsizeEA/L/10_Ratio_750_L_4_R_3.png","xmouse":[795,795,795,795,795,795,795,795,795,795,795,795,795,795,795,795,795,795,795,795,795,795,795,795,795,795,795,795,795,795,795,795,795,795,795,795,796,799,805,820,863,878,892,901,904,904,905,906,908,911,916,920,921,921,921,921,921,921,921,921,921,921,921,921,921,921,921,921,921,921,912,906,893,881,869,841,814,780,752,732,713,712,712,710,705,677,651,620,589,561,514],"ymouse":[643,643,643,643,643,643,643,643,643,643,643,643,643,643,643,643,643,643,643,643,643,643,643,643,643,643,643,643,643,643,643,643,642,640,639,636,632,628,617,600,548,526,506,494,489,487,485,483,480,476,469,464,463,462,462,462,462,462,462,462,462,462,462,462,462,462,462,462,461,461,441,432,419,406,391,350,311,265,232,210,190,188,187,185,179,158,144,127,113,99,75],"timestamp_mouse":[13,33,52,72,94,114,132,153,173,194,212,233,253,272,293,313,332,352,374,392,412,433,452,472,493,512,532,552,573,593,612,634,654,672,693,712,733,752,773,794,812,833,852,872,892,912,932,953,972,993,1012,1033,1052,1073,1092,1112,1132,1152,1173,1193,1214,1233,1253,1272,1293,1313,1333,1352,1372,1392,1412,1434,1454,1473,1493,1513,1533,1553,1573,1592,1612,1632,1652,1674,1693,1713,1732,1753,1773,1793,1813],"xSR":741.5,"ySR":573.95,"xT1":424.9,"yT1":0,"xT2":1058.1,"yT2":0,"toosoon":0,"cond_shown":"randomdotsizeEA","ratio_trial":750,"smaller_num":"3","larger_num":"4","correct_side":1,"subjID":"dianasofiaavendañobeltran5","gender":"1","age":"11","school":"6"},{"start_time":1551901117255,"click_time":1551901118562,"finger_time":1551901118061,"fix_duration":250,"trial":13,"RT":806,"MT":501,"sideResp":1,"stimulus":"img/250/randomdotsizeEA/L/14_Ratio_250_L_12_R_3.png","xmouse":[779,779,779,779,779,779,779,779,779,779,779,779,779,779,779,779,779,779,779,779,779,779,779,779,779,779,779,779,779,779,779,779,779,779,779,779,779,779,780,780,779,765,748,733,709,696,686,678,667,657,640,638,634,631,617,599,584,568,560,556,548,542,535,530,525,522],"ymouse":[639,639,639,639,639,639,639,639,639,639,639,639,639,639,639,639,639,639,639,639,639,639,639,639,639,639,639,639,639,639,639,639,639,639,639,639,639,639,635,627,573,526,464,417,361,328,305,283,263,249,230,227,223,219,204,187,176,163,148,133,107,94,80,67,54,36],"timestamp_mouse":[9,35,47,66,86,107,126,148,166,186,208,226,246,267,288,307,327,347,366,388,407,427,448,467,487,508,528,548,566,586,608,627,647,667,687,708,727,747,767,786,806,827,847,867,888,906,926,946,967,986,1006,1026,1047,1067,1088,1106,1127,1146,1167,1187,1207,1226,1246,1267,1286,1306],"xSR":741.5,"ySR":573.95,"xT1":424.9,"yT1":0,"xT2":1058.1,"yT2":0,"toosoon":0,"cond_shown":"randomdotsizeEA","ratio_trial":250,"smaller_num":"3","larger_num":"12","correct_side":1,"subjID":"dianasofiaavendañobeltran5","gender":"1","age":"11","school":"6"},{"start_time":1551901120259,"click_time":1551901121702,"finger_time":1551901121222,"fix_duration":1097.539288661499,"trial":14,"RT":963,"MT":480,"sideResp":2,"stimulus":"img/500/randomdotsizeEA/R/9_Ratio_500_L_2_R_4.png","xmouse":[823,823,823,823,823,823,823,823,823,823,823,823,823,823,823,823,823,823,823,823,823,823,823,823,823,823,823,823,823,823,823,823,823,823,823,823,823,823,823,823,823,823,823,823,823,823,828,836,846,858,880,903,940,971,996,1038,1047,1052,1056,1061,1073,1081,1092,1098,1103,1113,1115,1115,1115,1115,1109,1107,1107],"ymouse":[639,639,639,639,639,639,639,639,639,639,639,639,639,639,639,639,639,639,639,639,639,639,639,639,639,639,639,639,639,639,639,639,639,639,639,639,639,639,639,639,639,639,639,639,639,640,634,625,614,594,544,502,450,413,385,353,345,338,329,320,294,277,261,247,233,203,190,177,162,148,119,105,95],"timestamp_mouse":[8,30,42,64,84,103,123,144,163,182,203,223,242,264,283,303,322,342,363,383,402,424,443,463,484,504,522,543,564,583,602,624,644,664,683,702,723,743,763,783,804,824,842,863,882,903,923,942,963,982,1002,1024,1044,1063,1084,1102,1123,1144,1162,1182,1202,1223,1243,1262,1284,1304,1322,1342,1362,1383,1402,1424,1443],"xSR":741.5,"ySR":573.95,"xT1":424.9,"yT1":0,"xT2":1058.1,"yT2":0,"toosoon":0,"cond_shown":"randomdotsizeEA","ratio_trial":500,"smaller_num":"2","larger_num":"4","correct_side":2,"subjID":"dianasofiaavendañobeltran5","gender":"1","age":"11","school":"6"},{"start_time":1551901123335,"click_time":1551901124362,"finger_time":1551901124003,"fix_duration":250,"trial":15,"RT":668,"MT":359,"sideResp":1,"stimulus":"img/750/equaldotsize/L/1_Ratio_750_L_20_R_15.png","xmouse":[814,814,814,814,814,814,814,814,814,814,814,814,814,814,814,814,814,814,814,814,814,814,814,814,814,814,814,814,814,814,814,813,807,795,770,732,680,671,668,668,662,640,632,623,614,604,583,567,552,538,526,491],"ymouse":[607,607,607,607,607,607,607,607,607,607,607,607,607,607,607,607,607,607,607,607,607,607,607,607,607,607,607,607,607,607,607,607,597,569,515,446,363,340,322,302,283,250,236,221,205,191,161,142,127,116,102,70],"timestamp_mouse":[15,39,46,68,87,107,127,147,168,186,207,226,247,266,286,307,327,348,368,388,406,426,446,468,488,506,527,547,566,586,607,626,647,668,687,706,726,747,766,786,807,826,846,867,887,906,926,947,967,987,1007,1027],"xSR":741.5,"ySR":573.95,"xT1":424.9,"yT1":0,"xT2":1058.1,"yT2":0,"toosoon":0,"cond_shown":"equaldotsize","ratio_trial":750,"smaller_num":"15","larger_num":"20","correct_side":1,"subjID":"dianasofiaavendañobeltran5","gender":"1","age":"11","school":"6"},{"start_time":1551901125544,"click_time":1551901127102,"finger_time":1551901126661,"fix_duration":281.1776904387223,"trial":16,"RT":1117,"MT":441,"sideResp":2,"stimulus":"img/900/randomdotsizeEA/L/10_Ratio_900_L_20_R_18.png","xmouse":[801,801,801,801,801,801,801,801,801,801,801,801,801,801,801,801,801,801,801,801,801,801,801,801,801,801,801,801,801,801,801,801,801,801,801,801,801,801,801,801,801,801,801,801,801,801,801,801,801,801,801,801,801,804,821,895,967,1038,1101,1134,1163,1167,1173,1179,1188,1204,1209,1213,1214,1214,1214,1214,1211,1208,1204,1181,1163,1143],"ymouse":[619,619,619,619,619,619,619,619,619,619,619,619,619,619,619,619,619,619,619,619,619,619,619,619,619,619,619,619,619,619,619,619,619,619,619,619,619,619,619,619,619,619,619,619,619,619,619,619,619,619,619,619,618,613,601,567,538,505,470,442,380,354,329,307,282,239,220,202,188,178,166,162,154,148,141,113,99,86],"timestamp_mouse":[17,38,57,77,99,117,138,158,178,197,217,238,258,277,299,318,338,357,379,399,417,439,458,478,499,518,537,558,579,598,617,639,658,677,697,719,737,757,777,798,818,839,858,878,899,917,937,958,977,997,1018,1037,1057,1077,1098,1117,1137,1159,1177,1198,1218,1238,1259,1277,1298,1317,1337,1358,1377,1398,1417,1438,1459,1477,1497,1519,1538,1558],"xSR":741.5,"ySR":573.95,"xT1":424.9,"yT1":0,"xT2":1058.1,"yT2":0,"toosoon":0,"cond_shown":"randomdotsizeEA","ratio_trial":900,"smaller_num":"18","larger_num":"20","correct_side":1,"subjID":"dianasofiaavendañobeltran5","gender":"1","age":"11","school":"6"},{"start_time":1551901128333,"click_time":1551901130442,"finger_time":1551901129761,"fix_duration":250,"trial":17,"RT":1428,"MT":681,"sideResp":1,"stimulus":"img/750/equaldotsize/R/11_Ratio_750_L_12_R_16.png","xmouse":[819,819,819,819,819,819,819,819,819,819,819,819,819,819,819,819,819,819,819,819,819,819,819,819,819,819,819,819,819,819,819,819,819,819,819,819,819,819,819,819,819,819,819,819,819,819,819,819,819,819,819,819,819,819,819,819,819,819,819,819,819,819,819,819,819,819,819,819,819,819,819,797,781,764,745,729,718,714,707,704,702,701,701,701,698,692,675,659,641,624,611,585,573,568,564,562,559,559,559,559,559,551,546,539,531,514],"ymouse":[634,634,634,634,634,634,634,634,634,634,634,634,634,634,634,634,634,634,634,634,634,634,634,634,634,634,634,634,634,634,634,634,634,634,634,634,634,634,634,634,634,634,634,634,634,634,634,634,634,634,634,634,634,634,634,634,634,634,634,634,634,634,634,634,634,634,634,634,634,633,630,572,541,516,495,474,437,405,371,344,329,322,321,319,311,297,256,224,198,173,149,105,85,74,67,61,57,57,57,57,57,57,58,58,59,62],"timestamp_mouse":[10,39,50,69,88,110,128,148,168,190,210,229,248,270,290,309,328,349,370,389,408,429,449,470,489,509,529,548,568,590,608,629,650,670,689,709,730,750,768,788,810,828,848,868,890,909,930,948,969,989,1009,1028,1049,1069,1089,1109,1130,1150,1169,1188,1209,1230,1249,1270,1289,1309,1328,1348,1369,1388,1409,1428,1448,1468,1488,1509,1529,1549,1569,1589,1610,1630,1649,1668,1688,1709,1728,1750,1769,1788,1809,1829,1849,1869,1888,1909,1930,1950,1968,1988,2008,2028,2048,2068,2088,2109],"xSR":741.5,"ySR":573.95,"xT1":424.9,"yT1":0,"xT2":1058.1,"yT2":0,"toosoon":0,"cond_shown":"equaldotsize","ratio_trial":750,"smaller_num":"12","larger_num":"16","correct_side":2,"subjID":"dianasofiaavendañobeltran5","gender":"1","age":"11","school":"6"},{"start_time":1551901133437,"click_time":1551901134962,"finger_time":1551901134541,"fix_duration":372.3497550840278,"trial":18,"RT":1104,"MT":421,"sideResp":1,"stimulus":"img/750/equaldotsize/L/13_Ratio_750_L_8_R_6.png","xmouse":[791,791,791,791,791,791,791,791,791,791,791,791,791,791,791,791,791,791,791,791,791,791,791,791,791,791,791,791,791,791,791,791,791,791,791,791,791,791,791,791,791,791,791,791,791,791,791,791,791,791,791,791,790,788,776,751,678,662,648,633,614,556,526,500,483,465,462,459,457,456,455,454,454,456,458,462,482],"ymouse":[635,635,635,635,635,635,635,635,635,635,635,635,635,635,635,635,635,635,635,635,635,635,635,635,635,635,635,635,635,635,635,635,635,635,635,635,635,635,635,635,635,635,635,635,635,635,635,635,635,635,635,635,635,629,603,562,473,453,433,403,362,270,237,212,193,165,155,145,140,136,132,125,123,118,115,110,89],"timestamp_mouse":[8,34,44,64,85,106,124,145,166,185,205,224,246,264,286,305,325,344,366,385,405,424,445,464,484,505,525,544,565,584,606,625,646,665,685,704,726,745,764,786,805,825,846,864,886,906,926,944,965,985,1006,1024,1045,1065,1084,1104,1124,1144,1165,1185,1205,1224,1245,1265,1285,1306,1324,1344,1364,1384,1405,1424,1444,1464,1484,1504,1525],"xSR":741.5,"ySR":573.95,"xT1":424.9,"yT1":0,"xT2":1058.1,"yT2":0,"toosoon":0,"cond_shown":"equaldotsize","ratio_trial":750,"smaller_num":"6","larger_num":"8","correct_side":1,"subjID":"dianasofiaavendañobeltran5","gender":"1","age":"11","school":"6"},{"start_time":1551901136890,"click_time":1551901137981,"finger_time":1551901137621,"fix_duration":1108.7187003205338,"trial":19,"RT":731,"MT":360,"sideResp":2,"stimulus":"img/500/equaldotanddens/R/1_Ratio_500_L_9_R_18.png","xmouse":[823,823,823,823,823,823,823,823,823,823,823,823,823,823,823,823,823,823,823,823,823,823,823,823,823,823,823,823,823,823,823,823,823,823,824,829,834,852,860,868,874,883,888,905,920,930,938,946,961,972,987,1004,1021,1066,1111],"ymouse":[646,646,646,646,646,646,646,646,646,646,646,646,646,646,646,646,646,646,646,646,646,646,646,646,646,646,646,646,646,646,646,646,646,646,642,605,569,487,460,438,418,398,379,336,308,293,280,271,255,245,232,218,200,147,95],"timestamp_mouse":[11,32,50,72,92,111,131,152,171,190,212,231,252,272,290,311,331,351,372,391,411,431,451,470,491,511,530,551,571,592,611,632,651,671,691,711,731,752,771,791,812,832,851,872,891,911,932,952,972,991,1011,1032,1050,1071,1090],"xSR":741.5,"ySR":573.95,"xT1":424.9,"yT1":0,"xT2":1058.1,"yT2":0,"toosoon":0,"cond_shown":"equaldotanddens","ratio_trial":500,"smaller_num":"9","larger_num":"18","correct_side":2,"subjID":"dianasofiaavendañobeltran5","gender":"1","age":"11","school":"6"},{"start_time":1551901140825,"click_time":1551901142381,"finger_time":1551901142021,"fix_duration":400.7359597954439,"trial":20,"RT":1196,"MT":360,"sideResp":1,"stimulus":"img/250/equaldotsize/L/3_Ratio_250_L_8_R_2.png","xmouse":[794,794,794,794,794,794,794,794,794,794,794,794,794,794,794,794,794,794,795,795,795,795,795,795,795,795,795,795,795,795,795,795,795,795,795,795,795,795,795,795,795,795,795,795,795,795,795,795,795,795,795,795,795,795,795,795,793,774,748,719,691,641,625,612,601,597,597,595,591,586,579,567,560,549,538,527,503,497],"ymouse":[649,649,649,649,649,649,649,649,649,649,649,649,649,649,649,649,653,655,656,656,656,656,656,656,656,656,656,656,656,656,656,656,656,656,656,656,656,656,656,656,656,656,656,656,656,656,656,656,656,656,656,656,656,656,656,656,651,620,584,542,510,451,431,413,397,384,357,343,332,320,307,276,251,220,189,163,106,92],"timestamp_mouse":[16,36,56,76,96,116,137,156,177,195,217,237,256,276,296,316,336,356,376,397,417,436,456,477,495,517,536,556,576,596,615,636,656,677,696,716,736,757,777,797,816,837,856,877,896,917,936,956,976,997,1015,1035,1057,1077,1097,1116,1136,1156,1176,1196,1216,1236,1256,1276,1296,1315,1336,1356,1376,1397,1417,1437,1455,1477,1496,1516,1536,1555],"xSR":741.5,"ySR":573.95,"xT1":424.9,"yT1":0,"xT2":1058.1,"yT2":0,"toosoon":0,"cond_shown":"equaldotsize","ratio_trial":250,"smaller_num":"2","larger_num":"8","correct_side":1,"subjID":"dianasofiaavendañobeltran5","gender":"1","age":"11","school":"6"},{"start_time":1551901145832,"click_time":1551901147242,"finger_time":1551901146721,"fix_duration":1250.6891594892782,"trial":21,"RT":889,"MT":521,"sideResp":2,"stimulus":"img/250/randomdotsizeEA/R/13_Ratio_250_L_2_R_8.png","xmouse":[811,811,811,811,814,818,823,823,823,823,823,823,823,823,823,823,823,823,823,823,823,823,823,823,823,823,823,823,823,823,823,823,823,823,823,823,823,823,823,823,823,823,823,827,832,848,916,938,950,957,963,973,977,983,985,988,996,997,998,999,1001,1005,1011,1017,1024,1029,1046,1054,1063,1069,1075],"ymouse":[643,643,643,643,630,614,588,585,585,585,585,585,585,585,585,585,585,585,585,585,585,585,589,591,592,593,593,593,593,593,593,594,594,596,597,597,597,597,597,597,597,597,597,580,566,526,400,360,335,316,301,277,266,255,245,234,218,214,209,206,201,190,182,174,165,156,133,124,114,105,98],"timestamp_mouse":[10,40,49,70,90,110,130,150,170,189,210,229,249,269,289,310,329,349,369,389,408,429,450,469,489,510,530,549,570,590,610,629,649,669,689,710,728,749,770,788,810,828,850,869,889,909,929,950,969,990,1009,1029,1049,1069,1090,1110,1129,1149,1169,1189,1209,1229,1250,1269,1290,1308,1329,1349,1369,1390,1410],"xSR":741.5,"ySR":573.95,"xT1":424.9,"yT1":0,"xT2":1058.1,"yT2":0,"toosoon":0,"cond_shown":"randomdotsizeEA","ratio_trial":250,"smaller_num":"2","larger_num":"8","correct_side":2,"subjID":"dianasofiaavendañobeltran5","gender":"1","age":"11","school":"6"},{"start_time":1551901148439,"click_time":1551901150361,"finger_time":1551901149221,"fix_duration":616.866692629419,"trial":22,"RT":782,"MT":1140,"sideResp":1,"stimulus":"img/500/equaldotsize/L/7_Ratio_500_L_10_R_5.png","xmouse":[802,802,802,802,802,802,802,802,802,802,802,802,802,802,802,802,802,802,802,802,802,802,802,802,802,802,802,802,802,802,802,802,802,802,801,799,789,779,773,765,757,743,732,721,708,696,654,638,622,611,603,597,593,587,582,576,554,541,526,516,508,503,503,503,503,503,503,503,503,503,503,503,503,503,503,503,503,503,503,503,503,503,503,502,502,502,500,499,499,499,498,497,497,497,497,504,523],"ymouse":[659,659,659,659,659,659,659,659,659,659,659,659,659,659,658,658,658,658,658,658,658,658,658,658,658,658,658,658,658,657,656,656,654,651,649,643,623,600,587,573,561,536,518,501,484,467,408,379,354,333,315,291,280,272,265,257,232,214,197,184,174,163,163,163,163,163,162,162,162,162,162,162,161,159,158,156,151,149,147,145,143,142,142,141,141,141,138,137,136,136,135,131,129,125,119,108,87],"timestamp_mouse":[9,31,42,62,83,102,123,142,161,183,202,222,242,263,282,301,323,343,361,383,402,423,442,463,481,503,522,543,562,582,603,623,642,662,683,702,723,743,762,782,802,822,842,863,882,902,923,942,962,982,1001,1022,1043,1062,1083,1102,1122,1143,1162,1182,1203,1222,1242,1263,1282,1303,1322,1342,1363,1382,1402,1422,1443,1463,1483,1502,1522,1541,1562,1582,1603,1623,1641,1662,1683,1703,1722,1743,1762,1783,1802,1822,1842,1862,1883,1902,1922],"xSR":741.5,"ySR":573.95,"xT1":424.9,"yT1":0,"xT2":1058.1,"yT2":0,"toosoon":0,"cond_shown":"equaldotsize","ratio_trial":500,"smaller_num":"5","larger_num":"10","correct_side":1,"subjID":"dianasofiaavendañobeltran5","gender":"1","age":"11","school":"6"},{"start_time":1551901152813,"click_time":1551901153662,"finger_time":1551901153401,"fix_duration":1330.6718537430008,"trial":23,"RT":588,"MT":261,"sideResp":1,"stimulus":"img/250/randomdotsizeEA/L/2_Ratio_250_L_16_R_4.png","xmouse":[782,782,782,782,782,782,782,782,782,782,782,782,782,782,782,782,782,782,782,782,782,782,782,782,782,782,782,782,778,763,738,705,654,638,620,599,584,559,542,533,526,521,516],"ymouse":[608,608,608,608,608,608,608,608,608,608,608,608,608,608,608,608,608,608,608,608,608,608,608,608,608,608,608,608,601,570,508,438,332,299,267,239,214,174,143,127,114,102,93],"timestamp_mouse":[8,35,48,68,88,108,128,149,168,188,209,228,247,269,288,308,328,349,368,388,408,428,448,468,488,508,528,548,569,588,609,628,648,668,688,709,729,748,768,789,807,829,849],"xSR":741.5,"ySR":573.95,"xT1":424.9,"yT1":0,"xT2":1058.1,"yT2":0,"toosoon":0,"cond_shown":"randomdotsizeEA","ratio_trial":250,"smaller_num":"4","larger_num":"16","correct_side":1,"subjID":"dianasofiaavendañobeltran5","gender":"1","age":"11","school":"6"},{"start_time":1551901156152,"click_time":1551901157302,"finger_time":1551901156921,"fix_duration":250,"trial":24,"RT":769,"MT":381,"sideResp":2,"stimulus":"img/500/randomdotsizeEA/R/9_Ratio_500_L_2_R_4.png","xmouse":[784,784,784,784,784,784,784,784,784,784,784,784,784,784,784,784,784,784,784,784,784,784,784,784,784,784,784,784,784,784,784,784,784,784,784,788,797,808,813,835,864,870,879,882,883,889,894,900,906,920,933,936,958,977,1003,1062,1077,1082],"ymouse":[636,636,635,635,635,635,635,635,635,635,635,635,635,635,635,635,635,635,635,635,635,635,635,635,635,635,635,635,635,635,635,635,635,635,635,626,611,593,573,512,441,422,371,343,318,270,247,228,211,184,170,166,154,145,134,108,101,97],"timestamp_mouse":[26,29,49,69,89,109,129,150,170,190,209,230,249,270,290,309,330,350,369,390,410,429,450,470,490,510,528,550,569,588,610,628,649,670,690,709,729,750,769,790,809,829,848,869,889,909,930,949,969,990,1009,1030,1050,1069,1089,1109,1129,1150],"xSR":741.5,"ySR":573.95,"xT1":424.9,"yT1":0,"xT2":1058.1,"yT2":0,"toosoon":0,"cond_shown":"randomdotsizeEA","ratio_trial":500,"smaller_num":"2","larger_num":"4","correct_side":2,"subjID":"dianasofiaavendañobeltran5","gender":"1","age":"11","school":"6"},{"start_time":1551901159312,"click_time":1551901160462,"finger_time":1551901159901,"fix_duration":909.5678410261032,"trial":25,"RT":589,"MT":561,"sideResp":1,"stimulus":"img/750/equaldotsize/L/8_Ratio_750_L_4_R_3.png","xmouse":[806,806,806,806,806,806,806,806,806,806,806,806,806,806,806,806,806,806,806,806,806,806,806,806,806,806,806,791,779,765,752,739,707,686,672,659,641,623,617,611,606,601,584,577,565,557,542,537,532,529,527,527,527,527,527,527,527,522],"ymouse":[629,629,629,629,629,629,629,629,629,629,629,629,629,629,629,629,629,629,629,629,629,629,629,629,629,626,623,597,579,559,540,521,478,447,423,399,375,343,329,316,303,290,252,232,208,188,144,129,117,108,105,105,105,105,105,105,104,96],"timestamp_mouse":[11,33,49,70,90,109,129,149,169,190,208,230,250,269,289,309,330,349,370,389,410,428,449,470,490,510,529,549,569,589,609,629,649,669,689,709,729,749,769,789,809,829,848,870,890,909,930,949,970,989,1009,1029,1049,1069,1089,1110,1129,1150],"xSR":741.5,"ySR":573.95,"xT1":424.9,"yT1":0,"xT2":1058.1,"yT2":0,"toosoon":0,"cond_shown":"equaldotsize","ratio_trial":750,"smaller_num":"3","larger_num":"4","correct_side":1,"subjID":"dianasofiaavendañobeltran5","gender":"1","age":"11","school":"6"},{"start_time":1551901162707,"click_time":1551901163742,"finger_time":1551901163302,"fix_duration":1483.6055266670535,"trial":26,"RT":595,"MT":440,"sideResp":1,"stimulus":"img/250/equaldotanddens/L/15_Ratio_250_L_12_R_3.png","xmouse":[784,784,784,784,784,784,784,784,784,784,784,784,784,784,784,784,784,784,784,784,784,784,784,784,784,784,784,782,771,758,740,695,660,630,608,593,581,566,561,558,552,546,540,538,538,537,532,524,517,511,507,499],"ymouse":[619,619,619,619,619,619,619,619,619,619,619,619,619,619,619,619,619,619,619,619,619,619,619,619,619,619,619,605,581,559,528,455,390,339,300,275,253,226,218,213,205,201,193,189,187,183,174,154,138,121,106,79],"timestamp_mouse":[14,34,54,74,95,115,133,155,175,195,215,234,254,274,294,315,335,353,375,395,415,435,455,475,494,515,535,554,574,595,614,635,654,674,694,714,734,754,774,794,815,834,855,874,895,913,934,955,973,994,1014,1035],"xSR":741.5,"ySR":573.95,"xT1":424.9,"yT1":0,"xT2":1058.1,"yT2":0,"toosoon":0,"cond_shown":"equaldotanddens","ratio_trial":250,"smaller_num":"3","larger_num":"12","correct_side":1,"subjID":"dianasofiaavendañobeltran5","gender":"1","age":"11","school":"6"},{"start_time":1551901165574,"click_time":1551901167681,"finger_time":1551901166822,"fix_duration":650.8426729885224,"trial":27,"RT":1248,"MT":859,"sideResp":1,"stimulus":"img/900/equaldotsize/L/2_Ratio_900_L_20_R_18.png","xmouse":[816,816,816,816,816,816,816,816,816,816,816,816,816,816,816,816,816,816,816,816,816,816,816,816,816,816,816,816,816,816,816,816,816,816,816,816,816,816,816,816,816,816,816,816,816,816,816,816,816,816,816,816,816,816,816,816,816,816,811,807,796,785,774,763,741,731,719,706,686,649,628,620,617,610,609,607,607,605,604,603,601,598,595,593,581,577,567,560,543,535,533,531,530,530,530,530,530,530,530,528,528,526,524,518,514,509],"ymouse":[641,641,641,641,641,641,641,641,641,641,641,641,641,641,641,641,641,641,641,641,641,641,641,641,641,641,641,641,641,641,641,641,641,641,641,641,641,641,641,641,641,641,641,641,641,641,641,641,641,641,641,641,641,641,641,641,641,641,635,624,605,587,568,549,505,482,454,419,387,326,287,274,266,243,238,234,230,226,224,218,214,207,202,199,186,181,172,163,148,141,139,137,136,136,136,136,136,136,136,135,134,131,127,113,102,91],"timestamp_mouse":[10,32,46,68,88,107,128,147,167,188,207,226,248,268,286,306,328,348,368,386,407,428,448,468,487,507,527,548,568,587,608,627,647,667,688,708,727,748,768,788,808,828,847,867,886,907,927,947,967,988,1007,1028,1047,1068,1088,1107,1128,1147,1168,1188,1207,1228,1248,1267,1288,1308,1328,1348,1367,1388,1407,1427,1447,1468,1486,1507,1527,1547,1568,1587,1608,1627,1647,1667,1687,1706,1727,1746,1768,1787,1806,1828,1847,1867,1887,1907,1927,1947,1967,1987,2007,2028,2047,2068,2087,2106],"xSR":741.5,"ySR":573.95,"xT1":424.9,"yT1":0,"xT2":1058.1,"yT2":0,"toosoon":0,"cond_shown":"equaldotsize","ratio_trial":900,"smaller_num":"18","larger_num":"20","correct_side":1,"subjID":"dianasofiaavendañobeltran5","gender":"1","age":"11","school":"6"},{"start_time":1551901170025,"click_time":1551901171061,"finger_time":1551901170701,"fix_duration":1402.4941009588867,"trial":28,"RT":676,"MT":360,"sideResp":2,"stimulus":"img/250/randomdotsizeEA/R/6_Ratio_250_L_6_R_24.png","xmouse":[756,756,756,756,756,756,756,756,756,756,756,756,756,756,756,756,756,756,756,756,756,756,756,756,756,756,756,756,756,756,756,756,774,816,863,924,970,972,968,957,949,933,924,920,920,920,927,940,967,1011,1054,1101],"ymouse":[608,608,608,608,608,608,608,608,608,608,608,608,608,608,608,608,608,608,608,608,608,608,608,608,608,608,608,608,608,608,608,608,575,494,413,309,170,117,67,11,0,0,0,0,0,0,0,2,14,27,37,41],"timestamp_mouse":[17,36,55,75,97,115,135,155,175,196,216,237,256,276,296,317,336,356,376,396,416,436,457,475,496,517,537,555,576,596,616,636,657,676,696,716,735,756,776,796,816,836,856,876,897,916,936,956,976,996,1016,1036],"xSR":741.5,"ySR":573.95,"xT1":424.9,"yT1":0,"xT2":1058.1,"yT2":0,"toosoon":0,"cond_shown":"randomdotsizeEA","ratio_trial":250,"smaller_num":"6","larger_num":"24","correct_side":2,"subjID":"dianasofiaavendañobeltran5","gender":"1","age":"11","school":"6"},{"start_time":1551901172532,"click_time":1551901173501,"finger_time":1551901173122,"fix_duration":250,"trial":29,"RT":590,"MT":379,"sideResp":2,"stimulus":"img/250/equaldotsize/R/4_Ratio_250_L_3_R_12.png","xmouse":[786,786,786,786,786,786,786,786,786,786,786,786,786,786,786,786,786,786,786,786,786,786,786,786,786,785,790,808,834,859,894,912,912,912,912,920,939,945,953,956,957,958,958,958,958,959,991,1033,1090],"ymouse":[644,644,644,644,644,644,644,644,644,644,644,644,644,644,644,644,644,644,644,644,644,644,644,644,644,644,638,620,596,569,523,455,401,322,238,165,88,66,50,39,32,23,21,21,21,20,30,46,63],"timestamp_mouse":[10,36,49,69,89,110,129,150,170,189,210,242,249,269,290,309,329,349,370,390,409,428,448,470,490,508,530,550,570,590,610,628,649,670,690,709,729,749,769,789,809,829,849,868,890,908,928,950,969],"xSR":741.5,"ySR":573.95,"xT1":424.9,"yT1":0,"xT2":1058.1,"yT2":0,"toosoon":0,"cond_shown":"equaldotsize","ratio_trial":250,"smaller_num":"3","larger_num":"12","correct_side":2,"subjID":"dianasofiaavendañobeltran5","gender":"1","age":"11","school":"6"},{"start_time":1551901174930,"click_time":1551901176301,"finger_time":1551901175601,"fix_duration":367.03899103324835,"trial":30,"RT":671,"MT":700,"sideResp":1,"stimulus":"img/900/randomdotsizeEA/R/11_Ratio_900_L_18_R_20.png","xmouse":[810,810,810,810,810,810,810,810,810,810,810,810,810,810,810,810,810,810,810,810,810,810,810,810,810,810,810,810,810,809,807,789,776,752,716,666,521,449,387,360,345,327,325,325,325,325,325,324,324,324,324,340,355,365,373,376,379,384,394,406,414,418,418,418,418,421,428,429,430],"ymouse":[650,650,650,650,650,650,650,650,650,650,650,650,650,650,650,650,650,650,650,650,650,650,650,650,650,650,650,650,650,648,640,611,593,567,527,488,415,384,357,341,329,303,292,270,248,228,208,203,199,195,193,175,165,158,152,150,148,144,137,130,126,124,124,123,123,116,105,100,96],"timestamp_mouse":[12,31,51,71,91,112,131,152,171,191,211,230,251,271,291,311,332,352,370,392,412,430,452,471,492,510,531,552,570,592,612,631,652,671,692,711,731,751,770,790,811,831,851,870,891,912,931,951,971,992,1011,1031,1052,1072,1091,1111,1131,1151,1172,1191,1210,1231,1251,1271,1291,1312,1331,1352,1371],"xSR":741.5,"ySR":573.95,"xT1":424.9,"yT1":0,"xT2":1058.1,"yT2":0,"toosoon":0,"cond_shown":"randomdotsizeEA","ratio_trial":900,"smaller_num":"18","larger_num":"20","correct_side":2,"subjID":"dianasofiaavendañobeltran5","gender":"1","age":"11","school":"6"},{"start_time":1551901178770,"click_time":1551901179881,"finger_time":1551901179521,"fix_duration":1387.1617553328758,"trial":31,"RT":751,"MT":360,"sideResp":1,"stimulus":"img/900/equaldotanddens/L/8_Ratio_900_L_20_R_18.png","xmouse":[813,813,813,813,813,813,813,813,813,813,813,813,813,813,813,813,813,813,813,813,813,813,813,813,813,813,813,813,813,813,813,813,813,814,814,814,810,802,789,756,733,721,710,705,693,685,673,658,645,612,598,583,567,547,502,479],"ymouse":[608,608,608,608,608,608,608,608,608,608,608,608,608,608,608,608,608,608,608,608,608,608,608,608,608,608,608,608,608,608,608,608,608,600,591,586,575,560,539,481,419,373,325,292,244,225,211,193,182,154,142,132,122,114,101,98],"timestamp_mouse":[11,35,51,71,91,110,131,151,172,191,211,231,251,272,291,312,332,352,372,390,411,431,452,471,491,511,532,552,572,591,611,630,651,672,692,711,731,751,771,790,812,831,852,871,891,912,931,952,971,991,1012,1030,1051,1072,1091,1111],"xSR":741.5,"ySR":573.95,"xT1":424.9,"yT1":0,"xT2":1058.1,"yT2":0,"toosoon":0,"cond_shown":"equaldotanddens","ratio_trial":900,"smaller_num":"18","larger_num":"20","correct_side":1,"subjID":"dianasofiaavendañobeltran5","gender":"1","age":"11","school":"6"},{"start_time":1551901182301,"click_time":1551901183961,"finger_time":1551901183380,"fix_duration":1318.4858321613644,"trial":32,"RT":1079,"MT":581,"sideResp":1,"stimulus":"img/900/randomdotsizeEA/L/1_Ratio_900_L_10_R_9.png","xmouse":[802,802,802,802,802,802,802,802,802,802,802,801,801,797,797,796,796,796,796,796,796,796,796,796,796,796,796,796,796,796,796,796,796,796,796,796,796,796,796,796,796,796,796,796,796,796,796,796,796,796,796,796,795,783,769,744,704,670,613,599,588,576,549,517,503,492,484,479,476,476,476,475,471,471,471,469,462,449,444,438,435,433,433,432],"ymouse":[591,591,591,591,591,591,591,591,591,591,591,591,591,591,592,592,592,592,592,592,592,592,592,592,592,592,592,592,592,592,592,592,592,592,592,592,592,592,592,592,592,592,592,592,592,592,592,592,592,592,592,592,592,575,552,523,491,467,429,418,406,388,339,268,243,221,200,186,173,170,167,165,160,159,159,156,145,125,118,110,105,102,101,94],"timestamp_mouse":[2,20,40,60,80,101,120,140,161,180,199,221,241,259,281,300,320,340,359,380,401,419,440,460,480,500,520,541,560,580,599,619,641,661,681,700,721,741,761,781,801,819,840,861,880,901,920,940,960,979,999,1020,1041,1060,1079,1099,1120,1141,1160,1180,1201,1220,1241,1260,1281,1301,1321,1341,1360,1380,1400,1420,1441,1459,1480,1501,1520,1541,1560,1581,1600,1621,1641,1660],"xSR":741.5,"ySR":573.95,"xT1":424.9,"yT1":0,"xT2":1058.1,"yT2":0,"toosoon":0,"cond_shown":"randomdotsizeEA","ratio_trial":900,"smaller_num":"9","larger_num":"10","correct_side":1,"subjID":"dianasofiaavendañobeltran5","gender":"1","age":"11","school":"6"},{"start_time":1551901186263,"click_time":1551901188601,"finger_time":1551901187261,"fix_duration":841.3201883767779,"trial":33,"RT":998,"MT":1340,"sideResp":2,"stimulus":"img/750/equaldotsize/R/3_Ratio_750_L_15_R_20.png","xmouse":[764,764,764,764,764,766,767,768,770,774,776,777,777,777,777,777,777,777,777,777,777,777,777,777,777,777,777,777,777,777,777,777,777,777,777,777,777,777,777,777,777,777,777,777,785,792,801,807,811,813,815,817,822,828,844,852,860,867,878,901,915,928,939,945,962,967,972,977,981,992,998,1003,1006,1011,1015,1018,1023,1030,1038,1051,1053,1055,1056,1056,1056,1056,1056,1056,1056,1056,1056,1055,1055,1054,1050,1048,1046,1046,1046,1046,1046,1046,1046,1046,1046,1046,1046,1046,1046,1046,1048,1048,1049,1049,1054,1058,1062],"ymouse":[607,607,607,607,607,607,607,607,607,608,609,609,610,610,610,610,610,610,610,610,610,610,610,610,610,610,610,610,610,610,610,610,610,610,610,610,610,610,610,610,610,610,610,610,603,595,586,579,575,569,565,560,551,542,513,498,477,452,414,330,276,232,196,172,121,103,87,77,68,51,40,34,30,28,27,27,30,35,41,52,54,56,57,57,57,57,57,57,59,65,68,70,71,73,80,83,86,86,86,86,86,86,86,86,86,86,86,86,86,86,86,86,86,85,76,69,66],"timestamp_mouse":[19,38,57,79,99,118,138,159,179,199,219,238,258,278,298,318,339,358,379,398,419,439,459,479,498,519,539,558,578,599,618,639,659,678,699,719,738,759,779,798,818,839,859,879,898,918,937,958,979,998,1019,1038,1059,1078,1098,1119,1138,1159,1179,1199,1217,1239,1258,1278,1298,1318,1337,1359,1379,1398,1418,1438,1458,1478,1499,1519,1537,1558,1578,1598,1619,1639,1658,1679,1698,1719,1739,1758,1779,1799,1818,1838,1858,1878,1898,1918,1938,1959,1978,1998,2018,2038,2057,2079,2099,2118,2138,2158,2179,2199,2218,2239,2258,2279,2299,2318,2338],"xSR":741.5,"ySR":573.95,"xT1":424.9,"yT1":0,"xT2":1058.1,"yT2":0,"toosoon":0,"cond_shown":"equaldotsize","ratio_trial":750,"smaller_num":"15","larger_num":"20","correct_side":2,"subjID":"dianasofiaavendañobeltran5","gender":"1","age":"11","school":"6"},{"start_time":1551901194363,"click_time":1551901195322,"finger_time":1551901195062,"fix_duration":801.6596852724307,"trial":34,"RT":699,"MT":260,"sideResp":2,"stimulus":"img/750/equaldotanddens/R/11_Ratio_750_L_12_R_16.png","xmouse":[805,805,805,805,805,805,805,805,805,805,805,805,806,806,806,806,806,806,806,806,806,806,806,806,806,806,806,806,806,806,806,806,807,812,838,850,866,883,901,976,991,1037,1057,1069,1081,1084,1085,1086],"ymouse":[621,621,621,621,621,621,621,621,621,621,621,621,620,620,620,620,620,620,620,620,620,620,620,620,620,620,620,620,620,620,620,620,616,609,573,548,508,443,368,203,184,135,119,110,103,101,100,99],"timestamp_mouse":[18,39,58,78,98,118,138,158,178,198,218,239,257,278,298,318,338,359,378,399,418,439,458,479,498,518,538,559,578,600,619,638,658,678,699,718,739,759,779,798,818,838,858,878,899,918,938,958],"xSR":741.5,"ySR":573.95,"xT1":424.9,"yT1":0,"xT2":1058.1,"yT2":0,"toosoon":0,"cond_shown":"equaldotanddens","ratio_trial":750,"smaller_num":"12","larger_num":"16","correct_side":2,"subjID":"dianasofiaavendañobeltran5","gender":"1","age":"11","school":"6"},{"start_time":1551901198359,"click_time":1551901199461,"finger_time":1551901199081,"fix_duration":716.4943932787997,"trial":35,"RT":722,"MT":380,"sideResp":1,"stimulus":"img/250/equaldotanddens/L/7_Ratio_250_L_8_R_2.png","xmouse":[807,807,807,807,807,807,807,807,807,807,807,807,807,807,807,807,807,807,807,807,807,807,807,807,807,807,807,807,807,807,807,807,808,808,808,796,758,686,595,428,388,371,371,374,388,390,390,390,390,390,390,390,390,391,401,433],"ymouse":[632,632,632,632,632,632,632,632,632,632,632,632,632,632,632,632,632,632,632,632,632,632,632,632,632,632,632,632,632,632,632,632,631,625,616,582,534,450,357,210,174,142,126,110,82,73,66,58,51,47,46,46,46,46,47,55],"timestamp_mouse":[7,29,44,62,82,102,122,142,162,183,203,222,242,262,283,302,322,342,362,384,403,423,444,463,484,502,522,543,563,582,602,622,643,662,683,703,722,743,763,784,802,823,842,862,883,902,922,942,962,984,1004,1023,1042,1062,1082,1102],"xSR":741.5,"ySR":573.95,"xT1":424.9,"yT1":0,"xT2":1058.1,"yT2":0,"toosoon":0,"cond_shown":"equaldotanddens","ratio_trial":250,"smaller_num":"2","larger_num":"8","correct_side":1,"subjID":"dianasofiaavendañobeltran5","gender":"1","age":"11","school":"6"},{"start_time":1551901201420,"click_time":1551901202401,"finger_time":1551901201901,"fix_duration":1016.2185802726661,"trial":36,"RT":481,"MT":500,"sideResp":1,"stimulus":"img/500/equaldotsize/L/13_Ratio_500_L_12_R_6.png","xmouse":[805,805,805,805,805,805,805,805,805,805,805,805,805,805,805,805,805,805,805,805,805,805,806,802,790,773,754,710,694,680,661,639,604,588,580,570,562,557,556,552,549,544,523,510,497,484,477,475,475,475],"ymouse":[606,606,606,606,606,606,606,606,606,606,606,606,606,606,606,606,606,606,606,606,606,606,605,588,567,546,526,473,450,428,401,368,294,254,233,220,211,207,205,200,196,191,169,155,143,133,126,111,105,98],"timestamp_mouse":[7,22,41,61,81,102,122,141,161,183,201,223,241,262,281,301,322,341,361,381,402,423,443,461,481,502,523,541,562,581,602,622,641,661,682,702,722,741,762,781,802,823,841,862,882,901,922,941,962,981],"xSR":741.5,"ySR":573.95,"xT1":424.9,"yT1":0,"xT2":1058.1,"yT2":0,"toosoon":0,"cond_shown":"equaldotsize","ratio_trial":500,"smaller_num":"6","larger_num":"12","correct_side":1,"subjID":"dianasofiaavendañobeltran5","gender":"1","age":"11","school":"6"},{"start_time":1551901204138,"click_time":1551901205421,"finger_time":1551901204862,"fix_duration":714.4506602468538,"trial":37,"RT":724,"MT":559,"sideResp":2,"stimulus":"img/250/randomdotsizeEA/R/10_Ratio_250_L_4_R_16.png","xmouse":[811,811,811,811,811,811,811,811,811,811,811,811,811,811,811,811,811,811,811,811,811,811,811,811,811,811,811,811,811,811,811,811,811,811,812,814,846,865,884,901,918,949,991,1020,1057,1082,1107,1109,1109,1109,1108,1108,1108,1106,1101,1098,1094,1093,1092,1092,1092,1094,1094,1094,1094],"ymouse":[614,614,614,614,614,614,614,614,614,614,614,614,614,614,614,614,614,614,614,614,614,614,614,614,614,614,614,614,614,614,614,614,614,614,614,609,578,564,550,532,512,476,453,436,415,399,374,364,354,342,325,308,298,287,274,260,229,215,201,188,175,138,123,108,98],"timestamp_mouse":[9,35,43,64,85,104,124,144,163,184,203,223,243,263,284,303,323,343,363,384,404,423,444,463,483,504,523,544,565,585,604,623,644,664,683,704,724,743,763,784,803,824,844,863,883,903,923,943,964,983,1004,1023,1043,1064,1083,1103,1124,1143,1163,1184,1204,1224,1244,1263,1283],"xSR":741.5,"ySR":573.95,"xT1":424.9,"yT1":0,"xT2":1058.1,"yT2":0,"toosoon":0,"cond_shown":"randomdotsizeEA","ratio_trial":250,"smaller_num":"4","larger_num":"16","correct_side":2,"subjID":"dianasofiaavendañobeltran5","gender":"1","age":"11","school":"6"},{"start_time":1551901207734,"click_time":1551901208902,"finger_time":1551901208402,"fix_duration":1431.7154517741153,"trial":38,"RT":668,"MT":500,"sideResp":2,"stimulus":"img/750/randomdotsizeEA/R/15_Ratio_750_L_9_R_12.png","xmouse":[810,810,810,810,810,810,810,810,810,810,810,810,810,810,810,810,810,810,810,810,810,810,810,810,810,810,810,810,810,810,810,810,812,815,818,822,836,849,866,881,898,944,958,969,981,989,998,1002,1007,1012,1021,1051,1061,1067,1070,1074,1081,1086,1091],"ymouse":[605,605,605,605,605,605,605,605,605,605,605,605,605,605,605,605,605,605,605,605,605,605,605,605,605,605,605,605,605,600,598,585,574,567,557,550,525,507,487,468,448,387,362,344,330,319,306,300,292,283,267,211,190,172,160,148,124,103,84],"timestamp_mouse":[8,37,48,67,89,107,128,149,167,187,207,228,247,267,287,308,328,348,369,387,408,429,449,469,487,508,527,547,567,587,607,629,648,668,688,707,727,747,768,789,807,827,848,868,887,908,929,948,967,989,1008,1027,1047,1067,1087,1107,1127,1148,1168],"xSR":741.5,"ySR":573.95,"xT1":424.9,"yT1":0,"xT2":1058.1,"yT2":0,"toosoon":0,"cond_shown":"randomdotsizeEA","ratio_trial":750,"smaller_num":"9","larger_num":"12","correct_side":2,"subjID":"dianasofiaavendañobeltran5","gender":"1","age":"11","school":"6"},{"start_time":1551901212553,"click_time":1551901214041,"finger_time":1551901213322,"fix_duration":1450.8398154754013,"trial":39,"RT":769,"MT":719,"sideResp":1,"stimulus":"img/900/equaldotsize/R/5_Ratio_900_L_9_R_10.png","xmouse":[794,794,794,794,793,793,793,793,793,793,793,793,793,793,793,793,793,793,793,793,793,793,793,793,793,793,793,793,793,793,793,793,793,793,793,793,793,792,787,782,763,754,745,737,728,709,695,684,674,665,652,649,647,646,644,617,588,547,487,430,374,372,372,372,373,381,386,393,398,402,413,416,418,424,436],"ymouse":[637,637,637,637,636,636,636,636,636,636,636,636,636,636,636,636,636,636,636,636,636,636,636,636,636,636,636,636,636,636,636,635,633,631,630,621,608,590,560,513,416,386,358,332,299,239,211,189,167,145,116,113,111,110,110,110,113,119,127,135,136,136,133,128,124,111,105,97,93,90,84,83,83,83,85],"timestamp_mouse":[10,36,48,69,88,109,128,149,169,189,208,229,248,268,288,308,328,349,369,389,408,430,448,469,488,509,530,549,568,588,609,629,649,668,689,708,728,749,769,788,808,828,849,868,889,908,929,950,969,988,1008,1029,1048,1068,1089,1108,1128,1148,1168,1189,1209,1229,1249,1269,1288,1309,1328,1348,1368,1388,1409,1428,1449,1468,1488],"xSR":741.5,"ySR":573.95,"xT1":424.9,"yT1":0,"xT2":1058.1,"yT2":0,"toosoon":0,"cond_shown":"equaldotsize","ratio_trial":900,"smaller_num":"9","larger_num":"10","correct_side":2,"subjID":"dianasofiaavendañobeltran5","gender":"1","age":"11","school":"6"},{"start_time":1551901215474,"click_time":1551901216601,"finger_time":1551901216101,"fix_duration":250,"trial":40,"RT":627,"MT":500,"sideResp":2,"stimulus":"img/900/equaldotsize/L/8_Ratio_900_L_20_R_18.png","xmouse":[788,788,788,788,788,788,788,788,788,788,788,788,788,788,788,788,788,788,788,788,788,788,788,789,792,792,792,794,796,801,804,810,819,832,872,906,924,940,953,978,989,1003,1018,1030,1055,1059,1062,1063,1063,1063,1063,1063,1063,1063,1069,1073,1078],"ymouse":[622,622,622,622,622,622,622,622,622,622,622,622,622,622,622,622,622,622,622,622,622,622,622,620,613,611,609,606,602,590,581,566,547,520,451,403,376,353,336,304,290,275,262,254,230,223,214,209,201,184,177,168,157,149,116,105,93],"timestamp_mouse":[8,31,48,67,88,107,128,148,167,188,208,228,247,268,288,308,328,347,367,387,408,428,447,467,487,507,528,547,568,588,607,627,647,668,689,707,727,747,768,787,807,828,847,867,887,908,927,947,968,987,1008,1028,1048,1068,1087,1107,1127],"xSR":741.5,"ySR":573.95,"xT1":424.9,"yT1":0,"xT2":1058.1,"yT2":0,"toosoon":0,"cond_shown":"equaldotsize","ratio_trial":900,"smaller_num":"18","larger_num":"20","correct_side":1,"subjID":"dianasofiaavendañobeltran5","gender":"1","age":"11","school":"6"},{"start_time":1551901218811,"click_time":1551901220881,"finger_time":1551901219861,"fix_duration":1269.5507082739812,"trial":41,"RT":1050,"MT":1020,"sideResp":2,"stimulus":"img/900/equaldotanddens/R/13_Ratio_900_L_18_R_20.png","xmouse":[782,783,783,783,783,783,783,783,783,783,783,783,783,783,783,783,783,783,783,783,783,783,783,783,783,783,783,783,783,783,783,783,783,783,783,783,783,783,783,785,786,786,788,788,788,788,788,788,788,788,788,788,783,777,767,752,739,717,699,689,680,670,648,637,623,610,599,582,582,582,581,581,587,601,624,661,784,893,963,1033,1093,1141,1197,1213,1226,1233,1245,1249,1251,1251,1250,1244,1220,1199,1174,1147,1121,1094,1094,1094,1094,1096,1098,1103],"ymouse":[646,645,645,645,645,645,645,645,645,645,645,645,645,645,645,645,645,645,645,645,645,645,645,645,645,645,645,645,645,645,645,645,645,645,645,645,645,644,641,639,635,633,629,628,627,625,621,614,606,601,594,585,543,514,476,422,375,304,259,237,217,196,161,150,141,131,126,120,120,120,120,122,139,152,169,189,238,272,288,296,296,294,271,257,238,218,196,188,176,167,156,146,128,122,115,111,109,108,108,108,108,105,102,98],"timestamp_mouse":[10,32,50,70,91,110,131,150,170,191,212,230,251,270,291,311,331,351,370,390,411,430,451,471,491,510,530,552,572,591,611,630,650,671,690,711,731,750,771,791,811,830,851,870,891,911,931,950,971,990,1011,1030,1050,1071,1090,1110,1130,1152,1170,1190,1211,1230,1251,1270,1290,1311,1330,1350,1370,1392,1411,1431,1450,1471,1490,1510,1532,1550,1570,1590,1612,1630,1650,1670,1690,1710,1732,1750,1770,1790,1811,1830,1852,1870,1891,1910,1930,1950,1971,1990,2010,2031,2050,2070],"xSR":741.5,"ySR":573.95,"xT1":424.9,"yT1":0,"xT2":1058.1,"yT2":0,"toosoon":0,"cond_shown":"equaldotanddens","ratio_trial":900,"smaller_num":"18","larger_num":"20","correct_side":2,"subjID":"dianasofiaavendañobeltran5","gender":"1","age":"11","school":"6"},{"start_time":1551901223286,"click_time":1551901224402,"finger_time":1551901224101,"fix_duration":1163.773672568187,"trial":42,"RT":815,"MT":301,"sideResp":2,"stimulus":"img/500/equaldotsize/R/14_Ratio_500_L_5_R_10.png","xmouse":[780,780,780,780,780,780,780,780,780,780,780,780,778,771,771,771,771,771,771,771,771,771,771,771,771,771,771,771,771,771,771,771,771,771,771,771,771,771,771,776,814,864,914,967,988,1000,1013,1032,1058,1065,1068,1069,1073,1079,1089,1101],"ymouse":[612,612,612,612,612,612,612,612,612,612,612,612,612,611,611,611,611,611,611,611,611,611,611,611,611,611,611,611,611,611,611,611,611,611,611,611,611,611,611,603,572,532,482,394,332,289,245,207,159,147,140,135,124,114,103,87],"timestamp_mouse":[17,35,56,76,96,116,135,156,177,195,215,236,255,275,296,316,337,355,375,396,415,435,457,475,496,515,536,555,576,596,615,635,655,677,695,715,735,756,776,795,815,835,856,875,895,915,936,956,976,997,1015,1036,1056,1075,1096,1116],"xSR":741.5,"ySR":573.95,"xT1":424.9,"yT1":0,"xT2":1058.1,"yT2":0,"toosoon":0,"cond_shown":"equaldotsize","ratio_trial":500,"smaller_num":"5","larger_num":"10","correct_side":2,"subjID":"dianasofiaavendañobeltran5","gender":"1","age":"11","school":"6"},{"start_time":1551901226305,"click_time":1551901227282,"finger_time":1551901226942,"fix_duration":1161.3957602629728,"trial":43,"RT":637,"MT":340,"sideResp":1,"stimulus":"img/250/randomdotsizeEA/L/7_Ratio_250_L_8_R_2.png","xmouse":[821,821,821,821,821,821,821,821,821,821,821,821,821,821,821,821,821,821,821,821,821,821,821,821,821,821,821,821,821,812,806,782,710,655,621,596,558,543,533,524,520,518,518,518,518,519,520,520,520],"ymouse":[611,611,611,611,611,611,611,611,611,611,611,611,611,611,611,611,611,611,611,611,611,611,611,611,611,611,611,611,611,591,578,534,420,357,319,289,228,203,185,173,165,151,144,138,132,129,123,104,91],"timestamp_mouse":[18,36,56,76,98,116,136,156,177,196,216,237,256,276,296,316,336,356,376,396,418,436,458,477,497,516,536,557,576,597,617,637,656,676,696,718,738,756,777,796,816,837,857,877,897,917,937,956,977],"xSR":741.5,"ySR":573.95,"xT1":424.9,"yT1":0,"xT2":1058.1,"yT2":0,"toosoon":0,"cond_shown":"randomdotsizeEA","ratio_trial":250,"smaller_num":"2","larger_num":"8","correct_side":1,"subjID":"dianasofiaavendañobeltran5","gender":"1","age":"11","school":"6"},{"start_time":1551901228714,"click_time":1551901229922,"finger_time":1551901229462,"fix_duration":630.9221538392985,"trial":44,"RT":748,"MT":460,"sideResp":2,"stimulus":"img/900/randomdotsizeEA/R/3_Ratio_900_L_9_R_10.png","xmouse":[816,816,816,816,816,816,816,816,816,816,816,816,816,816,816,816,816,816,816,816,816,816,816,816,816,816,816,816,816,816,816,816,816,816,816,819,825,856,870,885,895,905,925,941,949,959,969,985,990,996,1001,1006,1013,1018,1019,1023,1032,1039,1045,1053,1063],"ymouse":[602,602,602,602,602,602,602,602,602,602,602,602,602,602,602,602,602,602,602,602,602,602,602,602,602,602,602,602,602,602,602,602,602,602,603,595,583,529,503,476,453,431,384,353,333,310,291,259,246,233,222,212,197,185,179,169,150,139,127,113,98],"timestamp_mouse":[8,29,47,67,88,107,127,148,168,187,208,229,248,268,287,308,327,349,367,388,407,429,448,469,487,507,527,548,568,588,608,628,648,669,687,708,727,748,767,788,807,828,848,867,888,909,928,947,967,987,1008,1027,1047,1067,1087,1108,1129,1147,1168,1188,1208],"xSR":741.5,"ySR":573.95,"xT1":424.9,"yT1":0,"xT2":1058.1,"yT2":0,"toosoon":0,"cond_shown":"randomdotsizeEA","ratio_trial":900,"smaller_num":"9","larger_num":"10","correct_side":2,"subjID":"dianasofiaavendañobeltran5","gender":"1","age":"11","school":"6"},{"start_time":1551901232938,"click_time":1551901234261,"finger_time":1551901233661,"fix_duration":513.9840269979729,"trial":45,"RT":723,"MT":600,"sideResp":2,"stimulus":"img/900/equaldotsize/L/8_Ratio_900_L_20_R_18.png","xmouse":[821,821,821,821,821,821,821,821,821,821,821,821,821,821,821,821,821,821,821,821,821,821,821,821,821,821,821,821,821,821,821,821,821,821,823,829,870,882,892,897,901,910,922,936,954,969,985,988,990,993,996,1003,1009,1025,1038,1054,1077,1081,1081,1081,1081,1082,1085,1088,1091,1097,1100],"ymouse":[635,635,635,635,635,635,635,635,635,635,635,635,635,635,635,635,635,635,635,635,635,635,635,635,636,637,637,637,637,637,637,637,637,637,638,634,564,539,520,504,482,420,362,316,271,236,199,191,187,183,180,171,163,153,147,141,133,133,133,133,133,132,130,127,121,106,99],"timestamp_mouse":[10,34,44,63,83,103,125,144,163,184,204,223,243,264,284,304,323,344,365,384,403,424,444,465,484,504,524,544,563,583,603,623,644,663,683,703,723,743,764,784,803,823,845,863,883,905,924,943,963,983,1005,1023,1045,1063,1084,1103,1123,1143,1163,1185,1204,1224,1244,1264,1284,1304,1323],"xSR":741.5,"ySR":573.95,"xT1":424.9,"yT1":0,"xT2":1058.1,"yT2":0,"toosoon":0,"cond_shown":"equaldotsize","ratio_trial":900,"smaller_num":"18","larger_num":"20","correct_side":1,"subjID":"dianasofiaavendañobeltran5","gender":"1","age":"11","school":"6"},{"start_time":1551901237037,"click_time":1551901238661,"finger_time":1551901237843,"fix_duration":493.6884725579234,"trial":46,"RT":806,"MT":818,"sideResp":2,"stimulus":"img/750/equaldotsize/R/2_Ratio_750_L_6_R_8.png","xmouse":[773,773,773,773,773,773,773,773,773,773,773,773,773,773,773,773,773,773,773,773,773,773,773,773,773,773,773,773,773,773,773,773,773,773,773,775,780,789,805,815,832,840,846,852,858,867,869,870,872,875,884,890,894,897,899,901,901,901,901,901,901,902,902,903,903,906,910,918,939,941,941,941,943,947,959,990,1006,1018,1030,1046,1056,1081],"ymouse":[632,632,632,632,632,632,632,632,632,632,632,632,632,632,632,632,632,632,632,632,632,632,632,632,632,632,632,632,632,632,632,632,632,632,632,630,621,609,590,579,560,552,545,538,531,520,517,513,508,503,491,484,479,472,466,452,440,429,412,403,396,389,385,382,380,364,350,324,268,263,258,246,239,229,215,192,180,169,156,138,124,97],"timestamp_mouse":[12,33,45,65,84,104,124,144,164,185,205,224,244,265,284,304,324,346,365,385,406,425,445,465,484,504,524,544,566,585,604,624,644,665,685,705,725,744,765,786,806,824,844,865,886,906,924,944,965,984,1005,1024,1046,1066,1085,1105,1124,1145,1164,1186,1204,1224,1244,1264,1285,1305,1324,1345,1365,1385,1404,1424,1445,1465,1485,1506,1524,1544,1566,1584,1604,1624],"xSR":741.5,"ySR":573.95,"xT1":424.9,"yT1":0,"xT2":1058.1,"yT2":0,"toosoon":0,"cond_shown":"equaldotsize","ratio_trial":750,"smaller_num":"6","larger_num":"8","correct_side":2,"subjID":"dianasofiaavendañobeltran5","gender":"1","age":"11","school":"6"},{"start_time":1551901240455,"click_time":1551901241501,"finger_time":1551901241161,"fix_duration":812.7350479130945,"trial":47,"RT":706,"MT":340,"sideResp":1,"stimulus":"img/500/equaldotanddens/L/13_Ratio_500_L_12_R_6.png","xmouse":[826,826,826,826,826,826,826,825,824,820,816,816,816,816,816,816,816,816,816,816,816,816,816,816,816,816,816,816,816,816,816,811,803,788,764,699,669,639,603,579,538,522,511,501,489,485,483,483,487,498,501,505,508],"ymouse":[618,618,618,618,618,618,618,618,618,618,618,617,617,617,617,617,617,617,617,617,617,617,617,617,617,617,617,617,617,617,617,613,605,593,574,513,480,441,391,357,299,276,259,243,216,202,183,166,147,118,110,103,97],"timestamp_mouse":[8,35,47,66,87,107,128,146,166,186,206,227,247,266,287,307,326,346,367,387,408,427,446,468,486,506,526,547,567,586,606,627,647,666,687,706,727,747,766,786,806,827,846,868,887,906,927,947,966,987,1006,1027,1046],"xSR":741.5,"ySR":573.95,"xT1":424.9,"yT1":0,"xT2":1058.1,"yT2":0,"toosoon":0,"cond_shown":"equaldotanddens","ratio_trial":500,"smaller_num":"6","larger_num":"12","correct_side":1,"subjID":"dianasofiaavendañobeltran5","gender":"1","age":"11","school":"6"},{"start_time":1551901242516,"click_time":1551901243661,"finger_time":1551901243121,"fix_duration":313.70131728755115,"trial":48,"RT":605,"MT":540,"sideResp":2,"stimulus":"img/250/equaldotanddens/R/8_Ratio_250_L_1_R_4.png","xmouse":[761,761,761,761,761,761,761,761,761,761,761,761,761,761,761,761,761,761,761,761,761,761,761,761,761,761,761,768,780,797,821,868,892,911,929,953,965,994,1010,1025,1035,1050,1054,1055,1055,1052,1050,1047,1046,1046,1046,1047,1048,1048,1048,1050,1057,1061],"ymouse":[650,650,648,648,648,648,648,648,648,648,648,648,648,648,648,648,648,648,648,648,648,648,648,648,648,648,648,638,622,597,562,480,438,403,372,331,308,258,229,203,180,137,118,107,99,92,88,79,72,65,59,54,51,51,51,51,59,64],"timestamp_mouse":[10,25,46,65,86,106,125,146,166,186,206,225,245,266,286,306,325,345,365,386,407,427,445,466,485,505,525,545,566,586,605,626,645,665,686,706,725,746,766,786,805,826,846,865,887,905,925,947,965,986,1006,1025,1047,1066,1086,1106,1126,1145],"xSR":741.5,"ySR":573.95,"xT1":424.9,"yT1":0,"xT2":1058.1,"yT2":0,"toosoon":0,"cond_shown":"equaldotanddens","ratio_trial":250,"smaller_num":"1","larger_num":"4","correct_side":2,"subjID":"dianasofiaavendañobeltran5","gender":"1","age":"11","school":"6"},{"start_time":1551901245240,"click_time":1551901248502,"finger_time":1551901247842,"fix_duration":677.6767013941957,"trial":49,"RT":2602,"MT":660,"sideResp":2,"stimulus":"img/500/equaldotanddens/R/2_Ratio_500_L_3_R_6.png","xmouse":[785,785,785,785,785,785,785,785,785,785,785,785,785,785,785,785,785,785,785,785,785,785,785,785,785,785,785,785,785,785,785,785,785,785,785,785,785,785,785,785,785,785,785,785,785,785,785,785,785,785,785,785,785,785,785,785,785,785,785,785,785,785,785,785,785,785,785,785,785,785,785,785,785,785,785,785,785,785,785,785,785,785,785,785,785,785,785,785,785,785,785,785,785,785,785,785,785,785,785,785,785,785,785,785,785,785,785,785,785,785,785,785,785,785,785,785,785,785,785,785,785,785,785,785,785,785,785,785,785,817,914,962,994,1012,1024,1041,1046,1053,1062,1072,1082,1084,1084,1084,1084,1076,1071,1066,1063,1054,1049,1044,1043,1041,1041,1041,1040,1040,1040,1040,1043,1046,1053,1065],"ymouse":[614,614,614,614,614,614,614,614,614,614,614,614,614,614,614,614,614,614,614,614,614,614,614,614,614,614,614,614,614,614,614,614,614,614,614,614,614,614,614,614,614,614,614,614,614,614,614,614,614,614,614,614,614,614,614,614,614,614,614,614,614,614,614,614,614,614,614,614,614,614,614,614,614,614,614,614,614,614,614,614,614,614,614,614,614,614,614,614,614,614,614,614,614,614,614,614,614,614,614,614,614,614,614,614,614,614,614,614,614,614,614,614,614,614,614,614,614,614,614,614,614,614,614,614,614,614,614,614,612,584,525,494,476,458,441,403,384,361,336,302,266,251,230,216,208,192,185,176,170,139,124,100,89,79,70,55,51,43,42,40,39,39,39,39],"timestamp_mouse":[8,21,41,61,83,102,121,141,161,182,203,221,243,262,281,301,321,342,361,382,402,422,442,461,483,502,522,541,561,582,602,621,641,661,682,702,721,741,763,783,801,821,842,862,881,901,922,942,961,982,1002,1021,1042,1062,1083,1101,1122,1141,1162,1181,1201,1222,1241,1261,1281,1302,1322,1341,1362,1381,1401,1421,1443,1462,1482,1502,1521,1542,1562,1582,1601,1621,1641,1662,1681,1702,1722,1741,1763,1781,1802,1823,1841,1862,1882,1902,1921,1942,1961,1982,2003,2021,2042,2062,2081,2101,2122,2142,2163,2182,2201,2223,2242,2263,2282,2301,2322,2341,2362,2382,2401,2422,2442,2462,2482,2503,2521,2541,2562,2583,2602,2621,2641,2662,2681,2701,2721,2742,2762,2782,2802,2821,2841,2862,2881,2901,2921,2942,2961,2982,3002,3021,3042,3061,3081,3101,3121,3141,3162,3181,3201,3221,3242,3261],"xSR":741.5,"ySR":573.95,"xT1":424.9,"yT1":0,"xT2":1058.1,"yT2":0,"toosoon":0,"cond_shown":"equaldotanddens","ratio_trial":500,"smaller_num":"3","larger_num":"6","correct_side":2,"subjID":"dianasofiaavendañobeltran5","gender":"1","age":"11","school":"6"},{"start_time":1551901250033,"click_time":1551901251321,"finger_time":1551901250862,"fix_duration":570.6655657406795,"trial":50,"RT":829,"MT":459,"sideResp":2,"stimulus":"img/750/randomdotsizeEA/R/11_Ratio_750_L_12_R_16.png","xmouse":[804,804,804,804,804,804,804,804,804,804,804,804,804,804,804,804,804,804,804,804,804,804,804,804,804,804,804,804,804,804,804,804,804,804,804,804,804,804,804,804,812,820,829,842,854,887,910,935,956,977,987,995,996,999,1004,1016,1022,1029,1031,1034,1043,1048,1052,1056,1060],"ymouse":[625,625,625,625,625,625,625,625,625,625,625,625,625,625,625,625,625,625,625,625,625,625,625,625,625,625,625,625,625,625,625,625,625,625,625,625,625,625,625,620,580,553,527,500,473,400,355,317,280,246,228,202,192,183,169,142,128,110,104,91,71,60,51,42,34],"timestamp_mouse":[11,37,49,69,88,108,128,149,168,189,208,229,249,268,288,309,328,348,368,390,409,429,449,469,490,508,529,549,568,589,609,628,649,670,690,709,729,749,769,789,809,829,848,870,888,909,928,949,968,988,1010,1028,1049,1068,1090,1108,1128,1148,1168,1188,1208,1228,1249,1270,1288],"xSR":741.5,"ySR":573.95,"xT1":424.9,"yT1":0,"xT2":1058.1,"yT2":0,"toosoon":0,"cond_shown":"randomdotsizeEA","ratio_trial":750,"smaller_num":"12","larger_num":"16","correct_side":2,"subjID":"dianasofiaavendañobeltran5","gender":"1","age":"11","school":"6"},{"start_time":1551901253637,"click_time":1551901254403,"finger_time":1551901254302,"fix_duration":1374.7513836655473,"trial":51,"RT":665,"MT":101,"sideResp":2,"stimulus":"img/250/equaldotanddens/R/12_Ratio_250_L_5_R_20.png","xmouse":[802,802,802,802,802,802,802,802,802,802,802,802,802,802,802,802,802,802,802,802,802,802,802,802,802,802,802,802,802,802,802,802,805,830,878,1003,1054,1093,1123],"ymouse":[630,630,630,630,630,630,630,630,630,630,630,630,630,630,630,630,630,630,630,630,630,630,630,630,630,630,630,630,630,630,630,630,613,568,495,291,183,104,18],"timestamp_mouse":[8,35,45,64,85,104,126,144,164,184,205,225,244,265,285,304,325,344,365,385,405,424,444,465,486,504,524,546,564,584,604,624,644,665,684,704,724,745,766],"xSR":741.5,"ySR":573.95,"xT1":424.9,"yT1":0,"xT2":1058.1,"yT2":0,"toosoon":0,"cond_shown":"equaldotanddens","ratio_trial":250,"smaller_num":"5","larger_num":"20","correct_side":2,"subjID":"dianasofiaavendañobeltran5","gender":"1","age":"11","school":"6"},{"start_time":1551901260067,"click_time":1551901260821,"finger_time":1551901260661,"fix_duration":1344.5118058448775,"trial":52,"RT":594,"MT":160,"sideResp":1,"stimulus":"img/750/randomdotsizeEA/L/13_Ratio_750_L_8_R_6.png","xmouse":[796,796,796,796,796,796,796,796,796,796,796,796,796,796,796,796,796,796,796,796,796,796,796,796,796,796,796,797,795,751,711,658,605,563,495,476,460,445],"ymouse":[624,624,624,624,624,624,624,624,624,624,624,624,624,624,624,624,624,624,624,624,624,624,624,624,624,624,624,624,616,520,453,379,315,267,183,152,120,88],"timestamp_mouse":[14,37,54,75,94,115,134,154,175,195,214,234,254,274,295,314,336,355,376,394,414,434,454,475,494,514,534,554,575,594,615,634,655,675,694,714,734,754],"xSR":741.5,"ySR":573.95,"xT1":424.9,"yT1":0,"xT2":1058.1,"yT2":0,"toosoon":0,"cond_shown":"randomdotsizeEA","ratio_trial":750,"smaller_num":"6","larger_num":"8","correct_side":1,"subjID":"dianasofiaavendañobeltran5","gender":"1","age":"11","school":"6"},{"start_time":1551901262510,"click_time":1551901263861,"finger_time":1551901263122,"fix_duration":787.9631143882432,"trial":53,"RT":612,"MT":739,"sideResp":1,"stimulus":"img/750/equaldotsize/L/14_Ratio_750_L_8_R_6.png","xmouse":[773,773,773,773,773,773,773,773,773,773,773,773,773,773,773,773,773,773,773,773,773,773,773,773,774,778,783,794,799,801,806,811,831,840,849,852,854,856,856,856,856,860,861,861,860,856,850,813,766,696,611,493,433,426,421,419,416,408,400,393,385,383,383,383,386,395,415,459],"ymouse":[604,604,604,604,604,604,604,604,604,604,604,604,604,604,604,604,604,604,604,604,604,604,604,604,604,600,594,584,580,577,573,568,548,539,532,528,526,523,523,522,520,512,503,502,497,492,485,453,419,358,289,204,159,152,146,141,134,114,98,83,72,67,62,60,59,59,59,59],"timestamp_mouse":[11,36,52,72,91,112,132,151,172,191,212,231,251,272,291,312,332,351,372,391,411,431,453,472,492,512,531,551,572,591,612,631,651,671,691,711,732,751,771,791,811,832,852,871,892,911,932,951,972,993,1012,1032,1051,1072,1092,1112,1132,1151,1172,1191,1212,1232,1251,1271,1292,1312,1331,1351],"xSR":741.5,"ySR":573.95,"xT1":424.9,"yT1":0,"xT2":1058.1,"yT2":0,"toosoon":0,"cond_shown":"equaldotsize","ratio_trial":750,"smaller_num":"6","larger_num":"8","correct_side":1,"subjID":"dianasofiaavendañobeltran5","gender":"1","age":"11","school":"6"},{"start_time":1551901265812,"click_time":1551901267061,"finger_time":1551901266461,"fix_duration":950.1338758308351,"trial":54,"RT":649,"MT":600,"sideResp":1,"stimulus":"img/500/equaldotsize/L/11_Ratio_500_L_12_R_6.png","xmouse":[805,805,805,805,805,805,805,805,805,805,805,805,805,805,805,805,805,805,805,805,805,805,805,805,805,805,805,805,805,805,805,797,755,706,634,558,484,400,392,390,388,387,383,381,380,378,378,389,403,422,444,466,497,499,499,499,499,476,468,462,459,458,456],"ymouse":[598,598,598,598,598,598,598,598,598,598,598,598,598,598,598,598,598,598,598,598,598,598,598,598,598,598,598,598,598,598,598,590,537,483,422,371,330,264,246,232,220,214,205,201,199,190,185,170,165,160,153,146,142,142,142,142,140,118,111,106,102,100,98],"timestamp_mouse":[9,30,49,70,89,110,129,149,170,189,209,230,250,270,289,310,330,349,370,389,409,430,450,469,490,511,530,549,569,590,609,629,649,669,689,710,729,749,770,789,809,829,849,869,889,909,930,949,970,989,1009,1029,1049,1069,1090,1109,1130,1149,1169,1189,1209,1230,1249],"xSR":741.5,"ySR":573.95,"xT1":424.9,"yT1":0,"xT2":1058.1,"yT2":0,"toosoon":0,"cond_shown":"equaldotsize","ratio_trial":500,"smaller_num":"6","larger_num":"12","correct_side":1,"subjID":"dianasofiaavendañobeltran5","gender":"1","age":"11","school":"6"},{"start_time":1551901270989,"click_time":1551901272061,"finger_time":1551901271841,"fix_duration":506.3347859805806,"trial":55,"RT":852,"MT":220,"sideResp":1,"stimulus":"img/750/equaldotanddens/L/8_Ratio_750_L_4_R_3.png","xmouse":[795,795,795,795,795,795,795,795,795,795,795,795,795,795,795,795,795,795,795,795,795,795,795,795,795,795,795,795,795,795,795,795,795,795,795,795,795,795,796,799,799,799,799,796,791,778,757,726,638,598,560,535,508,460],"ymouse":[607,607,607,607,607,607,607,607,607,607,607,607,607,607,607,607,607,607,607,607,607,607,607,607,607,607,607,607,607,607,607,607,607,607,607,607,607,607,601,585,581,578,572,549,526,484,428,367,251,209,174,151,128,84],"timestamp_mouse":[12,34,52,73,92,112,132,154,172,193,214,232,253,273,293,313,332,352,373,394,412,433,452,473,492,512,532,552,574,593,613,632,652,673,693,712,732,752,772,792,812,833,852,872,892,912,933,953,972,992,1012,1033,1053,1072],"xSR":741.5,"ySR":573.95,"xT1":424.9,"yT1":0,"xT2":1058.1,"yT2":0,"toosoon":0,"cond_shown":"equaldotanddens","ratio_trial":750,"smaller_num":"3","larger_num":"4","correct_side":1,"subjID":"dianasofiaavendañobeltran5","gender":"1","age":"11","school":"6"},{"start_time":1551901276433,"click_time":1551901277701,"finger_time":1551901277221,"fix_duration":770.0931937910034,"trial":56,"RT":788,"MT":480,"sideResp":1,"stimulus":"img/250/equaldotsize/L/7_Ratio_250_L_8_R_2.png","xmouse":[792,792,792,792,791,791,791,791,791,791,791,791,791,791,791,791,791,791,791,791,791,791,791,791,791,791,791,791,791,791,791,791,791,791,791,791,791,786,778,755,711,592,537,490,454,430,413,407,405,404,404,404,404,406,415,424,445,447,448,450,451,454,454,454],"ymouse":[649,645,636,632,630,629,629,629,629,629,628,625,624,624,624,624,624,624,624,624,624,624,624,624,624,624,624,624,624,624,624,624,624,624,624,624,623,613,595,563,512,425,393,363,328,290,226,189,175,164,160,158,153,146,138,133,120,118,117,115,112,105,101,98],"timestamp_mouse":[9,38,49,69,88,108,129,149,169,189,209,229,249,268,289,309,328,349,370,388,409,428,448,469,488,508,529,548,569,589,608,628,649,668,689,709,728,748,768,788,809,828,849,868,888,908,928,948,968,989,1009,1029,1048,1069,1089,1109,1128,1149,1169,1188,1208,1228,1248,1268],"xSR":741.5,"ySR":573.95,"xT1":424.9,"yT1":0,"xT2":1058.1,"yT2":0,"toosoon":0,"cond_shown":"equaldotsize","ratio_trial":250,"smaller_num":"2","larger_num":"8","correct_side":1,"subjID":"dianasofiaavendañobeltran5","gender":"1","age":"11","school":"6"},{"start_time":1551901279774,"click_time":1551901281041,"finger_time":1551901280401,"fix_duration":1012.3729161459256,"trial":57,"RT":627,"MT":640,"sideResp":1,"stimulus":"img/500/equaldotsize/L/10_Ratio_500_L_4_R_2.png","xmouse":[768,768,768,768,769,769,769,769,769,769,769,769,769,769,769,769,769,769,769,769,769,769,769,769,769,769,769,769,769,769,769,768,756,738,681,661,642,624,603,562,550,545,538,535,530,528,528,527,527,523,521,518,511,502,489,483,480,479,479,479,479,479,477,477],"ymouse":[587,587,587,587,583,583,583,583,583,583,583,583,583,583,583,583,583,583,583,583,583,583,583,583,583,583,583,583,583,583,576,558,532,500,428,404,384,362,334,281,267,256,244,231,208,200,196,192,188,171,163,154,141,130,117,111,108,106,106,106,106,104,100,99],"timestamp_mouse":[10,32,47,67,88,107,127,147,169,188,208,228,247,267,287,307,328,348,368,387,407,427,447,467,488,507,529,548,567,588,607,627,648,667,687,707,727,748,767,787,807,827,847,867,887,907,929,948,967,987,1008,1027,1047,1068,1088,1107,1127,1147,1168,1187,1208,1227,1248,1267],"xSR":741.5,"ySR":573.95,"xT1":424.9,"yT1":0,"xT2":1058.1,"yT2":0,"toosoon":0,"cond_shown":"equaldotsize","ratio_trial":500,"smaller_num":"2","larger_num":"4","correct_side":1,"subjID":"dianasofiaavendañobeltran5","gender":"1","age":"11","school":"6"},{"start_time":1551901282434,"click_time":1551901283561,"finger_time":1551901282583,"fix_duration":250,"trial":58,"RT":149,"MT":978,"sideResp":2,"stimulus":"img/500/equaldotanddens/R/15_Ratio_500_L_1_R_2.png","xmouse":[781,781,781,781,784,790,800,801,801,801,801,801,801,801,801,801,801,801,801,801,801,801,801,801,801,801,801,801,801,801,801,801,802,805,811,825,862,907,934,959,983,1007,1014,1019,1023,1025,1029,1030,1030,1030,1030,1034,1039,1048,1055,1063,1071],"ymouse":[634,634,634,634,631,612,577,573,573,573,573,573,573,573,573,573,573,573,573,573,573,573,573,573,573,573,573,573,573,573,573,573,572,572,570,560,508,402,325,254,197,145,128,117,109,107,104,104,104,104,104,104,104,104,104,102,99],"timestamp_mouse":[13,37,48,67,88,108,127,149,167,187,207,227,248,268,287,307,328,347,369,387,408,427,447,467,487,508,528,548,568,587,607,627,648,667,688,708,727,747,767,787,808,828,847,867,887,907,927,947,968,987,1007,1028,1047,1067,1088,1107,1127],"xSR":741.5,"ySR":573.95,"xT1":424.9,"yT1":0,"xT2":1058.1,"yT2":0,"toosoon":0,"cond_shown":"equaldotanddens","ratio_trial":500,"smaller_num":"1","larger_num":"2","correct_side":2,"subjID":"dianasofiaavendañobeltran5","gender":"1","age":"11","school":"6"},{"start_time":1551901285455,"click_time":1551901286982,"finger_time":1551901286501,"fix_duration":872.6599538957148,"trial":59,"RT":1046,"MT":481,"sideResp":1,"stimulus":"img/900/equaldotanddens/L/10_Ratio_900_L_20_R_18.png","xmouse":[804,804,804,804,804,804,804,804,804,804,804,804,804,804,804,804,804,804,804,804,804,804,804,804,804,804,804,804,804,804,804,804,804,804,804,804,804,804,804,804,804,804,804,804,804,804,804,804,804,799,791,784,775,763,750,708,672,650,632,617,595,589,581,574,562,553,550,543,538,530,528,526,525,524,522,510,501],"ymouse":[634,634,634,634,634,634,634,634,634,634,634,634,634,634,634,634,634,634,634,634,634,634,634,634,634,634,634,634,634,634,634,634,634,634,634,634,634,634,634,634,634,634,634,634,634,634,634,634,634,632,603,585,568,551,535,493,461,439,412,382,326,307,290,273,234,194,169,148,135,123,121,119,118,118,115,102,95],"timestamp_mouse":[7,36,47,66,86,106,126,146,167,187,206,227,247,266,286,307,326,347,366,386,406,426,446,467,487,506,527,546,567,586,607,627,648,667,686,707,726,747,766,786,807,826,846,866,887,906,927,946,966,986,1007,1026,1046,1068,1086,1106,1126,1146,1168,1187,1206,1226,1247,1266,1287,1307,1327,1346,1367,1387,1406,1426,1447,1467,1486,1506,1527],"xSR":741.5,"ySR":573.95,"xT1":424.9,"yT1":0,"xT2":1058.1,"yT2":0,"toosoon":0,"cond_shown":"equaldotanddens","ratio_trial":900,"smaller_num":"18","larger_num":"20","correct_side":1,"subjID":"dianasofiaavendañobeltran5","gender":"1","age":"11","school":"6"},{"start_time":1551901289596,"click_time":1551901290681,"finger_time":1551901290282,"fix_duration":313.40266665237135,"trial":60,"RT":686,"MT":399,"sideResp":1,"stimulus":"img/900/equaldotanddens/L/2_Ratio_900_L_20_R_18.png","xmouse":[819,819,819,819,819,819,819,819,819,819,819,819,819,819,819,819,819,819,819,819,819,819,819,819,819,819,819,819,819,819,819,819,809,779,741,690,620,551,403,328,295,272,260,255,255,255,253,253,255,267,277,293,318,387,433],"ymouse":[648,648,648,648,648,648,648,648,648,648,648,648,648,648,648,648,648,648,648,648,648,648,648,648,648,648,648,648,648,648,648,648,636,591,543,486,426,371,266,187,143,108,85,56,44,38,33,29,18,13,11,10,10,19,25],"timestamp_mouse":[8,35,46,65,86,105,125,145,165,185,205,226,246,266,285,305,326,345,365,385,406,426,445,466,486,506,525,545,565,585,605,625,645,665,686,706,726,746,765,785,805,826,845,865,885,906,925,945,965,985,1005,1026,1046,1065,1085],"xSR":741.5,"ySR":573.95,"xT1":424.9,"yT1":0,"xT2":1058.1,"yT2":0,"toosoon":0,"cond_shown":"equaldotanddens","ratio_trial":900,"smaller_num":"18","larger_num":"20","correct_side":1,"subjID":"dianasofiaavendañobeltran5","gender":"1","age":"11","school":"6"},{"start_time":1551901292851,"click_time":1551901294502,"finger_time":1551901293481,"fix_duration":1169.2487471502131,"trial":61,"RT":630,"MT":1021,"sideResp":1,"stimulus":"img/500/randomdotsizeEA/L/8_Ratio_500_L_8_R_4.png","xmouse":[764,764,764,764,764,764,764,764,764,764,764,764,764,764,764,764,764,764,764,764,764,764,764,764,764,764,764,767,769,775,799,817,836,864,887,914,914,919,922,927,946,958,965,969,972,975,975,975,975,975,962,931,858,774,684,506,434,359,332,319,313,313,313,313,313,313,313,317,328,344,372,381,389,395,397,399,399,399,399,399,409,420,434],"ymouse":[638,638,638,638,638,638,638,638,638,638,638,638,638,638,638,638,638,638,638,638,638,638,638,638,638,638,638,635,628,618,583,549,506,443,387,330,327,315,307,296,264,248,234,226,220,213,212,212,212,212,213,227,246,257,259,226,183,127,102,90,80,80,80,80,80,80,80,79,79,79,79,81,82,82,83,83,83,83,83,83,82,81,79],"timestamp_mouse":[10,38,51,70,90,111,131,151,171,191,211,230,251,271,292,310,332,350,371,391,411,430,451,470,490,511,531,550,571,590,611,630,650,670,690,710,731,750,770,791,810,830,851,870,891,910,930,950,971,991,1010,1030,1050,1071,1090,1110,1130,1150,1171,1191,1211,1231,1250,1271,1290,1311,1330,1350,1371,1390,1411,1430,1451,1471,1491,1510,1530,1551,1571,1590,1611,1630,1651],"xSR":741.5,"ySR":573.95,"xT1":424.9,"yT1":0,"xT2":1058.1,"yT2":0,"toosoon":0,"cond_shown":"randomdotsizeEA","ratio_trial":500,"smaller_num":"4","larger_num":"8","correct_side":1,"subjID":"dianasofiaavendañobeltran5","gender":"1","age":"11","school":"6"},{"start_time":1551901296031,"click_time":1551901297102,"finger_time":1551901296642,"fix_duration":386.11573568510806,"trial":62,"RT":611,"MT":460,"sideResp":2,"stimulus":"img/250/equaldotanddens/R/12_Ratio_250_L_5_R_20.png","xmouse":[774,774,774,774,774,774,775,776,776,777,777,777,777,777,777,777,777,777,777,777,777,778,778,778,778,778,778,781,784,788,803,814,823,833,845,862,910,931,953,966,972,984,993,1003,1015,1022,1025,1026,1032,1043,1060,1082,1085,1087],"ymouse":[626,626,626,626,626,626,626,624,622,622,621,621,621,621,621,621,621,621,621,621,620,619,619,619,619,619,619,614,606,593,539,515,496,477,457,428,369,342,321,311,305,291,280,270,260,253,234,226,199,174,144,110,103,96],"timestamp_mouse":[10,30,50,70,91,110,130,150,172,191,210,230,250,270,291,311,330,351,371,391,410,430,452,471,491,512,531,551,571,590,611,630,651,670,691,710,731,750,771,790,810,831,850,871,891,910,930,951,971,990,1010,1030,1050,1070],"xSR":741.5,"ySR":573.95,"xT1":424.9,"yT1":0,"xT2":1058.1,"yT2":0,"toosoon":0,"cond_shown":"equaldotanddens","ratio_trial":250,"smaller_num":"5","larger_num":"20","correct_side":2,"subjID":"dianasofiaavendañobeltran5","gender":"1","age":"11","school":"6"},{"start_time":1551901298013,"click_time":1551901298981,"finger_time":1551901298822,"fix_duration":250,"trial":63,"RT":809,"MT":159,"sideResp":1,"stimulus":"img/900/randomdotsizeEA/R/14_Ratio_900_L_18_R_20.png","xmouse":[789,789,789,789,789,789,789,789,789,789,789,789,789,789,789,789,789,789,789,789,789,789,789,789,789,789,789,789,789,789,789,789,789,789,789,790,792,793,793,790,783,770,710,678,645,615,588,532,515],"ymouse":[643,643,643,643,643,643,643,643,643,643,643,643,643,643,643,643,643,643,643,643,643,643,643,643,643,643,643,643,643,643,643,643,643,643,643,641,628,619,609,590,569,537,431,373,315,257,190,101,79],"timestamp_mouse":[9,30,49,68,89,108,128,148,168,188,208,229,250,268,289,308,329,348,369,388,409,429,449,468,488,509,528,549,568,588,608,628,649,668,689,709,729,748,768,788,809,828,848,870,889,908,928,949,968],"xSR":741.5,"ySR":573.95,"xT1":424.9,"yT1":0,"xT2":1058.1,"yT2":0,"toosoon":0,"cond_shown":"randomdotsizeEA","ratio_trial":900,"smaller_num":"18","larger_num":"20","correct_side":2,"subjID":"dianasofiaavendañobeltran5","gender":"1","age":"11","school":"6"},{"start_time":1551901301815,"click_time":1551901303102,"finger_time":1551901302522,"fix_