[{"start_time":1551899896475,"click_time":1551899903860,"finger_time":1551899896483,"fix_duration":250,"trial":0,"RT":8,"MT":7377,"sideResp":2,"stimulus":[],"xmouse":[788,788,788,788,788,788,788,788,788,788,788,788,788,788,788,788,788,788,788,788,788,788,788,788,788,788,788,788,788,788,788,788,788,789,789,787,786,785,784,784,784,784,784,784,784,784,784,784,784,784,784,784,784,784,784,784,784,784,784,784,784,784,784,784,784,784,784,784,784,784,784,784,784,784,784,784,784,785,785,785,785,785,785,785,785,785,785,785,785,784,783,782,781,780,780,778,777,777,777,777,777,775,774,774,774,774,774,774,774,774,774,774,774,774,774,774,774,774,774,774,774,774,774,774,774,774,774,774,774,774,774,774,774,774,774,774,774,774,774,774,774,774,774,775,775,782,783,783,784,784,784,784,784,784,785,785,785,785,786,788,789,790,790,790,790,790,790,790,791,791,791,791,791,791,791,791,791,791,791,791,791,791,791,791,791,791,791,791,791,791,791,791,791,791,791,791,791,791,791,791,791,791,791,791,791,791,791,791,791,791,791,791,791,791,791,791,791,791,791,791,791,791,792,793,794,795,795,795,795,796,797,799,800,801,802,803,804,805,806,807,810,812,812,813,815,815,815,815,815,815,810,807,807,807,807,807,807,807,807,807,807,807,807,807,807,807,807,807,807,807,807,807,807,807,807,807,807,807,807,807,836,853,873,892,908,923,928,936,944,953,982,1004,1033,1063,1134,1171,1180,1201,1211,1226,1229,1231,1231,1231,1231,1231,1231,1231,1231,1231,1231,1231,1231,1231,1231,1231,1231,1231,1231,1231,1231,1231,1231,1231,1231,1231,1231,1231,1231,1231,1231,1231,1231,1231,1231,1231,1230,1221,1215,1210,1200,1197,1197,1197,1197,1197,1197,1196,1196,1194,1187,1183,1177,1172,1166,1163,1163,1163,1163,1162,1162,1162,1162,1162,1162,1161,1160,1159,1159,1158],"ymouse":[548,548,548,548,548,548,548,548,548,548,548,548,548,548,548,548,548,548,548,548,548,548,548,548,548,548,548,548,548,548,548,548,548,549,558,571,578,582,585,586,586,586,586,586,586,586,586,586,586,586,586,586,586,586,586,586,586,586,586,586,586,586,586,586,586,586,586,586,586,586,586,586,586,586,586,584,581,580,579,578,575,573,571,570,569,567,566,564,561,557,555,554,553,551,550,548,547,547,547,547,546,545,544,544,544,544,544,544,544,544,544,544,544,544,544,544,544,544,544,544,544,544,544,544,544,544,544,544,544,544,544,544,544,544,544,544,544,544,544,544,544,544,544,544,544,551,553,554,555,556,558,558,559,560,561,563,563,564,565,569,571,572,572,572,572,573,573,573,574,575,575,575,575,575,575,575,575,575,575,575,575,575,575,575,575,575,575,575,575,575,575,575,575,575,575,575,575,575,575,575,575,575,575,575,575,575,575,575,575,575,575,575,575,575,575,575,575,575,575,575,575,576,575,574,572,571,571,570,569,567,561,557,551,547,542,536,533,528,524,520,510,505,499,494,482,477,471,464,459,448,447,447,447,447,447,447,447,447,447,447,447,447,447,447,447,447,447,447,447,447,447,447,447,447,447,447,447,447,447,447,442,437,435,431,426,420,418,414,411,407,389,371,347,319,247,207,193,164,150,127,122,118,116,116,116,116,116,116,116,116,116,116,116,116,116,116,116,116,116,116,116,116,116,116,116,116,116,116,116,116,116,116,116,116,116,116,113,110,107,106,104,102,102,102,102,102,102,102,102,101,98,95,94,92,92,91,91,91,91,90,90,90,90,90,90,90,90,90,90,89],"timestamp_mouse":[8,24,44,65,84,104,124,144,164,184,205,223,244,263,285,305,324,344,363,383,404,424,445,465,484,505,525,544,564,584,603,624,644,664,684,705,725,743,763,785,804,825,844,864,884,905,923,943,965,985,1004,1024,1045,1063,1084,1105,1124,1144,1165,1184,1205,1225,1245,1263,1284,1303,1324,1345,1363,1383,1405,1423,1445,1464,1484,1503,1523,1544,1563,1585,1605,1625,1644,1664,1685,1704,1725,1743,1765,1784,1804,1824,1844,1865,1885,1904,1923,1943,1964,1984,2004,2025,2045,2065,2084,2103,2125,2144,2165,2184,2205,2225,2244,2265,2284,2304,2323,2345,2364,2384,2404,2425,2444,2464,2485,2504,2525,2544,2564,2583,2604,2624,2644,2664,2683,2703,2723,2745,2764,2784,2805,2824,2844,2864,2884,2904,2924,2945,2964,2984,3005,3023,3043,3065,3084,3104,3125,3144,3165,3185,3204,3224,3243,3264,3285,3304,3325,3345,3365,3385,3404,3425,3445,3465,3483,3504,3524,3544,3565,3583,3605,3624,3645,3663,3684,3704,3725,3745,3764,3784,3805,3825,3845,3864,3885,3905,3923,3945,3965,3984,4003,4024,4043,4063,4084,4105,4124,4143,4165,4183,4203,4225,4244,4265,4283,4305,4324,4344,4365,4385,4405,4423,4444,4463,4485,4505,4524,4545,4563,4583,4604,4624,4644,4665,4683,4703,4724,4743,4764,4783,4804,4825,4845,4865,4885,4903,4924,4944,4964,4985,5003,5023,5045,5064,5083,5104,5124,5143,5164,5185,5205,5224,5243,5263,5283,5304,5324,5345,5364,5385,5404,5425,5444,5463,5485,5503,5524,5544,5565,5584,5604,5624,5644,5664,5684,5703,5724,5744,5764,5784,5803,5823,5844,5864,5885,5904,5924,5944,5964,5985,6003,6025,6044,6064,6084,6104,6124,6144,6165,6184,6205,6224,6245,6265,6283,6304,6324,6344,6363,6384,6405,6424,6444,6464,6484,6504,6523,6545,6564,6585,6604,6625,6644,6665,6683,6703,6725,6745,6764,6783,6805,6825,6844,6864,6884,6905,6925,6945,6965,6984,7004,7024,7044,7064,7083,7103,7124,7144,7164,7183,7203,7225,7244,7265,7284,7303,7324,7345,7364,7384],"xSR":741.5,"ySR":481,"xT1":424.9,"yT1":0,"xT2":1058.1,"yT2":0,"toosoon":0,"cond_shown":"Congruent","ratio_trial":100,"L_num":4,"L_den":8,"R_num":6,"R_den":10,"correct_side":2,"subjID":"dianasofiaavendañobeltran5","gender":"1","age":"11","school":"6","test":{"fix_dur":[250,1500],"timestim":1000,"targets_dim":[100,100],"targets_relative_coord":[0.3,0.7],"size_stim":[880,420],"start_dim":[100,100],"size_start":[300,300],"size_fix":60,"samplingrate":20,"img_types":["Congruent","Incongruent"],"ratios":[100,200,300],"rep_conds":19,"nTrials":120,"trials_to_rest":500,"Trials_order":[54,59,43,11,27,77,86,25,102,97,74,18,76,93,78,107,15,75,114,7,108,9,34,62,87,64,6,83,23,30,95,13,115,88,40,55,37,56,96,47,116,110,10,46,39,2,73,26,17,118,57,52,72,82,105,4,58,67,53,22,12,0,20,49,81,50,33,104,106,70,63,31,38,51,89,44,29,113,91,98,90,45,1,32,48,79,99,19,111,61,36,68,14,80,92,35,28,42,60,41,69,5,117,100,85,3,8,65,21,101,112,71,24,119,84,103,94,16,109,66],"cond_shown":["Congruent","Incongruent","Incongruent","Incongruent","Incongruent","Incongruent","Congruent","Incongruent","Congruent","Incongruent","Congruent","Congruent","Congruent","Incongruent","Congruent","Incongruent","Incongruent","Incongruent","Congruent","Incongruent","Congruent","Incongruent","Congruent","Congruent","Incongruent","Congruent","Congruent","Incongruent","Incongruent","Congruent","Incongruent","Incongruent","Incongruent","Congruent","Congruent","Incongruent","Incongruent","Congruent","Congruent","Incongruent","Congruent","Congruent","Congruent","Congruent","Incongruent","Congruent","Incongruent","Congruent","Incongruent","Congruent","Incongruent","Congruent","Congruent","Congruent","Incongruent","Congruent","Congruent","Incongruent","Incongruent","Congruent","Congruent","Congruent","Congruent","Incongruent","Incongruent","Congruent","Incongruent","Congruent","Congruent","Congruent","Incongruent","Incongruent","Congruent","Incongruent","Incongruent","Congruent","Incongruent","Incongruent","Incongruent","Congruent","Congruent","Incongruent","Incongruent","Congruent","Congruent","Incongruent","Incongruent","Incongruent","Incongruent","Incongruent","Congruent","Congruent","Congruent","Congruent","Congruent","Incongruent","Congruent","Congruent","Congruent","Incongruent","Incongruent","Incongruent","Incongruent","Congruent","Incongruent","Incongruent","Congruent","Incongruent","Incongruent","Incongruent","Congruent","Incongruent","Congruent","Incongruent","Congruent","Incongruent","Congruent","Congruent","Incongruent","Congruent"],"ratio_trial":[100,300,100,300,200,300,200,100,100,100,200,100,300,200,100,300,200,200,100,100,100,200,300,200,200,300,100,300,300,100,300,100,100,300,300,100,100,200,100,300,200,200,300,300,200,200,100,200,300,300,200,300,100,300,200,300,300,100,300,300,100,100,200,100,200,200,200,200,300,300,200,100,200,200,300,200,300,300,100,200,100,200,100,200,100,100,200,100,200,100,100,200,200,200,200,300,300,100,100,300,200,300,200,300,100,200,200,300,200,300,300,300,100,300,100,100,300,300,100,100],"left_num":[4,8,6,1,4,4,12,6,11,3,3,4,24,14,3,4,14,4,6,10,2,14,9,4,1,1,4,3,7,3,7,3,9,2,1,2,11,6,7,4,12,13,9,2,7,4,8,12,13,1,6,20,7,8,4,11,24,6,7,20,9,4,20,8,4,9,4,3,4,3,6,8,8,6,4,7,4,13,2,13,3,1,8,14,6,8,9,6,4,11,7,3,16,6,20,3,24,11,7,13,6,8,7,8,6,4,1,8,7,13,24,13,3,4,6,2,8,18,9,11],"right_num":[6,9,11,2,14,2,6,3,6,4,14,6,2,12,4,2,12,6,15,8,6,12,3,3,2,7,6,4,8,4,8,4,6,12,19,6,9,7,9,2,6,14,3,10,8,3,1,6,12,6,3,14,9,10,6,1,2,3,8,9,8,6,9,6,6,4,6,11,13,4,3,6,3,3,2,18,6,12,6,14,4,3,6,6,15,6,8,11,1,9,15,11,9,11,9,4,2,6,9,12,3,14,8,10,13,6,21,9,14,12,8,12,2,2,5,6,10,9,13,4],"left_den":[8,10,10,2,6,20,20,12,22,6,10,8,30,30,20,20,30,5,12,25,5,30,10,10,3,20,8,6,10,20,10,6,18,10,3,4,22,12,14,20,15,26,10,20,10,10,20,15,26,5,20,25,14,15,5,22,30,12,10,25,15,8,25,16,5,20,5,10,20,6,20,16,15,20,20,15,5,26,4,26,20,2,16,28,12,16,15,10,30,22,14,10,30,20,25,6,30,22,14,26,20,10,10,15,10,5,2,10,10,26,30,26,6,20,20,4,15,20,15,22],"right_den":[10,18,22,10,30,4,15,5,15,10,28,10,4,18,16,4,18,10,25,16,12,18,5,15,15,20,10,20,20,16,20,10,10,24,30,15,15,10,15,4,10,20,5,25,16,15,2,10,15,12,6,28,15,12,10,5,4,5,20,18,16,10,15,10,10,16,10,22,26,5,6,10,9,6,4,27,12,15,15,20,16,10,10,20,25,10,10,22,3,15,25,22,27,22,15,20,4,15,15,15,6,28,16,12,26,10,30,18,28,15,16,15,5,4,25,15,12,15,26,10],"correct_side":[2,1,1,1,1,2,1,2,1,1,2,2,1,2,2,2,2,1,2,2,2,2,1,1,1,2,2,1,1,2,1,1,2,2,2,1,2,2,2,2,1,2,1,2,1,1,2,1,2,2,2,1,2,2,1,1,1,2,1,1,1,2,1,2,1,1,1,2,2,2,2,2,1,2,2,2,1,2,1,2,2,1,2,1,2,2,2,1,2,2,2,2,1,2,1,1,1,1,2,2,2,1,1,2,1,1,2,1,1,2,1,2,1,2,1,1,2,1,1,1],"img_shown":["img2/100/Congruent/R/C_Dist_100_LN_4_LD_8_RN_6_RD_10_1.png","img2/300/Incongruent/L/I_Dist_300_LN_8_LD_10_RN_9_RD_18_0.png","img2/100/Incongruent/L/I_Dist_100_LN_6_LD_10_RN_11_RD_22_0.png","img2/300/Incongruent/L/I_Dist_300_LN_1_LD_2_RN_2_RD_10_0.png","img2/200/Incongruent/L/I_Dist_200_LN_4_LD_6_RN_14_RD_30_0.png","img2/300/Incongruent/R/I_Dist_300_LN_4_LD_20_RN_2_RD_4_1.png","img2/200/Congruent/L/C_Dist_200_LN_12_LD_20_RN_6_RD_15_0.png","img2/100/Incongruent/R/I_Dist_100_LN_6_LD_12_RN_3_RD_5_1.png","img2/100/Congruent/L/C_Dist_100_LN_11_LD_22_RN_6_RD_15_0.png","img2/100/Incongruent/L/I_Dist_100_LN_3_LD_6_RN_4_RD_10_0.png","img2/200/Congruent/R/C_Dist_200_LN_3_LD_10_RN_14_RD_28_1.png","img2/100/Congruent/R/C_Dist_100_LN_4_LD_8_RN_6_RD_10_1.png","img2/300/Congruent/L/C_Dist_300_LN_24_LD_30_RN_2_RD_4_0.png","img2/200/Incongruent/R/I_Dist_200_LN_14_LD_30_RN_12_RD_18_1.png","img2/100/Congruent/R/C_Dist_100_LN_3_LD_20_RN_4_RD_16_1.png","img2/300/Incongruent/R/I_Dist_300_LN_4_LD_20_RN_2_RD_4_1.png","img2/200/Incongruent/R/I_Dist_200_LN_14_LD_30_RN_12_RD_18_1.png","img2/200/Incongruent/L/I_Dist_200_LN_4_LD_5_RN_6_RD_10_0.png","img2/100/Congruent/R/C_Dist_100_LN_6_LD_12_RN_15_RD_25_1.png","img2/100/Incongruent/R/I_Dist_100_LN_10_LD_25_RN_8_RD_16_1.png","img2/100/Congruent/R/C_Dist_100_LN_2_LD_5_RN_6_RD_12_1.png","img2/200/Incongruent/R/I_Dist_200_LN_14_LD_30_RN_12_RD_18_1.png","img2/300/Congruent/L/C_Dist_300_LN_9_LD_10_RN_3_RD_5_0.png","img2/200/Congruent/L/C_Dist_200_LN_4_LD_10_RN_3_RD_15_0.png","img2/200/Incongruent/L/I_Dist_200_LN_1_LD_3_RN_2_RD_15_0.png","img2/300/Congruent/R/C_Dist_300_LN_1_LD_20_RN_7_RD_20_1.png","img2/100/Congruent/R/C_Dist_100_LN_4_LD_8_RN_6_RD_10_1.png","img2/300/Incongruent/L/I_Dist_300_LN_3_LD_6_RN_4_RD_20_0.png","img2/300/Incongruent/L/I_Dist_300_LN_7_LD_10_RN_8_RD_20_0.png","img2/100/Congruent/R/C_Dist_100_LN_3_LD_20_RN_4_RD_16_1.png","img2/300/Incongruent/L/I_Dist_300_LN_7_LD_10_RN_8_RD_20_0.png","img2/100/Incongruent/L/I_Dist_100_LN_3_LD_6_RN_4_RD_10_0.png","img2/100/Incongruent/R/I_Dist_100_LN_9_LD_18_RN_6_RD_10_1.png","img2/300/Congruent/R/C_Dist_300_LN_2_LD_10_RN_12_RD_24_1.png","img2/300/Congruent/R/C_Dist_300_LN_1_LD_3_RN_19_RD_30_1.png","img2/100/Incongruent/L/I_Dist_100_LN_2_LD_4_RN_6_RD_15_0.png","img2/100/Incongruent/R/I_Dist_100_LN_11_LD_22_RN_9_RD_15_1.png","img2/200/Congruent/R/C_Dist_200_LN_6_LD_12_RN_7_RD_10_1.png","img2/100/Congruent/R/C_Dist_100_LN_7_LD_14_RN_9_RD_15_1.png","img2/300/Incongruent/R/I_Dist_300_LN_4_LD_20_RN_2_RD_4_1.png","img2/200/Congruent/L/C_Dist_200_LN_12_LD_15_RN_6_RD_10_0.png","img2/200/Congruent/R/C_Dist_200_LN_13_LD_26_RN_14_RD_20_1.png","img2/300/Congruent/L/C_Dist_300_LN_9_LD_10_RN_3_RD_5_0.png","img2/300/Congruent/R/C_Dist_300_LN_2_LD_20_RN_10_RD_25_1.png","img2/200/Incongruent/L/I_Dist_200_LN_7_LD_10_RN_8_RD_16_0.png","img2/200/Congruent/L/C_Dist_200_LN_4_LD_10_RN_3_RD_15_0.png","img2/100/Incongruent/R/I_Dist_100_LN_8_LD_20_RN_1_RD_2_1.png","img2/200/Congruent/L/C_Dist_200_LN_12_LD_15_RN_6_RD_10_0.png","img2/300/Incongruent/R/I_Dist_300_LN_13_LD_26_RN_12_RD_15_1.png","img2/300/Congruent/R/C_Dist_300_LN_1_LD_5_RN_6_RD_12_1.png","img2/200/Incongruent/R/I_Dist_200_LN_6_LD_20_RN_3_RD_6_1.png","img2/300/Congruent/L/C_Dist_300_LN_20_LD_25_RN_14_RD_28_0.png","img2/100/Congruent/R/C_Dist_100_LN_7_LD_14_RN_9_RD_15_1.png","img2/300/Congruent/R/C_Dist_300_LN_8_LD_15_RN_10_RD_12_1.png","img2/200/Incongruent/L/I_Dist_200_LN_4_LD_5_RN_6_RD_10_0.png","img2/300/Congruent/L/C_Dist_300_LN_11_LD_22_RN_1_RD_5_0.png","img2/300/Congruent/L/C_Dist_300_LN_24_LD_30_RN_2_RD_4_0.png","img2/100/Incongruent/R/I_Dist_100_LN_6_LD_12_RN_3_RD_5_1.png","img2/300/Incongruent/L/I_Dist_300_LN_7_LD_10_RN_8_RD_20_0.png","img2/300/Congruent/L/C_Dist_300_LN_20_LD_25_RN_9_RD_18_0.png","img2/100/Congruent/L/C_Dist_100_LN_9_LD_15_RN_8_RD_16_0.png","img2/100/Congruent/R/C_Dist_100_LN_4_LD_8_RN_6_RD_10_1.png","img2/200/Congruent/L/C_Dist_200_LN_20_LD_25_RN_9_RD_15_0.png","img2/100/Incongruent/R/I_Dist_100_LN_8_LD_16_RN_6_RD_10_1.png","img2/200/Incongruent/L/I_Dist_200_LN_4_LD_5_RN_6_RD_10_0.png","img2/200/Congruent/L/C_Dist_200_LN_9_LD_20_RN_4_RD_16_0.png","img2/200/Incongruent/L/I_Dist_200_LN_4_LD_5_RN_6_RD_10_0.png","img2/200/Congruent/R/C_Dist_200_LN_3_LD_10_RN_11_RD_22_1.png","img2/300/Congruent/R/C_Dist_300_LN_4_LD_20_RN_13_RD_26_1.png","img2/300/Congruent/R/C_Dist_300_LN_3_LD_6_RN_4_RD_5_1.png","img2/200/Incongruent/R/I_Dist_200_LN_6_LD_20_RN_3_RD_6_1.png","img2/100/Incongruent/R/I_Dist_100_LN_8_LD_16_RN_6_RD_10_1.png","img2/200/Congruent/L/C_Dist_200_LN_8_LD_15_RN_3_RD_9_0.png","img2/200/Incongruent/R/I_Dist_200_LN_6_LD_20_RN_3_RD_6_1.png","img2/300/Incongruent/R/I_Dist_300_LN_4_LD_20_RN_2_RD_4_1.png","img2/200/Congruent/R/C_Dist_200_LN_7_LD_15_RN_18_RD_27_1.png","img2/300/Incongruent/L/I_Dist_300_LN_4_LD_5_RN_6_RD_12_0.png","img2/300/Incongruent/R/I_Dist_300_LN_13_LD_26_RN_12_RD_15_1.png","img2/100/Incongruent/L/I_Dist_100_LN_2_LD_4_RN_6_RD_15_0.png","img2/200/Congruent/R/C_Dist_200_LN_13_LD_26_RN_14_RD_20_1.png","img2/100/Congruent/R/C_Dist_100_LN_3_LD_20_RN_4_RD_16_1.png","img2/200/Incongruent/L/I_Dist_200_LN_1_LD_2_RN_3_RD_10_0.png","img2/100/Incongruent/R/I_Dist_100_LN_8_LD_16_RN_6_RD_10_1.png","img2/200/Congruent/L/C_Dist_200_LN_14_LD_28_RN_6_RD_20_0.png","img2/100/Congruent/R/C_Dist_100_LN_6_LD_12_RN_15_RD_25_1.png","img2/100/Incongruent/R/I_Dist_100_LN_8_LD_16_RN_6_RD_10_1.png","img2/200/Incongruent/R/I_Dist_200_LN_9_LD_15_RN_8_RD_10_1.png","img2/100/Incongruent/L/I_Dist_100_LN_6_LD_10_RN_11_RD_22_0.png","img2/200/Incongruent/R/I_Dist_200_LN_4_LD_30_RN_1_RD_3_1.png","img2/100/Incongruent/R/I_Dist_100_LN_11_LD_22_RN_9_RD_15_1.png","img2/100/Congruent/R/C_Dist_100_LN_7_LD_14_RN_15_RD_25_1.png","img2/200/Congruent/R/C_Dist_200_LN_3_LD_10_RN_11_RD_22_1.png","img2/200/Congruent/L/C_Dist_200_LN_16_LD_30_RN_9_RD_27_0.png","img2/200/Congruent/R/C_Dist_200_LN_6_LD_20_RN_11_RD_22_1.png","img2/200/Congruent/L/C_Dist_200_LN_20_LD_25_RN_9_RD_15_0.png","img2/300/Incongruent/L/I_Dist_300_LN_3_LD_6_RN_4_RD_20_0.png","img2/300/Congruent/L/C_Dist_300_LN_24_LD_30_RN_2_RD_4_0.png","img2/100/Congruent/L/C_Dist_100_LN_11_LD_22_RN_6_RD_15_0.png","img2/100/Congruent/R/C_Dist_100_LN_7_LD_14_RN_9_RD_15_1.png","img2/300/Incongruent/R/I_Dist_300_LN_13_LD_26_RN_12_RD_15_1.png","img2/200/Incongruent/R/I_Dist_200_LN_6_LD_20_RN_3_RD_6_1.png","img2/300/Incongruent/L/I_Dist_300_LN_8_LD_10_RN_14_RD_28_0.png","img2/200/Incongruent/L/I_Dist_200_LN_7_LD_10_RN_8_RD_16_0.png","img2/300/Congruent/R/C_Dist_300_LN_8_LD_15_RN_10_RD_12_1.png","img2/100/Incongruent/L/I_Dist_100_LN_6_LD_10_RN_13_RD_26_0.png","img2/200/Incongruent/L/I_Dist_200_LN_4_LD_5_RN_6_RD_10_0.png","img2/200/Congruent/R/C_Dist_200_LN_1_LD_2_RN_21_RD_30_1.png","img2/300/Incongruent/L/I_Dist_300_LN_8_LD_10_RN_9_RD_18_0.png","img2/200/Incongruent/L/I_Dist_200_LN_7_LD_10_RN_14_RD_28_0.png","img2/300/Incongruent/R/I_Dist_300_LN_13_LD_26_RN_12_RD_15_1.png","img2/300/Congruent/L/C_Dist_300_LN_24_LD_30_RN_8_RD_16_0.png","img2/300/Incongruent/R/I_Dist_300_LN_13_LD_26_RN_12_RD_15_1.png","img2/100/Congruent/L/C_Dist_100_LN_3_LD_6_RN_2_RD_5_0.png","img2/300/Incongruent/R/I_Dist_300_LN_4_LD_20_RN_2_RD_4_1.png","img2/100/Congruent/L/C_Dist_100_LN_6_LD_20_RN_5_RD_25_0.png","img2/100/Incongruent/L/I_Dist_100_LN_2_LD_4_RN_6_RD_15_0.png","img2/300/Congruent/R/C_Dist_300_LN_8_LD_15_RN_10_RD_12_1.png","img2/300/Congruent/L/C_Dist_300_LN_18_LD_20_RN_9_RD_15_0.png","img2/100/Incongruent/L/I_Dist_100_LN_9_LD_15_RN_13_RD_26_0.png","img2/100/Congruent/L/C_Dist_100_LN_11_LD_22_RN_4_RD_10_0.png"],"dist100_C":[["C_Dist_100_LN_10_LD_25_RN_3_RD_10_0.png","C_Dist_100_LN_11_LD_22_RN_4_RD_10_0.png","C_Dist_100_LN_11_LD_22_RN_6_RD_15_0.png","C_Dist_100_LN_15_LD_25_RN_13_RD_26_0.png","C_Dist_100_LN_3_LD_6_RN_2_RD_5_0.png","C_Dist_100_LN_6_LD_20_RN_5_RD_25_0.png","C_Dist_100_LN_8_LD_16_RN_2_RD_5_0.png","C_Dist_100_LN_9_LD_15_RN_8_RD_16_0.png"],["C_Dist_100_LN_1_LD_2_RN_18_RD_30_1.png","C_Dist_100_LN_1_LD_2_RN_3_RD_5_1.png","C_Dist_100_LN_12_LD_30_RN_13_RD_26_1.png","C_Dist_100_LN_2_LD_5_RN_11_RD_22_1.png","C_Dist_100_LN_2_LD_5_RN_6_RD_12_1.png","C_Dist_100_LN_3_LD_20_RN_4_RD_16_1.png","C_Dist_100_LN_4_LD_10_RN_15_RD_30_1.png","C_Dist_100_LN_4_LD_8_RN_6_RD_10_1.png","C_Dist_100_LN_6_LD_12_RN_15_RD_25_1.png","C_Dist_100_LN_7_LD_14_RN_15_RD_25_1.png","C_Dist_100_LN_7_LD_14_RN_9_RD_15_1.png"]],"dist100_I":[["I_Dist_100_LN_1_LD_2_RN_8_RD_20_0.png","I_Dist_100_LN_2_LD_4_RN_6_RD_15_0.png","I_Dist_100_LN_2_LD_4_RN_8_RD_20_0.png","I_Dist_100_LN_3_LD_5_RN_11_RD_22_0.png","I_Dist_100_LN_3_LD_5_RN_8_RD_16_0.png","I_Dist_100_LN_3_LD_6_RN_4_RD_10_0.png","I_Dist_100_LN_3_LD_9_RN_7_RD_30_0.png","I_Dist_100_LN_4_LD_8_RN_8_RD_20_0.png","I_Dist_100_LN_6_LD_10_RN_11_RD_22_0.png","I_Dist_100_LN_6_LD_10_RN_13_RD_26_0.png","I_Dist_100_LN_6_LD_10_RN_7_RD_14_0.png","I_Dist_100_LN_9_LD_10_RN_20_RD_25_0.png","I_Dist_100_LN_9_LD_15_RN_13_RD_26_0.png","I_Dist_100_LN_9_LD_15_RN_14_RD_28_0.png"],["I_Dist_100_LN_10_LD_25_RN_8_RD_16_1.png","I_Dist_100_LN_10_LD_25_RN_9_RD_18_1.png","I_Dist_100_LN_11_LD_22_RN_9_RD_15_1.png","I_Dist_100_LN_12_LD_24_RN_9_RD_15_1.png","I_Dist_100_LN_12_LD_30_RN_2_RD_4_1.png","I_Dist_100_LN_13_LD_26_RN_12_RD_20_1.png","I_Dist_100_LN_13_LD_26_RN_6_RD_10_1.png","I_Dist_100_LN_17_LD_30_RN_10_RD_15_1.png","I_Dist_100_LN_6_LD_12_RN_3_RD_5_1.png","I_Dist_100_LN_8_LD_16_RN_6_RD_10_1.png","I_Dist_100_LN_8_LD_20_RN_1_RD_2_1.png","I_Dist_100_LN_9_LD_18_RN_6_RD_10_1.png"]],"dist100_S":[["E_Dist_100_LN_2_LD_12_RN_2_RD_30_0.png","E_Dist_100_LN_6_LD_10_RN_6_RD_12_0.png"],["E_Dist_100_LN_6_LD_12_RN_6_RD_10_1.png"]],"dist200_C":[["C_Dist_200_LN_11_LD_22_RN_3_RD_10_0.png","C_Dist_200_LN_12_LD_15_RN_6_RD_10_0.png","C_Dist_200_LN_12_LD_20_RN_6_RD_15_0.png","C_Dist_200_LN_14_LD_28_RN_6_RD_20_0.png","C_Dist_200_LN_15_LD_25_RN_4_RD_10_0.png","C_Dist_200_LN_16_LD_20_RN_12_RD_20_0.png","C_Dist_200_LN_16_LD_30_RN_9_RD_27_0.png","C_Dist_200_LN_20_LD_25_RN_9_RD_15_0.png","C_Dist_200_LN_21_LD_30_RN_2_RD_4_0.png","C_Dist_200_LN_4_LD_10_RN_3_RD_15_0.png","C_Dist_200_LN_4_LD_8_RN_3_RD_10_0.png","C_Dist_200_LN_6_LD_15_RN_3_RD_15_0.png","C_Dist_200_LN_7_LD_21_RN_2_RD_15_0.png","C_Dist_200_LN_8_LD_15_RN_2_RD_6_0.png","C_Dist_200_LN_8_LD_15_RN_3_RD_9_0.png","C_Dist_200_LN_8_LD_15_RN_7_RD_21_0.png","C_Dist_200_LN_9_LD_20_RN_4_RD_16_0.png"],["C_Dist_200_LN_1_LD_2_RN_21_RD_30_1.png","C_Dist_200_LN_13_LD_26_RN_14_RD_20_1.png","C_Dist_200_LN_3_LD_10_RN_11_RD_22_1.png","C_Dist_200_LN_3_LD_10_RN_14_RD_28_1.png","C_Dist_200_LN_3_LD_10_RN_7_RD_14_1.png","C_Dist_200_LN_3_LD_12_RN_9_RD_20_1.png","C_Dist_200_LN_3_LD_6_RN_14_RD_20_1.png","C_Dist_200_LN_5_LD_10_RN_14_RD_20_1.png","C_Dist_200_LN_6_LD_12_RN_7_RD_10_1.png","C_Dist_200_LN_6_LD_20_RN_11_RD_22_1.png","C_Dist_200_LN_7_LD_15_RN_18_RD_27_1.png","C_Dist_200_LN_9_LD_30_RN_13_RD_26_1.png"]],"dist200_I":[["I_Dist_200_LN_1_LD_2_RN_3_RD_10_0.png","I_Dist_200_LN_1_LD_3_RN_2_RD_15_0.png","I_Dist_200_LN_3_LD_4_RN_11_RD_20_0.png","I_Dist_200_LN_4_LD_5_RN_6_RD_10_0.png","I_Dist_200_LN_4_LD_6_RN_14_RD_30_0.png","I_Dist_200_LN_7_LD_10_RN_12_RD_24_0.png","I_Dist_200_LN_7_LD_10_RN_14_RD_28_0.png","I_Dist_200_LN_7_LD_10_RN_8_RD_16_0.png"],["I_Dist_200_LN_11_LD_20_RN_3_RD_4_1.png","I_Dist_200_LN_14_LD_30_RN_12_RD_18_1.png","I_Dist_200_LN_14_LD_30_RN_6_RD_9_1.png","I_Dist_200_LN_3_LD_10_RN_1_RD_2_1.png","I_Dist_200_LN_4_LD_30_RN_1_RD_3_1.png","I_Dist_200_LN_6_LD_20_RN_3_RD_6_1.png","I_Dist_200_LN_7_LD_15_RN_4_RD_6_1.png","I_Dist_200_LN_7_LD_15_RN_6_RD_9_1.png","I_Dist_200_LN_9_LD_15_RN_8_RD_10_1.png"]],"dist200_S":[["E_Dist_200_LN_3_LD_6_RN_3_RD_10_0.png"],["E_Dist_200_LN_3_LD_10_RN_3_RD_6_1.png"]],"dist300_C":[["C_Dist_300_LN_11_LD_22_RN_1_RD_5_0.png","C_Dist_300_LN_11_LD_22_RN_2_RD_10_0.png","C_Dist_300_LN_11_LD_22_RN_4_RD_20_0.png","C_Dist_300_LN_12_LD_24_RN_2_RD_10_0.png","C_Dist_300_LN_18_LD_20_RN_9_RD_15_0.png","C_Dist_300_LN_20_LD_25_RN_13_RD_26_0.png","C_Dist_300_LN_20_LD_25_RN_14_RD_28_0.png","C_Dist_300_LN_20_LD_25_RN_5_RD_10_0.png","C_Dist_300_LN_20_LD_25_RN_8_RD_16_0.png","C_Dist_300_LN_20_LD_25_RN_9_RD_18_0.png","C_Dist_300_LN_24_LD_30_RN_2_RD_4_0.png","C_Dist_300_LN_24_LD_30_RN_8_RD_16_0.png","C_Dist_300_LN_3_LD_6_RN_2_RD_10_0.png","C_Dist_300_LN_4_LD_10_RN_1_RD_10_0.png","C_Dist_300_LN_4_LD_5_RN_2_RD_4_0.png","C_Dist_300_LN_8_LD_16_RN_1_RD_5_0.png","C_Dist_300_LN_9_LD_10_RN_3_RD_5_0.png"],["C_Dist_300_LN_1_LD_20_RN_7_RD_20_1.png","C_Dist_300_LN_1_LD_3_RN_19_RD_30_1.png","C_Dist_300_LN_1_LD_30_RN_8_RD_24_1.png","C_Dist_300_LN_1_LD_5_RN_11_RD_22_1.png","C_Dist_300_LN_1_LD_5_RN_3_RD_6_1.png","C_Dist_300_LN_1_LD_5_RN_6_RD_12_1.png","C_Dist_300_LN_2_LD_10_RN_12_RD_24_1.png","C_Dist_300_LN_2_LD_20_RN_10_RD_25_1.png","C_Dist_300_LN_3_LD_12_RN_11_RD_20_1.png","C_Dist_300_LN_3_LD_6_RN_4_RD_5_1.png","C_Dist_300_LN_4_LD_20_RN_13_RD_26_1.png","C_Dist_300_LN_5_LD_25_RN_6_RD_12_1.png","C_Dist_300_LN_5_LD_25_RN_7_RD_14_1.png","C_Dist_300_LN_7_LD_14_RN_20_RD_25_1.png","C_Dist_300_LN_8_LD_15_RN_10_RD_12_1.png"]],"dist300_I":[["I_Dist_300_LN_1_LD_2_RN_2_RD_10_0.png","I_Dist_300_LN_1_LD_2_RN_3_RD_15_0.png","I_Dist_300_LN_2_LD_4_RN_6_RD_30_0.png","I_Dist_300_LN_3_LD_6_RN_4_RD_20_0.png","I_Dist_300_LN_4_LD_5_RN_6_RD_12_0.png","I_Dist_300_LN_4_LD_5_RN_8_RD_16_0.png","I_Dist_300_LN_7_LD_10_RN_8_RD_20_0.png","I_Dist_300_LN_8_LD_10_RN_14_RD_28_0.png","I_Dist_300_LN_8_LD_10_RN_9_RD_18_0.png"],["I_Dist_300_LN_13_LD_26_RN_12_RD_15_1.png","I_Dist_300_LN_4_LD_20_RN_2_RD_4_1.png"]],"dist300_S":[["E_Dist_300_LN_9_LD_12_RN_9_RD_20_0.png"],["E_Dist_300_LN_18_LD_30_RN_18_RD_20_1.png","E_Dist_300_LN_3_LD_10_RN_3_RD_5_1.png","E_Dist_300_LN_9_LD_20_RN_9_RD_12_1.png"]],"dist500_C":[["C_Dist_500_LN_10_LD_13_RN_7_RD_26_0.png","C_Dist_500_LN_10_LD_15_RN_4_RD_24_0.png","C_Dist_500_LN_12_LD_16_RN_3_RD_12_0.png","C_Dist_500_LN_12_LD_18_RN_4_RD_24_0.png","C_Dist_500_LN_15_LD_18_RN_5_RD_15_0.png","C_Dist_500_LN_15_LD_20_RN_1_RD_4_0.png","C_Dist_500_LN_18_LD_27_RN_1_RD_6_0.png","C_Dist_500_LN_20_LD_24_RN_1_RD_3_0.png","C_Dist_500_LN_20_LD_24_RN_3_RD_9_0.png","C_Dist_500_LN_20_LD_24_RN_7_RD_21_0.png","C_Dist_500_LN_20_LD_28_RN_3_RD_14_0.png","C_Dist_500_LN_21_LD_28_RN_6_RD_24_0.png","C_Dist_500_LN_22_LD_28_RN_2_RD_7_0.png","C_Dist_500_LN_25_LD_30_RN_9_RD_27_0.png","C_Dist_500_LN_4_LD_6_RN_1_RD_6_0.png","C_Dist_500_LN_5_LD_6_RN_2_RD_6_0.png","C_Dist_500_LN_6_LD_9_RN_1_RD_6_0.png","C_Dist_500_LN_7_LD_10_RN_1_RD_5_0.png","C_Dist_500_LN_8_LD_12_RN_1_RD_6_0.png","C_Dist_500_LN_8_LD_12_RN_4_RD_24_0.png"],["C_Dist_500_LN_1_LD_4_RN_12_RD_16_1.png","C_Dist_500_LN_1_LD_4_RN_9_RD_12_1.png","C_Dist_500_LN_1_LD_9_RN_11_RD_18_1.png","C_Dist_500_LN_10_LD_24_RN_22_RD_24_1.png","C_Dist_500_LN_2_LD_12_RN_10_RD_15_1.png","C_Dist_500_LN_2_LD_12_RN_12_RD_18_1.png","C_Dist_500_LN_2_LD_12_RN_4_RD_6_1.png","C_Dist_500_LN_2_LD_24_RN_7_RD_12_1.png","C_Dist_500_LN_2_LD_5_RN_18_RD_20_1.png","C_Dist_500_LN_2_LD_5_RN_9_RD_10_1.png","C_Dist_500_LN_2_LD_8_RN_12_RD_16_1.png","C_Dist_500_LN_2_LD_8_RN_21_RD_28_1.png","C_Dist_500_LN_3_LD_10_RN_4_RD_5_1.png","C_Dist_500_LN_3_LD_12_RN_15_RD_20_1.png","C_Dist_500_LN_3_LD_30_RN_6_RD_10_1.png","C_Dist_500_LN_3_LD_8_RN_14_RD_16_1.png","C_Dist_500_LN_4_LD_16_RN_15_RD_20_1.png","C_Dist_500_LN_4_LD_24_RN_12_RD_18_1.png","C_Dist_500_LN_5_LD_14_RN_6_RD_7_1.png","C_Dist_500_LN_7_LD_21_RN_20_RD_24_1.png","C_Dist_500_LN_7_LD_28_RN_12_RD_16_1.png","C_Dist_500_LN_7_LD_28_RN_9_RD_12_1.png","C_Dist_500_LN_9_LD_27_RN_20_RD_24_1.png"]],"dist500_I":[["I_Dist_500_LN_2_LD_3_RN_4_RD_24_0.png","I_Dist_500_LN_5_LD_6_RN_6_RD_18_0.png","I_Dist_500_LN_7_LD_8_RN_9_RD_24_0.png"],["I_Dist_500_LN_7_LD_21_RN_5_RD_6_1.png"]],"dist500_S":[["E_Dist_500_LN_6_LD_8_RN_6_RD_24_0.png"],["E_Dist_500_LN_2_LD_12_RN_2_RD_3_1.png","E_Dist_500_LN_6_LD_24_RN_6_RD_8_1.png"]]}},{"start_time":1551899910598,"click_time":1551899914821,"finger_time":1551899911060,"fix_duration":1257.4176024418969,"trial":1,"RT":462,"MT":3761,"sideResp":1,"stimulus":[],"xmouse":[813,813,813,813,813,813,814,816,817,817,817,817,817,817,817,817,817,817,817,817,818,824,832,868,891,911,920,924,924,924,924,924,924,925,925,925,926,927,929,939,944,948,949,950,950,950,950,951,951,951,951,951,951,951,952,953,954,958,960,968,971,972,973,973,973,973,973,973,973,973,973,973,973,973,973,973,973,973,973,973,973,973,973,973,973,973,973,973,973,973,973,973,973,974,974,975,976,976,976,976,976,977,977,977,977,977,977,977,977,977,977,977,977,977,977,977,977,977,977,977,977,977,977,977,977,977,977,977,977,977,977,977,977,977,977,977,977,977,977,977,977,977,977,977,977,977,977,977,977,977,977,977,977,977,977,977,979,979,984,987,991,993,997,1002,1005,1009,1011,1014,1016,1018,1018,1018,1018,1019,1022,1025,1029,1033,1038,1043,1045,1045,1046,1046,1046,1046,1046,1046,1045,1039,1029,1015,990,969,933,916,900,883,865,832,816,798,765,741,691,669,643,620,598,551,530,502],"ymouse":[614,614,614,614,614,614,614,614,614,614,614,614,614,614,614,614,614,614,614,614,614,614,614,614,614,614,614,614,614,614,614,614,614,614,614,614,614,614,614,614,614,614,614,614,614,614,614,614,614,614,614,614,614,614,614,614,614,614,614,613,613,612,612,612,612,612,612,612,612,612,612,612,612,612,612,612,612,612,612,612,612,612,612,612,612,612,612,612,612,612,612,612,612,612,612,612,612,612,612,612,612,612,612,612,612,612,612,612,612,612,612,612,612,612,612,612,612,612,612,612,612,612,612,612,612,612,612,612,612,612,612,612,612,612,612,612,612,612,612,612,612,612,612,612,612,612,612,612,612,612,612,612,612,612,612,612,610,608,598,591,583,577,564,545,534,520,506,492,481,467,461,456,452,448,438,429,416,401,385,366,362,359,357,357,357,357,357,357,355,346,333,313,279,253,215,203,192,185,181,172,170,166,159,152,140,134,128,121,114,95,85,71],"timestamp_mouse":[12,21,46,61,81,101,121,140,161,180,202,222,242,261,280,302,322,342,362,380,400,420,441,462,481,501,521,541,561,581,602,621,641,661,681,702,722,740,761,782,800,821,841,861,880,901,920,942,962,982,1000,1022,1042,1060,1081,1101,1122,1140,1161,1181,1202,1221,1241,1260,1282,1301,1322,1341,1360,1381,1401,1422,1441,1462,1480,1502,1521,1541,1560,1581,1602,1621,1641,1662,1680,1701,1720,1740,1761,1782,1801,1821,1840,1861,1882,1901,1921,1941,1961,1981,2001,2020,2041,2062,2081,2100,2120,2142,2161,2182,2201,2221,2240,2261,2281,2301,2321,2340,2362,2381,2402,2421,2442,2462,2481,2501,2521,2540,2561,2580,2601,2621,2641,2662,2681,2701,2722,2741,2761,2782,2801,2821,2841,2862,2880,2901,2921,2942,2962,2981,3002,3020,3042,3061,3082,3100,3122,3142,3162,3180,3201,3220,3241,3262,3281,3300,3322,3342,3362,3381,3402,3422,3441,3460,3481,3500,3521,3540,3561,3581,3602,3621,3642,3662,3681,3702,3721,3740,3762,3780,3800,3822,3841,3862,3881,3902,3921,3941,3961,3981,4002,4020,4040,4061,4081,4101,4120,4140,4161,4181,4202,4222],"xSR":741.5,"ySR":573.95,"xT1":424.9,"yT1":0,"xT2":1058.1,"yT2":0,"toosoon":0,"cond_shown":"Incongruent","ratio_trial":300,"L_num":8,"L_den":10,"R_num":9,"R_den":18,"correct_side":1,"subjID":"dianasofiaavendañobeltran5","gender":"1","school":"6","age":"11"},{"start_time":1551899920707,"click_time":1551899930399,"finger_time":1551899921560,"fix_duration":1424.8196639777293,"trial":2,"RT":853,"MT":8839,"sideResp":1,"stimulus":[],"xmouse":[765,765,765,765,765,765,765,765,765,765,765,765,765,765,765,765,765,765,765,765,765,765,765,765,765,765,766,768,773,776,779,782,786,795,805,812,816,818,823,824,829,833,842,843,844,844,844,844,847,852,858,863,866,866,866,866,866,866,866,866,866,866,866,866,866,866,867,869,872,873,876,879,882,885,886,887,887,888,892,895,897,900,904,906,908,910,913,918,920,922,924,926,928,930,934,938,948,955,969,972,977,981,986,995,1001,1006,1007,1010,1013,1013,1013,1013,1013,1013,1013,1013,1013,1013,1013,1013,1013,1013,1013,1013,1013,1013,1013,1013,1013,1013,1013,1013,1014,1014,1015,1015,1015,1015,1015,1015,1016,1018,1019,1020,1020,1021,1023,1026,1031,1032,1032,1032,1032,1032,1032,1032,1032,1032,1032,1032,1032,1032,1032,1030,1023,1022,1022,1022,1022,1022,1022,1021,1019,1019,1019,1019,1019,1019,1019,1019,1019,1019,1019,1019,1019,1019,1019,1019,1019,1019,1019,1019,1019,1019,1019,1019,1019,1019,1019,1019,1019,1019,1019,1019,1019,1019,1019,1019,1019,1019,1019,1019,1019,1019,1019,1019,1019,1019,1019,1019,1019,1019,1019,1019,1019,1019,1019,1019,1019,1019,1019,1019,1019,1019,1019,1019,1019,1019,1019,1019,1019,1019,1019,1019,1019,1019,1019,1019,1019,1019,1019,1019,1019,1019,1019,1019,1019,1019,1019,1019,1019,1019,1019,1019,1019,1019,1019,1019,1019,1019,1019,1019,1019,1019,1019,1019,1019,1019,1019,1019,1019,1019,1019,1019,1019,1019,1019,1019,1019,1019,1019,1019,1019,1019,1019,1019,1019,1019,1019,1019,1019,1019,1019,1019,1019,1019,1019,1019,1019,1019,1019,1019,1019,1019,1019,1019,1019,1019,1019,1019,1019,1019,1019,1019,1019,1019,1019,1019,1019,1019,1019,1019,1019,1019,1019,1019,1019,1019,1019,1019,1019,1019,1019,1019,1019,1019,1019,1019,1019,1019,1019,1019,1019,1019,1019,1019,1019,1019,1019,1019,1019,1019,1019,1019,1019,1019,1019,1019,1019,1019,1019,1019,1019,1019,1019,1019,1019,1019,1019,1019,1019,1019,1019,1019,1019,1019,1019,1019,1019,1019,1019,1019,1019,1019,1019,1019,1019,1020,1021,1021,1024,1024,1024,1025,1025,1027,1027,1028,1030,1030,1030,1031,1032,1032,1032,1032,1032,1032,1032,1032,1032,1032,1030,1029,1026,1023,1018,1009,1007,1006,1005,1004,1001,998,994,987,985,973,966,960,955,947,925,909,889,867,840,823,799,788,780,769,758,731,717,704,693,662,646,633,621,610,600,599,599,598,595,592,583,580,578,573,564,562,560,557,554,548,547,545,543,539,530,525,520],"ymouse":[616,616,616,616,616,616,616,616,616,616,616,616,616,616,616,616,616,616,616,616,616,616,616,616,616,616,616,615,615,615,615,615,615,615,615,615,615,615,615,615,615,615,615,615,615,615,615,615,615,615,615,615,615,615,615,615,615,615,615,615,615,615,615,615,615,615,615,615,615,615,615,615,615,615,615,615,615,615,615,615,614,613,613,613,612,612,612,610,610,609,609,608,608,607,606,604,602,600,598,596,595,594,593,591,590,589,589,588,588,588,588,588,588,588,588,588,588,588,588,588,588,588,588,588,588,588,588,588,588,588,588,588,585,578,576,576,576,576,586,597,606,611,613,615,615,615,615,610,601,600,600,600,600,600,600,600,600,600,600,600,600,600,600,599,599,599,599,599,599,599,599,599,598,598,598,598,598,598,598,598,598,598,598,598,598,598,598,598,598,598,598,598,598,598,598,598,598,598,598,598,598,598,598,598,598,598,598,598,598,598,598,598,598,598,598,598,598,598,598,598,598,598,598,598,598,598,598,598,598,598,598,598,598,598,598,598,598,598,598,598,598,598,598,598,598,598,598,598,598,598,598,598,598,598,598,598,598,598,598,598,598,598,598,598,598,598,598,598,598,598,598,598,598,598,598,598,598,598,598,598,598,598,598,598,598,598,598,598,598,598,598,598,598,598,598,598,598,598,598,598,598,598,598,598,598,598,598,598,598,598,598,598,598,598,598,598,598,598,598,598,598,598,598,598,598,598,598,598,598,598,598,598,598,598,598,598,598,598,598,598,598,598,598,598,598,598,598,598,598,598,598,598,598,598,598,598,598,598,598,598,598,598,598,598,598,598,598,598,598,598,598,598,598,598,598,598,598,598,598,598,598,598,598,598,598,598,598,598,598,598,598,598,598,598,598,598,598,598,598,598,596,596,596,595,595,593,593,590,589,587,586,585,582,581,579,576,574,568,566,563,562,558,540,532,521,511,493,472,468,465,463,461,452,449,444,436,434,424,420,417,413,408,390,377,363,348,328,318,302,293,285,276,267,248,239,229,221,199,190,182,177,171,167,165,165,165,163,161,156,154,152,150,141,136,132,127,122,111,108,104,99,91,76,67,61],"timestamp_mouse":[11,37,52,73,92,112,132,151,171,193,213,232,253,271,291,313,333,351,372,392,411,433,453,472,493,511,532,552,572,592,611,631,652,673,692,712,731,751,772,792,812,833,853,872,892,913,932,952,972,992,1011,1032,1052,1072,1091,1112,1131,1153,1173,1192,1212,1231,1252,1271,1293,1312,1333,1351,1372,1392,1413,1433,1452,1472,1492,1512,1532,1551,1572,1591,1612,1632,1652,1671,1692,1711,1732,1752,1772,1791,1812,1832,1853,1872,1892,1912,1931,1951,1972,1993,2012,2033,2052,2072,2091,2112,2133,2152,2173,2192,2211,2231,2251,2272,2293,2312,2331,2352,2371,2392,2413,2432,2453,2471,2492,2511,2532,2553,2572,2592,2612,2632,2652,2672,2692,2713,2732,2753,2773,2791,2812,2832,2852,2872,2892,2913,2932,2951,2971,2991,3011,3032,3053,3073,3092,3112,3133,3151,3172,3192,3213,3233,3252,3271,3291,3312,3333,3353,3372,3392,3412,3432,3453,3472,3492,3512,3532,3553,3572,3592,3613,3632,3652,3673,3693,3712,3733,3751,3772,3791,3812,3832,3853,3873,3892,3911,3932,3953,3972,3992,4012,4031,4051,4072,4093,4113,4132,4153,4172,4192,4211,4233,4252,4272,4293,4311,4332,4353,4372,4391,4413,4433,4453,4472,4492,4512,4531,4553,4571,4592,4612,4631,4652,4673,4691,4711,4732,4753,4771,4791,4812,4832,4852,4873,4892,4913,4932,4952,4972,4992,5012,5032,5053,5073,5092,5111,5131,5153,5171,5191,5212,5232,5253,5272,5291,5313,5333,5353,5373,5392,5412,5432,5452,5473,5492,5513,5533,5551,5571,5593,5612,5633,5653,5671,5692,5713,5733,5751,5773,5793,5813,5832,5853,5872,5891,5912,5933,5952,5973,5992,6013,6031,6052,6073,6092,6113,6131,6152,6173,6191,6212,6232,6252,6272,6293,6313,6331,6353,6371,6392,6411,6432,6453,6473,6493,6512,6533,6553,6572,6591,6612,6633,6652,6673,6692,6712,6731,6752,6772,6793,6812,6832,6852,6873,6892,6911,6933,6952,6973,6992,7012,7031,7053,7071,7092,7112,7133,7153,7173,7192,7211,7233,7253,7272,7292,7312,7333,7352,7371,7393,7412,7432,7452,7472,7492,7511,7532,7552,7573,7592,7611,7632,7652,7671,7692,7711,7732,7753,7773,7792,7812,7832,7852,7873,7892,7911,7932,7952,7972,7992,8013,8032,8052,8071,8091,8113,8133,8152,8171,8191,8212,8233,8252,8272,8293,8312,8332,8352,8372,8392,8412,8431,8453,8472,8492,8512,8532,8552,8571,8591,8612,8632,8652,8672,8692,8711,8732,8752,8772,8792,8811,8831,8852,8872,8892,8912,8932,8951,8973,8992,9012,9031,9052,9072,9092,9112,9132,9152,9171,9191,9211,9232,9252,9272,9292,9313,9331,9351,9372,9393,9412,9431,9452,9471,9491,9512,9532,9552,9572,9591,9612,9632,9652,9671,9692],"xSR":741.5,"ySR":573.95,"xT1":424.9,"yT1":0,"xT2":1058.1,"yT2":0,"toosoon":0,"cond_shown":"Incongruent","ratio_trial":100,"L_num":6,"L_den":10,"R_num":11,"R_den":22,"correct_side":1,"subjID":"dianasofiaavendañobeltran5","gender":"1","school":"6","age":"11"},{"start_time":1551899934819,"click_time":1551899942799,"finger_time":1551899938480,"fix_duration":957.0017207173794,"trial":3,"RT":3661,"MT":4319,"sideResp":2,"stimulus":[],"xmouse":[814,814,814,814,814,814,814,814,814,814,814,814,814,814,814,814,814,814,814,814,814,814,814,814,814,814,814,814,814,814,814,814,814,814,814,814,814,814,814,814,814,814,814,814,814,814,814,814,814,814,814,814,814,814,814,814,814,814,814,814,814,814,814,814,814,814,814,814,814,814,814,814,814,814,814,814,814,814,814,814,814,814,814,814,814,814,814,814,814,814,814,814,814,814,814,814,814,814,814,814,814,814,814,814,814,814,814,814,814,814,814,814,814,814,814,814,814,814,814,814,814,814,814,814,814,814,814,814,814,814,814,814,814,814,814,814,814,814,814,814,814,814,814,814,814,814,814,814,814,814,814,814,814,814,814,814,814,814,814,814,814,814,814,814,814,814,814,814,814,814,814,814,814,814,814,814,814,814,814,814,814,813,812,806,803,797,796,794,793,791,790,787,777,772,765,759,754,744,738,734,728,726,716,711,707,704,700,699,695,694,692,692,690,690,689,688,688,688,688,688,691,696,702,708,720,734,753,793,814,836,858,889,1009,1074,1153,1264,1394,1518,1518,1518,1518,1518,1518,1518,1518,1518,1518,1518,1518,1518,1518,1518,1518,1518,1518,1518,1518,1518,1518,1518,1518,1518,1518,1518,1518,1518,1518,1518,1518,1518,1518,1518,1518,1518,1518,1518,1518,1518,1518,1518,1518,1582,1579,1561,1552,1540,1528,1521,1518,1516,1513,1511,1510,1506,1504,1500,1495,1487,1457,1443,1430,1422,1415,1404,1401,1398,1397,1395,1395,1395,1395,1395,1395,1395,1394,1392,1384,1373,1347,1344,1340,1339,1339,1339,1339,1339,1338,1338,1328,1324,1320,1318,1316,1315,1315,1315,1315,1315,1315,1315,1315,1315,1315,1315,1315,1315,1315,1315,1315,1315,1315,1315,1315,1315,1315,1315,1315,1315,1315,1315,1315,1315,1315,1315,1315,1315,1315,1315,1315,1315,1315,1315,1315,1315,1315,1315,1315,1315,1315,1315,1315,1315,1315,1315,1315,1315,1315,1315,1313,1310,1301,1291,1284,1272,1266,1260,1251,1236,1168,1118],"ymouse":[614,614,614,614,614,614,614,614,614,614,614,614,614,614,614,614,614,614,614,614,614,614,614,614,614,614,614,614,614,614,614,614,614,614,614,614,614,614,614,614,614,614,614,614,614,614,614,614,614,614,614,614,614,614,614,614,614,614,614,614,614,614,614,614,614,614,614,614,614,614,614,614,614,614,614,614,614,614,614,614,614,614,614,614,614,614,614,614,614,614,614,614,614,614,614,614,614,614,614,614,614,614,614,614,614,614,614,614,614,614,614,614,614,614,614,614,614,614,614,614,614,614,614,614,614,614,614,614,614,614,614,614,614,614,614,614,614,614,614,614,614,614,614,614,614,614,614,614,614,614,614,614,614,614,614,614,614,614,614,614,614,614,614,614,614,614,614,614,614,614,614,614,614,614,614,614,609,600,597,595,592,582,577,557,546,525,517,493,480,465,454,441,410,398,381,363,345,310,293,277,255,249,211,196,186,176,164,155,141,135,132,128,119,116,112,111,109,103,101,97,91,85,78,73,66,61,54,47,44,40,36,28,8,0,0,0,0,0,0,0,0,0,0,0,0,0,0,0,0,0,0,0,0,0,0,0,0,0,0,0,0,0,0,0,0,0,0,0,0,0,0,0,0,0,0,0,0,0,0,0,0,189,192,199,201,202,202,202,202,202,202,202,202,202,202,202,202,204,204,204,204,204,204,204,204,204,204,204,204,204,204,204,204,204,204,204,201,199,193,191,191,190,190,190,190,190,190,190,185,183,181,180,180,180,180,180,180,180,180,180,180,180,180,180,180,180,180,180,180,180,180,180,180,180,180,180,180,180,180,180,180,180,180,180,180,180,180,180,180,180,180,180,180,180,180,180,180,180,180,180,180,180,180,180,180,180,180,180,176,150,118,95,83,69,66,64,61,60,60,60],"timestamp_mouse":[7,21,41,60,80,99,120,141,161,179,201,220,240,261,280,299,321,340,361,379,401,421,440,460,480,501,520,539,560,580,600,621,640,660,680,700,720,740,761,779,801,821,841,859,881,901,921,941,961,980,1001,1021,1041,1059,1081,1100,1120,1141,1159,1181,1201,1221,1240,1260,1279,1301,1320,1340,1359,1381,1400,1421,1441,1460,1481,1500,1520,1539,1559,1580,1599,1620,1640,1661,1680,1701,1720,1741,1760,1781,1800,1819,1841,1860,1881,1901,1919,1941,1961,1979,1999,2020,2041,2060,2081,2099,2119,2141,2161,2181,2199,2221,2241,2260,2280,2300,2320,2341,2361,2381,2401,2419,2439,2460,2481,2499,2520,2541,2561,2580,2601,2620,2639,2661,2681,2700,2721,2741,2760,2779,2801,2820,2841,2861,2879,2901,2921,2939,2960,2980,3001,3021,3041,3061,3081,3099,3121,3140,3160,3181,3199,3221,3241,3260,3281,3300,3320,3341,3359,3381,3401,3420,3440,3460,3480,3501,3519,3539,3560,3580,3599,3620,3639,3661,3680,3700,3719,3740,3759,3781,3800,3821,3840,3859,3879,3901,3921,3940,3959,3980,4001,4019,4040,4060,4079,4101,4121,4140,4160,4179,4199,4221,4240,4261,4280,4305,4319,4339,4360,4381,4400,4420,4440,4459,4480,4501,4521,4540,4561,4580,4600,4621,4640,4660,4680,4700,4721,4740,4760,4781,4800,4821,4841,4860,4880,4899,4920,4940,4960,4980,5000,5020,5039,5060,5079,5099,5120,5140,5160,5180,5200,5219,5240,5260,5281,5300,5320,5341,5360,5379,5400,5420,5440,5461,5481,5500,5520,5541,5560,5580,5600,5620,5641,5660,5681,5700,5720,5740,5760,5781,5800,5820,5840,5860,5879,5899,5919,5939,5960,5980,6000,6020,6040,6060,6081,6100,6121,6139,6160,6180,6200,6221,6240,6260,6280,6300,6321,6340,6359,6380,6399,6421,6441,6459,6479,6500,6519,6540,6560,6579,6600,6619,6640,6660,6680,6699,6721,6741,6760,6781,6801,6820,6840,6860,6880,6900,6920,6939,6961,6981,7000,7020,7039,7061,7081,7100,7120,7141,7160,7179,7201,7221,7241,7259,7280,7299,7319,7340,7361,7381,7399,7421,7440,7460,7481,7499,7521,7540,7561,7580,7600,7621,7640,7661,7681,7700,7719,7741,7760,7780,7800,7819,7839,7859,7880,7900,7919,7940,7959,7980],"xSR":741.5,"ySR":573.95,"xT1":424.9,"yT1":0,"xT2":1058.1,"yT2":0,"toosoon":0,"cond_shown":"Incongruent","ratio_trial":300,"L_num":1,"L_den":2,"R_num":2,"R_den":10,"correct_side":1,"subjID":"dianasofiaavendañobeltran5","gender":"1","school":"6","age":"11"},{"start_time":1551899947683,"click_time":1551899954518,"finger_time":1551899950819,"fix_duration":1043.269852022621,"trial":4,"RT":3136,"MT":3699,"sideResp":2,"stimulus":[],"xmouse":[780,780,780,780,780,780,780,780,780,780,780,780,780,780,780,780,780,780,780,780,780,780,780,780,780,780,780,780,780,780,780,780,780,780,780,780,780,780,780,780,780,780,780,780,780,780,780,780,780,780,780,780,780,780,780,780,780,780,780,780,780,780,780,780,780,780,780,780,780,780,780,780,780,780,780,780,780,780,780,780,780,780,780,780,780,780,780,780,780,780,780,780,782,783,784,784,785,785,785,785,785,785,785,785,785,785,785,785,785,785,785,786,786,786,786,786,786,787,789,790,791,791,791,792,794,797,799,801,802,804,805,805,805,805,805,805,805,807,807,808,811,812,812,813,814,814,815,815,815,815,815,815,815,816,818,819,821,824,824,825,827,828,829,830,830,830,830,830,830,832,834,834,834,834,836,838,841,842,843,849,851,854,857,860,867,872,873,875,877,882,885,887,889,891,891,891,879,867,852,831,825,824,824,829,844,849,853,855,855,855,855,855,855,857,863,871,876,879,881,884,884,884,886,887,889,891,891,892,892,892,892,892,892,892,893,895,898,901,901,902,902,903,905,909,921,926,927,927,927,929,930,930,932,934,936,937,937,938,939,942,943,946,951,962,1022,1130,1255,1417,1417,1417,1417,1417,1417,1417,1417,1417,1417,1417,1417,1417,1417,1417,1417,1417,1417,1417,1417,1417,1417,1417,1417,1417,1417,1417,1581,1566,1551,1535,1519,1497,1485,1472,1460,1451,1447,1444,1438,1430,1422,1406,1395,1378,1359,1340,1312,1299,1295,1293,1292,1292,1292,1289,1287,1283,1262,1253,1245,1239,1237,1231,1224,1217,1208,1199,1170,1161,1153,1144,1133,1113,1105,1098],"ymouse":[604,604,604,604,604,604,604,604,604,604,604,604,604,604,604,604,604,604,604,604,604,604,604,604,604,604,604,604,604,604,604,604,604,604,604,604,604,604,604,604,604,604,604,604,604,604,604,604,604,604,604,604,604,604,604,604,604,604,604,604,604,604,604,604,604,604,604,604,604,604,604,604,604,604,604,604,604,604,604,604,604,604,604,604,604,604,604,604,604,604,604,604,604,604,604,604,604,604,604,604,604,604,604,604,604,604,604,604,604,604,604,603,603,603,603,603,603,603,602,601,600,600,600,600,600,600,599,599,598,596,595,595,595,595,595,595,595,594,593,589,586,585,584,583,582,582,581,581,581,581,581,580,580,579,577,575,573,569,569,565,564,561,560,560,556,556,555,554,553,549,546,544,543,542,536,531,528,525,521,513,510,507,504,500,490,484,481,478,476,468,463,456,444,426,387,372,349,337,325,308,300,290,281,271,256,252,249,248,247,247,246,246,244,240,228,213,201,193,189,179,177,174,168,165,158,154,153,153,153,153,153,153,153,153,150,147,142,138,138,137,136,135,131,125,111,105,103,103,102,99,97,95,93,89,86,85,85,84,82,79,77,74,69,59,16,0,0,0,0,0,0,0,0,0,0,0,0,0,0,0,0,0,0,0,0,0,0,0,0,0,0,0,0,0,148,163,173,183,189,201,207,213,218,221,223,223,226,227,230,236,240,244,248,250,257,260,261,261,261,261,261,261,260,259,251,247,244,242,240,236,232,228,223,220,207,201,193,181,166,132,114,97],"timestamp_mouse":[15,35,56,76,96,115,135,155,176,196,215,235,255,275,296,316,334,356,375,395,415,435,456,475,496,514,535,555,574,595,615,636,655,675,695,715,735,756,774,796,815,836,855,876,896,916,935,955,975,995,1016,1035,1055,1075,1095,1115,1135,1154,1176,1196,1215,1236,1256,1276,1296,1316,1336,1356,1375,1396,1415,1436,1456,1476,1496,1515,1535,1555,1576,1595,1615,1636,1655,1675,1696,1716,1736,1755,1776,1796,1816,1835,1855,1875,1895,1915,1935,1954,1976,1995,2015,2035,2056,2075,2096,2115,2135,2155,2176,2196,2215,2236,2256,2276,2296,2316,2335,2354,2375,2395,2416,2436,2455,2476,2495,2516,2536,2555,2576,2595,2615,2636,2655,2676,2695,2715,2735,2755,2776,2794,2815,2835,2856,2875,2895,2915,2936,2956,2976,2996,3016,3034,3055,3074,3095,3116,3136,3155,3175,3195,3215,3235,3255,3276,3295,3315,3335,3355,3376,3395,3416,3435,3455,3474,3495,3515,3535,3555,3574,3594,3615,3635,3655,3676,3696,3716,3735,3755,3776,3794,3816,3836,3856,3875,3896,3916,3935,3955,3975,3995,4015,4034,4055,4075,4095,4116,4135,4155,4176,4195,4214,4234,4255,4276,4295,4315,4335,4354,4375,4395,4415,4435,4456,4475,4495,4515,4535,4556,4575,4595,4616,4635,4656,4676,4695,4716,4736,4755,4775,4795,4816,4836,4856,4875,4895,4916,4934,4955,4975,4995,5016,5035,5055,5074,5095,5116,5135,5155,5174,5195,5215,5235,5254,5275,5295,5315,5336,5355,5375,5395,5416,5435,5456,5475,5497,5514,5535,5556,5575,5595,5616,5635,5656,5676,5695,5716,5735,5755,5774,5795,5815,5835,5855,5875,5896,5915,5936,5955,5974,5995,6015,6036,6056,6076,6095,6115,6136,6155,6175,6195,6215,6234,6254,6276,6295,6316,6335,6356,6376,6396,6414,6436,6455,6476,6494,6515,6535,6556,6576,6594,6615,6635,6655,6675,6695,6715,6735,6756,6776,6795,6816,6834],"xSR":741.5,"ySR":573.95,"xT1":424.9,"yT1":0,"xT2":1058.1,"yT2":0,"toosoon":0,"cond_shown":"Incongruent","ratio_trial":200,"L_num":4,"L_den":6,"R_num":14,"R_den":30,"correct_side":1,"subjID":"dianasofiaavendañobeltran5","gender":"1","school":"6","age":"11"},{"start_time":1551899959629,"click_time":1551899962778,"finger_time":1551899961558,"fix_duration":250,"trial":5,"RT":1929,"MT":1220,"sideResp":2,"stimulus":[],"xmouse":[785,785,785,785,785,785,785,785,785,785,785,785,785,785,785,785,785,785,785,785,785,785,785,785,785,785,785,785,785,785,785,785,785,785,785,785,785,785,785,785,785,785,785,785,785,785,785,785,785,785,785,785,785,785,785,785,785,785,785,785,785,785,785,785,785,785,785,785,785,785,785,785,785,785,785,785,785,785,785,785,785,785,785,785,785,785,785,785,788,794,800,805,812,814,816,825,849,945,1035,1078,1103,1119,1135,1138,1141,1145,1147,1150,1151,1152,1153,1154,1162,1171,1183,1189,1193,1194,1195,1195,1197,1198,1204,1206,1208,1210,1216,1226,1232,1232,1233,1234,1238,1243,1254,1268,1288,1325,1355,1370,1382,1393,1396,1396,1396,1396,1406,1416,1416,1410,1402,1396,1385,1378,1360,1339,1306,1155],"ymouse":[651,651,651,651,651,651,651,651,651,651,651,651,651,651,651,651,651,651,651,651,651,651,651,651,651,651,651,651,651,651,651,651,651,651,651,651,651,651,651,651,651,651,651,651,651,651,651,651,651,651,651,651,651,651,651,651,651,651,651,651,651,651,651,651,651,651,651,651,651,651,651,651,651,651,651,651,651,651,651,651,651,651,651,651,651,651,651,650,650,650,650,652,654,655,656,657,662,670,670,670,670,670,670,670,670,668,668,667,667,667,667,667,664,661,658,657,656,656,656,656,656,656,654,653,651,649,644,637,633,633,632,631,623,617,601,581,555,494,420,374,328,272,143,56,13,0,0,0,0,0,0,0,0,0,1,4,9,41],"timestamp_mouse":[10,35,50,69,89,109,129,149,169,190,208,229,249,270,289,308,329,349,369,390,408,429,450,470,488,509,530,549,570,589,610,630,649,669,690,710,730,749,770,790,809,829,850,870,888,909,929,949,968,990,1010,1029,1050,1069,1089,1110,1130,1150,1169,1189,1209,1230,1249,1269,1289,1309,1329,1349,1369,1390,1410,1429,1449,1469,1488,1509,1530,1550,1570,1589,1610,1630,1650,1669,1690,1710,1730,1749,1770,1789,1810,1829,1849,1870,1889,1908,1929,1949,1970,1989,2010,2028,2049,2070,2088,2109,2130,2148,2170,2190,2209,2229,2248,2270,2288,2309,2329,2349,2370,2388,2409,2430,2449,2470,2490,2509,2529,2550,2569,2588,2609,2629,2649,2669,2689,2710,2729,2748,2769,2789,2810,2828,2849,2868,2889,2908,2928,2949,2969,2990,3009,3029,3050,3069,3089,3109,3130,3149],"xSR":741.5,"ySR":573.95,"xT1":424.9,"yT1":0,"xT2":1058.1,"yT2":0,"toosoon":0,"cond_shown":"Incongruent","ratio_trial":300,"L_num":4,"L_den":20,"R_num":2,"R_den":4,"correct_side":2,"subjID":"dianasofiaavendañobeltran5","gender":"1","school":"6","age":"11"},{"start_time":1551899965289,"click_time":1551899968819,"finger_time":1551899967617,"fix_duration":250,"trial":6,"RT":2328,"MT":1202,"sideResp":2,"stimulus":[],"xmouse":[813,813,813,813,813,813,813,813,813,813,813,813,813,813,813,813,813,813,813,813,813,813,813,815,820,823,823,823,823,823,823,823,823,823,823,823,823,823,823,823,823,823,823,823,823,823,823,823,823,823,823,823,823,823,823,823,823,823,823,823,823,823,823,823,823,823,823,823,823,823,823,823,823,823,823,823,823,823,823,823,823,823,823,823,823,823,823,823,823,823,823,823,823,823,823,823,823,823,823,823,823,823,823,823,823,823,823,823,823,823,823,823,826,829,835,838,842,844,845,847,849,850,851,852,855,855,856,857,859,862,864,865,867,868,870,871,872,874,877,885,890,895,899,906,919,924,931,937,942,950,952,954,956,957,961,963,965,967,969,973,975,978,980,982,986,987,989,992,993,996,998,1002,1006,1014,1041,1053,1069],"ymouse":[619,619,619,619,619,619,619,619,619,619,619,619,619,619,619,619,619,619,619,619,619,619,619,620,620,621,621,621,621,621,621,621,621,621,621,621,621,621,621,621,621,621,621,621,621,621,621,621,621,621,621,621,621,621,621,621,621,621,621,621,621,621,621,621,621,621,621,621,621,621,621,621,621,621,621,621,621,621,621,621,621,621,621,621,621,621,621,621,621,621,621,621,621,621,621,621,621,621,621,621,621,621,621,621,621,621,621,621,621,621,621,621,621,618,613,611,608,606,605,604,603,602,600,599,597,597,596,595,592,587,584,583,579,575,567,559,552,544,532,503,489,471,454,436,388,364,328,306,288,260,252,247,239,235,218,213,207,199,193,178,169,160,153,146,136,134,127,123,118,109,103,93,81,66,30,16,6],"timestamp_mouse":[10,29,49,69,89,109,128,150,169,190,209,229,249,269,289,308,328,348,368,388,408,428,448,468,488,508,528,548,570,590,610,630,650,670,689,709,729,749,769,790,808,828,848,868,888,910,929,950,970,989,1009,1030,1050,1069,1090,1109,1130,1150,1169,1190,1210,1230,1250,1268,1290,1310,1330,1350,1368,1389,1409,1429,1450,1468,1489,1509,1529,1550,1569,1590,1608,1628,1649,1670,1690,1709,1730,1750,1769,1789,1810,1829,1849,1869,1890,1909,1930,1949,1969,1989,2009,2030,2050,2070,2089,2109,2129,2150,2170,2189,2209,2229,2250,2269,2288,2310,2328,2350,2370,2389,2409,2429,2449,2469,2489,2510,2529,2550,2569,2589,2610,2629,2648,2670,2689,2710,2729,2749,2769,2788,2809,2829,2849,2869,2889,2909,2929,2950,2969,2988,3008,3029,3049,3070,3088,3110,3129,3149,3169,3189,3209,3229,3249,3270,3289,3309,3329,3350,3369,3389,3409,3429,3449,3469,3489,3509,3529],"xSR":741.5,"ySR":573.95,"xT1":424.9,"yT1":0,"xT2":1058.1,"yT2":0,"toosoon":0,"cond_shown":"Congruent","ratio_trial":200,"L_num":12,"L_den":20,"R_num":6,"R_den":15,"correct_side":1,"subjID":"dianasofiaavendañobeltran5","gender":"1","school":"6","age":"11"},{"start_time":1551899973518,"click_time":1551899976799,"finger_time":1551899976538,"fix_duration":659.1368394219713,"trial":7,"RT":3020,"MT":261,"sideResp":1,"stimulus":[],"xmouse":[770,772,774,775,775,775,775,775,775,775,775,775,775,775,775,775,775,775,775,775,775,775,775,775,775,775,775,775,775,775,775,775,775,775,775,775,775,775,775,775,775,775,775,775,775,775,775,775,775,775,775,775,775,775,775,775,775,775,775,775,775,775,775,775,775,775,775,775,775,775,775,775,775,775,775,775,775,775,775,775,775,775,775,775,775,775,775,775,775,775,775,775,775,775,775,775,775,775,775,775,775,775,775,775,775,775,775,775,775,775,775,775,775,775,775,775,775,775,775,775,775,775,775,775,775,775,775,775,775,775,775,775,775,775,775,775,775,775,775,775,775,775,775,775,775,775,775,775,775,772,766,761,754,741,735,729,719,711,698,694,691,683,662,580,494],"ymouse":[607,608,608,608,608,608,608,608,608,608,608,608,608,608,608,608,608,608,608,608,608,608,608,608,608,608,608,608,608,608,608,608,608,608,608,608,608,608,608,608,608,608,608,608,608,608,608,608,608,608,608,608,608,608,608,608,608,608,608,608,608,608,608,608,608,608,608,608,608,608,608,608,608,608,608,608,608,608,608,608,608,608,608,608,608,608,608,608,608,608,608,608,608,608,608,608,608,608,608,608,608,608,608,608,608,608,608,608,608,608,608,608,608,608,608,608,608,608,608,608,608,608,608,608,608,608,608,608,608,608,608,608,608,608,608,608,608,608,608,608,608,608,608,608,608,608,608,608,605,587,575,566,556,520,498,475,455,437,407,390,371,345,301,182,76],"timestamp_mouse":[1,20,40,61,81,100,121,140,161,181,201,220,241,261,281,299,320,341,360,380,400,420,440,461,481,500,520,540,560,580,601,620,640,661,681,701,720,741,760,781,800,820,840,860,880,901,921,940,960,980,1001,1020,1040,1059,1081,1100,1119,1141,1161,1181,1201,1220,1241,1260,1281,1300,1320,1341,1361,1381,1400,1421,1441,1460,1480,1500,1520,1539,1561,1580,1601,1619,1640,1661,1680,1701,1720,1740,1761,1780,1800,1821,1840,1860,1881,1900,1920,1941,1959,1981,2000,2020,2041,2059,2081,2101,2121,2141,2160,2181,2200,2221,2239,2260,2281,2300,2321,2339,2360,2380,2400,2420,2440,2461,2480,2501,2521,2541,2561,2580,2601,2621,2640,2660,2681,2699,2721,2741,2761,2791,2800,2820,2844,2860,2880,2899,2920,2941,2960,2981,3001,3020,3041,3060,3080,3099,3120,3139,3160,3180,3199,3220,3241,3260,3281],"xSR":741.5,"ySR":573.95,"xT1":424.9,"yT1":0,"xT2":1058.1,"yT2":0,"toosoon":0,"cond_shown":"Incongruent","ratio_trial":100,"L_num":6,"L_den":12,"R_num":3,"R_den":5,"correct_side":2,"subjID":"dianasofiaavendañobeltran5","gender":"1","school":"6","age":"11"},{"start_time":1551899980330,"click_time":1551899985799,"finger_time":1551899983718,"fix_duration":250,"trial":8,"RT":3388,"MT":2081,"sideResp":1,"stimulus":[],"xmouse":[750,750,750,750,750,750,750,750,750,750,750,750,750,750,750,750,750,750,750,750,750,750,750,750,750,750,750,750,750,750,750,750,750,750,750,750,750,750,750,750,750,750,750,750,750,750,750,750,750,750,750,750,750,750,750,750,750,750,750,750,750,750,750,750,750,750,750,750,750,750,750,750,750,750,750,750,750,750,750,750,750,750,750,750,750,750,750,750,750,750,750,750,750,750,750,750,750,750,750,750,750,750,750,750,750,750,750,750,750,750,750,750,750,750,750,750,750,750,750,750,750,750,750,750,750,750,750,750,750,750,750,750,750,750,750,750,750,750,750,750,750,750,750,750,750,750,750,750,750,750,750,750,750,750,749,750,756,762,766,768,769,771,774,776,777,780,783,787,789,793,795,798,801,806,808,811,819,833,842,850,860,872,894,909,919,924,926,927,927,927,927,927,927,927,929,931,936,947,950,953,954,954,955,955,955,955,955,947,935,921,898,865,707,507,358,236,125,27,16,13,13,12,12,12,12,12,12,24,37,59,82,105,147,159,165,169,170,173,173,174,174,175,180,192,203,213,225,254,270,285,302,316,333,335,337,337,338,341,342,345,347,352,357,358,359,360,364,377,384,389,395,403,419,438],"ymouse":[624,624,624,624,624,624,624,624,624,624,624,624,624,624,624,624,624,624,624,624,624,624,624,624,624,624,624,624,624,624,624,624,624,624,624,624,624,624,624,624,624,624,624,624,624,624,624,624,624,624,624,624,624,624,624,624,624,624,624,624,624,624,624,624,624,624,624,624,624,624,624,624,624,624,624,624,624,624,624,624,624,624,624,624,624,624,624,624,624,624,624,624,624,624,624,624,624,624,624,624,624,624,624,624,624,624,624,624,624,624,624,624,624,624,624,624,624,624,624,624,624,624,624,624,624,624,624,624,624,624,624,624,624,624,624,624,624,624,624,624,624,624,624,624,624,624,624,624,624,624,624,624,624,624,624,619,614,608,606,604,602,600,596,594,592,588,585,580,577,572,565,556,531,507,490,469,444,403,383,366,349,331,301,282,268,260,256,254,254,254,254,254,254,253,251,249,245,235,232,227,225,222,217,211,204,194,180,152,140,131,126,123,123,139,148,148,148,148,147,146,145,144,141,140,139,137,135,132,131,131,131,131,132,135,136,139,139,140,140,140,141,141,141,141,141,141,141,138,136,133,129,127,122,121,120,120,119,118,117,116,115,114,112,111,110,107,102,88,79,75,70,64,58,54],"timestamp_mouse":[8,28,49,68,87,108,128,148,168,188,208,229,248,267,288,309,329,347,369,389,409,428,449,469,488,509,529,548,568,589,609,629,649,669,688,709,728,748,769,789,808,829,848,869,889,909,929,947,969,989,1008,1029,1048,1069,1088,1108,1127,1149,1168,1188,1208,1228,1248,1269,1288,1308,1328,1347,1368,1388,1408,1428,1449,1468,1487,1508,1529,1549,1567,1589,1608,1628,1648,1669,1689,1708,1729,1749,1769,1788,1809,1828,1848,1869,1888,1908,1928,1949,1968,1988,2009,2028,2049,2068,2089,2108,2128,2148,2169,2188,2208,2228,2249,2268,2289,2308,2329,2348,2369,2389,2408,2429,2447,2468,2488,2508,2528,2549,2568,2588,2608,2627,2648,2669,2688,2708,2729,2747,2767,2789,2809,2828,2849,2868,2887,2909,2928,2948,2969,2989,3009,3028,3049,3069,3088,3108,3127,3148,3168,3189,3208,3229,3248,3269,3288,3308,3328,3348,3368,3388,3408,3429,3448,3468,3487,3508,3528,3548,3568,3588,3608,3628,3648,3669,3688,3708,3728,3748,3769,3789,3808,3828,3848,3868,3888,3907,3928,3947,3969,3989,4008,4029,4048,4068,4087,4107,4128,4148,4169,4188,4208,4228,4249,4269,4289,4308,4328,4348,4368,4388,4408,4428,4448,4468,4488,4509,4528,4548,4569,4588,4609,4628,4648,4667,4688,4708,4728,4754,4768,4788,4808,4829,4848,4868,4888,4908,4928,4948,4968,4988,5009,5029,5048,5068,5088,5108,5128,5148,5168,5188,5208,5229,5248,5269,5288,5308,5328,5348,5369,5389,5409,5427,5448,5469],"xSR":741.5,"ySR":573.95,"xT1":424.9,"yT1":0,"xT2":1058.1,"yT2":0,"toosoon":0,"cond_shown":"Congruent","ratio_trial":100,"L_num":11,"L_den":22,"R_num":6,"R_den":15,"correct_side":1,"subjID":"dianasofiaavendañobeltran5","gender":"1","school":"6","age":"11"},{"start_time":1551899990759,"click_time":1551899995599,"finger_time":1551899994878,"fix_duration":859.5033226008637,"trial":9,"RT":4119,"MT":721,"sideResp":2,"stimulus":[],"xmouse":[821,821,821,821,821,821,821,821,821,821,821,821,821,821,821,821,821,821,821,821,821,821,822,822,822,822,822,822,822,822,822,822,822,822,822,822,822,822,822,822,822,822,822,822,822,822,822,822,822,822,822,822,822,822,822,822,822,822,822,822,822,822,822,822,822,822,822,822,822,822,822,822,822,822,822,822,822,822,822,822,822,822,822,822,822,822,822,822,822,822,822,822,822,822,822,822,822,822,822,822,822,822,822,822,822,822,822,822,822,822,822,822,822,822,822,822,822,822,822,822,822,822,822,822,822,822,822,822,822,822,822,822,822,822,822,822,822,822,822,822,822,822,822,822,823,823,823,823,823,823,823,823,823,823,823,823,823,823,823,823,823,823,824,824,824,824,824,824,824,824,824,824,824,825,825,825,825,825,825,825,825,825,825,825,825,825,825,825,825,825,825,825,825,825,825,826,826,826,826,826,827,828,828,829,830,831,836,837,837,838,839,840,841,842,842,842,842,842,842,842,842,842,842,842,842,842,842,840,836,832,826,819,815,812,812,813,832,848,871,896,927,1027,1111],"ymouse":[609,609,609,609,609,609,609,609,609,609,609,609,609,609,609,609,609,609,609,609,609,609,607,607,607,606,606,606,606,606,606,606,606,606,606,606,606,606,606,605,605,604,604,604,604,604,604,604,604,604,603,603,603,603,603,603,603,603,603,603,603,603,603,603,603,603,603,603,603,603,603,603,603,603,603,603,603,603,603,603,603,603,603,603,603,603,603,603,603,603,603,603,603,603,603,603,603,603,603,603,603,603,603,603,603,603,603,603,603,603,603,603,603,602,602,601,601,601,601,601,601,601,601,601,601,601,601,601,601,601,601,601,601,601,601,601,601,601,601,601,601,601,601,601,600,600,600,600,600,600,600,600,600,600,600,599,599,599,599,599,599,599,597,597,597,597,597,597,597,596,596,596,596,595,595,595,595,595,595,595,595,595,595,595,595,595,595,595,595,595,595,595,595,595,595,594,594,593,593,593,592,591,590,588,586,583,573,571,569,565,559,543,538,530,525,521,508,502,496,491,487,477,469,466,460,455,446,439,433,425,415,394,380,362,347,328,287,260,229,195,160,70,26],"timestamp_mouse":[1,32,39,60,79,99,119,139,160,179,199,219,239,259,278,299,319,339,358,379,400,419,438,459,480,500,520,539,559,579,599,619,640,660,680,699,720,739,760,779,800,819,840,859,880,900,920,939,959,979,1000,1019,1040,1059,1079,1100,1120,1139,1160,1179,1198,1220,1240,1259,1279,1300,1319,1340,1359,1380,1400,1420,1439,1459,1479,1500,1519,1540,1558,1579,1599,1620,1639,1660,1680,1699,1719,1738,1758,1778,1799,1819,1839,1860,1880,1900,1919,1940,1960,1980,2000,2020,2040,2060,2080,2099,2120,2140,2159,2180,2199,2220,2239,2260,2279,2299,2320,2340,2359,2380,2400,2419,2439,2459,2478,2499,2519,2539,2559,2579,2600,2619,2640,2659,2680,2699,2720,2740,2759,2779,2798,2819,2840,2860,2879,2900,2920,2940,2959,2980,2999,3019,3039,3059,3079,3099,3119,3139,3159,3180,3199,3219,3239,3260,3279,3300,3319,3340,3359,3379,3400,3420,3440,3459,3480,3500,3519,3539,3560,3579,3600,3620,3640,3660,3680,3699,3720,3739,3760,3780,3800,3819,3839,3859,3880,3899,3920,3940,3959,3979,3999,4020,4040,4060,4079,4099,4119,4139,4159,4180,4199,4219,4239,4259,4280,4299,4319,4340,4359,4379,4400,4420,4440,4459,4479,4499,4519,4539,4559,4579,4600,4619,4640,4659,4679,4700,4719,4739,4760,4779,4800,4819,4839],"xSR":741.5,"ySR":573.95,"xT1":424.9,"yT1":0,"xT2":1058.1,"yT2":0,"toosoon":0,"cond_shown":"Incongruent","ratio_trial":100,"L_num":3,"L_den":6,"R_num":4,"R_den":10,"correct_side":1,"subjID":"dianasofiaavendañobeltran5","gender":"1","school":"6","age":"11"},{"start_time":1551900000162,"click_time":1551900004778,"finger_time":1551900003498,"fix_duration":823.9241922177736,"trial":10,"RT":3336,"MT":1280,"sideResp":2,"stimulus":[],"xmouse":[803,803,803,803,803,803,803,803,803,803,803,803,803,803,803,803,803,803,803,803,803,803,803,803,803,803,803,803,803,803,803,803,803,803,803,803,803,803,803,803,803,803,803,803,803,803,803,803,803,803,803,803,803,803,803,803,803,803,803,803,803,803,803,803,803,803,803,803,803,803,803,803,803,803,803,803,803,803,803,803,803,803,803,803,803,803,803,803,803,803,803,803,803,803,803,803,803,803,803,803,803,803,803,803,803,803,803,803,803,803,803,803,803,803,803,803,803,803,803,803,803,803,803,803,803,803,803,803,803,803,803,803,803,803,803,803,803,803,803,803,803,803,803,803,803,803,803,803,803,803,804,805,805,805,805,805,805,805,805,805,805,806,806,806,806,806,797,791,784,780,768,762,754,749,745,740,738,734,727,717,690,677,671,667,667,667,667,667,667,667,667,667,667,667,670,753,849,988,1154,1281,1479,1542,1542,1542,1542,1542,1542,1542,1542,1542,1565,1501,1368,1193,1019,815,801,800,802,808,812,812,813,814,816,828,848,884,939,1004,1125],"ymouse":[627,627,627,627,627,627,627,627,627,627,627,627,627,627,627,627,627,627,627,627,627,627,627,627,627,627,627,627,627,627,627,627,627,627,627,627,627,627,627,627,627,627,627,627,627,627,627,627,627,627,627,627,627,627,627,627,627,627,627,627,627,627,627,627,627,627,627,627,627,627,627,627,627,627,627,627,627,627,627,627,627,627,627,627,627,627,627,627,627,627,627,627,627,627,627,627,627,627,627,627,627,627,627,627,627,627,627,627,627,627,627,627,627,627,627,627,627,627,627,627,627,627,627,627,627,627,627,627,627,627,627,627,627,627,627,627,627,627,627,627,627,627,627,627,627,624,623,622,621,619,616,614,613,612,610,609,609,608,607,605,600,595,593,590,587,575,545,530,515,506,492,488,484,481,479,475,472,463,450,431,377,359,350,347,347,347,347,347,347,346,346,346,346,345,342,307,268,214,159,98,0,0,0,0,0,0,0,0,0,0,0,0,15,41,70,118,126,127,129,130,133,134,135,136,136,136,136,132,124,114,92],"timestamp_mouse":[17,36,61,76,96,117,137,156,176,196,217,236,256,276,296,316,336,357,377,396,416,436,456,476,496,516,536,556,577,597,616,636,655,677,696,717,736,755,777,797,817,837,856,876,896,916,936,956,977,996,1017,1036,1056,1077,1096,1117,1135,1157,1176,1197,1217,1237,1256,1277,1296,1316,1337,1357,1377,1397,1417,1436,1457,1476,1497,1516,1536,1557,1576,1597,1615,1636,1656,1677,1697,1717,1736,1757,1776,1796,1816,1836,1856,1877,1896,1917,1936,1957,1975,1996,2017,2035,2056,2077,2096,2116,2137,2157,2177,2197,2217,2237,2257,2276,2297,2317,2337,2357,2377,2397,2417,2437,2455,2477,2496,2516,2537,2557,2576,2596,2617,2637,2656,2677,2697,2715,2736,2757,2776,2797,2816,2837,2857,2877,2896,2916,2937,2957,2976,2996,3015,3035,3056,3077,3097,3116,3136,3157,3176,3197,3216,3237,3256,3276,3296,3316,3336,3356,3376,3396,3416,3436,3456,3476,3496,3516,3536,3556,3576,3596,3616,3637,3655,3676,3696,3716,3737,3756,3777,3796,3816,3837,3856,3875,3897,3916,3936,3956,3976,3996,4016,4036,4057,4076,4096,4117,4137,4157,4177,4197,4218,4237,4257,4277,4297,4316,4335,4356,4377,4396,4416,4436,4457,4476,4496,4516,4536,4556,4577,4596,4616],"xSR":741.5,"ySR":573.95,"xT1":424.9,"yT1":0,"xT2":1058.1,"yT2":0,"toosoon":0,"cond_shown":"Congruent","ratio_trial":200,"L_num":3,"L_den":10,"R_num":14,"R_den":28,"correct_side":2,"subjID":"dianasofiaavendañobeltran5","gender":"1","school":"6","age":"11"},{"start_time":1551900018522,"click_time":1551900021559,"finger_time":1551900021060,"fix_duration":1441.367790913792,"trial":11,"RT":2538,"MT":499,"sideResp":1,"stimulus":[],"xmouse":[820,820,815,814,812,811,810,810,810,810,810,810,810,810,810,810,810,810,810,810,810,810,810,810,810,810,810,810,810,810,810,810,810,810,810,810,810,810,810,810,810,810,810,810,810,810,810,810,810,810,810,810,810,810,810,810,810,810,810,810,810,810,810,810,810,810,810,810,810,810,810,810,810,810,810,810,810,810,810,810,810,810,810,810,810,810,810,810,810,810,810,810,810,810,810,810,810,810,810,810,810,810,810,810,810,810,810,810,810,810,810,810,810,810,810,810,810,810,810,810,810,810,810,808,799,783,758,725,712,701,690,678,654,624,595,567,548,532,502,490,479,469,445,430,428,426,425,425,426,427,428,430],"ymouse":[648,648,645,644,643,642,641,641,641,641,641,641,641,641,641,641,641,641,641,641,641,641,641,641,641,641,641,641,641,641,641,641,641,641,641,641,641,641,641,641,641,641,641,641,641,641,641,641,641,641,641,641,641,641,641,641,641,641,641,641,641,641,641,641,641,641,641,641,641,641,641,641,641,641,641,641,641,641,641,641,641,641,641,641,641,641,641,641,641,641,641,641,641,641,641,641,641,641,641,641,641,641,641,641,641,641,641,641,641,641,641,641,641,641,641,641,641,641,641,641,641,640,640,638,620,596,564,521,506,489,472,452,413,376,345,320,300,281,243,222,203,186,154,137,128,123,119,109,106,104,101,97],"timestamp_mouse":[27,36,56,77,97,117,136,157,177,196,218,236,256,277,297,316,337,357,376,398,416,438,457,477,496,517,537,557,578,598,618,637,657,677,697,717,738,757,777,796,818,837,856,877,897,917,936,957,976,996,1017,1037,1056,1078,1096,1116,1137,1156,1177,1196,1216,1237,1257,1277,1297,1318,1337,1357,1377,1396,1417,1437,1456,1477,1497,1516,1537,1558,1578,1598,1616,1637,1658,1677,1697,1717,1737,1756,1777,1797,1816,1838,1857,1876,1897,1916,1936,1956,1977,1998,2017,2036,2056,2077,2096,2116,2136,2157,2176,2197,2216,2236,2257,2277,2297,2317,2337,2357,2376,2396,2416,2436,2457,2477,2496,2517,2538,2557,2576,2596,2616,2636,2656,2677,2697,2717,2736,2756,2776,2796,2816,2837,2856,2876,2896,2916,2936,2957,2976,2998,3016,3037],"xSR":741.5,"ySR":573.95,"xT1":424.9,"yT1":0,"xT2":1058.1,"yT2":0,"toosoon":0,"cond_shown":"Congruent","ratio_trial":100,"L_num":4,"L_den":8,"R_num":6,"R_den":10,"correct_side":2,"subjID":"dianasofiaavendañobeltran5","gender":"1","school":"6","age":"11"},{"start_time":1551900026633,"click_time":1551900030499,"finger_time":1551900029278,"fix_duration":753.23527627635,"trial":12,"RT":2645,"MT":1221,"sideResp":2,"stimulus":[],"xmouse":[785,781,780,780,780,780,780,780,780,780,780,780,780,780,780,780,780,780,780,780,780,780,780,780,780,780,780,780,780,780,780,780,780,780,780,780,780,780,780,780,780,780,780,780,780,780,780,780,780,780,780,780,780,780,780,780,780,780,780,780,780,780,780,780,780,780,780,780,780,780,780,780,780,780,780,780,780,780,780,780,780,780,780,780,780,780,780,780,780,780,780,780,780,780,780,780,780,780,780,780,780,780,780,780,780,780,780,780,780,780,780,780,780,780,780,780,780,781,793,804,810,812,812,812,812,812,812,812,812,813,817,825,850,863,875,881,885,888,888,889,891,896,915,931,962,1002,1045,1132,1185,1204,1213,1217,1220,1222,1224,1229,1234,1248,1261,1271,1283,1301,1330,1339,1344,1347,1353,1358,1361,1361,1361,1361,1355,1350,1346,1341,1337,1331,1324,1305,1287,1270,1243,1233,1227,1220,1213,1193,1179,1176,1173,1169,1160,1157],"ymouse":[607,607,608,608,608,608,608,608,608,608,608,608,608,608,608,608,608,608,608,608,608,608,608,608,608,608,608,608,608,608,608,608,608,608,608,608,608,608,608,608,608,608,608,608,608,608,608,608,608,608,608,608,608,608,608,608,608,608,608,608,608,608,608,608,608,608,608,608,608,608,608,608,608,608,608,608,608,608,608,608,608,608,608,608,608,608,608,608,608,608,608,608,608,608,608,608,608,608,608,608,608,608,608,608,608,608,608,608,608,608,608,608,608,608,608,608,608,608,606,605,604,603,603,603,603,603,603,603,603,603,603,603,598,597,595,595,594,592,592,592,590,588,577,565,544,514,477,418,385,375,371,369,367,366,363,356,345,324,307,296,284,267,238,225,212,203,191,179,173,172,170,168,152,145,141,136,132,127,121,109,102,95,87,85,84,82,81,81,81,81,81,82,85,85],"timestamp_mouse":[5,26,46,66,85,105,126,146,167,185,205,226,246,265,285,305,325,345,365,386,405,427,446,466,486,505,525,547,567,587,606,626,646,667,687,706,726,746,766,785,805,826,845,865,885,905,927,946,966,985,1006,1025,1045,1067,1085,1105,1126,1145,1165,1185,1207,1225,1246,1266,1287,1305,1325,1346,1366,1385,1405,1427,1445,1467,1485,1506,1525,1546,1565,1585,1605,1625,1645,1665,1686,1706,1725,1745,1766,1787,1805,1826,1845,1867,1885,1906,1925,1945,1966,1986,2005,2027,2046,2066,2086,2106,2126,2146,2165,2185,2207,2227,2245,2265,2286,2305,2326,2346,2365,2385,2405,2425,2445,2466,2486,2505,2526,2547,2566,2585,2605,2626,2645,2665,2686,2705,2725,2745,2767,2785,2807,2825,2845,2866,2885,2905,2926,2946,2965,2985,3006,3026,3045,3066,3085,3105,3127,3145,3165,3186,3207,3225,3245,3265,3287,3305,3326,3346,3366,3386,3406,3425,3445,3465,3485,3505,3525,3545,3566,3586,3606,3625,3645,3665,3685,3705,3726,3746,3766,3786,3805,3825,3845,3866],"xSR":741.5,"ySR":573.95,"xT1":424.9,"yT1":0,"xT2":1058.1,"yT2":0,"toosoon":0,"cond_shown":"Congruent","ratio_trial":300,"L_num":24,"L_den":30,"R_num":2,"R_den":4,"correct_side":1,"subjID":"dianasofiaavendañobeltran5","gender":"1","school":"6","age":"11"},{"start_time":1551900036630,"click_time":1551900045139,"finger_time":1551900042778,"fix_duration":250,"trial":13,"RT":6148,"MT":2361,"sideResp":2,"stimulus":[],"xmouse":[790,790,790,790,790,790,790,790,790,790,790,790,790,790,790,790,790,790,790,790,790,790,790,790,790,790,790,790,790,790,790,790,790,790,790,790,790,790,790,790,790,790,790,790,790,790,790,790,790,790,790,790,790,790,790,790,790,790,790,790,790,790,790,790,790,790,790,790,790,790,790,790,790,790,790,790,790,790,790,790,790,790,790,790,790,790,790,790,790,790,790,790,790,790,790,790,790,790,790,790,790,790,790,790,790,790,790,790,790,790,790,790,790,790,790,790,790,790,790,790,790,790,790,790,790,790,790,790,790,790,790,790,790,790,790,790,790,790,790,790,790,790,790,790,790,790,790,790,790,790,790,790,790,790,790,790,790,790,790,790,790,790,790,790,790,790,790,790,790,790,790,790,790,790,790,790,790,790,790,790,790,790,790,790,790,790,790,790,790,790,790,790,790,790,790,790,790,790,790,790,790,790,790,790,790,790,790,790,790,790,790,790,790,790,790,790,790,790,790,790,790,790,790,790,790,790,790,790,790,790,790,790,790,790,790,790,790,790,790,790,790,790,790,790,790,790,790,790,790,790,790,790,790,790,790,790,790,790,790,790,790,790,790,790,790,790,790,790,790,790,790,790,790,790,790,790,790,790,790,790,790,790,790,790,790,790,790,790,790,790,790,790,790,790,790,790,790,790,789,782,771,763,755,751,750,749,749,744,741,739,736,730,728,725,723,722,721,710,705,698,694,693,691,690,688,683,679,674,672,666,664,663,660,659,657,654,651,642,635,623,613,604,587,585,583,582,582,581,581,581,580,579,576,575,575,575,575,575,575,577,583,588,612,625,637,644,647,647,647,647,647,647,647,652,658,664,674,703,716,800,876,1004,1030,1066,1079,1085,1086,1086,1086,1086,1086,1086,1086,1086,1086,1086,1086,1087,1087,1087,1087,1087,1087,1088,1088,1088,1088,1088,1088,1088,1088,1088,1088,1088,1088,1088,1088,1088,1088,1088,1088,1088,1088,1089,1089,1089],"ymouse":[642,642,642,642,642,642,642,642,642,642,642,642,642,642,642,642,642,642,642,642,642,642,642,642,642,642,642,642,642,642,642,642,642,642,642,642,642,642,642,642,642,642,642,642,642,642,642,642,642,642,642,642,642,642,642,642,642,642,642,642,642,642,642,642,642,642,642,642,642,642,642,642,642,642,642,642,642,642,642,642,642,642,642,642,642,642,642,642,642,642,642,642,642,642,642,642,642,642,642,642,642,642,642,642,642,642,642,642,642,642,642,642,642,642,642,642,642,642,642,642,642,642,642,642,642,642,642,642,642,642,642,642,642,642,642,642,642,642,642,642,642,642,642,642,642,642,642,642,642,642,642,642,642,642,642,642,642,642,642,642,642,642,642,642,642,642,642,642,642,642,642,642,642,642,642,642,642,642,642,642,642,642,642,642,642,642,642,642,642,642,642,642,642,642,642,642,642,642,642,642,642,642,642,642,642,642,642,642,642,642,642,642,642,642,642,642,642,642,642,642,642,642,642,642,642,642,642,642,642,642,642,642,642,642,642,642,642,642,642,642,642,642,642,642,642,642,642,642,642,642,642,642,642,642,642,642,642,642,642,642,642,642,642,642,642,642,642,642,642,642,642,642,642,642,642,642,642,642,642,642,642,642,642,642,642,642,642,642,642,642,642,642,642,642,642,642,642,642,642,629,612,601,591,586,583,582,579,569,563,558,552,541,538,534,530,528,526,514,508,504,501,500,499,496,492,487,476,463,456,441,427,412,388,375,365,353,341,319,306,286,273,266,250,247,245,243,243,242,241,240,239,237,234,234,234,234,234,234,234,235,239,244,251,254,256,257,258,258,258,258,258,258,258,256,253,248,241,209,198,145,96,17,6,0,0,0,0,0,0,0,0,0,0,0,0,0,0,0,0,0,0,0,0,0,0,0,0,0,0,0,0,0,0,0,0,0,0,0,0,0,0,0,0,0,0,1],"timestamp_mouse":[8,28,61,68,89,109,130,148,168,190,209,229,249,270,290,308,329,349,369,389,408,428,448,470,488,508,530,549,568,589,608,628,649,668,689,710,729,749,768,790,810,828,849,868,888,910,929,948,969,988,1009,1029,1050,1069,1089,1109,1128,1150,1168,1188,1210,1228,1248,1270,1288,1309,1328,1348,1368,1389,1409,1429,1448,1469,1488,1509,1530,1548,1569,1588,1608,1629,1648,1669,1690,1709,1728,1749,1768,1789,1809,1828,1848,1870,1890,1908,1928,1948,1969,1989,2008,2030,2050,2069,2089,2109,2128,2150,2168,2188,2210,2228,2250,2269,2290,2308,2329,2348,2368,2389,2409,2429,2449,2469,2488,2509,2528,2549,2568,2588,2608,2630,2648,2669,2689,2708,2729,2750,2768,2788,2808,2828,2849,2870,2888,2908,2928,2949,2969,2988,3010,3030,3049,3068,3088,3109,3128,3148,3168,3188,3208,3229,3248,3268,3288,3308,3328,3349,3368,3390,3409,3428,3449,3469,3488,3508,3528,3550,3569,3590,3608,3628,3648,3669,3688,3708,3728,3748,3769,3790,3809,3829,3848,3868,3890,3909,3928,3950,3968,3988,4008,4029,4049,4068,4088,4108,4129,4150,4168,4188,4208,4229,4248,4270,4289,4308,4328,4349,4369,4388,4408,4428,4448,4469,4488,4509,4530,4550,4568,4589,4609,4629,4648,4669,4688,4709,4730,4749,4769,4789,4809,4828,4849,4869,4888,4908,4929,4950,4969,4988,5009,5030,5048,5068,5088,5108,5128,5149,5169,5189,5208,5229,5248,5270,5289,5310,5328,5348,5368,5388,5409,5428,5449,5469,5489,5510,5529,5549,5569,5589,5609,5628,5648,5669,5690,5709,5728,5749,5770,5788,5809,5829,5848,5870,5889,5909,5929,5949,5969,5989,6009,6028,6049,6069,6088,6109,6129,6148,6168,6188,6209,6230,6248,6268,6289,6308,6328,6348,6368,6388,6408,6428,6449,6468,6488,6509,6529,6548,6568,6588,6609,6628,6650,6668,6688,6708,6729,6748,6768,6788,6808,6828,6848,6869,6888,6909,6929,6948,6968,6989,7008,7028,7048,7068,7089,7109,7129,7149,7169,7190,7208,7228,7249,7268,7289,7308,7330,7348,7368,7388,7410,7428,7449,7468,7490,7508,7528,7548,7568,7588,7609,7629,7648,7668,7688,7708,7728,7748,7769,7789,7810,7829,7849,7869,7889,7909,7929,7949,7969,7988,8009,8028,8048,8068,8088,8108,8130,8148,8169,8189,8208,8228,8250,8268,8290,8308,8328,8349,8369,8389,8408,8428,8449,8468,8488,8509],"xSR":741.5,"ySR":573.95,"xT1":424.9,"yT1":0,"xT2":1058.1,"yT2":0,"toosoon":0,"cond_shown":"Incongruent","ratio_trial":200,"L_num":14,"L_den":30,"R_num":12,"R_den":18,"correct_side":2,"subjID":"dianasofiaavendañobeltran5","gender":"1","school":"6","age":"11"},{"start_time":1551900050394,"click_time":1551900053358,"finger_time":1551900053059,"fix_duration":494.84584826404574,"trial":14,"RT":2665,"MT":299,"sideResp":1,"stimulus":[],"xmouse":[798,798,798,798,798,798,798,798,798,798,798,798,798,798,798,798,798,798,798,798,798,798,798,798,798,798,798,798,798,798,798,798,798,798,798,798,798,798,798,798,798,798,798,798,798,798,798,798,798,798,798,798,798,798,798,798,798,798,798,798,798,798,798,798,798,798,798,798,798,798,798,798,798,798,798,798,798,798,798,798,798,798,798,798,798,798,798,798,798,798,798,798,798,798,798,798,798,798,798,798,798,798,798,798,798,798,798,798,798,798,798,798,798,798,798,798,798,798,798,798,798,798,798,798,798,798,798,798,798,798,798,792,777,760,743,736,718,696,668,616,590,577,572,554,518,501,485,470,455],"ymouse":[643,643,643,643,643,643,643,643,643,643,643,643,643,643,643,643,643,643,643,643,643,643,643,643,643,643,643,643,643,643,643,643,643,643,643,643,643,643,643,643,643,643,643,643,643,643,643,643,643,643,643,643,643,643,643,643,643,643,643,643,643,643,643,643,643,643,643,643,643,643,643,643,643,643,643,643,643,643,643,643,643,643,643,643,643,643,643,643,643,643,643,643,643,643,643,643,643,643,643,643,643,643,643,643,643,643,643,643,643,643,643,643,643,643,643,643,643,643,643,643,643,643,643,643,643,643,643,643,643,643,640,618,582,541,452,402,347,291,243,151,71,25,8,0,0,0,0,0,2],"timestamp_mouse":[8,25,45,65,84,105,125,145,164,185,204,224,244,264,285,306,325,344,364,384,404,424,444,466,484,504,525,544,564,586,605,624,644,664,684,705,725,745,764,786,804,824,844,864,884,905,925,944,964,984,1005,1024,1045,1065,1084,1105,1125,1145,1164,1185,1205,1225,1245,1265,1286,1305,1325,1345,1366,1385,1405,1424,1444,1465,1485,1505,1525,1546,1565,1585,1605,1624,1645,1665,1685,1704,1724,1745,1766,1784,1805,1824,1844,1864,1886,1905,1925,1944,1966,1985,2005,2025,2044,2064,2085,2105,2125,2145,2164,2185,2206,2224,2244,2265,2286,2304,2325,2345,2366,2385,2404,2424,2445,2464,2486,2505,2525,2544,2565,2584,2605,2624,2645,2665,2685,2705,2724,2744,2766,2785,2804,2824,2844,2864,2884,2904,2925,2944,2964],"xSR":741.5,"ySR":573.95,"xT1":424.9,"yT1":0,"xT2":1058.1,"yT2":0,"toosoon":0,"cond_shown":"Congruent","ratio_trial":100,"L_num":3,"L_den":20,"R_num":4,"R_den":16,"correct_side":2,"subjID":"dianasofiaavendañobeltran5","gender":"1","school":"6","age":"11"},{"start_time":1551900062498,"click_time":1551900066539,"finger_time":1551900066058,"fix_duration":1458.1762545482527,"trial":15,"RT":3560,"MT":481,"sideResp":1,"stimulus":[],"xmouse":[786,786,786,786,786,786,786,786,786,786,786,786,786,786,786,786,786,786,786,786,786,786,786,786,786,786,786,786,786,786,786,786,786,786,786,786,786,786,786,786,786,786,786,786,786,786,786,786,786,786,786,786,786,786,786,786,786,786,786,786,786,786,786,786,786,786,786,786,786,786,786,786,786,786,786,786,786,786,786,786,786,786,786,786,786,786,786,786,786,786,786,786,786,786,786,786,786,786,786,786,786,786,786,786,786,786,786,786,786,786,786,786,786,786,786,786,786,786,786,786,786,786,786,787,787,787,787,787,787,787,787,787,787,787,787,787,787,787,787,787,787,787,787,787,787,787,787,787,787,787,788,789,789,789,789,789,789,790,790,791,791,792,793,794,796,797,797,798,799,799,800,801,802,802,805,808,809,811,812,815,815,815,815,817,827,829,829,822,806,785,777,772,765,755,735,717,703,679,650,598,569,531,490],"ymouse":[615,615,615,615,615,615,615,615,615,615,615,615,615,615,615,615,615,615,615,615,615,615,615,615,615,615,615,615,615,615,615,615,615,615,615,615,615,615,615,615,615,615,615,615,615,615,615,615,615,615,615,615,615,615,615,615,615,615,615,615,615,615,615,615,615,615,615,615,615,615,615,615,615,615,615,615,615,615,615,615,615,615,615,615,615,615,615,615,615,615,615,615,615,615,615,615,615,615,615,615,615,615,615,615,615,615,615,615,615,615,615,615,615,615,615,615,615,615,615,615,615,615,614,614,614,614,614,614,614,614,614,614,614,614,614,614,614,614,614,614,614,614,614,614,614,614,613,613,613,613,612,611,611,611,611,610,610,610,609,608,606,606,605,603,600,599,598,597,597,595,593,591,591,589,584,581,578,575,571,556,543,528,505,474,353,263,208,156,104,59,49,44,38,34,30,29,29,29,34,39,39,39,39],"timestamp_mouse":[7,28,41,61,81,101,121,140,160,181,200,221,240,261,281,301,320,340,361,381,400,420,441,460,482,501,522,541,562,581,600,620,640,661,681,701,720,740,762,781,801,820,840,862,880,900,921,941,960,981,1000,1021,1041,1060,1080,1102,1121,1141,1162,1182,1201,1220,1242,1262,1281,1301,1320,1340,1360,1380,1400,1421,1441,1460,1480,1501,1520,1542,1560,1580,1601,1622,1641,1661,1681,1701,1722,1741,1760,1780,1802,1820,1840,1861,1880,1901,1921,1940,1962,1981,2001,2020,2042,2060,2081,2101,2120,2140,2162,2181,2200,2221,2240,2261,2281,2302,2322,2340,2361,2380,2400,2421,2440,2460,2482,2501,2520,2540,2561,2580,2602,2621,2640,2661,2681,2701,2720,2740,2760,2781,2802,2820,2840,2860,2881,2900,2920,2941,2961,2980,3001,3021,3040,3061,3080,3100,3120,3141,3160,3182,3200,3221,3240,3260,3280,3301,3320,3341,3360,3380,3400,3421,3441,3460,3480,3501,3520,3540,3560,3581,3600,3620,3640,3661,3681,3700,3720,3741,3760,3780,3800,3820,3840,3860,3880,3901,3921,3940,3960,3981,4000,4020,4041],"xSR":741.5,"ySR":573.95,"xT1":424.9,"yT1":0,"xT2":1058.1,"yT2":0,"toosoon":0,"cond_shown":"Incongruent","ratio_trial":300,"L_num":4,"L_den":20,"R_num":2,"R_den":4,"correct_side":2,"subjID":"dianasofiaavendañobeltran5","gender":"1","school":"6","age":"11"},{"start_time":1551900072398,"click_time":1551900091898,"finger_time":1551900086859,"fix_duration":1139.0863238912946,"trial":16,"RT":14461,"MT":5039,"sideResp":2,"stimulus":[],"xmouse":[832,832,832,832,832,832,832,831,831,831,831,831,831,831,831,831,831,831,831,831,831,831,831,830,829,828,828,828,828,828,828,828,828,828,828,828,828,828,828,828,828,828,828,828,828,828,828,827,827,827,827,826,826,824,823,821,821,821,820,818,817,816,816,815,813,813,812,810,810,808,808,807,807,807,806,805,804,803,802,799,798,798,798,798,798,797,796,795,792,789,785,782,779,777,774,774,774,774,774,774,774,774,774,774,774,774,774,774,774,774,774,774,774,774,774,774,774,774,774,774,774,774,774,774,774,774,774,774,774,774,774,774,774,774,774,774,774,774,774,774,774,774,774,774,774,774,774,774,774,774,774,774,774,774,774,774,774,774,774,774,774,774,774,774,774,774,774,774,774,774,774,774,774,774,774,774,774,774,774,774,774,774,774,774,774,774,774,774,774,774,774,774,774,774,774,774,774,774,774,774,774,774,774,774,774,774,774,774,774,774,774,774,774,774,774,774,774,774,774,774,774,774,774,774,774,774,774,774,774,774,774,774,774,774,774,774,774,774,774,774,774,774,774,774,774,774,774,774,774,774,774,774,774,774,774,774,774,774,774,774,774,774,774,774,774,774,774,774,774,774,774,774,774,774,774,774,774,774,774,774,774,774,774,774,774,774,774,774,774,774,774,774,774,774,774,774,774,774,774,774,774,774,774,774,774,774,774,774,774,774,774,774,774,774,774,774,774,774,774,774,774,774,774,774,774,774,774,774,774,774,774,774,774,774,774,774,774,774,774,774,774,774,774,774,774,774,774,774,774,774,774,774,774,774,774,774,774,774,774,774,774,774,774,774,774,774,774,774,774,774,774,774,774,774,774,774,774,774,774,774,774,774,774,774,774,774,774,774,774,774,774,774,774,774,774,774,774,774,774,774,774,774,774,774,774,774,774,774,774,774,774,774,774,774,774,774,774,774,774,774,774,774,774,774,774,774,774,774,774,774,774,774,774,774,774,774,774,774,774,774,774,774,774,774,774,774,774,774,774,774,774,774,774,774,774,774,774,774,774,774,774,774,774,774,774,774,774,774,774,774,774,774,774,774,774,774,774,774,774,774,774,774,774,774,774,774,774,774,774,774,774,774,774,774,774,774,774,774,774,774,774,774,774,774,774,774,774,774,774,774,774,774,774,774,774,774,774,774,774,774,774,774,774,774,774,774,774,774,774,774,774,774,774,774,774,774,774,774,774,774,774,774,774,774,774,774,774,774,774,774,774,774,774,774,774,774,774,774,774,774,774,774,774,774,774,774,774,774,774,774,774,774,774,774,774,774,774,774,774,774,774,774,774,774,774,774,774,774,774,774,774,774,774,774,774,774,774,774,774,774,774,774,774,774,774,774,774,774,774,774,774,774,774,774,774,774,774,774,774,774,774,774,774,774,774,774,774,774,774,774,774,774,774,774,774,774,774,774,774,774,774,774,774,774,774,774,774,774,774,774,774,774,774,774,774,774,774,774,774,774,774,774,774,774,774,774,774,774,774,774,774,774,774,774,774,774,774,774,774,774,774,774,774,774,774,774,774,774,774,774,774,774,774,774,774,774,774,774,774,774,774,774,774,774,774,774,774,774,774,774,774,774,774,774,774,774,773,773,772,772,772,771,771,770,770,770,770,770,770,770,770,770,770,770,770,770,770,770,770,770,770,770,770,770,770,770,770,770,770,770,770,770,770,770,770,770,770,770,770,770,770,770,770,770,770,770,770,770,770,770,770,770,770,770,770,770,770,770,770,770,770,770,770,770,770,770,770,770,770,770,770,770,770,770,770,770,770,770,770,770,770,770,770,770,770,770,770,770,770,770,770,770,770,770,770,770,770,770,770,770,770,770,770,770,770,770,770,770,770,770,770,770,770,770,770,770,770,770,770,770,770,770,770,770,770,770,770,770,770,770,770,770,770,770,770,770,770,770,770,770,770,770,770,770,770,770,770,770,770,770,770,770,770,770,770,770,770,770,770,770,770,770,770,770,769,768,768,767,767,767,766,766,766,766,766,766,766,766,766,766,766,765,765,765,764,764,764,764,763,762,761,760,759,759,755,754,753,752,752,751,750,749,749,748,747,746,746,746,746,746,746,747,748,749,751,753,755,757,758,758,760,761,762,763,767,770,772,773,776,778,780,781,782,785,790,793,796,800,805,814,818,827,831,837,849,857,870,885,902,942,961,993,1011,1026,1054,1067],"ymouse":[623,623,623,623,623,623,623,623,623,623,623,623,623,623,623,623,623,623,623,623,623,623,623,623,623,623,623,623,623,623,623,623,623,623,623,623,623,623,623,623,623,623,623,623,623,623,623,623,623,623,623,623,623,622,622,621,620,620,620,619,618,617,616,616,615,614,613,612,612,611,611,610,610,610,609,609,608,608,607,605,605,605,605,605,605,605,605,603,602,600,597,593,588,586,582,582,582,582,582,582,582,582,582,582,582,582,582,582,582,582,582,582,582,582,582,582,582,582,582,582,582,582,582,582,582,582,582,582,582,582,582,582,582,582,582,582,582,582,582,582,582,582,582,582,582,582,582,582,582,582,582,582,582,582,582,582,582,582,582,582,582,582,582,582,582,582,582,582,582,582,582,582,582,582,582,582,582,582,582,582,582,582,582,582,582,582,582,582,582,582,582,582,582,582,582,582,582,582,582,582,582,582,582,582,582,582,582,582,582,582,582,582,582,582,582,582,582,582,582,582,582,582,582,582,582,582,582,582,582,582,582,582,582,582,582,582,582,582,582,582,582,582,582,582,582,582,582,582,582,582,582,582,582,582,582,582,582,582,581,580,580,580,579,579,579,579,579,579,579,579,579,579,579,579,579,579,579,579,579,579,579,579,579,579,579,579,579,579,579,579,579,579,579,579,579,579,579,579,579,579,579,579,579,579,579,579,579,579,579,579,579,579,579,579,579,579,579,579,579,579,579,579,579,579,579,579,579,579,579,579,579,579,579,579,579,579,579,579,579,579,579,579,579,579,579,579,579,579,579,579,579,579,579,579,579,579,579,579,579,579,579,579,579,579,579,579,579,579,579,579,579,579,579,579,579,579,579,579,579,579,579,579,579,579,579,579,579,579,579,579,579,579,579,579,579,579,579,579,579,579,579,579,579,579,579,579,579,579,579,579,579,579,579,579,579,579,579,579,579,579,579,579,579,579,579,579,579,579,579,579,579,579,579,579,579,579,579,579,579,579,579,579,579,579,579,579,579,579,579,579,579,579,579,579,579,579,579,579,579,579,579,579,579,579,579,579,579,579,579,579,579,579,579,579,579,579,579,579,579,579,579,579,579,579,579,579,579,579,579,579,579,579,579,579,579,579,579,579,579,579,579,579,579,579,579,579,579,579,579,579,579,579,579,579,579,579,579,579,579,579,579,579,579,579,579,579,579,579,579,579,579,579,579,579,579,579,579,579,579,579,579,579,579,579,579,579,579,579,579,579,579,579,579,579,579,579,579,579,579,579,579,579,579,579,579,579,579,579,579,579,579,579,579,579,579,579,579,579,579,579,579,579,579,579,579,579,579,579,579,579,579,579,579,579,579,579,579,579,579,579,579,579,579,579,579,579,579,579,579,579,579,579,579,579,579,579,579,579,579,579,579,579,579,579,579,579,579,579,579,579,579,579,579,579,579,579,579,579,579,579,579,579,579,579,579,579,579,579,579,579,579,579,579,579,579,579,579,579,579,579,579,579,579,579,579,579,579,579,579,579,579,579,579,579,579,579,579,579,579,579,579,579,579,579,579,579,579,579,579,579,579,579,579,579,579,579,579,579,579,579,579,579,579,579,579,579,579,579,579,579,579,579,578,578,578,577,576,576,575,575,575,574,574,573,573,573,573,573,573,573,573,573,573,573,573,573,573,573,573,573,573,573,573,573,573,573,573,573,573,573,573,573,573,573,573,573,573,573,573,573,573,573,573,573,573,573,573,573,573,573,573,573,573,573,573,573,573,573,573,573,573,573,573,573,573,573,573,573,573,573,573,573,573,573,573,573,573,573,573,573,573,573,573,573,573,573,573,573,573,573,573,573,573,573,573,573,573,573,573,573,573,573,573,573,573,573,573,573,573,573,573,573,573,573,573,573,573,573,573,573,573,573,573,573,573,573,573,573,573,573,573,573,573,573,573,573,573,573,573,573,573,573,573,573,573,573,573,573,573,573,573,573,573,573,573,573,573,573,573,573,573,573,573,573,572,569,567,566,565,563,563,563,563,563,563,562,562,560,559,556,554,551,549,548,546,545,544,544,541,537,535,529,527,521,510,506,501,497,493,488,485,477,471,467,457,452,450,447,444,439,437,433,429,427,419,415,411,407,406,403,399,398,395,393,387,383,380,378,374,372,369,367,365,362,355,351,348,341,336,326,320,310,305,297,283,272,256,238,218,171,148,112,92,73,41,25],"timestamp_mouse":[8,27,40,61,81,101,122,140,160,181,200,221,242,261,281,301,320,340,362,381,401,421,440,460,481,501,522,542,561,581,601,621,642,660,681,702,721,741,761,781,800,820,840,861,880,901,920,940,962,981,1002,1020,1040,1060,1081,1101,1120,1140,1160,1180,1201,1220,1240,1260,1280,1300,1321,1341,1362,1380,1400,1420,1440,1462,1480,1501,1520,1541,1560,1580,1601,1621,1640,1660,1681,1700,1722,1740,1762,1780,1801,1822,1841,1860,1881,1900,1922,1940,1960,1981,2001,2020,2040,2060,2081,2101,2121,2142,2160,2181,2201,2221,2240,2261,2281,2301,2321,2341,2361,2382,2401,2420,2442,2460,2480,2500,2520,2541,2561,2581,2601,2620,2640,2660,2681,2702,2721,2740,2760,2781,2800,2822,2840,2861,2881,2902,2920,2940,2961,2982,3001,3022,3041,3062,3080,3100,3121,3141,3161,3180,3201,3220,3242,3260,3281,3302,3321,3341,3362,3380,3401,3420,3441,3461,3480,3502,3522,3541,3560,3580,3601,3621,3641,3660,3682,3702,3721,3740,3760,3780,3800,3820,3842,3861,3881,3900,3921,3941,3961,3982,4001,4020,4041,4060,4081,4100,4121,4140,4161,4181,4201,4221,4241,4261,4281,4301,4321,4340,4361,4382,4401,4421,4441,4462,4481,4501,4520,4540,4561,4582,4601,4621,4642,4661,4680,4701,4722,4741,4761,4781,4801,4822,4841,4860,4881,4901,4920,4940,4961,4980,5002,5020,5041,5061,5082,5101,5120,5140,5161,5181,5201,5220,5240,5262,5281,5300,5320,5349,5362,5382,5401,5420,5441,5461,5480,5500,5521,5542,5561,5581,5600,5621,5640,5660,5680,5700,5720,5741,5760,5781,5800,5820,5840,5860,5880,5901,5922,5941,5960,5980,6002,6020,6041,6060,6082,6101,6120,6141,6161,6181,6201,6221,6239,6260,6280,6301,6321,6340,6359,6381,6401,6419,6441,6461,6480,6501,6521,6539,6561,6580,6600,6621,6640,6660,6681,6700,6720,6740,6760,6780,6801,6821,6839,6861,6880,6900,6921,6940,6961,6980,7001,7020,7039,7060,7081,7099,7121,7140,7160,7180,7201,7220,7240,7261,7281,7300,7321,7340,7361,7381,7400,7420,7441,7461,7479,7499,7521,7539,7560,7579,7600,7620,7640,7660,7681,7700,7720,7741,7760,7779,7801,7821,7840,7860,7881,7901,7920,7940,7960,7981,7999,8021,8040,8061,8081,8100,8120,8141,8161,8180,8201,8220,8241,8260,8280,8301,8319,8341,8361,8380,8401,8420,8439,8460,8481,8501,8519,8540,8561,8581,8600,8619,8640,8661,8680,8701,8721,8740,8759,8781,8799,8820,8841,8859,8881,8899,8921,8940,8959,8980,9000,9020,9040,9061,9081,9101,9121,9140,9161,9179,9201,9221,9240,9260,9280,9301,9321,9340,9360,9380,9400,9420,9441,9459,9480,9501,9519,9540,9561,9580,9601,9621,9640,9660,9680,9701,9721,9739,9759,9780,9801,9820,9840,9860,9881,9901,9919,9941,9961,9980,10000,10020,10039,10060,10081,10100,10121,10140,10159,10180,10201,10221,10240,10261,10281,10301,10320,10340,10360,10381,10400,10420,10439,10459,10481,10501,10519,10540,10559,10580,10600,10620,10640,10661,10679,10701,10720,10739,10759,10781,10801,10820,10840,10861,10880,10900,10921,10941,10961,10980,11001,11021,11041,11059,11081,11101,11119,11140,11161,11180,11201,11221,11241,11260,11280,11300,11320,11339,11359,11380,11400,11420,11441,11461,11479,11501,11520,11540,11560,11580,11601,11620,11641,11660,11680,11699,11721,11741,11761,11781,11800,11821,11840,11860,11880,11900,11921,11940,11960,11981,12001,12021,12040,12060,12080,12099,12121,12140,12160,12181,12200,12221,12241,12260,12281,12300,12320,12340,12360,12380,12400,12421,12441,12461,12480,12499,12521,12540,12561,12580,12601,12621,12640,12659,12681,12701,12720,12739,12760,12781,12800,12819,12840,12861,12880,12900,12920,12940,12960,12980,13001,13020,13039,13061,13079,13100,13120,13141,13161,13180,13201,13220,13240,13260,13281,13301,13320,13341,13359,13379,13400,13420,13440,13460,13480,13500,13520,13539,13561,13579,13599,13619,13641,13661,13679,13701,13720,13741,13761,13781,13799,13820,13841,13860,13879,13901,13919,13939,13961,13979,14000,14020,14041,14060,14080,14099,14121,14140,14161,14181,14200,14221,14241,14259,14281,14301,14319,14341,14360,14381,14399,14420,14439,14461,14481,14499,14520,14540,14560,14581,14600,14620,14641,14660,14681,14701,14720,14740,14760,14780,14800,14820,14841,14861,14880,14900,14920,14939,14961,14979,15001,15021,15041,15061,15080,15099,15120,15140,15161,15181,15200,15220,15239,15259,15280,15300,15320,15340,15359,15379,15400,15419,15440,15459,15481,15500,15519,15541,15560,15581,15600,15621,15640,15660,15680,15700,15719,15739,15760,15781,15801,15821,15840,15861,15880,15901,15921,15941,15960,15980,15999,16020,16041,16061,16079,16100,16120,16140,16160,16181,16201,16221,16241,16259,16280,16300,16320,16340,16361,16380,16400,16419,16440,16460,16481,16500,16521,16540,16561,16580,16600,16620,16640,16660,16680,16700,16720,16739,16760,16781,16800,16820,16840,16860,16881,16901,16919,16939,16961,16980,17001,17021,17040,17060,17080,17101,17121,17140,17161,17180,17199,17220,17241,17261,17281,17299,17321,17340,17361,17380,17399,17421,17441,17460,17479,17501,17520,17540,17561,17579,17600,17621,17640,17661,17680,17700,17721,17740,17761,17780,17800,17820,17840,17861,17881,17899,17920,17940,17960,17980,18000,18020,18040,18060,18080,18100,18121,18140,18161,18180,18199,18220,18241,18260,18280,18300,18321,18340,18361,18380,18400,18420,18440,18460,18480,18500,18521,18539,18560,18580,18600,18619,18640,18660,18680,18701,18720,18740,18760,18780,18801,18821,18840,18860,18880,18900,18920,18940,18961,18980,19001,19021,19040,19059,19079,19100,19121,19140,19160,19180,19200,19220,19240,19260,19279,19300,19321,19339,19360,19380,19399,19419,19441,19460,19479,19500],"xSR":741.5,"ySR":573.95,"xT1":424.9,"yT1":0,"xT2":1058.1,"yT2":0,"toosoon":0,"cond_shown":"Incongruent","ratio_trial":200,"L_num":14,"L_den":30,"R_num":12,"R_den":18,"correct_side":2,"subjID":"dianasofiaavendañobeltran5","gender":"1","school":"6","age":"11"},{"start_time":1551900097700,"click_time":1551900125759,"finger_time":1551900101238,"fix_duration":601.2325930558583,"trial":17,"RT":3538,"MT":24521,"sideResp":1,"stimulus":[],"xmouse":[830,830,830,830,830,830,830,830,830,830,830,830,830,830,830,830,830,830,830,830,830,830,830,830,830,830,830,830,830,830,830,830,830,830,830,830,830,830,830,830,830,830,830,830,830,830,830,830,830,830,830,830,830,830,830,830,830,830,830,830,830,830,830,830,830,830,830,830,830,830,830,830,830,830,830,830,830,830,830,830,830,830,830,830,830,830,830,830,830,830,830,830,830,830,830,830,830,830,830,830,830,830,830,830,830,830,830,830,830,830,830,830,830,830,830,830,830,830,830,830,830,830,830,830,830,830,830,830,830,830,830,830,830,830,830,830,830,830,830,830,830,830,830,830,830,830,830,830,830,830,830,830,830,830,830,830,830,830,830,830,830,830,830,830,830,830,830,830,830,830,830,828,828,828,830,835,848,864,881,882,882,882,882,885,886,886,886,886,886,886,886,886,886,886,886,886,886,886,886,886,886,886,886,886,886,886,886,886,886,886,886,886,886,886,886,886,886,886,886,886,886,886,886,886,886,886,886,886,886,886,886,886,886,886,886,886,886,886,886,886,886,886,886,886,886,886,886,886,886,886,886,886,886,886,886,886,886,886,886,886,886,886,886,886,886,886,886,886,886,886,886,886,886,886,886,886,886,886,886,886,886,886,886,886,886,886,886,886,886,886,886,886,886,886,886,886,886,886,886,886,886,886,886,886,886,886,886,886,886,886,886,886,886,886,886,886,886,886,886,886,885,885,885,885,884,884,884,884,884,884,884,884,884,884,884,884,884,884,884,884,884,884,884,884,884,884,884,884,884,884,884,884,884,884,884,884,884,884,884,884,884,884,884,884,884,884,884,884,884,884,884,884,884,884,884,884,884,884,884,884,884,884,884,884,884,884,884,884,884,884,884,884,884,884,884,884,884,884,884,884,884,884,884,884,884,884,884,884,884,884,884,884,884,884,884,884,884,884,884,884,884,884,884,884,884,884,884,884,884,884,884,884,884,884,884,884,884,884,884,884,884,884,884,884,884,884,884,884,884,884,884,884,884,884,884,884,884,884,884,884,884,884,884,884,884,884,884,884,884,884,884,884,884,884,884,884,884,884,884,884,884,884,884,884,884,884,884,884,884,884,884,884,884,884,884,884,884,884,884,884,884,884,884,884,884,884,884,884,884,884,884,884,884,884,884,884,884,884,884,884,884,884,884,884,884,884,884,884,884,884,884,884,884,884,884,884,884,884,884,884,884,884,884,884,884,884,884,884,884,884,884,884,884,884,884,884,884,884,884,884,884,884,884,884,884,884,884,884,884,884,884,884,884,884,884,884,884,884,884,884,884,884,884,884,884,884,884,884,884,884,884,884,884,884,884,884,884,884,884,884,884,884,884,884,884,884,884,884,884,884,884,884,884,884,884,884,884,884,884,884,884,884,884,884,884,884,884,884,884,884,884,884,884,884,884,884,884,884,884,884,884,884,884,884,884,884,884,884,884,884,884,884,884,884,884,884,884,884,884,884,884,884,884,884,884,884,884,884,884,884,884,884,884,884,884,884,884,884,884,884,884,884,884,884,884,884,884,884,884,884,884,884,884,884,884,884,884,884,884,884,884,884,884,884,884,884,884,884,884,884,884,884,884,884,884,884,884,884,884,884,884,884,884,884,884,884,884,884,884,884,884,884,884,884,884,884,884,884,884,884,884,884,884,884,884,884,884,884,884,884,884,884,884,884,884,884,884,884,884,884,884,884,884,884,884,884,884,884,884,884,884,884,884,884,884,884,884,884,884,884,884,884,884,884,884,884,884,884,884,884,884,884,884,884,884,884,884,884,884,884,884,884,884,884,884,884,884,884,884,884,884,884,884,884,884,884,884,884,884,884,884,884,884,884,884,884,884,884,884,884,884,884,884,884,884,884,884,884,884,884,884,884,884,884,884,884,884,884,884,884,884,884,884,884,884,884,884,884,884,884,884,884,884,884,884,884,884,884,884,884,884,884,884,884,884,884,884,884,884,884,884,884,884,884,884,884,884,884,884,884,884,884,884,884,884,884,884,884,884,884,884,884,884,884,884,884,884,884,884,884,884,884,884,884,884,884,884,884,884,884,884,884,884,884,884,884,884,884,884,884,884,884,884,884,884,884,884,884,884,884,884,884,884,884,884,884,884,884,884,884,884,884,884,884,884,884,884,884,884,884,884,884,884,884,884,884,884,884,884,884,884,884,884,884,884,884,884,884,884,884,884,884,884,884,884,884,884,884,884,884,884,884,884,884,884,884,884,884,884,884,884,884,884,884,884,884,884,884,884,884,884,884,884,884,884,884,884,884,884,884,884,884,884,884,884,884,884,884,884,884,884,884,884,884,884,884,884,884,884,884,884,884,884,884,884,884,884,884,884,884,884,884,884,884,884,884,884,884,884,884,884,884,884,884,884,884,884,884,884,884,884,884,884,884,884,884,884,884,884,884,884,884,884,884,884,884,884,884,884,884,884,884,884,884,884,884,884,884,884,884,884,884,884,884,884,884,884,884,884,884,884,884,884,884,884,884,884,884,884,884,884,884,884,884,884,884,884,884,884,884,884,884,884,884,884,884,884,884,884,884,884,884,884,884,884,884,884,884,884,884,884,884,884,884,884,884,884,884,884,884,884,884,884,884,884,884,884,884,884,884,884,884,884,884,884,884,884,884,884,884,884,884,884,884,884,884,884,884,884,884,884,884,884,884,884,883,882,882,882,881,881,881,881,881,881,881,881