[{"start_time":1551881589685,"click_time":1551881590565,"finger_time":1551881589694,"fix_duration":1375.6066776044597,"trial":0,"RT":9,"MT":871,"sideResp":2,"stimulus":"img/900/equaldotsize/L/1_Ratio_900_L_10_R_9.png","xmouse":[796,796,796,796,796,796,796,796,796,796,796,796,796,796,796,796,796,796,796,796,796,796,796,796,796,796,826,881,965,1059,1166,1186,1194,1194,1194,1191,1186,1184,1184,1175,1175,1175,1166,1160,1151],"ymouse":[549,549,549,549,549,549,549,549,549,549,549,549,549,549,549,549,549,549,549,549,549,549,549,549,549,549,446,337,245,168,87,68,60,60,55,44,24,11,11,0,0,0,5,8,13],"timestamp_mouse":[9,20,39,59,79,100,119,140,159,179,200,220,239,260,279,300,319,339,359,379,399,419,440,460,479,499,519,539,559,579,600,619,639,660,679,699,719,740,760,779,800,819,839,859,880],"xSR":741.5,"ySR":501.8,"xT1":424.9,"yT1":0,"xT2":1058.1,"yT2":0,"toosoon":0,"cond_shown":"equaldotsize","ratio_trial":900,"smaller_num":"9","larger_num":"10","correct_side":1,"subjID":"DianaSofiaMoraOjeda1","gender":"1","age":"11","school":"6","test":{"fix_dur":[250,1500],"timestim":300,"targets_dim":[100,100],"targets_relative_coord":[0.3,0.7],"size_stim":[880,420],"start_dim":[100,100],"size_start":[300,300],"size_fix":60,"samplingrate":20,"img_types":["equaldotsize","equaldotanddens","randomdotsizeEA"],"ratios":[250,500,750,900],"rep_conds":9,"nTrials":120,"trials_to_rest":500,"Trials_order":[117,13,96,79,25,26,93,33,58,22,19,114,27,109,41,97,87,99,42,92,75,95,45,56,30,16,105,69,59,43,48,52,38,74,15,116,21,67,72,76,3,49,28,17,85,31,80,60,39,106,51,23,9,111,119,44,115,29,113,91,6,104,50,98,1,63,73,112,66,0,68,65,32,110,86,46,61,118,18,107,94,54,12,47,64,89,8,88,37,24,20,5,101,40,90,100,2,83,55,7,14,11,108,77,4,10,35,57,34,103,36,82,62,84,81,102,71,78,70,53],"cond_shown":["equaldotsize","equaldotanddens","equaldotsize","equaldotanddens","equaldotanddens","randomdotsizeEA","equaldotsize","equaldotsize","equaldotanddens","equaldotanddens","equaldotanddens","equaldotsize","equaldotsize","equaldotanddens","randomdotsizeEA","equaldotanddens","equaldotsize","equaldotsize","equaldotsize","randomdotsizeEA","equaldotsize","randomdotsizeEA","equaldotsize","randomdotsizeEA","equaldotsize","equaldotanddens","equaldotsize","equaldotsize","randomdotsizeEA","equaldotanddens","equaldotsize","equaldotanddens","randomdotsizeEA","randomdotsizeEA","equaldotsize","randomdotsizeEA","equaldotsize","equaldotanddens","equaldotsize","equaldotanddens","equaldotsize","equaldotanddens","equaldotanddens","randomdotsizeEA","equaldotanddens","equaldotanddens","randomdotsizeEA","equaldotsize","equaldotsize","equaldotanddens","equaldotsize","randomdotsizeEA","equaldotsize","equaldotsize","randomdotsizeEA","randomdotsizeEA","equaldotanddens","randomdotsizeEA","randomdotsizeEA","equaldotanddens","equaldotsize","randomdotsizeEA","randomdotsizeEA","randomdotsizeEA","equaldotanddens","equaldotsize","equaldotanddens","equaldotanddens","equaldotsize","equaldotsize","randomdotsizeEA","randomdotsizeEA","randomdotsizeEA","randomdotsizeEA","randomdotsizeEA","equaldotanddens","equaldotanddens","equaldotanddens","equaldotsize","randomdotsizeEA","equaldotanddens","equaldotsize","equaldotsize","randomdotsizeEA","equaldotanddens","randomdotsizeEA","randomdotsizeEA","equaldotanddens","equaldotanddens","equaldotsize","randomdotsizeEA","randomdotsizeEA","randomdotsizeEA","equaldotanddens","equaldotsize","equaldotanddens","randomdotsizeEA","randomdotsizeEA","equaldotanddens","equaldotanddens","randomdotsizeEA","randomdotsizeEA","equaldotsize","randomdotsizeEA","equaldotanddens","equaldotanddens","randomdotsizeEA","equaldotsize","equaldotanddens","equaldotanddens","equaldotsize","equaldotanddens","randomdotsizeEA","equaldotsize","equaldotsize","equaldotsize","randomdotsizeEA","equaldotsize","equaldotanddens","randomdotsizeEA"],"ratio_trial":[900,250,250,750,250,250,900,900,900,900,750,750,500,250,500,250,500,500,750,750,500,900,900,750,750,500,900,900,900,750,250,500,250,250,500,750,900,750,250,500,500,250,500,500,250,750,750,250,500,900,500,900,900,500,900,750,750,500,500,750,750,750,250,250,250,500,250,500,750,250,750,500,750,250,250,900,250,900,750,900,900,750,250,900,500,500,750,500,250,250,750,500,500,500,750,500,250,900,750,750,250,900,250,500,500,900,900,900,900,750,250,900,250,250,900,750,900,750,900,500],"smaller_num":["9","3","2","15","2","5","9","18","18","9","3","6","2","5","5","6","2","1","15","3","2","18","18","3","3","9","18","18","9","9","4","2","3","2","3","12","9","3","3","6","1","1","2","2","3","3","6","4","5","9","9","18","9","2","9","9","6","10","1","6","12","3","3","1","2","2","2","9","18","2","6","5","3","2","2","9","3","18","9","18","18","3","2","18","2","5","15","1","4","5","15","3","4","1","15","4","2","9","12","6","3","9","4","6","2","18","18","18","18","3","2","9","6","2","9","15","9","6","9","4"],"larger_num":["10","12","8","20","8","20","10","20","20","10","4","8","4","20","10","24","4","2","20","4","4","20","20","4","4","18","20","20","10","12","16","4","12","8","6","16","10","4","12","12","2","4","4","4","12","4","8","16","10","10","18","20","10","4","10","12","8","20","2","8","16","4","12","4","8","4","8","18","24","8","8","10","4","8","8","10","12","20","12","20","20","4","8","20","4","10","20","2","16","20","20","6","8","2","20","8","8","10","16","8","12","10","16","12","4","20","20","20","20","4","8","10","24","8","10","20","10","8","10","8"],"correct_side":[1,2,1,2,1,2,2,1,2,1,1,2,2,2,2,2,2,2,2,1,2,2,2,1,2,2,1,1,2,2,1,1,2,1,2,2,2,1,1,1,2,2,1,1,1,1,1,1,1,1,1,1,2,1,2,2,2,2,2,2,2,1,1,2,2,1,2,2,1,2,1,2,2,1,1,2,1,1,2,2,1,1,1,1,1,1,2,2,2,2,2,2,1,2,1,1,1,2,2,1,2,2,2,1,1,1,1,2,2,1,1,2,1,1,2,1,1,1,2,1],"img_shown":["img/900/equaldotsize/L/1_Ratio_900_L_10_R_9.png","img/250/equaldotanddens/R/11_Ratio_250_L_3_R_12.png","img/250/equaldotsize/L/7_Ratio_250_L_8_R_2.png","img/750/equaldotanddens/R/5_Ratio_750_L_15_R_20.png","img/250/equaldotanddens/L/1_Ratio_250_L_8_R_2.png","img/250/randomdotsizeEA/R/12_Ratio_250_L_5_R_20.png","img/900/equaldotsize/R/15_Ratio_900_L_9_R_10.png","img/900/equaldotsize/L/8_Ratio_900_L_20_R_18.png","img/900/equaldotanddens/R/9_Ratio_900_L_18_R_20.png","img/900/equaldotanddens/L/1_Ratio_900_L_10_R_9.png","img/750/equaldotanddens/L/10_Ratio_750_L_4_R_3.png","img/750/equaldotsize/R/2_Ratio_750_L_6_R_8.png","img/500/equaldotsize/R/9_Ratio_500_L_2_R_4.png","img/250/equaldotanddens/R/12_Ratio_250_L_5_R_20.png","img/500/randomdotsizeEA/R/14_Ratio_500_L_5_R_10.png","img/250/equaldotanddens/R/6_Ratio_250_L_6_R_24.png","img/500/equaldotsize/R/9_Ratio_500_L_2_R_4.png","img/500/equaldotsize/R/15_Ratio_500_L_1_R_2.png","img/750/equaldotsize/R/4_Ratio_750_L_15_R_20.png","img/750/randomdotsizeEA/L/9_Ratio_750_L_4_R_3.png","img/500/equaldotsize/R/9_Ratio_500_L_2_R_4.png","img/900/randomdotsizeEA/R/9_Ratio_900_L_18_R_20.png","img/900/equaldotsize/R/9_Ratio_900_L_18_R_20.png","img/750/randomdotsizeEA/L/8_Ratio_750_L_4_R_3.png","img/750/equaldotsize/R/7_Ratio_750_L_3_R_4.png","img/500/equaldotanddens/R/6_Ratio_500_L_9_R_18.png","img/900/equaldotsize/L/8_Ratio_900_L_20_R_18.png","img/900/equaldotsize/L/2_Ratio_900_L_20_R_18.png","img/900/randomdotsizeEA/R/5_Ratio_900_L_9_R_10.png","img/750/equaldotanddens/R/15_Ratio_750_L_9_R_12.png","img/250/equaldotsize/L/2_Ratio_250_L_16_R_4.png","img/500/equaldotanddens/L/10_Ratio_500_L_4_R_2.png","img/250/randomdotsizeEA/R/4_Ratio_250_L_3_R_12.png","img/250/randomdotsizeEA/L/1_Ratio_250_L_8_R_2.png","img/500/equaldotsize/R/2_Ratio_500_L_3_R_6.png","img/750/randomdotsizeEA/R/11_Ratio_750_L_12_R_16.png","img/900/equaldotsize/R/7_Ratio_900_L_9_R_10.png","img/750/equaldotanddens/L/10_Ratio_750_L_4_R_3.png","img/250/equaldotsize/L/15_Ratio_250_L_12_R_3.png","img/500/equaldotanddens/L/11_Ratio_500_L_12_R_6.png","img/500/equaldotsize/R/15_Ratio_500_L_1_R_2.png","img/250/equaldotanddens/R/8_Ratio_250_L_1_R_4.png","img/500/equaldotanddens/L/10_Ratio_500_L_4_R_2.png","img/500/randomdotsizeEA/L/10_Ratio_500_L_4_R_2.png","img/250/equaldotanddens/L/14_Ratio_250_L_12_R_3.png","img/750/equaldotanddens/L/10_Ratio_750_L_4_R_3.png","img/750/randomdotsizeEA/L/14_Ratio_750_L_8_R_6.png","img/250/equaldotsize/L/2_Ratio_250_L_16_R_4.png","img/500/equaldotsize/L/7_Ratio_500_L_10_R_5.png","img/900/equaldotanddens/L/1_Ratio_900_L_10_R_9.png","img/500/equaldotsize/L/4_Ratio_500_L_18_R_9.png","img/900/randomdotsizeEA/L/4_Ratio_900_L_20_R_18.png","img/900/equaldotsize/R/7_Ratio_900_L_9_R_10.png","img/500/equaldotsize/L/10_Ratio_500_L_4_R_2.png","img/900/randomdotsizeEA/R/15_Ratio_900_L_9_R_10.png","img/750/randomdotsizeEA/R/15_Ratio_750_L_9_R_12.png","img/750/equaldotanddens/R/2_Ratio_750_L_6_R_8.png","img/500/randomdotsizeEA/R/3_Ratio_500_L_10_R_20.png","img/500/randomdotsizeEA/R/12_Ratio_500_L_1_R_2.png","img/750/equaldotanddens/R/2_Ratio_750_L_6_R_8.png","img/750/equaldotsize/R/11_Ratio_750_L_12_R_16.png","img/750/randomdotsizeEA/L/10_Ratio_750_L_4_R_3.png","img/250/randomdotsizeEA/L/14_Ratio_250_L_12_R_3.png","img/250/randomdotsizeEA/R/8_Ratio_250_L_1_R_4.png","img/250/equaldotanddens/R/13_Ratio_250_L_2_R_8.png","img/500/equaldotsize/L/5_Ratio_500_L_4_R_2.png","img/250/equaldotanddens/R/13_Ratio_250_L_2_R_8.png","img/500/equaldotanddens/R/6_Ratio_500_L_9_R_18.png","img/750/equaldotsize/L/6_Ratio_750_L_24_R_18.png","img/250/equaldotsize/R/13_Ratio_250_L_2_R_8.png","img/750/randomdotsizeEA/L/14_Ratio_750_L_8_R_6.png","img/500/randomdotsizeEA/R/14_Ratio_500_L_5_R_10.png","img/750/randomdotsizeEA/R/7_Ratio_750_L_3_R_4.png","img/250/randomdotsizeEA/L/3_Ratio_250_L_8_R_2.png","img/250/randomdotsizeEA/L/7_Ratio_250_L_8_R_2.png","img/900/equaldotanddens/R/15_Ratio_900_L_9_R_10.png","img/250/equaldotanddens/L/14_Ratio_250_L_12_R_3.png","img/900/equaldotanddens/L/2_Ratio_900_L_20_R_18.png","img/750/equaldotsize/R/15_Ratio_750_L_9_R_12.png","img/900/randomdotsizeEA/R/12_Ratio_900_L_18_R_20.png","img/900/equaldotanddens/L/10_Ratio_900_L_20_R_18.png","img/750/equaldotsize/L/10_Ratio_750_L_4_R_3.png","img/250/equaldotsize/L/3_Ratio_250_L_8_R_2.png","img/900/randomdotsizeEA/L/4_Ratio_900_L_20_R_18.png","img/500/equaldotanddens/L/10_Ratio_500_L_4_R_2.png","img/500/randomdotsizeEA/L/7_Ratio_500_L_10_R_5.png","img/750/randomdotsizeEA/R/3_Ratio_750_L_15_R_20.png","img/500/equaldotanddens/R/12_Ratio_500_L_1_R_2.png","img/250/equaldotanddens/R/10_Ratio_250_L_4_R_16.png","img/250/equaldotsize/R/12_Ratio_250_L_5_R_20.png","img/750/randomdotsizeEA/R/5_Ratio_750_L_15_R_20.png","img/500/randomdotsizeEA/R/2_Ratio_500_L_3_R_6.png","img/500/randomdotsizeEA/L/8_Ratio_500_L_8_R_4.png","img/500/equaldotanddens/R/12_Ratio_500_L_1_R_2.png","img/750/equaldotsize/L/1_Ratio_750_L_20_R_15.png","img/500/equaldotanddens/L/8_Ratio_500_L_8_R_4.png","img/250/randomdotsizeEA/L/7_Ratio_250_L_8_R_2.png","img/900/randomdotsizeEA/R/6_Ratio_900_L_9_R_10.png","img/750/equaldotanddens/R/11_Ratio_750_L_12_R_16.png","img/750/equaldotanddens/L/13_Ratio_750_L_8_R_6.png","img/250/randomdotsizeEA/R/9_Ratio_250_L_3_R_12.png","img/900/randomdotsizeEA/R/6_Ratio_900_L_9_R_10.png","img/250/equaldotsize/R/10_Ratio_250_L_4_R_16.png","img/500/randomdotsizeEA/L/13_Ratio_500_L_12_R_6.png","img/500/equaldotanddens/L/5_Ratio_500_L_4_R_2.png","img/900/equaldotanddens/L/4_Ratio_900_L_20_R_18.png","img/900/randomdotsizeEA/L/8_Ratio_900_L_20_R_18.png","img/900/equaldotsize/R/11_Ratio_900_L_18_R_20.png","img/900/equaldotanddens/R/14_Ratio_900_L_18_R_20.png","img/750/equaldotanddens/L/8_Ratio_750_L_4_R_3.png","img/250/equaldotsize/L/3_Ratio_250_L_8_R_2.png","img/900/equaldotanddens/R/3_Ratio_900_L_9_R_10.png","img/250/randomdotsizeEA/L/5_Ratio_250_L_24_R_6.png","img/250/equaldotsize/L/3_Ratio_250_L_8_R_2.png","img/900/equaldotsize/R/7_Ratio_900_L_9_R_10.png","img/750/equaldotsize/L/1_Ratio_750_L_20_R_15.png","img/900/randomdotsizeEA/L/1_Ratio_900_L_10_R_9.png","img/750/equaldotsize/L/14_Ratio_750_L_8_R_6.png","img/900/equaldotanddens/R/7_Ratio_900_L_9_R_10.png","img/500/randomdotsizeEA/L/8_Ratio_500_L_8_R_4.png"],"Rat0":[["12_Ratio_0_L_9_R_0.png","13_Ratio_0_L_6_R_0.png","5_Ratio_0_L_2_R_0.png","6_Ratio_0_L_4_R_0.png","8_Ratio_0_L_6_R_0.png"],["1_Ratio_0_L_0_R_17.png","10_Ratio_0_L_0_R_22.png","11_Ratio_0_L_0_R_1.png","14_Ratio_0_L_0_R_24.png","15_Ratio_0_L_0_R_4.png","2_Ratio_0_L_0_R_5.png","3_Ratio_0_L_0_R_17.png","4_Ratio_0_L_0_R_7.png","7_Ratio_0_L_0_R_19.png","9_Ratio_0_L_0_R_15.png"]],"Rat250":[["1_Ratio_250_L_8_R_2.png","14_Ratio_250_L_12_R_3.png","15_Ratio_250_L_12_R_3.png","2_Ratio_250_L_16_R_4.png","3_Ratio_250_L_8_R_2.png","5_Ratio_250_L_24_R_6.png","7_Ratio_250_L_8_R_2.png"],["10_Ratio_250_L_4_R_16.png","11_Ratio_250_L_3_R_12.png","12_Ratio_250_L_5_R_20.png","13_Ratio_250_L_2_R_8.png","4_Ratio_250_L_3_R_12.png","6_Ratio_250_L_6_R_24.png","8_Ratio_250_L_1_R_4.png","9_Ratio_250_L_3_R_12.png"]],"Rat500":[["10_Ratio_500_L_4_R_2.png","11_Ratio_500_L_12_R_6.png","13_Ratio_500_L_12_R_6.png","4_Ratio_500_L_18_R_9.png","5_Ratio_500_L_4_R_2.png","7_Ratio_500_L_10_R_5.png","8_Ratio_500_L_8_R_4.png"],["1_Ratio_500_L_9_R_18.png","12_Ratio_500_L_1_R_2.png","14_Ratio_500_L_5_R_10.png","15_Ratio_500_L_1_R_2.png","2_Ratio_500_L_3_R_6.png","3_Ratio_500_L_10_R_20.png","6_Ratio_500_L_9_R_18.png","9_Ratio_500_L_2_R_4.png"]],"Rat750":[["1_Ratio_750_L_20_R_15.png","10_Ratio_750_L_4_R_3.png","13_Ratio_750_L_8_R_6.png","14_Ratio_750_L_8_R_6.png","6_Ratio_750_L_24_R_18.png","8_Ratio_750_L_4_R_3.png","9_Ratio_750_L_4_R_3.png"],["11_Ratio_750_L_12_R_16.png","12_Ratio_750_L_3_R_4.png","15_Ratio_750_L_9_R_12.png","2_Ratio_750_L_6_R_8.png","3_Ratio_750_L_15_R_20.png","4_Ratio_750_L_15_R_20.png","5_Ratio_750_L_15_R_20.png","7_Ratio_750_L_3_R_4.png"]],"Rat900":[["1_Ratio_900_L_10_R_9.png","10_Ratio_900_L_20_R_18.png","2_Ratio_900_L_20_R_18.png","4_Ratio_900_L_20_R_18.png","8_Ratio_900_L_20_R_18.png"],["11_Ratio_900_L_18_R_20.png","12_Ratio_900_L_18_R_20.png","13_Ratio_900_L_18_R_20.png","14_Ratio_900_L_18_R_20.png","15_Ratio_900_L_9_R_10.png","3_Ratio_900_L_9_R_10.png","5_Ratio_900_L_9_R_10.png","6_Ratio_900_L_9_R_10.png","7_Ratio_900_L_9_R_10.png","9_Ratio_900_L_18_R_20.png"]],"Rat1000":[["10_Ratio_1000_L_16_R_16.png","11_Ratio_1000_L_6_R_6.png","12_Ratio_1000_L_14_R_14.png","13_Ratio_1000_L_20_R_20.png","15_Ratio_1000_L_15_R_15.png","2_Ratio_1000_L_17_R_17.png","4_Ratio_1000_L_9_R_9.png","5_Ratio_1000_L_6_R_6.png","6_Ratio_1000_L_19_R_19.png","8_Ratio_1000_L_14_R_14.png","9_Ratio_1000_L_25_R_25.png"],["1_Ratio_1000_L_1_R_1.png","14_Ratio_1000_L_17_R_17.png","3_Ratio_1000_L_17_R_17.png","7_Ratio_1000_L_6_R_6.png"]]}},{"start_time":1551881592764,"click_time":1551881594806,"finger_time":1551881594225,"fix_duration":1479.4374572900585,"trial":1,"RT":1461,"MT":581,"sideResp":2,"stimulus":"img/250/equaldotanddens/R/11_Ratio_250_L_3_R_12.png","xmouse":[809,809,809,809,809,809,809,809,809,809,809,809,809,809,809,809,809,809,809,809,809,809,809,809,809,809,809,809,809,809,809,809,809,809,809,809,809,809,809,809,809,809,809,809,809,809,809,809,809,809,809,809,809,809,809,809,809,809,809,809,809,809,809,809,809,809,809,809,808,808,808,817,840,876,935,1061,1193,1229,1246,1256,1260,1261,1261,1261,1261,1261,1261,1240,1213,1189,1177,1171,1171,1171,1171,1171,1170,1168,1168,1167,1159,1134],"ymouse":[597,597,597,597,597,597,597,597,597,597,597,597,597,597,597,597,597,597,597,597,597,597,597,597,597,597,597,597,597,597,597,597,597,597,597,597,597,597,597,597,597,597,597,597,597,597,597,597,597,597,597,597,597,597,597,597,597,597,597,597,597,597,597,597,597,597,597,597,596,595,594,577,544,481,391,230,23,0,0,0,0,0,0,0,0,0,0,12,28,38,42,43,43,43,43,43,43,44,44,44,44,49],"timestamp_mouse":[9,21,40,83,100,119,140,160,181,201,220,240,260,281,300,320,340,361,380,400,420,440,461,480,501,520,541,561,580,600,620,641,661,681,701,719,741,759,780,800,821,840,860,880,901,920,940,961,980,1000,1020,1040,1061,1081,1100,1120,1141,1160,1180,1201,1219,1241,1260,1281,1300,1321,1340,1360,1380,1401,1420,1440,1461,1480,1499,1520,1539,1560,1580,1601,1620,1641,1660,1680,1700,1720,1740,1761,1780,1800,1820,1841,1861,1881,1899,1920,1940,1961,1981,2001,2021,2042],"xSR":741.5,"ySR":573.95,"xT1":424.9,"yT1":0,"xT2":1058.1,"yT2":0,"toosoon":0,"cond_shown":"equaldotanddens","ratio_trial":250,"smaller_num":"3","larger_num":"12","correct_side":2,"subjID":"DianaSofiaMoraOjeda1","gender":"1","age":"11","school":"6"},{"start_time":1551881596904,"click_time":1551881597925,"finger_time":1551881597625,"fix_duration":1358.4378259975697,"trial":2,"RT":721,"MT":300,"sideResp":1,"stimulus":"img/250/equaldotsize/L/7_Ratio_250_L_8_R_2.png","xmouse":[785,785,785,785,785,785,785,785,785,785,785,785,785,785,785,785,785,785,785,785,785,785,785,785,785,785,785,785,785,785,785,785,785,785,785,785,790,790,767,736,691,675,656,638,625,594,574,555,544,536,527,496],"ymouse":[597,597,597,597,597,597,597,597,597,597,597,597,597,597,597,597,597,597,597,597,597,597,597,597,597,597,597,597,597,597,597,597,597,597,597,594,538,457,345,285,227,212,195,180,168,146,129,114,103,90,72,34],"timestamp_mouse":[8,21,41,60,81,101,120,140,161,181,201,220,241,260,280,300,320,340,361,380,400,421,440,461,481,500,521,541,560,580,601,621,640,660,680,700,721,740,761,780,800,820,840,860,879,900,920,940,960,980,999,1020],"xSR":741.5,"ySR":573.95,"xT1":424.9,"yT1":0,"xT2":1058.1,"yT2":0,"toosoon":0,"cond_shown":"equaldotsize","ratio_trial":250,"smaller_num":"2","larger_num":"8","correct_side":1,"subjID":"DianaSofiaMoraOjeda1","gender":"1","age":"11","school":"6"},{"start_time":1551881600498,"click_time":1551881601504,"finger_time":1551881601145,"fix_duration":312.66034041231626,"trial":3,"RT":647,"MT":359,"sideResp":2,"stimulus":"img/750/equaldotanddens/R/5_Ratio_750_L_15_R_20.png","xmouse":[821,821,821,821,821,821,821,821,821,821,821,821,821,821,821,821,821,821,821,821,821,821,821,821,821,821,821,821,821,821,823,835,848,880,904,920,929,933,941,950,968,984,1000,1009,1012,1012,1015,1022,1030,1047,1064],"ymouse":[648,648,648,648,648,648,648,648,648,648,648,648,648,648,648,648,648,648,648,648,648,648,648,648,648,648,648,648,648,648,641,627,601,513,408,250,202,178,160,140,116,105,97,92,91,91,90,89,87,82,76],"timestamp_mouse":[11,26,47,72,87,107,126,146,166,185,207,226,246,266,286,307,326,345,366,386,406,426,446,467,486,506,526,546,566,587,605,626,647,667,687,706,726,746,766,787,805,827,847,866,886,906,926,946,967,986,1006],"xSR":741.5,"ySR":573.95,"xT1":424.9,"yT1":0,"xT2":1058.1,"yT2":0,"toosoon":0,"cond_shown":"equaldotanddens","ratio_trial":750,"smaller_num":"15","larger_num":"20","correct_side":2,"subjID":"DianaSofiaMoraOjeda1","gender":"1","age":"11","school":"6"},{"start_time":1551881602802,"click_time":1551881603884,"finger_time":1551881603585,"fix_duration":636.443642239996,"trial":4,"RT":783,"MT":299,"sideResp":1,"stimulus":"img/250/equaldotanddens/L/1_Ratio_250_L_8_R_2.png","xmouse":[803,803,803,803,803,803,803,803,803,803,803,803,803,803,803,803,803,803,803,803,803,803,803,803,803,803,803,803,803,803,803,803,803,803,803,803,803,803,787,767,586,490,412,357,335,340,346,351,353,354,364,380,399,422,432],"ymouse":[597,597,597,597,597,597,597,597,597,597,597,597,597,597,597,597,597,597,597,597,597,597,597,597,597,597,597,597,597,597,597,597,597,597,597,597,597,597,584,547,333,220,121,50,6,0,0,0,0,0,0,4,15,35,45],"timestamp_mouse":[9,23,42,66,81,102,122,142,163,182,202,223,241,263,282,301,323,342,362,383,402,423,443,462,482,503,523,542,562,582,602,623,643,662,683,703,722,741,762,783,802,821,843,863,882,902,922,943,963,983,1003,1023,1042,1062,1082],"xSR":741.5,"ySR":573.95,"xT1":424.9,"yT1":0,"xT2":1058.1,"yT2":0,"toosoon":0,"cond_shown":"equaldotanddens","ratio_trial":250,"smaller_num":"2","larger_num":"8","correct_side":1,"subjID":"DianaSofiaMoraOjeda1","gender":"1","age":"11","school":"6"},{"start_time":1551881606358,"click_time":1551881607604,"finger_time":1551881607224,"fix_duration":1472.8246871048184,"trial":5,"RT":866,"MT":380,"sideResp":2,"stimulus":"img/250/randomdotsizeEA/R/12_Ratio_250_L_5_R_20.png","xmouse":[800,800,800,800,800,800,800,800,800,800,800,800,800,800,800,800,800,800,800,800,800,800,800,800,800,800,800,800,800,800,800,800,800,800,800,800,800,800,800,800,800,801,818,845,869,894,920,936,941,947,952,959,987,995,1003,1012,1019,1032,1046,1058,1068,1072,1076],"ymouse":[615,615,615,615,615,615,615,615,615,615,615,615,615,615,615,615,615,615,615,615,615,615,615,615,615,615,615,615,615,615,615,615,615,615,615,615,615,615,615,615,615,616,600,569,540,502,448,371,333,300,271,247,181,156,140,129,122,117,114,110,106,103,99],"timestamp_mouse":[11,38,45,66,86,107,127,146,166,186,206,225,247,266,286,306,326,346,366,386,405,426,447,467,487,506,526,546,566,586,606,627,646,666,685,706,727,747,766,786,806,826,847,866,887,907,926,946,967,985,1007,1025,1046,1066,1087,1106,1127,1146,1166,1186,1206,1227,1246],"xSR":741.5,"ySR":573.95,"xT1":424.9,"yT1":0,"xT2":1058.1,"yT2":0,"toosoon":0,"cond_shown":"randomdotsizeEA","ratio_trial":250,"smaller_num":"5","larger_num":"20","correct_side":2,"subjID":"DianaSofiaMoraOjeda1","gender":"1","age":"11","school":"6"},{"start_time":1551881608836,"click_time":1551881610284,"finger_time":1551881609764,"fix_duration":250.0898373021725,"trial":6,"RT":928,"MT":520,"sideResp":1,"stimulus":"img/900/equaldotsize/R/15_Ratio_900_L_9_R_10.png","xmouse":[780,780,780,780,780,780,780,780,780,780,780,780,780,780,780,780,780,780,780,780,780,780,780,780,780,780,780,780,780,780,780,780,780,780,780,780,780,780,780,780,780,780,780,779,774,766,745,712,645,631,622,616,610,599,590,582,576,575,574,568,563,557,556,555,550,541,534,530,528,527,527,527,523],"ymouse":[615,615,615,615,615,615,615,615,615,615,615,615,615,615,615,615,615,615,615,615,615,615,615,615,615,615,615,615,615,615,615,615,615,615,615,615,615,615,615,615,615,615,615,616,603,577,526,448,309,272,237,206,156,105,86,72,66,66,66,66,68,70,71,72,73,78,79,80,81,81,81,81,81],"timestamp_mouse":[9,29,48,69,88,108,128,148,168,189,209,227,248,268,288,307,328,348,368,388,408,429,449,468,488,508,529,549,569,589,609,629,649,668,688,707,729,747,769,788,809,828,849,867,888,908,928,949,968,988,1008,1029,1048,1068,1088,1108,1128,1148,1168,1188,1208,1229,1248,1268,1288,1309,1329,1349,1368,1389,1408,1428,1448],"xSR":741.5,"ySR":573.95,"xT1":424.9,"yT1":0,"xT2":1058.1,"yT2":0,"toosoon":0,"cond_shown":"equaldotsize","ratio_trial":900,"smaller_num":"9","larger_num":"10","correct_side":2,"subjID":"DianaSofiaMoraOjeda1","gender":"1","age":"11","school":"6"},{"start_time":1551881611574,"click_time":1551881613224,"finger_time":1551881612965,"fix_duration":328.84113438838824,"trial":7,"RT":1391,"MT":259,"sideResp":1,"stimulus":"img/900/equaldotsize/L/8_Ratio_900_L_20_R_18.png","xmouse":[794,794,794,794,794,794,794,794,794,794,794,794,794,794,794,794,794,794,794,794,794,794,794,794,794,794,794,794,794,794,794,794,794,794,794,794,794,794,794,794,794,794,794,794,794,794,794,794,794,794,794,794,794,794,794,794,794,794,794,794,794,794,794,794,794,794,794,794,794,790,771,710,689,668,652,629,583,565,549,536,528,525,524],"ymouse":[643,643,643,643,643,643,643,643,643,643,643,643,643,643,643,643,643,643,643,643,643,643,643,643,643,643,643,643,643,643,643,643,643,643,643,643,643,643,643,643,643,643,643,643,643,643,643,643,643,643,643,643,643,643,643,643,643,643,643,643,643,643,643,643,643,643,643,643,593,554,460,320,272,237,208,175,114,94,76,66,57,43,32],"timestamp_mouse":[11,41,51,70,90,111,130,150,171,189,211,230,251,271,291,311,331,350,369,391,411,430,451,471,490,511,530,550,571,590,609,631,651,670,691,710,730,751,770,790,810,830,850,870,890,911,929,951,969,991,1010,1030,1050,1070,1091,1110,1129,1150,1169,1191,1210,1231,1251,1270,1291,1310,1330,1350,1369,1391,1411,1430,1450,1470,1490,1510,1530,1550,1571,1591,1610,1630,1650],"xSR":741.5,"ySR":573.95,"xT1":424.9,"yT1":0,"xT2":1058.1,"yT2":0,"toosoon":0,"cond_shown":"equaldotsize","ratio_trial":900,"smaller_num":"18","larger_num":"20","correct_side":1,"subjID":"DianaSofiaMoraOjeda1","gender":"1","age":"11","school":"6"},{"start_time":1551881614456,"click_time":1551881615444,"finger_time":1551881615245,"fix_duration":250,"trial":8,"RT":789,"MT":199,"sideResp":2,"stimulus":"img/900/equaldotanddens/R/9_Ratio_900_L_18_R_20.png","xmouse":[794,794,794,794,794,794,794,794,794,794,794,794,794,794,794,794,794,794,794,794,794,794,794,794,794,794,794,794,794,794,794,794,794,794,794,794,794,795,824,901,962,1013,1041,1044,1047,1048,1049,1059,1064,1067],"ymouse":[610,610,610,610,610,610,610,610,610,610,610,610,610,610,610,610,610,610,610,610,610,610,610,610,610,610,610,610,610,610,610,610,610,610,610,610,610,609,585,507,421,313,241,219,203,191,178,138,112,89],"timestamp_mouse":[8,43,48,68,88,108,128,149,169,188,209,228,248,267,289,308,329,348,368,388,409,429,448,468,488,508,528,548,568,587,608,628,649,669,689,708,729,748,768,789,809,828,848,868,888,908,928,948,969,988],"xSR":741.5,"ySR":573.95,"xT1":424.9,"yT1":0,"xT2":1058.1,"yT2":0,"toosoon":0,"cond_shown":"equaldotanddens","ratio_trial":900,"smaller_num":"18","larger_num":"20","correct_side":2,"subjID":"DianaSofiaMoraOjeda1","gender":"1","age":"11","school":"6"},{"start_time":1551881617068,"click_time":1551881618284,"finger_time":1551881618124,"fix_duration":722.0138987287736,"trial":9,"RT":1056,"MT":160,"sideResp":1,"stimulus":"img/900/equaldotanddens/L/1_Ratio_900_L_10_R_9.png","xmouse":[768,768,768,768,768,768,768,768,768,768,768,768,768,768,768,768,768,768,768,768,768,768,768,768,768,768,768,768,768,768,768,768,768,768,768,768,768,768,768,768,768,768,768,768,768,768,768,768,768,768,768,768,755,732,702,662,572,536,502,474,449],"ymouse":[613,613,613,613,613,613,613,613,613,613,613,613,613,613,613,613,613,613,613,613,613,613,613,613,613,613,613,613,613,613,613,613,613,613,613,613,613,613,613,613,613,613,613,613,613,613,613,613,613,613,613,597,559,503,438,368,233,183,143,111,82],"timestamp_mouse":[18,36,68,76,96,116,136,156,176,196,216,237,256,276,296,316,337,356,376,396,416,436,455,476,496,516,536,556,576,597,616,636,656,676,697,717,735,756,776,796,816,836,857,877,896,917,936,956,976,996,1016,1035,1056,1075,1097,1117,1136,1156,1176,1196,1216],"xSR":741.5,"ySR":573.95,"xT1":424.9,"yT1":0,"xT2":1058.1,"yT2":0,"toosoon":0,"cond_shown":"equaldotanddens","ratio_trial":900,"smaller_num":"9","larger_num":"10","correct_side":1,"subjID":"DianaSofiaMoraOjeda1","gender":"1","age":"11","school":"6"},{"start_time":1551881620578,"click_time":1551881622144,"finger_time":1551881621885,"fix_duration":1472.3608444265988,"trial":10,"RT":1307,"MT":259,"sideResp":1,"stimulus":"img/750/equaldotanddens/L/10_Ratio_750_L_4_R_3.png","xmouse":[769,769,769,769,769,769,769,769,769,769,769,769,769,769,769,769,769,769,769,769,769,769,769,769,769,769,769,769,769,769,769,769,769,769,769,769,769,769,769,769,769,769,769,769,769,769,769,769,769,769,769,769,769,769,769,769,769,769,769,769,769,769,769,769,770,758,727,630,588,566,556,555,557,558,558,550,539,529,514],"ymouse":[612,612,612,612,612,612,612,612,612,612,612,612,612,612,612,612,612,612,612,612,612,612,612,612,612,612,612,612,612,612,612,612,612,612,612,612,612,612,612,612,612,612,612,612,612,612,612,612,612,612,612,612,612,612,612,612,612,612,612,612,612,612,612,612,598,537,452,276,219,193,182,165,146,121,98,74,62,56,50],"timestamp_mouse":[8,38,47,65,86,106,126,147,166,186,206,226,246,266,286,306,326,347,366,386,407,428,447,467,486,506,526,547,567,586,606,626,646,667,687,705,727,745,766,786,806,827,847,866,886,905,926,946,967,986,1006,1026,1046,1067,1087,1107,1126,1146,1166,1186,1206,1227,1246,1267,1285,1307,1326,1346,1366,1387,1406,1426,1446,1466,1487,1507,1526,1547,1566],"xSR":741.5,"ySR":573.95,"xT1":424.9,"yT1":0,"xT2":1058.1,"yT2":0,"toosoon":0,"cond_shown":"equaldotanddens","ratio_trial":750,"smaller_num":"3","larger_num":"4","correct_side":1,"subjID":"DianaSofiaMoraOjeda1","gender":"1","age":"11","school":"6"},{"start_time":1551881623196,"click_time":1551881624204,"finger_time":1551881623885,"fix_duration":250,"trial":11,"RT":689,"MT":319,"sideResp":2,"stimulus":"img/750/equaldotsize/R/2_Ratio_750_L_6_R_8.png","xmouse":[777,777,777,777,777,777,777,777,777,777,777,777,777,777,777,777,777,777,777,777,777,777,777,777,777,777,777,777,777,777,777,777,777,787,815,875,903,924,937,945,956,962,969,979,999,1015,1021,1026,1035,1047,1068],"ymouse":[614,614,614,614,614,614,614,614,614,614,614,614,614,614,614,614,614,614,614,614,614,614,614,614,614,614,614,614,614,614,614,614,614,606,562,430,370,317,280,258,234,225,214,203,181,159,150,140,131,118,97],"timestamp_mouse":[11,29,56,68,89,108,128,148,169,188,209,228,249,268,289,308,328,349,368,389,409,428,449,468,489,508,528,547,569,588,608,628,649,669,689,708,728,748,767,789,808,828,848,868,888,908,928,948,969,989,1008],"xSR":741.5,"ySR":573.95,"xT1":424.9,"yT1":0,"xT2":1058.1,"yT2":0,"toosoon":0,"cond_shown":"equaldotsize","ratio_trial":750,"smaller_num":"6","larger_num":"8","correct_side":2,"subjID":"DianaSofiaMoraOjeda1","gender":"1","age":"11","school":"6"},{"start_time":1551881626422,"click_time":1551881627404,"finger_time":1551881627145,"fix_duration":1416.0940755092556,"trial":12,"RT":723,"MT":259,"sideResp":2,"stimulus":"img/500/equaldotsize/R/9_Ratio_500_L_2_R_4.png","xmouse":[777,777,777,777,777,777,777,777,777,777,777,777,777,777,777,777,777,777,777,777,777,777,777,777,777,777,777,777,777,777,777,777,777,777,777,794,839,896,949,1020,1044,1065,1081,1090,1097,1103,1111,1119,1123,1128],"ymouse":[603,603,603,603,603,603,603,603,603,603,603,603,603,603,603,603,603,603,603,603,603,603,603,603,603,603,603,603,603,603,603,603,603,603,604,593,555,502,447,334,289,248,217,187,160,145,129,116,108,99],"timestamp_mouse":[8,23,42,63,82,102,122,143,162,182,202,222,242,262,283,302,322,342,362,382,401,422,443,462,483,502,522,542,561,582,602,622,642,663,682,702,723,742,762,781,803,823,842,863,882,902,922,942,962,982],"xSR":741.5,"ySR":573.95,"xT1":424.9,"yT1":0,"xT2":1058.1,"yT2":0,"toosoon":0,"cond_shown":"equaldotsize","ratio_trial":500,"smaller_num":"2","larger_num":"4","correct_side":2,"subjID":"DianaSofiaMoraOjeda1","gender":"1","age":"11","school":"6"},{"start_time":1551881629390,"click_time":1551881630285,"finger_time":1551881630004,"fix_duration":1185.1972181923709,"trial":13,"RT":614,"MT":281,"sideResp":2,"stimulus":"img/250/equaldotanddens/R/12_Ratio_250_L_5_R_20.png","xmouse":[804,804,804,804,804,804,804,804,804,804,804,804,804,804,804,804,804,804,804,804,804,804,804,804,804,804,804,804,804,812,848,873,896,919,931,955,967,979,991,1005,1018,1039,1051,1067,1086],"ymouse":[608,608,608,608,608,608,608,608,608,608,608,608,608,608,608,608,608,608,608,608,608,608,608,608,608,608,608,608,608,587,507,450,392,340,301,233,212,197,184,169,155,131,120,109,93],"timestamp_mouse":[18,45,54,74,94,114,134,154,174,194,214,234,254,274,294,315,334,354,374,394,415,435,454,474,495,514,534,554,574,595,614,634,654,674,695,714,735,754,774,795,814,834,855,874,894],"xSR":741.5,"ySR":573.95,"xT1":424.9,"yT1":0,"xT2":1058.1,"yT2":0,"toosoon":0,"cond_shown":"equaldotanddens","ratio_trial":250,"smaller_num":"5","larger_num":"20","correct_side":2,"subjID":"DianaSofiaMoraOjeda1","gender":"1","age":"11","school":"6"},{"start_time":1551881631995,"click_time":1551881633005,"finger_time":1551881632704,"fix_duration":969.8014173790589,"trial":14,"RT":709,"MT":301,"sideResp":2,"stimulus":"img/500/randomdotsizeEA/R/14_Ratio_500_L_5_R_10.png","xmouse":[830,830,830,830,830,830,830,830,830,830,830,830,830,830,830,830,830,830,830,830,830,830,830,830,830,830,830,830,830,830,830,830,830,830,829,876,915,948,976,998,1017,1024,1035,1049,1067,1085,1088,1091,1093,1096,1116],"ymouse":[622,622,622,622,622,622,622,622,622,622,622,622,622,622,622,622,622,622,622,622,622,622,622,622,622,622,622,622,622,622,622,622,622,622,618,511,422,344,279,233,189,178,162,146,131,112,110,110,108,105,87],"timestamp_mouse":[9,40,49,70,89,110,129,150,169,188,209,230,249,270,290,309,329,349,368,389,410,430,450,470,490,509,530,549,570,589,608,630,649,669,690,709,729,749,769,789,809,830,848,870,890,909,929,949,970,989,1009],"xSR":741.5,"ySR":573.95,"xT1":424.9,"yT1":0,"xT2":1058.1,"yT2":0,"toosoon":0,"cond_shown":"randomdotsizeEA","ratio_trial":500,"smaller_num":"5","larger_num":"10","correct_side":2,"subjID":"DianaSofiaMoraOjeda1","gender":"1","age":"11","school":"6"},{"start_time":1551881635349,"click_time":1551881636044,"finger_time":1551881635904,"fix_duration":1403.3908547892104,"trial":15,"RT":555,"MT":140,"sideResp":2,"stimulus":"img/250/equaldotanddens/R/6_Ratio_250_L_6_R_24.png","xmouse":[818,818,818,818,818,818,818,818,818,818,818,818,818,818,818,818,818,818,818,818,818,818,818,818,818,818,818,842,878,921,963,996,1039,1053,1067],"ymouse":[604,604,604,604,604,604,604,604,604,604,604,604,604,604,604,604,604,604,604,604,604,604,604,604,604,604,604,560,494,417,338,272,165,123,84],"timestamp_mouse":[19,38,55,75,95,116,136,155,174,195,215,235,256,275,296,316,335,355,375,396,415,436,456,476,495,515,535,555,576,595,616,635,655,676,695],"xSR":741.5,"ySR":573.95,"xT1":424.9,"yT1":0,"xT2":1058.1,"yT2":0,"toosoon":0,"cond_shown":"equaldotanddens","ratio_trial":250,"smaller_num":"6","larger_num":"24","correct_side":2,"subjID":"DianaSofiaMoraOjeda1","gender":"1","age":"11","school":"6"},{"start_time":1551881638420,"click_time":1551881639344,"finger_time":1551881639144,"fix_duration":1314.6902320725535,"trial":16,"RT":724,"MT":200,"sideResp":2,"stimulus":"img/500/equaldotsize/R/9_Ratio_500_L_2_R_4.png","xmouse":[840,840,840,840,840,840,840,840,840,840,840,840,840,840,840,840,840,840,840,840,840,840,840,840,840,840,840,840,840,840,840,840,840,840,840,840,840,846,861,910,939,966,983,998,1028,1046,1061],"ymouse":[619,619,619,619,619,619,619,619,619,619,619,619,619,619,619,619,619,619,619,619,619,619,619,619,619,619,619,619,619,619,619,619,618,616,595,576,551,511,464,334,267,214,185,164,120,100,83],"timestamp_mouse":[10,32,44,64,85,105,124,145,164,184,204,225,244,265,284,305,325,345,363,384,404,424,444,464,484,504,525,545,565,585,605,624,645,664,684,704,724,745,764,784,805,824,844,864,884,905,924],"xSR":741.5,"ySR":573.95,"xT1":424.9,"yT1":0,"xT2":1058.1,"yT2":0,"toosoon":0,"cond_shown":"equaldotsize","ratio_trial":500,"smaller_num":"2","larger_num":"4","correct_side":2,"subjID":"DianaSofiaMoraOjeda1","gender":"1","age":"11","school":"6"},{"start_time":1551881640657,"click_time":1551881641505,"finger_time":1551881641204,"fix_duration":709.8506328006316,"trial":17,"RT":547,"MT":301,"sideResp":2,"stimulus":"img/500/equaldotsize/R/15_Ratio_500_L_1_R_2.png","xmouse":[781,781,781,781,781,781,781,781,781,781,781,781,781,781,781,781,781,781,781,781,781,781,781,781,782,791,817,855,873,889,909,933,976,995,1008,1021,1031,1054,1060,1063,1065,1069,1071],"ymouse":[623,623,623,623,623,623,623,623,623,623,623,623,623,623,623,623,623,623,623,623,623,623,623,623,623,611,580,523,484,447,401,350,276,242,212,182,161,131,121,113,108,100,96],"timestamp_mouse":[10,38,47,68,86,107,127,147,167,187,208,227,247,267,288,306,327,348,367,388,408,427,447,468,487,508,527,547,568,587,608,627,647,666,687,707,728,748,766,788,808,827,848],"xSR":741.5,"ySR":573.95,"xT1":424.9,"yT1":0,"xT2":1058.1,"yT2":0,"toosoon":0,"cond_shown":"equaldotsize","ratio_trial":500,"smaller_num":"1","larger_num":"2","correct_side":2,"subjID":"DianaSofiaMoraOjeda1","gender":"1","age":"11","school":"6"},{"start_time":1551881642517,"click_time":1551881643545,"finger_time":1551881643404,"fix_duration":410.95516785051655,"trial":18,"RT":887,"MT":141,"sideResp":2,"stimulus":"img/750/equaldotsize/R/4_Ratio_750_L_15_R_20.png","xmouse":[802,802,802,802,802,802,802,802,802,802,802,802,802,802,802,802,802,802,802,802,802,802,802,802,802,802,802,802,802,802,802,802,802,802,802,802,802,802,802,802,802,802,809,818,881,913,953,1013,1042,1073,1082,1091],"ymouse":[657,657,657,657,657,657,657,657,657,657,657,657,657,657,657,657,657,657,657,657,657,657,657,657,657,657,657,657,657,657,657,657,657,657,657,657,657,657,657,657,657,657,647,631,475,395,314,200,152,110,100,90],"timestamp_mouse":[7,27,47,67,87,107,127,148,167,187,207,227,247,267,288,307,327,347,367,387,407,428,447,467,487,507,527,547,567,587,607,627,646,667,687,707,728,748,768,788,808,827,847,868,887,907,927,947,967,987,1006,1028],"xSR":741.5,"ySR":573.95,"xT1":424.9,"yT1":0,"xT2":1058.1,"yT2":0,"toosoon":0,"cond_shown":"equaldotsize","ratio_trial":750,"smaller_num":"15","larger_num":"20","correct_side":2,"subjID":"DianaSofiaMoraOjeda1","gender":"1","age":"11","school":"6"},{"start_time":1551881645741,"click_time":1551881647004,"finger_time":1551881646784,"fix_duration":1374.8693766351614,"trial":19,"RT":1043,"MT":220,"sideResp":1,"stimulus":"img/750/randomdotsizeEA/L/9_Ratio_750_L_4_R_3.png","xmouse":[808,808,808,808,808,808,808,808,808,808,808,808,808,808,808,808,808,808,808,808,808,808,808,808,808,808,808,808,808,808,808,808,808,808,808,808,808,808,808,808,808,808,808,808,808,808,808,808,808,808,808,806,801,773,746,707,664,618,559,549,539,527,513,504],"ymouse":[592,592,592,592,592,592,592,592,592,592,592,592,592,592,592,592,592,592,592,592,592,592,592,592,592,592,592,592,592,592,592,592,592,592,592,592,592,592,592,592,592,592,592,592,592,592,592,592,592,592,588,577,550,460,401,339,283,227,161,150,137,123,106,95],"timestamp_mouse":[11,34,43,62,83,104,123,144,163,184,203,223,243,265,283,302,323,343,363,382,403,424,443,463,483,503,523,543,564,584,604,624,644,663,683,704,723,744,763,783,803,823,843,864,883,904,924,943,963,983,1003,1023,1043,1063,1083,1103,1124,1143,1163,1182,1203,1223,1243,1263],"xSR":741.5,"ySR":573.95,"xT1":424.9,"yT1":0,"xT2":1058.1,"yT2":0,"toosoon":0,"cond_shown":"randomdotsizeEA","ratio_trial":750,"smaller_num":"3","larger_num":"4","correct_side":1,"subjID":"DianaSofiaMoraOjeda1","gender":"1","age":"11","school":"6"},{"start_time":1551881648695,"click_time":1551881649504,"finger_time":1551881649284,"fix_duration":989.9960191355289,"trial":20,"RT":589,"MT":220,"sideResp":2,"stimulus":"img/500/equaldotsize/R/9_Ratio_500_L_2_R_4.png","xmouse":[781,781,781,781,781,781,781,781,781,781,781,781,781,781,781,781,781,781,781,781,781,781,781,781,781,781,781,787,807,842,955,997,1021,1047,1071,1105,1115,1126,1134,1143,1147],"ymouse":[627,627,627,627,627,627,627,627,627,627,627,627,627,627,627,627,627,627,627,627,627,627,627,627,627,627,628,623,595,543,397,348,313,279,247,208,193,173,150,119,95],"timestamp_mouse":[29,44,49,70,89,110,129,149,169,189,209,229,249,270,289,309,330,349,369,388,409,429,449,470,490,509,529,550,569,589,609,630,650,669,689,709,730,749,769,789,809],"xSR":741.5,"ySR":573.95,"xT1":424.9,"yT1":0,"xT2":1058.1,"yT2":0,"toosoon":0,"cond_shown":"equaldotsize","ratio_trial":500,"smaller_num":"2","larger_num":"4","correct_side":2,"subjID":"DianaSofiaMoraOjeda1","gender":"1","age":"11","school":"6"},{"start_time":1551881652035,"click_time":1551881653704,"finger_time":1551881653564,"fix_duration":250,"trial":21,"RT":1529,"MT":140,"sideResp":1,"stimulus":"img/900/randomdotsizeEA/R/9_Ratio_900_L_18_R_20.png","xmouse":[809,809,809,809,809,809,809,809,809,809,809,809,809,809,809,809,809,809,809,809,809,809,809,809,809,809,809,809,809,809,809,809,809,809,809,809,809,809,809,808,808,808,808,808,808,808,808,808,808,808,808,808,808,808,808,808,808,808,808,808,808,808,808,808,808,808,808,808,808,808,808,808,808,807,801,793,772,746,687,649,610,565,532,490],"ymouse":[643,643,643,643,643,643,643,643,643,643,643,643,643,643,643,643,643,643,643,643,643,643,643,643,643,643,643,643,643,643,643,643,643,643,643,643,643,643,643,642,642,642,642,642,642,642,642,642,642,642,642,642,642,642,642,642,642,642,642,642,642,642,642,642,642,642,642,642,642,642,642,642,642,631,613,584,533,466,344,275,210,157,119,88],"timestamp_mouse":[10,29,49,69,89,109,129,148,169,189,210,229,249,269,289,310,329,349,369,390,409,430,449,470,489,509,529,548,569,589,610,629,649,670,690,710,730,748,769,790,809,829,850,870,889,909,929,950,969,989,1009,1030,1050,1069,1089,1109,1130,1149,1169,1189,1210,1229,1249,1270,1290,1309,1330,1350,1369,1389,1410,1428,1450,1469,1489,1509,1529,1550,1569,1589,1609,1630,1649,1669],"xSR":741.5,"ySR":573.95,"xT1":424.9,"yT1":0,"xT2":1058.1,"yT2":0,"toosoon":0,"cond_shown":"randomdotsizeEA","ratio_trial":900,"smaller_num":"18","larger_num":"20","correct_side":2,"subjID":"DianaSofiaMoraOjeda1","gender":"1","age":"11","school":"6"},{"start_time":1551881655292,"click_time":1551881658085,"finger_time":1551881656984,"fix_duration":687.1548720419215,"trial":22,"RT":1692,"MT":1101,"sideResp":2,"stimulus":"img/900/equaldotsize/R/9_Ratio_900_L_18_R_20.png","xmouse":[756,756,756,756,756,756,756,756,756,756,756,756,756,756,756,756,756,756,756,756,756,756,756,756,756,756,756,756,756,756,756,756,756,756,756,756,756,756,756,756,756,756,756,756,756,756,756,756,756,756,756,756,756,757,758,761,763,765,768,768,769,769,769,770,770,770,770,770,770,770,770,770,770,770,770,771,771,771,771,771,772,772,774,781,804,871,893,909,922,926,939,963,973,978,983,984,984,984,984,976,968,947,935,922,910,900,869,859,851,845,841,839,835,832,828,820,817,813,811,810,808,806,805,805,805,805,805,805,805,805,805,805,805,805,818,834,912,955,1004,1069],"ymouse":[583,583,583,583,583,583,583,583,583,583,583,583,583,583,583,583,583,583,583,583,583,583,583,583,583,583,583,583,583,583,583,583,583,583,583,583,583,583,583,583,583,583,583,583,583,583,583,583,583,583,583,583,583,585,585,586,588,588,590,590,591,591,591,592,592,592,593,593,593,593,593,593,594,594,596,597,598,599,599,600,601,601,599,590,552,378,297,240,209,202,186,175,173,170,169,169,169,171,174,188,202,237,257,277,296,315,367,393,416,447,480,492,504,515,525,547,556,568,576,583,589,596,597,597,597,597,597,597,597,597,597,597,597,597,575,541,373,284,198,98],"timestamp_mouse":[13,33,52,72,93,113,132,152,173,192,212,233,253,273,293,313,332,352,372,393,412,431,452,473,493,513,533,552,573,592,612,633,653,672,692,712,732,752,772,791,812,831,852,873,892,912,932,952,973,992,1012,1032,1052,1072,1091,1112,1132,1152,1173,1192,1213,1232,1252,1272,1292,1312,1332,1352,1372,1392,1413,1432,1452,1472,1492,1512,1532,1552,1572,1593,1613,1633,1652,1672,1692,1712,1732,1752,1772,1793,1813,1832,1852,1873,1892,1913,1933,1953,1973,1992,2012,2032,2051,2072,2093,2112,2133,2152,2172,2192,2212,2232,2252,2272,2292,2312,2333,2352,2373,2393,2411,2432,2453,2471,2493,2512,2532,2552,2573,2592,2613,2632,2653,2672,2693,2712,2732,2753,2772,2793],"xSR":741.5,"ySR":573.95,"xT1":424.9,"yT1":0,"xT2":1058.1,"yT2":0,"toosoon":0,"cond_shown":"equaldotsize","ratio_trial":900,"smaller_num":"18","larger_num":"20","correct_side":2,"subjID":"DianaSofiaMoraOjeda1","gender":"1","age":"11","school":"6"},{"start_time":1551881660454,"click_time":1551881661184,"finger_time":1551881661045,"fix_duration":1369.9159963941083,"trial":23,"RT":591,"MT":139,"sideResp":1,"stimulus":"img/750/randomdotsizeEA/L/8_Ratio_750_L_4_R_3.png","xmouse":[804,804,804,804,804,804,804,804,804,804,804,804,804,804,804,804,804,804,804,804,804,804,804,804,804,804,804,804,804,767,748,658,563,544,533,526,521],"ymouse":[609,609,609,609,609,609,609,609,609,609,609,609,609,609,609,609,609,609,609,609,609,609,609,609,609,609,609,609,593,496,452,311,192,162,133,101,70],"timestamp_mouse":[10,31,50,71,91,110,131,150,170,190,210,231,250,271,291,310,331,350,370,389,411,431,450,471,490,511,530,550,570,591,610,631,650,669,689,710,730],"xSR":741.5,"ySR":573.95,"xT1":424.9,"yT1":0,"xT2":1058.1,"yT2":0,"toosoon":0,"cond_shown":"randomdotsizeEA","ratio_trial":750,"smaller_num":"3","larger_num":"4","correct_side":1,"subjID":"DianaSofiaMoraOjeda1","gender":"1","age":"11","school":"6"},{"start_time":1551881662130,"click_time":1551881662784,"finger_time":1551881662604,"fix_duration":385.8627434677605,"trial":24,"RT":474,"MT":180,"sideResp":2,"stimulus":"img/750/equaldotsize/R/7_Ratio_750_L_3_R_4.png","xmouse":[800,800,800,800,800,800,800,800,800,800,800,800,800,800,800,800,800,800,800,800,800,799,806,834,896,931,964,998,1038,1056,1070,1075,1080],"ymouse":[620,620,620,620,620,620,620,620,620,620,620,620,620,620,620,620,620,620,620,620,620,616,603,560,451,392,327,250,174,138,113,100,90],"timestamp_mouse":[14,34,55,74,94,115,133,154,174,194,213,235,254,273,294,314,334,354,374,394,414,434,455,474,495,514,535,555,574,594,615,635,654],"xSR":741.5,"ySR":573.95,"xT1":424.9,"yT1":0,"xT2":1058.1,"yT2":0,"toosoon":0,"cond_shown":"equaldotsize","ratio_trial":750,"smaller_num":"3","larger_num":"4","correct_side":2,"subjID":"DianaSofiaMoraOjeda1","gender":"1","age":"11","school":"6"},{"start_time":1551881665296,"click_time":1551881666564,"finger_time":1551881666404,"fix_duration":450.07683188746125,"trial":25,"RT":1108,"MT":160,"sideResp":1,"stimulus":"img/500/equaldotanddens/R/6_Ratio_500_L_9_R_18.png","xmouse":[812,812,812,812,812,812,812,812,812,812,812,812,812,812,812,812,812,812,812,812,812,812,812,812,812,812,812,812,812,812,812,812,812,812,812,812,812,812,812,812,812,812,812,812,812,812,812,812,812,812,812,812,812,812,805,768,724,672,615,553,497,474,463,461],"ymouse":[649,649,649,649,649,649,649,649,649,649,649,649,649,649,649,649,649,649,649,649,649,649,649,649,649,649,649,649,649,649,649,649,649,649,649,649,649,649,649,649,649,649,649,649,649,649,649,649,649,649,649,649,649,649,630,542,475,416,366,299,201,147,106,82],"timestamp_mouse":[9,28,48,67,89,108,129,148,168,188,207,227,248,269,289,309,328,349,368,387,409,429,449,469,488,508,528,548,568,588,607,628,648,669,688,708,728,748,768,788,808,828,847,868,888,909,928,949,968,988,1009,1029,1048,1068,1088,1108,1127,1148,1169,1188,1208,1227,1249,1268],"xSR":741.5,"ySR":573.95,"xT1":424.9,"yT1":0,"xT2":1058.1,"yT2":0,"toosoon":0,"cond_shown":"equaldotanddens","ratio_trial":500,"smaller_num":"9","larger_num":"18","correct_side":2,"subjID":"DianaSofiaMoraOjeda1","gender":"1","age":"11","school":"6"},{"start_time":1551881667717,"click_time":1551881668324,"finger_time":1551881668205,"fix_duration":391.416024507642,"trial":26,"RT":488,"MT":119,"sideResp":2,"stimulus":"img/900/equaldotsize/L/8_Ratio_900_L_20_R_18.png","xmouse":[766,766,766,766,766,766,766,766,766,766,766,766,766,766,766,766,766,766,766,766,766,766,766,780,869,938,984,1009,1028,1053,1059],"ymouse":[605,605,605,605,605,605,605,605,605,605,605,605,605,605,605,605,605,605,605,605,605,605,605,594,490,393,290,198,133,79,67],"timestamp_mouse":[13,36,47,68,88,108,126,148,168,188,207,228,248,267,287,307,327,348,367,388,407,428,447,468,488,506,527,547,568,587,606],"xSR":741.5,"ySR":573.95,"xT1":424.9,"yT1":0,"xT2":1058.1,"yT2":0,"toosoon":0,"cond_shown":"equaldotsize","ratio_trial":900,"smaller_num":"18","larger_num":"20","correct_side":1,"subjID":"DianaSofiaMoraOjeda1","gender":"1","age":"11","school":"6"},{"start_time":1551881670826,"click_time":1551881671944,"finger_time":1551881671604,"fix_duration":980.0335159796306,"trial":27,"RT":778,"MT":340,"sideResp":1,"stimulus":"img/900/equaldotsize/L/2_Ratio_900_L_20_R_18.png","xmouse":[782,782,782,782,782,782,782,782,782,782,782,782,782,782,782,782,782,782,782,782,782,782,782,782,782,782,782,782,782,782,782,782,782,782,782,782,782,772,735,712,683,638,561,539,523,522,522,523,525,533,535,536,536,536,534,522],"ymouse":[642,642,643,645,645,645,645,645,645,645,645,645,645,645,645,645,645,645,645,645,645,645,645,645,645,645,645,645,645,645,645,645,645,645,645,637,617,584,503,465,412,349,255,219,180,167,159,156,153,136,121,110,105,102,95,82],"timestamp_mouse":[18,38,58,78,98,121,139,158,178,199,218,238,259,278,298,319,338,359,379,398,418,439,459,477,499,518,538,559,578,598,618,638,658,678,698,718,738,758,778,798,818,838,858,878,898,919,938,959,978,998,1018,1039,1058,1078,1098,1118],"xSR":741.5,"ySR":573.95,"xT1":424.9,"yT1":0,"xT2":1058.1,"yT2":0,"toosoon":0,"cond_shown":"equaldotsize","ratio_trial":900,"smaller_num":"18","larger_num":"20","correct_side":1,"subjID":"DianaSofiaMoraOjeda1","gender":"1","age":"11","school":"6"},{"start_time":1551881673303,"click_time":1551881674484,"finger_time":1551881673905,"fix_duration":797.3247936081327,"trial":28,"RT":602,"MT":579,"sideResp":2,"stimulus":"img/900/randomdotsizeEA/R/5_Ratio_900_L_9_R_10.png","xmouse":[804,804,804,804,804,804,804,804,804,804,804,804,804,804,804,804,804,804,804,804,804,804,804,804,804,804,804,804,807,813,823,825,828,838,855,908,934,964,997,1031,1060,1073,1089,1105,1114,1122,1122,1122,1122,1122,1120,1115,1111,1102,1099,1099,1099,1098,1098,1098],"ymouse":[639,639,639,639,639,639,639,639,639,639,639,639,639,639,639,639,639,639,639,639,639,639,639,639,639,639,639,639,635,613,567,547,530,500,453,331,288,249,217,192,170,160,147,133,122,105,105,105,105,105,106,109,113,120,122,122,122,121,115,94],"timestamp_mouse":[10,35,41,61,81,101,121,141,161,181,202,221,242,261,281,301,322,341,361,381,401,421,442,461,482,500,521,542,562,581,602,621,641,661,681,701,721,741,762,781,801,822,841,861,881,901,921,941,961,980,1001,1022,1041,1061,1082,1101,1121,1141,1162,1181],"xSR":741.5,"ySR":573.95,"xT1":424.9,"yT1":0,"xT2":1058.1,"yT2":0,"toosoon":0,"cond_shown":"randomdotsizeEA","ratio_trial":900,"smaller_num":"9","larger_num":"10","correct_side":2,"subjID":"DianaSofiaMoraOjeda1","gender":"1","age":"11","school":"6"},{"start_time":1551881676511,"click_time":1551881677525,"finger_time":1551881677284,"fix_duration":1005.6308840466282,"trial":29,"RT":773,"MT":241,"sideResp":2,"stimulus":"img/750/equaldotanddens/R/15_Ratio_750_L_9_R_12.png","xmouse":[832,833,833,833,833,833,833,833,833,833,833,833,833,834,834,834,834,834,834,834,834,834,834,834,834,834,834,834,834,834,834,834,834,834,834,834,834,841,852,883,907,927,947,968,1008,1019,1029,1039,1050,1058,1064],"ymouse":[618,618,618,618,618,618,618,618,618,618,618,618,618,619,619,619,619,619,619,619,619,619,619,619,619,619,619,619,619,619,619,619,619,619,619,619,619,612,588,514,453,390,309,244,159,136,119,101,79,65,53],"timestamp_mouse":[18,43,53,73,93,113,134,153,174,193,212,234,252,272,293,313,334,354,374,393,413,434,454,473,493,514,534,553,573,594,614,632,653,674,694,713,733,754,773,793,812,833,853,873,893,912,933,953,974,993,1014],"xSR":741.5,"ySR":573.95,"xT1":424.9,"yT1":0,"xT2":1058.1,"yT2":0,"toosoon":0,"cond_shown":"equaldotanddens","ratio_trial":750,"smaller_num":"9","larger_num":"12","correct_side":2,"subjID":"DianaSofiaMoraOjeda1","gender":"1","age":"11","school":"6"},{"start_time":1551881679639,"click_time":1551881680444,"finger_time":1551881680204,"fix_duration":1233.717967694962,"trial":30,"RT":565,"MT":240,"sideResp":1,"stimulus":"img/250/equaldotsize/L/2_Ratio_250_L_16_R_4.png","xmouse":[804,805,805,806,806,806,807,807,808,808,808,808,808,808,809,809,809,809,809,810,810,810,810,810,810,810,810,810,796,780,752,715,654,588,565,553,546,539,528,525,521],"ymouse":[627,626,626,625,624,624,623,622,622,622,622,622,622,622,619,617,617,617,617,616,616,616,616,615,612,607,600,585,531,491,445,400,324,238,207,187,171,156,118,103,90],"timestamp_mouse":[10,26,45,65,85,106,126,145,165,185,206,225,245,265,285,305,325,345,365,386,405,426,445,465,485,506,525,545,565,584,605,626,646,664,686,704,725,745,765,784,805],"xSR":741.5,"ySR":573.95,"xT1":424.9,"yT1":0,"xT2":1058.1,"yT2":0,"toosoon":0,"cond_shown":"equaldotsize","ratio_trial":250,"smaller_num":"4","larger_num":"16","correct_side":1,"subjID":"DianaSofiaMoraOjeda1","gender":"1","age":"11","school":"6"},{"start_time":1551881681712,"click_time":1551881682684,"finger_time":1551881682545,"fix_duration":507.00548640285416,"trial":31,"RT":833,"MT":139,"sideResp":1,"stimulus":"img/500/equaldotanddens/L/10_Ratio_500_L_4_R_2.png","xmouse":[783,783,783,783,783,783,783,783,783,783,783,783,783,783,783,783,783,783,783,783,783,783,783,783,783,783,783,783,783,783,783,783,783,783,783,783,783,783,783,777,773,770,765,758,722,679,620,564,518],"ymouse":[604,604,604,604,604,604,604,604,604,604,604,604,604,604,604,604,604,604,604,604,604,604,604,604,604,604,604,604,604,604,604,604,604,604,604,604,604,604,604,590,579,569,559,542,454,362,255,161,96],"timestamp_mouse":[12,46,52,72,93,113,132,152,173,191,211,232,252,272,292,312,331,353,372,392,411,433,453,471,492,513,533,553,572,593,613,633,652,672,692,713,732,753,773,792,811,833,852,872,892,913,932,952,972],"xSR":741.5,"ySR":573.95,"xT1":424.9,"yT1":0,"xT2":1058.1,"yT2":0,"toosoon":0,"cond_shown":"equaldotanddens","ratio_trial":500,"smaller_num":"2","larger_num":"4","correct_side":1,"subjID":"DianaSofiaMoraOjeda1","gender":"1","age":"11","school":"6"},{"start_time":1551881684865,"click_time":1551881685524,"finger_time":1551881685304,"fix_duration":758.6454787180545,"trial":32,"RT":439,"MT":220,"sideResp":2,"stimulus":"img/250/randomdotsizeEA/R/4_Ratio_250_L_3_R_12.png","xmouse":[791,791,791,791,791,791,791,791,791,791,791,791,792,792,792,792,792,792,792,792,794,796,814,828,842,854,868,925,961,995,1026,1039,1053,1063],"ymouse":[597,597,597,597,597,597,597,597,597,597,597,597,597,597,597,597,597,597,597,597,597,596,565,539,509,468,422,285,216,162,114,98,87,82],"timestamp_mouse":[1,21,39,60,80,100,119,140,160,179,200,220,240,260,279,300,319,339,359,378,399,419,439,459,479,499,519,539,559,579,598,619,639,658],"xSR":741.5,"ySR":573.95,"xT1":424.9,"yT1":0,"xT2":1058.1,"yT2":0,"toosoon":0,"cond_shown":"randomdotsizeEA","ratio_trial":250,"smaller_num":"3","larger_num":"12","correct_side":2,"subjID":"DianaSofiaMoraOjeda1","gender":"1","age":"11","school":"6"},{"start_time":1551881686761,"click_time":1551881687704,"finger_time":1551881687344,"fix_duration":356.9247576515232,"trial":33,"RT":583,"MT":360,"sideResp":1,"stimulus":"img/250/randomdotsizeEA/L/1_Ratio_250_L_8_R_2.png","xmouse":[835,835,835,835,835,835,835,835,835,835,835,835,836,836,836,836,836,836,836,836,836,836,836,836,836,836,836,836,827,790,730,679,578,547,528,516,508,500,495,492,490,490,485,484,481,478,477,473],"ymouse":[651,651,651,651,651,651,651,651,651,651,651,651,651,651,651,651,651,651,651,651,651,651,651,651,651,651,651,651,634,573,498,432,351,328,311,295,267,227,210,200,189,177,159,154,148,137,122,93],"timestamp_mouse":[5,23,44,64,83,103,123,144,163,183,204,223,244,263,284,303,324,343,362,383,403,422,444,462,483,503,523,544,564,583,604,623,643,662,684,704,723,743,764,783,804,823,844,863,883,903,923,942],"xSR":741.5,"ySR":573.95,"xT1":424.9,"yT1":0,"xT2":1058.1,"yT2":0,"toosoon":0,"cond_shown":"randomdotsizeEA","ratio_trial":250,"smaller_num":"2","larger_num":"8","correct_side":1,"subjID":"DianaSofiaMoraOjeda1","gender":"1","age":"11","school":"6"},{"start_time":1551881689659,"click_time":1551881690564,"finger_time":1551881690164,"fix_duration":1433.5833703341925,"trial":34,"RT":505,"MT":400,"sideResp":2,"stimulus":"img/500/equaldotsize/R/2_Ratio_500_L_3_R_6.png","xmouse":[802,802,802,802,802,802,802,802,802,802,802,802,802,802,802,802,802,802,802,802,802,802,802,812,834,865,898,957,982,1014,1025,1034,1037,1038,1038,1038,1038,1038,1038,1038,1038,1038,1044,1051,1061,1071],"ymouse":[628,628,628,628,628,628,628,628,628,628,628,628,628,628,628,628,628,628,628,628,628,628,628,621,595,549,483,351,289,215,190,150,121,116,115,114,113,112,112,112,112,112,112,108,102,96],"timestamp_mouse":[10,38,45,65,85,105,125,145,166,185,205,226,245,265,286,304,325,345,366,386,405,425,445,466,486,505,524,545,564,586,606,626,645,665,685,705,725,746,766,786,805,825,845,865,885,905],"xSR":741.5,"ySR":573.95,"xT1":424.9,"yT1":0,"xT2":1058.1,"yT2":0,"toosoon":0,"cond_shown":"equaldotsize","ratio_trial":500,"smaller_num":"3","larger_num":"6","correct_side":2,"subjID":"DianaSofiaMoraOjeda1","gender":"1","age":"11","school":"6"},{"start_time":1551881692743,"click_time":1551881693604,"finger_time":1551881693305,"fix_duration":1177.091896981388,"trial":35,"RT":562,"MT":299,"sideResp":2,"stimulus":"img/750/randomdotsizeEA/R/11_Ratio_750_L_12_R_16.png","xmouse":[805,805,805,805,805,805,805,805,805,805,805,805,805,805,805,805,805,805,805,805,805,805,805,804,804,804,804,808,836,849,870,894,916,941,981,995,1006,1019,1038,1050,1056,1061,1064,1086],"ymouse":[597,597,597,597,597,597,597,597,597,597,597,597,597,597,597,597,597,597,597,597,597,597,597,597,597,595,593,576,441,357,283,222,161,104,38,19,6,0,0,0,0,0,0,11],"timestamp_mouse":[8,21,41,61,80,101,122,140,161,181,201,221,240,261,281,301,322,340,361,381,401,421,442,462,481,501,522,541,562,593,602,622,641,661,681,702,721,742,761,780,801,822,842,861],"xSR":741.5,"ySR":573.95,"xT1":424.9,"yT1":0,"xT2":1058.1,"yT2":0,"toosoon":0,"cond_shown":"randomdotsizeEA","ratio_trial":750,"smaller_num":"12","larger_num":"16","correct_side":2,"subjID":"DianaSofiaMoraOjeda1","gender":"1","age":"11","school":"6"},{"start_time":1551881696393,"click_time":1551881697304,"finger_time":1551881697165,"fix_duration":668.5561436725907,"trial":36,"RT":772,"MT":139,"sideResp":1,"stimulus":"img/900/equaldotsize/R/7_Ratio_900_L_9_R_10.png","xmouse":[783,783,783,783,783,783,783,783,783,783,783,783,783,783,783,783,783,783,783,783,783,783,783,783,783,783,782,781,781,781,781,779,777,773,772,769,764,756,739,711,639,595,569,546,525,462],"ymouse":[622,622,622,622,622,622,622,622,622,622,622,622,622,622,622,622,622,622,622,622,622,622,622,622,622,622,621,620,620,620,620,620,620,619,619,617,613,595,556,491,356,289,236,179,133,38],"timestamp_mouse":[11,32,57,71,92,111,132,151,172,191,211,231,250,272,291,311,331,352,371,391,410,430,451,472,491,511,532,552,571,592,611,630,651,671,690,711,731,752,772,791,811,830,851,872,891,911],"xSR":741.5,"ySR":573.95,"xT1":424.9,"yT1":0,"xT2":1058.1,"yT2":0,"toosoon":0,"cond_shown":"equaldotsize","ratio_trial":900,"smaller_num":"9","larger_num":"10","correct_side":2,"subjID":"DianaSofiaMoraOjeda1","gender":"1","age":"11","school":"6"},{"start_time":1551881699362,"click_time":1551881700323,"finger_time":1551881700045,"fix_duration":1076.5197082615364,"trial":37,"RT":683,"MT":278,"sideResp":1,"stimulus":"img/750/equaldotanddens/L/10_Ratio_750_L_4_R_3.png","xmouse":[805,805,805,805,805,805,805,805,805,805,805,805,805,805,805,805,805,805,805,805,805,805,805,805,805,805,805,805,805,805,805,805,804,788,742,679,656,616,606,599,590,583,570,567,561,557,549,517,489],"ymouse":[637,637,637,637,637,637,637,637,637,637,637,637,637,637,637,637,637,637,637,637,637,637,637,637,637,637,637,637,637,637,637,637,635,609,531,407,353,266,239,217,196,183,163,158,151,141,132,109,93],"timestamp_mouse":[10,23,42,62,82,103,122,142,162,182,202,222,243,263,282,302,323,343,362,383,403,422,442,461,482,502,523,542,562,583,602,623,643,663,683,703,722,742,762,783,802,822,842,862,882,901,922,942,961],"xSR":741.5,"ySR":573.95,"xT1":424.9,"yT1":0,"xT2":1058.1,"yT2":0,"toosoon":0,"cond_shown":"equaldotanddens","ratio_trial":750,"smaller_num":"3","larger_num":"4","correct_side":1,"subjID":"DianaSofiaMoraOjeda1","gender":"1","age":"11","school":"6"},{"start_time":1551881701270,"click_time":1551881701884,"finger_time":1551881701784,"fix_duration":423.2485687427899,"trial":38,"RT":514,"MT":100,"sideResp":1,"stimulus":"img/250/equaldotsize/L/15_Ratio_250_L_12_R_3.png","xmouse":[806,806,806,806,806,806,806,806,806,806,806,806,806,806,806,806,806,806,806,806,806,806,806,808,800,765,638,565,503,451,434],"ymouse":[641,641,641,641,641,641,641,641,641,641,641,641,641,641,641,641,641,641,641,641,641,641,641,635,616,548,383,293,213,137,96],"timestamp_mouse":[14,38,55,74,93,114,134,155,174,194,215,234,254,274,294,315,334,353,374,395,414,434,455,473,494,514,534,554,574,594,614],"xSR":741.5,"ySR":573.95,"xT1":424.9,"yT1":0,"xT2":1058.1,"yT2":0,"toosoon":0,"cond_shown":"equaldotsize","ratio_trial":250,"smaller_num":"3","larger_num":"12","correct_side":1,"subjID":"DianaSofiaMoraOjeda1","gender":"1","age":"11","school":"6"},{"start_time":1551881703066,"click_time":1551881703904,"finger_time":1551881703644,"fix_duration":360.6860800952807,"trial":39,"RT":578,"MT":260,"sideResp":1,"stimulus":"img/500/equaldotanddens/L/11_Ratio_500_L_12_R_6.png","xmouse":[813,813,813,813,813,813,813,813,813,813,813,813,813,813,813,813,813,813,813,813,813,813,813,813,813,812,811,795,765,721,641,600,580,575,567,555,549,549,549,545,538,498],"ymouse":[640,640,640,640,640,640,640,640,640,640,640,640,640,640,640,640,640,640,640,640,640,640,640,640,640,638,632,578,498,396,255,187,145,130,113,96,87,87,87,86,85,80],"timestamp_mouse":[18,49,58,78,99,119,138,158,179,198,219,238,259,279,298,318,338,358,379,397,419,438,459,478,498,518,539,558,578,598,618,638,658,678,698,718,738,759,779,798,818,838],"xSR":741.5,"ySR":573.95,"xT1":424.9,"yT1":0,"xT2":1058.1,"yT2":0,"toosoon":0,"cond_shown":"equaldotanddens","ratio_trial":500,"smaller_num":"6","larger_num":"12","correct_side":1,"subjID":"DianaSofiaMoraOjeda1","gender":"1","age":"11","school":"6"},{"start_time":1551881704876,"click_time":1551881705624,"finger_time":1551881705504,"fix_duration":250,"trial":40,"RT":628,"MT":120,"sideResp":2,"stimulus":"img/500/equaldotsize/R/15_Ratio_500_L_1_R_2.png","xmouse":[756,756,756,756,756,756,756,756,756,756,756,756,756,756,756,756,756,756,756,756,756,756,756,756,756,756,756,758,762,772,788,836,956,1009,1049,1076,1095,1100],"ymouse":[609,609,609,609,609,609,609,609,609,609,609,609,609,609,609,609,609,609,609,609,609,609,609,609,609,609,609,608,606,598,577,508,364,288,233,176,110,91],"timestamp_mouse":[8,28,48,68,89,109,128,148,168,189,209,229,248,269,287,308,329,348,368,388,408,428,448,468,487,508,528,548,568,589,607,628,648,668,688,708,728,748],"xSR":741.5,"ySR":573.95,"xT1":424.9,"yT1":0,"xT2":1058.1,"yT2":0,"toosoon":0,"cond_shown":"equaldotsize","ratio_trial":500,"smaller_num":"1","larger_num":"2","correct_side":2,"subjID":"DianaSofiaMoraOjeda1","gender":"1","age":"11","school":"6"},{"start_time":1551881707655,"click_time":1551881708424,"finger_time":1551881708045,"fix_duration":1069.3412157182618,"trial":41,"RT":390,"MT":379,"sideResp":2,"stimulus":"img/250/equaldotanddens/R/8_Ratio_250_L_1_R_4.png","xmouse":[822,822,822,822,822,822,822,822,822,822,822,822,822,822,822,822,822,822,822,826,828,846,880,910,943,980,1005,1033,1043,1054,1063,1072,1077,1080,1081,1082,1082,1082,1083],"ymouse":[600,600,600,600,600,600,600,600,600,600,600,600,600,600,600,600,600,600,590,565,548,463,305,228,152,90,50,4,0,0,0,0,0,0,0,0,0,0,3],"timestamp_mouse":[9,34,50,69,89,110,129,149,169,189,209,228,249,270,289,309,329,349,368,390,409,429,449,468,490,510,529,549,569,589,609,629,649,669,689,710,729,750,768],"xSR":741.5,"ySR":573.95,"xT1":424.9,"yT1":0,"xT2":1058.1,"yT2":0,"toosoon":0,"cond_shown":"equaldotanddens","ratio_trial":250,"smaller_num":"1","larger_num":"4","correct_side":2,"subjID":"DianaSofiaMoraOjeda1","gender":"1","age":"11","school":"6"},{"start_time":1551881710012,"click_time":1551881711284,"finger_time":1551881710504,"fix_duration":1125.3176581202629,"trial":42,"RT":492,"MT":780,"sideResp":1,"stimulus":"img/500/equaldotanddens/L/10_Ratio_500_L_4_R_2.png","xmouse":[786,786,786,786,786,786,786,786,786,786,786,786,786,786,786,786,786,786,786,786,786,786,787,793,795,795,789,775,743,669,651,641,626,610,578,569,566,565,565,563,560,555,545,538,534,534,531,529,527,526,526,526,527,532,542,548,551,553,553,553,552,542,496,479],"ymouse":[612,612,612,612,612,612,612,612,612,612,612,612,612,612,612,612,612,612,612,612,612,612,611,590,533,513,491,459,400,299,267,243,212,183,128,112,107,102,99,88,84,79,71,65,62,60,59,59,59,59,60,68,87,104,129,147,160,169,173,173,171,159,104,87],"timestamp_mouse":[13,39,52,73,92,112,132,153,171,193,212,233,251,273,292,311,333,353,372,392,412,432,453,473,492,511,532,552,573,592,612,633,653,672,693,712,733,752,772,793,812,832,851,872,892,911,932,952,972,992,1013,1032,1053,1072,1092,1112,1132,1152,1173,1192,1212,1231,1252,1272],"xSR":741.5,"ySR":573.95,"xT1":424.9,"yT1":0,"xT2":1058.1,"yT2":0,"toosoon":0,"cond_shown":"equaldotanddens","ratio_trial":500,"smaller_num":"2","larger_num":"4","correct_side":1,"subjID":"DianaSofiaMoraOjeda1","gender":"1","age":"11","school":"6"},{"start_time":1551881713482,"click_time":1551881714284,"finger_time":1551881713883,"fix_duration":1397.2899194052075,"trial":43,"RT":401,"MT":401,"sideResp":1,"stimulus":"img/500/randomdotsizeEA/L/10_Ratio_500_L_4_R_2.png","xmouse":[780,780,780,780,780,780,780,780,780,780,780,780,780,780,780,780,780,780,785,791,795,799,799,799,799,799,799,799,795,774,719,605,566,545,538,532,522,514,509,506,502],"ymouse":[593,593,593,593,593,593,593,593,593,593,593,593,593,593,593,593,593,593,590,579,573,568,568,568,568,568,568,567,561,527,463,317,257,222,199,180,147,127,114,104,95],"timestamp_mouse":[8,21,42,70,82,102,121,141,162,181,201,221,241,262,282,301,322,341,362,382,401,421,441,461,481,502,521,541,562,581,602,621,641,662,682,701,721,741,761,781,802],"xSR":741.5,"ySR":573.95,"xT1":424.9,"yT1":0,"xT2":1058.1,"yT2":0,"toosoon":0,"cond_shown":"randomdotsizeEA","ratio_trial":500,"smaller_num":"2","larger_num":"4","correct_side":1,"subjID":"DianaSofiaMoraOjeda1","gender":"1","age":"11","school":"6"},{"start_time":1551881715584,"click_time":1551881716204,"finger_time":1551881716064,"fix_duration":618.3411385503804,"trial":44,"RT":480,"MT":140,"sideResp":1,"stimulus":"img/250/equaldotanddens/L/14_Ratio_250_L_12_R_3.png","xmouse":[770,770,770,770,770,770,770,770,770,770,770,770,770,770,770,770,770,770,770,770,770,770,768,765,752,703,670,602,567,528,498,471],"ymouse":[641,641,641,641,641,641,641,641,641,641,641,641,641,641,641,641,641,641,641,641,641,641,622,605,549,439,381,287,233,183,137,90],"timestamp_mouse":[1,19,39,60,80,99,119,139,159,180,200,219,241,259,280,299,320,339,359,379,400,420,439,459,480,500,520,539,559,579,599,620],"xSR":741.5,"ySR":573.95,"xT1":424.9,"yT1":0,"xT2":1058.1,"yT2":0,"toosoon":0,"cond_shown":"equaldotanddens","ratio_trial":250,"smaller_num":"3","larger_num":"12","correct_side":1,"subjID":"DianaSofiaMoraOjeda1","gender":"1","age":"11","school":"6"},{"start_time":1551881719451,"click_time":1551881727004,"finger_time":1551881720483,"fix_duration":1067.8734629966107,"trial":45,"RT":1032,"MT":6521,"sideResp":1,"stimulus":"img/750/equaldotanddens/L/10_Ratio_750_L_4_R_3.png","xmouse":[796,796,796,796,796,796,796,796,796,796,796,796,796,796,796,796,796,796,796,796,796,796,796,796,796,796,796,796,796,796,796,796,796,796,796,796,796,796,796,796,796,796,796,796,796,796,796,796,796,796,794,755,716,716,716,716,716,716,716,716,713,708,682,613,565,554,554,554,554,554,554,554,554,569,594,629,668,724,739,752,780,800,822,851,851,851,850,847,846,846,846,846,846,846,846,846,846,846,846,846,846,846,846,846,846,846,846,846,846,846,846,846,846,846,846,846,846,846,846,846,846,846,846,846,846,846,846,846,846,846,846,846,846,846,846,846,846,846,846,846,846,846,846,846,846,846,846,846,846,846,846,846,846,846,846,846,846,846,846,846,846,846,846,846,846,846,846,846,846,846,846,846,846,846,846,846,846,846,846,846,846,846,846,846,846,846,846,846,846,846,846,846,846,846,846,846,846,846,846,846,846,846,846,846,846,846,846,846,846,846,846,846,846,846,846,846,846,846,846,846,846,846,846,846,846,846,846,846,846,846,846,846,846,846,846,846,846,846,846,846,846,846,846,846,846,846,846,846,846,846,846,846,846,846,846,846,846,846,846,846,846,846,846,846,846,846,846,846,846,846,846,846,846,846,846,846,846,846,846,846,846,846,846,846,846,846,846,846,846,846,846,846,846,846,846,846,846,846,846,846,846,846,846,846,846,846,846,846,846,846,846,846,846,846,846,846,846,846,846,846,846,846,846,846,846,846,846,846,846,846,846,846,817,793,763,729,709,702,693,686,685,680,672,650,645,645,644,644,644,644,653,679,739,898,956,981,993,997,1002,1003,1004,1004,1004,986,949,908,865,752,698,651,620,595,574,568,563,554,537,496],"ymouse":[629,629,629,629,629,629,629,629,629,629,629,629,629,629,629,629,629,629,629,629,629,629,629,629,629,629,629,629,629,629,629,629,629,629,629,629,629,629,629,629,629,629,629,629,629,629,629,629,627,621,604,542,505,504,504,504,504,504,504,504,497,478,378,236,177,168,168,168,168,168,168,169,171,208,255,304,350,413,427,432,440,449,459,473,477,480,481,481,481,481,481,481,481,481,481,481,481,481,481,481,481,481,481,481,481,481,481,481,481,481,481,481,481,481,481,481,481,481,481,481,481,481,481,481,481,481,481,481,481,481,481,481,481,481,481,481,481,481,481,481,481,481,481,481,481,481,481,481,481,481,481,481,481,481,481,481,481,481,481,481,481,481,481,481,481,481,481,481,481,481,481,481,481,481,481,481,481,481,481,481,481,481,481,481,481,481,481,481,481,481,481,481,481,481,481,481,481,481,481,481,481,481,481,481,481,481,481,481,481,481,481,481,481,481,481,481,481,481,481,481,481,481,481,481,481,481,481,481,481,481,481,481,481,481,481,481,481,481,481,481,481,481,481,481,481,481,481,481,481,481,481,481,481,481,481,481,481,481,481,481,481,481,481,481,481,481,481,481,481,481,481,481,481,481,481,481,481,481,481,481,481,481,481,481,481,481,481,481,481,481,481,481,481,481,481,481,481,481,481,481,481,481,481,481,481,481,481,481,481,481,481,481,481,481,481,481,481,481,481,481,481,481,481,481,481,481,481,481,481,481,481,481,438,419,399,375,355,343,330,327,327,326,325,322,321,321,321,321,321,321,320,315,307,300,300,299,299,299,302,303,303,303,296,265,212,166,134,64,26,0,0,0,0,0,0,1,6,23],"timestamp_mouse":[14,38,52,73,94,112,133,152,172,192,213,232,252,272,292,313,332,352,372,392,412,432,453,472,492,513,532,552,572,594,612,632,652,672,693,712,732,752,773,792,812,832,853,872,892,912,932,953,972,993,1013,1032,1052,1072,1092,1112,1132,1153,1172,1193,1213,1232,1252,1273,1293,1312,1333,1353,1372,1393,1412,1433,1452,1472,1492,1513,1533,1553,1572,1592,1613,1633,1652,1673,1692,1713,1732,1752,1774,1792,1812,1833,1852,1872,1892,1912,1933,1952,1973,1992,2013,2032,2052,2072,2092,2113,2133,2153,2173,2193,2213,2232,2254,2272,2292,2312,2332,2353,2372,2392,2412,2432,2453,2473,2493,2512,2532,2553,2572,2593,2612,2633,2652,2673,2692,2713,2734,2753,2773,2792,2812,2833,2853,2872,2893,2913,2932,2954,2973,2992,3012,3034,3053,3073,3092,3112,3133,3152,3172,3192,3212,3233,3253,3272,3293,3313,3332,3352,3372,3392,3412,3432,3452,3473,3492,3512,3532,3552,3572,3592,3614,3633,3652,3673,3692,3713,3732,3752,3773,3793,3813,3834,3852,3873,3892,3913,3932,3953,3972,3992,4012,4032,4053,4073,4092,4112,4132,4152,4172,4193,4212,4233,4253,4272,4292,4312,4332,4353,4372,4392,4412,4432,4452,4473,4493,4512,4533,4553,4573,4594,4613,4632,4653,4672,4692,4712,4733,4753,4773,4793,4812,4832,4852,4872,4892,4913,4933,4953,4973,4993,5012,5033,5053,5073,5092,5112,5132,5152,5174,5192,5212,5232,5252,5273,5294,5313,5332,5353,5373,5393,5412,5433,5452,5472,5493,5512,5532,5553,5572,5593,5612,5633,5653,5672,5693,5712,5732,5752,5772,5792,5812,5833,5852,5872,5892,5913,5933,5953,5973,5992,6012,6033,6052,6072,6092,6112,6133,6152,6173,6192,6213,6232,6252,6273,6292,6312,6333,6352,6373,6393,6413,6432,6452,6472,6493,6512,6533,6553,6573,6592,6613,6632,6653,6672,6694,6712,6733,6752,6773,6792,6813,6832,6852,6873,6893,6913,6932,6953,6972,6993,7012,7033,7052,7073,7092,7113,7132,7152,7172,7192,7212,7232,7252,7272,7292,7313,7332,7353,7372,7393,7412,7432,7453,7473,7493,7513,7532,7553],"xSR":741.5,"ySR":573.95,"xT1":424.9,"yT1":0,"xT2":1058.1,"yT2":0,"toosoon":0,"cond_shown":"equaldotanddens","ratio_trial":750,"smaller_num":"3","larger_num":"4","correct_side":1,"subjID":"DianaSofiaMoraOjeda1","gender":"1","age":"11","school":"6"},{"start_time":1551881729182,"click_time":1551881730403,"finger_time":1551881730244,"fix_duration":1356.318299468577,"trial":46,"RT":1062,"MT":159,"sideResp":1,"stimulus":"img/750/randomdotsizeEA/L/14_Ratio_750_L_8_R_6.png","xmouse":[767,767,767,767,767,767,767,767,767,767,767,767,767,767,767,767,767,767,767,767,767,767,767,767,767,767,767,767,767,767,767,767,767,767,767,767,767,767,767,767,767,767,767,767,767,767,767,767,766,763,759,756,758,740,647,590,555,548,542,531,522,515],"ymouse":[646,646,646,646,646,646,646,646,646,646,646,646,646,646,646,646,646,646,646,646,646,646,646,646,646,646,646,646,646,646,646,646,646,646,646,646,646,646,646,646,646,646,646,646,646,646,646,646,646,644,643,637,588,505,337,248,173,155,142,125,105,90],"timestamp_mouse":[9,21,41,62,81,103,121,141,162,181,201,221,241,261,282,302,322,342,363,381,401,421,441,463,481,502,523,541,562,581,602,622,642,661,683,701,721,742,763,782,803,822,841,861,881,903,921,942,961,982,1001,1021,1041,1062,1082,1101,1121,1141,1162,1181,1201,1221],"xSR":741.5,"ySR":573.95,"xT1":424.9,"yT1":0,"xT2":1058.1,"yT2":0,"toosoon":0,"cond_shown":"randomdotsizeEA","ratio_trial":750,"smaller_num":"6","larger_num":"8","correct_side":1,"subjID":"DianaSofiaMoraOjeda1","gender":"1","age":"11","school":"6"},{"start_time":1551881732070,"click_time":1551881732723,"finger_time":1551881732564,"fix_duration":884.5941031543155,"trial":47,"RT":494,"MT":159,"sideResp":1,"stimulus":"img/250/equaldotsize/L/2_Ratio_250_L_16_R_4.png","xmouse":[822,822,822,822,822,822,822,822,822,822,822,822,822,822,822,822,822,822,822,822,822,822,820,802,770,730,656,624,599,588,574,529,492],"ymouse":[629,629,629,629,629,629,629,629,629,629,629,629,629,629,629,629,629,629,629,629,629,629,621,581,516,446,335,295,264,240,208,137,94],"timestamp_mouse":[14,34,54,74,93,113,133,154,174,193,214,234,253,273,293,313,333,354,374,393,414,433,454,473,494,514,533,553,573,593,615,633,653],"xSR":741.5,"ySR":573.95,"xT1":424.9,"yT1":0,"xT2":1058.1,"yT2":0,"toosoon":0,"cond_shown":"equaldotsize","ratio_trial":250,"smaller_num":"4","larger_num":"16","correct_side":1,"subjID":"DianaSofiaMoraOjeda1","gender":"1","age":"11","school":"6"},{"start_time":1551881734758,"click_time":1551881735485,"finger_time":1551881735304,"fix_duration":352.6018208493997,"trial":48,"RT":546,"MT":181,"sideResp":1,"stimulus":"img/500/equaldotsize/L/7_Ratio_500_L_10_R_5.png","xmouse":[796,796,796,796,796,796,796,796,796,796,796,796,796,796,796,796,796,796,796,796,796,792,790,790,790,789,787,739,710,680,652,629,577,561,549,533,524],"ymouse":[620,620,620,620,620,620,620,620,620,620,620,620,620,620,620,620,620,620,618,617,616,613,612,612,612,611,601,501,451,397,345,303,208,175,145,112,95],"timestamp_mouse":[8,39,45,67,86,105,127,146,165,186,205,225,247,266,286,305,326,345,366,386,406,425,445,466,485,505,526,546,565,585,605,625,645,665,685,706,727],"xSR":741.5,"ySR":573.95,"xT1":424.9,"yT1":0,"xT2":1058.1,"yT2":0,"toosoon":0,"cond_shown":"equaldotsize","ratio_trial":500,"smaller_num":"5","larger_num":"10","correct_side":1,"subjID":"DianaSofiaMoraOjeda1","gender":"1","age":"11","school":"6"},{"start_time":1551881736998,"click_time":1551881737865,"finger_time":1551881737603,"fix_duration":611.4906835405087,"trial":49,"RT":605,"MT":262,"sideResp":1,"stimulus":"img/900/equaldotanddens/L/1_Ratio_900_L_10_R_9.png","xmouse":[802,802,802,802,802,802,802,802,802,802,802,802,802,802,802,802,802,802,802,802,802,802,802,802,802,802,802,802,802,802,793,765,731,694,657,620,596,569,554,542,529,509,500,491],"ymouse":[609,609,609,609,609,609,609,609,609,609,609,609,609,609,609,609,609,609,609,609,609,609,609,609,609,609,609,609,609,604,568,506,447,402,356,292,250,211,189,172,154,121,106,89],"timestamp_mouse":[10,38,45,66,85,105,125,145,165,186,206,227,246,265,286,305,326,346,366,386,407,425,446,466,486,505,525,546,565,586,605,625,645,667,686,705,725,745,767,785,805,825,846,866],"xSR":741.5,"ySR":573.95,"xT1":424.9,"yT1":0,"xT2":1058.1,"yT2":0,"toosoon":0,"cond_shown":"equaldotanddens","ratio_trial":900,"smaller_num":"9","larger_num":"10","correct_side":1,"subjID":"DianaSofiaMoraOjeda1","gender":"1","age":"11","school":"6"},{"start_time":1551881738816,"click_time":1551881740003,"finger_time":1551881739323,"fix_duration":250,"trial":50,"RT":507,"MT":680,"sideResp":1,"stimulus":"img/500/equaldotsize/L/4_Ratio_500_L_18_R_9.png","xmouse":[796,796,796,796,796,796,796,796,796,796,796,796,796,796,796,796,796,796,796,796,796,796,796,796,796,778,740,717,709,687,666,655,649,646,642,637,628,619,612,608,596,581,565,544,537,537,536,534,532,531,531,530,529,529,529,529,529,529,527,513],"ymouse":[601,601,601,601,601,601,601,601,601,601,601,601,601,601,601,601,601,601,601,601,601,601,601,601,600,546,491,449,420,319,249,210,190,172,146,129,109,92,85,84,81,81,81,77,75,75,75,75,75,75,75,75,78,84,85,85,85,86,86,83],"timestamp_mouse":[7,37,48,68,87,107,127,148,167,188,207,227,248,267,288,308,328,348,367,388,408,427,447,468,487,507,528,547,568,587,607,628,648,668,688,707,728,747,768,787,808,827,848,868,887,907,928,948,968,988,1008,1028,1048,1067,1088,1108,1127,1147,1167,1187],"xSR":741.5,"ySR":573.95,"xT1":424.9,"yT1":0,"xT2":1058.1,"yT2":0,"toosoon":0,"cond_shown":"equaldotsize","ratio_trial":500,"smaller_num":"9","larger_num":"18","correct_side":1,"subjID":"DianaSofiaMoraOjeda1","gender":"1","age":"11","school":"6"},{"start_time":1551881740975,"click_time":1551881741823,"finger_time":1551881741684,"fix_duration":250,"trial":51,"RT":709,"MT":139,"sideResp":2,"stimulus":"img/900/randomdotsizeEA/L/4_Ratio_900_L_20_R_18.png","xmouse":[778,778,778,778,778,778,778,778,778,778,778,778,778,778,778,778,778,778,778,778,778,778,778,778,778,778,778,778,778,778,781,784,786,786,788,797,843,889,923,964,1007,1069,1086],"ymouse":[597,597,597,597,597,597,597,597,597,597,597,597,597,597,597,597,597,597,597,597,597,597,597,597,597,597,597,597,597,597,591,586,584,582,580,570,502,422,351,289,228,107,60],"timestamp_mouse":[9,30,61,69,89,108,129,149,168,188,210,229,248,268,289,309,329,349,370,389,409,428,448,468,488,510,529,548,568,588,608,628,649,669,688,709,728,750,768,788,809,828,848],"xSR":741.5,"ySR":573.95,"xT1":424.9,"yT1":0,"xT2":1058.1,"yT2":0,"toosoon":0,"cond_shown":"randomdotsizeEA","ratio_trial":900,"smaller_num":"18","larger_num":"20","correct_side":1,"subjID":"DianaSofiaMoraOjeda1","gender":"1","age":"11","school":"6"},{"start_time":1551881744438,"click_time":1551881745265,"finger_time":1551881745085,"fix_duration":1451.0762906536038,"trial":52,"RT":647,"MT":180,"sideResp":2,"stimulus":"img/900/equaldotsize/R/7_Ratio_900_L_9_R_10.png","xmouse":[752,752,752,752,752,752,752,752,752,752,752,752,752,752,752,752,752,752,752,752,752,752,752,752,752,752,752,752,752,752,758,765,808,909,950,979,1004,1019,1037,1047,1057,1067],"ymouse":[640,640,640,640,640,640,640,640,640,640,640,640,640,640,640,640,640,640,640,640,640,640,640,640,640,640,640,640,640,640,637,623,551,384,285,218,161,121,65,48,36,24],"timestamp_mouse":[10,31,47,65,85,105,125,146,167,185,206,225,245,265,286,307,325,347,365,385,406,425,446,465,485,505,525,546,566,585,606,626,647,665,685,705,725,746,765,785,805,827],"xSR":741.5,"ySR":573.95,"xT1":424.9,"yT1":0,"xT2":1058.1,"yT2":0,"toosoon":0,"cond_shown":"equaldotsize","ratio_trial":900,"smaller_num":"9","larger_num":"10","correct_side":2,"subjID":"DianaSofiaMoraOjeda1","gender":"1","age":"11","school":"6"},{"start_time":1551881747097,"click_time":1551881747883,"finger_time":1551881747625,"fix_duration":1033.0244390052992,"trial":53,"RT":528,"MT":258,"sideResp":1,"stimulus":"img/500/equaldotsize/L/10_Ratio_500_L_4_R_2.png","xmouse":[805,805,805,805,805,805,805,805,805,805,805,805,805,805,805,805,805,805,805,805,805,805,805,805,804,790,770,752,735,705,645,630,609,594,578,552,543,536,524,515],"ymouse":[604,604,604,604,604,604,604,604,604,604,604,604,604,604,604,604,604,604,604,604,604,604,604,604,603,584,550,512,467,403,304,278,246,224,202,161,145,129,105,91],"timestamp_mouse":[9,40,46,67,86,106,128,147,166,186,206,226,247,267,287,308,327,347,368,387,407,426,446,466,486,506,528,547,566,586,606,626,646,667,686,707,726,746,768,786],"xSR":741.5,"ySR":573.95,"xT1":424.9,"yT1":0,"xT2":1058.1,"yT2":0,"toosoon":0,"cond_shown":"equaldotsize","ratio_trial":500,"smaller_num":"2","larger_num":"4","correct_side":1,"subjID":"DianaSofiaMoraOjeda1","gender":"1","age":"11","school":"6"},{"start_time":1551881749449,"click_time":1551881750203,"finger_time":1551881750043,"fix_duration":925.3783556789289,"trial":54,"RT":594,"MT":160,"sideResp":2,"stimulus":"img/900/randomdotsizeEA/R/15_Ratio_900_L_9_R_10.png","xmouse":[799,799,799,799,799,799,799,799,799,799,799,799,799,799,799,799,799,799,799,799,799,799,799,799,799,799,799,802,830,861,895,941,1004,1027,1039,1047,1054,1071],"ymouse":[631,631,631,631,631,631,631,631,631,631,631,631,631,631,631,631,631,631,631,631,631,631,631,631,631,631,630,625,590,554,508,363,193,136,111,94,79,50],"timestamp_mouse":[15,36,55,75,94,116,135,155,174,194,214,236,254,275,294,314,334,354,376,395,414,435,454,474,494,514,534,554,575,594,615,634,654,674,694,714,735,754],"xSR":741.5,"ySR":573.95,"xT1":424.9,"yT1":0,"xT2":1058.1,"yT2":0,"toosoon":0,"cond_shown":"randomdotsizeEA","ratio_trial":900,"smaller_num":"9","larger_num":"10","correct_side":2,"subjID":"DianaSofiaMoraOjeda1","gender":"1","age":"11","school":"6"},{"start_time":1551881751717,"click_time":1551881752724,"finger_time":1551881752463,"fix_duration":813.3928753295917,"trial":55,"RT":746,"MT":261,"sideResp":2,"stimulus":"img/750/randomdotsizeEA/R/15_Ratio_750_L_9_R_12.png","xmouse":[794,794,794,794,794,794,794,794,794,794,794,794,794,794,794,794,794,794,794,794,794,794,794,794,794,794,794,794,794,794,794,794,794,794,794,798,810,848,942,1073,1113,1127,1134,1136,1138,1146,1151,1152,1152,1152,1144],"ymouse":[637,637,637,637,637,637,637,637,637,637,637,637,637,637,637,637,637,637,637,637,637,637,637,637,637,637,637,637,637,637,637,637,637,637,637,629,612,548,393,230,182,163,154,150,146,125,110,107,104,102,93],"timestamp_mouse":[9,38,46,66,88,107,127,147,167,186,207,227,246,266,287,306,326,347,366,386,407,426,446,466,487,507,528,547,566,586,607,626,646,666,687,706,727,746,766,786,807,826,846,866,886,907,927,946,966,986,1007],"xSR":741.5,"ySR":573.95,"xT1":424.9,"yT1":0,"xT2":1058.1,"yT2":0,"toosoon":0,"cond_shown":"randomdotsizeEA","ratio_trial":750,"smaller_num":"9","larger_num":"12","correct_side":2,"subjID":"DianaSofiaMoraOjeda1","gender":"1","age":"11","school":"6"},{"start_time":1551881754155,"click_time":1551881755323,"finger_time":1551881754845,"fix_duration":650.0761763677654,"trial":56,"RT":690,"MT":478,"sideResp":2,"stimulus":"img/750/equaldotanddens/R/2_Ratio_750_L_6_R_8.png","xmouse":[822,822,822,822,822,822,822,822,822,822,822,822,822,822,822,822,822,822,822,822,822,822,822,822,822,822,822,822,822,822,822,822,822,831,843,881,942,1006,1026,1035,1037,1037,1037,1039,1041,1043,1044,1044,1044,1044,1044,1045,1047,1047,1048,1049,1052,1053,1059],"ymouse":[613,613,613,613,613,613,613,613,613,613,613,613,613,613,613,613,613,613,613,613,613,613,613,613,613,613,613,613,613,613,613,613,613,592,570,506,360,226,192,170,153,133,113,84,70,61,57,57,57,57,59,64,71,71,72,72,72,71,69],"timestamp_mouse":[8,35,49,68,88,108,128,149,168,190,208,228,248,269,288,310,328,348,369,388,408,428,448,468,489,509,530,548,569,588,608,629,649,668,690,708,728,748,768,788,808,828,848,868,888,909,929,949,969,988,1009,1028,1048,1068,1090,1108,1128,1148,1168],"xSR":741.5,"ySR":573.95,"xT1":424.9,"yT1":0,"xT2":1058.1,"yT2":0,"toosoon":0,"cond_shown":"equaldotanddens","ratio_trial":750,"smaller_num":"6","larger_num":"8","correct_side":2,"subjID":"DianaSofiaMoraOjeda1","gender":"1","age":"11","school":"6"},{"start_time":1551881756876,"click_time":1551881758523,"finger_time":1551881757984,"fix_duration":450.0991094029936,"trial":57,"RT":1108,"MT":539,"sideResp":2,"stimulus":"img/500/randomdotsizeEA/R/3_Ratio_500_L_10_R_20.png","xmouse":[764,764,764,764,764,764,764,764,764,764,764,764,764,764,764,764,764,764,764,764,764,764,764,764,764,764,764,764,764,764,764,764,764,764,764,764,764,764,764,764,764,764,764,764,764,790,795,795,795,795,794,794,794,794,821,849,900,890,875,861,855,855,854,854,856,858,860,884,906,932,957,986,1032,1040,1043,1043,1044,1047,1050,1050,1050,1050,1063],"ymouse":[651,651,651,651,651,651,651,651,651,651,651,651,651,651,651,651,651,651,651,651,651,651,651,651,651,651,651,651,651,651,651,651,651,651,651,651,651,651,651,651,651,651,651,651,651,623,619,619,619,618,618,618,618,618,603,580,426,309,195,111,47,21,0,0,0,0,0,6,15,26,34,38,44,45,45,45,45,42,41,41,40,40,40],"timestamp_mouse":[8,33,48,67,88,108,127,148,168,187,208,227,248,267,287,307,327,347,367,388,407,427,448,467,487,508,528,547,567,587,608,628,648,667,688,708,727,747,768,788,808,827,848,867,888,907,928,948,968,988,1007,1029,1047,1068,1088,1108,1128,1149,1167,1188,1208,1227,1247,1267,1287,1307,1328,1347,1368,1388,1407,1427,1447,1467,1488,1508,1527,1547,1568,1588,1607,1627,1647],"xSR":741.5,"ySR":573.95,"xT1":424.9,"yT1":0,"xT2":1058.1,"yT2":0,"toosoon":0,"cond_shown":"randomdotsizeEA","ratio_trial":500,"smaller_num":"10","larger_num":"20","correct_side":2,"subjID":"DianaSofiaMoraOjeda1","gender":"1","age":"11","school":"6"},{"start_time":1551881761066,"click_time":1551881761903,"finger_time":1551881761604,"fix_duration":1220.4898501061755,"trial":58,"RT":538,"MT":299,"sideResp":2,"stimulus":"img/500/randomdotsizeEA/R/12_Ratio_500_L_1_R_2.png","xmouse":[800,800,800,800,800,800,800,800,800,800,800,800,800,800,800,800,800,800,800,800,800,800,800,800,800,800,808,834,868,903,935,949,965,970,973,978,987,1015,1034,1041,1056,1063],"ymouse":[598,598,598,598,598,598,598,598,598,598,598,598,598,598,598,598,598,598,598,598,598,598,598,598,598,598,572,507,427,336,222,173,126,118,114,112,108,94,89,88,87,84],"timestamp_mouse":[18,37,57,78,99,118,137,158,177,198,219,237,258,279,298,318,337,358,378,397,418,437,459,477,498,519,538,557,578,597,617,637,657,678,697,718,738,758,778,798,819,837],"xSR":741.5,"ySR":573.95,"xT1":424.9,"yT1":0,"xT2":1058.1,"yT2":0,"toosoon":0,"cond_shown":"randomdotsizeEA","ratio_trial":500,"smaller_num":"1","larger_num":"2","correct_side":2,"subjID":"DianaSofiaMoraOjeda1","gender":"1","age":"11","school":"6"},{"start_time":1551881764001,"click_time":1551881764665,"finger_time":1551881764503,"fix_duration":1357.2423722937212,"trial":59,"RT":502,"MT":162,"sideResp":2,"stimulus":"img/750/equaldotanddens/R/2_Ratio_750_L_6_R_8.png","xmouse":[826,826,826,826,826,826,826,826,826,826,826,826,826,826,826,826,826,826,826,826,826,826,826,827,830,851,872,894,920,946,992,1019,1048,1074],"ymouse":[619,619,619,619,619,619,619,619,619,619,619,619,619,619,619,619,619,619,619,619,619,619,619,619,617,574,533,471,385,305,180,142,111,94],"timestamp_mouse":[11,35,44,63,83,102,122,143,162,182,203,222,243,262,282,302,322,343,362,382,402,422,444,463,482,502,522,542,563,582,603,622,643,663],"xSR":741.5,"ySR":573.95,"xT1":424.9,"yT1":0,"xT2":1058.1,"yT2":0,"toosoon":0,"cond_shown":"equaldotanddens","ratio_trial":750,"smaller_num":"6","larger_num":"8","correct_side":2,"subjID":"DianaSofiaMoraOjeda1","gender":"1","age":"11","school":"6"},{"start_time":1551881765981,"click_time":1551881766883,"finger_time":1551881766444,"fix_duration":456.7030329182219,"trial":60,"RT":463,"MT":439,"sideResp":2,"stimulus":"img/750/equaldotsize/R/11_Ratio_750_L_12_R_16.png","xmouse":[813,813,813,813,813,813,813,813,813,813,813,813,813,813,813,813,813,813,813,813,813,813,822,847,878,921,945,986,1002,1021,1032,1048,1055,1064,1072,1077,1078,1078,1078,1078,1078,1078,1078,1078,1083,1091],"ymouse":[599,599,599,599,599,599,599,599,599,599,599,599,599,599,599,599,599,599,599,599,599,599,586,539,476,360,296,194,166,144,131,119,115,110,108,108,108,112,114,115,115,115,115,115,102,84],"timestamp_mouse":[5,24,42,69,82,103,122,143,164,183,202,222,242,262,283,302,322,342,362,382,402,422,443,463,483,502,522,543,562,582,602,622,642,662,682,704,722,742,763,782,803,822,844,863,882,902],"xSR":741.5,"ySR":573.95,"xT1":424.9,"yT1":0,"xT2":1058.1,"yT2":0,"toosoon":0,"cond_shown":"equaldotsize","ratio_trial":750,"smaller_num":"12","larger_num":"16","correct_side":2,"subjID":"DianaSofiaMoraOjeda1","gender":"1","age":"11","school":"6"},{"start_time":1551881768531,"click_time":1551881769625,"finger_time":1551881768864,"fix_duration":966.5572745615996,"trial":61,"RT":333,"MT":761,"sideResp":2,"stimulus":"img/750/randomdotsizeEA/L/10_Ratio_750_L_4_R_3.png","xmouse":[827,827,827,827,827,827,827,827,827,827,827,827,828,832,836,840,843,844,845,845,845,845,846,848,848,848,848,848,848,848,848,848,848,853,860,877,904,932,965,979,989,997,1007,1034,1042,1049,1053,1059,1066,1068,1069,1070,1070,1070,1069],"ymouse":[646,646,646,646,646,646,646,646,646,646,646,646,646,632,616,602,593,585,582,582,582,579,576,571,571,571,571,571,571,571,571,571,569,544,503,438,355,296,210,188,173,166,161,153,152,149,147,140,127,121,117,113,108,103,91],"timestamp_mouse":[13,38,52,73,93,113,134,152,172,193,213,232,252,273,292,313,333,352,372,392,412,432,453,472,492,513,532,552,572,593,612,633,652,673,692,712,733,753,772,792,812,833,853,873,894,914,933,952,972,992,1012,1033,1052,1073,1094],"xSR":741.5,"ySR":573.95,"xT1":424.9,"yT1":0,"xT2":1058.1,"yT2":0,"toosoon":0,"cond_shown":"randomdotsizeEA","ratio_trial":750,"smaller_num":"3","larger_num":"4","correct_side":1,"subjID":"DianaSofiaMoraOjeda1","gender":"1","age":"11","school":"6"},{"start_time":1551881771136,"click_time":1551881771843,"finger_time":1551881771683,"fix_duration":770.5350666221225,"trial":62,"RT":547,"MT":160,"sideResp":1,"stimulus":"img/250/randomdotsizeEA/L/14_Ratio_250_L_12_R_3.png","xmouse":[777,777,777,777,777,777,777,777,777,777,777,777,777,777,777,777,777,777,777,777,777,777,777,777,778,776,768,720,618,554,506,485,476,471,466,466],"ymouse":[629,629,629,629,629,629,629,629,629,629,629,629,629,629,629,629,629,629,629,629,629,629,629,629,627,620,594,492,311,236,184,160,145,133,105,90],"timestamp_mouse":[8,34,47,68,88,107,128,147,167,187,208,227,248,268,287,307,327,348,367,388,407,427,448,467,487,508,528,547,567,587,607,627,647,667,687,707],"xSR":741.5,"ySR":573.95,"xT1":424.9,"yT1":0,"xT2":1058.1,"yT2":0,"toosoon":0,"cond_shown":"randomdotsizeEA","ratio_trial":250,"smaller_num":"3","larger_num":"12","correct_side":1,"subjID":"DianaSofiaMoraOjeda1","gender":"1","age":"11","school":"6"},{"start_time":1551881772855,"click_time":1551881773684,"finger_time":1551881773303,"fix_duration":250,"trial":63,"RT":448,"MT":381,"sideResp":2,"stimulus":"img/250/randomdotsizeEA/R/8_Ratio_250_L_1_R_4.png","xmouse":[814,814,814,814,814,814,814,814,814,814,814,814,814,814,814,814,814,814,814,814,814,814,834,857,876,899,927,968,982,998,1026,1048,1084,1096,1105,1108,1109,1109,1109,1109,1109,1109],"ymouse":[623,623,623,623,623,623,623,623,623,623,623,623,623,623,623,623,623,623,623,623,623,619,556,485,412,318,218,108,80,58,33,18,0,0,0,0,0,0,0,0,0,3],"timestamp_mouse":[9,31,49,68,88,108,128,148,169,188,209,229,249,269,289,308,328,349,369,390,408,428,448,468,488,508,530,548,568,588,609,630,649,669,689,709,729,748,769,789,809,829],"xSR":741.5,"ySR":573.95,"xT1":424.9,"yT1":0,"xT2":1058.1,"yT2":0,"toosoon":0,"cond_shown":"randomdotsizeEA","ratio_trial":250,"smaller_num":"1","larger_num":"4","correct_side":2,"subjID":"DianaSofiaMoraOjeda1","gender":"1","age":"11","school":"6"},{"start_time":1551881775064,"click_time":1551881775865,"finger_time":1551881775544,"fix_duration":559.000405041908,"trial":64,"RT":480,"MT":321,"sideResp":2,"stimulus":"img/250/equaldotanddens/R/13_Ratio_250_L_2_R_8.png","xmouse":[813,813,813,813,813,813,813,813,813,813,813,813,813,813,813,813,813,813,813,813,813,813,813,825,849,884,924,958,1015,1038,1055,1072,1081,1095,1100,1101,1102,1102,1102,1102,1102],"ymouse":[593,593,593,593,593,593,593,593,593,593,593,593,593,593,593,593,593,593,593,593,593,593,593,578,540,444,337,234,79,23,0,0,0,0,0,0,0,0,0,0,2],"timestamp_mouse":[5,20,40,61,81,101,121,140,160,181,200,220,241,259,280,299,320,340,360,380,401,420,440,461,480,500,521,541,560,580,601,620,640,660,681,700,721,740,760,780,801],"xSR":741.5,"ySR":573.95,"xT1":424.9,"yT1":0,"xT2":1058.1,"yT2":0,"toosoon":0,"cond_shown":"equaldotanddens","ratio_trial":250,"smaller_num":"2","larger_num":"8","correct_side":2,"subjID":"DianaSofiaMoraOjeda1","gender":"1","age":"11","school":"6"},{"start_time":1551881776556,"click_time":1551881777745,"finger_time":1551881777384,"fix_duration":250,"trial":65,"RT":828,"MT":361,"sideResp":1,"stimulus":"img/500/equaldotsize/L/5_Ratio_500_L_4_R_2.png","xmouse":[812,812,812,812,812,812,812,812,812,812,812,812,812,812,812,812,812,812,812,812,812,812,813,814,815,818,820,821,821,821,821,821,821,821,821,821,821,821,821,816,808,770,632,568,514,454,426,391,383,380,376,375,373,373,373,374,377,381,410,431],"ymouse":[644,644,644,644,644,644,644,644,644,644,644,644,644,644,644,644,644,644,644,642,637,633,630,624,618,608,601,595,593,593,593,593,593,593,593,593,593,593,593,588,584,561,475,422,353,249,184,108,88,79,69,60,41,35,30,28,27,27,29,32],"timestamp_mouse":[8,30,49,69,88,108,127,148,168,187,208,227,248,268,289,308,328,347,368,389,408,428,448,468,487,509,528,548,568,588,608,628,648,668,688,707,728,749,768,788,808,828,848,868,888,909,929,948,968,988,1008,1028,1048,1067,1088,1109,1128,1148,1169,1189],"xSR":741.5,"ySR":573.95,"xT1":424.9,"yT1":0,"xT2":1058.1,"yT2":0,"toosoon":0,"cond_shown":"equaldotsize","ratio_trial":500,"smaller_num":"2","larger_num":"4","correct_side":1,"subjID":"DianaSofiaMoraOjeda1","gender":"1","age":"11","school":"6"},{"start_time":1551881779408,"click_time":1551881780004,"finger_time":1551881779884,"fix_duration":881.1787812014337,"trial":66,"RT":476,"MT":120,"sideResp":2,"stimulus":"img/250/equaldotanddens/R/13_Ratio_250_L_2_R_8.png","xmouse":[794,794,793,793,793,793,793,793,793,793,792,792,792,792,792,792,792,792,792,792,792,792,797,837,876,956,993,1033,1069,1116],"ymouse":[617,617,618,619,619,619,619,619,619,619,619,619,619,619,619,619,619,619,619,619,619,620,613,552,490,324,236,166,107,44],"timestamp_mouse":[16,36,57,76,95,116,136,156,177,196,215,236,256,276,296,315,336,356,376,396,416,437,457,476,496,517,537,556,577,596],"xSR":741.5,"ySR":573.95,"xT1":424.9,"yT1":0,"xT2":1058.1,"yT2":0,"toosoon":0,"cond_shown":"equaldotanddens","ratio_trial":250,"smaller_num":"2","larger_num":"8","correct_side":2,"subjID":"DianaSofiaMoraOjeda1","gender":"1","age":"11","school":"6"},{"start_time":1551881782410,"click_time":1551881783324,"finger_time":1551881782884,"fix_duration":1484.717181231514,"trial":67,"RT":474,"MT":440,"sideResp":2,"stimulus":"img/500/equaldotanddens/R/6_Ratio_500_L_9_R_18.png","xmouse":[808,808,808,808,808,808,808,808,808,808,808,808,808,808,808,808,808,808,808,808,808,808,808,808,808,822,827,836,847,901,930,955,982,1002,1023,1027,1027,1027,1027,1027,1028,1030,1031,1037,1052,1062],"ymouse":[616,616,616,616,616,616,616,616,616,616,616,616,616,616,616,616,616,616,616,616,616,612,600,534,468,346,308,273,232,151,116,90,69,57,45,44,44,44,44,44,44,44,44,44,44,44],"timestamp_mouse":[15,34,54,74,95,115,134,154,174,194,213,234,253,274,294,314,334,354,375,394,413,434,455,474,494,513,534,555,575,594,615,634,654,674,694,715,734,755,775,794,815,834,855,874,894,913],"xSR":741.5,"ySR":573.95,"xT1":424.9,"yT1":0,"xT2":1058.1,"yT2":0,"toosoon":0,"cond_shown":"equaldotanddens","ratio_trial":500,"smaller_num":"9","larger_num":"18","correct_side":2,"subjID":"DianaSofiaMoraOjeda1","gender":"1","age":"11","school":"6"},{"start_time":1551881784411,"click_time":1551881785365,"finger_time":1551881785165,"fix_duration":384.92116335217463,"trial":68,"RT":754,"MT":200,"sideResp":1,"stimulus":"img/750/equaldotsize/L/6_Ratio_750_L_24_R_18.png","xmouse":[820,820,820,820,820,820,820,820,820,820,820,820,820,820,820,820,820,820,820,820,820,820,820,820,820,820,820,820,820,820,820,820,820,820,820,815,804,785,756,661,620,592,567,545,509,500,492,486],"ymouse":[603,603,603,603,603,603,603,603,603,603,603,603,603,603,603,603,603,603,603,603,603,603,603,603,603,603,603,603,603,603,603,603,603,603,603,598,581,549,499,358,303,257,219,186,131,116,107,97],"timestamp_mouse":[14,33,57,74,93,112,133,153,173,193,213,233,253,274,293,314,334,352,373,392,413,433,453,473,493,514,533,554,573,593,613,633,653,673,692,713,733,754,774,793,813,833,853,873,893,913,933,953],"xSR":741.5,"ySR":573.95,"xT1":424.9,"yT1":0,"xT2":1058.1,"yT2":0,"toosoon":0,"cond_shown":"equaldotsize","ratio_trial":750,"smaller_num":"18","larger_num":"24","correct_side":1,"subjID":"DianaSofiaMoraOjeda1","gender":"1","age":"11","school":"6"},{"start_time":1551881787199,"click_time":1551881788204,"finger_time":1551881787765,"fix_duration":1074.9930820664986,"trial":69,"RT":566,"MT":439,"sideResp":2,"stimulus":"img/250/equaldotsize/R/13_Ratio_250_L_2_R_8.png","xmouse":[791,791,791,791,791,791,791,791,791,791,791,791,791,791,791,791,791,791,791,791,791,791,791,791,791,795,810,824,842,864,893,906,922,937,966,985,985,985,986,988,999,1007,1014,1019,1026,1035,1042,1049,1054,1057,1060],"ymouse":[596,596,596,596,596,596,596,596,596,596,596,596,596,596,596,596,596,596,596,596,596,596,596,596,596,596,592,583,568,540,445,403,349,295,199,117,93,77,68,60,52,49,46,45,45,47,49,50,51,52,53],"timestamp_mouse":[9,25,50,65,86,105,125,146,165,186,205,225,245,266,284,305,325,345,366,386,406,426,445,466,485,504,525,544,566,586,605,625,645,665,685,705,724,745,765,785,805,826,844,865,885,905,925,945,965,985,1005],"xSR":741.5,"ySR":573.95,"xT1":424.9,"yT1":0,"xT2":1058.1,"yT2":0,"toosoon":0,"cond_shown":"equaldotsize","ratio_trial":250,"smaller_num":"2","larger_num":"8","correct_side":2,"subjID":"DianaSofiaMoraOjeda1","gender":"1","age":"11","school":"6"},{"start_time":1551881789373,"click_time":1551881790505,"finger_time":1551881790103,"fix_duration":467.3374991519218,"trial":70,"RT":730,"MT":402,"sideResp":1,"stimulus":"img/750/randomdotsizeEA/L/14_Ratio_750_L_8_R_6.png","xmouse":[786,786,786,786,786,786,786,786,786,786,786,787,787,788,788,788,788,788,788,788,788,788,788,788,788,788,788,788,788,788,788,788,788,789,789,789,762,734,694,632,554,423,382,365,359,357,357,357,357,357,357,358,365,375,395,412,431],"ymouse":[636,636,636,636,636,636,636,636,636,636,636,636,636,636,637,637,637,637,637,637,637,637,637,637,637,637,637,637,637,637,637,637,637,635,631,610,542,473,389,282,168,5,0,0,0,0,0,0,0,0,0,0,5,14,32,47,59],"timestamp_mouse":[11,31,51,71,91,111,131,151,170,190,211,232,251,271,291,311,332,351,372,392,412,431,451,472,491,511,532,551,571,592,612,631,652,672,691,711,730,750,771,791,811,830,852,871,891,911,932,951,972,992,1011,1031,1051,1071,1092,1112,1132],"xSR":741.5,"ySR":573.95,"xT1":424.9,"yT1":0,"xT2":1058.1,"yT2":0,"toosoon":0,"cond_shown":"randomdotsizeEA","ratio_trial":750,"smaller_num":"6","larger_num":"8","correct_side":1,"subjID":"DianaSofiaMoraOjeda1","gender":"1","age":"11","school":"6"},{"start_time":1551881791457,"click_time":1551881794024,"finger_time":1551881793645,"fix_duration":250,"trial":71,"RT":2188,"MT":379,"sideResp":2,"stimulus":"img/500/randomdotsizeEA/R/14_Ratio_500_L_5_R_10.png","xmouse":[760,760,760,760,760,760,760,760,760,760,760,760,760,760,760,760,760,760,760,760,760,760,760,760,760,760,760,760,760,760,760,760,760,760,760,760,760,760,760,760,760,760,760,760,760,760,760,760,760,760,760,760,760,760,760,760,760,760,760,760,760,760,760,760,760,760,760,760,760,760,760,760,760,760,760,760,760,760,760,760,760,760,760,760,760,760,760,760,760,760,760,760,760,760,760,760,760,760,760,760,760,760,760,760,760,760,760,773,802,829,860,906,934,967,973,974,974,980,984,987,994,1010,1042,1051,1061,1070,1072,1073,1082],"ymouse":[654,654,654,654,654,654,654,654,654,654,654,654,654,654,654,654,654,654,654,654,654,654,654,654,654,654,654,654,654,654,654,654,654,654,654,654,654,654,654,654,654,654,654,654,654,654,654,654,654,654,654,654,654,654,654,654,654,654,654,654,654,654,654,654,654,654,654,654,654,654,654,654,654,654,654,654,654,654,654,654,654,654,654,654,654,654,654,654,654,654,654,654,654,654,654,654,654,654,654,654,654,654,654,654,654,654,653,638,608,567,516,429,386,330,310,287,265,223,206,192,174,154,119,111,105,101,101,100,83],"timestamp_mouse":[7,30,48,67,88,107,127,147,167,188,207,228,247,267,288,307,327,348,367,388,407,427,448,467,488,507,528,548,568,587,608,626,647,667,687,707,727,747,767,788,808,827,846,867,887,907,928,948,967,987,1007,1027,1048,1068,1087,1107,1128,1147,1168,1187,1207,1228,1247,1267,1288,1308,1328,1347,1367,1388,1408,1428,1447,1467,1488,1508,1528,1548,1567,1586,1607,1628,1648,1668,1688,1707,1728,1748,1768,1787,1806,1827,1847,1867,1887,1907,1927,1947,1967,1988,2007,2027,2048,2067,2087,2107,2128,2147,2167,2188,2208,2228,2247,2268,2287,2308,2328,2348,2367,2387,2407,2427,2447,2466,2487,2507,2527,2547,2567],"xSR":741.5,"ySR":573.95,"xT1":424.9,"yT1":0,"xT2":1058.1,"yT2":0,"toosoon":0,"cond_shown":"randomdotsizeEA","ratio_trial":500,"smaller_num":"5","larger_num":"10","correct_side":2,"subjID":"DianaSofiaMoraOjeda1","gender":"1","age":"11","school":"6"},{"start_time":1551881796596,"click_time":1551881797423,"finger_time":1551881797265,"fix_duration":250,"trial":72,"RT":669,"MT":158,"sideResp":1,"stimulus":"img/750/randomdotsizeEA/R/7_Ratio_750_L_3_R_4.png","xmouse":[775,775,775,775,775,775,775,775,775,775,775,775,775,775,775,775,775,775,775,775,775,775,775,775,775,775,774,774,774,774,774,771,768,760,755,735,711,675,645,610,537,510],"ymouse":[625,625,625,625,625,625,625,625,625,625,625,625,625,625,625,625,625,625,625,625,625,625,