[{"start_time":1551880715234,"click_time":1551880726550,"finger_time":1551880715248,"fix_duration":361.9989539386542,"trial":0,"RT":14,"MT":11302,"sideResp":1,"stimulus":[],"xmouse":[804,804,804,804,804,804,804,804,804,804,804,804,804,804,804,804,804,804,804,804,804,804,804,804,804,804,804,804,804,804,804,804,804,804,804,804,804,804,804,806,807,807,807,807,807,807,807,807,807,807,807,807,807,807,807,807,807,807,807,807,807,807,807,807,807,807,807,807,807,807,807,807,807,807,807,807,807,807,807,807,807,807,807,807,807,807,807,807,807,807,807,807,807,807,807,807,807,807,807,807,807,807,807,807,807,807,807,807,807,807,807,807,807,807,807,807,807,807,807,807,807,807,807,807,807,807,807,807,807,807,807,807,807,807,807,807,807,807,807,807,807,807,807,807,805,802,796,794,792,791,790,788,788,787,785,784,780,778,777,775,774,772,772,771,771,771,771,771,771,771,771,771,771,771,771,771,771,771,771,771,771,771,771,771,771,771,771,771,771,771,771,771,771,771,772,777,795,809,828,859,894,926,940,945,958,964,969,969,967,966,963,936,900,861,827,808,792,789,788,786,785,785,785,785,785,785,786,788,790,792,796,797,799,800,804,809,815,815,815,815,815,814,811,808,805,805,805,802,798,792,789,789,789,789,789,789,789,792,795,800,806,818,832,839,842,842,861,874,892,911,924,925,926,926,926,925,892,862,830,801,775,747,747,747,747,746,741,740,739,739,738,738,738,738,741,746,761,775,791,810,822,834,841,841,841,841,840,835,825,814,804,788,770,767,765,764,762,762,762,762,762,762,762,762,762,762,762,762,762,762,762,762,762,762,762,762,762,762,762,762,762,762,762,762,762,762,762,762,762,762,762,762,762,762,762,762,762,762,762,762,762,775,802,808,808,808,808,808,808,781,777,763,756,754,753,753,752,752,755,757,757,758,756,753,751,749,749,749,749,749,752,758,758,758,756,754,754,754,754,754,754,754,754,754,754,754,754,754,754,754,754,754,754,754,754,754,754,754,754,754,754,754,754,754,754,754,754,754,754,754,754,754,754,754,754,754,754,754,754,754,754,754,754,754,754,754,754,754,754,754,754,754,754,754,754,754,754,754,754,754,754,754,754,754,754,754,754,754,754,754,754,754,754,754,754,754,754,754,754,754,754,754,754,754,754,754,754,754,754,754,754,754,754,754,754,754,754,754,754,754,754,754,754,754,754,754,754,754,754,754,754,754,754,754,754,754,754,754,754,754,754,754,754,754,754,754,754,754,754,754,754,754,754,754,754,754,754,754,754,754,754,754,754,754,754,754,754,754,774,782,770,717,715,718,719,719,711,693,679,668,665,651,626,599,557,511],"ymouse":[477,477,477,477,477,477,477,477,477,477,477,477,477,477,477,477,477,477,477,477,477,477,477,477,477,477,477,477,477,477,477,477,477,477,477,477,477,477,475,472,469,469,469,469,469,469,469,469,469,469,469,469,469,469,469,469,469,469,469,469,469,469,469,469,469,469,469,469,469,469,469,469,469,469,469,469,469,469,469,469,469,469,469,469,469,469,469,469,469,469,469,469,469,469,469,469,469,469,469,469,469,469,469,469,469,469,469,469,469,469,469,469,469,469,469,469,469,469,469,469,469,469,469,469,469,469,469,469,469,469,469,469,469,469,469,469,469,469,469,469,469,469,469,469,469,471,477,480,482,483,485,496,506,513,522,530,553,567,579,585,591,597,597,598,598,598,598,598,598,598,598,598,598,598,598,598,598,598,598,598,598,598,598,598,598,598,598,598,598,598,598,598,598,598,598,595,582,569,541,480,407,286,199,140,51,4,0,0,0,0,0,13,29,45,69,87,121,137,148,154,155,156,157,157,157,157,157,158,160,164,178,211,235,268,317,356,435,462,487,518,544,563,567,571,574,574,574,576,580,588,610,629,629,629,629,629,629,628,626,621,612,583,545,500,440,369,197,94,0,0,0,0,0,0,0,0,38,91,153,226,318,530,596,642,668,687,698,699,700,700,700,700,700,699,696,691,663,633,570,510,457,416,350,342,339,339,339,347,359,380,407,447,541,566,581,591,598,598,598,598,598,598,598,598,598,598,598,598,598,598,598,598,598,598,598,598,598,598,598,598,598,598,598,598,598,598,598,598,598,598,598,598,598,598,598,598,598,598,597,589,557,402,201,44,0,0,0,0,0,0,2,22,35,41,43,45,52,65,87,105,122,129,135,146,161,180,220,242,267,297,329,372,378,380,384,386,388,388,388,388,388,388,388,388,388,388,388,388,388,388,388,388,388,388,388,388,388,388,388,388,388,388,388,388,388,388,388,388,388,388,388,388,388,388,388,388,388,388,388,388,388,388,388,388,388,388,388,388,388,388,388,388,388,388,388,388,388,388,388,388,388,388,388,388,388,388,388,388,388,388,388,388,388,388,388,388,388,388,388,388,388,388,388,388,388,388,388,388,388,388,388,388,388,388,388,388,388,388,388,388,388,388,388,388,388,388,388,388,388,388,388,388,388,388,388,388,388,388,388,388,388,388,388,388,388,388,388,388,388,388,388,388,388,388,388,388,388,388,388,388,388,388,388,388,388,388,388,388,382,365,334,242,235,227,210,177,50,0,0,0,0,1,8,14,21,33],"timestamp_mouse":[14,34,55,75,96,114,135,156,174,195,214,235,255,275,294,315,335,354,374,394,414,436,455,475,495,515,534,554,576,595,614,635,655,674,694,715,736,755,776,794,816,836,855,875,894,915,935,954,974,994,1014,1035,1055,1074,1094,1115,1135,1156,1176,1194,1215,1235,1254,1275,1294,1314,1335,1355,1375,1394,1414,1434,1455,1476,1494,1515,1534,1555,1575,1595,1615,1635,1655,1674,1694,1714,1736,1755,1775,1794,1815,1834,1854,1874,1894,1916,1935,1956,1974,1994,2014,2035,2054,2075,2094,2115,2135,2154,2176,2194,2214,2235,2254,2274,2294,2315,2336,2355,2375,2395,2415,2435,2454,2474,2494,2515,2535,2554,2575,2594,2616,2635,2656,2676,2696,2715,2735,2755,2775,2794,2815,2836,2855,2876,2894,2916,2935,2954,2976,2995,3015,3035,3054,3074,3094,3116,3135,3155,3174,3196,3215,3234,3254,3275,3295,3315,3334,3356,3375,3395,3415,3435,3455,3475,3495,3514,3535,3555,3574,3594,3615,3635,3655,3674,3695,3715,3735,3756,3774,3795,3815,3835,3854,3876,3895,3914,3934,3955,3974,3994,4015,4034,4055,4074,4095,4114,4135,4154,4175,4194,4215,4235,4255,4275,4295,4314,4335,4354,4374,4395,4415,4434,4454,4476,4495,4515,4535,4554,4574,4594,4614,4634,4655,4674,4694,4714,4735,4754,4774,4796,4815,4834,4855,4875,4894,4915,4936,4956,4975,4995,5014,5035,5054,5075,5095,5114,5134,5155,5174,5194,5215,5234,5255,5274,5295,5315,5335,5354,5376,5395,5414,5435,5456,5475,5496,5514,5534,5554,5575,5595,5615,5635,5654,5675,5694,5714,5734,5754,5774,5794,5816,5835,5855,5875,5894,5914,5934,5954,5976,5994,6015,6034,6054,6075,6096,6115,6135,6154,6175,6194,6214,6234,6255,6274,6295,6315,6335,6355,6375,6396,6415,6435,6455,6476,6494,6514,6534,6555,6574,6595,6614,6634,6655,6675,6695,6714,6734,6755,6776,6794,6815,6836,6854,6874,6894,6914,6935,6955,6976,6995,7014,7036,7055,7075,7094,7116,7134,7154,7175,7195,7215,7235,7254,7274,7294,7314,7335,7355,7374,7394,7414,7435,7455,7475,7496,7515,7535,7554,7574,7594,7615,7634,7655,7674,7695,7714,7735,7755,7775,7794,7815,7834,7854,7874,7896,7915,7935,7955,7975,7994,8014,8035,8054,8075,8096,8115,8135,8154,8174,8195,8215,8235,8254,8274,8294,8314,8336,8355,8375,8394,8415,8436,8455,8475,8495,8514,8534,8555,8575,8595,8614,8634,8655,8675,8695,8714,8735,8754,8776,8794,8814,8835,8854,8875,8895,8915,8934,8955,8975,8994,9015,9036,9054,9074,9096,9116,9134,9155,9175,9194,9215,9235,9255,9274,9296,9315,9335,9354,9375,9394,9415,9434,9455,9476,9495,9515,9534,9554,9576,9595,9615,9635,9655,9675,9695,9714,9735,9755,9775,9795,9816,9835,9854,9875,9895,9915,9935,9955,9975,9994,10015,10034,10054,10075,10095,10115,10134,10154,10174,10194,10215,10234,10254,10275,10295,10315,10335,10355,10375,10395,10415,10434,10455,10475,10495,10514,10535,10554,10576,10595,10615,10635,10655,10675,10694,10715,10735,10755,10775,10794,10815,10835,10854,10874,10896,10915,10935,10954,10974,10994,11015,11034,11054,11076,11094,11114,11135,11154,11176,11194,11214,11235,11254,11275,11294,11316],"xSR":741.5,"ySR":469.95,"xT1":424.9,"yT1":0,"xT2":1058.1,"yT2":0,"toosoon":0,"cond_shown":"Incongruent","ratio_trial":100,"L_num":10,"L_den":25,"R_num":9,"R_den":18,"correct_side":2,"subjID":"DianaSofiaMoraOjeda1","gender":"1","age":"11","school":"6","test":{"fix_dur":[250,1500],"timestim":1000,"targets_dim":[100,100],"targets_relative_coord":[0.3,0.7],"size_stim":[880,420],"start_dim":[100,100],"size_start":[300,300],"size_fix":60,"samplingrate":20,"img_types":["Congruent","Incongruent"],"ratios":[100,200,300],"rep_conds":19,"nTrials":120,"trials_to_rest":500,"Trials_order":[115,74,94,66,10,60,89,53,71,69,6,58,12,9,30,57,28,42,27,3,102,65,93,75,117,34,103,118,111,64,95,54,47,36,77,62,80,68,73,101,11,96,32,79,55,109,15,26,1,76,40,18,113,33,49,44,21,90,29,20,46,85,48,4,0,106,105,110,45,78,61,24,86,43,35,59,7,63,104,98,23,38,114,2,108,99,88,72,5,50,67,51,17,41,31,84,83,87,82,16,14,8,56,22,81,37,39,100,91,119,92,70,52,13,107,25,112,19,97,116],"cond_shown":["Incongruent","Congruent","Congruent","Congruent","Congruent","Congruent","Incongruent","Incongruent","Incongruent","Incongruent","Congruent","Congruent","Congruent","Incongruent","Congruent","Incongruent","Congruent","Congruent","Incongruent","Incongruent","Congruent","Incongruent","Incongruent","Incongruent","Incongruent","Congruent","Incongruent","Congruent","Incongruent","Congruent","Incongruent","Congruent","Incongruent","Congruent","Incongruent","Congruent","Congruent","Congruent","Incongruent","Incongruent","Incongruent","Congruent","Congruent","Incongruent","Incongruent","Incongruent","Incongruent","Congruent","Incongruent","Congruent","Congruent","Congruent","Incongruent","Incongruent","Incongruent","Congruent","Incongruent","Congruent","Incongruent","Congruent","Congruent","Incongruent","Congruent","Congruent","Congruent","Congruent","Incongruent","Congruent","Incongruent","Congruent","Incongruent","Congruent","Congruent","Incongruent","Incongruent","Incongruent","Incongruent","Incongruent","Congruent","Congruent","Incongruent","Congruent","Congruent","Congruent","Congruent","Incongruent","Congruent","Congruent","Incongruent","Congruent","Incongruent","Incongruent","Incongruent","Incongruent","Incongruent","Congruent","Incongruent","Incongruent","Congruent","Congruent","Congruent","Congruent","Congruent","Congruent","Incongruent","Incongruent","Incongruent","Congruent","Incongruent","Incongruent","Congruent","Congruent","Congruent","Incongruent","Incongruent","Incongruent","Congruent","Incongruent","Incongruent","Congruent"],"ratio_trial":[100,200,300,100,300,100,300,300,300,200,100,300,100,200,100,200,300,100,200,200,100,300,200,200,200,300,100,300,200,300,300,100,300,100,300,200,200,200,100,300,300,100,200,100,100,100,200,200,100,300,300,100,300,200,100,200,200,100,300,200,300,100,100,300,100,300,200,200,200,100,100,100,200,100,300,300,100,200,200,200,300,200,100,200,100,200,300,100,300,200,100,200,300,300,100,100,300,200,300,300,200,200,200,300,200,100,200,300,100,300,200,300,300,100,300,100,300,100,100,200],"left_num":[10,16,11,2,3,4,13,13,2,3,4,1,8,1,2,6,4,11,9,4,7,4,14,4,3,24,3,5,9,5,13,4,4,2,13,12,1,3,3,4,8,6,16,3,12,1,14,14,11,11,9,8,4,4,17,5,7,1,13,3,12,12,10,1,6,1,7,3,9,2,10,4,21,2,4,3,13,4,3,3,13,8,2,12,1,4,3,11,13,7,9,7,13,2,9,6,4,4,1,2,3,7,9,8,4,13,3,11,6,13,6,4,1,17,4,8,7,9,9,3],"right_num":[9,9,2,11,4,6,12,12,6,1,15,8,2,2,6,3,13,4,8,6,9,2,6,6,1,8,4,6,8,6,12,6,6,6,12,6,21,7,11,2,9,15,12,8,2,8,6,6,9,2,3,2,2,14,10,14,6,3,12,14,2,2,3,3,15,11,14,7,8,11,8,6,2,8,8,4,12,1,7,9,12,3,11,6,18,14,11,6,12,2,20,14,12,6,13,5,6,6,7,10,14,2,13,10,6,6,1,1,11,12,3,2,11,10,2,1,20,14,6,9],"left_den":[25,30,22,5,6,8,26,26,4,10,10,30,16,3,5,20,20,22,15,5,14,20,30,5,10,30,6,25,15,25,26,8,5,5,26,20,2,10,5,20,10,12,20,5,30,2,30,28,22,22,10,16,20,6,30,10,15,2,26,10,24,30,25,5,12,5,10,10,15,5,25,8,30,4,5,6,26,30,10,12,26,15,5,20,2,6,12,22,26,21,10,10,26,4,15,20,5,5,20,20,10,21,30,15,5,26,10,22,10,26,15,5,5,30,20,20,14,15,18,12],"right_den":[18,27,10,22,5,10,15,15,30,2,30,24,5,15,12,6,26,10,10,10,15,4,9,10,2,16,10,12,10,12,15,10,12,12,15,15,30,14,22,4,18,25,20,16,4,20,9,20,15,10,5,5,4,30,15,20,9,5,15,28,10,4,10,6,25,22,28,14,10,22,16,10,4,20,16,20,20,3,14,20,15,9,22,15,30,30,20,15,15,15,25,28,15,30,26,25,12,10,20,25,28,15,26,12,10,10,2,5,22,15,15,4,22,15,4,2,25,28,10,20],"correct_side":[2,1,1,2,2,2,2,2,1,2,2,2,1,1,2,2,2,1,2,1,2,2,2,1,2,1,1,2,2,2,2,2,1,2,2,1,2,2,1,2,1,2,1,1,2,1,2,1,2,1,1,1,2,1,2,2,2,2,2,2,1,2,1,2,2,2,1,2,2,2,2,2,1,1,1,1,2,2,2,2,2,1,2,1,2,1,2,1,2,1,1,1,2,1,1,1,1,1,2,2,2,1,2,2,1,2,2,1,1,2,1,1,2,2,2,2,2,1,2,2],"img_shown":["img2/100/Incongruent/R/I_Dist_100_LN_10_LD_25_RN_9_RD_18_1.png","img2/200/Congruent/L/C_Dist_200_LN_16_LD_30_RN_9_RD_27_0.png","img2/300/Congruent/L/C_Dist_300_LN_11_LD_22_RN_2_RD_10_0.png","img2/100/Congruent/R/C_Dist_100_LN_2_LD_5_RN_11_RD_22_1.png","img2/300/Congruent/R/C_Dist_300_LN_3_LD_6_RN_4_RD_5_1.png","img2/100/Congruent/R/C_Dist_100_LN_4_LD_8_RN_6_RD_10_1.png","img2/300/Incongruent/R/I_Dist_300_LN_13_LD_26_RN_12_RD_15_1.png","img2/300/Incongruent/R/I_Dist_300_LN_13_LD_26_RN_12_RD_15_1.png","img2/300/Incongruent/L/I_Dist_300_LN_2_LD_4_RN_6_RD_30_0.png","img2/200/Incongruent/R/I_Dist_200_LN_3_LD_10_RN_1_RD_2_1.png","img2/100/Congruent/R/C_Dist_100_LN_4_LD_10_RN_15_RD_30_1.png","img2/300/Congruent/R/C_Dist_300_LN_1_LD_30_RN_8_RD_24_1.png","img2/100/Congruent/L/C_Dist_100_LN_8_LD_16_RN_2_RD_5_0.png","img2/200/Incongruent/L/I_Dist_200_LN_1_LD_3_RN_2_RD_15_0.png","img2/100/Congruent/R/C_Dist_100_LN_2_LD_5_RN_6_RD_12_1.png","img2/200/Incongruent/R/I_Dist_200_LN_6_LD_20_RN_3_RD_6_1.png","img2/300/Congruent/R/C_Dist_300_LN_4_LD_20_RN_13_RD_26_1.png","img2/100/Congruent/L/C_Dist_100_LN_11_LD_22_RN_4_RD_10_0.png","img2/200/Incongruent/R/I_Dist_200_LN_9_LD_15_RN_8_RD_10_1.png","img2/200/Incongruent/L/I_Dist_200_LN_4_LD_5_RN_6_RD_10_0.png","img2/100/Congruent/R/C_Dist_100_LN_7_LD_14_RN_9_RD_15_1.png","img2/300/Incongruent/R/I_Dist_300_LN_4_LD_20_RN_2_RD_4_1.png","img2/200/Incongruent/R/I_Dist_200_LN_14_LD_30_RN_6_RD_9_1.png","img2/200/Incongruent/L/I_Dist_200_LN_4_LD_5_RN_6_RD_10_0.png","img2/200/Incongruent/R/I_Dist_200_LN_3_LD_10_RN_1_RD_2_1.png","img2/300/Congruent/L/C_Dist_300_LN_24_LD_30_RN_8_RD_16_0.png","img2/100/Incongruent/L/I_Dist_100_LN_3_LD_6_RN_4_RD_10_0.png","img2/300/Congruent/R/C_Dist_300_LN_5_LD_25_RN_6_RD_12_1.png","img2/200/Incongruent/R/I_Dist_200_LN_9_LD_15_RN_8_RD_10_1.png","img2/300/Congruent/R/C_Dist_300_LN_5_LD_25_RN_6_RD_12_1.png","img2/300/Incongruent/R/I_Dist_300_LN_13_LD_26_RN_12_RD_15_1.png","img2/100/Congruent/R/C_Dist_100_LN_4_LD_8_RN_6_RD_10_1.png","img2/300/Incongruent/L/I_Dist_300_LN_4_LD_5_RN_6_RD_12_0.png","img2/100/Congruent/R/C_Dist_100_LN_2_LD_5_RN_6_RD_12_1.png","img2/300/Incongruent/R/I_Dist_300_LN_13_LD_26_RN_12_RD_15_1.png","img2/200/Congruent/L/C_Dist_200_LN_12_LD_20_RN_6_RD_15_0.png","img2/200/Congruent/R/C_Dist_200_LN_1_LD_2_RN_21_RD_30_1.png","img2/200/Congruent/R/C_Dist_200_LN_3_LD_10_RN_7_RD_14_1.png","img2/100/Incongruent/L/I_Dist_100_LN_3_LD_5_RN_11_RD_22_0.png","img2/300/Incongruent/R/I_Dist_300_LN_4_LD_20_RN_2_RD_4_1.png","img2/300/Incongruent/L/I_Dist_300_LN_8_LD_10_RN_9_RD_18_0.png","img2/100/Congruent/R/C_Dist_100_LN_6_LD_12_RN_15_RD_25_1.png","img2/200/Congruent/L/C_Dist_200_LN_16_LD_20_RN_12_RD_20_0.png","img2/100/Incongruent/L/I_Dist_100_LN_3_LD_5_RN_8_RD_16_0.png","img2/100/Incongruent/R/I_Dist_100_LN_12_LD_30_RN_2_RD_4_1.png","img2/100/Incongruent/L/I_Dist_100_LN_1_LD_2_RN_8_RD_20_0.png","img2/200/Incongruent/R/I_Dist_200_LN_14_LD_30_RN_6_RD_9_1.png","img2/200/Congruent/L/C_Dist_200_LN_14_LD_28_RN_6_RD_20_0.png","img2/100/Incongruent/R/I_Dist_100_LN_11_LD_22_RN_9_RD_15_1.png","img2/300/Congruent/L/C_Dist_300_LN_11_LD_22_RN_2_RD_10_0.png","img2/300/Congruent/L/C_Dist_300_LN_9_LD_10_RN_3_RD_5_0.png","img2/100/Congruent/L/C_Dist_100_LN_8_LD_16_RN_2_RD_5_0.png","img2/300/Incongruent/R/I_Dist_300_LN_4_LD_20_RN_2_RD_4_1.png","img2/200/Incongruent/L/I_Dist_200_LN_4_LD_6_RN_14_RD_30_0.png","img2/100/Incongruent/R/I_Dist_100_LN_17_LD_30_RN_10_RD_15_1.png","img2/200/Congruent/R/C_Dist_200_LN_5_LD_10_RN_14_RD_20_1.png","img2/200/Incongruent/R/I_Dist_200_LN_7_LD_15_RN_6_RD_9_1.png","img2/100/Congruent/R/C_Dist_100_LN_1_LD_2_RN_3_RD_5_1.png","img2/300/Incongruent/R/I_Dist_300_LN_13_LD_26_RN_12_RD_15_1.png","img2/200/Congruent/R/C_Dist_200_LN_3_LD_10_RN_14_RD_28_1.png","img2/300/Congruent/L/C_Dist_300_LN_12_LD_24_RN_2_RD_10_0.png","img2/100/Incongruent/R/I_Dist_100_LN_12_LD_30_RN_2_RD_4_1.png","img2/100/Congruent/L/C_Dist_100_LN_10_LD_25_RN_3_RD_10_0.png","img2/300/Congruent/R/C_Dist_300_LN_1_LD_5_RN_3_RD_6_1.png","img2/100/Congruent/R/C_Dist_100_LN_6_LD_12_RN_15_RD_25_1.png","img2/300/Congruent/R/C_Dist_300_LN_1_LD_5_RN_11_RD_22_1.png","img2/200/Incongruent/L/I_Dist_200_LN_7_LD_10_RN_14_RD_28_0.png","img2/200/Congruent/R/C_Dist_200_LN_3_LD_10_RN_7_RD_14_1.png","img2/200/Incongruent/R/I_Dist_200_LN_9_LD_15_RN_8_RD_10_1.png","img2/100/Congruent/R/C_Dist_100_LN_2_LD_5_RN_11_RD_22_1.png","img2/100/Incongruent/R/I_Dist_100_LN_10_LD_25_RN_8_RD_16_1.png","img2/100/Congruent/R/C_Dist_100_LN_4_LD_8_RN_6_RD_10_1.png","img2/200/Congruent/L/C_Dist_200_LN_21_LD_30_RN_2_RD_4_0.png","img2/100/Incongruent/L/I_Dist_100_LN_2_LD_4_RN_8_RD_20_0.png","img2/300/Incongruent/L/I_Dist_300_LN_4_LD_5_RN_8_RD_16_0.png","img2/300/Incongruent/L/I_Dist_300_LN_3_LD_6_RN_4_RD_20_0.png","img2/100/Incongruent/R/I_Dist_100_LN_13_LD_26_RN_12_RD_20_1.png","img2/200/Incongruent/R/I_Dist_200_LN_4_LD_30_RN_1_RD_3_1.png","img2/200/Congruent/R/C_Dist_200_LN_3_LD_10_RN_7_RD_14_1.png","img2/200/Congruent/R/C_Dist_200_LN_3_LD_12_RN_9_RD_20_1.png","img2/300/Incongruent/R/I_Dist_300_LN_13_LD_26_RN_12_RD_15_1.png","img2/200/Congruent/L/C_Dist_200_LN_8_LD_15_RN_3_RD_9_0.png","img2/100/Congruent/R/C_Dist_100_LN_2_LD_5_RN_11_RD_22_1.png","img2/200/Congruent/L/C_Dist_200_LN_12_LD_20_RN_6_RD_15_0.png","img2/100/Congruent/R/C_Dist_100_LN_1_LD_2_RN_18_RD_30_1.png","img2/200/Incongruent/L/I_Dist_200_LN_4_LD_6_RN_14_RD_30_0.png","img2/300/Congruent/R/C_Dist_300_LN_3_LD_12_RN_11_RD_20_1.png","img2/100/Congruent/L/C_Dist_100_LN_11_LD_22_RN_6_RD_15_0.png","img2/300/Incongruent/R/I_Dist_300_LN_13_LD_26_RN_12_RD_15_1.png","img2/200/Congruent/L/C_Dist_200_LN_7_LD_21_RN_2_RD_15_0.png","img2/100/Incongruent/L/I_Dist_100_LN_9_LD_10_RN_20_RD_25_0.png","img2/200/Incongruent/L/I_Dist_200_LN_7_LD_10_RN_14_RD_28_0.png","img2/300/Incongruent/R/I_Dist_300_LN_13_LD_26_RN_12_RD_15_1.png","img2/300/Incongruent/L/I_Dist_300_LN_2_LD_4_RN_6_RD_30_0.png","img2/100/Incongruent/L/I_Dist_100_LN_9_LD_15_RN_13_RD_26_0.png","img2/100/Congruent/L/C_Dist_100_LN_6_LD_20_RN_5_RD_25_0.png","img2/300/Incongruent/L/I_Dist_300_LN_4_LD_5_RN_6_RD_12_0.png","img2/200/Incongruent/L/I_Dist_200_LN_4_LD_5_RN_6_RD_10_0.png","img2/300/Congruent/R/C_Dist_300_LN_1_LD_20_RN_7_RD_20_1.png","img2/300/Congruent/R/C_Dist_300_LN_2_LD_20_RN_10_RD_25_1.png","img2/200/Congruent/R/C_Dist_200_LN_3_LD_10_RN_14_RD_28_1.png","img2/200/Congruent/L/C_Dist_200_LN_7_LD_21_RN_2_RD_15_0.png","img2/200/Congruent/R/C_Dist_200_LN_9_LD_30_RN_13_RD_26_1.png","img2/300/Congruent/R/C_Dist_300_LN_8_LD_15_RN_10_RD_12_1.png","img2/200/Incongruent/L/I_Dist_200_LN_4_LD_5_RN_6_RD_10_0.png","img2/100/Incongruent/R/I_Dist_100_LN_13_LD_26_RN_6_RD_10_1.png","img2/200/Incongruent/R/I_Dist_200_LN_3_LD_10_RN_1_RD_2_1.png","img2/300/Congruent/L/C_Dist_300_LN_11_LD_22_RN_1_RD_5_0.png","img2/100/Incongruent/L/I_Dist_100_LN_6_LD_10_RN_11_RD_22_0.png","img2/300/Incongruent/R/I_Dist_300_LN_13_LD_26_RN_12_RD_15_1.png","img2/200/Congruent/L/C_Dist_200_LN_6_LD_15_RN_3_RD_15_0.png","img2/300/Congruent/L/C_Dist_300_LN_4_LD_5_RN_2_RD_4_0.png","img2/300/Congruent/R/C_Dist_300_LN_1_LD_5_RN_11_RD_22_1.png","img2/100/Incongruent/R/I_Dist_100_LN_17_LD_30_RN_10_RD_15_1.png","img2/300/Incongruent/R/I_Dist_300_LN_4_LD_20_RN_2_RD_4_1.png","img2/100/Incongruent/R/I_Dist_100_LN_8_LD_20_RN_1_RD_2_1.png","img2/300/Congruent/R/C_Dist_300_LN_7_LD_14_RN_20_RD_25_1.png","img2/100/Incongruent/L/I_Dist_100_LN_9_LD_15_RN_14_RD_28_0.png","img2/100/Incongruent/R/I_Dist_100_LN_9_LD_18_RN_6_RD_10_1.png","img2/200/Congruent/R/C_Dist_200_LN_3_LD_12_RN_9_RD_20_1.png"],"dist100_C":[["C_Dist_100_LN_10_LD_25_RN_3_RD_10_0.png","C_Dist_100_LN_11_LD_22_RN_4_RD_10_0.png","C_Dist_100_LN_11_LD_22_RN_6_RD_15_0.png","C_Dist_100_LN_15_LD_25_RN_13_RD_26_0.png","C_Dist_100_LN_3_LD_6_RN_2_RD_5_0.png","C_Dist_100_LN_6_LD_20_RN_5_RD_25_0.png","C_Dist_100_LN_8_LD_16_RN_2_RD_5_0.png","C_Dist_100_LN_9_LD_15_RN_8_RD_16_0.png"],["C_Dist_100_LN_1_LD_2_RN_18_RD_30_1.png","C_Dist_100_LN_1_LD_2_RN_3_RD_5_1.png","C_Dist_100_LN_12_LD_30_RN_13_RD_26_1.png","C_Dist_100_LN_2_LD_5_RN_11_RD_22_1.png","C_Dist_100_LN_2_LD_5_RN_6_RD_12_1.png","C_Dist_100_LN_3_LD_20_RN_4_RD_16_1.png","C_Dist_100_LN_4_LD_10_RN_15_RD_30_1.png","C_Dist_100_LN_4_LD_8_RN_6_RD_10_1.png","C_Dist_100_LN_6_LD_12_RN_15_RD_25_1.png","C_Dist_100_LN_7_LD_14_RN_15_RD_25_1.png","C_Dist_100_LN_7_LD_14_RN_9_RD_15_1.png"]],"dist100_I":[["I_Dist_100_LN_1_LD_2_RN_8_RD_20_0.png","I_Dist_100_LN_2_LD_4_RN_6_RD_15_0.png","I_Dist_100_LN_2_LD_4_RN_8_RD_20_0.png","I_Dist_100_LN_3_LD_5_RN_11_RD_22_0.png","I_Dist_100_LN_3_LD_5_RN_8_RD_16_0.png","I_Dist_100_LN_3_LD_6_RN_4_RD_10_0.png","I_Dist_100_LN_3_LD_9_RN_7_RD_30_0.png","I_Dist_100_LN_4_LD_8_RN_8_RD_20_0.png","I_Dist_100_LN_6_LD_10_RN_11_RD_22_0.png","I_Dist_100_LN_6_LD_10_RN_13_RD_26_0.png","I_Dist_100_LN_6_LD_10_RN_7_RD_14_0.png","I_Dist_100_LN_9_LD_10_RN_20_RD_25_0.png","I_Dist_100_LN_9_LD_15_RN_13_RD_26_0.png","I_Dist_100_LN_9_LD_15_RN_14_RD_28_0.png"],["I_Dist_100_LN_10_LD_25_RN_8_RD_16_1.png","I_Dist_100_LN_10_LD_25_RN_9_RD_18_1.png","I_Dist_100_LN_11_LD_22_RN_9_RD_15_1.png","I_Dist_100_LN_12_LD_24_RN_9_RD_15_1.png","I_Dist_100_LN_12_LD_30_RN_2_RD_4_1.png","I_Dist_100_LN_13_LD_26_RN_12_RD_20_1.png","I_Dist_100_LN_13_LD_26_RN_6_RD_10_1.png","I_Dist_100_LN_17_LD_30_RN_10_RD_15_1.png","I_Dist_100_LN_6_LD_12_RN_3_RD_5_1.png","I_Dist_100_LN_8_LD_16_RN_6_RD_10_1.png","I_Dist_100_LN_8_LD_20_RN_1_RD_2_1.png","I_Dist_100_LN_9_LD_18_RN_6_RD_10_1.png"]],"dist100_S":[["E_Dist_100_LN_2_LD_12_RN_2_RD_30_0.png","E_Dist_100_LN_6_LD_10_RN_6_RD_12_0.png"],["E_Dist_100_LN_6_LD_12_RN_6_RD_10_1.png"]],"dist200_C":[["C_Dist_200_LN_11_LD_22_RN_3_RD_10_0.png","C_Dist_200_LN_12_LD_15_RN_6_RD_10_0.png","C_Dist_200_LN_12_LD_20_RN_6_RD_15_0.png","C_Dist_200_LN_14_LD_28_RN_6_RD_20_0.png","C_Dist_200_LN_15_LD_25_RN_4_RD_10_0.png","C_Dist_200_LN_16_LD_20_RN_12_RD_20_0.png","C_Dist_200_LN_16_LD_30_RN_9_RD_27_0.png","C_Dist_200_LN_20_LD_25_RN_9_RD_15_0.png","C_Dist_200_LN_21_LD_30_RN_2_RD_4_0.png","C_Dist_200_LN_4_LD_10_RN_3_RD_15_0.png","C_Dist_200_LN_4_LD_8_RN_3_RD_10_0.png","C_Dist_200_LN_6_LD_15_RN_3_RD_15_0.png","C_Dist_200_LN_7_LD_21_RN_2_RD_15_0.png","C_Dist_200_LN_8_LD_15_RN_2_RD_6_0.png","C_Dist_200_LN_8_LD_15_RN_3_RD_9_0.png","C_Dist_200_LN_8_LD_15_RN_7_RD_21_0.png","C_Dist_200_LN_9_LD_20_RN_4_RD_16_0.png"],["C_Dist_200_LN_1_LD_2_RN_21_RD_30_1.png","C_Dist_200_LN_13_LD_26_RN_14_RD_20_1.png","C_Dist_200_LN_3_LD_10_RN_11_RD_22_1.png","C_Dist_200_LN_3_LD_10_RN_14_RD_28_1.png","C_Dist_200_LN_3_LD_10_RN_7_RD_14_1.png","C_Dist_200_LN_3_LD_12_RN_9_RD_20_1.png","C_Dist_200_LN_3_LD_6_RN_14_RD_20_1.png","C_Dist_200_LN_5_LD_10_RN_14_RD_20_1.png","C_Dist_200_LN_6_LD_12_RN_7_RD_10_1.png","C_Dist_200_LN_6_LD_20_RN_11_RD_22_1.png","C_Dist_200_LN_7_LD_15_RN_18_RD_27_1.png","C_Dist_200_LN_9_LD_30_RN_13_RD_26_1.png"]],"dist200_I":[["I_Dist_200_LN_1_LD_2_RN_3_RD_10_0.png","I_Dist_200_LN_1_LD_3_RN_2_RD_15_0.png","I_Dist_200_LN_3_LD_4_RN_11_RD_20_0.png","I_Dist_200_LN_4_LD_5_RN_6_RD_10_0.png","I_Dist_200_LN_4_LD_6_RN_14_RD_30_0.png","I_Dist_200_LN_7_LD_10_RN_12_RD_24_0.png","I_Dist_200_LN_7_LD_10_RN_14_RD_28_0.png","I_Dist_200_LN_7_LD_10_RN_8_RD_16_0.png"],["I_Dist_200_LN_11_LD_20_RN_3_RD_4_1.png","I_Dist_200_LN_14_LD_30_RN_12_RD_18_1.png","I_Dist_200_LN_14_LD_30_RN_6_RD_9_1.png","I_Dist_200_LN_3_LD_10_RN_1_RD_2_1.png","I_Dist_200_LN_4_LD_30_RN_1_RD_3_1.png","I_Dist_200_LN_6_LD_20_RN_3_RD_6_1.png","I_Dist_200_LN_7_LD_15_RN_4_RD_6_1.png","I_Dist_200_LN_7_LD_15_RN_6_RD_9_1.png","I_Dist_200_LN_9_LD_15_RN_8_RD_10_1.png"]],"dist200_S":[["E_Dist_200_LN_3_LD_6_RN_3_RD_10_0.png"],["E_Dist_200_LN_3_LD_10_RN_3_RD_6_1.png"]],"dist300_C":[["C_Dist_300_LN_11_LD_22_RN_1_RD_5_0.png","C_Dist_300_LN_11_LD_22_RN_2_RD_10_0.png","C_Dist_300_LN_11_LD_22_RN_4_RD_20_0.png","C_Dist_300_LN_12_LD_24_RN_2_RD_10_0.png","C_Dist_300_LN_18_LD_20_RN_9_RD_15_0.png","C_Dist_300_LN_20_LD_25_RN_13_RD_26_0.png","C_Dist_300_LN_20_LD_25_RN_14_RD_28_0.png","C_Dist_300_LN_20_LD_25_RN_5_RD_10_0.png","C_Dist_300_LN_20_LD_25_RN_8_RD_16_0.png","C_Dist_300_LN_20_LD_25_RN_9_RD_18_0.png","C_Dist_300_LN_24_LD_30_RN_2_RD_4_0.png","C_Dist_300_LN_24_LD_30_RN_8_RD_16_0.png","C_Dist_300_LN_3_LD_6_RN_2_RD_10_0.png","C_Dist_300_LN_4_LD_10_RN_1_RD_10_0.png","C_Dist_300_LN_4_LD_5_RN_2_RD_4_0.png","C_Dist_300_LN_8_LD_16_RN_1_RD_5_0.png","C_Dist_300_LN_9_LD_10_RN_3_RD_5_0.png"],["C_Dist_300_LN_1_LD_20_RN_7_RD_20_1.png","C_Dist_300_LN_1_LD_3_RN_19_RD_30_1.png","C_Dist_300_LN_1_LD_30_RN_8_RD_24_1.png","C_Dist_300_LN_1_LD_5_RN_11_RD_22_1.png","C_Dist_300_LN_1_LD_5_RN_3_RD_6_1.png","C_Dist_300_LN_1_LD_5_RN_6_RD_12_1.png","C_Dist_300_LN_2_LD_10_RN_12_RD_24_1.png","C_Dist_300_LN_2_LD_20_RN_10_RD_25_1.png","C_Dist_300_LN_3_LD_12_RN_11_RD_20_1.png","C_Dist_300_LN_3_LD_6_RN_4_RD_5_1.png","C_Dist_300_LN_4_LD_20_RN_13_RD_26_1.png","C_Dist_300_LN_5_LD_25_RN_6_RD_12_1.png","C_Dist_300_LN_5_LD_25_RN_7_RD_14_1.png","C_Dist_300_LN_7_LD_14_RN_20_RD_25_1.png","C_Dist_300_LN_8_LD_15_RN_10_RD_12_1.png"]],"dist300_I":[["I_Dist_300_LN_1_LD_2_RN_2_RD_10_0.png","I_Dist_300_LN_1_LD_2_RN_3_RD_15_0.png","I_Dist_300_LN_2_LD_4_RN_6_RD_30_0.png","I_Dist_300_LN_3_LD_6_RN_4_RD_20_0.png","I_Dist_300_LN_4_LD_5_RN_6_RD_12_0.png","I_Dist_300_LN_4_LD_5_RN_8_RD_16_0.png","I_Dist_300_LN_7_LD_10_RN_8_RD_20_0.png","I_Dist_300_LN_8_LD_10_RN_14_RD_28_0.png","I_Dist_300_LN_8_LD_10_RN_9_RD_18_0.png"],["I_Dist_300_LN_13_LD_26_RN_12_RD_15_1.png","I_Dist_300_LN_4_LD_20_RN_2_RD_4_1.png"]],"dist300_S":[["E_Dist_300_LN_9_LD_12_RN_9_RD_20_0.png"],["E_Dist_300_LN_18_LD_30_RN_18_RD_20_1.png","E_Dist_300_LN_3_LD_10_RN_3_RD_5_1.png","E_Dist_300_LN_9_LD_20_RN_9_RD_12_1.png"]],"dist500_C":[["C_Dist_500_LN_10_LD_13_RN_7_RD_26_0.png","C_Dist_500_LN_10_LD_15_RN_4_RD_24_0.png","C_Dist_500_LN_12_LD_16_RN_3_RD_12_0.png","C_Dist_500_LN_12_LD_18_RN_4_RD_24_0.png","C_Dist_500_LN_15_LD_18_RN_5_RD_15_0.png","C_Dist_500_LN_15_LD_20_RN_1_RD_4_0.png","C_Dist_500_LN_18_LD_27_RN_1_RD_6_0.png","C_Dist_500_LN_20_LD_24_RN_1_RD_3_0.png","C_Dist_500_LN_20_LD_24_RN_3_RD_9_0.png","C_Dist_500_LN_20_LD_24_RN_7_RD_21_0.png","C_Dist_500_LN_20_LD_28_RN_3_RD_14_0.png","C_Dist_500_LN_21_LD_28_RN_6_RD_24_0.png","C_Dist_500_LN_22_LD_28_RN_2_RD_7_0.png","C_Dist_500_LN_25_LD_30_RN_9_RD_27_0.png","C_Dist_500_LN_4_LD_6_RN_1_RD_6_0.png","C_Dist_500_LN_5_LD_6_RN_2_RD_6_0.png","C_Dist_500_LN_6_LD_9_RN_1_RD_6_0.png","C_Dist_500_LN_7_LD_10_RN_1_RD_5_0.png","C_Dist_500_LN_8_LD_12_RN_1_RD_6_0.png","C_Dist_500_LN_8_LD_12_RN_4_RD_24_0.png"],["C_Dist_500_LN_1_LD_4_RN_12_RD_16_1.png","C_Dist_500_LN_1_LD_4_RN_9_RD_12_1.png","C_Dist_500_LN_1_LD_9_RN_11_RD_18_1.png","C_Dist_500_LN_10_LD_24_RN_22_RD_24_1.png","C_Dist_500_LN_2_LD_12_RN_10_RD_15_1.png","C_Dist_500_LN_2_LD_12_RN_12_RD_18_1.png","C_Dist_500_LN_2_LD_12_RN_4_RD_6_1.png","C_Dist_500_LN_2_LD_24_RN_7_RD_12_1.png","C_Dist_500_LN_2_LD_5_RN_18_RD_20_1.png","C_Dist_500_LN_2_LD_5_RN_9_RD_10_1.png","C_Dist_500_LN_2_LD_8_RN_12_RD_16_1.png","C_Dist_500_LN_2_LD_8_RN_21_RD_28_1.png","C_Dist_500_LN_3_LD_10_RN_4_RD_5_1.png","C_Dist_500_LN_3_LD_12_RN_15_RD_20_1.png","C_Dist_500_LN_3_LD_30_RN_6_RD_10_1.png","C_Dist_500_LN_3_LD_8_RN_14_RD_16_1.png","C_Dist_500_LN_4_LD_16_RN_15_RD_20_1.png","C_Dist_500_LN_4_LD_24_RN_12_RD_18_1.png","C_Dist_500_LN_5_LD_14_RN_6_RD_7_1.png","C_Dist_500_LN_7_LD_21_RN_20_RD_24_1.png","C_Dist_500_LN_7_LD_28_RN_12_RD_16_1.png","C_Dist_500_LN_7_LD_28_RN_9_RD_12_1.png","C_Dist_500_LN_9_LD_27_RN_20_RD_24_1.png"]],"dist500_I":[["I_Dist_500_LN_2_LD_3_RN_4_RD_24_0.png","I_Dist_500_LN_5_LD_6_RN_6_RD_18_0.png","I_Dist_500_LN_7_LD_8_RN_9_RD_24_0.png"],["I_Dist_500_LN_7_LD_21_RN_5_RD_6_1.png"]],"dist500_S":[["E_Dist_500_LN_6_LD_8_RN_6_RD_24_0.png"],["E_Dist_500_LN_2_LD_12_RN_2_RD_3_1.png","E_Dist_500_LN_6_LD_24_RN_6_RD_8_1.png"]]}},{"start_time":1551880738822,"click_time":1551880739788,"finger_time":1551880739269,"fix_duration":1012.1719602604682,"trial":1,"RT":447,"MT":519,"sideResp":2,"stimulus":[],"xmouse":[763,763,763,763,763,763,763,763,763,763,763,763,763,763,763,763,763,765,773,790,801,823,828,828,828,828,828,828,831,839,853,922,1001,1050,1103,1160,1237,1252,1263,1272,1276,1278,1278,1274,1266,1249,1184,1144],"ymouse":[615,615,615,615,615,615,615,615,615,615,615,615,615,615,615,615,615,614,610,598,587,569,563,563,563,563,563,563,561,550,532,454,355,282,205,121,5,0,0,0,0,0,0,0,0,0,15,26],"timestamp_mouse":[9,26,73,87,107,127,147,168,187,208,227,247,267,288,306,327,346,366,386,407,426,447,468,486,506,527,548,566,587,607,627,647,666,686,707,726,746,766,787,807,826,847,867,886,907,927,947,966],"xSR":741.5,"ySR":573.95,"xT1":424.9,"yT1":0,"xT2":1058.1,"yT2":0,"toosoon":0,"cond_shown":"Congruent","ratio_trial":200,"L_num":16,"L_den":30,"R_num":9,"R_den":27,"correct_side":1,"subjID":"DianaSofiaMoraOjeda1","gender":"1","school":"6","age":"11"},{"start_time":1551880742227,"click_time":1551880743269,"finger_time":1551880742868,"fix_duration":1015.2327969532777,"trial":2,"RT":641,"MT":401,"sideResp":1,"stimulus":[],"xmouse":[777,777,777,777,777,777,777,777,777,777,776,776,776,776,776,776,776,776,776,776,776,776,776,776,776,776,776,776,776,776,773,771,753,722,688,652,633,618,605,590,576,568,546,538,533,527,520,509,502,501,501,498,482],"ymouse":[617,617,617,617,617,617,617,617,617,617,617,617,617,617,617,617,617,617,617,617,617,617,617,617,617,617,617,617,617,615,609,601,539,426,317,231,181,128,90,57,33,20,0,0,0,0,0,0,0,0,0,0,7],"timestamp_mouse":[12,22,47,63,81,101,122,141,162,181,203,221,242,262,281,302,323,341,361,382,401,422,442,463,481,503,523,542,562,582,602,622,641,661,681,703,722,741,762,782,802,822,842,861,882,902,923,942,961,982,1001,1022,1041],"xSR":741.5,"ySR":573.95,"xT1":424.9,"yT1":0,"xT2":1058.1,"yT2":0,"toosoon":0,"cond_shown":"Congruent","ratio_trial":300,"L_num":11,"L_den":22,"R_num":2,"R_den":10,"correct_side":1,"subjID":"DianaSofiaMoraOjeda1","gender":"1","school":"6","age":"11"},{"start_time":1551880746232,"click_time":1551880747108,"finger_time":1551880746829,"fix_duration":1222.3603996025395,"trial":3,"RT":597,"MT":279,"sideResp":2,"stimulus":[],"xmouse":[761,761,761,761,761,761,761,761,761,761,761,761,761,761,761,761,761,761,761,761,761,761,761,761,761,761,761,761,773,802,834,933,985,1048,1077,1096,1114,1119,1123,1127,1131,1135,1140,1139],"ymouse":[578,578,578,578,578,578,578,578,578,578,578,578,578,578,578,578,578,578,578,578,578,578,578,578,578,578,578,578,574,561,544,486,439,365,327,297,255,242,231,215,200,178,114,93],"timestamp_mouse":[18,36,56,76,97,116,136,157,176,196,216,236,257,277,296,317,337,356,378,397,417,437,456,476,497,517,538,556,577,597,618,636,657,676,696,717,736,756,777,797,816,836,857,876],"xSR":741.5,"ySR":573.95,"xT1":424.9,"yT1":0,"xT2":1058.1,"yT2":0,"toosoon":0,"cond_shown":"Congruent","ratio_trial":100,"L_num":2,"L_den":5,"R_num":11,"R_den":22,"correct_side":2,"subjID":"DianaSofiaMoraOjeda1","gender":"1","school":"6","age":"11"},{"start_time":1551880750301,"click_time":1551880752569,"finger_time":1551880752248,"fix_duration":250,"trial":4,"RT":1947,"MT":321,"sideResp":2,"stimulus":[],"xmouse":[797,797,797,797,797,797,797,797,797,797,797,797,797,797,797,797,797,797,797,797,797,797,797,797,797,797,797,797,797,797,797,797,797,797,797,797,797,797,797,797,797,797,797,797,797,797,797,797,797,797,797,797,797,797,797,797,797,797,797,797,797,797,797,797,797,797,797,797,797,797,797,797,797,797,797,797,797,797,797,797,797,797,797,797,797,797,797,797,797,797,797,797,797,797,797,803,815,852,1006,1086,1174,1220,1256,1287,1293,1293,1293,1289,1283,1258,1239,1212,1174,1112],"ymouse":[649,649,649,649,649,649,649,649,649,649,649,649,649,649,649,649,649,649,649,649,649,649,649,649,649,649,649,649,649,649,649,649,649,649,649,649,649,649,649,649,649,649,649,649,649,649,649,649,649,649,649,649,649,649,649,649,649,649,649,649,649,649,649,649,649,649,649,649,649,649,649,649,649,649,649,649,649,649,649,649,649,649,649,649,649,649,649,649,649,649,649,649,649,649,649,647,641,618,481,382,271,198,132,19,0,0,0,0,0,1,5,11,20,40],"timestamp_mouse":[8,32,47,68,88,107,127,148,167,188,208,228,248,269,288,307,327,347,367,388,408,427,447,468,487,509,528,549,568,588,607,627,649,667,687,708,729,748,769,787,807,827,847,867,889,908,928,948,967,988,1007,1028,1047,1068,1089,1108,1127,1147,1167,1189,1209,1229,1248,1268,1288,1307,1329,1349,1367,1389,1408,1428,1448,1467,1489,1507,1528,1548,1569,1588,1608,1628,1649,1668,1688,1709,1728,1747,1768,1788,1809,1829,1847,1868,1888,1908,1927,1947,1967,1988,2007,2029,2048,2067,2088,2109,2127,2147,2167,2187,2207,2228,2248,2267],"xSR":741.5,"ySR":573.95,"xT1":424.9,"yT1":0,"xT2":1058.1,"yT2":0,"toosoon":0,"cond_shown":"Congruent","ratio_trial":300,"L_num":3,"L_den":6,"R_num":4,"R_den":5,"correct_side":2,"subjID":"DianaSofiaMoraOjeda1","gender":"1","school":"6","age":"11"},{"start_time":1551880755324,"click_time":1551880756668,"finger_time":1551880756468,"fix_duration":1432.9353033940472,"trial":5,"RT":1144,"MT":200,"sideResp":2,"stimulus":[],"xmouse":[813,813,813,813,813,813,813,813,813,813,813,813,813,813,813,813,813,813,813,813,813,813,813,813,813,813,813,813,813,813,813,813,813,813,813,813,813,813,813,813,813,813,813,813,813,813,813,813,813,813,813,813,813,813,813,813,817,844,874,905,940,977,1023,1038,1044,1050,1055,1062],"ymouse":[652,652,652,652,652,652,652,652,652,652,652,652,652,652,652,652,652,652,652,652,652,652,652,652,652,652,652,652,652,652,652,652,652,652,652,652,651,651,651,651,651,651,650,650,650,650,650,650,650,650,650,650,650,650,650,649,645,621,589,543,462,368,213,169,144,126,111,95],"timestamp_mouse":[8,39,44,64,84,106,125,144,164,185,204,225,244,266,285,306,324,344,364,384,405,424,445,464,485,505,525,544,564,584,605,625,644,665,685,706,724,745,765,786,806,824,845,864,886,904,924,945,964,984,1004,1026,1044,1064,1084,1104,1124,1144,1164,1185,1204,1225,1245,1264,1284,1305,1324,1344],"xSR":741.5,"ySR":573.95,"xT1":424.9,"yT1":0,"xT2":1058.1,"yT2":0,"toosoon":0,"cond_shown":"Congruent","ratio_trial":100,"L_num":4,"L_den":8,"R_num":6,"R_den":10,"correct_side":2,"subjID":"DianaSofiaMoraOjeda1","gender":"1","school":"6","age":"11"},{"start_time":1551880761300,"click_time":1551880762229,"finger_time":1551880761908,"fix_duration":1369.5693328093002,"trial":6,"RT":608,"MT":321,"sideResp":1,"stimulus":[],"xmouse":[795,795,795,795,795,795,795,795,795,795,795,795,795,795,795,795,795,795,795,795,795,795,795,795,795,795,795,795,791,779,743,711,679,644,634,628,622,615,588,583,569,562,554,534,530,526,521],"ymouse":[645,645,645,645,645,645,645,645,645,645,645,645,645,645,645,645,645,645,645,645,645,645,645,645,645,645,645,645,634,610,546,493,447,393,373,357,344,326,275,267,242,218,186,118,102,90,74],"timestamp_mouse":[9,33,49,68,89,109,130,148,168,190,209,230,250,268,288,310,328,348,370,389,408,428,448,469,488,508,529,548,568,589,608,629,648,668,689,709,729,750,769,788,808,829,848,868,889,908,928],"xSR":741.5,"ySR":573.95,"xT1":424.9,"yT1":0,"xT2":1058.1,"yT2":0,"toosoon":0,"cond_shown":"Incongruent","ratio_trial":300,"L_num":13,"L_den":26,"R_num":12,"R_den":15,"correct_side":2,"subjID":"DianaSofiaMoraOjeda1","gender":"1","school":"6","age":"11"},{"start_time":1551880768355,"click_time":1551880769308,"finger_time":1551880768969,"fix_duration":1085.8557707704156,"trial":7,"RT":614,"MT":339,"sideResp":1,"stimulus":[],"xmouse":[791,791,791,791,791,791,791,791,791,791,791,791,791,791,791,791,791,791,791,791,791,791,791,791,791,791,791,791,791,780,729,705,690,679,668,655,643,631,622,615,606,596,578,562,551,528,500,482],"ymouse":[607,607,607,607,607,607,607,607,607,607,607,607,607,607,607,607,607,607,607,607,607,607,607,607,607,607,607,607,607,596,558,529,502,481,462,408,362,338,318,300,270,246,217,196,182,151,112,86],"timestamp_mouse":[16,34,55,73,93,114,133,154,175,193,214,234,254,274,293,314,334,353,373,393,413,433,453,475,493,515,534,554,574,593,614,633,654,674,694,713,733,753,774,793,813,834,854,873,893,913,934,953],"xSR":741.5,"ySR":573.95,"xT1":424.9,"yT1":0,"xT2":1058.1,"yT2":0,"toosoon":0,"cond_shown":"Incongruent","ratio_trial":300,"L_num":13,"L_den":26,"R_num":12,"R_den":15,"correct_side":2,"subjID":"DianaSofiaMoraOjeda1","gender":"1","school":"6","age":"11"},{"start_time":1551880771807,"click_time":1551880772849,"finger_time":1551880772508,"fix_duration":1017.5097565819785,"trial":8,"RT":701,"MT":341,"sideResp":1,"stimulus":[],"xmouse":[778,778,778,778,778,778,778,778,778,778,778,778,778,778,778,778,778,778,778,778,778,778,778,778,778,778,778,778,778,778,778,778,778,776,761,750,741,731,705,687,669,658,650,628,606,587,570,549,522,509,490,475,464],"ymouse":[625,625,625,625,625,625,625,625,625,625,625,625,625,625,625,625,625,625,625,625,625,625,625,625,625,625,625,625,625,625,625,625,624,615,581,564,543,520,456,423,391,373,359,326,295,271,249,222,181,159,132,112,97],"timestamp_mouse":[8,21,41,61,83,101,121,141,162,183,202,221,242,261,282,302,322,341,362,382,402,422,441,461,483,502,521,541,561,581,601,622,641,661,682,701,721,741,761,783,802,822,841,861,881,901,921,941,962,981,1001,1021,1042],"xSR":741.5,"ySR":573.95,"xT1":424.9,"yT1":0,"xT2":1058.1,"yT2":0,"toosoon":0,"cond_shown":"Incongruent","ratio_trial":300,"L_num":2,"L_den":4,"R_num":6,"R_den":30,"correct_side":1,"subjID":"DianaSofiaMoraOjeda1","gender":"1","school":"6","age":"11"},{"start_time":1551880779691,"click_time":1551880782090,"finger_time":1551880781969,"fix_duration":479.3281442625037,"trial":9,"RT":2278,"MT":121,"sideResp":1,"stimulus":[],"xmouse":[760,760,760,760,760,760,760,760,760,760,760,760,760,760,760,760,760,760,760,760,760,760,760,760,760,760,760,760,760,760,760,760,760,760,760,760,760,760,760,760,760,760,760,760,760,760,760,760,760,760,760,760,760,760,760,760,760,760,760,760,760,760,760,760,760,760,760,760,760,760,760,760,760,760,760,760,760,760,760,760,760,760,760,760,760,760,760,760,760,760,760,760,760,760,760,760,760,760,760,760,760,760,760,760,760,760,760,760,760,760,760,760,760,754,736,697,645,589,497,465],"ymouse":[582,582,582,582,582,582,582,582,582,582,582,582,582,582,582,582,582,582,582,582,582,582,582,582,582,582,582,582,582,582,582,582,582,582,582,582,582,582,582,582,582,582,582,582,582,582,582,582,582,582,582,582,582,582,582,582,582,582,582,582,582,582,582,582,582,582,582,582,582,582,582,582,582,582,582,582,582,582,582,582,582,582,582,582,582,582,582,582,582,582,582,582,582,582,582,582,582,582,582,582,582,582,582,582,582,582,582,582,582,582,582,582,582,562,500,426,347,268,140,93],"timestamp_mouse":[18,40,59,78,99,119,139,160,178,198,218,239,259,279,298,318,338,358,379,398,419,438,459,478,498,518,538,558,579,598,619,638,658,679,698,718,739,759,779,799,818,839,858,878,899,919,939,958,979,999,1018,1038,1058,1078,1099,1118,1138,1159,1178,1199,1218,1238,1258,1279,1298,1318,1338,1358,1379,1398,1418,1438,1458,1479,1498,1518,1539,1560,1578,1598,1618,1639,1658,1678,1698,1719,1738,1758,1778,1798,1819,1838,1858,1878,1898,1918,1939,1958,1978,1998,2019,2038,2058,2078,2098,2118,2139,2158,2178,2198,2219,2238,2259,2278,2298,2318,2338,2359,2378,2399],"xSR":741.5,"ySR":573.95,"xT1":424.9,"yT1":0,"xT2":1058.1,"yT2":0,"toosoon":0,"cond_shown":"Incongruent","ratio_trial":200,"L_num":3,"L_den":10,"R_num":1,"R_den":2,"correct_side":2,"subjID":"DianaSofiaMoraOjeda1","gender":"1","school":"6","age":"11"},{"start_time":1551880787357,"click_time":1551880789069,"finger_time":1551880788689,"fix_duration":606.7662135974001,"trial":10,"RT":1332,"MT":380,"sideResp":2,"stimulus":[],"xmouse":[838,838,838,838,838,838,838,838,838,838,838,838,838,838,838,838,838,838,838,838,838,838,838,838,838,838,838,838,838,838,838,838,838,838,838,838,838,838,838,838,838,838,838,838,838,838,838,838,838,838,838,838,838,838,838,838,838,838,838,838,838,838,838,838,838,838,850,891,907,921,951,964,979,998,1013,1023,1031,1033,1033,1033,1036,1040,1043,1047,1052,1067],"ymouse":[617,617,617,617,617,617,617,617,617,617,617,617,617,617,617,617,617,617,617,617,617,617,617,617,617,617,617,617,617,617,617,617,617,617,617,617,617,617,617,617,617,617,617,617,617,617,617,617,617,617,617,617,617,617,617,617,617,617,617,617,617,617,617,617,617,617,608,554,516,470,366,320,258,195,143,108,49,23,8,2,0,0,0,1,4,23],"timestamp_mouse":[13,32,62,72,93,112,133,153,173,193,212,233,252,272,292,312,333,353,372,392,413,433,452,473,493,512,533,553,573,593,613,632,653,672,693,713,733,753,773,793,813,833,852,873,892,913,932,953,972,992,1012,1033,1053,1073,1093,1112,1132,1153,1172,1192,1212,1232,1252,1273,1293,1312,1332,1352,1372,1392,1412,1432,1453,1472,1492,1512,1533,1552,1572,1593,1612,1632,1653,1672,1693,1712],"xSR":741.5,"ySR":573.95,"xT1":424.9,"yT1":0,"xT2":1058.1,"yT2":0,"toosoon":0,"cond_shown":"Congruent","ratio_trial":100,"L_num":4,"L_den":10,"R_num":15,"R_den":30,"correct_side":2,"subjID":"DianaSofiaMoraOjeda1","gender":"1","school":"6","age":"11"},{"start_time":1551880791493,"click_time":1551880793030,"finger_time":1551880792669,"fix_duration":883.6190033848484,"trial":11,"RT":1176,"MT":361,"sideResp":2,"stimulus":[],"xmouse":[823,823,823,823,823,823,823,823,823,823,823,823,823,823,823,823,823,823,823,823,823,823,823,823,823,823,823,823,823,823,823,823,823,823,823,823,823,823,823,823,823,823,823,823,823,823,823,823,823,823,823,823,823,823,823,823,824,826,861,891,913,921,928,939,946,957,971,987,1007,1012,1013,1014,1017,1031,1039,1050,1061],"ymouse":[623,623,623,623,623,623,623,623,623,623,623,623,623,623,623,623,623,623,623,623,623,623,623,623,623,623,623,623,623,623,623,623,623,623,623,623,623,623,623,623,623,623,623,623,623,623,623,623,623,623,623,623,623,623,623,616,599,577,438,327,223,161,132,97,81,65,52,38,19,11,10,8,8,13,16,19,20],"timestamp_mouse":[16,47,56,76,97,118,137,157,176,196,216,236,257,277,296,317,336,356,378,396,417,436,456,476,496,518,536,557,577,596,616,637,656,676,696,717,736,756,777,797,816,837,856,876,896,916,937,958,977,997,1016,1036,1056,1077,1096,1117,1136,1157,1176,1197,1216,1236,1256,1277,1296,1316,1336,1357,1376,1396,1416,1436,1456,1476,1497,1517,1537],"xSR":741.5,"ySR":573.95,"xT1":424.9,"yT1":0,"xT2":1058.1,"yT2":0,"toosoon":0,"cond_shown":"Congruent","ratio_trial":300,"L_num":1,"L_den":30,"R_num":8,"R_den":24,"correct_side":2,"subjID":"DianaSofiaMoraOjeda1","gender":"1","school":"6","age":"11"},{"start_time":1551880795195,"click_time":1551880796169,"finger_time":1551880795909,"fix_duration":704.256988211283,"trial":12,"RT":714,"MT":260,"sideResp":1,"stimulus":[],"xmouse":[810,810,810,810,810,810,810,810,810,810,810,810,810,810,810,810,810,810,810,810,810,810,810,810,810,810,810,810,810,810,810,810,810,810,800,779,751,726,693,670,632,587,555,532,524,511,506,500,495],"ymouse":[608,608,608,608,608,608,608,608,608,608,608,608,608,608,608,608,608,608,608,608,608,608,608,608,608,608,608,608,608,608,608,608,608,608,586,550,506,473,427,391,334,273,233,200,184,157,138,119,93],"timestamp_mouse":[15,39,54,74,95,115,134,154,174,194,215,235,254,274,294,314,334,355,375,394,415,434,455,475,494,514,534,555,575,594,614,635,655,674,695,714,735,754,774,794,815,834,855,874,895,914,934,954,974],"xSR":741.5,"ySR":573.95,"xT1":424.9,"yT1":0,"xT2":1058.1,"yT2":0,"toosoon":0,"cond_shown":"Congruent","ratio_trial":100,"L_num":8,"L_den":16,"R_num":2,"R_den":5,"correct_side":1,"subjID":"DianaSofiaMoraOjeda1","gender":"1","school":"6","age":"11"},{"start_time":1551880799156,"click_time":1551880801629,"finger_time":1551880801249,"fix_duration":745.9406135275145,"trial":13,"RT":2093,"MT":380,"sideResp":1,"stimulus":[],"xmouse":[796,796,796,796,796,796,796,796,796,796,796,796,796,796,796,796,796,796,796,796,796,796,796,796,796,796,796,796,796,796,796,796,796,796,796,796,796,796,796,796,796,796,796,796,796,796,796,796,796,796,796,796,796,796,796,796,796,796,796,796,796,796,796,796,796,796,796,796,796,796,796,796,796,796,796,796,796,796,796,796,796,796,796,796,796,796,796,796,796,796,796,796,796,796,796,796,796,796,796,793,789,787,784,782,777,770,758,735,707,682,624,603,581,564,546,495,486,476,467,461,452,451,449,446],"ymouse":[618,618,618,618,618,618,618,618,618,618,618,618,618,618,618,618,618,618,618,618,618,618,618,618,618,618,618,618,618,618,618,618,618,618,618,618,618,618,618,618,618,618,618,618,618,618,618,618,618,618,618,618,618,618,618,618,618,618,618,618,618,618,618,618,618,618,618,618,618,618,618,618,618,618,618,618,618,618,618,618,618,618,618,618,618,618,618,618,618,618,618,618,618,618,618,618,618,618,618,617,614,611,607,593,561,424,381,324,272,227,158,134,109,82,53,0,0,0,0,0,0,0,0,5],"timestamp_mouse":[14,34,59,73,93,114,133,153,173,194,213,233,253,274,293,314,333,353,373,412,412,434,454,474,494,513,534,553,574,593,614,634,654,674,694,714,733,754,773,794,813,834,854,873,894,913,934,954,974,994,1013,1034,1054,1073,1093,1114,1134,1153,1173,1193,1213,1233,1253,1274,1294,1313,1333,1354,1373,1393,1413,1434,1453,1473,1493,1514,1533,1553,1573,1594,1613,1633,1653,1673,1694,1713,1733,1753,1773,1793,1814,1833,1853,1873,1893,1913,1933,1954,1973,1994,2013,2033,2053,2073,2093,2113,2134,2154,2173,2193,2213,2233,2253,2273,2293,2313,2333,2353,2374,2394,2414,2433,2453,2473],"xSR":741.5,"ySR":573.95,"xT1":424.9,"yT1":0,"xT2":1058.1,"yT2":0,"toosoon":0,"cond_shown":"Incongruent","ratio_trial":200,"L_num":1,"L_den":3,"R_num":2,"R_den":15,"correct_side":1,"subjID":"DianaSofiaMoraOjeda1","gender":"1","school":"6","age":"11"},{"start_time":1551880803326,"click_time":1551880805129,"finger_time":1551880804849,"fix_duration":957.6236479998645,"trial":14,"RT":1523,"MT":280,"sideResp":2,"stimulus":[],"xmouse":[784,784,784,784,784,784,784,784,784,784,784,784,784,784,784,784,784,784,784,784,784,784,784,784,784,784,784,784,784,784,784,784,784,784,784,784,784,784,784,784,784,784,784,784,784,784,784,784,784,784,784,784,784,784,784,784,784,784,784,784,784,784,784,784,784,784,784,784,784,784,784,784,784,784,785,789,799,820,835,850,872,902,944,960,974,985,997,1034,1047,1055,1059],"ymouse":[612,612,612,612,612,612,612,612,612,612,612,612,612,612,612,612,612,612,612,612,612,612,612,612,612,612,612,612,612,612,612,612,612,612,612,612,612,612,612,612,612,612,612,612,612,612,612,612,612,612,612,612,612,612,612,612,612,612,612,612,612,612,612,612,612,612,612,612,612,612,612,612,612,612,606,593,554,404,307,270,226,186,125,105,88,74,60,39,31,27,24],"timestamp_mouse":[4,24,44,63,83,103,123,143,163,184,203,223,243,263,283,303,323,343,365,383,403,423,444,464,484,503,524,543,563,583,603,623,643,664,684,703,724,744,763,783,803,823,843,863,883,903,923,942,963,983,1003,1023,1044,1063,1084,1104,1124,1143,1164,1183,1204,1223,1244,1264,1283,1303,1323,1343,1363,1383,1403,1423,1443,1463,1483,1503,1523,1543,1563,1584,1603,1624,1643,1663,1683,1703,1723,1743,1763,1783,1803],"xSR":741.5,"ySR":573.95,"xT1":424.9,"yT1":0,"xT2":1058.1,"yT2":0,"toosoon":0,"cond_shown":"Congruent","ratio_trial":100,"L_num":2,"L_den":5,"R_num":6,"R_den":12,"correct_side":2,"subjID":"DianaSofiaMoraOjeda1","gender":"1","school":"6","age":"11"},{"start_time":1551880807158,"click_time":1551880810229,"finger_time":1551880809828,"fix_duration":668.5689712642728,"trial":15,"RT":2670,"MT":401,"sideResp":2,"stimulus":[],"xmouse":[795,795,795,795,795,795,795,795,795,795,795,795,795,795,795,795,795,795,795,795,795,795,795,795,795,795,795,795,795,795,795,795,795,795,795,795,795,795,795,795,795,795,795,795,795,795,795,795,795,795,795,795,795,795,795,795,795,795,795,795,795,795,795,795,795,795,795,795,795,795,795,795,795,795,795,795,795,795,795,795,795,795,795,795,795,795,795,795,795,795,795,795,795,795,795,795,795,795,795,795,795,795,795,795,795,795,795,795,795,795,795,795,795,795,795,795,795,795,795,795,795,795,795,795,795,795,795,795,795,795,795,795,795,806,819,835,872,880,883,886,899,905,913,932,948,982,999,1013,1024,1032,1039,1044,1051,1059],"ymouse":[609,609,609,609,609,609,609,609,609,609,609,609,609,609,609,609,609,609,609,609,609,609,609,609,609,609,609,609,609,609,609,609,609,609,609,609,609,609,609,609,609,609,609,609,609,609,609,609,609,609,609,609,609,609,609,609,609,609,609,609,609,609,609,609,609,609,609,609,609,609,609,609,609,609,609,609,609,609,609,609,609,609,609,609,609,609,609,609,609,609,609,609,609,609,609,609,609,609,609,609,609,609,609,609,609,609,609,609,609,609,609,609,609,609,609,609,609,609,609,609,609,609,609,609,609,609,609,609,609,609,609,608,600,560,501,437,220,152,115,86,52,44,37,28,18,0,0,0,0,0,0,0,6,23],"timestamp_mouse":[11,31,51,71,92,111,131,151,171,191,211,231,251,271,291,311,331,352,371,391,411,431,451,472,492,511,531,551,571,591,611,631,650,672,692,711,731,751,771,790,811,831,851,871,891,911,931,951,971,991,1011,1031,1051,1071,1091,1111,1132,1151,1171,1191,1211,1232,1251,1271,1291,1311,1332,1351,1372,1391,1411,1431,1451,1471,1491,1511,1531,1551,1571,1591,1612,1631,1651,1672,1691,1712,1731,1752,1771,1792,1811,1831,1851,1871,1891,1911,1931,1951,1971,1992,2011,2031,2051,2071,2091,2111,2131,2151,2171,2191,2211,2232,2251,2271,2291,2312,2332,2351,2371,2391,2411,2432,2452,2471,2492,2511,2531,2551,2572,2591,2612,2631,2652,2670,2691,2711,2731,2751,2771,2792,2812,2831,2852,2871,2892,2911,2932,2951,2971,2992,3012,3031,3051,3071],"xSR":741.5,"ySR":573.95,"xT1":424.9,"yT1":0,"xT2":1058.1,"yT2":0,"toosoon":0,"cond_shown":"Incongruent","ratio_trial":200,"L_num":6,"L_den":20,"R_num":3,"R_den":6,"correct_side":2,"subjID":"DianaSofiaMoraOjeda1","gender":"1","school":"6","age":"11"},{"start_time":1551880812158,"click_time":1551880813869,"finger_time":1551880813490,"fix_duration":967.1490409946713,"trial":16,"RT":1332,"MT":379,"sideResp":2,"stimulus":[],"xmouse":[832,832,832,832,832,832,832,832,832,832,832,832,832,832,832,832,832,832,832,832,832,832,832,832,832,832,832,832,832,832,832,832,832,832,832,832,832,832,832,832,832,832,832,832,832,832,832,832,832,832,832,832,832,832,832,832,832,832,832,832,832,832,832,832,832,832,877,890,906,937,979,990,999,1006,1010,1019,1021,1025,1029,1033,1035,1037,1038,1043,1051,1066],"ymouse":[619,619,619,619,619,619,619,619,619,619,619,619,619,619,619,619,619,619,619,619,619,619,619,619,619,619,619,619,619,619,619,619,619,619,619,619,619,619,619,619,619,619,619,619,619,619,619,619,619,619,619,619,619,619,619,619,619,619,619,619,619,619,619,619,619,620,620,615,579,481,302,264,231,201,172,112,92,72,55,47,42,41,40,39,36,33],"timestamp_mouse":[12,31,51,71,91,111,131,151,172,191,212,232,251,271,292,311,330,351,372,391,411,432,452,471,491,512,531,551,572,591,611,632,651,671,691,711,732,751,771,792,811,832,852,871,892,911,931,951,971,991,1011,1031,1051,1072,1091,1111,1130,1151,1171,1191,1211,1231,1252,1272,1291,1311,1332,1351,1372,1392,1412,1431,1451,1471,1491,1511,1531,1551,1572,1592,1611,1631,1652,1671,1691,1711],"xSR":741.5,"ySR":573.95,"xT1":424.9,"yT1":0,"xT2":1058.1,"yT2":0,"toosoon":0,"cond_shown":"Congruent","ratio_trial":300,"L_num":4,"L_den":20,"R_num":13,"R_den":26,"correct_side":2,"subjID":"DianaSofiaMoraOjeda1","gender":"1","school":"6","age":"11"},{"start_time":1551880816189,"click_time":1551880817229,"finger_time":1551880816930,"fix_duration":1359.2259442121544,"trial":17,"RT":741,"MT":299,"sideResp":1,"stimulus":[],"xmouse":[795,795,795,795,795,795,795,795,795,795,795,795,795,795,795,795,795,795,795,795,795,795,795,795,795,795,795,795,795,795,795,795,795,795,795,787,776,762,734,671,650,632,614,595,539,527,516,507,499,486,483,480,477],"ymouse":[643,643,643,643,643,643,643,643,643,643,643,643,643,643,643,643,643,643,643,643,643,643,643,643,643,643,643,643,643,643,643,643,643,643,639,619,596,566,511,425,395,370,345,318,253,236,221,204,186,147,129,109,89],"timestamp_mouse":[1,20,40,60,80,101,121,140,161,180,200,221,239,260,280,300,320,341,360,381,401,420,441,460,480,500,521,541,560,580,601,621,641,660,680,700,720,741,760,780,801,820,840,860,880,900,921,940,961,980,1001,1020,1040],"xSR":741.5,"ySR":573.95,"xT1":424.9,"yT1":0,"xT2":1058.1,"yT2":0,"toosoon":0,"cond_shown":"Congruent","ratio_trial":100,"L_num":11,"L_den":22,"R_num":4,"R_den":10,"correct_side":1,"subjID":"DianaSofiaMoraOjeda1","gender":"1","school":"6","age":"11"},{"start_time":1551880818576,"click_time":1551880820169,"finger_time":1551880820050,"fix_duration":625.4949519674137,"trial":18,"RT":1474,"MT":119,"sideResp":2,"stimulus":[],"xmouse":[808,808,808,808,808,808,808,808,808,808,808,808,808,808,808,808,808,808,808,808,808,808,808,808,808,808,808,808,807,806,806,806,806,806,806,806,806,806,806,806,804,802,798,795,793,793,793,793,793,793,793,793,793,793,793,793,793,793,793,793,793,793,793,793,793,793,793,793,793,793,793,796,804,825,913,1015,1064,1100,1123,1135],"ymouse":[633,633,633,633,633,633,633,633,633,633,633,633,633,633,633,633,633,633,633,633,633,633,633,633,633,633,629,627,623,617,617,617,617,617,617,617,617,617,616,616,615,611,605,601,599,599,599,599,599,599,599,599,599,599,599,599,599,599,599,599,599,599,599,599,599,599,599,599,599,599,599,588,577,545,417,285,219,165,123,75],"timestamp_mouse":[14,34,53,73,94,113,134,153,173,193,214,233,253,274,293,313,334,353,374,393,413,433,453,472,494,514,533,553,573,593,613,633,654,672,693,714,733,754,773,793,813,833,854,873,894,913,933,954,974,993,1013,1033,1053,1073,1094,1113,1134,1154,1173,1193,1213,1233,1254,1273,1293,1313,1334,1353,1373,1393,1413,1434,1453,1474,1494,1514,1533,1553,1573,1593],"xSR":741.5,"ySR":573.95,"xT1":424.9,"yT1":0,"xT2":1058.1,"yT2":0,"toosoon":0,"cond_shown":"Incongruent","ratio_trial":200,"L_num":9,"L_den":15,"R_num":8,"R_den":10,"correct_side":2,"subjID":"DianaSofiaMoraOjeda1","gender":"1","school":"6","age":"11"},{"start_time":1551880822329,"click_time":1551880823749,"finger_time":1551880823569,"fix_duration":558.8212290773535,"trial":19,"RT":1240,"MT":180,"sideResp":1,"stimulus":[],"xmouse":[811,811,811,811,811,811,811,811,811,811,811,811,811,811,811,811,811,811,811,811,811,811,811,811,811,811,811,811,811,811,811,811,811,811,811,811,811,811,811,811,811,811,811,811,811,811,811,811,811,811,811,811,811,811,811,811,811,811,811,811,811,801,770,736,706,674,645,559,539,525,511,497],"ymouse":[631,631,631,631,631,631,631,631,631,631,631,631,631,631,631,631,631,631,631,631,631,631,631,631,631,631,631,631,631,631,631,631,631,631,631,631,631,631,631,631,631,631,631,631,631,631,631,631,631,631,631,631,631,631,631,631,631,631,631,631,631,594,513,464,418,371,323,186,156,132,107,80],"timestamp_mouse":[2,21,40,59,81,101,121,140,161,181,200,220,240,260,280,301,320,341,359,380,400,420,440,460,480,501,519,540,561,580,600,621,640,660,680,700,720,741,761,781,800,820,840,860,881,901,921,941,961,981,1000,1021,1041,1061,1080,1100,1121,1141,1161,1180,1201,1221,1240,1261,1280,1300,1320,1340,1360,1380,1400,1420],"xSR":741.5,"ySR":573.95,"xT1":424.9,"yT1":0,"xT2":1058.1,"yT2":0,"toosoon":0,"cond_shown":"Incongruent","ratio_trial":200,"L_num":4,"L_den":5,"R_num":6,"R_den":10,"correct_side":1,"subjID":"DianaSofiaMoraOjeda1","gender":"1","school":"6","age":"11"},{"start_time":1551880826157,"click_time":1551880827670,"finger_time":1551880827309,"fix_duration":1468.0933014540378,"trial":20,"RT":1152,"MT":361,"sideResp":2,"stimulus":[],"xmouse":[814,814,814,814,814,814,814,814,814,814,814,814,814,814,814,814,814,814,814,814,814,814,814,814,814,814,814,814,814,814,814,814,814,814,814,814,814,814,814,814,814,814,814,814,814,814,814,814,814,814,814,814,814,814,814,814,814,813,813,813,813,813,813,819,827,873,902,933,954,970,992,998,1013,1029,1045,1079],"ymouse":[590,590,590,590,590,590,590,590,590,590,590,590,590,590,590,590,590,590,590,590,590,590,590,590,590,590,590,590,590,590,590,590,590,590,590,590,590,590,590,590,590,590,590,590,590,590,590,590,590,590,590,590,590,590,590,590,587,573,550,504,398,357,313,259,199,87,46,4,0,0,0,0,0,0,0,5],"timestamp_mouse":[13,33,53,72,92,112,132,152,172,192,212,233,253,272,293,312,332,352,372,392,412,431,452,472,493,513,532,552,572,593,613,633,652,672,692,713,732,752,772,793,812,833,852,872,893,912,932,952,972,992,1012,1033,1053,1072,1092,1112,1132,1152,1172,1192,1212,1232,1252,1272,1292,1312,1333,1352,1372,1393,1413,1433,1452,1472,1493,1512],"xSR":741.5,"ySR":573.95,"xT1":424.9,"yT1":0,"xT2":1058.1,"yT2":0,"toosoon":0,"cond_shown":"Congruent","ratio_trial":100,"L_num":7,"L_den":14,"R_num":9,"R_den":15,"correct_side":2,"subjID":"DianaSofiaMoraOjeda1","gender":"1","school":"6","age":"11"},{"start_time":1551880829468,"click_time":1551880830369,"finger_time":1551880830129,"fix_duration":599.4289691724085,"trial":21,"RT":661,"MT":240,"sideResp":2,"stimulus":[],"xmouse":[814,814,814,814,814,814,814,814,814,814,814,814,814,814,814,814,814,814,814,814,814,814,814,814,814,814,814,814,814,814,814,814,821,838,858,903,931,955,978,992,1013,1018,1025,1032,1040,1065],"ymouse":[600,600,600,600,600,600,600,600,600,600,600,600,600,600,600,600,600,600,600,600,600,600,600,600,600,600,600,600,600,600,600,600,587,564,532,424,364,285,207,158,108,96,82,71,61,39],"timestamp_mouse":[4,21,41,61,81,101,121,141,161,181,201,221,241,261,281,301,322,341,361,382,401,421,442,461,481,502,521,541,561,581,601,621,642,661,682,700,721,741,761,781,801,821,841,862,882,901],"xSR":741.5,"ySR":573.95,"xT1":424.9,"yT1":0,"xT2":1058.1,"yT2":0,"toosoon":0,"cond_shown":"Incongruent","ratio_trial":300,"L_num":4,"L_den":20,"R_num":2,"R_den":4,"correct_side":2,"subjID":"DianaSofiaMoraOjeda1","gender":"1","school":"6","age":"11"},{"start_time":1551880831921,"click_time":1551880832869,"finger_time":1551880832689,"fix_duration":250,"trial":22,"RT":768,"MT":180,"sideResp":1,"stimulus":[],"xmouse":[825,825,825,825,825,825,825,825,825,825,825,825,825,825,825,825,825,825,825,825,825,825,825,825,825,825,825,825,825,825,824,824,824,824,824,824,824,823,775,713,653,610,558,536,508,485,473,462],"ymouse":[589,589,589,589,589,589,589,589,589,589,589,589,589,589,589,589,589,589,589,589,589,589,589,589,589,589,589,589,589,589,589,589,589,589,589,589,589,589,522,442,375,329,259,217,167,133,119,90],"timestamp_mouse":[7,28,49,69,88,108,128,148,168,189,208,228,248,268,288,309,329,348,369,388,409,429,448,468,488,508,528,548,568,588,609,629,648,669,688,708,728,748,768,789,808,828,849,869,888,909,928,948],"xSR":741.5,"ySR":573.95,"xT1":424.9,"yT1":0,"xT2":1058.1,"yT2":0,"toosoon":0,"cond_shown":"Incongruent","ratio_trial":200,"L_num":14,"L_den":30,"R_num":6,"R_den":9,"correct_side":2,"subjID":"DianaSofiaMoraOjeda1","gender":"1","school":"6","age":"11"},{"start_time":1551880834959,"click_time":1551880835750,"finger_time":1551880835569,"fix_duration":1326.5647049474592,"trial":23,"RT":610,"MT":181,"sideResp":1,"stimulus":[],"xmouse":[828,828,828,828,828,828,828,828,828,828,828,828,828,828,828,828,828,828,828,828,828,828,828,828,828,828,828,828,828,826,797,771,735,703,651,604,565,528,489,460],"ymouse":[601,601,601,601,601,601,601,601,601,601,601,601,601,601,601,601,601,601,601,601,601,601,601,601,601,601,601,601,601,597,564,541,507,460,372,299,228,169,116,75],"timestamp_mouse":[13,30,50,70,91,110,130,150,170,191,210,230,250,270,290,311,331,350,370,390,410,431,450,470,490,511,530,550,571,591,610,630,650,670,690,710,730,750,770,790],"xSR":741.5,"ySR":573.95,"xT1":424.9,"yT1":0,"xT2":1058.1,"yT2":0,"toosoon":0,"cond_shown":"Incongruent","ratio_trial":200,"L_num":4,"L_den":5,"R_num":6,"R_den":10,"correct_side":1,"subjID":"DianaSofiaMoraOjeda1","gender":"1","school":"6","age":"11"},{"start_time":1551880839272,"click_time":1551880840150,"finger_time":1551880839930,"fix_duration":1382.8359806395645,"trial":24,"RT":658,"MT":220,"sideResp":1,"stimulus":[],"xmouse":[788,788,788,788,788,788,788,788,788,788,788,788,788,788,788,788,788,788,788,788,788,788,788,788,788,788,788,788,788,786,774,760,739,706,626,589,555,531,509,489,476,470,466,464],"ymouse":[622,622,622,622,622,622,622,622,622,622,622,622,622,622,622,622,622,622,622,622,622,622,622,622,622,622,622,622,622,620,609,589,552,501,404,359,312,270,230,185,153,130,107,90],"timestamp_mouse":[17,37,57,77,97,117,137,157,177,197,216,237,257,276,296,316,336,358,376,398,418,438,457,477,497,517,537,557,577,597,618,637,658,678,697,717,738,757,777,797,817,837,858,878],"xSR":741.5,"ySR":573.95,"xT1":424.9,"yT1":0,"xT2":1058.1,"yT2":0,"toosoon":0,"cond_shown":"Incongruent","ratio_trial":200,"L_num":3,"L_den":10,"R_num":1,"R_den":2,"correct_side":2,"subjID":"DianaSofiaMoraOjeda1","gender":"1","school":"6","age":"11"},{"start_time":1551880842504,"click_time":1551880843490,"finger_time":1551880843110,"fix_duration":1334.2245197042403,"trial":25,"RT":606,"MT":380,"sideResp":1,"stimulus":[],"xmouse":[789,789,789,789,789,789,789,789,789,789,789,789,789,789,789,789,789,789,789,789,789,789,789,789,789,789,789,789,789,790,783,761,733,682,661,645,629,602,546,533,528,504,484,467,465,465,465,465,465,465],"ymouse":[586,586,586,586,586,586,586,586,586,586,586,586,586,586,586,586,586,586,586,586,586,586,586,586,586,586,586,586,586,585,555,491,427,306,262,224,189,134,41,21,11,0,0,0,0,0,0,0,0,1],"timestamp_mouse":[5,26,45,65,85,105,125,145,165,185,205,225,245,265,285,305,325,345,365,385,405,425,445,465,485,505,525,545,565,585,606,625,647,665,686,706,726,746,765,786,806,826,846,865,886,906,925,945,966,986],"xSR":741.5,"ySR":573.95,"xT1":424.9,"yT1":0,"xT2":1058.1,"yT2":0,"toosoon":0,"cond_shown":"Congruent","ratio_trial":300,"L_num":24,"L_den":30,"R_num":8,"R_den":16,"correct_side":1,"subjID":"DianaSofiaMoraOjeda1","gender":"1","school":"6","age":"11"},{"start_time":1551880844281,"click_time":1551880845849,"finger_time":1551880845709,"fix_duration":250,"trial":26,"RT":1428,"MT":140,"sideResp":1,"stimulus":[],"xmouse":[775,775,775,775,775,775,775,775,775,775,775,775,775,775,775,775,775,775,775,775,775,775,775,775,775,775,775,775,775,775,775,775,775,775,775,775,775,775,775,775,775,775,775,775,775,775,775,775,775,775,775,775,775,775,775,775,775,775,775,775,775,775,775,775,775,775,775,775,775,775,772,743,705,666,595,568,545,529,520],"ymouse":[636,636,636,636,636,636,636,636,636,636,636,636,636,636,636,636,636,636,636,636,636,636,636,636,636,636,636,636,636,636,636,636,636,636,636,636,636,636,636,636,636,636,636,636,636,636,636,636,636,636,636,636,636,636,636,636,636,636,636,636,636,636,636,636,636,636,636,636,636,636,622,555,468,392,265,207,154,102,65],"timestamp_mouse":[8,28,49,69,88,108,128,149,169,190,209,228,249,268,289,309,330,348,368,388,408,428,449,468,488,508,529,548,568,589,609,629,648,668,689,709,730,749,768,788,808,829,848,869,888,909,928,948,968,989,1008,1028,1048,1068,1088,1108,1128,1148,1169,1188,1209,1228,1249,1268,1289,1308,1328,1349,1368,1388,1408,1428,1449,1469,1489,1509,1528,1549,1568],"xSR":741.5,"ySR":573.95,"xT1":424.9,"yT1":0,"xT2":1058.1,"yT2":0,"toosoon":0,"cond_shown":"Incongruent","ratio_trial":100,"L_num":3,"L_den":6,"R_num":4,"R_den":10,"correct_side":1,"subjID":"DianaSofiaMoraOjeda1","gender":"1","school":"6","age":"11"},{"start_time":1551880848076,"click_time":1551880849309,"finger_time":1551880849090,"fix_duration":1265.3988360735932,"trial":27,"RT":1014,"MT":219,"sideResp":2,"stimulus":[],"xmouse":[814,814,814,814,814,814,814,814,814,814,814,814,814,814,814,814,814,814,814,814,814,814,814,814,814,814,814,814,814,814,814,814,814,814,814,814,814,814,814,814,814,814,814,814,814,814,814,814,814,822,846,881,923,967,1021,1041,1053,1060,1064,1078,1086,1088],"ymouse":[624,624,624,624,624,624,624,624,624,624,624,624,624,624,624,624,624,624,624,624,624,624,624,624,624,624,624,624,624,624,624,624,624,624,624,624,624,624,624,624,624,624,624,624,624,624,624,624,624,610,573,521,449,372,238,194,167,154,146,121,102,80],"timestamp_mouse":[14,33,53,73,93,113,133,153,174,193,213,233,253,273,293,313,333,354,373,393,414,433,453,473,493,513,533,553,573,593,613,634,655,674,694,714,733,753,773,793,813,833,853,873,893,913,933,953,973,994,1014,1034,1054,1074,1093,1113,1133,1154,1174,1193,1213,1233],"xSR":741.5,"ySR":573.95,"xT1":424.9,"yT1":0,"xT2":1058.1,"yT2":0,"toosoon":0,"cond_shown":"Congruent","ratio_trial":300,"L_num":5,"L_den":25,"R_num":6,"R_den":12,"correct_side":2,"subjID":"DianaSofiaMoraOjeda1","gender":"1","school":"6","age":"11"},{"start_time":1551880850663,"click_time":1551880851769,"finger_time":1551880851349,"fix_duration":392.4115726165438,"trial":28,"RT":686,"MT":420,"sideResp":2,"stimulus":[],"xmouse":[814,814,814,814,814,814,814,814,814,814,814,814,814,814,814,814,814,814,814,814,814,814,814,814,814,814,814,814,814,814,814,814,813,813,813,824,834,849,865,879,899,914,926,943,961,1007,1025,1044,1060,1071,1085,1086,1087,1089,1090,1090],"ymouse":[602,602,602,602,602,602,602,602,602,602,602,602,602,602,602,602,602,602,602,602,602,602,602,602,602,602,602,602,602,602,602,602,601,593,570,517,487,451,406,376,331,301,284,263,241,190,170,153,139,129,109,107,105,102,101,99],"timestamp_mouse":[11,26,46,66,87,106,126,146,166,186,207,226,247,267,286,307,326,346,367,387,407,426,447,466,486,506,526,547,566,586,607,627,646,667,686,707,726,747,766,786,807,827,846,867,887,906,927,947,967,986,1006,1026,1046,1066,1087,1106],"xSR":741.5,"ySR":573.95,"xT1":424.9,"yT1":0,"xT2":1058.1,"yT2":0,"toosoon":0,"cond_shown":"Incongruent","ratio_trial":200,"L_num":9,"L_den":15,"R_num":8,"R_den":10,"correct_side":2,"subjID":"DianaSofiaMoraOjeda1","gender":"1","school":"6","age":"11"},{"start_time":1551880853448,"click_time":1551880854469,"finger_time":1551880854290,"fix_duration":837.7651171442637,"trial":29,"RT":842,"MT":179,"sideResp":2,"stimulus":[],"xmouse":[804,804,804,804,804,804,804,804,804,804,804,804,804,804,804,804,804,804,804,804,804,804,804,804,804,804,804,804,804,804,804,804,804,804,804,805,818,826,831,833,834,838,853,870,895,917,964,996,1027,1048,1060,1079],"ymouse":[626,626,626,626,626,626,626,626,626,626,626,626,626,626,626,626,626,626,626,626,626,626,626,626,626,626,626,626,626,626,626,626,626,626,626,620,603,593,585,582,581,576,546,506,446,390,285,229,178,134,107,48],"timestamp_mouse":[4,21,41,61,81,103,121,142,161,183,202,221,242,262,281,302,322,341,361,381,402,422,442,461,482,502,521,541,561,582,602,622,643,661,681,702,721,742,762,782,801,821,842,861,881,901,921,942,963,981,1001,1021],"xSR":741.5,"ySR":573.95,"xT1":424.9,"yT1":0,"xT2":1058.1,"yT2":0,"toosoon":0,"cond_shown":"Congruent","ratio_trial":300,"L_num":5,"L_den":25,"R_num":6,"R_den":12,"correct_side":2,"subjID":"DianaSofiaMoraOjeda1","gender":"1","school":"6","age":"11"},{"start_time":1551880855932,"click_time":1551880856809,"finger_time":1551880856649,"fix_duration":402.9698135101198,"trial":30,"RT":717,"MT":160,"sideResp":1,"stimulus":[],"xmouse":[799,799,799,799,799,799,799,799,799,799,799,799,799,799,799,799,799,799,799,799,799,799,799,799,799,799,799,799,799,799,799,799,799,791,784,755,667,627,592,567,550,531,525,519],"ymouse":[614,614,614,614,614,614,614,614,614,614,614,614,614,614,614,614,614,614,614,614,614,614,614,614,614,614,614,614,614,614,614,614,614,598,576,503,308,238,175,130,100,68,59,46],"timestamp_mouse":[17,37,57,77,97,117,139,158,177,197,218,239,257,278,298,317,337,358,377,397,417,438,457,477,498,517,537,558,577,597,617,638,657,677,698,717,737,757,777,797,818,838,858,877],"xSR":741.5,"ySR":573.95,"xT1":424.9,"yT1":0,"xT2":1058.1,"yT2":0,"toosoon":0,"cond_shown":"Incongruent","ratio_trial":300,"L_num":13,"L_den":26,"R_num":12,"R_den":15,"correct_side":2,"subjID":"DianaSofiaMoraOjeda1","gender":"1","school":"6","age":"11"},{"start_time":1551880861422,"click_time":1551880862869,"finger_time":1551880862649,"fix_duration":472.557014929345,"trial":31,"RT":1227,"MT":220,"sideResp":2,"stimulus":[],"xmouse":[779,777,769,769,769,769,769,769,769,769,771,773,774,774,774,774,774,774,776,777,777,777,778,778,779,780,781,781,781,781,781,781,781,781,781,781,781,781,781,781,781,781,781,781,781,781,781,781,781,781,781,781,781,781,781,781,781,781,779,777,777,777,797,810,832,859,884,930,959,984,1009,1040,1117],"ymouse":[623,616,593,590,589,589,589,588,587,586,584,584,584,584,584,584,583,583,583,583,583,583,584,584,585,585,585,585,585,585,585,585,585,585,585,585,585,585,585,585,585,585,585,585,585,585,585,585,585,585,585,585,585,585,585,585,585,585,582,579,577,573,538,517,481,433,393,330,289,255,221,179,65],"timestamp_mouse":[7,27,47,67,87,107,128,148,167,188,207,228,248,268,287,307,327,347,367,388,407,428,448,467,487,508,527,548,567,587,608,628,647,667,687,708,727,748,767,787,808,827,847,868,887,908,928,948,968,987,1007,1027,1048,1067,1087,1108,1127,1147,1167,1188,1207,1227,1247,1267,1287,1307,1328,1348,1368,1387,1407,1427,1447],"xSR":741.5,"ySR":573.95,"xT1":424.9,"yT1":0,"xT2":1058.1,"yT2":0,"toosoon":0,"cond_shown":"Congruent","ratio_trial":100,"L_num":4,"L_den":8,"R_num":6,"R_den":10,"correct_side":2,"subjID":"DianaSofiaMoraOjeda1","gender":"1","school":"6","age":"11"},{"start_time":1551880865370,"click_time":1551880866329,"finger_time":1551880865970,"fix_duration":1220.70278946576,"trial":32,"RT":600,"MT":359,"sideResp":1,"stimulus":[],"xmouse":[802,802,802,802,802,802,802,802,802,802,802,802,802,802,802,802,802,802,802,802,802,802,802,802,802,802,801,794,769,665,581,497,435,409,407,413,419,420,420,407,403,403,403,402,402,408,424,447],"ymouse":[630,630,630,630,630,630,630,630,630,630,630,630,630,630,630,630,630,630,630,630,630,630,630,630,630,630,629,623,583,404,295,203,150,126,111,93,71,47,26,0,0,0,0,0,1,6,13,20],"timestamp_mouse":[19,39,59,79,99,119,139,159,179,199,220,240,260,279,299,320,339,359,380,400,419,439,459,480,500,519,540,559,580,600,619,639,659,679,699,719,739,759,779,799,819,840,859,880,900,920,939,959],"xSR":741.5,"ySR":573.95,"xT1":424.9,"yT1":0,"xT2":1058.1,"yT2":0,"toosoon":0,"cond_shown":"Incongruent","ratio_trial":300,"L_num":4,"L_den":5,"R_num":6,"R_den":12,"correct_side":1,"subjID":"DianaSofiaMoraOjeda1","gender":"1","school":"6","age":"11"},{"start_time":1551880874202,"click_time":1551880876029,"finger_time":1551880875849,"fix_duration":1312.606640836552,"trial":33,"RT":1647,"MT":180,"sideResp":2,"stimulus":[],"xmouse":[800,800,800,800,800,800,800,800,800,800,800,800,800,800,800,800,800,800,800,800,800,800,800,800,800,800,800,800,800,800,800,800,800,800,800,800,800,800,800,800,800,800,800,800,800,800,798,798,797,797,797,797,797,797,797,797,797,797,797,797,797,797,797,797,797,797,797,797,797,797,797,797,797,797,797,797,797,797,797,797,801,807,822,908,997,1032,1048,1056,1070,1075,1080,1085],"ymouse":[607,607,607,607,607,607,607,607,607,607,607,607,607,607,607,607,607,607,607,607,607,607,607,607,607,607,607,607,607,607,607,607,607,607,607,607,607,607,607,607,607,607,607,607,608,603,595,592,589,589,589,589,589,589,589,589,589,589,589,589,589,589,589,589,589,589,589,589,589,589,589,589,589,589,589,589,589,589,589,589,585,581,564,439,318,260,222,184,139,120,101,84],"timestamp_mouse":[7,28,47,68,88,107,128,148,167,188,207,228,247,268,288,307,327,348,368,388,408,429,448,468,488,508,528,548,567,588,607,628,647,667,688,708,727,747,767,787,808,827,848,867,888,907,927,948,967,988,1007,1028,1047,1067,1087,1107,1127,1147,1167,1187,1207,1228,1247,1267,1287,1308,1327,1347,1367,1387,1408,1428,1447,1467,1488,1508,1527,1547,1567,1587,1607,1627,1647,1668,1688,1707,1728,1747,1767,1788,1807,1827],"xSR":741.5,"ySR":573.95,"xT1":424.9,"yT1":0,"xT2":1058.1,"yT2":0,"toosoon":0,"cond_shown":"Congruent","ratio_trial":100,"L_num":2,"L_den":5,"R_num":6,"R_den":12,"correct_side":2,"subjID":"DianaSofiaMoraOjeda1","gender":"1","school":"6","age":"11"},{"start_time":1551880880269,"click_time":1551880881669,"finger_time":1551880880789,"fix_duration":1339.8078975541619,"trial":34,"RT":520,"MT":880,"sideResp":2,"stimulus":[],"xmouse":[827,827,827,827,828,828,828,828,828,828,828,828,828,828,828,828,828,828,828,828,828,828,828,828,828,825,814,811,808,804,793,785,778,768,759,745,739,732,726,722,715,712,711,710,710,710,710,710,712,723,746,751,754,758,761,768,771,772,775,781,828,901,941,970,990,1016,1024,1033,1041,1054,1069],"ymouse":[611,611,611,611,610,610,610,610,610,610,610,610,610,610,610,610,610,610,610,610,610,610,610,607,604,595,570,561,550,539,515,504,496,486,480,464,456,444,432,421,396,383,378,374,374,374,374,374,374,378,394,399,404,409,413,420,421,422,423,423,415,379,343,295,249,149,122,97,76,48,14],"timestamp_mouse":[3,20,40,61,81,100,120,142,160,180,201,220,240,260,280,301,320,341,361,380,400,421,440,460,480,500,520,541,561,580,600,620,641,662,680,701,721,740,760,780,800,820,841,860,880,900,920,941,960,980,1000,1020,1040,1061,1080,1101,1121,1140,1160,1180,1200,1220,1241,1261,1280,1300,1321,1340,1360,1380,1400],"xSR":741.5,"ySR":573.95,"xT1":424.9,"yT1":0,"xT2":1058.1,"yT2":0,"toosoon":0,"cond_shown":"Incongruent","ratio_trial":300,"L_num":13,"L_den":26,"R_num":12,"R_den":15,"correct_side":2,"subjID":"DianaSofiaMoraOjeda1","gender":"1","school":"6","age":"11"},{"start_time":1551880883674,"click_time":1551880884970,"finger_time":1551880884309,"fix_duration":404.22861300080547,"trial":35,"RT":635,"MT":661,"sideResp":1,"stimulus":[],"xmouse":[819,819,819,819,819,819,819,819,819,819,819,819,819,819,819,819,819,819,819,819,819,819,819,819,819,819,819,819,816,798,778,753,731,704,678,671,658,642,617,569,526,515,505,487,424,392,371,360,355,352,352,352,355,360,362,368,374,385,396,407,421,421,422,424,425],"ymouse":[622,622,622,622,622,622,622,622,622,622,622,622,622,622,622,622,622,622,622,622,622,622,622,622,622,622,622,622,619,598,580,558,536,513,483,471,456,433,395,316,253,232,211,173,69,32,8,0,0,0,0,0,0,0,0,2,5,12,19,28,52,56,63,72,81],"timestamp_mouse":[19,35,55,75,95,115,135,156,176,195,215,235,255,275,297,315,335,356,375,395,415,435,456,475,495,515,535,555,575,595,616,635,655,676,695,715,735,755,775,795,816,835,855,875,896,915,936,955,975,996,1016,1035,1055,1075,1095,1116,1135,1155,1176,1195,1215,1236,1255,1275,1295],"xSR":741.5,"ySR":573.95,"xT1":424.9,"yT1":0,"xT2":1058.1,"yT2":0,"toosoon":0,"cond_shown":"Congruent","ratio_trial":200,"L_num":12,"L_den":20,"R_num":6,"R_den":15,"correct_side":1,"subjID":"DianaSofiaMoraOjeda1","gender":"1","school":"6","age":"11"},{"start_time":1551880886594,"click_time":1551880887190,"finger_time":1551880887050,"fix_duration":924.6288372212426,"trial":36,"RT":456,"MT":140,"sideResp":2,"stimulus":[],"xmouse":[776,776,776,776,776,776,776,776,776,776,776,776,776,776,776,776,776,776,776,782,796,823,859,912,935,948,963,986,1042,1061],"ymouse":[601,601,601,601,601,601,601,601,601,601,601,601,601,601,601,601,601,601,601,602,596,576,552,504,437,357,275,204,99,58],"timestamp_mouse":[16,35,55,75,97,116,135,156,176,195,215,235,256,276,295,315,335,355,375,396,415,435,456,475,496,516,535,555,575,596],"xSR":741.5,"ySR":573.95,"xT1":424.9,"yT1":0,"xT2":1058.1,"yT2":0,"toosoon":0,"cond_shown":"Congruent","ratio_trial":200,"L_num":1,"L_den":2,"R_num":21,"R_den":30,"correct_side":2,"subjID":"DianaSofiaMoraOjeda1","gender":"1","school":"6","age":"11"},{"start_time":1551880889210,"click_time":1551880890289,"finger_time":1551880889849,"fix_duration":720.8396733328009,"trial":37,"RT":639,"MT":440,"sideResp":2,"stimulus":[],"xmouse":[833,833,833,833,833,833,833,833,833,833,833,833,833,833,833,833,833,833,833,833,833,833,833,833,833,833,833,833,833,832,839,861,924,954,972,979,982,983,987,991,995,997,998,998,998,998,998,1000,1008,1015,1023,1031,1058,1070],"ymouse":[616,616,616,616,616,616,616,616,616,616,616,616,616,616,616,616,616,616,616,616,616,616,616,616,616,616,616,616,616,604,579,500,299,234,191,163,145,114,94,75,62,55,51,51,51,51,50,50,51,55,58,64,72,72],"timestamp_mouse":[19,39,59,79,99,119,139,159,181,199,219,239,260,279,300,319,340,359,380,400,420,439,459,480,499,519,539,559,579,599,619,639,659,680,699,719,739,760,779,799,820,840,859,879,900,920,939,959,979,1000,1020,1039,1059,1079],"xSR":741.5,"ySR":573.95,"xT1":424.9,"yT1":0,"xT2":1058.1,"yT2":0,"toosoon":0,"cond_shown":"Congruent","ratio_trial":200,"L_num":3,"L_den":10,"R_num":7,"R_den":14,"correct_side":2,"subjID":"DianaSofiaMoraOjeda1","gender":"1","school":"6","age":"11"},{"start_time":1551880891505,"click_time":1551880895750,"finger_time":1551880895290,"fix_duration":314.89845979624545,"trial":38,"RT":3785,"MT":460,"sideResp":1,"stimulus":[],"xmouse":[790,790,790,790,790,790,790,790,790,790,790,790,790,790,790,790,790,790,790,790,790,790,790,790,790,790,790,790,790,790,790,790,790,790,790,790,790,790,790,790,790,790,790,790,790,790,790,790,790,790,790,790,790,790,790,790,790,790,790,790,790,790,790,790,790,790,790,790,790,790,790,790,790,790,790,790,790,790,790,790,790,790,790,790,790,790,790,790,790,790,790,790,790,790,790,790,790,790,790,790,790,790,790,790,790,790,790,790,790,790,790,790,790,790,790,790,790,790,790,790,790,790,790,790,790,790,790,790,790,790,790,790,790,790,790,790,790,790,790,790,790,790,790,790,790,790,790,790,790,790,790,790,790,790,790,790,790,790,790,790,790,790,790,790,790,790,790,790,790,790,790,790,790,790,790,790,790,790,790,790,790,790,790,790,791,791,791,791,786,772,756,723,670,528,464,416,376,315,273,258,257,257,257,257,272,292,315,344,391,399,406,420,438],"ymouse":[633,633,633,633,633,633,633,633,633,633,633,633,633,633,633,633,633,633,633,633,633,633,633,633,633,633,633,633,633,633,633,633,633,633,633,633,633,633,633,633,633,633,633,633,633,633,633,633,633,633,633,633,633,633,633,633,633,633,633,633,633,633,633,633,633,633,633,633,633,633,633,633,633,633,633,633,633,633,633,633,633,633,633,633,633,633,633,633,633,633,633,633,633,633,633,633,633,633,633,633,633,633,633,633,633,633,633,633,633,633,633,633,633,633,633,633,633,633,633,633,633,633,633,633,633,633,633,633,633,633,633,633,633,633,633,633,633,633,633,633,633,633,633,633,633,633,633,633,633,633,633,633,633,633,633,633,633,633,633,633,633,633,633,633,633,633,633,633,633,633,633,633,633,633,633,633,633,633,633,633,633,633,627,608,598,593,591,588,579,558,537,495,430,254,167,96,39,0,0,0,0,0,0,0,5,14,24,40,66,70,73,76,83],"timestamp_mouse":[4,24,44,64,84,104,124,144,164,184,204,224,245,265,284,304,324,344,364,384,404,424,444,464,484,504,524,544,564,585,605,624,644,665,685,704,725,744,765,784,804,824,845,864,885,905,924,945,964,984,1005,1024,1046,1064,1084,1105,1125,1144,1164,1184,1204,1225,1244,1264,1285,1305,1324,1344,1364,1385,1404,1425,1444,1464,1485,1504,1524,1544,1564,1584,1604,1624,1644,1664,1684,1705,1724,1745,1764,1784,1804,1824,1845,1864,1885,1905,1924,1944,1964,1984,2004,2024,2044,2065,2084,2105,2124,2144,2164,2185,2205,2224,2245,2265,2284,2304,2324,2345,2364,2384,2404,2424,2444,2465,2484,2504,2524,2544,2565,2584,2604,2624,2644,2664,2684,2704,2724,2744,2764,2784,2804,2824,2844,2864,2885,2905,2925,2944,2964,2984,3004,3025,3044,3065,3085,3104,3125,3144,3164,3184,3205,3224,3244,3264,3284,3305,3324,3344,3364,3384,3405,3424,3444,3465,3484,3505,3524,3545,3564,3584,3604,3624,3644,3664,3685,3704,3724,3745,3765,3785,3804,3824,3844,3864,3884,3905,3925,3944,3964,3985,4004,4026,4044,4064,4084,4105,4124,4144,4164,4185,4204,4224,4245],"xSR":741.5,"ySR":573.95,"xT1":424.9,"yT1":0,"xT2":1058.1,"yT2":0,"toosoon":0,"cond_shown":"Incongruent","ratio_trial":100,"L_num":3,"L_den":5,"R_num":11,"R_den":22,"correct_side":1,"subjID":"DianaSofiaMoraOjeda1","gender":"1","school":"6","age":"11"},{"start_time":1551880897920,"click_time":1551880899230,"finger_time":1551880898649,"fix_duration":549.9662296415504,"trial":39,"RT":729,"MT":581,"sideResp":2,"stimulus":[],"xmouse":[829,829,829,829,829,829,829,829,829,829,829,829,829,829,829,829,829,829,829,829,829,829,829,829,829,829,829,829,829,829,829,829,829,829,831,835,852,914,933,942,950,959,975,985,994,1002,1007,1021,1024,1025,1026,1026,1026,1029,1030,1034,1037,1045,1045,1045,1046,1046,1048,1053,1057,1062],"ymouse":[628,628,628,628,628,628,628,628,628,628,628,628,628,628,628,628,628,628,628,628,628,628,628,628,628,628,628,628,628,628,628,628,628,628,618,607,568,421,378,342,315,283,229,208,192,177,165,135,130,125,121,115,95,84,73,63,53,33,30,30,30,30,30,33,34,37],"timestamp_mouse":[9,29,50,69,89,109,130,150,169,189,210,229,249,270,289,310,329,350,370,389,409,430,449,469,489,509,529,549,570,590,609,629,649,669,690,709,729,749,770,789,810,829,849,869,889,909,929,950,970,989,1009,1029,1049,1069,1089,1110,1130,1149,1169,1189,1210,1229,1250,1270,1289,1310],"xSR":741.5,"ySR":573.95,"xT1":424.9,"yT1":0,"xT2":1058.1,"yT2":0,"toosoon":0,"cond_shown":"Incongruent","ratio_trial":300,"L_num":4,"L_den":20,"R_num":2,"R_den":4,"correct_side":2,"subjID":"DianaSofiaMoraOjeda1","gender":"1","school":"6","age":"11"},{"start_time":1551880900140,"click_time":1551880901010,"finger_time":1551880900768,"fix_duration":250,"trial":40,"RT":628,"MT":242,"sideResp":1,"stimulus":[],"xmouse":[770,770,770,770,770,770,770,770,770,770,770,770,770,770,770,770,770,770,770,770,770,770,770,770,770,770,770,770,770,770,769,745,713,669,637,596,576,560,549,539,528,510,504,498],"ymouse":[632,632,632,632,632,632,632,632,632,632,632,632,632,632,632,632,632,632,632,632,632,632,632,632,632,632,632,632,632,632,632,560,482,409,356,300,270,243,220,195,172,125,105,88],"timestamp_mouse":[10,29,48,69,90,109,129,149,169,190,209,229,249,269,288,308,329,350,370,389,408,428,449,468,488,509,530,549,569,590,610,628,649,670,689,709,729,749,770,789,810,829,850,870],"xSR":741.5,"ySR":573.95,"xT1":424.9,"yT1":0,"xT2":1058.1,"yT2":0,"toosoon":0,"cond_shown":"Incongruent","ratio_trial":300,"L_num":8,"L_den":10,"R_num":9,"R_den":18,"correct_side":1,"subjID":"DianaSofiaMoraOjeda1","gender":"1","school":"6","age":"11"},{"start_time":1551880902059,"click_time":1551880903150,"finger_time":1551880902808,"fix_duration":250,"trial":41,"RT":749,"MT":342,"sideResp":2,"stimulus":[],"xmouse":[791,791,791,791,791,791,791,791,791,791,791,791,791,791,791,791,791,791,791,791,791,791,791,791,791,791,791,791,791,791,791,791,791,791,791,799,824,857,891,920,980,1001,1015,1030,1044,1074,1088,1098,1104,1107,1108,1108,1108,1108,1105],"ymouse":[603,603,603,603,603,603,603,603,603,603,603,603,604,604,604,604,604,604,604,604,604,604,604,604,604,604,604,604,604,604,604,604,604,604,604,602,582,552,507,464,380,352,332,312,290,247,227,209,191,175,143,120,109,100,90],"timestamp_mouse":[11,30,51,69,89,110,131,150,170,190,210,229,250,271,290,309,329,350,370,389,409,430,450,471,489,510,531,550,570,589,610,630,649,669,690,711,729,749,769,789,809,830,849,870,891,911,929,949,970,990,1009,1029,1049,1070,1091],"xSR":741.5,"ySR":573.95,"xT1":424.9,"yT1":0,"xT2":1058.1,"yT2":0,"toosoon":0,"cond_shown":"Congruent","ratio_trial":100,"L_num":6,"L_den":12,"R_num":15,"R_den":25,"correct_side":2,"subjID":"DianaSofiaMoraOjeda1","gender":"1","school":"6","age":"11"},{"start_time":1551880906014,"click_time":1551880906869,"finger_time":1551880906629,"fix_duration":1344.3442514127862,"trial":42,"RT":615,"MT":240,"sideResp":1,"stimulus":[],"xmouse":[837,837,834,831,830,830,830,830,830,830,830,829,829,829,829,829,829,829,829,829,829,829,829,829,829,829,829,829,823,810,772,720,635,605,596,587,576,564,559,556,548,535,502],"ymouse":[609,609,609,611,611,611,611,611,611,611,611,611,611,611,611,611,611,611,611,611,611,611,611,611,611,611,611,611,608,581,507,416,254,190,169,149,132,110,103,98,86,72,48],"timestamp_mouse":[15,34,55,76,96,114,134,155,176,194,216,236,254,275,295,315,334,355,376,396,414,434,455,476,495,514,535,555,575,595,615,635,656,674,694,715,734,755,774,795,815,835,855],"xSR":741.5,"ySR":573.95,"xT1":424.9,"yT1":0,"xT2":1058.1,"yT2":0,"toosoon":0,"cond_shown":"Congruent","ratio_trial":200,"L_num":16,"L_den":20,"R_num":12,"R_den":20,"correct_side":1,"subjID":"DianaSofiaMoraOjeda1","gender":"1","school":"6","age":"11"},{"start_time":1551880908809,"click_time":1551880910369,"finger_time":1551880910289,"fix_duration":1119.3538198869242,"trial":43,"RT":1480,"MT":80,"sideResp":1,"stimulus":[],"xmouse":[793,793,793,793,793,793,793,793,793,793,793,793,793,793,793,793,793,793,793,793,793,793,793,793,793,793,793,793,793,793,793,793,793,793,793,793,793,793,793,793,793,793,793,793,793,793,793,793,793,793,793,793,793,793,793,793,793,793,793,793,793,793,793,793,793,793,793,793,793,793,793,793,787,744,705,642,577,519],"ymouse":[616,616,616,616,616,616,616,616,616,616,616,616,616,616,616,616,616,616,616,616,616,616,616,616,616,616,616,616,616,616,616,616,616,616,616,616,616,616,616,616,616,616,616,616,616,616,616,616,616,616,616,616,616,616,616,616,616,616,616,616,616,616,616,616,616,616,616,616,616,616,616,616,594,476,384,265,160,79],"timestamp_mouse":[19,41,61,79,100,120,140,159,179,200,221,240,259,280,300,319,339,360,379,401,420,440,460,479,499,519,540,560,580,599,620,640,660,680,699,719,741,760,780,799,819,839,860,879,900,919,940,959,981,1001,1020,1040,1059,1081,1099,1121,1141,1161,1181,1200,1219,1240,1261,1279,1301,1319,1340,1360,1381,1399,1420,1440,1460,1480,1500,1521,1541,1560],"xSR":741.5,"ySR":573.95,"xT1":424.9,"yT1":0,"xT2":1058.1,"yT2":0,"toosoon":0,"cond_shown":"Incongruent","ratio_trial":100,"L_num":3,"L_den":5,"R_num":8,"R_den":16,"correct_side":1,"subjID":"DianaSofiaMoraOjeda1","gender":"1","school":"6","age":"11"},{"start_time":1551880911579,"click_time":1551880912428,"finger_time":1551880912129,"fix_duration":489.8838470619652,"trial":44,"RT":550,"MT":299,"sideResp":2,"stimulus":[],"xmouse":[767,767,767,767,767,767,767,767,767,767,767,767,767,767,768,768,768,768,768,768,768,768,768,768,768,775,780,785,792,806,817,825,833,843,873,902,922,941,967,1016,1035,1053,1073],"ymouse":[623,623,623,623,623,623,623,623,623,623,622,622,622,621,620,619,619,619,619,619,619,619,619,618,612,591,577,566,559,546,539,533,525,515,476,426,389,346,284,166,123,87,54],"timestamp_mouse":[9,30,50,69,89,110,130,150,170,190,210,230,251,270,289,310,330,351,369,390,409,430,451,470,489,510,530,550,570,590,610,630,649,670,690,710,730,749,770,790,809,829,849],"xSR":741.5,"ySR":573.95,"xT1":424.9,"yT1":0,"xT2":1058.1,"yT2":0,"toosoon":0,"cond_shown":"Incongruent","ratio_trial":100,"L_num":12,"L_den":30,"R_num":2,"R_den":4,"correct_side":2,"subjID":"DianaSofiaMoraOjeda1","gender":"1","school":"6","age":"11"},{"start_time":1551880915131,"click_time":1551880915970,"finger_time":1551880915768,"fix_duration":1480.8347338062001,"trial":45,"RT":637,"MT":202,"sideResp":1,"stimulus":[],"xmouse":[788,788,788,788,788,788,788,788,788,788,788,788,788,788,788,788,788,788,788,788,788,788,788,788,788,788,788,788,788,788,786,771,750,721,690,655,585,574,563,546,527,500],"ymouse":[601,601,601,601,601,601,601,601,601,601,601,601,601,601,601,601,601,601,601,601,601,601,601,601,601,601,601,601,601,600,592,549,513,472,421,360,226,195,165,127,95,67],"timestamp_mouse":[18,38,58,78,97,117,138,158,177,197,217,238,258,278,299,317,338,359,378,398,418,437,458,478,497,518,537,558,578,598,618,637,658,679,699,719,737,759,777,798,818,839],"xSR":741.5,"ySR":573.95,"xT1":424.9,"yT1":0,"xT2":1058.1,"yT2":0,"toosoon":0,"cond_shown":"Incongruent","ratio_trial":100,"L_num":1,"L_den":2,"R_num":8,"R_den":20,"correct_side":1,"subjID":"DianaSofiaMoraOjeda1","gender":"1","school":"6","age":"11"},{"start_time":1551880917229,"click_time":1551880918269,"finger_time":1551880917948,"fix_duration":277.70653385743947,"trial":46,"RT":719,"MT":321,"sideResp":2,"stimulus":[],"xmouse":[796,796,796,796,796,796,796,796,796,796,796,796,796,796,796,796,796,796,796,796,796,796,796,796,796,796,796,796,796,796,796,796,796,796,796,807,892,994,1159,1204,1221,1224,1223,1222,1220,1219,1218,1216,1210,1197,1185,1174,1131],"ymouse":[614,614,614,614,614,614,614,614,614,614,614,614,614,614,614,614,614,614,614,614,614,614,614,614,614,614,614,614,614,614,614,614,614,614,614,614,614,601,484,402,332,276,248,241,232,224,220,216,207,187,168,149,90],"timestamp_mouse":[1,21,41,59,80,101,121,141,160,179,200,220,239,260,280,300,321,341,359,380,400,420,440,459,480,500,519,539,560,580,601,620,639,659,679,700,719,739,760,780,800,820,840,860,880,899,920,939,959,980,1000,1020,1039],"xSR":741.5,"ySR":573.95,"xT1":424.9,"yT1":0,"xT2":1058.1,"yT2":0,"toosoon":0,"cond_shown":"Incongruent","ratio_trial":200,"L_num":14,"L_den":30,"R_num":6,"R_den":9,"correct_side":2,"subjID":"DianaSofiaMoraOjeda1","gender":"1","school":"6","age":"11"},{"start_time":1551880921203,"click_time":1551880922030,"finger_time":1551880921788,"fix_duration":1333.5603812805625,"trial":47,"RT":585,"MT":242,"sideResp":1,"stimulus":[],"xmouse":[817,817,817,817,817,817,817,817,817,817,817,817,817,817,817,817,817,817,817,817,817,817,817,817,816,813,810,803,789,770,769,769,769,756,743,725,695,660,598,562,531,511],"ymouse":[633,633,633,633,633,633,633,633,633,633,633,633,633,633,633,633,633,633,633,633,633,633,633,633,633,631,628,623,611,569,554,536,514,429,385,328,263,218,158,131,101,77],"timestamp_mouse":[7,25,45,67,86,105,125,146,166,187,206,227,247,266,287,306,327,346,366,386,406,425,445,465,487,506,526,546,566,585,605,625,646,665,686,706,726,745,766,785,807,827],"xSR":741.5,"ySR":573.95,"xT1":424.9,"yT1":0,"xT2":1058.1,"yT2":0,"toosoon":0,"cond_shown":"Congruent","ratio_trial":200,"L_num":14,"L_den":28,"R_num":6,"R_den":20,"correct_side":1,"subjID":"DianaSofiaMoraOjeda1","gender":"1","school":"6","age":"11"},{"start_time":1551880924585,"click_time":1551880925569,"finger_time":1551880925209,"fix_duration":1214.6844889731744,"trial":48,"RT":624,"MT":360,"sideResp":2,"stimulus":[],"xmouse":[791,791,791,791,791,791,791,791,791,791,791,791,791,791,791,791,791,791,791,791,791,791,791,791,791,791,791,791,791,791,794,813,839,878,956,973,984,991,997,1009,1014,1019,1023,1025,1034,1049,1058,1067,1074,1085],"ymouse":[597,597,597,597,597,597,597,597,597,597,597,597,597,597,597,597,597,597,597,597,597,597,597,597,597,597,597,597,597,597,597,572,536,481,368,335,316,303,294,276,268,259,250,240,213,179,158,137,118,81],"timestamp_mouse":[9,39,45,64,84,105,124,145,164,185,203,224,244,263,284,304,325,345,365,384,404,425,444,464,484,503,524,544,564,583,603,624,643,664,684,705,723,745,764,783,803,823,844,864,884,905,924,943,963,984],"xSR":741.5,"ySR":573.95,"xT1":424.9,"yT1":0,"xT2":1058.1,"yT2":0,"toosoon":0,"cond_shown":"Incongruent","ratio_trial":100,"L_num":11,"L_den":22,"R_num":9,"R_den":15,"correct_side":2,"subjID":"DianaSofiaMoraOjeda1","gender":"1","school":"6","age":"11"},{"start_time":1551880926901,"click_time":1551880927748,"finger_time":1551880927409,"fix_duration":250,"trial":49,"RT":508,"MT":339,"sideResp":1,"stimulus":[],"xmouse":[800,800,800,800,800,800,800,800,800,800,800,800,800,800,800,800,800,800,800,800,800,800,800,794,785,765,739,716,680,650,620,579,546,524,523,523,523,523,523,521,519,519,519],"ymouse":[608,608,608,608,608,608,608,608,608,608,608,608,608,608,608,608,608,608,608,608,608,608,608,607,589,562,530,509,487,459,422,370,318,263,248,230,210,192,159,141,127,114,99],"timestamp_mouse":[20,38,49,69,89,107,128,147,167,189,209,228,248,268,289,307,328,348,369,387,407,428,447,467,488,508,528,547,567,587,608,628,648,667,688,708,728,747,767,788,808,829,847],"xSR":741.5,"ySR":573.95,"xT1":424.9,"yT1":0,"xT2":1058.1,"yT2":0,"toosoon":0,"cond_shown":"Congruent","ratio_trial":300,"L_num":11,"L_den":22,"R_num":2,"R_den":10,"correct_side":1,"subjID":"DianaSofiaMoraOjeda1","gender":"1","school":"6","age":"11"},{"start_time":1551880929731,"click_time":1551880930809,"finger_time":1551880930269,"fix_duration":759.8040753898719,"trial":50,"RT":538,"MT":540,"sideResp":1,"stimulus":[],"xmouse":[785,785,785,785,785,785,785,785,785,785,785,785,785,785,785,785,785,785,785,785,785,785,785,785,785,784,781,778,777,777,777,777,777,777,770,737,610,485,418,374,355,340,337,331,325,323,323,323,324,327,340,387,410,433],"ymouse":[579,579,579,579,579,579,579,579,579,579,579,579,579,579,579,579,579,579,579,579,579,579,579,579,579,578,573,569,568,568,568,568,568,564,550,506,346,217,143,95,67,39,32,20,9,2,0,0,0,0,1,18,29,43],"timestamp_mouse":[19,38,59,79,97,118,138,158,177,197,218,237,258,279,299,318,338,358,377,398,418,438,459,477,498,519,538,559,577,597,618,638,657,678,699,718,738,759,777,799,818,838,857,878,898,919,938,959,977,997,1017,1038,1058,1077],"xSR":741.5,"ySR":573.95,"xT1":424.9,"yT1":0,"xT2":1058.1,"yT2":0,"toosoon":0,"cond_shown":"Congruent","ratio_trial":300,"L_num":9,"L_den":10,"R_num":3,"R_den":5,"correct_side":1,"subjID":"DianaSofiaMoraOjeda1","gender":"1","school":"6","age":"11"},{"start_time":1551880931881,"click_time":1551880933189,"finger_time":1551880932768,"fix_duration":250,"trial":51,"RT":887,"MT":421,"sideResp":2,"stimulus":[],"xmouse":[768,768,768,768,768,768,768,768,768,768,768,768,768,768,768,768,768,768,768,768,768,768,768,768,768,768,768,768,768,768,768,768,768,768,768,768,768,768,768,768,768,768,773,779,811,838,881,928,972,1054,1097,1124,1152,1169,1187,1190,1190,1188,1180,1171,1169,1169,1169,1169,1163,1158],"ymouse":[619,619,619,619,619,619,619,619,619,619,619,619,619,619,619,619,619,619,619,619,619,619,619,619,619,619,619,619,619,619,619,619,619,619,619,619,619,619,619,619,619,619,616,609,564,534,481,418,369,270,218,190,162,140,104,86,65,42,23,1,0,0,0,0,0,1],"timestamp_mouse":[15,38,48,69,88,107,128,147,168,189,209,229,248,268,287,308,328,348,369,389,407,429,449,467,488,508,528,548,567,587,607,628,647,668,688,709,728,748,768,788,809,828,848,868,887,907,928,948,969,987,1008,1027,1049,1068,1087,1107,1129,1149,1169,1188,1208,1228,1248,1268,1287,1308],"xSR":741.5,"ySR":573.95,"xT1":424.9,"yT1":0,"xT2":1058.1,"yT2":0,"toosoon":0,"cond_shown":"Congruent","ratio_trial":100,"L_num":8,"L_den":16,"R_num":2,"R_den":5,"correct_side":1,"subjID":"DianaSofiaMoraOjeda1","gender":"1","school":"6","age":"11"},{"start_time":1551880934981,"click_time":1551880936148,"finger_time":1551880935828,"fix_duration":250,"trial":52,"RT":847,"MT":320,"sideResp":2,"stimulus":[],"xmouse":[765,765,765,765,765,765,765,765,765,765,765,765,765,765,765,765,765,765,764,763,763,762,762,762,762,762,762,762,762,762,762,762,762,762,762,762,762,762,762,762,768,783,816,861,941,951,959,970,981,998,1002,1008,1013,1015,1018,1019,1024,1039,1062],"ymouse":[625,625,625,625,625,625,625,625,625,625,625,625,625,625,625,625,625,625,625,625,624,624,624,624,624,624,624,624,624,624,624,624,624,624,624,624,624,624,624,623,608,577,516,451,313,277,249,212,172,104,87,74,66,62,56,55,53,49,42],"timestamp_mouse":[10,35,48,67,88,107,127,147,169,188,208,228,247,269,287,307,328,348,367,389,408,428,447,469,488,508,529,547,568,587,609,629,649,668,687,709,728,748,768,789,807,827,847,868,888,908,927,948,967,987,1007,1028,1047,1069,1087,1109,1127,1149,1167],"xSR":741.5,"ySR":573.95,"xT1":424.9,"yT1":0,"xT2":1058.1,"yT2":0,"toosoon":0,"cond_shown":"Incongruent","ratio_trial":300,"L_num":4,"L_den":20,"R_num":2,"R_den":4,"correct_side":2,"subjID":"DianaSofiaMoraOjeda1","gender":"1","school":"6","age":"11"},{"start_time":1551880938772,"click_time":1551880939669,"finger_time":1551880939549,"fix_duration":1181.424514678514,"trial":53,"RT":777,"MT":120,"sideResp":1,"stimulus":[],"xmouse":[813,813,813,813,813,813,813,813,813,813,813,813,813,813,813,813,813,813,813,813,813,813,813,813,813,813,813,813,813,813,813,813,813,813,813,813,813,811,787,698,666,636,602,565,515],"ymouse":[592,592,592,592,592,592,592,592,592,592,592,592,592,592,592,592,592,592,592,592,592,592,592,592,592,592,592,592,592,592,592,592,592,592,592,592,592,578,519,359,303,253,194,130,46],"timestamp_mouse":[20,39,57,78,96,118,138,158,178,197,218,236,257,277,297,317,337,357,377,398,416,437,458,477,498,516,537,556,578,597,617,637,657,677,697,717,737,758,777,796,816,837,857,877,897],"xSR":741.5,"ySR":573.95,"xT1":424.9,"yT1":0,"xT2":1058.1,"yT2":0,"toosoon":0,"cond_shown":"Incongruent","ratio_trial":200,"L_num":4,"L_den":6,"R_num":14,"R_den":30,"correct_side":1,"subjID":"DianaSofiaMoraOjeda1","gender":"1","school":"6","age":"11"},{"start_time":1551880941115,"click_time":1551880942009,"finger_time":1551880941748,"fix_duration":324.6438327989657,"trial":54,"RT":633,"MT":261,"sideResp":2,"stimulus":[],"xmouse":[832,832,832,832,832,832,832,832,832,832,832,832,832,832,832,832,832,832,832,832,832,832,832,832,832,832,832,832,832,832,835,845,872,888,901,920,937,965,977,989,1005,1023,1058,1071,1086],"ymouse":[609,609,609,609,609,609,609,609,609,609,609,609,609,609,609,609,609,609,609,609,609,609,609,609,609,609,609,609,609,609,607,594,548,519,481,425,365,262,220,198,178,159,120,102,85],"timestamp_mouse":[14,38,53,75,94,114,134,153,174,195,214,235,253,274,294,314,334,354,374,395,415,434,453,474,493,514,535,554,575,594,615,633,653,674,694,714,735,754,773,794,814,834,854,873,894],"xSR":741.5,"ySR":573.95,"xT1":424.9,"yT1":0,"xT2":1058.1,"yT2":0,"toosoon":0,"cond_shown":"Incongruent","ratio_trial":100,"L_num":17,"L_den":30,"R_num":10,"R_den":15,"correct_side":2,"subjID":"DianaSofiaMoraOjeda1","gender":"1","school":"6","age":"11"},{"start_time":1551880943560,"click_time":1551880945030,"finger_time":1551880944808,"fix_duration":250,"trial":55,"RT":1248,"MT":222,"sideResp":2,"stimulus":[],"xmouse":[822,822,822,822,822,822,822,822,822,822,822,822,822,822,822,822,822,822,822,822,822,822,822,822,822,822,822,822,822,822,822,822,822,822,822,822,822,822,822,822,822,822,822,822,822,822,822,822,822,822,822,822,822,822,822,822,822,822,822,822,822,826,837,848,858,878,886,902,920,945,996,1021,1042,1061],"ymouse":[623,623,623,623,623,623,623,623,623,623,623,623,623,623,623,623,623,623,623,623,623,623,623,623,623,623,623,623,623,623,623,623,623,623,623,623,623,623,623,623,623,623,623,623,623,623,623,623,623,623,623,623,623,623,623,623,623,623,623,623,615,593,556,503,452,381,355,318,288,247,180,146,115,90],"timestamp_mouse":[11,38,50,70,89,109,129,149,170,190,210,228,249,269,288,310,328,349,368,389,409,429,448,470,489,509,529,550,569,589,609,630,649,668,689,710,728,749,770,788,810,828,850,869,890,910,929,950,970,988,1009,1030,1048,1069,1089,1108,1130,1149,1168,1189,1209,1229,1248,1268,1289,1309,1330,1348,1368,1389,1409,1428,1449,1470],"xSR":741.5,"ySR":573.95,"xT1":424.9,"yT1":0,"xT2":1058.1,"yT2":0,"toosoon":0,"cond_shown":"Congruent","ratio_trial":200,"L_num":5,"L_den":10,"R_num":14,"R_den":20,"correct_side":2,"subjID":"DianaSofiaMoraOjeda1","gender":"1","school":"6","age":"11"},{"start_time":1551880948594,"click_time":1551880950669,"finger_time":1551880950069,"fix_duration":824.5791936226325,"trial":56,"RT":1475,"MT":600,"sideResp":2,"stimulus":[],"xmouse":[817,817,817,817,817,817,817,817,817,817,817,817,817,817,817,817,817,817,817,817,817,817,817,817,817,817,817,817,817,817,817,817,817,817,817,817,817,817,817,817,817,817,817,817,817,817,817,817,817,817,817,817,817,817,817,817,817,817,817,817,817,817,817,817,817,817,817,817,817,817,817,821,824,843,857,876,908,941,946,946,946,949,962,992,999,999,999,999,1004,1005,1007,1011,1013,1026,1031,1038,1042,1046,1050,1050,1050,1050,1050,1066],"ymouse":[616,616,616,616,616,616,616,616,616,616,616,616,616,616,616,616,616,616,616,616,616,616,616,616,616,616,616,616,616,616,616,616,616,616,616,616,616,616,616,616,616,616,616,616,616,616,616,616,616,616,616,616,616,616,616,616,616,616,616,616,616,616,616,616,616,616,616,616,616,616,616,616,616,612,601,580,540,500,446,386,299,225,164,84,50,28,16,0,0,0,0,0,0,7,14,32,47,61,73,73,73,74,74,71],"timestamp_mouse":[15,38,55,74,95,114,135,156,174,195,214,235,256,274,294,315,335,355,375,395,414,435,455,475,494,516,536,555,575,596,614,636,655,674,696,714,735,755,774,795,815,836,855,875,894,915,935,956,974,996,1015,1036,1056,1074,1096,1116,1136,1155,1174,1196,1215,1236,1256,1275,1296,1314,1336,1355,1376,1396,1415,1434,1456,1475,1495,1514,1535,1555,1574,1594,1616,1635,1655,1674,1695,1714,1735,1755,1776,1795,1814,1834,1856,1875,1895,1914,1934,1955,1975,1995,2015,2034,2055,2075],"xSR":741.5,"ySR":573.95,"xT1":424.9,"yT1":0,"xT2":1058.1,"yT2":0,"toosoon":0,"cond_shown":"Incongruent","ratio_trial":200,"L_num":7,"L_den":15,"R_num":6,"R_den":9,"correct_side":2,"subjID":"DianaSofiaMoraOjeda1","gender":"1","school":"6","age":"11"},{"start_time":1551880951939,"click_time":1551880954469,"finger_time":1551880954208,"fix_duration":468.35237880552995,"trial":57,"RT":2269,"MT":261,"sideResp":1,"stimulus":[],"xmouse":[774,774,774,774,774,774,774,774,774,774,774,774,774,774,774,774,774,774,774,774,774,774,774,774,774,774,774,774,774,774,774,774,774,774,774,774,774,774,774,774,774,774,774,774,774,774,774,774,774,774,774,774,774,774,774,774,774,774,774,774,774,774,774,774,774,774,774,774,774,774,774,774,774,774,774,774,774,774,774,774,774,774,774,774,774,774,774,774,774,774,774,774,774,774,774,774,774,774,774,774,774,774,774,774,774,774,774,774,774,774,774,774,763,730,696,671,642,574,555,538,529,519,512,509,506,505,487],"ymouse":[633,633,633,633,633,633,633,633,633,633,633,633,633,633,633,633,633,633,633,633,633,633,633,633,633,633,633,633,633,633,633,633,633,633,633,633,633,633,633,633,633,633,633,633,633,633,633,633,633,633,633,633,633,633,633,633,633,633,633,633,633,633,633,633,633,633,633,633,633,633,633,633,633,633,633,633,633,633,633,633,633,633,633,633,633,633,633,633,633,633,633,633,633,633,633,633,633,