[{"start_time":1551795057716,"click_time":1551795062002,"finger_time":1551795060442,"fix_duration":291.38307584701886,"trial":0,"RT":2726,"MT":1560,"sideResp":1,"stimulus":"img/500/randomdotsizeEA/L/4_Ratio_500_L_18_R_9.png","xmouse":[679,679,679,679,679,679,679,679,679,679,679,679,679,679,679,679,679,679,679,679,679,679,679,679,679,679,679,679,679,679,679,679,679,679,679,679,679,679,679,679,679,679,679,679,679,679,679,679,679,679,679,679,679,679,679,679,679,679,679,679,679,679,679,679,679,679,679,679,679,679,679,679,679,679,679,679,679,679,679,679,679,679,679,679,679,679,679,679,679,679,679,679,679,679,679,679,679,679,679,679,679,679,679,679,679,679,679,679,679,679,679,679,679,679,679,679,679,679,679,679,679,679,679,679,679,679,679,679,679,679,679,678,674,671,663,658,641,634,626,617,601,594,588,579,574,572,568,568,568,568,570,583,584,585,586,586,584,584,584,584,584,584,584,584,583,574,564,564,564,564,564,564,564,564,564,564,564,564,564,564,564,564,564,564,564,560,543,523,510,504,503,502,502,502,502,499,495,494,493,493,489,478,464,460,460,455,453,450,450,448,446,444,443,439,435],"ymouse":[431,431,431,431,431,431,431,431,431,431,431,431,431,431,431,431,431,431,431,431,431,431,431,431,431,431,431,431,431,431,431,431,431,431,431,431,431,431,431,431,431,431,431,431,431,431,431,431,431,431,431,431,431,431,431,431,431,431,431,431,431,431,431,431,431,431,431,431,431,431,431,431,431,431,431,431,431,431,431,431,431,431,431,431,431,431,431,431,431,431,431,431,431,431,431,431,431,431,431,431,431,431,431,431,431,431,431,431,431,431,431,431,431,431,431,431,431,431,431,431,431,431,431,431,431,431,431,431,431,431,431,430,425,417,406,400,376,369,358,343,322,313,307,296,286,283,273,273,273,273,272,268,267,267,265,261,260,260,260,259,259,259,259,259,259,254,249,249,249,249,249,249,249,249,249,249,249,249,249,249,249,249,249,249,249,246,228,200,183,176,173,171,171,171,170,164,155,153,152,151,145,133,124,120,119,114,112,111,111,110,109,109,108,105,98],"timestamp_mouse":[9,36,46,66,86,107,126,146,166,187,207,226,246,267,287,306,326,346,366,387,407,426,447,466,487,507,527,546,567,586,607,626,647,666,686,706,726,746,766,787,806,826,846,866,887,906,926,946,966,986,1006,1026,1047,1066,1086,1107,1126,1146,1166,1186,1207,1226,1246,1266,1286,1306,1327,1348,1366,1386,1406,1427,1446,1466,1486,1506,1527,1546,1567,1586,1606,1626,1646,1667,1686,1706,1726,1746,1766,1786,1806,1826,1846,1866,1887,1907,1926,1946,1966,1986,2007,2026,2046,2067,2086,2106,2126,2146,2167,2186,2207,2226,2246,2267,2288,2307,2326,2346,2366,2386,2406,2426,2447,2467,2486,2506,2526,2546,2567,2587,2607,2627,2646,2667,2687,2706,2726,2746,2767,2786,2807,2828,2846,2867,2886,2908,2927,2947,2966,2986,3006,3028,3047,3066,3086,3106,3126,3146,3166,3186,3207,3227,3246,3266,3286,3306,3326,3346,3367,3387,3406,3426,3446,3466,3487,3507,3526,3546,3568,3587,3608,3626,3647,3666,3687,3706,3726,3747,3767,3786,3807,3827,3846,3867,3887,3907,3927,3946,3967,3987,4006,4028,4046,4066,4086,4106,4126,4147,4166,4186,4207,4227,4246,4266,4286],"xSR":624.5,"ySR":384.15000000000003,"xT1":354.7,"yT1":0,"xT2":894.3,"yT2":0,"toosoon":0,"cond_shown":"randomdotsizeEA","ratio_trial":500,"smaller_num":"9","larger_num":"18","correct_side":1,"subjID":"valentinagomezvanegas","gender":"1","age":"11","school":"6","test":{"fix_dur":[250,1500],"timestim":300,"targets_dim":[100,100],"targets_relative_coord":[0.3,0.7],"size_stim":[880,420],"start_dim":[100,100],"size_start":[300,300],"size_fix":60,"samplingrate":20,"img_types":["equaldotsize","equaldotanddens","randomdotsizeEA"],"ratios":[250,500,750,900],"rep_conds":9,"nTrials":120,"trials_to_rest":500,"Trials_order":[65,109,119,4,74,17,28,100,66,116,81,12,38,29,77,102,117,59,37,96,45,22,35,33,10,1,31,46,108,79,85,106,44,51,36,69,93,16,110,23,78,82,61,72,15,19,67,90,48,0,5,103,80,99,97,47,84,56,14,115,95,75,27,43,52,41,107,111,49,83,91,88,68,60,58,105,21,50,40,26,94,101,63,112,3,53,87,11,6,118,71,104,8,13,18,70,30,9,113,62,2,24,32,86,54,89,39,34,7,114,57,42,55,76,92,98,73,25,64,20],"cond_shown":["randomdotsizeEA","equaldotanddens","randomdotsizeEA","equaldotanddens","randomdotsizeEA","randomdotsizeEA","equaldotanddens","equaldotanddens","equaldotsize","randomdotsizeEA","equaldotsize","equaldotsize","randomdotsizeEA","randomdotsizeEA","randomdotsizeEA","equaldotsize","equaldotsize","randomdotsizeEA","equaldotanddens","equaldotsize","equaldotsize","equaldotanddens","randomdotsizeEA","equaldotsize","equaldotanddens","equaldotanddens","equaldotanddens","equaldotanddens","equaldotsize","equaldotanddens","equaldotanddens","equaldotanddens","randomdotsizeEA","equaldotsize","equaldotsize","equaldotsize","equaldotsize","equaldotanddens","randomdotsizeEA","randomdotsizeEA","equaldotsize","equaldotanddens","equaldotanddens","equaldotsize","equaldotsize","equaldotanddens","equaldotanddens","equaldotsize","equaldotsize","equaldotsize","randomdotsizeEA","equaldotanddens","randomdotsizeEA","equaldotsize","equaldotanddens","randomdotsizeEA","equaldotsize","randomdotsizeEA","randomdotsizeEA","equaldotanddens","randomdotsizeEA","equaldotsize","equaldotsize","equaldotanddens","equaldotanddens","randomdotsizeEA","randomdotsizeEA","equaldotsize","equaldotanddens","randomdotsizeEA","equaldotanddens","equaldotanddens","randomdotsizeEA","equaldotsize","equaldotanddens","equaldotsize","equaldotsize","randomdotsizeEA","equaldotanddens","randomdotsizeEA","equaldotanddens","randomdotsizeEA","equaldotsize","equaldotanddens","equaldotsize","randomdotsizeEA","equaldotsize","randomdotsizeEA","equaldotsize","equaldotanddens","randomdotsizeEA","randomdotsizeEA","randomdotsizeEA","equaldotanddens","equaldotsize","equaldotanddens","equaldotsize","equaldotsize","randomdotsizeEA","randomdotsizeEA","randomdotsizeEA","equaldotsize","randomdotsizeEA","randomdotsizeEA","equaldotsize","randomdotsizeEA","equaldotsize","equaldotanddens","equaldotanddens","equaldotsize","equaldotsize","equaldotsize","equaldotanddens","equaldotanddens","randomdotsizeEA","randomdotsizeEA","equaldotanddens","equaldotanddens","equaldotanddens","randomdotsizeEA"],"ratio_trial":[500,250,900,500,250,500,500,500,750,750,900,250,250,500,500,750,900,900,250,250,900,900,900,900,900,250,750,900,250,750,250,900,750,500,250,900,900,500,250,900,750,900,250,250,500,750,750,750,250,250,500,750,750,500,250,900,250,750,250,750,900,500,500,750,500,500,900,500,250,900,750,500,750,250,900,900,900,250,500,250,900,500,500,500,500,500,500,900,750,900,900,750,750,250,750,900,750,900,500,250,250,250,750,250,750,500,500,900,750,750,900,750,750,500,750,250,250,250,500,750],"smaller_num":["9","2","9","6","3","5","4","6","3","3","9","3","3","2","6","3","18","9","6","4","18","18","18","18","18","3","18","18","4","15","3","18","6","5","3","9","9","10","3","18","3","18","4","2","2","6","12","15","2","2","10","15","3","5","6","18","3","3","4","3","18","1","10","3","1","9","18","5","1","9","6","2","6","3","9","18","9","2","1","4","9","2","2","2","9","9","9","9","3","9","18","15","6","5","3","18","15","18","2","3","3","2","18","2","3","5","5","9","15","3","18","3","9","9","3","2","1","3","2","6"],"larger_num":["18","8","10","12","12","10","8","12","4","4","10","12","12","4","12","4","20","10","24","16","20","20","20","20","20","12","24","20","16","20","12","20","8","10","12","10","10","20","12","20","4","20","16","8","4","8","16","20","8","8","20","20","4","10","24","20","12","4","16","4","20","2","20","4","2","18","20","10","4","10","8","4","8","12","10","20","10","8","2","16","10","4","4","4","18","18","18","10","4","10","20","20","8","20","4","20","20","20","4","12","12","8","24","8","4","10","10","10","20","4","20","4","12","18","4","8","4","12","4","8"],"correct_side":[1,2,2,1,1,1,1,1,1,1,2,1,2,1,1,2,1,2,2,1,1,2,1,2,2,2,1,1,2,1,1,1,1,2,1,1,2,2,2,2,1,1,1,1,1,1,2,2,1,1,2,2,2,2,2,1,2,1,2,1,1,2,2,2,2,2,1,2,2,2,1,1,1,1,1,2,2,1,2,1,2,2,1,1,2,2,2,2,2,2,1,1,2,2,2,1,2,1,1,2,1,2,1,1,1,2,1,2,2,1,1,1,2,2,1,1,2,1,1,1],"img_shown":["img/500/randomdotsizeEA/L/4_Ratio_500_L_18_R_9.png","img/250/equaldotanddens/R/13_Ratio_250_L_2_R_8.png","img/900/randomdotsizeEA/R/7_Ratio_900_L_9_R_10.png","img/500/equaldotanddens/L/13_Ratio_500_L_12_R_6.png","img/250/randomdotsizeEA/L/15_Ratio_250_L_12_R_3.png","img/500/randomdotsizeEA/L/7_Ratio_500_L_10_R_5.png","img/500/equaldotanddens/L/8_Ratio_500_L_8_R_4.png","img/500/equaldotanddens/L/13_Ratio_500_L_12_R_6.png","img/750/equaldotsize/L/8_Ratio_750_L_4_R_3.png","img/750/randomdotsizeEA/L/10_Ratio_750_L_4_R_3.png","img/900/equaldotsize/R/3_Ratio_900_L_9_R_10.png","img/250/equaldotsize/L/14_Ratio_250_L_12_R_3.png","img/250/randomdotsizeEA/R/4_Ratio_250_L_3_R_12.png","img/500/randomdotsizeEA/L/5_Ratio_500_L_4_R_2.png","img/500/randomdotsizeEA/L/13_Ratio_500_L_12_R_6.png","img/750/equaldotsize/R/7_Ratio_750_L_3_R_4.png","img/900/equaldotsize/L/4_Ratio_900_L_20_R_18.png","img/900/randomdotsizeEA/R/5_Ratio_900_L_9_R_10.png","img/250/equaldotanddens/R/6_Ratio_250_L_6_R_24.png","img/250/equaldotsize/L/2_Ratio_250_L_16_R_4.png","img/900/equaldotsize/L/2_Ratio_900_L_20_R_18.png","img/900/equaldotanddens/R/13_Ratio_900_L_18_R_20.png","img/900/randomdotsizeEA/L/10_Ratio_900_L_20_R_18.png","img/900/equaldotsize/R/12_Ratio_900_L_18_R_20.png","img/900/equaldotanddens/R/11_Ratio_900_L_18_R_20.png","img/250/equaldotanddens/R/11_Ratio_250_L_3_R_12.png","img/750/equaldotanddens/L/6_Ratio_750_L_24_R_18.png","img/900/equaldotanddens/L/2_Ratio_900_L_20_R_18.png","img/250/equaldotsize/R/10_Ratio_250_L_4_R_16.png","img/750/equaldotanddens/L/1_Ratio_750_L_20_R_15.png","img/250/equaldotanddens/L/14_Ratio_250_L_12_R_3.png","img/900/equaldotanddens/L/10_Ratio_900_L_20_R_18.png","img/750/randomdotsizeEA/L/13_Ratio_750_L_8_R_6.png","img/500/equaldotsize/R/14_Ratio_500_L_5_R_10.png","img/250/equaldotsize/L/15_Ratio_250_L_12_R_3.png","img/900/equaldotsize/L/1_Ratio_900_L_10_R_9.png","img/900/equaldotsize/R/5_Ratio_900_L_9_R_10.png","img/500/equaldotanddens/R/3_Ratio_500_L_10_R_20.png","img/250/randomdotsizeEA/R/4_Ratio_250_L_3_R_12.png","img/900/randomdotsizeEA/R/12_Ratio_900_L_18_R_20.png","img/750/equaldotsize/L/9_Ratio_750_L_4_R_3.png","img/900/equaldotanddens/L/4_Ratio_900_L_20_R_18.png","img/250/equaldotanddens/L/2_Ratio_250_L_16_R_4.png","img/250/equaldotsize/L/1_Ratio_250_L_8_R_2.png","img/500/equaldotsize/L/10_Ratio_500_L_4_R_2.png","img/750/equaldotanddens/L/14_Ratio_750_L_8_R_6.png","img/750/equaldotanddens/R/11_Ratio_750_L_12_R_16.png","img/750/equaldotsize/R/3_Ratio_750_L_15_R_20.png","img/250/equaldotsize/L/1_Ratio_250_L_8_R_2.png","img/250/equaldotsize/L/3_Ratio_250_L_8_R_2.png","img/500/randomdotsizeEA/R/3_Ratio_500_L_10_R_20.png","img/750/equaldotanddens/R/3_Ratio_750_L_15_R_20.png","img/750/randomdotsizeEA/R/7_Ratio_750_L_3_R_4.png","img/500/equaldotsize/R/14_Ratio_500_L_5_R_10.png","img/250/equaldotanddens/R/6_Ratio_250_L_6_R_24.png","img/900/randomdotsizeEA/L/4_Ratio_900_L_20_R_18.png","img/250/equaldotsize/R/4_Ratio_250_L_3_R_12.png","img/750/randomdotsizeEA/L/10_Ratio_750_L_4_R_3.png","img/250/randomdotsizeEA/R/10_Ratio_250_L_4_R_16.png","img/750/equaldotanddens/L/9_Ratio_750_L_4_R_3.png","img/900/randomdotsizeEA/L/2_Ratio_900_L_20_R_18.png","img/500/equaldotsize/R/12_Ratio_500_L_1_R_2.png","img/500/equaldotsize/R/3_Ratio_500_L_10_R_20.png","img/750/equaldotanddens/R/7_Ratio_750_L_3_R_4.png","img/500/equaldotanddens/R/15_Ratio_500_L_1_R_2.png","img/500/randomdotsizeEA/R/6_Ratio_500_L_9_R_18.png","img/900/randomdotsizeEA/L/2_Ratio_900_L_20_R_18.png","img/500/equaldotsize/R/14_Ratio_500_L_5_R_10.png","img/250/equaldotanddens/R/8_Ratio_250_L_1_R_4.png","img/900/randomdotsizeEA/R/5_Ratio_900_L_9_R_10.png","img/750/equaldotanddens/L/13_Ratio_750_L_8_R_6.png","img/500/equaldotanddens/L/5_Ratio_500_L_4_R_2.png","img/750/randomdotsizeEA/L/14_Ratio_750_L_8_R_6.png","img/250/equaldotsize/L/15_Ratio_250_L_12_R_3.png","img/900/equaldotanddens/L/1_Ratio_900_L_10_R_9.png","img/900/equaldotsize/R/12_Ratio_900_L_18_R_20.png","img/900/equaldotsize/R/15_Ratio_900_L_9_R_10.png","img/250/randomdotsizeEA/L/7_Ratio_250_L_8_R_2.png","img/500/equaldotanddens/R/12_Ratio_500_L_1_R_2.png","img/250/randomdotsizeEA/L/2_Ratio_250_L_16_R_4.png","img/900/equaldotanddens/R/3_Ratio_900_L_9_R_10.png","img/500/randomdotsizeEA/R/9_Ratio_500_L_2_R_4.png","img/500/equaldotsize/L/5_Ratio_500_L_4_R_2.png","img/500/equaldotanddens/L/5_Ratio_500_L_4_R_2.png","img/500/equaldotsize/R/6_Ratio_500_L_9_R_18.png","img/500/randomdotsizeEA/R/1_Ratio_500_L_9_R_18.png","img/500/equaldotsize/R/1_Ratio_500_L_9_R_18.png","img/900/randomdotsizeEA/R/3_Ratio_900_L_9_R_10.png","img/750/equaldotsize/R/12_Ratio_750_L_3_R_4.png","img/900/equaldotanddens/R/5_Ratio_900_L_9_R_10.png","img/900/randomdotsizeEA/L/10_Ratio_900_L_20_R_18.png","img/750/randomdotsizeEA/L/1_Ratio_750_L_20_R_15.png","img/750/randomdotsizeEA/R/2_Ratio_750_L_6_R_8.png","img/250/equaldotanddens/R/12_Ratio_250_L_5_R_20.png","img/750/equaldotsize/R/12_Ratio_750_L_3_R_4.png","img/900/equaldotanddens/L/8_Ratio_900_L_20_R_18.png","img/750/equaldotsize/R/5_Ratio_750_L_15_R_20.png","img/900/equaldotsize/L/4_Ratio_900_L_20_R_18.png","img/500/randomdotsizeEA/L/5_Ratio_500_L_4_R_2.png","img/250/randomdotsizeEA/R/4_Ratio_250_L_3_R_12.png","img/250/randomdotsizeEA/L/14_Ratio_250_L_12_R_3.png","img/250/equaldotsize/R/13_Ratio_250_L_2_R_8.png","img/750/randomdotsizeEA/L/6_Ratio_750_L_24_R_18.png","img/250/randomdotsizeEA/L/3_Ratio_250_L_8_R_2.png","img/750/equaldotsize/L/9_Ratio_750_L_4_R_3.png","img/500/randomdotsizeEA/R/14_Ratio_500_L_5_R_10.png","img/500/equaldotsize/L/7_Ratio_500_L_10_R_5.png","img/900/equaldotanddens/R/15_Ratio_900_L_9_R_10.png","img/750/equaldotanddens/R/5_Ratio_750_L_15_R_20.png","img/750/equaldotsize/L/8_Ratio_750_L_4_R_3.png","img/900/equaldotsize/L/2_Ratio_900_L_20_R_18.png","img/750/equaldotsize/L/9_Ratio_750_L_4_R_3.png","img/750/equaldotanddens/R/15_Ratio_750_L_9_R_12.png","img/500/equaldotanddens/R/1_Ratio_500_L_9_R_18.png","img/750/randomdotsizeEA/L/9_Ratio_750_L_4_R_3.png","img/250/randomdotsizeEA/L/3_Ratio_250_L_8_R_2.png","img/250/equaldotanddens/R/8_Ratio_250_L_1_R_4.png","img/250/equaldotanddens/L/15_Ratio_250_L_12_R_3.png","img/500/equaldotanddens/L/5_Ratio_500_L_4_R_2.png","img/750/randomdotsizeEA/L/13_Ratio_750_L_8_R_6.png"],"Rat0":[["12_Ratio_0_L_9_R_0.png","13_Ratio_0_L_6_R_0.png","5_Ratio_0_L_2_R_0.png","6_Ratio_0_L_4_R_0.png","8_Ratio_0_L_6_R_0.png"],["1_Ratio_0_L_0_R_17.png","10_Ratio_0_L_0_R_22.png","11_Ratio_0_L_0_R_1.png","14_Ratio_0_L_0_R_24.png","15_Ratio_0_L_0_R_4.png","2_Ratio_0_L_0_R_5.png","3_Ratio_0_L_0_R_17.png","4_Ratio_0_L_0_R_7.png","7_Ratio_0_L_0_R_19.png","9_Ratio_0_L_0_R_15.png"]],"Rat250":[["1_Ratio_250_L_8_R_2.png","14_Ratio_250_L_12_R_3.png","15_Ratio_250_L_12_R_3.png","2_Ratio_250_L_16_R_4.png","3_Ratio_250_L_8_R_2.png","5_Ratio_250_L_24_R_6.png","7_Ratio_250_L_8_R_2.png"],["10_Ratio_250_L_4_R_16.png","11_Ratio_250_L_3_R_12.png","12_Ratio_250_L_5_R_20.png","13_Ratio_250_L_2_R_8.png","4_Ratio_250_L_3_R_12.png","6_Ratio_250_L_6_R_24.png","8_Ratio_250_L_1_R_4.png","9_Ratio_250_L_3_R_12.png"]],"Rat500":[["10_Ratio_500_L_4_R_2.png","11_Ratio_500_L_12_R_6.png","13_Ratio_500_L_12_R_6.png","4_Ratio_500_L_18_R_9.png","5_Ratio_500_L_4_R_2.png","7_Ratio_500_L_10_R_5.png","8_Ratio_500_L_8_R_4.png"],["1_Ratio_500_L_9_R_18.png","12_Ratio_500_L_1_R_2.png","14_Ratio_500_L_5_R_10.png","15_Ratio_500_L_1_R_2.png","2_Ratio_500_L_3_R_6.png","3_Ratio_500_L_10_R_20.png","6_Ratio_500_L_9_R_18.png","9_Ratio_500_L_2_R_4.png"]],"Rat750":[["1_Ratio_750_L_20_R_15.png","10_Ratio_750_L_4_R_3.png","13_Ratio_750_L_8_R_6.png","14_Ratio_750_L_8_R_6.png","6_Ratio_750_L_24_R_18.png","8_Ratio_750_L_4_R_3.png","9_Ratio_750_L_4_R_3.png"],["11_Ratio_750_L_12_R_16.png","12_Ratio_750_L_3_R_4.png","15_Ratio_750_L_9_R_12.png","2_Ratio_750_L_6_R_8.png","3_Ratio_750_L_15_R_20.png","4_Ratio_750_L_15_R_20.png","5_Ratio_750_L_15_R_20.png","7_Ratio_750_L_3_R_4.png"]],"Rat900":[["1_Ratio_900_L_10_R_9.png","10_Ratio_900_L_20_R_18.png","2_Ratio_900_L_20_R_18.png","4_Ratio_900_L_20_R_18.png","8_Ratio_900_L_20_R_18.png"],["11_Ratio_900_L_18_R_20.png","12_Ratio_900_L_18_R_20.png","13_Ratio_900_L_18_R_20.png","14_Ratio_900_L_18_R_20.png","15_Ratio_900_L_9_R_10.png","3_Ratio_900_L_9_R_10.png","5_Ratio_900_L_9_R_10.png","6_Ratio_900_L_9_R_10.png","7_Ratio_900_L_9_R_10.png","9_Ratio_900_L_18_R_20.png"]],"Rat1000":[["10_Ratio_1000_L_16_R_16.png","11_Ratio_1000_L_6_R_6.png","12_Ratio_1000_L_14_R_14.png","13_Ratio_1000_L_20_R_20.png","15_Ratio_1000_L_15_R_15.png","2_Ratio_1000_L_17_R_17.png","4_Ratio_1000_L_9_R_9.png","5_Ratio_1000_L_6_R_6.png","6_Ratio_1000_L_19_R_19.png","8_Ratio_1000_L_14_R_14.png","9_Ratio_1000_L_25_R_25.png"],["1_Ratio_1000_L_1_R_1.png","14_Ratio_1000_L_17_R_17.png","3_Ratio_1000_L_17_R_17.png","7_Ratio_1000_L_6_R_6.png"]]}},{"start_time":1551795063987,"click_time":1551795066022,"finger_time":1551795065082,"fix_duration":883.111942988318,"trial":1,"RT":1095,"MT":940,"sideResp":2,"stimulus":"img/250/equaldotanddens/R/13_Ratio_250_L_2_R_8.png","xmouse":[663,663,663,663,663,663,663,663,663,663,663,663,663,663,663,663,663,663,663,663,663,663,663,663,663,663,663,663,663,663,663,663,663,663,663,663,663,663,663,663,663,663,663,663,663,663,663,663,663,665,671,695,705,724,740,746,763,769,771,778,788,794,812,817,824,832,841,842,843,843,843,843,848,851,853,854,854,856,856,856,857,857,860,861,862,865,866,869,869,869,871,873,878,881,883,885,886,887,890,892,894,896],"ymouse":[451,451,451,451,451,451,451,451,451,451,451,451,451,451,451,451,451,451,451,451,451,451,451,451,451,451,451,451,451,451,451,451,451,451,451,451,451,451,451,451,451,451,451,451,451,451,451,451,451,452,448,426,417,392,371,362,324,305,295,277,258,247,206,196,180,165,151,148,147,145,143,141,131,127,122,118,116,109,108,107,105,105,97,92,89,82,79,74,72,71,68,64,54,47,42,34,27,24,18,18,17,16],"timestamp_mouse":[25,35,56,76,95,115,135,155,175,195,215,236,255,275,296,315,335,355,375,395,416,435,455,475,496,516,537,557,575,595,615,636,656,675,695,717,735,756,775,795,815,835,855,875,895,915,935,955,975,995,1016,1035,1056,1076,1095,1115,1135,1155,1176,1195,1215,1236,1256,1276,1295,1316,1335,1355,1375,1396,1415,1436,1455,1475,1495,1515,1535,1555,1576,1595,1616,1637,1656,1676,1695,1716,1735,1755,1776,1795,1817,1835,1855,1875,1896,1916,1935,1955,1975,1996,2015,2035],"xSR":624.5,"ySR":384.15000000000003,"xT1":354.7,"yT1":0,"xT2":894.3,"yT2":0,"toosoon":0,"cond_shown":"equaldotanddens","ratio_trial":250,"smaller_num":"2","larger_num":"8","correct_side":2,"subjID":"valentinagomezvanegas","gender":"1","age":"11","school":"6"},{"start_time":1551795068456,"click_time":1551795070763,"finger_time":1551795069522,"fix_duration":913.4502836316118,"trial":2,"RT":1066,"MT":1241,"sideResp":2,"stimulus":"img/900/randomdotsizeEA/R/7_Ratio_900_L_9_R_10.png","xmouse":[659,659,659,659,659,659,659,659,659,659,659,659,659,659,659,659,659,659,659,659,659,659,659,659,659,659,659,659,659,659,659,659,659,659,659,659,659,659,659,659,659,659,659,659,659,659,659,659,659,659,659,663,667,677,680,684,688,693,710,714,724,733,738,766,773,789,802,808,825,826,830,836,838,843,850,852,852,852,852,852,849,848,847,846,846,846,846,846,845,845,845,845,845,845,846,846,846,846,847,856,858,865,876,876,876,876,876,876,876,876,876,876,876,876,876,920],"ymouse":[410,410,410,410,410,410,410,410,410,410,410,410,410,410,410,410,410,410,410,410,410,410,410,410,410,410,410,410,410,410,410,410,410,410,410,410,410,410,410,410,410,410,410,410,410,410,410,410,410,410,410,404,400,382,376,366,359,347,315,309,297,289,286,267,262,251,243,239,228,226,221,213,210,202,193,188,188,188,188,179,169,164,164,158,153,152,152,152,150,136,129,121,115,112,102,98,95,91,89,65,58,40,21,21,21,21,21,21,21,21,21,21,21,21,21,21],"timestamp_mouse":[8,26,46,66,86,106,126,146,167,186,206,227,246,266,287,306,326,346,368,388,406,426,447,467,486,506,527,546,567,588,607,626,646,667,686,706,726,746,766,786,807,827,846,866,886,906,926,946,966,986,1006,1026,1046,1066,1086,1106,1126,1146,1166,1186,1207,1227,1247,1266,1286,1306,1327,1346,1366,1386,1407,1426,1446,1467,1487,1506,1526,1546,1567,1587,1606,1627,1646,1666,1686,1707,1726,1746,1766,1786,1807,1827,1846,1866,1886,1906,1927,1946,1967,1986,2006,2027,2047,2067,2086,2107,2126,2147,2166,2187,2206,2227,2247,2267,2286,2307],"xSR":624.5,"ySR":384.15000000000003,"xT1":354.7,"yT1":0,"xT2":894.3,"yT2":0,"toosoon":0,"cond_shown":"randomdotsizeEA","ratio_trial":900,"smaller_num":"9","larger_num":"10","correct_side":2,"subjID":"valentinagomezvanegas","gender":"1","age":"11","school":"6"},{"start_time":1551795082317,"click_time":1551795083742,"finger_time":1551795083202,"fix_duration":1313.5739435567484,"trial":3,"RT":885,"MT":540,"sideResp":1,"stimulus":"img/500/equaldotanddens/L/13_Ratio_500_L_12_R_6.png","xmouse":[699,699,699,699,699,699,699,699,699,699,699,699,699,699,699,699,699,699,699,699,699,699,699,699,699,699,699,699,699,699,699,699,699,699,699,699,699,699,699,699,699,699,699,690,620,580,568,551,537,524,522,518,512,503,494,487,482,480,472,465,462,458,457,455,454,454,454,454,453,452,451,449],"ymouse":[415,415,415,415,415,415,415,415,415,415,415,415,415,415,415,415,415,415,415,415,415,415,415,415,415,415,415,415,415,415,415,415,415,415,415,415,415,415,415,415,415,415,413,391,313,285,279,265,248,224,217,212,204,193,183,174,167,163,152,139,133,128,126,122,119,114,110,110,108,104,101,98],"timestamp_mouse":[12,27,45,65,86,106,125,145,166,185,205,225,245,265,285,305,326,345,365,386,406,425,445,465,485,505,525,545,565,585,605,625,645,667,686,705,725,745,765,786,805,825,845,865,885,905,926,945,965,986,1005,1025,1045,1065,1085,1105,1125,1145,1166,1186,1205,1226,1245,1265,1286,1305,1326,1346,1366,1386,1405,1425],"xSR":624.5,"ySR":384.15000000000003,"xT1":354.7,"yT1":0,"xT2":894.3,"yT2":0,"toosoon":0,"cond_shown":"equaldotanddens","ratio_trial":500,"smaller_num":"6","larger_num":"12","correct_side":1,"subjID":"valentinagomezvanegas","gender":"1","age":"11","school":"6"},{"start_time":1551795085334,"click_time":1551795086944,"finger_time":1551795086302,"fix_duration":250,"trial":4,"RT":968,"MT":642,"sideResp":1,"stimulus":"img/250/randomdotsizeEA/L/15_Ratio_250_L_12_R_3.png","xmouse":[708,708,708,708,708,708,708,708,708,708,708,708,708,708,708,708,708,708,708,708,708,708,708,708,708,708,708,708,708,708,708,708,708,708,708,708,708,708,708,708,708,708,708,708,708,708,708,695,685,666,656,635,614,610,604,599,596,583,578,568,555,549,531,527,521,514,511,499,497,491,487,482,474,470,465,459,455,442,439,437,435],"ymouse":[396,396,396,396,396,396,396,396,396,396,396,396,396,396,396,396,396,396,396,396,396,396,396,396,396,396,396,396,396,396,396,396,396,396,396,396,396,396,396,396,396,396,396,396,396,396,396,387,380,365,358,343,325,322,311,304,300,278,272,261,251,245,227,223,214,205,200,185,180,173,168,162,151,148,141,132,125,108,102,100,96],"timestamp_mouse":[9,38,48,68,89,109,128,148,168,188,208,228,248,269,288,308,328,348,368,388,408,428,449,468,489,508,528,548,569,588,608,629,648,668,690,708,728,748,768,788,808,828,848,868,888,909,928,948,968,989,1009,1028,1048,1069,1088,1109,1128,1148,1168,1188,1208,1228,1248,1268,1288,1308,1328,1348,1368,1388,1409,1428,1449,1469,1489,1508,1529,1548,1568,1589,1610],"xSR":624.5,"ySR":384.15000000000003,"xT1":354.7,"yT1":0,"xT2":894.3,"yT2":0,"toosoon":0,"cond_shown":"randomdotsizeEA","ratio_trial":250,"smaller_num":"3","larger_num":"12","correct_side":1,"subjID":"valentinagomezvanegas","gender":"1","age":"11","school":"6"},{"start_time":1551795088853,"click_time":1551795090383,"finger_time":1551795089742,"fix_duration":729.9995775834378,"trial":5,"RT":889,"MT":641,"sideResp":1,"stimulus":"img/500/randomdotsizeEA/L/7_Ratio_500_L_10_R_5.png","xmouse":[670,670,670,670,670,670,670,670,670,670,670,670,670,670,670,670,670,670,670,670,670,670,670,670,670,670,670,670,670,670,670,670,670,670,670,670,670,670,670,670,670,670,669,667,659,651,642,638,631,626,624,620,614,604,591,581,575,572,565,554,545,538,530,526,519,508,499,492,489,485,474,471,468,466,462,458,454],"ymouse":[407,407,407,407,407,407,407,407,407,407,407,407,407,407,407,407,407,407,407,407,407,407,407,407,407,407,407,407,407,407,407,407,407,407,407,407,407,407,407,407,407,407,406,398,371,354,339,331,321,312,308,303,295,281,262,247,234,226,214,195,184,175,165,159,150,135,126,116,111,106,97,95,93,92,88,85,82],"timestamp_mouse":[11,30,49,70,89,110,129,149,169,190,209,230,249,269,289,310,329,349,369,389,410,429,450,470,489,510,530,550,569,589,610,630,650,669,690,710,729,750,770,789,810,829,849,869,889,910,929,949,969,990,1009,1030,1050,1070,1090,1110,1129,1150,1169,1190,1209,1229,1249,1269,1289,1309,1329,1349,1370,1389,1409,1429,1449,1470,1489,1509,1530],"xSR":624.5,"ySR":384.15000000000003,"xT1":354.7,"yT1":0,"xT2":894.3,"yT2":0,"toosoon":0,"cond_shown":"randomdotsizeEA","ratio_trial":500,"smaller_num":"5","larger_num":"10","correct_side":1,"subjID":"valentinagomezvanegas","gender":"1","age":"11","school":"6"},{"start_time":1551795092472,"click_time":1551795094142,"finger_time":1551795093402,"fix_duration":888.7005935831863,"trial":6,"RT":930,"MT":740,"sideResp":1,"stimulus":"img/500/equaldotanddens/L/8_Ratio_500_L_8_R_4.png","xmouse":[675,675,675,675,675,675,675,675,675,675,675,675,675,675,675,675,675,675,675,675,675,675,675,675,675,675,675,675,675,675,675,675,675,675,675,675,675,675,675,675,675,675,675,675,674,670,665,662,654,651,644,637,628,620,616,607,599,589,580,575,563,554,546,522,517,506,496,489,480,475,473,467,459,456,453,452,451,449,447,445,445,443,442,439],"ymouse":[407,407,407,407,407,407,407,407,407,407,407,407,407,407,407,407,407,407,407,407,407,407,407,407,407,407,407,407,407,407,407,407,407,407,407,407,407,407,407,407,407,407,407,408,404,391,381,375,354,348,335,324,310,300,295,285,275,261,249,243,230,221,214,194,189,180,171,165,154,149,145,138,129,125,122,121,119,116,113,111,111,106,104,97],"timestamp_mouse":[18,37,50,70,90,110,130,150,170,191,212,231,250,271,291,310,330,350,371,391,410,430,450,471,490,511,530,551,571,590,612,630,650,671,690,710,730,750,770,791,810,831,851,870,890,912,930,950,971,990,1010,1030,1050,1071,1091,1110,1130,1150,1172,1190,1210,1230,1250,1270,1291,1310,1330,1350,1370,1391,1410,1430,1451,1470,1490,1510,1532,1550,1571,1591,1611,1630,1650,1670],"xSR":624.5,"ySR":384.15000000000003,"xT1":354.7,"yT1":0,"xT2":894.3,"yT2":0,"toosoon":0,"cond_shown":"equaldotanddens","ratio_trial":500,"smaller_num":"4","larger_num":"8","correct_side":1,"subjID":"valentinagomezvanegas","gender":"1","age":"11","school":"6"},{"start_time":1551795096422,"click_time":1551795097963,"finger_time":1551795097382,"fix_duration":419.8339595042814,"trial":7,"RT":960,"MT":581,"sideResp":1,"stimulus":"img/500/equaldotanddens/L/13_Ratio_500_L_12_R_6.png","xmouse":[669,669,669,669,669,669,669,669,669,669,669,669,669,669,669,669,669,669,669,669,669,669,669,669,669,669,669,669,669,669,669,669,669,669,669,669,669,669,669,669,669,669,669,669,669,669,669,669,668,656,653,645,637,633,621,618,610,599,584,578,553,548,539,531,513,504,500,497,494,492,482,480,475,468,466,456,453,447],"ymouse":[399,399,399,399,399,399,399,399,399,399,399,399,399,399,399,399,399,399,399,399,399,399,399,399,399,399,399,399,399,399,399,399,399,399,399,399,399,399,399,399,399,399,399,399,399,399,396,386,379,348,340,327,312,305,283,277,262,247,232,226,201,195,187,177,161,153,149,147,143,141,130,128,123,117,114,106,103,98],"timestamp_mouse":[10,20,40,61,81,100,120,141,160,181,200,220,240,260,281,301,320,341,360,382,401,421,441,460,480,500,520,541,560,581,600,621,640,660,680,700,720,741,760,781,800,821,841,860,880,901,921,941,960,981,1000,1021,1040,1060,1081,1100,1120,1140,1160,1182,1200,1221,1241,1260,1281,1300,1321,1342,1360,1380,1400,1420,1441,1461,1480,1500,1521,1541],"xSR":624.5,"ySR":384.15000000000003,"xT1":354.7,"yT1":0,"xT2":894.3,"yT2":0,"toosoon":0,"cond_shown":"equaldotanddens","ratio_trial":500,"smaller_num":"6","larger_num":"12","correct_side":1,"subjID":"valentinagomezvanegas","gender":"1","age":"11","school":"6"},{"start_time":1551795100586,"click_time":1551795102002,"finger_time":1551795101443,"fix_duration":801.9424701202605,"trial":8,"RT":857,"MT":559,"sideResp":1,"stimulus":"img/750/equaldotsize/L/8_Ratio_750_L_4_R_3.png","xmouse":[681,681,681,681,681,681,681,681,681,681,681,681,681,681,681,681,681,681,681,681,681,681,681,681,681,681,681,681,681,681,681,681,681,681,681,681,681,681,681,681,681,681,677,673,664,649,640,631,629,625,620,614,607,603,593,572,558,546,540,526,509,500,493,490,483,475,471,465,462,456,450],"ymouse":[399,399,399,399,399,399,399,399,399,399,399,399,399,399,399,399,399,399,399,399,399,399,399,399,399,399,399,399,399,399,399,399,399,399,399,399,399,399,399,399,399,399,378,370,353,326,309,295,290,282,272,261,249,243,229,201,185,173,164,150,133,122,114,109,102,94,91,87,85,81,77],"timestamp_mouse":[16,39,57,76,96,116,136,156,176,196,216,237,256,276,297,318,336,356,377,396,416,436,456,476,496,516,536,557,576,597,616,637,657,676,696,716,737,756,776,797,817,836,857,877,897,917,936,956,977,997,1016,1036,1057,1076,1097,1116,1136,1156,1176,1197,1216,1236,1256,1276,1297,1316,1336,1356,1376,1396,1416],"xSR":624.5,"ySR":384.15000000000003,"xT1":354.7,"yT1":0,"xT2":894.3,"yT2":0,"toosoon":0,"cond_shown":"equaldotsize","ratio_trial":750,"smaller_num":"3","larger_num":"4","correct_side":1,"subjID":"valentinagomezvanegas","gender":"1","age":"11","school":"6"},{"start_time":1551795104412,"click_time":1551795109783,"finger_time":1551795105242,"fix_duration":748.6541909717175,"trial":9,"RT":830,"MT":4541,"sideResp":2,"stimulus":"img/750/randomdotsizeEA/L/10_Ratio_750_L_4_R_3.png","xmouse":[669,669,669,669,669,669,669,669,669,669,669,669,669,669,669,669,669,669,669,669,669,669,669,669,669,669,669,669,669,669,669,669,669,669,669,669,669,669,677,680,684,689,690,701,708,715,725,728,739,744,746,753,757,766,771,773,779,788,799,808,813,825,833,836,857,864,888,906,916,918,918,918,918,919,920,921,921,921,921,921,921,921,921,921,920,919,919,918,917,916,916,916,914,913,912,911,911,911,910,908,907,906,906,906,905,905,905,905,904,904,904,903,902,902,902,902,902,901,901,897,892,885,881,873,864,861,858,857,856,856,856,867,884,892,909,912,914,915,917,918,920,920,920,920,920,920,920,920,920,920,920,920,920,920,920,920,916,909,889,877,839,774,723,681,667,601,580,545,527,524,517,517,517,517,517,621,642,657,673,683,704,708,713,717,718,723,734,742,752,755,762,771,777,785,801,805,814,820,825,827,828,835,837,840,844,844,847,847,847,847,847,847,847,847,839,832,810,739,681,605,562,408,408,408,408,408,408,408,408,408,408,414,562,578,583,576,572,557,556,556,556,556,556,556,558,570,581,686,726,779,808,815,838,848,852,860,866,867,867,867,867,867,867,868,869,873,887,893,895],"ymouse":[417,417,417,417,417,417,417,417,417,417,417,417,417,417,417,417,417,417,417,417,417,417,417,417,417,417,417,417,417,417,417,417,417,417,417,417,417,418,411,407,397,384,380,354,338,329,315,310,293,286,282,273,268,261,256,254,247,238,226,216,211,200,190,187,169,164,147,138,131,130,130,130,129,126,121,120,118,118,118,117,117,117,117,117,117,116,116,116,116,115,115,115,114,114,114,114,114,114,113,113,113,112,112,112,112,112,112,112,112,111,111,111,111,111,111,111,111,111,111,115,127,145,154,169,192,210,226,233,239,239,239,228,214,206,188,179,170,164,161,155,149,145,141,141,141,140,139,139,139,139,138,138,138,138,138,138,139,142,155,166,203,253,283,299,307,345,357,381,394,397,402,402,402,402,402,363,353,343,326,316,274,266,249,237,231,219,196,179,163,158,144,131,126,121,113,113,114,116,118,119,119,121,122,122,123,123,124,124,124,124,124,124,124,124,130,136,161,266,348,434,479,582,582,582,582,582,582,582,582,582,582,549,347,296,218,151,124,73,71,71,71,71,74,77,81,89,93,116,121,128,128,128,120,115,114,109,105,105,105,105,105,105,105,105,104,103,99,98,97],"timestamp_mouse":[12,30,50,71,90,111,130,150,171,190,211,230,251,270,291,310,331,350,370,391,410,430,450,470,490,511,531,550,570,591,610,631,650,670,690,711,731,750,772,791,810,830,852,870,890,912,930,951,970,991,1011,1030,1051,1070,1090,1110,1130,1151,1170,1190,1210,1230,1250,1270,1290,1310,1331,1350,1370,1391,1411,1431,1450,1470,1490,1510,1530,1550,1570,1590,1610,1631,1650,1670,1690,1710,1731,1750,1770,1790,1810,1830,1851,1871,1890,1911,1931,1950,1970,1990,2010,2031,2050,2070,2090,2110,2131,2150,2170,2190,2210,2246,2250,2271,2291,2310,2330,2350,2370,2390,2410,2430,2450,2471,2491,2510,2531,2550,2570,2591,2611,2631,2651,2671,2691,2710,2731,2750,2770,2790,2810,2830,2851,2870,2890,2910,2930,2950,2971,2991,3010,3030,3051,3070,3091,3110,3130,3150,3170,3190,3210,3230,3250,3270,3291,3310,3330,3351,3370,3390,3410,3430,3450,3471,3490,3511,3530,3550,3570,3590,3611,3630,3650,3670,3690,3711,3730,3750,3770,3790,3810,3831,3850,3871,3891,3912,3930,3950,3971,3990,4011,4030,4051,4071,4090,4111,4130,4150,4170,4192,4210,4231,4250,4271,4290,4310,4331,4350,4370,4391,4410,4431,4450,4471,4490,4511,4531,4550,4570,4590,4610,4631,4650,4671,4690,4710,4730,4750,4771,4790,4810,4830,4850,4870,4890,4911,4930,4950,4970,4990,5010,5031,5050,5070,5091,5110,5130,5150,5171,5190,5210,5230,5251,5270,5290,5310,5330,5350,5371],"xSR":624.5,"ySR":384.15000000000003,"xT1":354.7,"yT1":0,"xT2":894.3,"yT2":0,"toosoon":0,"cond_shown":"randomdotsizeEA","ratio_trial":750,"smaller_num":"3","larger_num":"4","correct_side":1,"subjID":"valentinagomezvanegas","gender":"1","age":"11","school":"6"},{"start_time":1551795111813,"click_time":1551795113202,"finger_time":1551795112923,"fix_duration":250,"trial":10,"RT":1110,"MT":279,"sideResp":1,"stimulus":"img/900/equaldotsize/R/3_Ratio_900_L_9_R_10.png","xmouse":[640,640,640,640,640,640,640,640,640,640,640,640,640,640,640,640,640,640,640,640,640,640,640,640,640,640,640,640,640,640,640,640,640,640,640,640,640,640,640,640,640,640,640,640,640,640,640,640,640,640,640,640,641,640,637,623,578,569,552,546,532,518,508,498,494,487,471,464,450,437],"ymouse":[418,418,418,418,418,418,418,418,418,418,418,418,418,418,418,418,418,418,418,418,418,418,418,418,418,418,418,418,418,418,418,418,418,418,418,418,418,418,418,418,418,418,418,418,418,418,418,418,418,418,418,418,417,411,405,384,333,323,301,291,269,241,220,199,191,174,143,132,111,93],"timestamp_mouse":[10,35,49,69,89,109,130,149,169,189,210,229,249,270,290,310,329,350,370,390,410,430,449,469,489,509,529,550,570,590,611,629,650,669,689,709,729,749,769,789,809,829,849,870,889,909,929,949,969,989,1010,1029,1049,1069,1091,1110,1130,1149,1169,1190,1209,1229,1251,1270,1290,1310,1329,1350,1370,1389],"xSR":624.5,"ySR":384.15000000000003,"xT1":354.7,"yT1":0,"xT2":894.3,"yT2":0,"toosoon":0,"cond_shown":"equaldotsize","ratio_trial":900,"smaller_num":"9","larger_num":"10","correct_side":2,"subjID":"valentinagomezvanegas","gender":"1","age":"11","school":"6"},{"start_time":1551795114601,"click_time":1551795116143,"finger_time":1551795115523,"fix_duration":257.0046797401464,"trial":11,"RT":922,"MT":620,"sideResp":1,"stimulus":"img/250/equaldotsize/L/14_Ratio_250_L_12_R_3.png","xmouse":[676,676,676,676,676,676,676,676,676,676,676,676,676,676,676,676,676,676,676,676,676,676,676,676,676,676,676,676,676,676,676,676,676,676,676,676,676,676,676,676,676,676,677,674,664,638,616,603,581,563,546,536,532,527,517,514,511,509,506,502,495,490,488,483,479,475,473,471,468,466,464,463,463,461,460,460,457,454],"ymouse":[449,449,449,449,449,449,449,449,449,449,449,449,449,449,449,449,449,449,449,449,449,449,449,449,449,449,449,449,449,449,449,449,449,449,449,449,449,449,449,449,449,449,447,440,423,388,355,338,305,276,245,229,223,213,197,192,185,184,177,170,156,144,139,129,121,111,106,103,99,96,93,92,92,89,88,88,85,83],"timestamp_mouse":[10,25,42,63,82,103,123,143,161,182,202,222,241,262,282,301,321,343,361,383,401,423,442,461,482,502,523,542,562,583,602,622,642,661,681,702,721,742,762,782,803,822,842,862,882,903,922,943,962,983,1003,1023,1042,1062,1083,1101,1122,1142,1162,1182,1201,1222,1243,1262,1283,1301,1322,1343,1362,1381,1402,1422,1442,1463,1482,1502,1522,1542],"xSR":624.5,"ySR":384.15000000000003,"xT1":354.7,"yT1":0,"xT2":894.3,"yT2":0,"toosoon":0,"cond_shown":"equaldotsize","ratio_trial":250,"smaller_num":"3","larger_num":"12","correct_side":1,"subjID":"valentinagomezvanegas","gender":"1","age":"11","school":"6"},{"start_time":1551795118697,"click_time":1551795120404,"finger_time":1551795119543,"fix_duration":1031.3740247286644,"trial":12,"RT":846,"MT":861,"sideResp":2,"stimulus":"img/250/randomdotsizeEA/R/4_Ratio_250_L_3_R_12.png","xmouse":[674,674,674,674,674,674,674,674,674,674,674,674,674,674,674,674,674,674,674,674,674,674,674,674,674,674,674,674,674,674,674,674,674,674,674,674,674,676,679,687,691,698,703,706,726,731,742,753,756,767,769,772,776,778,780,786,803,820,831,867,873,885,895,910,930,942,946,951,953,955,956,956,957,958,958,955,953,950,948,948,947,945,943,938,936,929],"ymouse":[410,410,410,410,410,410,410,410,410,410,410,410,410,410,410,410,410,410,410,410,410,410,410,410,410,410,410,410,410,410,410,410,410,410,410,410,410,410,408,401,396,386,375,368,340,334,319,300,292,260,257,250,241,235,224,210,197,186,181,171,168,162,157,153,147,143,142,140,139,130,128,124,120,115,108,105,105,104,103,103,103,103,103,102,101,99],"timestamp_mouse":[11,26,46,65,86,106,126,145,166,187,206,226,246,266,286,306,326,346,366,386,407,426,446,466,485,505,527,546,566,586,606,626,647,666,686,706,725,745,765,786,806,827,846,865,886,906,925,946,965,985,1006,1026,1046,1066,1085,1106,1126,1146,1167,1186,1207,1226,1246,1267,1285,1306,1326,1346,1366,1386,1406,1426,1446,1466,1486,1505,1526,1546,1566,1585,1606,1626,1646,1666,1686,1707],"xSR":624.5,"ySR":384.15000000000003,"xT1":354.7,"yT1":0,"xT2":894.3,"yT2":0,"toosoon":0,"cond_shown":"randomdotsizeEA","ratio_trial":250,"smaller_num":"3","larger_num":"12","correct_side":2,"subjID":"valentinagomezvanegas","gender":"1","age":"11","school":"6"},{"start_time":1551795122919,"click_time":1551795124143,"finger_time":1551795123802,"fix_duration":1154.596812206004,"trial":13,"RT":883,"MT":341,"sideResp":1,"stimulus":"img/500/randomdotsizeEA/L/5_Ratio_500_L_4_R_2.png","xmouse":[669,669,669,669,669,669,669,669,669,669,669,669,669,669,669,669,669,669,669,669,669,669,669,669,669,669,669,669,669,669,669,669,669,669,669,669,669,669,669,669,669,669,666,655,638,628,610,592,568,557,548,543,511,505,497,490,485,477,464,457,450,449],"ymouse":[411,411,411,411,411,411,411,411,411,411,411,411,411,411,411,411,411,411,411,411,411,411,411,411,411,411,411,411,411,411,411,411,411,411,411,411,411,411,411,411,411,411,411,393,370,358,333,308,270,247,227,217,170,161,150,140,133,123,110,105,101,99],"timestamp_mouse":[12,32,44,64,84,104,123,144,165,185,205,225,244,264,285,304,325,344,365,384,404,424,444,464,485,504,524,545,565,583,603,624,645,664,683,704,724,744,764,784,804,823,844,863,883,904,924,944,964,984,1004,1024,1044,1063,1084,1104,1124,1144,1164,1184,1203,1224],"xSR":624.5,"ySR":384.15000000000003,"xT1":354.7,"yT1":0,"xT2":894.3,"yT2":0,"toosoon":0,"cond_shown":"randomdotsizeEA","ratio_trial":500,"smaller_num":"2","larger_num":"4","correct_side":1,"subjID":"valentinagomezvanegas","gender":"1","age":"11","school":"6"},{"start_time":1551795126735,"click_time":1551795127844,"finger_time":1551795127443,"fix_duration":250,"trial":14,"RT":708,"MT":401,"sideResp":1,"stimulus":"img/500/randomdotsizeEA/L/13_Ratio_500_L_12_R_6.png","xmouse":[653,653,653,653,653,653,653,653,653,653,653,653,653,653,653,653,653,653,653,653,653,653,653,653,653,653,653,653,653,653,653,653,653,653,650,640,629,612,603,587,568,558,550,545,534,520,507,492,485,472,465,463,460,458,453,443],"ymouse":[401,401,401,401,401,401,401,401,401,401,401,401,401,401,401,401,401,401,401,401,401,401,401,401,401,401,401,401,401,401,401,401,401,401,400,384,367,345,333,310,283,270,254,247,232,212,194,171,161,140,125,119,114,111,102,89],"timestamp_mouse":[10,29,49,68,87,108,128,148,167,188,208,228,249,268,288,308,329,348,368,388,408,427,448,468,488,508,529,547,568,589,608,629,647,668,688,708,728,747,769,788,808,829,847,869,889,908,928,948,968,988,1008,1027,1048,1068,1087,1109],"xSR":624.5,"ySR":384.15000000000003,"xT1":354.7,"yT1":0,"xT2":894.3,"yT2":0,"toosoon":0,"cond_shown":"randomdotsizeEA","ratio_trial":500,"smaller_num":"6","larger_num":"12","correct_side":1,"subjID":"valentinagomezvanegas","gender":"1","age":"11","school":"6"},{"start_time":1551795130234,"click_time":1551795138063,"finger_time":1551795130983,"fix_duration":1129.677784302121,"trial":15,"RT":749,"MT":7080,"sideResp":2,"stimulus":"img/750/equaldotsize/R/7_Ratio_750_L_3_R_4.png","xmouse":[637,637,637,637,637,637,637,637,637,637,637,637,637,637,637,637,637,637,637,637,637,637,637,637,637,637,637,637,637,637,637,637,637,640,656,662,677,698,705,724,731,736,746,751,772,783,788,795,805,816,819,819,822,824,831,835,838,843,846,847,855,857,863,872,876,876,876,876,876,876,877,877,877,877,877,874,869,847,787,701,532,418,362,258,164,45,0,0,0,0,0,0,0,0,7,26,42,51,70,99,99,99,99,99,99,99,99,99,99,99,99,99,99,99,99,99,99,99,99,99,99,99,99,99,99,99,99,99,99,99,99,99,99,571,555,519,400,266,94,0,0,0,0,0,0,0,0,0,0,0,0,0,0,0,0,0,0,0,0,0,0,0,0,0,0,0,0,0,0,0,0,0,0,0,0,0,0,0,0,0,0,0,0,0,0,0,0,1252,1240,1230,1230,1230,1230,1230,1228,1218,1209,1161,1153,1142,1139,1137,1120,1118,1116,1116,1116,1126,1129,1133,1133,1132,1097,1078,1055,1031,1019,956,937,898,881,875,850,836,829,821,815,815,815,815,815,815,815,815,815,815,999,1019,1036,1028,992,935,897,646,565,381,216,143,33,0,0,0,0,0,0,0,74,104,150,141,134,132,132,132,132,132,132,132,132,132,132,132,132,132,132,132,132,131,131,131,131,131,131,131,131,131,131,130,127,120,108,99,83,76,76,83,84,88,117,197,264,298,352,375,385,382,380,379,379,379,376,372,371,369,365,360,358,358,358,359,426,450,457,468,470,470,470,470,473,498,532,541,544,548,558,594,622,633,640,630,534,427,370,246,246,246,246,246,246,246,246,246,246,246,246,1069,1243,1248,1237,1210,1139,1078,1040,1033,1033,1039,1110,1187,1225,1287,1309,1299,1259,1212,1196,1185,1181,1175,1164,1158,1139,1113,1101,1093,1091,1086,1066,1048,1027,1019,1004,981],"ymouse":[423,423,423,423,423,423,423,423,423,423,423,423,423,423,423,423,423,423,423,423,423,423,423,423,423,423,423,423,423,423,423,423,423,423,410,406,396,384,380,366,359,352,341,337,314,301,292,278,265,245,239,237,227,222,208,202,195,182,173,172,169,169,169,171,171,171,171,171,171,171,172,172,172,172,172,178,183,201,242,294,379,433,460,502,539,574,584,584,584,569,533,498,476,424,367,269,189,154,81,14,14,14,14,14,14,14,14,14,14,14,14,14,14,14,14,14,14,14,14,14,14,14,14,14,14,14,14,14,14,14,14,14,14,4,44,113,242,315,363,382,424,474,508,546,569,589,589,589,589,589,589,589,589,589,589,589,589,589,589,589,589,589,589,589,589,589,589,589,589,589,589,589,589,589,589,589,589,589,589,589,589,589,589,589,589,589,589,550,550,550,550,550,550,550,550,550,550,545,544,542,542,542,542,542,541,538,535,512,504,492,482,475,433,423,418,416,416,415,415,426,436,441,468,489,502,524,548,560,585,585,585,585,585,585,585,585,574,551,454,427,379,343,331,319,322,351,397,419,464,526,558,577,586,586,586,586,542,506,426,374,368,366,366,366,366,366,366,366,366,366,366,366,366,366,366,366,366,366,366,366,366,366,366,366,366,366,366,368,378,405,432,455,505,544,554,580,580,580,580,560,534,519,486,453,373,340,324,317,298,288,249,238,234,229,224,219,217,217,216,207,183,184,186,189,189,189,189,189,190,198,207,209,209,209,210,215,219,223,233,253,328,397,437,513,513,513,513,513,513,513,513,513,513,513,513,575,437,351,313,256,199,178,174,174,175,182,212,226,226,221,202,156,119,92,84,79,78,76,75,75,81,88,91,93,93,93,89,84,78,77,72,65],"timestamp_mouse":[12,31,49,68,89,110,130,149,169,190,208,229,248,268,289,310,329,349,369,389,409,428,449,469,490,509,530,550,569,589,609,629,650,670,689,709,729,749,768,788,808,829,849,868,888,908,929,950,969,989,1010,1029,1049,1070,1089,1109,1130,1150,1169,1189,1209,1230,1250,1270,1288,1309,1329,1348,1369,1389,1409,1429,1449,1470,1488,1509,1529,1549,1569,1588,1609,1629,1649,1670,1690,1710,1728,1750,1770,1790,1809,1829,1849,1869,1889,1908,1929,1949,1969,1991,2009,2029,2050,2069,2089,2110,2129,2148,2168,2188,2209,2230,2248,2268,2289,2310,2330,2349,2369,2389,2410,2430,2449,2469,2489,2510,2530,2549,2570,2589,2609,2629,2650,2668,2690,2709,2729,2750,2769,2789,2808,2829,2849,2868,2888,2910,2929,2950,2970,2990,3008,3030,3049,3070,3090,3109,3129,3149,3169,3190,3210,3229,3250,3268,3290,3310,3329,3350,3368,3389,3409,3429,3449,3469,3489,3509,3529,3548,3569,3588,3610,3629,3649,3668,3688,3709,3729,3748,3769,3790,3808,3829,3850,3869,3889,3909,3929,3948,3969,3989,4008,4028,4049,4068,4089,4109,4128,4149,4168,4189,4209,4229,4250,4268,4289,4309,4329,4349,4368,4389,4409,4429,4450,4468,4489,4509,4529,4549,4568,4589,4609,4629,4649,4669,4690,4709,4730,4749,4769,4789,4809,4829,4849,4868,4890,4909,4930,4949,4968,4989,5010,5029,5049,5069,5089,5110,5129,5150,5170,5189,5209,5228,5249,5268,5289,5308,5329,5349,5370,5388,5409,5429,5450,5469,5490,5510,5530,5549,5570,5589,5609,5628,5649,5669,5689,5709,5728,5750,5770,5789,5809,5829,5849,5869,5889,5909,5929,5948,5970,5989,6008,6029,6049,6069,6089,6108,6129,6149,6169,6188,6210,6229,6249,6268,6290,6309,6329,6349,6368,6389,6410,6429,6449,6469,6490,6508,6528,6550,6569,6589,6608,6629,6650,6669,6688,6708,6729,6749,6769,6789,6808,6829,6849,6869,6890,6909,6929,6949,6969,6989,7010,7030,7049,7069,7090,7109,7130,7149,7169,7189,7210,7229,7248,7270,7289,7309,7329,7349,7369,7389,7410,7429,7449,7469,7489,7509,7529,7549,7569,7589,7610,7629,7650,7670,7690,7708,7728,7749,7769,7789,7809,7829],"xSR":624.5,"ySR":384.15000000000003,"xT1":354.7,"yT1":0,"xT2":894.3,"yT2":0,"toosoon":0,"cond_shown":"equaldotsize","ratio_trial":750,"smaller_num":"3","larger_num":"4","correct_side":2,"subjID":"valentinagomezvanegas","gender":"1","age":"11","school":"6"},{"start_time":1551795141233,"click_time":1551795142622,"finger_time":1551795142363,"fix_duration":288.933967616968,"trial":16,"RT":1130,"MT":259,"sideResp":1,"stimulus":"img/900/equaldotsize/L/4_Ratio_900_L_20_R_18.png","xmouse":[659,659,659,659,659,659,659,659,659,659,659,659,659,659,659,659,659,659,660,660,660,660,660,660,660,660,660,660,660,660,660,660,660,660,660,660,660,660,660,660,660,660,660,660,660,660,660,660,660,660,660,656,654,643,636,631,619,613,603,593,589,569,561,549,527,510,471,462,458,453],"ymouse":[461,461,461,461,461,461,461,461,461,461,461,461,461,461,461,461,461,461,460,460,460,460,460,460,460,460,460,460,460,460,460,460,460,460,460,460,460,460,460,460,460,460,460,460,460,460,460,460,460,460,456,447,443,423,409,400,365,354,330,309,299,258,247,225,182,153,102,88,84,78],"timestamp_mouse":[11,37,50,69,90,111,130,150,170,189,210,230,251,270,289,309,330,350,369,390,410,430,449,469,489,510,530,550,570,589,609,630,650,670,690,710,730,750,771,790,811,830,850,870,891,910,930,950,970,991,1009,1030,1050,1071,1090,1110,1130,1151,1170,1190,1211,1230,1249,1269,1291,1310,1330,1350,1370,1389],"xSR":624.5,"ySR":384.15000000000003,"xT1":354.7,"yT1":0,"xT2":894.3,"yT2":0,"toosoon":0,"cond_shown":"equaldotsize","ratio_trial":900,"smaller_num":"18","larger_num":"20","correct_side":1,"subjID":"valentinagomezvanegas","gender":"1","age":"11","school":"6"},{"start_time":1551795143954,"click_time":1551795145503,"finger_time":1551795144964,"fix_duration":250,"trial":17,"RT":1010,"MT":539,"sideResp":1,"stimulus":"img/900/randomdotsizeEA/R/5_Ratio_900_L_9_R_10.png","xmouse":[678,678,678,678,678,678,678,678,678,678,678,678,678,678,678,678,678,678,678,678,678,678,678,678,678,678,678,678,678,678,678,678,678,678,678,678,678,678,678,678,678,678,678,678,678,678,678,678,678,672,668,659,647,639,632,627,625,615,607,599,590,585,574,559,549,539,534,526,516,509,502,498,493,480,470,459,457,450],"ymouse":[404,404,404,404,404,404,404,404,404,404,404,404,404,404,404,404,404,404,404,404,404,404,404,404,404,404,404,404,404,404,404,404,404,404,404,404,404,404,404,404,404,404,404,404,404,404,404,404,404,390,380,361,330,313,296,283,279,262,250,238,226,219,204,186,174,163,157,149,137,131,125,122,117,107,100,92,92,87],"timestamp_mouse":[11,40,49,69,89,109,129,149,169,189,210,229,249,270,288,310,328,348,369,389,410,429,449,469,489,508,529,549,570,589,609,630,650,670,690,709,729,750,770,789,810,829,848,868,888,908,929,948,969,989,1010,1030,1050,1069,1089,1109,1128,1150,1169,1190,1209,1229,1250,1269,1289,1309,1330,1350,1369,1389,1409,1430,1449,1469,1489,1509,1530,1549],"xSR":624.5,"ySR":384.15000000000003,"xT1":354.7,"yT1":0,"xT2":894.3,"yT2":0,"toosoon":0,"cond_shown":"randomdotsizeEA","ratio_trial":900,"smaller_num":"9","larger_num":"10","correct_side":2,"subjID":"valentinagomezvanegas","gender":"1","age":"11","school":"6"},{"start_time":1551795147424,"click_time":1551795149203,"finger_time":1551795148282,"fix_duration":779.7733656138894,"trial":18,"RT":858,"MT":921,"sideResp":2,"stimulus":"img/250/equaldotanddens/R/6_Ratio_250_L_6_R_24.png","xmouse":[656,656,656,656,656,656,656,656,656,656,656,656,656,656,656,656,656,656,656,656,656,656,656,656,656,656,656,656,656,656,656,656,656,656,656,656,656,656,656,656,656,660,687,695,709,722,729,755,762,775,791,807,822,829,831,834,836,838,840,840,841,842,847,869,874,884,888,888,888,888,888,888,889,889,889,889,889,889,889,889,889,889,889,889,889,889,890,891,895],"ymouse":[410,410,410,410,410,410,410,410,410,410,410,410,410,410,410,410,410,410,410,410,410,410,410,410,410,410,410,410,410,410,410,410,410,410,410,410,410,410,410,410,410,410,380,371,349,330,320,290,284,272,259,247,228,215,210,200,191,177,164,156,141,122,111,78,73,64,57,56,53,53,53,53,52,52,52,52,52,52,52,52,52,52,52,52,52,52,52,51,50],"timestamp_mouse":[19,39,60,79,98,119,139,160,179,200,219,239,259,279,300,319,339,359,379,399,418,438,459,479,500,519,539,558,579,600,618,638,658,678,700,718,739,759,780,799,819,840,858,879,899,919,939,958,978,999,1019,1039,1059,1079,1100,1118,1139,1159,1179,1199,1218,1239,1258,1279,1298,1320,1339,1358,1378,1398,1419,1439,1459,1479,1499,1518,1539,1560,1580,1600,1618,1639,1659,1679,1698,1718,1739,1759,1779],"xSR":624.5,"ySR":384.15000000000003,"xT1":354.7,"yT1":0,"xT2":894.3,"yT2":0,"toosoon":0,"cond_shown":"equaldotanddens","ratio_trial":250,"smaller_num":"6","larger_num":"24","correct_side":2,"subjID":"valentinagomezvanegas","gender":"1","age":"11","school":"6"},{"start_time":1551795150811,"click_time":1551795152583,"finger_time":1551795151802,"fix_duration":344.0034436858419,"trial":19,"RT":991,"MT":781,"sideResp":1,"stimulus":"img/250/equaldotsize/L/2_Ratio_250_L_16_R_4.png","xmouse":[643,643,643,643,643,643,643,643,643,643,643,643,643,643,643,643,643,643,643,643,643,643,643,643,643,643,643,643,643,643,643,643,643,643,643,643,643,643,643,643,643,643,643,643,643,643,643,637,629,623,622,620,617,614,610,607,600,589,581,571,569,565,554,543,529,523,514,503,497,489,482,481,475,473,471,469,468,466,460,458,455,454,452,448,445,444,443,442,441],"ymouse":[409,409,409,409,409,409,409,409,409,409,409,409,409,409,409,409,409,409,409,409,409,409,409,409,409,409,409,409,409,409,409,409,409,409,409,409,409,409,409,409,409,409,409,409,409,409,409,405,395,388,386,381,375,369,363,358,349,330,317,301,296,287,267,249,232,223,211,193,183,172,164,161,153,151,148,146,145,142,135,131,127,125,121,113,108,105,103,100,95],"timestamp_mouse":[12,32,53,72,93,112,133,152,172,192,212,232,251,272,292,312,332,353,372,392,412,432,452,471,492,511,531,552,572,591,612,632,653,671,692,711,732,753,772,792,813,832,853,872,892,913,931,951,971,991,1012,1032,1052,1072,1092,1112,1131,1152,1172,1192,1212,1231,1252,1272,1292,1312,1331,1352,1372,1392,1411,1431,1452,1472,1492,1513,1531,1551,1571,1591,1613,1633,1652,1673,1692,1712,1732,1752,1772],"xSR":624.5,"ySR":384.15000000000003,"xT1":354.7,"yT1":0,"xT2":894.3,"yT2":0,"toosoon":0,"cond_shown":"equaldotsize","ratio_trial":250,"smaller_num":"4","larger_num":"16","correct_side":1,"subjID":"valentinagomezvanegas","gender":"1","age":"11","school":"6"},{"start_time":1551795155291,"click_time":1551795156703,"finger_time":1551795156264,"fix_duration":1307.496674719911,"trial":20,"RT":973,"MT":439,"sideResp":2,"stimulus":"img/900/equaldotsize/L/2_Ratio_900_L_20_R_18.png","xmouse":[661,661,661,661,661,661,661,661,661,661,661,661,661,661,661,661,661,661,661,661,661,661,661,661,661,661,661,661,661,661,661,661,661,661,661,661,661,661,661,661,661,661,661,661,661,661,668,684,699,707,720,727,733,743,751,754,761,763,768,768,768,769,770,776,792,802,833,882,930,946,953],"ymouse":[427,427,427,427,427,427,427,427,427,427,427,427,427,427,427,427,427,427,427,427,427,427,427,427,427,427,427,427,427,427,427,427,427,427,427,427,427,427,427,427,427,427,427,427,427,427,422,402,384,374,351,336,323,300,286,280,268,263,242,236,234,232,230,221,207,199,181,157,127,107,96],"timestamp_mouse":[14,32,52,72,91,111,132,152,172,192,212,233,252,272,292,312,333,352,371,392,413,433,452,472,491,511,531,552,571,593,613,632,652,672,692,712,732,752,771,792,811,831,851,871,893,912,933,952,973,992,1011,1032,1051,1072,1092,1112,1131,1151,1171,1192,1212,1231,1252,1271,1291,1312,1332,1352,1372,1391,1412],"xSR":624.5,"ySR":384.15000000000003,"xT1":354.7,"yT1":0,"xT2":894.3,"yT2":0,"toosoon":0,"cond_shown":"equaldotsize","ratio_trial":900,"smaller_num":"18","larger_num":"20","correct_side":1,"subjID":"valentinagomezvanegas","gender":"1","age":"11","school":"6"},{"start_time":1551795159577,"click_time":1551795161483,"finger_time":1551795160523,"fix_duration":1252.9394367741193,"trial":21,"RT":946,"MT":960,"sideResp":2,"stimulus":"img/900/equaldotanddens/R/13_Ratio_900_L_18_R_20.png","xmouse":[699,699,699,699,699,699,699,699,699,699,699,699,699,699,699,699,699,699,699,699,699,699,699,699,699,699,699,699,699,699,699,699,699,699,699,699,699,699,699,699,699,699,699,699,699,702,711,716,731,738,744,744,747,748,752,756,759,766,776,782,783,784,784,786,790,793,795,795,797,797,797,797,797,797,798,799,801,802,827,829,832,837,838,840,849,855,864,870,873,881,886,888,890,891,894,895],"ymouse":[407,407,407,407,407,407,407,407,407,407,407,407,407,407,407,407,407,407,407,407,407,407,407,407,407,407,407,407,407,407,407,407,407,407,407,407,407,407,407,407,407,407,407,407,407,402,388,380,350,331,316,311,305,298,292,283,278,266,249,239,235,234,233,229,223,218,214,212,209,209,209,209,209,209,208,207,205,205,189,188,187,185,185,184,181,178,172,158,147,125,115,106,95,91,73,70],"timestamp_mouse":[13,26,46,66,86,106,127,145,167,187,206,226,246,266,286,307,326,346,366,386,406,426,446,465,485,507,527,546,565,585,606,626,646,667,686,706,727,746,766,786,806,826,846,866,886,905,925,946,965,987,1006,1026,1046,1066,1086,1106,1126,1145,1166,1186,1206,1226,1245,1265,1286,1306,1326,1346,1366,1386,1406,1425,1446,1466,1485,1506,1527,1546,1565,1586,1606,1626,1647,1667,1686,1706,1726,1747,1766,1786,1805,1826,1846,1866,1886,1906],"xSR":624.5,"ySR":384.15000000000003,"xT1":354.7,"yT1":0,"xT2":894.3,"yT2":0,"toosoon":0,"cond_shown":"equaldotanddens","ratio_trial":900,"smaller_num":"18","larger_num":"20","correct_side":2,"subjID":"valentinagomezvanegas","gender":"1","age":"11","school":"6"},{"start_time":1551795163154,"click_time":1551795164463,"finger_time":1551795163984,"fix_duration":250,"trial":22,"RT":830,"MT":479,"sideResp":1,"stimulus":"img/900/randomdotsizeEA/L/10_Ratio_900_L_20_R_18.png","xmouse":[684,684,684,684,684,684,684,684,685,685,685,685,685,685,685,685,685,685,685,685,685,686,686,686,686,686,686,686,686,686,686,686,686,686,686,686,686,686,686,683,680,673,646,630,623,620,615,608,587,571,566,552,542,532,524,511,505,494,484,478,474,473,468,460,455,452],"ymouse":[435,435,435,435,435,435,435,435,435,435,435,435,435,435,435,435,435,435,435,435,435,435,435,435,435,435,435,435,435,435,435,435,435,435,435,435,435,435,431,417,407,381,322,295,283,278,271,263,240,224,216,199,187,179,171,160,155,142,128,121,115,112,107,99,94,91],"timestamp_mouse":[10,29,48,69,89,109,129,149,169,189,209,229,250,269,290,309,329,349,369,390,409,428,448,468,489,509,529,550,569,589,609,629,650,670,690,709,729,750,769,789,808,830,850,869,889,909,930,948,968,988,1010,1028,1048,1069,1089,1109,1129,1149,1168,1189,1209,1230,1249,1268,1289,1309],"xSR":624.5,"ySR":384.15000000000003,"xT1":354.7,"yT1":0,"xT2":894.3,"yT2":0,"toosoon":0,"cond_shown":"randomdotsizeEA","ratio_trial":900,"smaller_num":"18","larger_num":"20","correct_side":1,"subjID":"valentinagomezvanegas","gender":"1","age":"11","school":"6"},{"start_time":1551795166650,"click_time":1551795168704,"finger_time":1551795167443,"fix_duration":286.85338296121955,"trial":23,"RT":793,"MT":1261,"sideResp":2,"stimulus":"img/900/equaldotsize/R/12_Ratio_900_L_18_R_20.png","xmouse":[686,686,686,686,686,686,686,686,686,686,686,686,686,686,686,686,686,686,686,686,686,686,686,686,686,686,686,686,686,686,686,686,686,686,686,686,686,686,700,707,727,748,757,760,761,765,773,784,788,799,810,815,828,831,834,837,839,848,850,853,855,855,856,856,856,861,865,875,878,878,879,879,879,879,879,879,879,879,879,879,879,880,880,881,881,886,887,887,887,887,887,887,887,887,887,888,889,893,893,894,894,894,895],"ymouse":[398,398,398,398,398,398,398,398,398,398,398,398,398,398,398,398,398,398,398,398,398,398,398,398,398,398,398,398,398,398,398,398,398,398,398,398,398,398,389,383,366,341,325,319,313,304,289,274,265,247,225,214,182,175,165,156,151,134,131,126,123,122,121,121,120,113,107,94,91,89,89,89,89,89,89,89,89,89,89,89,89,88,88,88,88,86,85,85,85,85,85,85,85,85,85,85,85,83,83,83,83,83,83],"timestamp_mouse":[18,41,53,73,93,113,134,153,173,192,212,233,252,272,294,313,334,353,372,392,413,434,452,473,493,513,533,553,573,592,614,633,654,673,694,712,734,753,774,793,813,833,853,873,893,913,933,953,973,994,1014,1034,1053,1073,1093,1113,1134,1153,1173,1193,1213,1233,1253,1273,1293,1313,1334,1354,1373,1393,1413,1434,1453,1473,1493,1513,1533,1553,1574,1594,1613,1633,1653,1673,1694,1713,1734,1754,1772,1792,1813,1834,1854,1873,1893,1913,1933,1954,1972,1993,2013,2034,2054],"xSR":624.5,"ySR":384.15000000000003,"xT1":354.7,"yT1":0,"xT2":894.3,"yT2":0,"toosoon":0,"cond_shown":"equaldotsize","ratio_trial":900,"smaller_num":"18","larger_num":"20","correct_side":2,"subjID":"valentinagomezvanegas","gender":"1","age":"11","school":"6"},{"start_time":1551795170295,"click_time":1551795171924,"finger_time":1551795171263,"fix_duration":250,"trial":24,"RT":968,"MT":661,"sideResp":2,"stimulus":"img/900/equaldotanddens/R/11_Ratio_900_L_18_R_20.png","xmouse":[691,691,691,691,691,691,691,691,691,691,692,692,692,693,693,693,693,693,693,693,693,693,693,693,693,693,693,693,693,693,693,693,693,693,693,693,693,693,693,693,693,694,695,703,704,711,714,717,728,733,742,751,755,766,768,772,776,779,787,797,805,817,822,834,853,864,871,878,882,889,894,896,899,901,903,903,903,904,905,910,912,913],"ymouse":[415,415,415,415,415,415,415,415,417,417,417,417,417,417,417,417,417,417,417,417,417,417,417,417,417,417,417,417,417,417,417,417,417,417,417,417,417,417,417,417,417,417,417,414,412,405,402,397,383,377,365,351,343,317,313,304,292,285,272,255,244,231,224,208,186,174,163,154,149,139,134,131,126,124,122,122,122,118,115,104,101,97],"timestamp_mouse":[10,29,48,68,88,108,127,147,168,187,207,228,248,268,288,308,328,348,368,389,407,428,448,468,487,508,528,548,568,588,608,628,648,668,689,708,728,748,768,787,808,828,848,868,889,908,928,948,968,988,1008,1028,1048,1068,1087,1108,1129,1148,1169,1189,1208,1228,1248,1268,1288,1308,1329,1347,1368,1388,1408,1428,1448,1468,1488,1509,1528,1548,1569,1588,1608,1629],"xSR":624.5,"ySR":384.15000000000003,"xT1":354.7,"yT1":0,"xT2":894.3,"yT2":0,"toosoon":0,"cond_shown":"equaldotanddens","ratio_trial":900,"smaller_num":"18","larger_num":"20","correct_side":2,"subjID":"valentinagomezvanegas","gender":"1","age":"11","school":"6"},{"start_time":1551795174184,"click_time":1551795175327,"finger_time":1551795174788,"fix_duration":1101.395789241754,"trial":25,"RT":604,"MT":539,"sideResp":2,"stimulus":"img/250/equaldotanddens/R/11_Ratio_250_L_3_R_12.png","xmouse":[685,685,685,685,685,685,685,685,685,685,688,688,688,688,688,688,688,688,688,688,688,688,688,688,691,694,698,709,718,724,727,737,752,764,779,787,804,825,843,857,863,874,883,891,898,900,906,913,915,917,917,917,918,918,920,920,920],"ymouse":[425,425,425,425,425,425,425,425,425,425,425,425,425,425,425,425,425,425,425,425,425,425,425,424,421,417,412,399,389,384,380,369,352,340,325,319,303,275,253,231,221,204,187,170,160,155,143,129,121,117,116,112,106,105,101,100,96],"timestamp_mouse":[19,39,59,79,98,118,139,159,179,198,219,239,259,279,299,319,339,359,379,400,422,442,462,483,501,522,543,562,582,604,622,643,662,683,702,723,743,762,782,802,823,843,862,882,902,923,942,962,982,1002,1023,1041,1063,1082,1102,1123,1143],"xSR":624.5,"ySR":384.15000000000003,"xT1":354.7,"yT1":0,"xT2":894.3,"yT2":0,"toosoon":0,"cond_shown":"equaldotanddens","ratio_trial":250,"smaller_num":"3","larger_num":"12","correct_side":2,"subjID":"valentinagomezvanegas","gender":"1","age":"11","school":"6"},{"start_time":1551795177080,"click_time":1551795178247,"finger_time":1551795177865,"fix_duration":250,"trial":26,"RT":785,"MT":382,"sideResp":1,"stimulus":"img/750/equaldotanddens/L/6_Ratio_750_L_24_R_18.png","xmouse":[718,718,718,718,718,718,718,718,718,718,718,718,718,718,718,718,718,718,718,718,718,718,718,718,718,718,718,718,718,718,718,718,718,718,718,718,708,689,677,641,611,583,570,565,552,537,502,477,466,454,446,440,435,432,430,430,429,429,429],"ymouse":[439,439,439,439,439,439,439,439,439,439,439,439,439,439,439,439,439,439,439,439,439,439,439,439,439,439,439,439,439,439,440,440,440,440,440,439,422,403,394,368,348,326,314,308,295,282,257,239,229,211,197,173,157,144,139,132,120,109,99],"timestamp_mouse":[10,37,46,66,86,106,126,145,166,186,206,226,246,266,286,306,325,346,366,386,406,426,445,466,486,506,525,545,565,586,606,627,646,666,686,706,726,746,767,785,807,826,845,866,886,905,926,945,966,985,1005,1026,1046,1065,1086,1106,1127,1145,1167],"xSR":624.5,"ySR":384.15000000000003,"xT1":354.7,"yT1":0,"xT2":894.3,"yT2":0,"toosoon":0,"cond_shown":"equaldotanddens","ratio_trial":750,"smaller_num":"18","larger_num":"24","correct_side":1,"subjID":"valentinagomezvanegas","gender":"1","age":"11","school":"6"},{"start_time":1551795179798,"click_time":1551795181086,"finger_time":1551795180666,"fix_duration":250,"trial":27,"RT":868,"MT":420,"sideResp":2,"stimulus":"img/900/equaldotanddens/L/2_Ratio_900_L_20_R_18.png","xmouse":[665,665,665,665,665,665,665,665,665,665,665,665,665,665,665,665,665,665,665,665,665,665,665,665,665,665,665,665,665,665,665,665,665,665,665,665,665,665,665,665,680,691,700,737,744,759,771,778,795,800,816,834,842,869,874,882,891,896,904,917,922,925,927,930,932],"ymouse":[427,427,427,427,427,427,427,427,427,427,427,427,427,427,427,427,427,427,427,427,427,427,427,427,427,427,427,427,427,427,427,427,427,427,427,427,427,427,427,427,410,397,389,353,345,331,320,314,301,298,286,273,267,238,229,215,199,191,176,153,139,128,122,109,96],"timestamp_mouse":[10,27,48,67,88,109,129,148,168,188,208,228,248,268,288,308,328,349,368,388,408,428,448,468,487,508,528,547,568,588,608,629,648,668,688,709,728,749,768,787,808,828,848,868,889,907,928,948,968,989,1008,1028,1048,1068,1087,1108,1128,1148,1168,1188,1207,1227,1247,1269,1288],"xSR":624.5,"ySR":384.15000000000003,"xT1":354.7,"yT1":0,"xT2":894.3,"yT2":0,"toosoon":0,"cond_shown":"equaldotanddens","ratio_trial":900,"smaller_num":"18","larger_num":"20","correct_side":1,"subjID":"valentinagomezvanegas","gender":"1","age":"11","school":"6"},{"start_time":1551795183643,"click_time":1551795184766,"finger_time":1551795184446,"fix_duration":834.9975471264567,"trial":28,"RT":803,"MT":320,"sideResp":2,"stimulus":"img/250/equaldotsize/R/10_Ratio_250_L_4_R_16.png","xmouse":[691,691,691,691,691,691,691,691,691,691,691,691,691,691,691,691,691,691,691,691,691,691,691,691,691,691,691,691,691,691,691,691,691,691,691,694,698,705,707,714,726,737,753,759,775,801,821,839,851,867,886,895,901,904,908,912,916],"ymouse":[422,422,422,422,422,422,422,422,422,422,422,422,422,422,422,422,422,422,422,422,422,422,422,422,422,422,422,422,422,422,422,422,422,422,422,414,407,400,398,391,378,368,355,350,335,306,283,261,246,225,191,173,156,145,129,116,99],"timestamp_mouse":[10,29,43,63,83,102,122,143,163,183,202,223,243,263,283,302,323,343,362,383,403,424,442,462,483,504,523,542,563,583,604,624,643,663,683,703,724,743,764,784,803,823,843,863,883,903,923,943,963,983,1003,1023,1043,1063,1083,1104,1123],"xSR":624.5,"ySR":384.15000000000003,"xT1":354.7,"yT1":0,"xT2":894.3,"yT2":0,"toosoon":0,"cond_shown":"equaldotsize","ratio_trial":250,"smaller_num":"4","larger_num":"16","correct_side":2,"subjID":"valentinagomezvanegas","gender":"1","age":"11","school":"6"},{"start_time":1551795187462,"click_time":1551795188926,"finger_time":1551795188347,"fix_duration":1274.9167967828464,"trial":29,"RT":885,"MT":579,"sideResp":1,"stimulus":"img/750/equaldotanddens/L/1_Ratio_750_L_20_R_15.png","xmouse":[670,670,670,670,670,670,670,670,670,670,670,670,670,670,670,670,670,670,670,670,670,670,670,670,670,670,670,670,670,670,670,670,670,670,670,670,670,670,670,670,669,663,656,654,640,637,627,618,613,576,568,555,546,545,533,530,520,508,491,484,481,479,478,475,472,470,469,466,464,460,457,457,455,453],"ymouse":[429,429,429,429,429,429,429,429,429,429,429,429,429,429,429,429,429,429,429,429,429,429,429,429,429,429,429,429,429,429,429,429,429,429,429,429,429,429,427,420,416,403,392,388,363,357,342,330,324,285,278,266,257,255,232,226,209,190,160,144,137,130,125,116,110,106,104,99,96,87,83,82,77,72],"timestamp_mouse":[15,24,44,63,85,104,124,144,163,184,204,224,244,264,285,304,324,344,363,383,404,424,444,465,484,504,524,544,563,583,605,624,643,664,684,705,725,744,764,784,803,824,843,864,885,903,923,945,963,984,1004,1025,1044,1064,1084,1105,1124,1145,1164,1183,1205,1224,1244,1265,1283,1304,1324,1344,1364,1384,1405,1424,1444,1464],"xSR":624.5,"ySR":384.15000000000003,"xT1":354.7,"yT1":0,"xT2":894.3,"yT2":0,"toosoon":0,"cond_shown":"equaldotanddens","ratio_trial":750,"smaller_num":"15","larger_num":"20","correct_side":1,"subjID":"valentinagomezvanegas","gender":"1","age":"11","school":"6"},{"start_time":1551795191260,"click_time":1551795192507,"finger_time":1551795191966,"fix_duration":793.4063341132528,"trial":30,"RT":706,"MT":541,"sideResp":1,"stimulus":"img/250/equaldotanddens/L/14_Ratio_250_L_12_R_3.png","xmouse":[661,661,661,661,661,661,661,661,661,661,661,661,661,661,661,661,661,661,661,661,661,661,661,661,661,661,661,661,661,661,661,661,661,661,661,648,640,612,597,587,582,575,566,558,545,538,526,509,505,499,493,490,481,466,462,456,454,444,433,430,430,429,427],"ymouse":[390,390,390,390,390,390,390,390,390,390,390,390,390,390,390,390,390,390,390,390,390,390,390,390,390,390,390,390,390,390,390,390,390,390,390,369,358,323,303,287,280,267,253,240,223,214,202,185,181,174,168,166,157,143,139,134,131,122,110,106,105,103,94],"timestamp_mouse":[10,35,46,65,86,105,126,146,166,187,206,226,246,267,286,306,326,346,366,387,405,426,446,466,487,506,526,546,567,586,606,627,646,666,686,706,726,746,766,786,806,826,846,865,885,906,926,946,966,986,1006,1026,1046,1066,1086,1106,1126,1146,1166,1187,1206,1226,1247],"xSR":624.5,"ySR":384.15000000000003,"xT1":354.7,"yT1":0,"xT2":894.3,"yT2":0,"toosoon":0,"cond_shown":"equaldotanddens","ratio_trial":250,"smaller_num":"3","larger_num":"12","correct_side":1,"subjID":"valentinagomezvanegas","gender":"1","age":"11","school":"6"},{"start_time":1551795194260,"click_time":1551795195466,"finger_time":1551795195127,"fix_duration":611.6275572851507,"trial":31,"RT":867,"MT":339,"sideResp":1,"stimulus":"img/900/equaldotanddens/L/10_Ratio_900_L_20_R_18.png","xmouse":[648,648,648,648,648,648,648,648,648,648,648,648,648,648,648,648,648,648,648,648,648,648,648,648,648,648,648,648,648,648,648,648,648,648,648,648,648,648,648,648,648,648,645,638,630,617,604,596,580,562,546,525,515,510,499,490,477,468,464,457,451],"ymouse":[414,414,414,414,414,414,414,414,414,414,414,414,414,414,414,414,414,414,414,414,414,414,414,414,414,414,414,414,414,414,414,414,414,414,414,414,414,414,414,414,406,399,393,377,361,337,320,309,286,260,235,204,187,177,159,143,119,104,97,85,74],"timestamp_mouse":[10,31,46,66,86,106,125,146,166,186,206,226,246,266,286,305,326,346,366,385,406,426,446,466,486,506,526,546,566,586,606,627,646,666,686,706,725,747,766,786,806,826,846,867,887,907,925,946,966,986,1005,1027,1046,1066,1086,1106,1126,1146,1167,1186,1206],"xSR":624.5,"ySR":384.15000000000003,"xT1":354.7,"yT1":0,"xT2":894.3,"yT2":0,"toosoon":0,"cond_shown":"equaldotanddens","ratio_trial":900,"smaller_num":"18","larger_num":"20","correct_side":1,"subjID":"valentinagomezvanegas","gender":"1","age":"11","school":"6"},{"start_time":1551795197672,"click_time":1551795198867,"finger_time":1551795198466,"fix_duration":1165.9241015761736,"trial":32,"RT":794,"MT":401,"sideResp":1,"stimulus":"img/750/randomdotsizeEA/L/13_Ratio_750_L_8_R_6.png","xmouse":[689,689,689,689,689,689,689,689,689,689,689,689,689,689,689,689,689,689,689,689,689,689,689,689,689,689,689,689,689,689,689,689,689,689,689,689,689,683,665,640,607,599,580,563,557,550,544,531,509,496,486,481,475,465,460,455,453,447,442,438],"ymouse":[443,443,443,443,443,443,443,443,443,443,443,443,443,443,443,443,443,443,443,443,443,443,443,443,443,443,443,443,443,443,443,443,443,443,443,443,443,431,408,380,352,343,327,310,300,289,282,263,236,217,200,192,175,153,143,133,126,113,101,91],"timestamp_mouse":[14,33,54,74,95,114,134,154,174,194,214,234,254,274,294,314,334,354,374,394,414,434,454,474,494,514,533,553,574,595,614,634,655,674,694,714,735,755,774,794,814,835,854,874,893,914,934,954,974,994,1014,1035,1055,1074,1093,1113,1134,1153,1173,1195],"xSR":624.5,"ySR":384.15000000000003,"xT1":354.7,"yT1":0,"xT2":894.3,"yT2":0,"toosoon":0,"cond_shown":"randomdotsizeEA","ratio_trial":750,"smaller_num":"6","larger_num":"8","correct_side":1,"subjID":"valentinagomezvanegas","gender":"1","age":"11","school":"6"},{"start_time":1551795200362,"click_time":1551795201506,"finger_time":1551795201166,"fix_duration":294.7772048535008,"trial":33,"RT":804,"MT":340,"sideResp":2,"stimulus":"img/500/equaldotsize/R/14_Ratio_500_L_5_R_10.png","xmouse":[679,679,679,679,679,679,679,679,679,679,679,679,679,679,679,679,679,679,679,679,679,679,679,679,679,679,679,679,679,679,679,679,679,679,679,679,681,693,700,722,746,764,804,814,833,854,865,899,905,915,920,923,926,928,928,929,929,929],"ymouse":[420,420,420,420,420,420,420,420,420,420,420,420,420,420,420,420,420,420,420,420,420,420,420,420,420,420,420,420,420,420,420,420,420,420,420,420,420,411,404,391,377,367,333,323,301,278,266,234,224,205,187,172,153,138,130,116,108,92],"timestamp_mouse":[10,33,45,64,84,104,123,145,164,185,203,224,245,264,283,304,324,345,365,383,404,424,444,465,484,505,523,544,564,583,604,624,644,664,684,704,724,744,764,784,804,824,844,864,885,904,923,944,965,983,1004,1024,1044,1064,1085,1103,1125,1144],"xSR":624.5,"ySR":384.15000000000003,"xT1":354.7,"yT1":0,"xT2":894.3,"yT2":0,"toosoon":0,"cond_shown":"equaldotsize","ratio_trial":500,"smaller_num":"5","larger_num":"10","correct_side":2,"subjID":"valentinagomezvanegas","gender":"1","age":"11","school":"6"},{"start_time":1551795203709,"click_time":1551795204867,"finger_time":1551795204366,"fix_duration":801.5505349010228,"trial":34,"RT":657,"MT":501,"sideResp":1,"stimulus":"img/250/equaldotsize/L/15_Ratio_250_L_12_R_3.png","xmouse":[688,688,688,688,688,688,688,688,688,688,688,688,688,688,688,688,688,688,688,688,688,688,688,688,688,688,688,688,688,685,684,679,675,663,649,634,626,615,602,593,577,570,553,530,519,512,508,503,491,483,475,472,468,465,463,461,458,448],"ymouse":[399,399,399,399,399,399,399,399,399,399,399,399,399,399,399,399,399,399,399,399,399,399,399,399,399,399,399,399,397,395,393,388,383,368,352,336,327,313,291,276,255,244,220,192,176,162,155,145,123,110,95,91,83,77,74,71,67,55],"timestamp_mouse":[17,38,57,77,98,117,137,157,177,197,218,237,257,277,298,317,337,357,377,397,416,437,457,477,497,517,537,557,577,597,617,637,657,676,697,717,737,757,777,797,817,838,857,877,897,916,937,956,977,997,1017,1037,1057,1077,1097,1117,1137,1158],"xSR":624.5,"ySR":384.15000000000003,"xT1":354.7,"yT1":0,"xT2":894.3,"yT2":0,"toosoon":0,"cond_shown":"equaldotsize","ratio_trial":250,"smaller_num":"3","larger_num":"12","correct_side":1,"subjID":"valentinagomezvanegas","gender":"1","age":"11","school":"6"},{"start_time":1551795206137,"click_time":1551795207146,"finger_time":1551795206927,"fix_duration":250,"trial":35,"RT":790,"MT":219,"sideResp":1,"stimulus":"img/900/equaldotsize/L/1_Ratio_900_L_10_R_9.png","xmouse":[659,659,659,659,659,659,659,659,659,659,659,659,659,659,659,659,659,659,659,659,659,659,659,659,659,659,659,659,659,659,659,659,659,659,659,659,659,659,659,648,630,614,583,541,502,488,483,474,465,448,437],"ymouse":[398,398,398,398,398,398,398,398,398,398,398,398,398,398,398,398,398,398,398,398,398,398,398,398,398,398,398,398,398,398,398,398,398,398,398,398,398,398,396,369,346,324,280,224,177,162,156,145,134,113,99],"timestamp_mouse":[19,29,49,68,89,109,129,149,168,189,209,230,250,269,288,310,330,349,370,388,409,430,449,469,489,509,530,549,569,589,609,629,650,669,689,709,730,749,770,790,809,829,849,869,889,909,929,949,969,989,1009],"xSR":624.5,"ySR":384.15000000000003,"xT1":354.7,"yT1":0,"xT2":894.3,"yT2":0,"toosoon":0,"cond_shown":"equaldotsize","ratio_trial":900,"smaller_num":"9","larger_num":"10","correct_side":1,"subjID":"valentinagomezvanegas","gender":"1","age":"11","school":"6"},{"start_time":1551795209166,"click_time":1551795210905,"finger_time":1551795209906,"fix_duration":799.5341472849423,"trial":36,"RT":740,"MT":999,"sideResp":2,"stimulus":"img/900/equaldotsize/R/5_Ratio_900_L_9_R_10.png","xmouse":[666,666,666,666,666,666,666,666,666,666,666,666,666,666,666,666,666,666,666,666,666,666,666,666,666,666,666,666,666,666,666,666,666,666,666,666,666,663,651,644,628,611,607,604,602,594,576,565,557,556,556,556,556,556,556,556,556,556,556,556,556,565,593,603,607,610,646,662,697,731,740,761,792,801,818,834,841,856,860,865,868,871,881,884,889,894,896,908],"ymouse":[392,392,392,392,392,392,392,392,392,392,392,392,392,392,392,392,392,392,392,392,392,392,392,392,392,392,392,392,392,392,392,392,392,392,392,392,392,384,371,363,347,328,323,317,315,304,281,266,257,256,256,256,256,255,251,249,246,244,244,243,243,243,247,247,247,244,230,226,215,205,201,190,177,174,168,158,153,139,134,127,124,122,116,115,112,108,107,97],"timestamp_mouse":[9,29,40,60,80,101,120,140,159,180,201,220,241,260,280,300,321,341,360,380,400,420,440,460,480,501,520,541,559,579,600,620,640,660,680,700,720,739,759,780,800,820,840,859,880,900,919,940,959,981,1000,1021,1040,1060,1079,1100,1120,1140,1159,1179,1200,1221,1240,1261,1279,1301,1321,1340,1360,1380,1400,1420,1440,1459,1480,1500,1520,1539,1559,1580,1600,1620,1640,1660,1680,1700,1720,1739],"xSR":624.5,"ySR":384.15000000000003,"xT1":354.7,"yT1":0,"xT2":894.3,"yT2":0,"toosoon":0,"cond_shown":"equaldotsize","ratio_trial":900,"smaller_num":"9","larger_num":"10","correct_side":2,"subjID":"valentinagomezvanegas","gender":"1","age":"11","school":"6"},{"start_time":1551795212594,"click_time":1551795213706,"finger_time":1551795213286,"fix_duration":566.0161859395226,"trial":37,"RT":692,"MT":420,"sideResp":2,"stimulus":"img/500/equaldotanddens/R/3_Ratio_500_L_10_R_20.png","xmouse":[678,678,678,678,678,678,678,678,678,678,678,678,678,678,678,678,678,678,678,678,678,678,678,678,678,678,678,678,678,678,678,679,682,708,728,736,750,765,773,782,787,799,812,836,850,854,865,871,882,886,887,888,890,892,894,895],"ymouse":[437,437,437,437,437,437,437,437,437,437,437,437,437,437,437,437,437,437,437,437,437,437,437,437,437,437,437,437,437,437,437,437,437,415,393,381,362,340,321,306,297,279,260,220,196,186,167,152,130,114,106,103,98,88,84,80],"timestamp_mouse":[12,33,52,72,93,112,132,152,171,193,212,232,251,271,292,313,332,353,372,393,412,432,452,472,492,512,532,552,572,592,612,632,653,672,692,712,733,753,772,792,813,833,852,873,892,913,932,953,972,992,1012,1033,1053,1072,1092,1112],"xSR":624.5,"ySR":384.15000000000003,"xT1":354.7,"yT1":0,"xT2":894.3,"yT2":0,"toosoon":0,"cond_shown":"equaldotanddens","ratio_trial":500,"smaller_num":"10","larger_num":"20","correct_side":2,"subjID":"valentinagomezvanegas","gender":"1","age":"11","school":"6"},{"start_time":1551795225513,"click_time":1551795226607,"finger_time":1551795226206,"fix_duration":1005.3005689974826,"trial":38,"RT":693,"MT":401,"sideResp":2,"stimulus":"img/250/randomdotsizeEA/R/4_Ratio_250_L_3_R_12.png","xmouse":[677,677,678,679,679,680,680,680,680,680,680,680,680,680,680,680,680,680,680,680,680,680,680,680,680,680,680,680,680,680,680,685,688,700,711,730,741,744,751,755,768,783,792,809,829,858,875,884,900,915,921,948,958,960,965],"ymouse":[417,417,417,417,417,417,417,417,417,417,417,417,417,417,417,417,417,417,417,417,417,417,417,417,417,417,417,417,417,417,417,414,411,396,377,343,324,317,305,299,287,274,265,251,233,211,201,196,184,172,165,129,112,106,95],"timestamp_mouse":[13,40,53,73,93,113,132,153,174,194,213,232,252,273,293,313,333,354,374,393,413,433,453,473,493,513,532,553,574,594,612,633,653,673,693,713,733,753,773,794,813,833,853,874,894,913,932,954,972,993,1013,1033,1053,1074,1094],"xSR":624.5,"ySR":384.15000000000003,"xT1":354.7,"yT1":0,"xT2":894.3,"yT2":0,"toosoon":0,"cond_shown":"randomdotsizeEA","ratio_trial":250,"smaller_num":"3","larger_num":"12","correct_side":2,"subjID":"valentinagomezvanegas","gender":"1","age":"11","school":"6"},{"start_time":1551795228566,"click_time":1551795230006,"finger_time":1551795229586,"fix_duration":739.7751882390323,"trial":39,"RT":1020,"MT":420,"sideResp":2,"stimulus":"img/900/randomdotsizeEA/R/12_Ratio_900_L_18_R_20.png","xmouse":[708,708,708,708,708,708,708,708,708,708,708,708,708,708,708,708,708,708,708,708,708,708,708,708,708,708,708,708,708,708,708,708,708,708,708,708,708,708,708,708,708,708,708,708,708,708,708,708,708,708,723,733,763,780,792,797,806,814,822,833,838,846,860,868,878,882,891,901,907,911,913,916,919],"ymouse":[416,416,416,416,416,416,416,416,416,416,416,416,416,416,416,416,416,416,416,416,416,416,416,416,416,416,416,416,416,416,416,416,416,416,416,416,416,416,416,416,416,416,416,416,416,416,416,416,416,416,401,391,363,345,333,326,314,301,291,277,271,259,238,221,205,197,179,156,140,129,122,113,94],"timestamp_mouse":[8,29,40,60,80,100,120,139,160,180,201,221,240,260,280,301,321,340,360,380,400,420,440,460,480,500,520,540,560,580,600,620,641,660,680,700,721,739,759,781,800,820,840,860,880,900,919,940,961,980,1000,1020,1040,1061,1079,1101,1120,1140,1160,1180,1200,1220,1240,1260,1279,1300,1321,1340,1360,1379,1400,1420,1440],"xSR":624.5,"ySR":384.15000000000003,"xT1":354.7,"yT1":0,"xT2":894.3,"yT2":0,"toosoon":0,"cond_shown":"randomdotsizeEA","ratio_trial":900,"smaller_num":"18","larger_num":"20","correct_side":2,"subjID":"valentinagomezvanegas","gender":"1","age":"11","school":"6"},{"start_time":1551795231459,"click_time":1551795233066,"finger_time":1551795232266,"fix_duration":250,"trial":40,"RT":807,"MT":800,"sideResp":1,"stimulus":"img/750/equaldotsize/L/9_Ratio_750_L_4_R_3.png","xmouse":[699,699,699,699,699,699,699,699,699,699,699,699,699,699,699,699,699,699,699,699,699,699,699,699,699,699,699,699,699,699,699,699,699,699,699,699,699,699,692,686,667,664,656,653,652,639,629,625,619,615,612,610,607,600,592,580,573,572,566,561,552,546,541,534,528,518,511,505,503,501,497,491,489,480,473,464,460,458,457,455,449],"ymouse":[411,411,411,411,411,411,411,411,411,411,411,411,411,411,411,411,411,411,411,411,411,411,411,411,411,411,411,411,411,411,411,411,411,411,411,411,411,411,403,398,381,378,372,368,367,348,337,333,326,323,319,316,311,297,285,267,257,254,245,235,220,205,195,179,162,142,129,120,117,113,106,99,94,86,80,74,71,69,68,66,60],"timestamp_mouse":[11,31,48,67,88,107,128,146,168,187,207,226,247,268,287,306,328,347,368,387,407,427,446,467,486,507,527,547,567,588,607,628,647,667,688,707,727,748,768,787,807,826,847,868,887,907,927,947,967,988,1007,1027,1047,1068,1087,1107,1127,1148,1168,1187,1207,1226,1247,1267,1287,1306,1326,1347,1367,1388,1407,1428,1447,1468,1488,1507,1527,1547,1567,1588,1607],"xSR":624.5,"ySR":384.15000000000003,"xT1":354.7,"yT1":0,"xT2":894.3,"yT2":0,"toosoon":0,"cond_shown":"equaldotsize","ratio_trial":750,"smaller_num":"3","larger_num":"4","correct_side":1,"subjID":"valentinagomezvanegas","gender":"1","age":"11","school":"6"},{"start_time":1551795234649,"click_time":1551795236266,"finger_time":1551795235427,"fix_duration":560.1143008583938,"trial":41,"RT":778,"MT":839,"sideResp":1,"stimulus":"img/900/equaldotanddens/L/4_Ratio_900_L_20_R_18.png","xmouse":[642,642,642,642,642,642,642,642,642,642,642,642,642,642,642,642,642,642,642,642,642,642,642,642,642,642,642,643,645,648,659,665,675,690,691,695,696,696,700,702,710,727,736,766,773,781,788,792,803,806,817,829,832,845,847,848,850,850,851,851,851,852,852,852,842,826,799,766,749,689,679,652,627,610,518,499,478,472,470,458,452],"ymouse":[423,423,423,423,423,423,423,423,423,423,423,423,423,423,423,423,423,423,423,423,423,423,423,423,423,423,423,423,423,421,414,409,402,392,391,388,387,386,381,380,370,355,345,310,300,287,276,270,249,243,230,212,208,186,182,178,175,175,172,171,170,168,167,162,153,148,147,147,148,144,141,134,127,125,101,96,89,86,84,74,72],"timestamp_mouse":[18,37,57,78,99,117,137,157,177,198,218,237,257,278,298,318,337,357,378,397,418,438,458,478,497,518,539,557,577,598,617,638,657,678,697,717,738,759,778,797,817,838,858,877,898,918,938,957,977,998,1018,1038,1059,1078,1097,1118,1138,1157,1178,1197,1219,1239,1258,1277,1297,1319,1337,1358,1377,1398,1417,1438,1458,1477,1497,1518,1539,1557,1577,1597,1617],"xSR":624.5,"ySR":384.15000000000003,"xT1":354.7,"yT1":0,"xT2":894.3,"yT2":0,"toosoon":0,"cond_shown":"equaldotanddens","ratio_trial":900,"smaller_num":"18","larger_num":"20","correct_side":1,"subjID":"valentinagomezvanegas","gender":"1","age":"11","school":"6"},{"start_time":1551795237955,"click_time":1551795239006,"finger_time":1551795238606,"fix_duration":727.3189209706891,"trial":42,"RT":651,"MT":400,"sideResp":1,"stimulus":"img/250/equaldotanddens/L/2_Ratio_250_L_16_R_4.png","xmouse":[641,641,641,641,641,641,641,641,641,641,641,641,641,641,641,641,641,641,641,641,641,641,641,643,644,645,646,646,646,644,641,631,609,590,580,563,540,527,512,507,494,472,459,451,443,439,434,428,424,422,420,418,413],"ymouse":[456,456,456,456,456,456,456,456,456,456,456,456,456,456,456,456,456,456,456,456,456,456,456,453,446,436,428,423,418,416,407,388,353,327,315,295,266,251,236,231,218,195,179,166,155,149,140,131,123,115,111,103,87],"timestamp_mouse":[12,32,52,73,92,112,132,152,171,191,212,232,251,271,292,312,331,353,372,391,412,431,451,471,491,511,531,553,572,593,612,632,651,672,691,712,732,751,771,791,811,832,851,872,892,912,931,951,971,991,1012,1031,1051],"xSR":624.5,"ySR":384.15000000000003,"xT1":354.7,"yT1":0,"xT2":894.3,"yT2":0,"toosoon":0,"cond_shown":"equaldotanddens","ratio_trial":250,"smaller_num":"4","larger_num":"16","correct_side":1,"subjID":"valentinagomezvanegas","gender":"1","age":"11","school":"6"},{"start_time":1551795241525,"click_time":1551795242688,"finger_time":1551795242166,"fix_duration":1397.4110133432057,"trial":43,"RT":641,"MT":522,"sideResp":1,"stimulus":"img/250/equaldotsize/L/1_Ratio_250_L_8_R_2.png","xmouse":[704,704,704,704,704,704,704,704,704,704,704,704,704,704,704,704,704,704,704,704,704,704,704,704,704,704,704,704,704,704,705,700,669,642,634,625,617,602,590,586,568,548,513,496,492,490,487,485,480,477,466,457,457,456,456,456,456,455,453],"ymouse":[466,466,466,466,466,466,466,466,466,466,466,466,466,466,466,466,466,466,466,466,466,466,466,466,466,466,466,466,466,466,452,432,365,318,306,292,279,261,250,245,232,215,193,183,181,179,173,167,156,149,128,111,110,105,104,104,102,101,93],"timestamp_mouse":[9,22,42,62,82,103,121,141,161,182,202,223,241,262,281,301,323,341,362,381,401,423,442,461,481,501,521,542,561,583,601,623,641,661,681,701,722,741,762,782,803,822,842,863,881,903,921,941,961,981,1002,1021,1041,1062,1081,1101,1121,1141,1163],"xSR":624.5,"ySR":384.15000000000003,"xT1":354.7,"yT1":0,"xT2":894.3,"yT2":0,"toosoon":0,"cond_shown":"equaldotsize","ratio_trial":250,"smaller_num":"2","larger_num":"8","correct_side":1,"subjID":"valentinagomezvanegas","gender":"1","age":"11","school":"6"},{"start_time":1551795245232,"click_time":1551795246446,"finger_time":1551795246047,"fix_duration":1303.9806425859601,"trial":44,"RT":815,"MT":399,"sideResp":1,"stimulus":"img/500/equaldotsize/L/10_Ratio_500_L_4_R_2.png","xmouse":[678,678,678,678,678,678,678,678,678,678,678,678,678,678,678,678,678,678,678,678,678,678,678,678,678,678,678,678,678,678,678,678,678,678,678,678,678,678,675,668,646,636,631,629,625,615,607,594,588,574,555,544,534,528,514,493,481,472,463,460,451],"ymouse":[409,409,409,409,409,409,409,409,409,409,409,409,409,409,409,409,409,409,409,409,409,409,409,409,409,409,409,409,409,409,409,409,409,409,409,409,409,409,404,396,370,357,349,347,339,321,307,289,281,263,241,228,215,207,187,157,141,125,107,100,84],"timestamp_mouse":[15,35,54,74,94,114,136,155,175,194,214,235,254,275,294,315,334,354,374,394,415,436,455,475,495,516,535,554,574,594,614,634,655,675,695,715,735,756,775,796,815,835,854,874,895,914,935,954,975,994,1015,1035,1054,1075,1094,1115,1134,1154,1174,1196,1214],"xSR":624.5,"ySR":384.15000000000003,"xT1":354.7,"yT1":0,"xT2":894.3,"yT2":0,"toosoon":0,"cond_shown":"equaldotsize","ratio_trial":500,"smaller_num":"2","larger_num":"4","correct_side":1,"subjID":"valentinagomezvanegas","gender":"1","age":"11","school":"6"},{"start_time":1551795248705,"click_time":1551795250006,"finger_time":1551795249526,"fix_duration":1297.1305718560718,"trial":45,"RT":821,"MT":480,"sideResp":1,"stimulus":"img/750/equaldotanddens/L/14_Ratio_750_L_8_R_6.png","xmouse":[640,640,640,640,640,640,640,640,640,640,640,640,640,640,640,640,640,640,640,640,640,640,640,640,640,640,640,640,640,640,640,640,640,640,640,640,640,640,637,631,625,592,584,572,561,557,536,528,512,490,470,461,443,434,431,430,429,429,426,422,420,419,419,419,419,419],"ymouse":[450,450,450,450,450,450,450,450,450,450,450,450,450,450,450,450,450,450,450,450,450,450,450,450,450,450,450,450,450,450,450,450,450,450,450,450,450,450,429,405,390,330,320,302,288,282,255,247,232,212,192,180,154,142,136,135,132,130,123,115,110,107,105,105,102,98],"timestamp_mouse":[8,27,41,61,81,102,121,141,162,181,202,222,241,261,282,301,321,343,363,382,403,423,441,462,481,502,521,542,561,583,602,622,641,662,682,701,721,741,763,781,801,821,842,862,882,901,922,942,963,983,1001,1021,1041,1061,1082,1101,1121,1142,1162,1182,1201,1222,1242,1262,1281,1301],"xSR":624.5,"ySR":384.15000000000003,"xT1":354.7,"yT1":0,"xT2":894.3,"yT2":0,"toosoon":0,"cond_shown":"equaldotanddens","ratio_trial":750,"smaller_num":"6","larger_num":"8","correct_side":1,"subjID":"valentinagomezvanegas","gender":"1","age":"11","school":"6"},{"start_time":1551795252525,"click_time":1551795253988,"finger_time":1551795253387,"fix_duration":1178.6266193738838,"trial":46,"RT":862,"MT":601,"sideResp":2,"stimulus":"img/750/equaldotanddens/R/11_Ratio_750_L_12_R_16.png","xmouse":[664,664,664,664,664,664,664,664,664,664,664,664,664,664,664,664,664,664,664,664,664,664,664,664,664,664,664,664,664,664,664,664,664,664,664,664,664,672,678,693,704,707,720,738,760,776,782,799,815,832,848,861,867,877,887,891,894,896,898,902,905,908,909,910,913,915,915,915,915,916,917,917,917,918],"ymouse":[422,422,422,422,422,422,422,422,422,422,422,422,422,422,422,422,422,422,422,422,422,422,422,422,422,422,422,422,422,422,422,422,422,422,422,422,422,421,418,409,402,400,391,379,362,348,342,330,318,305,284,268,262,251,232,218,209,203,195,182,174,163,159,149,136,129,124,122,117,114,108,105,103,98],"timestamp_mouse":[9,22,41,62,82,101,122,142,163,182,202,221,243,262,281,302,322,342,361,381,401,421,441,462,482,501,521,542,563,581,601,622,641,662,682,702,722,742,761,781,802,823,843,862,881,902,921,941,962,981,1002,1021,1042,1062,1081,1102,1121,1142,1161,1181,1202,1222,1243,1262,1282,1301,1322,1343,1362,1382,1402,1422,1441,1463],"xSR":624.5,"ySR":384.15000000000003,"xT1":354.7,"yT1":0,"xT2":894.3,"yT2":0,"toosoon":0,"cond_shown":"equaldotanddens","ratio_trial":750,"smaller_num":"12","larger_num":"16","correct_side":2,"subjID":"valentinagomezvanegas","gender":"1","age":"11","school":"6"},{"start_time":1551795256593,"click_time":1551795257707,"finger_time":1551795257226,"fix_duration":1065.2036603223155,"trial":47,"RT":633,"MT":481,"sideResp":2,"stimulus":"img/750/equaldotsize/R/3_Ratio_750_L_15_R_20.png","xmouse":[698,698,698,698,698,698,698,699,700,701,701,702,704,708,710,710,710,710,711,711,711,713,714,717,720,721,722,722,722,722,724,727,734,743,754,764,766,771,779,804,822,832,857,873,892,898,900,905,910,912,919,921,922,923,925,926],"ymouse":[468,468,468,468,468,468,468,468,468,468,468,468,468,465,464,464,464,464,463,463,463,462,462,459,456,455,454,454,454,454,449,445,433,419,399,383,378,371,361,335,315,305,277,254,221,203,193,183,171,167,145,134,127,116,103,96],"timestamp_mouse":[18,35,53,73,93,113,133,153,174,193,213,233,255,275,294,314,333,354,374,395,414,435,454,475,494,514,535,554,575,594,614,633,653,675,693,714,733,754,774,794,814,835,853,875,894,915,933,954,973,994,1013,1034,1054,1073,1094,1113],"xSR":624.5,"ySR":384.15000000000003,"xT1":354.7,"yT1":0,"xT2":894.3,"yT2":0,"toosoon":0,"cond_shown":"equaldotsize","ratio_trial":750,"smaller_num":"15","larger_num":"20","correct_side":2,"subjID":"valentinagomezvanegas","gender":"1","age":"11","school":"6"},{"start_time":1551795260544,"click_time":1551795261946,"finger_time":1551795261346,"fix_duration":1216.8112457338357,"trial":48,"RT":802,"MT":600,"sideResp":1,"stimulus":"img/250/equaldotsize/L/1_Ratio_250_L_8_R_2.png","xmouse":[696,696,696,696,696,696,696,696,696,696,696,696,696,696,696,696,696,696,696,696,696,696,696,696,696,696,696,696,696,696,696,696,696,694,693,692,690,689,687,684,682,662,656,643,632,627,617,600,588,576,568,557,543,536,529,528,522,518,515,514,514,513,510,508,501,492,486,467,464,460,454],"ymouse":[409,409,409,409,409,409,409,409,409,409,409,409,409,409,409,409,409,409,409,409,409,409,409,409,409,409,409,409,409,409,409,409,409,408,404,402,399,396,392,385,384,353,343,324,311,304,288,264,247,231,221,201,174,163,151,147,138,132,128,126,126,125,122,122,117,110,106,92,89,85,81],"timestamp_mouse":[10,33,42,63,83,102,122,142,163,184,202,223,242,263,284,302,322,343,362,382,403,423,443,463,483,503,523,543,563,582,602,622,644,662,682,702,722,742,762,782,802,823,842,862,883,902,924,942,963,983,1004,1022,1042,1062,1082,1103,1122,1143,1162,1183,1203,1223,1242,1263,1284,1303,1323,1342,1363,1383,1402],"xSR":624.5,"ySR":384.15000000000003,"xT1":354.7,"yT1":0,"xT2":894.3,"yT2":0,"toosoon":0,"cond_shown":"equaldotsize","ratio_trial":250,"smaller_num":"2","larger_num":"8","correct_side":1,"subjID":"valentinagomezvanegas","gender":"1","age":"11","school":"6"},{"start_time":1551795264605,"click_time":1551795266166,"finger_time":1551795265386,"fix_duration":1377.6143017372533,"trial":49,"RT":781,"MT":780,"sideResp":1,"stimulus":"img/250/equaldotsize/L/3_Ratio_250_L_8_R_2.png","xmouse":[677,677,677,677,677,677,677,677,677,677,677,677,677,677,677,677,677,677,677,677,677,677,677,677,677,677,677,677,677,677,677,677,677,677,677,677,677,676,671,666,663,655,648,639,634,631,621,611,591,577,570,559,549,538,532,528,520,511,501,498,497,496,493,489,485,483,481,478,476,474,473,470,468,464,461,459,458,456,453],"ymouse":[401,401,401,401,401,401,401,401,401,401,401,401,401,401,401,401,401,401,401,401,401,401,401,401,401,401,401,401,401,401,401,401,401,401,401,401,401,397,385,375,369,355,343,327,318,312,296,278,247,228,217,199,183,162,153,147,135,122,107,104,102,100,96,91,86,83,80,78,75,72,71,68,66,64,61,60,60,57,56],"timestamp_mouse":[9,23,43,62,82,102,121,142,163,181,201,222,242,263,281,301,322,342,361,381,401,422,442,462,481,502,522,542,561,581,601,621,641,661,681,703,725,743,761,781,802,822,841,862,882,902,921,941,961,981,1001,1022,1041,1061,1082,1101,1122,1141,1162,1182,1202,1223,1242,1262,1282,1302,1322,1341,1361,1382,1402,1422,1441,1461,1481,1501,1522,1542,1561],"xSR":624.5,"ySR":384.15000000000003,"xT1":354.7,"yT1":0,"xT2":894.3,"yT2":0,"toosoon":0,"cond_shown":"equaldotsize","ratio_trial":250,"smaller_num":"2","larger_num":"8","correct_side":1,"subjID":"valentinagomezvanegas","gender":"1","age":"11","school":"6"},{"start_time":1551795267862,"click_time":1551795268987,"finger_time":1551795268427,"fix_duration":553.6641740172159,"trial":50,"RT":565,"MT":560,"sideResp":2,"stimulus":"img/500/randomdotsizeEA/R/3_Ratio_500_L_10_R_20.png","xmouse":[646,646,646,646,646,646,646,646,646,646,646,646,646,646,646,646,647,654,658,664,671,674,676,679,680,682,689,691,697,699,701,702,705,719,726,745,769,775,798,805,818,831,839,870,877,885,894,898,908,909,912,914,915,922,923,929,932],"ymouse":[429,429,429,429,429,429,429,429,429,429,429,429,429,429,429,429,429,425,422,416,410,407,405,403,402,400,393,389,382,381,378,376,374,358,353,336,316,309,279,269,250,231,224,189,180,166,151,145,128,126,121,118,117,110,108,102,98],"timestamp_mouse":[9,25,46,64,85,104,124,144,164,184,205,226,244,264,284,305,326,345,364,385,405,426,445,464,485,505,525,545,565,585,605,625,645,665,684,705,726,746,765,784,805,825,845,864,885,904,925,945,965,985,1004,1026,1046,1065,1085,1104,1125],"xSR":624.5,"ySR":384.15000000000003,"xT1":354.7,"yT1":0,"xT2":894.3,"yT2":0,"toosoon":0,"cond_shown":"randomdotsizeEA","ratio_trial":500,"smaller_num":"10","larger_num":"20","correct_side":2,"subjID":"valentinagomezvanegas","gender":"1","age":"11","school":"6"},{"start_time":1551795270619,"click_time":1551795271626,"finger_time":1551795271267,"fix_duration":250,"trial":51,"RT":648,"MT":359,"sideResp":2,"stimulus":"img/750/equaldotanddens/R/3_Ratio_750_L_15_R_20.png","xmouse":[674,674,674,674,674,674,674,676,676,676,676,677,679,679,679,679,679,679,679,679,679,679,679,679,679,679,679,679,679,688,699,719,733,767,791,802,809,825,846,853,856,858,860,864,869,873,876,881,889,894,896],"ymouse":[422,422,422,422,422,422,423,424,424,424,424,424,425,425,425,425,425,425,425,425,425,425,425,425,425,425,425,425,425,423,415,397,381,334,296,269,252,219,182,168,159,155,149,137,127,115,110,98,86,79,77],"timestamp_mouse":[10,28,48,68,88,107,128,149,167,187,207,228,249,268,288,308,328,348,368,388,407,427,447,468,487,507,528,548,569,587,607,627,648,668,688,708,728,748,767,788,808,827,849,868,887,907,927,947,969,988,1007],"xSR":624.5,"ySR":384.15000000000003,"xT1":354.7,"yT1":0,"xT2":894.3,"yT2":0,"toosoon":0,"cond_shown":"equaldotanddens","ratio_trial":750,"smaller_num":"15","larger_num":"20","correct_side":2,"subjID":"valentinagomezvanegas","gender":"1","age":"11","school":"6"},{"start_time":1551795273757,"click_time":1551795275087,"finger_time":1551795274786,"fix_duration":890.8465314584198,"trial":52,"RT":1029,"MT":301,"sideResp":2,"stimulus":"img/750/randomdotsizeEA/R/7_Ratio_750_L_3_R_4.png","xmouse":[678,678,678,678,678,678,678,678,678,678,678,678,678,678,678,678,678,678,678,678,678,678,678,678,678,678,678,678,678,678,678,678,678,678,678,678,678,678,678,678,678,678,678,678,678,678,678,678,678,685,699,719,730,758,783,814,823,839,858,867,899,907,920,928,936,948,953],"ymouse":[430,430,430,430,430,430,430,430,430,430,430,430,430,430,430,430,430,430,430,430,430,430,430,430,430,430,430,430,430,430,430,430,430,430,430,430,430,430,430,430,430,430,430,430,430,430,430,430,430,424,404,382,370,342,319,283,273,258,236,226,189,179,162,147,132,106,92],"timestamp_mouse":[12,33,50,70,91,110,130,150,169,189,210,230,249,270,289,310,330,349,369,389,409,430,450,469,489,510,530,550,571,590,610,629,650,670,690,710,729,751,770,790,809,829,849,870,889,909,929,950,969,991,1009,1029,1049,1069,1090,1110,1129,1149,1171,1189,1211,1230,1250,1270,1290,1310,1330],"xSR":624.5,"ySR":384.15000000000003,"xT1":354.7,"yT1":0,"xT2":894.3,"yT2":0,"toosoon":0,"cond_shown":"randomdotsizeEA","ratio_trial":750,"smaller_num":"3","larger_num":"4","correct_side":2,"subjID":"valentinagomezvanegas","gender":"1","age":"11","school":"6"},{"start_time":1551795277476,"click_time":1551795279047,"finger_time":1551795278207,"fix_duration":1168.0248662900542,"trial":53,"RT":731,"MT":840,"sideResp":2,"stimulus":"img/500/equaldotsize/R/14_Ratio_500_L_5_R_10.png","xmouse":[680,680,680,680,680,680,680,680,680,680,680,680,680,680,680,680,680,680,680,680,680,680,680,680,680,680,680,680,680,680,680,680,680,680,681,686,704,735,755,767,773,786,804,816,826,829,838,846,856,861,863,868,871,876,879,880,881,882,884,886,888,888,889,890,891,891,891,893,893,893,894,894,894,894,894,894,894,894,895],"ymouse":[397,397,397,397,397,397,397,397,397,397,397,397,397,397,397,397,397,397,397,397,397,397,397,397,397,397,397,397,397,397,397,397,397,397,397,393,382,360,346,335,329,317,293,274,252,243,222,202,173,153,145,131,117,100,92,85,82,77,72,67,65,64,62,60,60,59,59,57,57,57,56,56,56,56,56,56,56,56,56],"timestamp_mouse":[10,32,52,70,92,111,131,151,172,191,211,230,250,270,290,311,331,350,370,390,411,430,451,470,490,511,531,551,570,590,610,632,651,672,690,710,731,750,771,791,811,831,851,871,891,910,931,950,970,991,1010,1031,1050,1070,1090,1110,1131,1151,1170,1191,1210,1231,1250,1270,1292,1312,1330,1352,1371,1390,1410,1430,1451,1470,1492,1511,1530,1550,1571],"xSR":624.5,"ySR":384.15000000000003,"xT1":354.7,"yT1":0,"xT2":894.3,"yT2":0,"toosoon":0,"cond_shown":"equaldotsize","ratio_trial":500,"smaller_num":"5","larger_num":"10","correct_side":2,"subjID":"valentinagomezvanegas","gender":"1","age":"11","school":"6"},{"start_time":1551795281103,"click_time":1551795282427,"finger_time":1551795281746,"fix_duration":933.1347496164691,"trial":54,"RT":643,"MT":681,"sideResp":2,"stimulus":"img/250/equaldotanddens/R/6_Ratio_250_L_6_R_24.png","xmouse":[698,698,698,698,698,698,698,698,698,698,698,698,698,698,698,698,698,698,698,698,698,698,698,698,698,698,700,701,705,707,720,723,736,752,761,792,800,814,828,841,859,869,872,879,886,896,900,902,913,917,922,924,924,924,925,925,925,925,925,925,925,925,925,925,925,925,925],"ymouse":[423,423,423,423,423,423,423,423,423,423,423,423,423,423,423,423,423,423,423,423,423,423,423,423,423,423,423,422,416,414,395,390,374,355,345,311,302,286,271,254,232,217,211,198,186,168,160,156,140,133,124,120,120,119,117,117,117,117,117,116,111,110,109,108,107,105,95],"timestamp_mouse":[9,30,44,63,84,103,123,143,163,184,203,223,244,264,283,303,323,343,364,384,404,424,443,463,483,504,523,544,564,584,603,623,643,663,683,704,724,745,763,784,804,824,844,864,883,904,924,945,964,985,1003,1023,1045,1064,1083,1103,1124,1144,1163,1184,1204,1223,1245,1264,1284,1303,1324],"xSR":624.5,"ySR":384.15000000000003,"xT1":354.7,"yT1":0,"xT2":894.3,"yT2":0,"toosoon":0,"cond_shown":"equaldotanddens","ratio_trial":250,"smaller_num":"6","larger_num":"24","correct_side":2,"subjID":"valentinagomezvanegas","gender":"1","age":"11","school":"6"},{"start_time":1551795284135,"click_time":1551795285886,"finger_time":1551795284806,"fix_duration":387.39772469953994,"trial":55,"RT":671,"MT":1080,"sideResp":1,"stimulus":"img/900/randomdotsizeEA/L/4_Ratio_900_L_20_R_18.png","xmouse":[658,658,658,658,658,659,660,660,660,660,660,660,660,660,660,660,660,661,661,661,664,666,667,667,667,667,667,667,667,667,667,667,669,670,672,673,682,686,694,712,723,756,761,771,778,780,785,788,792,798,799,805,811,816,819,820,822,822,822,822,822,822,812,801,782,742,661,613,599,576,563,556,527,517,498,482,474,465,463,459,455,453,441,419,419,419,419,417],"ymouse":[393,393,393,393,393,393,393,393,393,393,393,393,393,393,393,393,393,393,393,393,393,392,390,390,390,390,390,390,390,390,390,390,385,384,381,379,362,357,341,313,299,252,242,225,214,209,201,198,190,182,179,170,160,153,149,146,144,144,144,144,144,144,145,148,152,157,164,166,166,168,168,168,161,158,154,151,150,146,145,138,131,127,117,103,102,102,102,96],"timestamp_mouse":[28,32,51,72,92,112,131,152,171,191,212,233,251,271,291,313,332,352,373,391,412,431,452,472,492,512,531,551,571,591,611,631,651,671,693,713,732,752,771,791,812,832,852,871,892,912,931,951,972,991,1012,1032,1051,1072,1091,1111,1132,1152,1172,1192,1212,1231,1252,1272,1292,1312,1333,1351,1371,1392,1411,1431,1451,1471,1492,1512,1532,1551,1572,1591,1612,1631,1651,1672,1693,1712,1732,1751],"xSR":624.5,"ySR":384.15000000000003,"xT1":354.7,"yT1":0,"xT2":894.3,"yT2":0,"toosoon":0,"cond_shown":"randomdotsizeEA","ratio_trial":900,"smaller_num":"18","larger_num":"20","correct_side":1,"subjID":"valentinagomezvanegas","gender":"1","age":"11","school":"6"},{"start_time":1551795287