[{"start_time":1551794164719,"click_time":1551794167725,"finger_time":1551794166284,"fix_duration":269.7616037474868,"trial":0,"RT":1565,"MT":1441,"sideResp":1,"stimulus":[],"xmouse":[681,681,681,681,681,681,681,681,681,681,681,681,681,681,681,681,681,681,681,681,681,681,681,681,681,681,681,681,681,681,681,681,681,681,681,681,681,681,681,681,681,681,681,681,681,681,681,681,681,681,681,681,681,681,681,681,681,681,681,681,681,681,681,681,681,681,681,681,681,681,681,681,681,681,681,681,681,678,662,639,619,605,600,580,570,539,491,471,428,422,420,420,420,420,420,420,420,420,423,455,486,518,548,588,601,622,629,629,629,629,630,650,680,702,777,788,797,799,799,799,799,799,799,799,799,799,799,799,799,799,798,782,745,670,577,566,566,566,566,566,551,532,504,491,487,487,487,487,481,460,434],"ymouse":[487,487,487,487,487,487,487,487,487,487,487,487,487,487,487,487,487,487,487,487,487,487,487,487,487,487,487,487,487,487,487,487,487,487,487,487,487,487,487,487,487,487,487,487,487,487,487,487,487,487,487,487,487,487,487,487,487,487,487,487,487,487,487,487,487,487,487,487,487,487,487,487,486,486,486,486,477,462,414,379,353,335,329,297,280,241,201,182,142,136,134,134,134,130,130,130,130,130,128,125,123,123,123,118,116,111,108,108,108,108,108,108,108,108,110,110,110,110,110,110,110,110,110,110,110,110,110,110,110,110,111,111,103,83,56,51,51,51,51,51,46,42,39,38,38,38,38,38,38,36,36],"timestamp_mouse":[9,26,47,66,87,106,127,146,167,187,206,225,245,265,285,305,325,346,367,386,406,427,446,466,486,506,526,546,567,585,605,625,645,666,686,705,726,746,765,785,805,825,846,865,885,907,927,946,965,986,1007,1027,1046,1067,1086,1106,1127,1146,1165,1185,1207,1227,1245,1265,1285,1305,1325,1345,1366,1385,1405,1425,1445,1465,1485,1505,1526,1547,1565,1585,1606,1627,1645,1665,1685,1707,1726,1745,1766,1785,1807,1827,1845,1865,1885,1906,1926,1945,1965,1986,2005,2027,2046,2066,2085,2106,2126,2146,2166,2186,2207,2227,2246,2265,2286,2305,2325,2345,2365,2385,2406,2426,2446,2465,2485,2506,2526,2545,2565,2585,2605,2625,2646,2666,2685,2705,2725,2747,2766,2786,2806,2827,2847,2866,2886,2906,2927,2946,2966,2986,3006],"xSR":624.5,"ySR":416,"xT1":354.7,"yT1":0,"xT2":894.3,"yT2":0,"toosoon":0,"cond_shown":"Incongruent","ratio_trial":100,"L_num":3,"L_den":6,"R_num":4,"R_den":10,"correct_side":1,"subjID":"valentinagomezvanegas","gender":"1","age":"11","school":"sexto","test":{"fix_dur":[250,1500],"timestim":1000,"targets_dim":[100,100],"targets_relative_coord":[0.3,0.7],"size_stim":[880,420],"start_dim":[100,100],"size_start":[300,300],"size_fix":60,"samplingrate":20,"img_types":["Congruent","Incongruent"],"ratios":[100,200,300],"rep_conds":19,"nTrials":120,"trials_to_rest":500,"Trials_order":[91,111,82,53,55,92,2,30,99,115,95,5,46,109,32,10,81,26,9,90,113,48,104,50,87,19,18,75,20,110,107,56,42,41,24,80,12,7,52,79,94,28,33,44,74,13,85,11,21,98,51,73,117,47,15,112,3,84,4,1,108,43,17,64,69,23,38,22,106,83,58,60,35,105,8,67,71,0,40,118,59,78,102,16,6,68,76,114,116,36,25,65,77,119,45,89,54,31,14,88,70,62,34,97,93,66,86,101,72,96,29,37,61,100,103,27,49,63,57,39],"cond_shown":["Incongruent","Incongruent","Congruent","Incongruent","Incongruent","Congruent","Congruent","Congruent","Incongruent","Incongruent","Incongruent","Incongruent","Congruent","Incongruent","Congruent","Congruent","Incongruent","Congruent","Incongruent","Congruent","Incongruent","Congruent","Congruent","Congruent","Incongruent","Incongruent","Congruent","Incongruent","Congruent","Congruent","Incongruent","Congruent","Congruent","Incongruent","Congruent","Congruent","Congruent","Incongruent","Congruent","Incongruent","Congruent","Congruent","Incongruent","Congruent","Congruent","Incongruent","Incongruent","Incongruent","Incongruent","Congruent","Incongruent","Incongruent","Incongruent","Incongruent","Incongruent","Congruent","Incongruent","Congruent","Congruent","Incongruent","Congruent","Incongruent","Incongruent","Congruent","Incongruent","Incongruent","Congruent","Congruent","Congruent","Incongruent","Congruent","Congruent","Incongruent","Incongruent","Congruent","Incongruent","Incongruent","Congruent","Congruent","Congruent","Incongruent","Congruent","Congruent","Congruent","Congruent","Congruent","Congruent","Congruent","Congruent","Congruent","Incongruent","Incongruent","Incongruent","Incongruent","Incongruent","Incongruent","Congruent","Incongruent","Congruent","Congruent","Congruent","Congruent","Congruent","Incongruent","Incongruent","Congruent","Congruent","Incongruent","Congruent","Congruent","Incongruent","Incongruent","Incongruent","Congruent","Incongruent","Incongruent","Incongruent","Incongruent","Incongruent","Incongruent"],"ratio_trial":[100,200,300,300,100,200,200,100,200,100,300,300,300,100,200,300,200,200,200,100,300,100,200,200,200,100,100,200,200,200,300,200,100,300,100,200,100,100,300,100,300,300,200,200,200,100,100,300,200,200,200,100,200,300,200,300,200,100,300,100,100,100,300,300,200,300,200,300,300,300,300,100,300,200,200,100,300,100,300,300,300,100,100,300,100,200,300,100,200,100,100,300,300,300,200,300,100,100,200,300,300,200,300,100,200,100,200,300,100,100,300,100,100,300,100,200,100,200,200,200],"left_num":[3,1,11,4,2,5,6,1,6,6,7,2,5,3,13,3,14,9,3,8,13,11,6,3,1,11,1,1,4,7,4,11,15,13,9,12,8,11,24,1,2,1,6,6,13,13,6,4,1,15,7,6,7,4,9,8,7,11,3,6,15,3,4,4,4,13,3,24,11,2,20,6,4,7,5,2,1,3,1,3,4,12,6,11,11,6,4,11,13,8,12,13,13,4,7,8,1,4,5,20,18,1,20,12,7,6,5,13,1,8,13,13,13,20,11,7,6,14,4,6],"right_num":[4,3,4,8,8,14,11,3,3,13,8,6,6,11,14,4,6,13,1,2,12,4,7,14,2,9,3,3,3,18,2,3,13,12,8,6,2,9,8,8,12,11,3,7,14,6,11,2,2,4,6,11,12,6,8,10,12,6,4,7,13,8,2,2,6,12,14,8,1,6,5,5,2,14,14,6,3,2,6,11,2,13,15,2,4,7,1,6,14,2,2,12,12,2,14,14,3,8,14,13,9,21,9,9,6,15,14,12,18,2,12,12,6,8,9,4,11,12,6,3],"left_den":[6,2,22,5,4,10,20,2,20,10,10,4,25,5,26,6,30,30,10,16,26,22,12,10,3,22,2,2,10,15,20,22,25,26,15,15,16,22,30,2,10,5,20,12,26,26,10,20,3,25,15,10,10,5,15,15,10,22,6,10,25,5,20,5,5,26,10,30,22,4,25,20,20,10,10,4,2,6,5,12,20,30,12,22,22,12,10,22,26,16,30,26,26,20,10,10,2,8,10,25,20,2,25,24,15,12,10,26,2,16,26,26,26,25,22,15,10,30,5,20],"right_den":[10,10,20,16,20,20,22,5,6,26,20,30,12,22,20,5,9,26,2,5,15,10,10,28,15,15,5,10,15,27,4,10,26,15,16,10,5,15,16,20,24,22,6,10,20,10,22,4,15,10,9,22,24,12,10,12,24,15,5,14,26,16,4,4,10,15,28,16,5,30,10,25,4,28,20,15,15,5,12,20,4,26,25,10,10,10,10,15,20,5,4,15,15,4,28,28,5,20,20,26,15,30,18,15,9,25,20,15,30,5,15,20,10,16,15,6,22,18,10,6],"correct_side":[1,1,1,1,1,2,2,2,2,1,1,1,2,1,2,2,2,2,2,1,2,1,2,2,1,2,2,1,1,2,2,1,1,2,1,1,1,2,1,1,2,2,2,2,2,2,1,2,1,1,2,1,1,1,2,2,1,1,2,1,1,1,2,1,1,2,2,1,1,1,1,1,2,1,2,1,1,1,2,2,2,2,2,1,1,2,1,1,2,1,2,2,2,2,1,1,2,1,2,1,1,2,1,2,2,2,2,2,2,1,2,2,2,1,2,2,1,2,1,2],"img_shown":["img2/100/Incongruent/L/I_Dist_100_LN_3_LD_6_RN_4_RD_10_0.png","img2/200/Incongruent/L/I_Dist_200_LN_1_LD_2_RN_3_RD_10_0.png","img2/300/Congruent/L/C_Dist_300_LN_11_LD_22_RN_4_RD_20_0.png","img2/300/Incongruent/L/I_Dist_300_LN_4_LD_5_RN_8_RD_16_0.png","img2/100/Incongruent/L/I_Dist_100_LN_2_LD_4_RN_8_RD_20_0.png","img2/200/Congruent/R/C_Dist_200_LN_5_LD_10_RN_14_RD_20_1.png","img2/200/Congruent/R/C_Dist_200_LN_6_LD_20_RN_11_RD_22_1.png","img2/100/Congruent/R/C_Dist_100_LN_1_LD_2_RN_3_RD_5_1.png","img2/200/Incongruent/R/I_Dist_200_LN_6_LD_20_RN_3_RD_6_1.png","img2/100/Incongruent/L/I_Dist_100_LN_6_LD_10_RN_13_RD_26_0.png","img2/300/Incongruent/L/I_Dist_300_LN_7_LD_10_RN_8_RD_20_0.png","img2/300/Incongruent/L/I_Dist_300_LN_2_LD_4_RN_6_RD_30_0.png","img2/300/Congruent/R/C_Dist_300_LN_5_LD_25_RN_6_RD_12_1.png","img2/100/Incongruent/L/I_Dist_100_LN_3_LD_5_RN_11_RD_22_0.png","img2/200/Congruent/R/C_Dist_200_LN_13_LD_26_RN_14_RD_20_1.png","img2/300/Congruent/R/C_Dist_300_LN_3_LD_6_RN_4_RD_5_1.png","img2/200/Incongruent/R/I_Dist_200_LN_14_LD_30_RN_6_RD_9_1.png","img2/200/Congruent/R/C_Dist_200_LN_9_LD_30_RN_13_RD_26_1.png","img2/200/Incongruent/R/I_Dist_200_LN_3_LD_10_RN_1_RD_2_1.png","img2/100/Congruent/L/C_Dist_100_LN_8_LD_16_RN_2_RD_5_0.png","img2/300/Incongruent/R/I_Dist_300_LN_13_LD_26_RN_12_RD_15_1.png","img2/100/Congruent/L/C_Dist_100_LN_11_LD_22_RN_4_RD_10_0.png","img2/200/Congruent/R/C_Dist_200_LN_6_LD_12_RN_7_RD_10_1.png","img2/200/Congruent/R/C_Dist_200_LN_3_LD_10_RN_14_RD_28_1.png","img2/200/Incongruent/L/I_Dist_200_LN_1_LD_3_RN_2_RD_15_0.png","img2/100/Incongruent/R/I_Dist_100_LN_11_LD_22_RN_9_RD_15_1.png","img2/100/Congruent/R/C_Dist_100_LN_1_LD_2_RN_3_RD_5_1.png","img2/200/Incongruent/L/I_Dist_200_LN_1_LD_2_RN_3_RD_10_0.png","img2/200/Congruent/L/C_Dist_200_LN_4_LD_10_RN_3_RD_15_0.png","img2/200/Congruent/R/C_Dist_200_LN_7_LD_15_RN_18_RD_27_1.png","img2/300/Incongruent/R/I_Dist_300_LN_4_LD_20_RN_2_RD_4_1.png","img2/200/Congruent/L/C_Dist_200_LN_11_LD_22_RN_3_RD_10_0.png","img2/100/Congruent/L/C_Dist_100_LN_15_LD_25_RN_13_RD_26_0.png","img2/300/Incongruent/R/I_Dist_300_LN_13_LD_26_RN_12_RD_15_1.png","img2/100/Congruent/L/C_Dist_100_LN_9_LD_15_RN_8_RD_16_0.png","img2/200/Congruent/L/C_Dist_200_LN_12_LD_15_RN_6_RD_10_0.png","img2/100/Congruent/L/C_Dist_100_LN_8_LD_16_RN_2_RD_5_0.png","img2/100/Incongruent/R/I_Dist_100_LN_11_LD_22_RN_9_RD_15_1.png","img2/300/Congruent/L/C_Dist_300_LN_24_LD_30_RN_8_RD_16_0.png","img2/100/Incongruent/L/I_Dist_100_LN_1_LD_2_RN_8_RD_20_0.png","img2/300/Congruent/R/C_Dist_300_LN_2_LD_10_RN_12_RD_24_1.png","img2/300/Congruent/R/C_Dist_300_LN_1_LD_5_RN_11_RD_22_1.png","img2/200/Incongruent/R/I_Dist_200_LN_6_LD_20_RN_3_RD_6_1.png","img2/200/Congruent/R/C_Dist_200_LN_6_LD_12_RN_7_RD_10_1.png","img2/200/Congruent/R/C_Dist_200_LN_13_LD_26_RN_14_RD_20_1.png","img2/100/Incongruent/R/I_Dist_100_LN_13_LD_26_RN_6_RD_10_1.png","img2/100/Incongruent/L/I_Dist_100_LN_6_LD_10_RN_11_RD_22_0.png","img2/300/Incongruent/R/I_Dist_300_LN_4_LD_20_RN_2_RD_4_1.png","img2/200/Incongruent/L/I_Dist_200_LN_1_LD_3_RN_2_RD_15_0.png","img2/200/Congruent/L/C_Dist_200_LN_15_LD_25_RN_4_RD_10_0.png","img2/200/Incongruent/R/I_Dist_200_LN_7_LD_15_RN_6_RD_9_1.png","img2/100/Incongruent/L/I_Dist_100_LN_6_LD_10_RN_11_RD_22_0.png","img2/200/Incongruent/L/I_Dist_200_LN_7_LD_10_RN_12_RD_24_0.png","img2/300/Incongruent/L/I_Dist_300_LN_4_LD_5_RN_6_RD_12_0.png","img2/200/Incongruent/R/I_Dist_200_LN_9_LD_15_RN_8_RD_10_1.png","img2/300/Congruent/R/C_Dist_300_LN_8_LD_15_RN_10_RD_12_1.png","img2/200/Incongruent/L/I_Dist_200_LN_7_LD_10_RN_12_RD_24_0.png","img2/100/Congruent/L/C_Dist_100_LN_11_LD_22_RN_6_RD_15_0.png","img2/300/Congruent/R/C_Dist_300_LN_3_LD_6_RN_4_RD_5_1.png","img2/100/Incongruent/L/I_Dist_100_LN_6_LD_10_RN_7_RD_14_0.png","img2/100/Congruent/L/C_Dist_100_LN_15_LD_25_RN_13_RD_26_0.png","img2/100/Incongruent/L/I_Dist_100_LN_3_LD_5_RN_8_RD_16_0.png","img2/300/Incongruent/R/I_Dist_300_LN_4_LD_20_RN_2_RD_4_1.png","img2/300/Congruent/L/C_Dist_300_LN_4_LD_5_RN_2_RD_4_0.png","img2/200/Incongruent/L/I_Dist_200_LN_4_LD_5_RN_6_RD_10_0.png","img2/300/Incongruent/R/I_Dist_300_LN_13_LD_26_RN_12_RD_15_1.png","img2/200/Congruent/R/C_Dist_200_LN_3_LD_10_RN_14_RD_28_1.png","img2/300/Congruent/L/C_Dist_300_LN_24_LD_30_RN_8_RD_16_0.png","img2/300/Congruent/L/C_Dist_300_LN_11_LD_22_RN_1_RD_5_0.png","img2/300/Incongruent/L/I_Dist_300_LN_2_LD_4_RN_6_RD_30_0.png","img2/300/Congruent/L/C_Dist_300_LN_20_LD_25_RN_5_RD_10_0.png","img2/100/Congruent/L/C_Dist_100_LN_6_LD_20_RN_5_RD_25_0.png","img2/300/Incongruent/R/I_Dist_300_LN_4_LD_20_RN_2_RD_4_1.png","img2/200/Incongruent/L/I_Dist_200_LN_7_LD_10_RN_14_RD_28_0.png","img2/200/Congruent/R/C_Dist_200_LN_5_LD_10_RN_14_RD_20_1.png","img2/100/Incongruent/L/I_Dist_100_LN_2_LD_4_RN_6_RD_15_0.png","img2/300/Incongruent/L/I_Dist_300_LN_1_LD_2_RN_3_RD_15_0.png","img2/100/Congruent/L/C_Dist_100_LN_3_LD_6_RN_2_RD_5_0.png","img2/300/Congruent/R/C_Dist_300_LN_1_LD_5_RN_6_RD_12_1.png","img2/300/Congruent/R/C_Dist_300_LN_3_LD_12_RN_11_RD_20_1.png","img2/300/Incongruent/R/I_Dist_300_LN_4_LD_20_RN_2_RD_4_1.png","img2/100/Congruent/R/C_Dist_100_LN_12_LD_30_RN_13_RD_26_1.png","img2/100/Congruent/R/C_Dist_100_LN_6_LD_12_RN_15_RD_25_1.png","img2/300/Congruent/L/C_Dist_300_LN_11_LD_22_RN_2_RD_10_0.png","img2/100/Congruent/L/C_Dist_100_LN_11_LD_22_RN_4_RD_10_0.png","img2/200/Congruent/R/C_Dist_200_LN_6_LD_12_RN_7_RD_10_1.png","img2/300/Congruent/L/C_Dist_300_LN_4_LD_10_RN_1_RD_10_0.png","img2/100/Congruent/L/C_Dist_100_LN_11_LD_22_RN_6_RD_15_0.png","img2/200/Congruent/R/C_Dist_200_LN_13_LD_26_RN_14_RD_20_1.png","img2/100/Congruent/L/C_Dist_100_LN_8_LD_16_RN_2_RD_5_0.png","img2/100/Incongruent/R/I_Dist_100_LN_12_LD_30_RN_2_RD_4_1.png","img2/300/Incongruent/R/I_Dist_300_LN_13_LD_26_RN_12_RD_15_1.png","img2/300/Incongruent/R/I_Dist_300_LN_13_LD_26_RN_12_RD_15_1.png","img2/300/Incongruent/R/I_Dist_300_LN_4_LD_20_RN_2_RD_4_1.png","img2/200/Incongruent/L/I_Dist_200_LN_7_LD_10_RN_14_RD_28_0.png","img2/300/Incongruent/L/I_Dist_300_LN_8_LD_10_RN_14_RD_28_0.png","img2/100/Congruent/R/C_Dist_100_LN_1_LD_2_RN_3_RD_5_1.png","img2/100/Incongruent/L/I_Dist_100_LN_4_LD_8_RN_8_RD_20_0.png","img2/200/Congruent/R/C_Dist_200_LN_5_LD_10_RN_14_RD_20_1.png","img2/300/Congruent/L/C_Dist_300_LN_20_LD_25_RN_13_RD_26_0.png","img2/300/Congruent/L/C_Dist_300_LN_18_LD_20_RN_9_RD_15_0.png","img2/200/Congruent/R/C_Dist_200_LN_1_LD_2_RN_21_RD_30_1.png","img2/300/Congruent/L/C_Dist_300_LN_20_LD_25_RN_9_RD_18_0.png","img2/100/Incongruent/R/I_Dist_100_LN_12_LD_24_RN_9_RD_15_1.png","img2/200/Incongruent/R/I_Dist_200_LN_7_LD_15_RN_6_RD_9_1.png","img2/100/Congruent/R/C_Dist_100_LN_6_LD_12_RN_15_RD_25_1.png","img2/200/Congruent/R/C_Dist_200_LN_5_LD_10_RN_14_RD_20_1.png","img2/300/Incongruent/R/I_Dist_300_LN_13_LD_26_RN_12_RD_15_1.png","img2/100/Congruent/R/C_Dist_100_LN_1_LD_2_RN_18_RD_30_1.png","img2/100/Congruent/L/C_Dist_100_LN_8_LD_16_RN_2_RD_5_0.png","img2/300/Incongruent/R/I_Dist_300_LN_13_LD_26_RN_12_RD_15_1.png","img2/100/Incongruent/R/I_Dist_100_LN_13_LD_26_RN_12_RD_20_1.png","img2/100/Incongruent/R/I_Dist_100_LN_13_LD_26_RN_6_RD_10_1.png","img2/300/Congruent/L/C_Dist_300_LN_20_LD_25_RN_8_RD_16_0.png","img2/100/Incongruent/R/I_Dist_100_LN_11_LD_22_RN_9_RD_15_1.png","img2/200/Incongruent/R/I_Dist_200_LN_7_LD_15_RN_4_RD_6_1.png","img2/100/Incongruent/L/I_Dist_100_LN_6_LD_10_RN_11_RD_22_0.png","img2/200/Incongruent/R/I_Dist_200_LN_14_LD_30_RN_12_RD_18_1.png","img2/200/Incongruent/L/I_Dist_200_LN_4_LD_5_RN_6_RD_10_0.png","img2/200/Incongruent/R/I_Dist_200_LN_6_LD_20_RN_3_RD_6_1.png"],"dist100_C":[["C_Dist_100_LN_10_LD_25_RN_3_RD_10_0.png","C_Dist_100_LN_11_LD_22_RN_4_RD_10_0.png","C_Dist_100_LN_11_LD_22_RN_6_RD_15_0.png","C_Dist_100_LN_15_LD_25_RN_13_RD_26_0.png","C_Dist_100_LN_3_LD_6_RN_2_RD_5_0.png","C_Dist_100_LN_6_LD_20_RN_5_RD_25_0.png","C_Dist_100_LN_8_LD_16_RN_2_RD_5_0.png","C_Dist_100_LN_9_LD_15_RN_8_RD_16_0.png"],["C_Dist_100_LN_1_LD_2_RN_18_RD_30_1.png","C_Dist_100_LN_1_LD_2_RN_3_RD_5_1.png","C_Dist_100_LN_12_LD_30_RN_13_RD_26_1.png","C_Dist_100_LN_2_LD_5_RN_11_RD_22_1.png","C_Dist_100_LN_2_LD_5_RN_6_RD_12_1.png","C_Dist_100_LN_3_LD_20_RN_4_RD_16_1.png","C_Dist_100_LN_4_LD_10_RN_15_RD_30_1.png","C_Dist_100_LN_4_LD_8_RN_6_RD_10_1.png","C_Dist_100_LN_6_LD_12_RN_15_RD_25_1.png","C_Dist_100_LN_7_LD_14_RN_15_RD_25_1.png","C_Dist_100_LN_7_LD_14_RN_9_RD_15_1.png"]],"dist100_I":[["I_Dist_100_LN_1_LD_2_RN_8_RD_20_0.png","I_Dist_100_LN_2_LD_4_RN_6_RD_15_0.png","I_Dist_100_LN_2_LD_4_RN_8_RD_20_0.png","I_Dist_100_LN_3_LD_5_RN_11_RD_22_0.png","I_Dist_100_LN_3_LD_5_RN_8_RD_16_0.png","I_Dist_100_LN_3_LD_6_RN_4_RD_10_0.png","I_Dist_100_LN_3_LD_9_RN_7_RD_30_0.png","I_Dist_100_LN_4_LD_8_RN_8_RD_20_0.png","I_Dist_100_LN_6_LD_10_RN_11_RD_22_0.png","I_Dist_100_LN_6_LD_10_RN_13_RD_26_0.png","I_Dist_100_LN_6_LD_10_RN_7_RD_14_0.png","I_Dist_100_LN_9_LD_10_RN_20_RD_25_0.png","I_Dist_100_LN_9_LD_15_RN_13_RD_26_0.png","I_Dist_100_LN_9_LD_15_RN_14_RD_28_0.png"],["I_Dist_100_LN_10_LD_25_RN_8_RD_16_1.png","I_Dist_100_LN_10_LD_25_RN_9_RD_18_1.png","I_Dist_100_LN_11_LD_22_RN_9_RD_15_1.png","I_Dist_100_LN_12_LD_24_RN_9_RD_15_1.png","I_Dist_100_LN_12_LD_30_RN_2_RD_4_1.png","I_Dist_100_LN_13_LD_26_RN_12_RD_20_1.png","I_Dist_100_LN_13_LD_26_RN_6_RD_10_1.png","I_Dist_100_LN_17_LD_30_RN_10_RD_15_1.png","I_Dist_100_LN_6_LD_12_RN_3_RD_5_1.png","I_Dist_100_LN_8_LD_16_RN_6_RD_10_1.png","I_Dist_100_LN_8_LD_20_RN_1_RD_2_1.png","I_Dist_100_LN_9_LD_18_RN_6_RD_10_1.png"]],"dist100_S":[["E_Dist_100_LN_2_LD_12_RN_2_RD_30_0.png","E_Dist_100_LN_6_LD_10_RN_6_RD_12_0.png"],["E_Dist_100_LN_6_LD_12_RN_6_RD_10_1.png"]],"dist200_C":[["C_Dist_200_LN_11_LD_22_RN_3_RD_10_0.png","C_Dist_200_LN_12_LD_15_RN_6_RD_10_0.png","C_Dist_200_LN_12_LD_20_RN_6_RD_15_0.png","C_Dist_200_LN_14_LD_28_RN_6_RD_20_0.png","C_Dist_200_LN_15_LD_25_RN_4_RD_10_0.png","C_Dist_200_LN_16_LD_20_RN_12_RD_20_0.png","C_Dist_200_LN_16_LD_30_RN_9_RD_27_0.png","C_Dist_200_LN_20_LD_25_RN_9_RD_15_0.png","C_Dist_200_LN_21_LD_30_RN_2_RD_4_0.png","C_Dist_200_LN_4_LD_10_RN_3_RD_15_0.png","C_Dist_200_LN_4_LD_8_RN_3_RD_10_0.png","C_Dist_200_LN_6_LD_15_RN_3_RD_15_0.png","C_Dist_200_LN_7_LD_21_RN_2_RD_15_0.png","C_Dist_200_LN_8_LD_15_RN_2_RD_6_0.png","C_Dist_200_LN_8_LD_15_RN_3_RD_9_0.png","C_Dist_200_LN_8_LD_15_RN_7_RD_21_0.png","C_Dist_200_LN_9_LD_20_RN_4_RD_16_0.png"],["C_Dist_200_LN_1_LD_2_RN_21_RD_30_1.png","C_Dist_200_LN_13_LD_26_RN_14_RD_20_1.png","C_Dist_200_LN_3_LD_10_RN_11_RD_22_1.png","C_Dist_200_LN_3_LD_10_RN_14_RD_28_1.png","C_Dist_200_LN_3_LD_10_RN_7_RD_14_1.png","C_Dist_200_LN_3_LD_12_RN_9_RD_20_1.png","C_Dist_200_LN_3_LD_6_RN_14_RD_20_1.png","C_Dist_200_LN_5_LD_10_RN_14_RD_20_1.png","C_Dist_200_LN_6_LD_12_RN_7_RD_10_1.png","C_Dist_200_LN_6_LD_20_RN_11_RD_22_1.png","C_Dist_200_LN_7_LD_15_RN_18_RD_27_1.png","C_Dist_200_LN_9_LD_30_RN_13_RD_26_1.png"]],"dist200_I":[["I_Dist_200_LN_1_LD_2_RN_3_RD_10_0.png","I_Dist_200_LN_1_LD_3_RN_2_RD_15_0.png","I_Dist_200_LN_3_LD_4_RN_11_RD_20_0.png","I_Dist_200_LN_4_LD_5_RN_6_RD_10_0.png","I_Dist_200_LN_4_LD_6_RN_14_RD_30_0.png","I_Dist_200_LN_7_LD_10_RN_12_RD_24_0.png","I_Dist_200_LN_7_LD_10_RN_14_RD_28_0.png","I_Dist_200_LN_7_LD_10_RN_8_RD_16_0.png"],["I_Dist_200_LN_11_LD_20_RN_3_RD_4_1.png","I_Dist_200_LN_14_LD_30_RN_12_RD_18_1.png","I_Dist_200_LN_14_LD_30_RN_6_RD_9_1.png","I_Dist_200_LN_3_LD_10_RN_1_RD_2_1.png","I_Dist_200_LN_4_LD_30_RN_1_RD_3_1.png","I_Dist_200_LN_6_LD_20_RN_3_RD_6_1.png","I_Dist_200_LN_7_LD_15_RN_4_RD_6_1.png","I_Dist_200_LN_7_LD_15_RN_6_RD_9_1.png","I_Dist_200_LN_9_LD_15_RN_8_RD_10_1.png"]],"dist200_S":[["E_Dist_200_LN_3_LD_6_RN_3_RD_10_0.png"],["E_Dist_200_LN_3_LD_10_RN_3_RD_6_1.png"]],"dist300_C":[["C_Dist_300_LN_11_LD_22_RN_1_RD_5_0.png","C_Dist_300_LN_11_LD_22_RN_2_RD_10_0.png","C_Dist_300_LN_11_LD_22_RN_4_RD_20_0.png","C_Dist_300_LN_12_LD_24_RN_2_RD_10_0.png","C_Dist_300_LN_18_LD_20_RN_9_RD_15_0.png","C_Dist_300_LN_20_LD_25_RN_13_RD_26_0.png","C_Dist_300_LN_20_LD_25_RN_14_RD_28_0.png","C_Dist_300_LN_20_LD_25_RN_5_RD_10_0.png","C_Dist_300_LN_20_LD_25_RN_8_RD_16_0.png","C_Dist_300_LN_20_LD_25_RN_9_RD_18_0.png","C_Dist_300_LN_24_LD_30_RN_2_RD_4_0.png","C_Dist_300_LN_24_LD_30_RN_8_RD_16_0.png","C_Dist_300_LN_3_LD_6_RN_2_RD_10_0.png","C_Dist_300_LN_4_LD_10_RN_1_RD_10_0.png","C_Dist_300_LN_4_LD_5_RN_2_RD_4_0.png","C_Dist_300_LN_8_LD_16_RN_1_RD_5_0.png","C_Dist_300_LN_9_LD_10_RN_3_RD_5_0.png"],["C_Dist_300_LN_1_LD_20_RN_7_RD_20_1.png","C_Dist_300_LN_1_LD_3_RN_19_RD_30_1.png","C_Dist_300_LN_1_LD_30_RN_8_RD_24_1.png","C_Dist_300_LN_1_LD_5_RN_11_RD_22_1.png","C_Dist_300_LN_1_LD_5_RN_3_RD_6_1.png","C_Dist_300_LN_1_LD_5_RN_6_RD_12_1.png","C_Dist_300_LN_2_LD_10_RN_12_RD_24_1.png","C_Dist_300_LN_2_LD_20_RN_10_RD_25_1.png","C_Dist_300_LN_3_LD_12_RN_11_RD_20_1.png","C_Dist_300_LN_3_LD_6_RN_4_RD_5_1.png","C_Dist_300_LN_4_LD_20_RN_13_RD_26_1.png","C_Dist_300_LN_5_LD_25_RN_6_RD_12_1.png","C_Dist_300_LN_5_LD_25_RN_7_RD_14_1.png","C_Dist_300_LN_7_LD_14_RN_20_RD_25_1.png","C_Dist_300_LN_8_LD_15_RN_10_RD_12_1.png"]],"dist300_I":[["I_Dist_300_LN_1_LD_2_RN_2_RD_10_0.png","I_Dist_300_LN_1_LD_2_RN_3_RD_15_0.png","I_Dist_300_LN_2_LD_4_RN_6_RD_30_0.png","I_Dist_300_LN_3_LD_6_RN_4_RD_20_0.png","I_Dist_300_LN_4_LD_5_RN_6_RD_12_0.png","I_Dist_300_LN_4_LD_5_RN_8_RD_16_0.png","I_Dist_300_LN_7_LD_10_RN_8_RD_20_0.png","I_Dist_300_LN_8_LD_10_RN_14_RD_28_0.png","I_Dist_300_LN_8_LD_10_RN_9_RD_18_0.png"],["I_Dist_300_LN_13_LD_26_RN_12_RD_15_1.png","I_Dist_300_LN_4_LD_20_RN_2_RD_4_1.png"]],"dist300_S":[["E_Dist_300_LN_9_LD_12_RN_9_RD_20_0.png"],["E_Dist_300_LN_18_LD_30_RN_18_RD_20_1.png","E_Dist_300_LN_3_LD_10_RN_3_RD_5_1.png","E_Dist_300_LN_9_LD_20_RN_9_RD_12_1.png"]],"dist500_C":[["C_Dist_500_LN_10_LD_13_RN_7_RD_26_0.png","C_Dist_500_LN_10_LD_15_RN_4_RD_24_0.png","C_Dist_500_LN_12_LD_16_RN_3_RD_12_0.png","C_Dist_500_LN_12_LD_18_RN_4_RD_24_0.png","C_Dist_500_LN_15_LD_18_RN_5_RD_15_0.png","C_Dist_500_LN_15_LD_20_RN_1_RD_4_0.png","C_Dist_500_LN_18_LD_27_RN_1_RD_6_0.png","C_Dist_500_LN_20_LD_24_RN_1_RD_3_0.png","C_Dist_500_LN_20_LD_24_RN_3_RD_9_0.png","C_Dist_500_LN_20_LD_24_RN_7_RD_21_0.png","C_Dist_500_LN_20_LD_28_RN_3_RD_14_0.png","C_Dist_500_LN_21_LD_28_RN_6_RD_24_0.png","C_Dist_500_LN_22_LD_28_RN_2_RD_7_0.png","C_Dist_500_LN_25_LD_30_RN_9_RD_27_0.png","C_Dist_500_LN_4_LD_6_RN_1_RD_6_0.png","C_Dist_500_LN_5_LD_6_RN_2_RD_6_0.png","C_Dist_500_LN_6_LD_9_RN_1_RD_6_0.png","C_Dist_500_LN_7_LD_10_RN_1_RD_5_0.png","C_Dist_500_LN_8_LD_12_RN_1_RD_6_0.png","C_Dist_500_LN_8_LD_12_RN_4_RD_24_0.png"],["C_Dist_500_LN_1_LD_4_RN_12_RD_16_1.png","C_Dist_500_LN_1_LD_4_RN_9_RD_12_1.png","C_Dist_500_LN_1_LD_9_RN_11_RD_18_1.png","C_Dist_500_LN_10_LD_24_RN_22_RD_24_1.png","C_Dist_500_LN_2_LD_12_RN_10_RD_15_1.png","C_Dist_500_LN_2_LD_12_RN_12_RD_18_1.png","C_Dist_500_LN_2_LD_12_RN_4_RD_6_1.png","C_Dist_500_LN_2_LD_24_RN_7_RD_12_1.png","C_Dist_500_LN_2_LD_5_RN_18_RD_20_1.png","C_Dist_500_LN_2_LD_5_RN_9_RD_10_1.png","C_Dist_500_LN_2_LD_8_RN_12_RD_16_1.png","C_Dist_500_LN_2_LD_8_RN_21_RD_28_1.png","C_Dist_500_LN_3_LD_10_RN_4_RD_5_1.png","C_Dist_500_LN_3_LD_12_RN_15_RD_20_1.png","C_Dist_500_LN_3_LD_30_RN_6_RD_10_1.png","C_Dist_500_LN_3_LD_8_RN_14_RD_16_1.png","C_Dist_500_LN_4_LD_16_RN_15_RD_20_1.png","C_Dist_500_LN_4_LD_24_RN_12_RD_18_1.png","C_Dist_500_LN_5_LD_14_RN_6_RD_7_1.png","C_Dist_500_LN_7_LD_21_RN_20_RD_24_1.png","C_Dist_500_LN_7_LD_28_RN_12_RD_16_1.png","C_Dist_500_LN_7_LD_28_RN_9_RD_12_1.png","C_Dist_500_LN_9_LD_27_RN_20_RD_24_1.png"]],"dist500_I":[["I_Dist_500_LN_2_LD_3_RN_4_RD_24_0.png","I_Dist_500_LN_5_LD_6_RN_6_RD_18_0.png","I_Dist_500_LN_7_LD_8_RN_9_RD_24_0.png"],["I_Dist_500_LN_7_LD_21_RN_5_RD_6_1.png"]],"dist500_S":[["E_Dist_500_LN_6_LD_8_RN_6_RD_24_0.png"],["E_Dist_500_LN_2_LD_12_RN_2_RD_3_1.png","E_Dist_500_LN_6_LD_24_RN_6_RD_8_1.png"]]}},{"start_time":1551794168996,"click_time":1551794170665,"finger_time":1551794170286,"fix_duration":250,"trial":1,"RT":1290,"MT":379,"sideResp":2,"stimulus":[],"xmouse":[684,684,684,684,684,684,684,684,684,684,684,684,684,684,684,684,684,684,684,684,684,684,684,684,684,684,684,684,684,684,684,684,684,684,684,684,684,684,684,684,684,684,684,684,684,684,684,684,684,684,684,684,684,684,684,684,684,684,684,684,684,684,684,721,753,856,953,996,1081,1086,1087,1085,1082,1079,1078,1078,1077,1077,1075,1070,1060,1021,978,909],"ymouse":[467,467,467,467,467,467,467,467,467,467,467,467,467,467,467,467,467,467,467,467,467,467,467,467,467,467,467,467,467,467,467,467,467,467,467,467,467,467,467,467,467,467,467,467,467,467,467,467,467,467,467,467,467,467,467,467,467,467,467,467,467,467,468,450,432,380,336,311,235,223,202,181,171,166,164,164,164,164,164,161,156,140,121,82],"timestamp_mouse":[11,29,48,69,89,109,128,148,168,189,209,228,249,268,290,308,328,348,368,389,408,428,448,468,488,508,528,548,568,588,609,628,649,669,688,708,728,748,769,789,809,829,849,869,888,909,929,948,968,988,1008,1028,1049,1069,1088,1109,1128,1148,1169,1189,1209,1229,1250,1269,1290,1309,1329,1349,1369,1389,1409,1429,1450,1469,1490,1509,1528,1549,1569,1588,1609,1630,1649,1669],"xSR":624.5,"ySR":416,"xT1":354.7,"yT1":0,"xT2":894.3,"yT2":0,"toosoon":0,"cond_shown":"Incongruent","ratio_trial":200,"L_num":1,"L_den":2,"R_num":3,"R_den":10,"correct_side":1,"subjID":"valentinagomezvanegas","gender":"1","school":"sexto","age":"11"},{"start_time":1551794172880,"click_time":1551794174384,"finger_time":1551794174305,"fix_duration":772.8754308755242,"trial":2,"RT":1425,"MT":79,"sideResp":1,"stimulus":[],"xmouse":[683,683,683,683,683,683,683,683,683,683,683,683,683,683,683,683,683,683,683,683,683,683,683,683,683,683,683,683,683,683,683,683,683,683,683,683,683,683,683,683,683,683,683,683,683,683,683,683,683,683,683,683,683,683,683,683,683,683,683,683,683,683,683,683,683,683,683,683,683,683,677,636,608,441,402,370],"ymouse":[445,445,445,445,445,445,445,445,445,445,445,445,445,445,445,445,445,445,445,445,445,445,445,445,445,445,445,445,445,445,445,445,445,445,445,445,445,445,445,445,445,445,445,445,445,445,445,445,445,445,445,445,445,445,445,445,445,445,445,445,445,445,445,445,445,445,445,445,445,444,435,408,386,202,152,96],"timestamp_mouse":[13,24,45,64,84,104,124,145,165,185,205,226,245,265,285,305,325,345,364,385,404,424,444,464,484,504,524,544,565,586,605,625,645,665,684,704,724,745,764,785,806,825,845,865,884,904,925,946,965,984,1005,1024,1044,1064,1085,1105,1124,1145,1165,1184,1204,1224,1245,1265,1284,1304,1324,1344,1365,1384,1404,1425,1445,1464,1484,1504],"xSR":624.5,"ySR":416,"xT1":354.7,"yT1":0,"xT2":894.3,"yT2":0,"toosoon":0,"cond_shown":"Congruent","ratio_trial":300,"L_num":11,"L_den":22,"R_num":4,"R_den":20,"correct_side":1,"subjID":"valentinagomezvanegas","gender":"1","school":"sexto","age":"11"},{"start_time":1551794175685,"click_time":1551794177385,"finger_time":1551794177304,"fix_duration":319.554575942526,"trial":3,"RT":1619,"MT":81,"sideResp":1,"stimulus":[],"xmouse":[633,633,633,633,633,633,633,633,633,633,633,633,633,633,633,633,633,633,633,633,633,633,633,633,633,633,633,633,633,633,633,633,633,633,633,633,633,633,633,633,633,633,633,633,633,633,633,633,633,633,633,633,633,633,633,633,633,633,633,633,633,633,633,633,633,633,633,633,633,633,633,633,633,633,633,633,633,633,633,633,629,613,551,528,467,427],"ymouse":[468,468,468,468,468,468,468,468,468,468,468,468,468,468,468,468,468,468,468,468,468,468,468,468,468,468,468,468,468,468,468,468,468,468,468,468,468,468,468,468,468,468,468,468,468,468,468,468,468,468,468,468,468,468,468,468,468,468,468,468,468,468,468,468,468,468,468,468,468,468,468,468,468,468,468,468,468,468,468,468,445,411,290,250,163,98],"timestamp_mouse":[4,31,39,60,79,100,120,139,160,180,201,220,240,261,280,300,319,341,361,380,400,419,440,460,481,499,520,540,560,581,599,619,640,660,679,699,719,741,759,780,799,819,839,860,879,899,919,939,959,980,1000,1020,1039,1059,1079,1100,1119,1141,1160,1181,1201,1221,1240,1259,1280,1300,1319,1341,1360,1379,1400,1419,1440,1459,1480,1500,1520,1540,1561,1580,1600,1619,1639,1660,1680,1700],"xSR":624.5,"ySR":416,"xT1":354.7,"yT1":0,"xT2":894.3,"yT2":0,"toosoon":0,"cond_shown":"Incongruent","ratio_trial":300,"L_num":4,"L_den":5,"R_num":8,"R_den":16,"correct_side":1,"subjID":"valentinagomezvanegas","gender":"1","school":"sexto","age":"11"},{"start_time":1551794179363,"click_time":1551794181144,"finger_time":1551794180985,"fix_duration":1115.6385618024053,"trial":4,"RT":1622,"MT":159,"sideResp":2,"stimulus":[],"xmouse":[676,676,676,676,676,676,676,676,676,676,676,676,676,676,676,676,676,676,676,676,676,676,676,676,676,676,676,676,676,676,676,676,676,676,676,676,676,676,676,676,676,676,676,676,676,676,676,676,676,676,676,676,676,676,676,676,676,676,676,676,676,676,676,676,676,676,676,676,676,676,676,676,676,676,676,676,677,685,691,706,716,733,769,781,814,830,863,903,907,913],"ymouse":[478,478,478,478,478,478,478,478,478,478,478,478,478,478,478,478,478,478,478,478,478,478,478,478,478,478,478,478,478,478,478,478,478,478,478,478,478,478,478,478,478,478,478,478,478,478,478,478,478,478,478,478,478,478,478,478,478,478,478,478,478,478,478,478,478,478,478,478,478,478,478,478,478,478,478,478,477,467,461,449,442,430,402,392,354,329,256,140,122,92],"timestamp_mouse":[9,29,42,61,82,101,122,142,161,182,202,221,241,261,281,301,321,341,362,381,401,421,441,463,482,502,522,542,563,582,601,621,642,661,681,701,722,742,761,783,801,822,842,861,881,901,922,942,962,982,1001,1022,1041,1062,1081,1101,1123,1142,1162,1182,1201,1221,1241,1262,1282,1301,1321,1342,1363,1381,1401,1421,1441,1461,1481,1502,1521,1541,1562,1581,1601,1622,1642,1663,1682,1702,1722,1742,1762,1781],"xSR":624.5,"ySR":416,"xT1":354.7,"yT1":0,"xT2":894.3,"yT2":0,"toosoon":0,"cond_shown":"Incongruent","ratio_trial":100,"L_num":2,"L_den":4,"R_num":8,"R_den":20,"correct_side":1,"subjID":"valentinagomezvanegas","gender":"1","school":"sexto","age":"11"},{"start_time":1551794183736,"click_time":1551794185385,"finger_time":1551794185024,"fix_duration":848.8058020843467,"trial":5,"RT":1288,"MT":361,"sideResp":2,"stimulus":[],"xmouse":[687,687,687,687,687,687,687,687,687,687,687,687,687,687,687,687,687,687,687,687,687,687,687,687,687,687,687,687,687,687,687,687,687,687,687,687,687,687,687,687,687,687,687,687,687,687,687,687,687,687,687,687,687,687,687,687,687,687,687,687,687,687,687,687,692,692,716,743,764,789,798,809,825,827,833,842,846,863,867,875,883,888,907],"ymouse":[424,424,424,424,424,424,424,424,424,424,424,424,424,424,424,424,424,424,424,424,424,424,424,424,424,424,424,424,424,424,424,424,424,424,424,424,424,424,424,424,424,424,424,424,424,424,424,424,424,424,424,424,424,424,424,424,424,424,424,424,424,424,424,424,413,413,379,339,305,250,228,204,172,163,148,131,122,99,94,85,76,71,57],"timestamp_mouse":[11,38,48,68,88,108,129,149,168,188,208,229,249,269,289,309,330,348,369,389,410,429,449,470,488,508,528,548,569,588,608,628,648,668,688,708,728,748,768,788,808,828,848,868,888,908,928,948,969,988,1008,1028,1049,1070,1089,1109,1128,1148,1168,1189,1209,1229,1249,1268,1288,1309,1329,1348,1368,1389,1409,1429,1448,1469,1488,1508,1528,1548,1569,1589,1608,1628,1649],"xSR":624.5,"ySR":416,"xT1":354.7,"yT1":0,"xT2":894.3,"yT2":0,"toosoon":0,"cond_shown":"Congruent","ratio_trial":200,"L_num":5,"L_den":10,"R_num":14,"R_den":20,"correct_side":2,"subjID":"valentinagomezvanegas","gender":"1","school":"sexto","age":"11"},{"start_time":1551794187660,"click_time":1551794190085,"finger_time":1551794189904,"fix_duration":1394.395130162602,"trial":6,"RT":2244,"MT":181,"sideResp":2,"stimulus":[],"xmouse":[677,677,677,677,677,677,677,677,677,677,677,677,677,677,677,677,677,677,677,677,677,677,677,677,677,677,677,677,677,677,677,677,677,677,677,677,677,677,677,677,677,677,677,677,677,677,677,677,677,677,677,677,677,677,677,677,677,677,677,677,677,677,677,677,677,677,677,677,677,677,677,677,677,677,677,677,677,677,677,677,677,677,677,677,677,677,677,677,677,677,677,677,677,677,677,677,677,677,677,677,677,677,677,677,677,677,677,677,677,677,677,677,694,725,746,798,854,874,891,897,911,932],"ymouse":[429,429,429,429,429,429,429,429,429,429,429,429,429,429,429,429,429,429,429,429,429,429,429,429,429,429,429,429,429,429,429,429,429,429,429,429,429,429,429,429,429,429,429,429,429,429,429,429,429,429,429,429,429,429,429,429,429,429,429,429,429,429,429,429,429,429,429,429,429,429,429,429,429,429,429,429,429,429,429,429,429,429,429,429,429,429,429,429,429,429,429,429,429,429,429,429,429,429,429,429,429,429,429,429,429,429,429,429,429,429,429,429,406,376,355,304,241,210,172,155,118,61],"timestamp_mouse":[9,26,44,65,84,106,125,146,166,186,204,225,244,266,285,304,324,344,364,385,404,424,444,466,484,504,525,544,565,585,604,624,644,664,685,706,725,745,764,785,804,824,845,866,885,905,926,946,965,984,1004,1024,1046,1065,1084,1105,1126,1145,1164,1184,1204,1224,1244,1264,1284,1304,1324,1344,1365,1386,1405,1425,1445,1466,1484,1506,1525,1546,1565,1586,1604,1624,1645,1665,1686,1706,1725,1744,1764,1786,1805,1824,1845,1865,1886,1905,1926,1945,1965,1984,2006,2026,2045,2065,2085,2105,2124,2144,2165,2184,2205,2224,2244,2264,2285,2306,2324,2344,2365,2385,2405,2425],"xSR":624.5,"ySR":416,"xT1":354.7,"yT1":0,"xT2":894.3,"yT2":0,"toosoon":0,"cond_shown":"Congruent","ratio_trial":200,"L_num":6,"L_den":20,"R_num":11,"R_den":22,"correct_side":2,"subjID":"valentinagomezvanegas","gender":"1","school":"sexto","age":"11"},{"start_time":1551794192016,"click_time":1551794194604,"finger_time":1551794193465,"fix_duration":250,"trial":7,"RT":1449,"MT":1139,"sideResp":2,"stimulus":[],"xmouse":[664,665,665,665,665,665,665,665,665,665,665,665,665,665,665,665,665,665,665,665,665,665,665,665,665,665,665,665,665,665,665,665,665,665,665,665,665,665,665,665,665,665,665,665,665,665,665,665,665,665,665,665,665,665,665,665,665,665,665,665,665,665,665,665,665,665,665,665,670,670,673,679,683,688,691,698,709,716,725,730,741,755,817,850,862,865,868,871,872,872,872,872,872,869,857,854,852,852,852,852,852,852,854,857,858,859,859,859,859,859,859,859,859,859,859,859,859,859,860,860,860,860,860,860,860,860,860,865,877,915],"ymouse":[490,488,486,485,483,483,483,483,483,483,483,483,483,483,483,483,483,479,479,479,476,476,476,476,476,476,476,476,476,476,476,476,476,476,476,476,476,476,476,476,476,476,476,476,476,476,476,476,476,476,476,476,476,476,476,476,476,476,476,476,476,475,475,475,475,475,475,474,459,456,443,425,414,403,397,381,363,352,343,335,323,303,210,166,149,144,137,132,131,131,131,131,131,135,148,151,153,153,153,153,153,153,151,147,145,144,144,144,144,144,144,144,144,144,144,144,144,144,143,143,143,143,143,143,143,143,143,138,130,99],"timestamp_mouse":[11,36,48,68,90,109,128,148,168,188,208,228,249,268,289,308,328,349,369,389,409,430,448,469,489,508,528,548,568,588,609,628,648,668,688,708,728,748,768,788,809,829,849,869,888,908,928,948,969,989,1010,1029,1050,1069,1088,1108,1130,1148,1170,1188,1210,1228,1248,1269,1289,1309,1329,1348,1368,1388,1408,1429,1449,1469,1489,1510,1530,1549,1569,1588,1608,1628,1648,1670,1688,1708,1729,1748,1770,1789,1809,1829,1850,1868,1889,1908,1928,1948,1969,1989,2009,2030,2049,2069,2089,2109,2129,2149,2169,2188,2208,2229,2249,2270,2289,2309,2329,2348,2369,2389,2408,2429,2449,2470,2490,2508,2529,2550,2568,2588],"xSR":624.5,"ySR":416,"xT1":354.7,"yT1":0,"xT2":894.3,"yT2":0,"toosoon":0,"cond_shown":"Congruent","ratio_trial":100,"L_num":1,"L_den":2,"R_num":3,"R_den":5,"correct_side":2,"subjID":"valentinagomezvanegas","gender":"1","school":"sexto","age":"11"},{"start_time":1551794195811,"click_time":1551794201625,"finger_time":1551794198706,"fix_duration":385.39887788913563,"trial":8,"RT":2895,"MT":2919,"sideResp":1,"stimulus":[],"xmouse":[683,683,683,683,683,683,683,683,683,683,683,683,683,683,683,683,683,683,683,683,683,683,683,683,683,683,683,683,683,683,683,683,683,683,683,683,683,683,683,683,683,683,683,683,683,683,683,683,683,683,683,683,683,683,683,683,683,683,683,683,683,683,683,683,683,683,683,683,683,683,683,683,683,683,683,683,683,683,683,683,683,683,683,683,683,683,683,683,683,683,683,683,683,683,683,683,683,683,683,683,683,683,683,683,683,683,683,683,683,683,683,683,683,683,683,683,683,683,683,683,683,683,683,683,683,683,683,683,683,683,683,683,683,683,683,683,683,683,683,683,679,672,654,649,638,626,621,583,543,517,487,487,487,496,504,520,529,534,534,534,534,534,534,534,534,534,534,534,534,534,533,530,530,530,528,527,520,517,515,522,534,600,702,899,995,1020,1032,1032,1032,1009,978,876,775,623,567,557,554,554,554,554,554,554,554,554,554,548,528,517,517,517,517,517,517,517,517,517,517,517,517,517,517,517,517,524,524,524,524,549,632,596,457,262,182,63,23,22,22,22,20,5,0,0,0,0,0,0,0,2,11,26,61,92,105,117,125,127,129,130,135,153,165,173,181,185,210,214,222,229,231,234,242,257,276,283,291,296,297,298,301,309,317,318,323,324,328,331,337,347,350,352,356],"ymouse":[455,455,455,455,455,455,455,455,455,455,455,455,455,455,455,455,455,455,455,455,455,455,455,455,455,455,455,455,455,455,455,455,455,455,455,455,455,455,455,455,455,455,455,455,455,455,455,455,455,455,455,455,455,455,455,455,455,455,455,455,455,455,455,455,455,455,455,455,455,455,455,455,455,455,455,455,455,455,455,455,455,455,455,455,455,455,455,455,455,455,455,455,455,455,455,455,455,455,455,455,455,455,455,455,455,455,455,455,455,455,455,455,455,455,455,455,455,455,455,455,455,455,455,455,455,455,455,455,455,455,455,455,455,455,455,455,455,455,455,455,447,439,423,417,403,387,379,332,291,265,236,235,235,211,186,129,94,79,79,79,79,79,79,79,79,79,80,80,80,80,81,82,82,82,82,83,86,87,88,94,101,137,179,248,283,295,300,300,300,287,274,234,194,150,145,145,145,145,145,145,145,145,145,145,145,143,122,114,114,114,113,113,113,113,113,113,113,113,113,113,113,113,112,113,113,113,113,114,120,108,76,42,27,15,15,15,15,15,15,22,27,27,27,27,27,27,29,32,39,46,50,56,57,58,58,58,58,58,58,61,64,68,72,75,88,89,92,94,94,94,94,93,91,90,88,87,87,86,86,83,81,81,80,79,79,77,75,73,73,72,71],"timestamp_mouse":[13,36,55,74,94,114,134,154,174,195,214,233,254,274,293,313,333,354,373,393,415,433,453,474,493,514,533,553,574,593,613,633,654,675,694,713,735,754,774,794,813,834,854,874,894,913,933,955,974,995,1013,1034,1054,1073,1093,1114,1134,1153,1173,1195,1214,1233,1253,1274,1293,1313,1334,1353,1373,1393,1413,1434,1454,1474,1493,1513,1533,1554,1573,1593,1614,1634,1654,1675,1695,1714,1734,1755,1774,1793,1814,1834,1855,1875,1894,1915,1935,1954,1974,1994,2014,2033,2053,2073,2094,2113,2133,2153,2173,2193,2213,2235,2254,2274,2295,2313,2334,2354,2374,2394,2414,2434,2454,2474,2495,2514,2534,2555,2575,2593,2615,2634,2653,2673,2694,2713,2733,2754,2775,2793,2813,2834,2853,2873,2895,2913,2933,2953,2974,2993,3014,3033,3053,3074,3094,3113,3134,3154,3174,3193,3213,3233,3254,3274,3293,3314,3333,3354,3374,3394,3413,3433,3455,3474,3494,3513,3534,3553,3575,3593,3613,3633,3653,3673,3693,3713,3733,3753,3773,3794,3813,3833,3854,3874,3894,3913,3934,3953,3973,3994,4013,4034,4054,4074,4094,4114,4133,4155,4174,4195,4214,4234,4254,4273,4293,4321,4335,4354,4375,4394,4414,4434,4453,4473,4493,4513,4534,4554,4573,4593,4614,4635,4654,4674,4693,4713,4733,4753,4774,4793,4815,4835,4854,4873,4894,4913,4933,4954,4975,4994,5014,5034,5054,5074,5094,5113,5133,5155,5173,5194,5213,5234,5253,5274,5294,5313,5333,5353,5374,5394,5413,5433,5453,5473,5493,5513,5533,5553,5573,5594,5613,5633,5653,5673,5694,5713,5733,5753,5773,5794,5813],"xSR":624.5,"ySR":416,"xT1":354.7,"yT1":0,"xT2":894.3,"yT2":0,"toosoon":0,"cond_shown":"Incongruent","ratio_trial":200,"L_num":6,"L_den":20,"R_num":3,"R_den":6,"correct_side":2,"subjID":"valentinagomezvanegas","gender":"1","school":"sexto","age":"11"},{"start_time":1551794203712,"click_time":1551794206065,"finger_time":1551794205325,"fix_duration":686.0268378505593,"trial":9,"RT":1613,"MT":740,"sideResp":1,"stimulus":[],"xmouse":[677,677,677,677,677,677,677,677,677,677,677,677,677,677,677,677,677,677,677,677,677,677,677,677,677,677,677,677,677,677,677,677,677,677,677,677,677,677,677,677,677,677,677,677,677,677,677,677,677,677,677,677,677,677,677,677,677,677,677,677,677,677,677,677,677,677,677,677,677,677,677,677,677,677,677,677,677,677,677,677,653,622,613,602,599,598,587,575,529,462,401,335,312,288,279,270,266,264,261,260,260,260,262,263,266,274,287,301,303,314,319,319,319,321,323,338,345,357],"ymouse":[429,429,429,429,429,429,429,429,429,429,429,429,429,429,429,429,429,429,429,429,429,429,429,429,429,429,429,429,429,429,429,429,429,429,429,429,429,429,429,429,429,429,429,429,429,429,429,429,429,429,429,429,429,429,429,429,429,429,429,429,429,429,429,429,429,429,429,429,429,429,429,429,429,429,429,429,429,429,429,429,390,348,340,327,324,323,308,294,257,214,181,148,135,119,110,99,89,82,74,71,71,69,68,68,66,66,66,68,69,73,74,74,74,74,74,74,74,71],"timestamp_mouse":[12,32,54,72,93,112,133,153,172,193,214,233,253,273,292,312,333,354,372,392,412,433,452,473,493,513,532,552,572,592,613,633,653,672,692,713,733,753,772,793,813,833,853,872,893,912,934,952,972,992,1012,1032,1052,1072,1092,1113,1132,1152,1173,1193,1212,1232,1254,1273,1293,1313,1333,1352,1373,1394,1412,1432,1453,1472,1493,1513,1533,1552,1572,1593,1613,1633,1654,1673,1692,1713,1732,1753,1772,1792,1813,1833,1853,1873,1893,1912,1932,1953,1973,1992,2012,2032,2052,2073,2093,2112,2132,2152,2172,2192,2214,2234,2253,2272,2293,2312,2333,2353],"xSR":624.5,"ySR":416,"xT1":354.7,"yT1":0,"xT2":894.3,"yT2":0,"toosoon":0,"cond_shown":"Incongruent","ratio_trial":100,"L_num":6,"L_den":10,"R_num":13,"R_den":26,"correct_side":1,"subjID":"valentinagomezvanegas","gender":"1","school":"sexto","age":"11"},{"start_time":1551794208697,"click_time":1551794210686,"finger_time":1551794210324,"fix_duration":250,"trial":10,"RT":1627,"MT":362,"sideResp":1,"stimulus":[],"xmouse":[676,676,676,676,676,676,676,676,676,676,676,676,676,676,676,676,676,676,676,676,676,676,676,676,676,676,676,676,676,676,676,676,676,676,676,676,676,676,676,676,676,676,676,676,676,676,676,676,676,676,676,676,676,676,676,676,676,676,676,676,676,676,676,676,676,676,676,676,676,676,676,676,676,676,676,676,676,676,676,674,651,595,537,498,421,384,373,371,371,371,371,368,368,369,371,372,373,375,376,377],"ymouse":[508,508,508,508,508,508,508,508,508,508,508,508,508,508,508,508,508,508,508,508,508,508,508,508,508,508,508,508,508,508,508,508,508,508,508,508,508,508,508,508,508,508,508,508,508,508,508,508,508,508,508,508,508,508,508,508,508,508,508,508,508,508,508,508,508,508,508,508,508,508,508,508,508,508,508,508,508,508,508,505,484,417,335,291,210,173,158,151,150,147,140,127,121,118,114,113,111,107,104,95],"timestamp_mouse":[8,31,47,69,88,108,127,147,169,188,208,227,247,267,288,308,327,347,367,387,407,428,447,467,487,507,527,547,569,588,608,627,647,668,689,709,728,749,768,789,809,829,848,868,887,907,927,948,967,987,1007,1028,1048,1069,1088,1108,1128,1149,1167,1187,1208,1228,1248,1268,1288,1307,1327,1347,1367,1389,1408,1429,1447,1468,1489,1508,1527,1547,1567,1587,1608,1627,1647,1667,1688,1707,1727,1747,1767,1787,1807,1828,1849,1868,1889,1908,1927,1948,1968,1989],"xSR":624.5,"ySR":416,"xT1":354.7,"yT1":0,"xT2":894.3,"yT2":0,"toosoon":0,"cond_shown":"Incongruent","ratio_trial":300,"L_num":7,"L_den":10,"R_num":8,"R_den":20,"correct_side":1,"subjID":"valentinagomezvanegas","gender":"1","school":"sexto","age":"11"},{"start_time":1551794211998,"click_time":1551794214385,"finger_time":1551794213825,"fix_duration":452.1618056382398,"trial":11,"RT":1827,"MT":560,"sideResp":2,"stimulus":[],"xmouse":[644,644,644,644,644,644,644,644,644,644,644,644,644,644,644,644,644,644,644,644,644,644,644,644,644,644,644,644,644,644,644,644,644,644,644,644,644,644,644,644,644,644,644,644,644,644,644,644,644,644,644,644,644,644,644,644,644,644,644,644,644,644,644,644,644,644,644,644,644,644,644,644,644,644,644,644,644,644,644,644,644,644,644,644,644,644,644,655,666,696,719,735,761,782,810,819,819,819,816,809,808,806,802,796,792,783,780,779,779,783,787,789,793,795,798,801,804,820,860,906],"ymouse":[458,458,458,458,458,458,458,458,458,458,458,458,458,458,458,458,458,458,458,458,458,458,458,458,458,458,458,458,458,458,458,458,458,458,458,458,458,458,458,458,458,458,458,458,458,458,458,458,458,458,458,458,458,458,458,458,458,458,458,458,458,458,458,458,458,458,458,458,458,458,458,458,458,458,458,458,458,458,458,458,458,458,458,458,458,458,458,458,458,452,442,435,420,409,381,356,352,339,318,301,293,286,273,256,240,179,158,136,114,95,93,93,92,92,92,92,92,92,92,92],"timestamp_mouse":[13,31,47,66,87,107,127,146,166,187,208,227,247,267,288,307,327,348,366,386,406,427,446,466,486,506,526,546,567,586,606,627,647,667,688,706,728,747,767,787,807,828,846,866,887,906,926,947,967,987,1007,1027,1047,1067,1087,1107,1128,1147,1167,1186,1206,1226,1246,1266,1286,1306,1328,1347,1367,1388,1407,1428,1446,1466,1488,1508,1527,1547,1566,1586,1607,1627,1647,1666,1686,1707,1726,1747,1767,1786,1807,1827,1846,1867,1886,1906,1926,1946,1966,1986,2007,2026,2046,2068,2087,2107,2127,2147,2166,2187,2207,2227,2247,2268,2286,2307,2327,2347,2366,2386],"xSR":624.5,"ySR":416,"xT1":354.7,"yT1":0,"xT2":894.3,"yT2":0,"toosoon":0,"cond_shown":"Incongruent","ratio_trial":300,"L_num":2,"L_den":4,"R_num":6,"R_den":30,"correct_side":1,"subjID":"valentinagomezvanegas","gender":"1","school":"sexto","age":"11"},{"start_time":1551794216360,"click_time":1551794220305,"finger_time":1551794217786,"fix_duration":754.2049650265953,"trial":12,"RT":1426,"MT":2519,"sideResp":2,"stimulus":[],"xmouse":[644,644,644,644,644,644,644,644,644,644,644,644,644,644,644,644,644,644,644,644,644,644,644,644,644,644,644,644,644,644,644,644,644,644,644,644,644,644,644,644,644,644,644,644,644,644,644,644,644,644,644,644,644,644,644,644,644,644,644,644,644,644,644,644,644,644,644,644,644,648,653,657,657,659,670,710,745,758,792,818,831,851,870,886,903,943,963,971,975,975,975,975,974,972,970,969,967,966,965,965,964,962,962,961,960,960,956,951,947,915,842,669,547,493,402,402,402,402,402,402,411,618,736,779,840,873,880,868,858,854,850,842,842,842,842,842,842,842,849,853,864,880,909,911,911,911,911,911,911,911,911,911,911,911,911,911,911,911,911,910,909,907,907,907,905,903,900,896,895,895,895,895,895,895,893,893,890,879,859,829,809,749,648,477,342,264,175,175,175,175,175,175,175,131,340,634,810,992],"ymouse":[448,448,448,448,448,448,448,448,448,448,448,448,448,448,448,448,448,448,448,448,448,448,448,448,448,448,448,448,448,448,448,448,448,448,448,448,448,448,448,448,448,448,448,448,448,448,448,448,448,448,448,448,448,448,448,448,448,448,448,448,448,448,448,448,448,448,448,448,448,438,425,401,398,395,379,327,296,283,247,218,191,152,122,119,119,124,127,128,129,129,129,129,129,129,129,129,129,129,129,128,128,128,128,128,128,128,128,128,129,149,200,341,461,519,636,636,636,636,636,636,636,499,402,357,273,212,164,145,133,127,121,105,105,105,105,105,105,105,105,105,105,107,112,112,112,112,112,112,112,112,112,112,112,112,112,112,112,112,112,112,112,111,111,111,111,111,111,110,110,110,110,110,110,110,110,110,110,113,122,141,155,201,273,402,517,573,630,630,630,630,630,630,630,579,405,214,123,34],"timestamp_mouse":[8,29,45,65,85,104,125,144,166,186,205,225,244,264,285,304,324,346,365,384,405,425,444,466,485,505,524,546,566,584,605,626,646,665,685,704,724,745,764,784,805,825,846,864,884,905,925,944,964,984,1004,1025,1045,1064,1084,1104,1126,1146,1164,1184,1206,1225,1244,1264,1284,1305,1324,1344,1364,1386,1405,1426,1445,1465,1484,1504,1524,1544,1564,1585,1605,1625,1644,1666,1685,1705,1725,1745,1765,1785,1804,1825,1845,1866,1885,1905,1925,1946,1966,1986,2005,2024,2045,2065,2085,2106,2124,2144,2165,2185,2205,2225,2245,2265,2285,2304,2326,2344,2364,2385,2406,2424,2445,2464,2484,2504,2524,2545,2565,2584,2605,2625,2644,2664,2684,2705,2725,2744,2764,2785,2805,2824,2845,2864,2884,2905,2926,2944,2964,2985,3005,3024,3044,3065,3085,3106,3125,3144,3165,3185,3205,3225,3246,3265,3284,3304,3325,3344,3364,3385,3404,3425,3445,3465,3486,3504,3524,3545,3564,3584,3604,3626,3645,3665,3685,3705,3725,3745,3768,3785,3805,3825,3846,3865,3885,3905,3925,3945],"xSR":624.5,"ySR":416,"xT1":354.7,"yT1":0,"xT2":894.3,"yT2":0,"toosoon":0,"cond_shown":"Congruent","ratio_trial":300,"L_num":5,"L_den":25,"R_num":6,"R_den":12,"correct_side":2,"subjID":"valentinagomezvanegas","gender":"1","school":"sexto","age":"11"},{"start_time":1551794221936,"click_time":1551794223485,"finger_time":1551794223305,"fix_duration":250,"trial":13,"RT":1369,"MT":180,"sideResp":1,"stimulus":[],"xmouse":[714,714,714,714,714,714,714,714,714,714,714,714,714,714,714,714,714,714,714,714,714,714,714,714,714,714,714,714,714,714,714,714,714,714,714,714,714,714,714,714,714,714,714,714,714,714,714,714,714,714,714,714,714,714,714,714,714,714,714,714,714,714,714,714,714,714,714,690,653,617,600,559,532,529,526,517,498,442],"ymouse":[464,464,464,464,464,464,464,464,464,464,464,464,464,464,464,464,464,464,464,464,464,464,464,464,464,464,464,464,464,464,464,464,464,464,464,464,464,464,464,464,464,464,464,464,464,464,464,464,464,464,464,464,464,464,464,464,464,464,464,464,464,464,464,464,464,464,461,435,406,380,365,336,319,313,303,268,200,82],"timestamp_mouse":[14,28,49,68,89,110,128,149,168,190,208,228,248,270,290,309,330,349,368,388,409,429,448,468,488,508,528,550,569,588,608,629,649,669,689,709,730,749,769,790,808,828,848,868,890,910,928,948,968,989,1010,1029,1049,1068,1089,1109,1128,1148,1170,1188,1210,1229,1249,1269,1288,1308,1328,1348,1368,1389,1408,1429,1448,1468,1489,1508,1528,1549],"xSR":624.5,"ySR":416,"xT1":354.7,"yT1":0,"xT2":894.3,"yT2":0,"toosoon":0,"cond_shown":"Incongruent","ratio_trial":100,"L_num":3,"L_den":5,"R_num":11,"R_den":22,"correct_side":1,"subjID":"valentinagomezvanegas","gender":"1","school":"sexto","age":"11"},{"start_time":1551794225094,"click_time":1551794226826,"finger_time":1551794226425,"fix_duration":547.0218370601818,"trial":14,"RT":1331,"MT":401,"sideResp":2,"stimulus":[],"xmouse":[663,663,663,663,663,663,663,663,663,663,663,663,663,663,663,663,663,663,663,663,663,663,663,663,663,663,663,663,663,663,663,663,663,663,663,663,663,663,663,663,663,663,663,663,663,663,663,663,663,663,663,663,663,663,663,663,663,663,663,663,663,663,663,663,664,673,687,742,757,784,803,813,837,838,842,846,846,846,846,846,846,846,846,846,846,846,903],"ymouse":[432,432,432,432,432,432,432,432,432,432,432,432,432,432,432,432,432,432,432,432,432,432,432,432,432,432,432,432,432,432,432,432,432,432,432,432,432,432,432,432,432,432,432,432,432,432,432,432,432,432,432,432,432,432,432,432,432,432,432,432,432,432,432,432,432,424,403,332,306,249,203,180,60,40,16,5,5,5,5,5,5,5,5,5,5,5,8],"timestamp_mouse":[11,30,51,71,90,111,131,152,172,190,210,232,251,270,292,311,331,352,371,391,411,432,451,471,491,510,532,551,572,591,611,631,651,671,691,711,731,751,771,791,811,831,850,871,891,911,931,952,971,992,1011,1031,1052,1070,1090,1111,1131,1151,1171,1191,1212,1231,1251,1271,1291,1311,1331,1351,1371,1392,1412,1432,1451,1470,1492,1511,1531,1552,1571,1592,1612,1631,1652,1672,1691,1711,1732],"xSR":624.5,"ySR":416,"xT1":354.7,"yT1":0,"xT2":894.3,"yT2":0,"toosoon":0,"cond_shown":"Congruent","ratio_trial":200,"L_num":13,"L_den":26,"R_num":14,"R_den":20,"correct_side":2,"subjID":"valentinagomezvanegas","gender":"1","school":"sexto","age":"11"},{"start_time":1551794230849,"click_time":1551794232805,"finger_time":1551794232226,"fix_duration":1143.303715283903,"trial":15,"RT":1377,"MT":579,"sideResp":2,"stimulus":[],"xmouse":[652,652,652,652,652,652,652,652,652,652,652,652,652,652,652,652,652,652,652,652,652,652,652,652,652,652,652,652,652,652,652,652,652,652,652,652,652,652,652,652,652,652,652,652,652,652,652,652,652,652,652,652,652,652,652,652,652,652,652,652,652,652,652,653,656,660,684,703,718,725,739,783,811,829,836,847,864,874,885,902,941,981,998,1014,1024,1029,1034,1033,1028,1028,1028,1028,1028,1028,1028,1028,1028,979],"ymouse":[452,452,452,452,452,452,452,452,452,452,452,452,452,452,452,452,452,452,452,452,452,452,452,452,452,452,452,452,452,452,452,452,452,452,452,452,452,452,452,452,452,452,452,452,452,452,452,452,452,452,452,452,452,452,452,452,452,452,452,452,452,452,452,452,452,452,435,420,404,395,372,322,298,288,282,274,257,245,231,212,178,146,134,120,101,85,32,23,1,1,1,1,1,1,1,1,1,5],"timestamp_mouse":[16,37,56,76,96,116,136,157,176,196,217,236,255,277,296,316,335,355,377,396,416,435,456,476,496,516,537,556,577,596,617,636,656,676,696,715,737,756,776,797,816,837,856,876,895,916,937,956,975,996,1017,1035,1055,1075,1096,1115,1135,1156,1176,1196,1217,1236,1256,1276,1295,1316,1336,1356,1377,1396,1416,1437,1456,1476,1496,1516,1536,1555,1577,1597,1617,1635,1656,1676,1697,1716,1736,1757,1777,1795,1816,1835,1857,1877,1896,1915,1936,1956],"xSR":624.5,"ySR":416,"xT1":354.7,"yT1":0,"xT2":894.3,"yT2":0,"toosoon":0,"cond_shown":"Congruent","ratio_trial":300,"L_num":3,"L_den":6,"R_num":4,"R_den":5,"correct_side":2,"subjID":"valentinagomezvanegas","gender":"1","school":"sexto","age":"11"},{"start_time":1551794235051,"click_time":1551794236825,"finger_time":1551794236585,"fix_duration":1324.8450379573255,"trial":16,"RT":1534,"MT":240,"sideResp":2,"stimulus":[],"xmouse":[682,682,682,682,682,682,682,682,682,682,682,682,682,682,682,682,682,682,682,682,682,682,682,682,682,682,682,682,682,682,682,682,682,682,682,682,682,682,682,682,682,682,682,682,682,682,682,682,682,682,682,682,682,682,682,682,682,682,682,682,682,682,682,682,682,682,682,682,682,682,682,682,682,682,696,717,749,770,804,830,862,887,902,914,924,941,958,963,972],"ymouse":[447,447,447,447,447,447,447,447,447,447,447,447,447,447,447,447,447,447,447,447,447,447,447,447,447,447,447,447,447,447,447,447,447,447,447,447,447,447,447,447,447,447,447,447,447,447,447,447,447,447,447,447,447,447,447,447,447,447,447,447,447,447,447,447,447,447,447,447,447,447,447,447,447,447,441,419,383,362,325,293,254,230,218,205,190,160,122,110,90],"timestamp_mouse":[13,35,54,74,93,114,134,155,174,195,214,234,255,275,295,315,333,355,373,394,414,434,454,474,494,514,534,554,575,594,615,633,654,674,693,714,735,755,775,794,814,834,854,874,894,914,935,955,974,994,1014,1035,1055,1073,1094,1114,1133,1155,1173,1194,1214,1233,1255,1274,1294,1314,1334,1354,1374,1394,1414,1435,1454,1474,1494,1514,1534,1554,1574,1594,1613,1634,1655,1674,1695,1714,1733,1754,1774],"xSR":624.5,"ySR":416,"xT1":354.7,"yT1":0,"xT2":894.3,"yT2":0,"toosoon":0,"cond_shown":"Incongruent","ratio_trial":200,"L_num":14,"L_den":30,"R_num":6,"R_den":9,"correct_side":2,"subjID":"valentinagomezvanegas","gender":"1","school":"sexto","age":"11"},{"start_time":1551794238544,"click_time":1551794240365,"finger_time":1551794240245,"fix_duration":957.6252417783886,"trial":17,"RT":1701,"MT":120,"sideResp":2,"stimulus":[],"xmouse":[682,682,682,682,682,682,682,682,682,682,682,682,682,682,682,682,682,682,682,682,682,682,682,682,682,682,682,682,682,682,682,682,682,682,682,682,682,682,682,682,682,682,682,682,682,682,682,682,682,682,682,682,682,682,682,682,682,682,682,682,682,682,682,682,682,682,682,682,682,683,685,685,685,685,685,685,685,685,685,685,685,685,687,692,700,730,739,774,822,843,934,945],"ymouse":[455,455,455,455,455,455,455,455,455,455,455,455,455,455,455,455,455,455,455,455,455,455,455,455,455,455,455,455,455,455,455,455,455,455,455,455,455,455,455,455,455,455,455,455,455,455,455,455,455,455,455,455,455,455,455,455,455,455,455,455,455,455,455,455,455,455,455,455,455,455,455,455,455,455,455,455,455,455,455,455,455,455,455,455,450,397,378,329,261,228,107,93],"timestamp_mouse":[7,25,41,61,80,102,122,142,160,180,200,221,242,260,280,300,321,341,361,381,401,421,441,461,481,501,521,541,561,580,600,620,641,661,681,701,721,741,761,781,802,820,842,861,881,902,922,941,962,981,1000,1021,1042,1062,1081,1101,1122,1141,1160,1181,1200,1220,1241,1260,1281,1301,1321,1341,1361,1381,1401,1422,1441,1460,1480,1502,1522,1541,1561,1581,1601,1621,1641,1661,1682,1701,1721,1742,1762,1781,1801,1821],"xSR":624.5,"ySR":416,"xT1":354.7,"yT1":0,"xT2":894.3,"yT2":0,"toosoon":0,"cond_shown":"Congruent","ratio_trial":200,"L_num":9,"L_den":30,"R_num":13,"R_den":26,"correct_side":2,"subjID":"valentinagomezvanegas","gender":"1","school":"sexto","age":"11"},{"start_time":1551794242662,"click_time":1551794244665,"finger_time":1551794243605,"fix_duration":1395.4635295282656,"trial":18,"RT":943,"MT":1060,"sideResp":2,"stimulus":[],"xmouse":[690,690,690,690,690,690,690,690,690,690,690,690,690,690,690,690,690,690,690,690,690,690,690,690,690,690,690,690,690,690,690,690,690,690,690,690,690,690,690,690,690,690,688,670,661,647,625,608,563,552,530,511,505,503,503,503,502,500,484,477,474,471,469,469,469,469,469,469,469,469,473,489,503,522,533,539,554,559,592,628,654,679,705,739,764,784,794,809,827,835,840,843,848,862,873,880,882,886,891,892,896],"ymouse":[444,444,444,444,444,444,444,444,444,444,444,444,444,444,444,444,444,444,444,444,444,444,444,444,444,444,444,444,444,444,444,444,444,444,444,444,444,444,444,444,444,444,445,440,437,430,420,413,383,375,360,347,344,342,342,342,341,338,313,299,289,276,265,260,260,260,260,260,260,260,265,285,304,320,330,334,340,342,342,342,342,333,322,298,276,257,247,229,198,176,161,155,142,113,92,82,82,80,79,78,78],"timestamp_mouse":[11,36,43,64,83,102,122,143,163,182,202,223,243,263,282,304,323,343,363,383,404,423,443,463,482,502,524,543,562,584,603,623,642,662,683,703,724,742,763,783,803,822,843,863,883,903,924,943,963,983,1003,1023,1043,1063,1083,1103,1123,1143,1163,1184,1203,1223,1243,1263,1283,1304,1323,1343,1364,1384,1402,1424,1443,1463,1484,1502,1524,1543,1563,1584,1604,1623,1643,1663,1684,1702,1723,1743,1763,1783,1803,1822,1843,1863,1882,1903,1924,1943,1964,1983,2003],"xSR":624.5,"ySR":416,"xT1":354.7,"yT1":0,"xT2":894.3,"yT2":0,"toosoon":0,"cond_shown":"Incongruent","ratio_trial":200,"L_num":3,"L_den":10,"R_num":1,"R_den":2,"correct_side":2,"subjID":"valentinagomezvanegas","gender":"1","school":"sexto","age":"11"},{"start_time":1551794246401,"click_time":1551794248245,"finger_time":1551794248104,"fix_duration":694.5944869992652,"trial":19,"RT":1703,"MT":141,"sideResp":1,"stimulus":[],"xmouse":[648,648,648,648,648,648,648,648,648,648,648,648,648,648,648,648,648,648,648,648,648,648,648,648,648,648,648,648,648,648,648,648,648,648,648,648,648,648,648,648,648,648,648,648,648,648,648,648,648,648,648,648,648,648,648,648,648,648,648,648,648,648,648,648,648,648,648,648,648,648,648,648,648,648,648,648,648,648,648,648,648,648,648,643,635,592,576,546,512,496,447,436,425],"ymouse":[441,441,441,441,441,441,441,441,441,441,441,441,441,441,441,441,441,441,441,441,441,441,441,441,441,441,441,441,441,441,441,441,441,441,441,441,441,441,441,441,441,441,441,441,441,441,441,441,441,441,441,441,441,441,441,441,441,441,441,441,441,441,441,441,441,441,441,441,441,441,441,441,441,441,441,441,441,441,441,441,441,441,441,434,424,356,334,288,234,212,132,115,94],"timestamp_mouse":[10,24,44,64,83,104,125,145,165,183,204,224,243,263,283,304,324,344,364,384,404,424,444,463,483,505,523,545,564,584,605,624,645,665,684,705,724,744,764,784,804,824,843,863,883,905,924,945,964,984,1003,1024,1044,1065,1084,1104,1124,1143,1163,1185,1204,1224,1244,1264,1283,1304,1324,1345,1364,1384,1403,1423,1444,1464,1484,1504,1524,1544,1563,1583,1604,1624,1643,1665,1684,1703,1723,1743,1764,1784,1804,1823,1844],"xSR":624.5,"ySR":416,"xT1":354.7,"yT1":0,"xT2":894.3,"yT2":0,"toosoon":0,"cond_shown":"Congruent","ratio_trial":100,"L_num":8,"L_den":16,"R_num":2,"R_den":5,"correct_side":1,"subjID":"valentinagomezvanegas","gender":"1","school":"sexto","age":"11"},{"start_time":1551794249476,"click_time":1551794251225,"finger_time":1551794250865,"fix_duration":250,"trial":20,"RT":1389,"MT":360,"sideResp":2,"stimulus":[],"xmouse":[646,646,646,646,646,646,646,646,646,646,646,646,646,646,646,646,646,646,646,646,646,646,646,646,646,646,646,646,646,646,646,646,646,646,646,646,646,646,646,646,646,646,646,646,646,646,646,646,646,646,646,646,646,646,646,646,646,646,646,646,646,646,646,646,646,646,646,647,653,663,677,687,707,725,749,766,773,786,801,822,830,833,840,853,874,885,893,897],"ymouse":[427,427,427,427,427,427,427,427,427,427,427,427,427,427,427,427,427,427,427,427,427,427,427,427,427,427,427,427,427,427,427,427,427,427,427,427,427,427,427,427,427,427,427,427,427,427,427,427,427,427,427,427,427,427,427,427,427,427,427,427,427,427,427,427,427,427,427,427,421,408,389,376,357,343,325,309,300,280,256,221,202,196,185,166,122,94,75,67],"timestamp_mouse":[11,30,49,69,89,109,128,148,170,188,209,230,248,268,289,310,329,349,369,389,409,429,449,469,489,508,528,549,569,590,609,629,649,668,692,709,729,750,769,789,809,830,849,869,889,909,929,950,970,989,1009,1029,1049,1070,1089,1109,1129,1149,1169,1189,1209,1229,1249,1269,1289,1309,1329,1349,1370,1389,1410,1429,1450,1469,1488,1508,1529,1548,1569,1588,1609,1629,1649,1670,1689,1709,1729,1749],"xSR":624.5,"ySR":416,"xT1":354.7,"yT1":0,"xT2":894.3,"yT2":0,"toosoon":0,"cond_shown":"Incongruent","ratio_trial":300,"L_num":13,"L_den":26,"R_num":12,"R_den":15,"correct_side":2,"subjID":"valentinagomezvanegas","gender":"1","school":"sexto","age":"11"},{"start_time":1551794253484,"click_time":1551794255946,"finger_time":1551794255146,"fix_duration":1058.5879486451583,"trial":21,"RT":1662,"MT":800,"sideResp":1,"stimulus":[],"xmouse":[674,674,674,674,674,674,674,674,674,674,674,674,674,674,674,674,674,674,674,674,674,674,674,674,674,674,674,674,674,674,674,674,674,674,674,674,674,674,674,674,674,674,674,674,674,674,674,674,674,674,674,674,674,674,674,674,674,674,674,674,674,674,674,674,674,674,674,675,676,676,676,676,676,676,676,676,679,680,683,692,698,700,702,726,735,753,768,777,777,787,788,788,788,788,788,788,788,788,787,773,766,756,749,746,721,713,686,648,625,576,568,553,547,546,542,537,520,500,492,470,467,464,454,437],"ymouse":[475,475,475,475,475,475,475,475,475,475,475,475,475,475,475,475,475,475,475,475,475,475,475,475,475,475,475,475,475,475,475,475,475,475,475,475,475,475,475,475,475,475,475,475,475,475,475,475,475,475,475,475,475,475,475,475,475,475,475,475,475,475,475,475,475,475,475,475,475,475,475,475,475,475,475,475,474,474,469,449,436,431,428,394,384,364,346,332,330,318,316,316,316,316,316,316,316,316,316,318,320,323,323,323,312,308,296,279,270,253,251,245,244,244,241,235,207,168,158,134,131,128,115,84],"timestamp_mouse":[9,21,41,61,81,102,121,141,161,181,200,220,241,261,281,301,321,341,361,381,401,421,441,462,481,500,520,541,562,581,601,620,641,661,681,701,721,740,760,781,800,821,841,862,881,902,921,941,961,981,1001,1021,1041,1060,1081,1101,1121,1141,1160,1181,1201,1221,1241,1260,1282,1301,1321,1340,1361,1382,1400,1420,1441,1462,1482,1501,1521,1541,1561,1582,1600,1620,1642,1662,1680,1700,1721,1740,1762,1780,1800,1820,1841,1861,1881,1902,1921,1941,1961,1981,2000,2021,2040,2060,2081,2101,2121,2142,2161,2181,2200,2220,2241,2260,2281,2302,2321,2341,2362,2381,2401,2422,2440,2462],"xSR":624.5,"ySR":416,"xT1":354.7,"yT1":0,"xT2":894.3,"yT2":0,"toosoon":0,"cond_shown":"Congruent","ratio_trial":100,"L_num":11,"L_den":22,"R_num":4,"R_den":10,"correct_side":1,"subjID":"valentinagomezvanegas","gender":"1","school":"sexto","age":"11"},{"start_time":1551794257493,"click_time":1551794259245,"finger_time":1551794258966,"fix_duration":807.7256283307772,"trial":22,"RT":1473,"MT":279,"sideResp":2,"stimulus":[],"xmouse":[708,708,708,708,708,708,708,708,708,708,708,708,708,708,708,708,708,708,708,708,708,708,708,708,708,708,708,708,708,708,708,708,708,708,708,708,708,708,708,708,708,708,708,708,708,708,708,708,708,708,708,708,708,708,708,708,708,708,708,708,708,708,708,708,708,708,708,708,708,708,708,708,718,740,752,784,804,828,843,850,864,873,885,892,904,913,923,927],"ymouse":[460,460,460,460,460,460,460,460,460,460,460,460,460,460,460,460,460,460,460,460,460,460,460,460,460,460,460,460,460,460,460,460,460,460,460,460,460,460,460,460,460,460,460,460,460,460,460,460,460,460,460,460,460,460,460,460,460,460,460,460,460,460,460,460,460,460,460,460,460,460,460,460,438,396,374,335,315,297,280,272,253,232,204,182,150,129,102,82],"timestamp_mouse":[12,40,52,72,93,112,131,153,173,192,212,231,252,273,292,312,332,352,372,391,411,432,452,472,491,512,532,554,571,592,612,632,652,671,692,712,733,752,773,792,812,833,852,872,893,912,932,952,972,993,1012,1031,1052,1072,1092,1112,1133,1153,1173,1193,1211,1232,1252,1271,1291,1313,1332,1352,1372,1392,1413,1432,1452,1473,1492,1512,1532,1552,1573,1592,1611,1632,1653,1673,1692,1711,1731,1751],"xSR":624.5,"ySR":416,"xT1":354.7,"yT1":0,"xT2":894.3,"yT2":0,"toosoon":0,"cond_shown":"Congruent","ratio_trial":200,"L_num":6,"L_den":12,"R_num":7,"R_den":10,"correct_side":2,"subjID":"valentinagomezvanegas","gender":"1","school":"sexto","age":"11"},{"start_time":1551794262451,"click_time":1551794263346,"finger_time":1551794263205,"fix_duration":965.3158393338085,"trial":23,"RT":754,"MT":141,"sideResp":2,"stimulus":[],"xmouse":[669,669,669,669,669,669,669,669,669,669,669,669,669,669,669,669,669,669,669,669,669,669,669,669,669,669,669,669,669,669,669,669,669,669,672,692,724,742,804,821,865,906,923,949,969],"ymouse":[512,512,512,512,512,512,512,512,512,512,512,512,512,512,512,512,512,512,512,512,512,512,512,512,512,512,512,512,512,512,512,512,512,511,509,491,465,446,349,317,252,190,163,125,93],"timestamp_mouse":[14,34,54,73,94,114,133,153,173,194,215,235,255,274,293,314,333,354,375,394,413,434,455,474,494,514,535,554,574,594,614,634,654,674,695,714,734,754,774,793,814,834,854,874,894],"xSR":624.5,"ySR":416,"xT1":354.7,"yT1":0,"xT2":894.3,"yT2":0,"toosoon":0,"cond_shown":"Congruent","ratio_trial":200,"L_num":3,"L_den":10,"R_num":14,"R_den":28,"correct_side":2,"subjID":"valentinagomezvanegas","gender":"1","school":"sexto","age":"11"},{"start_time":1551794265490,"click_time":1551794267346,"finger_time":1551794266585,"fix_duration":943.2593031915072,"trial":24,"RT":1095,"MT":761,"sideResp":2,"stimulus":[],"xmouse":[693,693,693,693,693,693,693,693,693,693,693,693,693,693,693,693,693,693,693,693,693,693,693,693,693,693,693,693,693,693,693,693,693,693,693,693,693,693,693,693,693,693,693,693,693,693,693,693,693,693,693,693,693,683,666,592,536,511,482,478,478,478,478,478,477,469,468,468,468,468,468,468,468,468,468,468,468,468,468,468,471,502,547,571,614,647,676,708,729,773,848,895,914],"ymouse":[430,430,430,430,430,430,430,430,430,430,430,430,430,430,430,430,430,430,430,430,430,430,430,430,430,430,430,430,430,430,430,430,430,430,430,430,430,430,430,430,430,430,430,430,430,430,430,430,430,430,430,430,430,422,399,325,279,261,239,235,235,235,235,235,234,226,225,225,225,225,225,225,225,225,225,225,225,225,225,225,227,239,256,262,272,275,271,257,244,215,149,102,68],"timestamp_mouse":[14,34,56,75,95,116,135,155,176,195,216,235,254,276,295,314,335,355,375,396,414,435,455,475,495,515,535,555,575,595,614,635,655,675,696,715,735,755,774,796,815,835,854,875,896,916,936,955,975,996,1016,1036,1055,1076,1095,1114,1134,1155,1174,1195,1216,1235,1255,1276,1296,1314,1334,1355,1375,1394,1414,1436,1455,1475,1515,1515,1536,1556,1576,1595,1615,1635,1655,1676,1695,1715,1735,1755,1775,1795,1815,1834,1856],"xSR":624.5,"ySR":416,"xT1":354.7,"yT1":0,"xT2":894.3,"yT2":0,"toosoon":0,"cond_shown":"Incongruent","ratio_trial":200,"L_num":1,"L_den":3,"R_num":2,"R_den":15,"correct_side":1,"subjID":"valentinagomezvanegas","gender":"1","school":"sexto","age":"11"},{"start_time":1551794269597,"click_time":1551794271484,"finger_time":1551794271065,"fix_duration":250,"trial":25,"RT":1468,"MT":419,"sideResp":2,"stimulus":[],"xmouse":[659,659,659,659,659,659,659,659,659,659,659,659,659,659,659,659,659,659,659,659,659,659,659,659,659,659,659,659,659,659,659,659,659,659,659,659,659,659,659,659,659,659,659,659,659,659,659,659,659,659,659,659,659,659,659,659,659,659,659,659,659,659,659,659,659,659,659,659,659,659,659,660,663,704,843,873,880,882,885,885,885,885,885,885,885,885,885,885,885,885,885,885,885,885,919],"ymouse":[459,459,459,459,459,459,459,459,459,459,459,459,459,459,459,459,459,459,459,459,459,459,459,459,459,459,459,459,459,459,459,459,459,459,459,459,459,459,459,459,459,459,459,459,459,459,459,459,459,459,459,459,459,459,459,459,459,459,459,459,459,459,459,459,459,459,459,459,459,459,459,459,454,365,147,62,29,17,2,2,2,2,2,2,2,2,2,2,2,2,2,2,2,2,20],"timestamp_mouse":[15,29,48,68,88,108,128,148,168,187,207,227,247,267,287,309,329,347,368,387,408,427,449,467,488,508,527,548,568,589,609,628,648,668,688,708,728,749,768,788,807,827,849,869,888,908,928,947,967,987,1009,1028,1048,1068,1087,1109,1128,1148,1167,1187,1207,1227,1249,1267,1289,1308,1328,1347,1367,1388,1408,1428,1448,1468,1489,1507,1528,1549,1568,1589,1609,1628,1649,1668,1689,1709,1727,1747,1768,1788,1808,1828,1848,1868,1887],"xSR":624.5,"ySR":416,"xT1":354.7,"yT1":0,"xT2":894.3,"yT2":0,"toosoon":0,"cond_shown":"Incongruent","ratio_trial":100,"L_num":11,"L_den":22,"R_num":9,"R_den":15,"correct_side":2,"subjID":"valentinagomezvanegas","gender":"1","school":"sexto","age":"11"},{"start_time":1551794273292,"click_time":1551794274785,"finger_time":1551794274125,"fix_duration":725.5856339512428,"trial":26,"RT":833,"MT":660,"sideResp":2,"stimulus":[],"xmouse":[673,673,673,673,673,673,673,674,674,674,674,674,674,674,674,674,675,675,675,675,675,675,675,676,676,676,676,676,677,677,677,677,677,677,677,677,677,677,677,677,677,677,677,678,678,678,678,678,678,678,678,678,678,678,678,678,679,680,685,688,691,695,700,745,776,789,823,843,852,856,859,863,868,893,915],"ymouse":[431,431,431,431,431,431,431,431,431,431,431,431,431,431,431,431,431,431,431,431,431,430,427,421,420,420,420,420,419,419,418,418,418,417,417,417,417,417,417,417,416,415,413,410,410,410,410,410,410,410,410,410,410,410,410,408,407,405,396,390,385,377,370,310,272,253,215,186,168,160,155,146,138,98,67],"timestamp_mouse":[14,33,53,73,92,113,134,153,174,193,213,234,253,273,294,312,334,352,372,393,413,433,452,474,493,513,533,554,573,593,613,633,653,674,693,712,732,753,773,793,813,833,853,874,893,913,934,954,973,994,1013,1033,1053,1074,1094,1113,1133,1154,1173,1193,1213,1234,1254,1273,1293,1314,1334,1354,1372,1393,1413,1433,1453,1474,1492],"xSR":624.5,"ySR":416,"xT1":354.7,"yT1":0,"xT2":894.3,"yT2":0,"toosoon":0,"cond_shown":"Congruent","ratio_trial":100,"L_num":1,"L_den":2,"R_num":3,"R_den":5,"correct_side":2,"subjID":"valentinagomezvanegas","gender":"1","school":"sexto","age":"11"},{"start_time":1551794275897,"click_time":1551794277884,"finger_time":1551794277285,"fix_duration":250,"trial":27,"RT":1388,"MT":599,"sideResp":1,"stimulus":[],"xmouse":[677,677,677,677,677,677,677,677,677,677,677,677,677,677,677,677,677,677,677,677,677,677,677,677,677,677,677,677,677,677,677,677,677,677,677,677,677,677,677,677,677,677,677,677,677,677,677,677,677,677,677,677,677,677,677,677,677,677,677,677,677,677,677,677,677,677,677,677,672,661,637,605,587,569,561,543,499,477,468,468,467,467,467,467,467,462,457,457,457,457,457,457,457,453,452,451,448,432,423,411],"ymouse":[431,431,431,431,431,431,431,431,431,431,431,431,431,431,431,431,431,431,431,431,431,431,431,431,431,431,431,431,431,431,431,431,431,431,431,431,431,431,431,431,431,431,431,431,431,431,431,431,431,431,431,431,431,431,431,431,431,431,431,431,431,431,431,431,431,431,431,431,421,409,387,357,340,318,308,285,230,206,195,194,194,194,193,188,184,173,157,155,150,145,141,135,130,124,120,119,114,104,102,98],"timestamp_mouse":[11,33,48,69,88,109,128,149,168,187,208,228,247,269,287,308,328,347,367,387,409,428,448,467,489,508,528,548,568,588,608,628,648,669,689,708,729,748,769,788,808,828,849,868,888,908,928,949,968,988,1009,1028,1049,1068,1087,1108,1127,1149,1168,1187,1208,1229,1247,1267,1288,1308,1329,1349,1368,1388,1409,1428,1447,1468,1489,1508,1527,1548,1568,1589,1608,1628,1648,1668,1688,1708,1728,1748,1768,1788,1808,1828,1847,1867,1887,1907,1928,1948,1967,1987],"xSR":624.5,"ySR":416,"xT1":354.7,"yT1":0,"xT2":894.3,"yT2":0,"toosoon":0,"cond_shown":"Incongruent","ratio_trial":200,"L_num":1,"L_den":2,"R_num":3,"R_den":10,"correct_side":1,"subjID":"valentinagomezvanegas","gender":"1","school":"sexto","age":"11"},{"start_time":1551794280300,"click_time":1551794282765,"finger_time":1551794282385,"fix_duration":1411.6415150105177,"trial":28,"RT":2085,"MT":380,"sideResp":1,"stimulus":[],"xmouse":[669,669,669,669,669,669,669,669,669,669,669,669,669,669,669,669,669,669,669,669,669,669,669,669,669,669,669,669,669,669,669,669,669,669,669,669,669,669,669,669,669,669,669,669,669,669,669,669,669,669,669,669,669,669,669,669,669,669,669,669,669,669,669,669,669,669,669,669,669,669,669,669,669,669,669,669,669,669,669,669,669,669,669,669,669,669,669,669,669,669,669,669,669,669,669,669,669,669,669,669,669,669,669,669,658,644,585,541,527,510,503,499,494,491,482,468,461,461,461,461,461,461,461,418],"ymouse":[457,457,457,457,457,457,457,457,457,457,457,457,457,457,457,457,457,457,457,457,457,457,457,457,457,457,457,457,457,457,457,457,457,457,457,457,457,457,457,457,457,457,457,457,457,457,457,457,457,457,457,457,457,457,457,457,457,457,457,457,457,457,457,457,457,457,457,457,457,457,457,457,457,457,457,457,457,457,457,457,457,457,457,457,457,457,457,457,457,457,457,457,457,457,457,457,457,457,457,457,457,457,457,457,410,377,256,174,143,100,79,69,56,46,24,7,0,0,0,0,0,0,0,2],"timestamp_mouse":[12,28,45,65,84,105,124,145,164,185,205,225,245,265,285,304,325,345,365,385,404,426,445,466,486,505,526,545,565,585,604,626,645,665,685,706,726,745,764,784,804,826,845,865,886,905,925,944,965,985,1005,1025,1045,1065,1085,1104,1126,1145,1166,1184,1204,1224,1246,1265,1285,1304,1325,1346,1365,1385,1404,1425,1445,1465,1486,1505,1525,1545,1565,1585,1605,1624,1645,1665,1686,1704,1724,1744,1765,1785,1805,1826,1845,1865,1885,1906,1924,1945,1965,1984,2004,2026,2045,2066,2085,2105,2125,2144,2165,2185,2205,2225,2245,2266,2285,2305,2325,2345,2365,2386,2406,2425,2445,2465],"xSR":624.5,"ySR":416,"xT1":354.7,"yT1":0,"xT2":894.3,"yT2":0,"toosoon":0,"cond_shown":"Congruent","ratio_trial":200,"L_num":4,"L_den":10,"R_num":3,"R_den":15,"correct_side":1,"subjID":"valentinagomezvanegas","gender":"1","school":"sexto","age":"11"},{"start_time":1551794284527,"click_time":1551794286168,"finger_time":1551794285707,"fix_duration":738.7174751777684,"trial":29,"RT":1180,"MT":461,"sideResp":2,"stimulus":[],"xmouse":[699,699,699,699,699,699,699,699,699,699,699,699,699,699,699,699,699,699,699,699,699,699,699,699,699,699,699,699,699,699,699,699,699,699,699,699,699,699,699,699,699,699,699,699,699,699,699,699,699,699,699,699,699,699,699,703,708,712,719,731,739,754,761,777,810,824,847,863,870,910,925,949,959,960,961,961,961,962,962,962,957,948,931],"ymouse":[471,471,471,471,471,471,471,471,471,471,471,471,471,468,464,462,462,462,462,462,462,462,462,462,462,462,462,462,462,462,462,462,462,462,462,462,462,462,462,462,462,462,462,462,462,462,462,462,462,462,462,462,462,461,455,449,439,432,416,396,381,362,354,336,297,282,260,246,241,206,190,168,157,156,156,156,156,155,155,117,111,102,94],"timestamp_mouse":[8,20,40,61,80,100,120,140,160,181,200,220,240,260,281,301,322,340,360,380,400,421,440,461,480,500,521,542,561,580,600,622,641,661,682,701,721,741,760,780,801,822,840,860,881,900,920,940,960,982,1000,1020,1040,1061,1080,1101,1120,1140,1160,1180,1201,1221,1242,1262,1281,1300,1322,1342,1361,1380,1400,1421,1440,1461,1481,1501,1520,1541,1560,1580,1601,1621,1641],"xSR":624.5,"ySR":416,"xT1":354.7,"yT1":0,"xT2":894.3,"yT2":0,"toosoon":0,"cond_shown":"Congruent","ratio_trial":200,"L_num":7,"L_den":15,"R_num":18,"R_den":27,"correct_side":2,"subjID":"valentinagomezvanegas","gender":"1","school":"sexto","age":"11"},{"start_time":1551794287872,"click_time":1551794289769,"finger_time":1551794289408,"fix_duration":583.6808551547465,"trial":30,"RT":1536,"MT":361,"sideResp":2,"stimulus":[],"xmouse":[643,643,643,643,643,643,643,643,643,643,643,643,643,643,643,643,643,643,643,643,643,643,643,643,643,643,643,643,643,643,643,643,643,643,643,643,643,643,643,643,643,643,643,643,643,643,643,643,643,643,643,643,643,643,643,643,643,643,643,643,643,643,643,643,643,643,643,643,643,643,643,643,643,643,647,664,708,757,780,810,834,841,842,842,843,855,878,896,903,907,907,908,910,913,920],"ymouse":[454,454,454,454,454,454,454,454,454,454,454,454,454,454,454,454,454,454,454,454,454,454,454,454,454,454,454,454,454,454,454,454,454,454,454,454,454,454,454,454,454,454,454,454,454,454,454,454,454,454,454,454,454,454,454,454,454,454,454,454,454,454,454,454,454,454,454,454,454,454,454,454,454,454,453,434,398,351,325,290,268,261,259,259,257,242,200,157,140,122,114,112,107,101,90],"timestamp_mouse":[15,37,55,76,97,115,135,155,175,195,215,237,255,275,295,315,336,355,376,396,417,436,455,476,496,517,535,555,576,596,616,635,655,675,695,715,735,755,775,795,816,836,855,876,895,916,935,955,975,995,1015,1035,1055,1075,1096,1115,1136,1155,1176,1196,1216,1237,1255,1275,1295,1315,1335,1355,1376,1396,1415,1435,1455,1476,1496,1515,1536,1555,1577,1596,1615,1635,1656,1675,1695,1715,1736,1755,1775,1795,1816,1835,1855,1876,1897],"xSR":624.5,"ySR":416,"xT1":354.7,"yT1":0,"xT2":894.3,"yT2":0,"toosoon":0,"cond_shown":"Incongruent","ratio_trial":300,"L_num":4,"L_den":20,"R_num":2,"R_den":4,"correct_side":2,"subjID":"valentinagomezvanegas","gender":"1","school":"sexto","age":"11"},{"start_time":1551794293685,"click_time":1551794294847,"finger_time":1551794294387,"fix_duration":475.0385819551877,"trial":31,"RT":702,"MT":460,"sideResp":1,"stimulus":[],"xmouse":[686,686,686,686,686,686,686,686,686,686,686,686,686,686,686,686,686,686,686,686,686,686,686,686,686,686,686,686,685,684,678,672,666,663,658,654,653,647,632,622,569,551,524,506,504,503,499,491,483,479,460,456,447,439,436,434,434,433,429],"ymouse":[433,433,433,433,433,433,433,433,433,433,433,433,433,433,433,433,433,433,433,433,433,433,433,433,433,433,433,433,433,433,430,425,421,420,417,414,414,410,399,391,339,323,282,247,239,201,194,182,169,164,131,125,114,107,104,101,101,101,97],"timestamp_mouse":[13,29,42,62,82,103,122,143,163,183,202,222,243,263,282,302,324,342,362,382,402,422,442,462,483,503,522,543,562,582,602,622,642,663,684,702,722,742,762,784,802,822,843,862,883,902,922,943,963,982,1004,1022,1044,1063,1083,1103,1122,1143,1162],"xSR":624.5,"ySR":416,"xT1":354.7,"yT1":0,"xT2":894.3,"yT2":0,"toosoon":0,"cond_shown":"Congruent","ratio_trial":200,"L_num":11,"L_den":22,"R_num":3,"R_den":10,"correct_side":1,"subjID":"valentinagomezvanegas","gender":"1","school":"sexto","age":"11"},{"start_time":1551794296181,"click_time":1551794297927,"finger_time":1551794297528,"fix_duration":250,"trial":32,"RT":1347,"MT":399,"sideResp":2,"stimulus":[],"xmouse":[627,627,627,627,627,627,627,627,627,627,627,627,627,627,627,627,627,627,627,627,627,627,627,627,627,627,627,627,627,627,627,627,627,627,627,627,627,627,627,627,627,627,627,627,627,627,627,627,627,627,627,627,627,627,627,627,627,627,627,627,627,627,627,627,627,627,627,635,652,658,660,661,661,661,663,669,684,705,724,738,769,782,800,804,807,833,874,954],"ymouse":[428,428,428,428,428,428,428,428,428,428,428,428,428,428,428,428,428,428,428,428,428,428,428,428,428,428,428,428,428,428,428,428,428,428,428,428,428,428,428,428,428,428,428,428,428,428,428,428,428,428,428,428,428,428,428,428,428,428,428,428,428,428,428,428,428,428,428,413,373,357,354,350,349,339,326,316,290,261,235,214,174,158,137,129,124,103,76,26],"timestamp_mouse":[8,26,46,68,86,106,126,146,166,187,206,228,246,266,286,306,327,347,366,386,406,426,446,466,486,506,527,547,568,586,608,626,646,668,686,708,727,747,767,786,807,827,846,866,888,907,926,948,968,987,1007,1027,1046,1066,1086,1106,1128,1147,1166,1186,1206,1227,1247,1266,1286,1306,1327,1347,1366,1386,1406,1428,1448,1467,1486,1507,1526,1547,1568,1586,1607,1626,1647,1666,1687,1706,1726,1746],"xSR":624.5,"ySR":416,"xT1":354.7,"yT1":0,"xT2":894.3,"yT2":0,"toosoon":0,"cond_shown":"Congruent","ratio_trial":100,"L_num":15,"L_den":25,"R_num":13,"R_den":26,"correct_side":1,"subjID":"valentinagomezvanegas","gender":"1","school":"sexto","age":"11"},{"start_time":1551794300009,"click_time":1551794301107,"finger_time":1551794300628,"fix_duration":759.1418550874989,"trial":33,"RT":619,"MT":479,"sideResp":2,"stimulus":[],"xmouse":[659,659,659,659,659,659,659,659,659,659,659,659,659,659,659,659,659,659,659,659,659,659,659,659,659,659,659,659,659,659,680,687,706,748,766,811,816,826,829,830,832,833,833,833,834,861,866,866,868,868,871,876,892,914,950],"ymouse":[442,442,442,442,442,442,442,442,442,442,442,442,442,442,442,442,442,442,442,442,442,442,442,442,442,442,442,442,441,438,403,392,353,288,254,173,163,150,145,144,141,140,140,140,140,132,131,131,131,131,130,129,125,117,97],"timestamp_mouse":[18,38,59,79,98,120,138,160,179,199,218,238,259,278,299,318,339,359,379,400,419,438,459,479,498,518,539,558,578,598,619,639,660,679,698,719,738,758,778,798,818,838,858,879,898,918,938,958,979,999,1018,1038,1058,1080,1098],"xSR":624.5,"ySR":416,"xT1":354.7,"yT1":0,"xT2":894.3,"yT2":0,"toosoon":0,"cond_shown":"Incongruent","ratio_trial":300,"L_num":13,"L_den":26,"R_num":12,"R_den":15,"correct_side":2,"subjID":"valentinagomezvanegas","gender":"1","school":"sexto","age":"11"},{"start_time":1551794302241,"click_time":1551794304208,"finger_time":1551794303807,"fix_duration":491.83183308309265,"trial":34,"RT":1566,"MT":401,"sideResp":2,"stimulus":[],"xmouse":[691,691,691,691,691,691,691,691,691,691,691,691,691,691,691,691,691,691,691,691,691,691,691,691,691,691,691,691,691,691,689,688,688,688,688,688,688,688,688,688,688,688,688,688,688,688,688,688,688,688,688,688,688,688,688,688,688,688,688,688,688,688,688,688,688,688,688,688,688,688,688,688,688,688,688,688,688,698,708,722,723,728,764,791,853,871,882,882,882,882,883,885,900,905,913,915,915,915,915],"ymouse":[448,448,448,448,448,448,448,448,448,448,448,448,448,448,448,448,448,448,448,448,448,448,448,448,448,448,448,448,447,446,443,441,441,441,441,441,441,441,441,440,440,440,440,440,440,440,440,440,440,440,440,440,440,440,440,440,440,440,440,440,440,440,440,440,440,440,440,440,440,440,440,440,440,440,440,440,440,422,412,396,393,387,332,304,247,232,222,222,222,222,218,211,172,156,130,116,110,100,91],"timestamp_mouse":[12,36,46,68,86,106,126,146,166,186,208,227,247,267,287,306,327,346,367,387,406,427,447,467,486,506,526,547,567,586,606,626,647,666,686,707,727,746,766,787,808,826,846,866,887,907,926,948,967,987,1006,1026,1047,1066,1087,1106,1126,1146,1166,1186,1206,1226,1246,1266,1287,1307,1327,1346,1366,1388,1406,1426,1446,1468,1488,1506,1526,1546,1566,1586,1606,1626,1647,1667,1686,1707,1727,1747,1767,1787,1806,1828,1846,1868,1888,1907,1927,1947,1967],"xSR":624.5,"ySR":416,"xT1":354.7,"yT1":0,"xT2":894.3,"yT2":0,"toosoon":0,"cond_shown":"Congruent","ratio_trial":100,"L_num":9,"L_den":15,"R_num":8,"R_den":16,"correct_side":1,"subjID":"valentinagomezvanegas","gender":"1","school":"sexto","age":"11"},{"start_time":1551794305806,"click_time":1551794306568,"finger_time":1551794306447,"fix_duration":396.2957685792222,"trial":35,"RT":641,"MT":121,"sideResp":1,"stimulus":[],"xmouse":[669,669,669,669,669,669,669,669,669,669,669,669,669,669,669,669,669,669,669,669,669,669,669,669,669,669,669,669,669,669,669,669,660,636,618,574,531,478,447],"ymouse":[464,464,464,464,464,464,464,464,464,464,464,464,464,464,464,464,464,464,464,464,464,464,464,464,464,464,464,464,464,464,464,463,404,343,308,243,176,102,67],"timestamp_mouse":[9,31,42,61,81,102,122,142,162,183,202,222,243,261,282,302,322,341,362,383,402,421,441,461,483,501,521,542,561,583,601,621,641,663,682,702,722,741,762],"xSR":624.5,"ySR":416,"xT1":354.7,"yT1":0,"xT2":894.3,"yT2":0,"toosoon":0,"cond_shown":"Congruent","ratio_trial":200,"L_num":12,"L_den":15,"R_num":6,"R_den":10,"correct_side":1,"subjID":"valentinagomezvanegas","gender":"1","school":"sexto","age":"11"},{"start_time":1551794308320,"click_time":1551794310187,"finger_time":1551794309829,"fix_duration":250,"trial":36,"RT":1509,"MT":358,"sideResp":2,"stimulus":[],"xmouse":[694,694,694,694,694,694,694,694,694,694,694,694,694,694,694,694,694,694,694,694,694,694,694,694,694,694,694,694,694,694,694,694,694,694,694,694,694,694,694,694,694,694,694,694,694,694,694,694,694,694,694,694,694,694,694,694,694,694,694,694,694,694,694,694,694,694,694,694,694,694,694,694,694,694,696,740,776,834,852,897,906,928,944,948,953,955,956,956,956,956,950,946,940,936],"ymouse":[452,452,452,452,452,452,452,452,452,452,452,452,452,452,452,452,452,452,452,452,452,452,452,452,452,452,452,452,452,452,452,452,452,452,452,452,452,452,452,452,452,452,452,452,452,452,452,452,452,452,452,452,452,452,452,452,452,452,452,452,452,452,452,452,452,452,452,452,452,452,452,452,452,453,453,414,388,342,326,276,264,240,216,207,184,173,166,154,140,136,118,110,100,92],"timestamp_mouse":[9,29,47,67,87,107,127,147,169,188,207,227,247,267,287,307,328,348,368,387,407,431,447,467,487,507,527,548,568,587,608,628,647,667,688,709,728,747,767,788,809,828,848,868,887,909,927,947,967,987,1007,1028,1047,1067,1088,1107,1127,1147,1167,1187,1207,1228,1247,1267,1287,1307,1328,1348,1367,1387,1408,1429,1448,1467,1488,1509,1528,1548,1568,1588,1607,1628,1647,1667,1688,1707,1728,1747,1768,1787,1807,1827,1847,1867],"xSR":624.5,"ySR":416,"xT1":354.7,"yT1":0,"xT2":894.3,"yT2":0,"toosoon":0,"cond_shown":"Congruent","ratio_trial":100,"L_num":8,"L_den":16,"R_num":2,"R_den":5,"correct_side":1,"subjID":"valentinagomezvanegas","gender":"1","school":"sexto","age":"11"},{"start_time":1551794312341,"click_time":1551794314208,"finger_time":1551794313768,"fix_duration":792.0968738807766,"trial":37,"RT":1427,"MT":440,"sideResp":2,"stimulus":[],"xmouse":[684,684,684,684,684,684,684,684,684,684,684,684,684,684,684,684,684,684,684,684,684,684,684,684,684,684,684,684,684,684,684,684,684,684,684,684,684,684,684,684,684,684,684,684,684,684,684,684,684,684,684,684,684,684,684,684,684,684,684,684,684,684,684,684,684,684,684,684,683,686,686,687,687,694,700,707,712,734,742,758,769,776,790,808,821,835,847,866,881,881,884,889,890,895],"ymouse":[428,428,428,428,428,428,428,428,428,428,428,428,428,428,428,428,428,428,428,428,428,428,428,428,428,428,428,428,428,428,428,428,428,428,428,428,428,428,428,428,428,428,428,428,428,428,428,428,428,428,428,428,428,428,428,428,428,428,428,428,428,428,428,428,428,428,428,428,428,419,417,415,413,398,384,366,355,311,301,282,268,259,239,217,199,177,156,121,92,92,85,72,69,56],"timestamp_mouse":[8,36,47,67,87,107,126,147,166,186,206,226,246,267,286,307,326,346,367,388,406,426,446,466,486,507,527,547,566,586,606,627,646,666,686,707,726,746,766,786,806,826,846,867,888,907,926,946,966,986,1006,1026,1046,1066,1087,1106,1127,1148,1168,1187,1207,1226,1246,1266,1286,1306,1326,1347,1367,1387,1408,1427,1447,1468,1486,1506,1527,1547,1566,1586,1606,1626,1646,1666,1688,1706,1726,1746,1766,1786,1806,1826,1846,1866],"xSR":624.5,"ySR":416,"xT1":354.7,"yT1":0,"xT2":894.3,"yT2":0,"toosoon":0,"cond_shown":"Incongruent","ratio_trial":100,"L_num":11,"L_den":22,"R_num":9,"R_den":15,"correct_side":2,"subjID":"valentinagomezvanegas","gender":"1","school":"sexto","age":"11"},{"start_time":1551794316088,"click_time":1551794317108,"finger_time":1551794316988,"fix_duration":960.0615186774924,"trial":38,"RT":900,"MT":120,"sideResp":1,"stimulus":[],"xmouse":[692,692,692,692,692,692,692,692,692,692,692,692,692,692,692,692,692,692,692,692,692,692,692,692,692,692,692,692,692,692,692,692,692,692,692,691,688,682,676,675,675,675,675,674,663,631,609,560,494,462,435],"ymouse":[469,469,469,469,469,469,469,469,469,469,469,469,469,469,469,469,469,469,469,469,469,469,469,469,469,469,469,469,469,469,469,469,469,469,469,466,462,455,450,449,449,449,449,442,408,343,310,244,160,116,75],"timestamp_mouse":[19,39,59,79,101,119,140,159,179,200,220,241,260,279,299,319,339,360,379,399,419,439,460,479,499,519,540,560,579,600,619,639,660,680,699,719,739,760,779,799,819,840,859,879,900,920,940,961,979,1000,1020],"xSR":624.5,"ySR":416,"xT1":354.7,"yT1":0,"xT2":894.3,"yT2":0,"toosoon":0,"cond_shown":"Congruent","ratio_trial":300,"L_num":24,"L_den":30,"R_num":8,"R_den":16,"correct_side":1,"subjID":"valentinagomezvanegas","gender":"1","school":"sexto","age":"11"},{"start_time":1551794411427,"click_time":1551794415757,"finger_time":1551794414858,"fix_duration":608.273456038263,"trial":39,"RT":3431,"MT":899,"sideResp":2,"stimulus":[],"xmouse":[662,662,662,662,662,662,662,662,662,662,662,662,662,662,662,662,662,662,662,662,662,662,662,662,662,662,662,662,662,662,662,662,662,662,662,662,662,662,662,662,662,662,662,662,662,662,662,662,662,662,662,662,662,662,662,662,662,662,662,662,662,662,662,662,662,662,662,662,662,662,662,662,662,662,662,662,662,662,662,662,662,662,662,662,662,662,662,662,662,662,662,662,662,662,662,662,662,662,662,662,662,662,662,662,662,662,662,662,662,662,662,662,662,662,662,662,662,662,662,662,662,662,662,662,662,662,662,662,662,662,662,662,662,662,662,662,662,662,662,662,662,662,662,662,662,662,662,662,662,662,662,662,662,662,662,662,662,662,662,662,662,662,662,662,662,662,662,662,662,665,685,698,726,758,771,797,798,801,802,803,801,797,797,797,797,797,798,800,815,843,874,885,888,896,900,902,908,909,910,910,910,910,910,909,909,909,909,909,909,911,918,930,931,935,937,939,942],"ymouse":[469,469,469,469,469,469,469,469,469,469,469,469,469,469,469,469,469,469,469,469,469,469,469,469,469,469,469,469,469,469,469,469,469,469,469,469,469,469,469,469,469,469,469,469,469,469,469,469,469,469,469,469,469,469,469,469,469,469,469,469,469,469,469,469,469,469,469,469,469,469,469,469,469,469,469,469,469,469,469,469,469,469,469,469,469,469,469,469,469,469,469,469,469,469,469,469,469,469,469,469,469,469,469,469,469,469,469,469,469,469,469,469,469,469,469,469,469,469,469,469,469,469,469,469,469,469,469,469,469,469,469,469,469,469,469,469,469,469,469,469,469,469,469,469,469,469,469,469,469,469,469,469,469,469,469,469,469,469,469,469,469,469,469,469,469,469,469,469,469,458,431,414,382,344,325,245,222,182,162,155,140,135,135,135,135,135,135,135,143,157,171,172,172,165,156,150,135,133,131,131,131,131,130,128,128,128,128,128,126,124,120,112,110,107,105,101,97],"timestamp_mouse":[13,31,51,70,90,112,130,150,170,190,211,230,250,271,290,312,331,350,371,391,411,430,450,470,491,510,530,550,570,590,610,630,650,670,691,712,731,751,770,791,810,831,850,870,890,910,930,950,971,992,1011,1032,1051,1071,1091,1111,1132,1152,1172,1191,1210,1231,1250,1270,1290,1311,1332,1351,1371,1391,1411,1431,1451,1470,1490,1512,1530,1551,1570,1590,1610,1630,1650,1671,1690,1710,1731,1751,1771,1791,1811,1830,1851,1871,1891,1912,1932,1951,1971,1991,2011,2031,2052,2071,2092,2110,2130,2150,2170,2190,2211,2230,2251,2271,2291,2310,2330,2351,2371,2390,2411,2430,2450,2472,2491,2511,2530,2551,2570,2591,2612,2631,2651,2670,2691,2711,2730,2750,2771,2790,2810,2830,2852,2870,2890,2911,2930,2950,2971,2990,3010,3030,3052,3071,3091,3111,3131,3151,3170,3192,3210,3230,3250,3270,3291,3310,3330,3350,3371,3390,3411,3431,3451,3471,3491,3511,3530,3550,3570,3591,3610,3632,3651,3670,3690,3710,3731,3751,3771,3791,3812,3830,3851,3871,3891,3912,3930,3952,3971,3992,4011,4030,4051,4072,4091,4112,4131,4152,4172,4191,4212,4231,4250,4271,4291,4310,4330],"xSR":624.5,"ySR":416,"xT1":354.7,"yT1":0,"xT2":894.3,"yT2":0,"toosoon":0,"cond_shown":"Incongruent","ratio_trial":100,"L_num":1,"L_den":2,"R_num":8,"R_den":20,"correct_side":1,"subjID":"valentinagomezvanegas","gender":"1","school":"sexto","age":"11"},{"start_time":1551794423155,"click_time":1551794425157,"finger_time":1551794424919,"fix_duration":1415.9109390326034,"trial":40,"RT":1764,"MT":238,"sideResp":2,"stimulus":[],"xmouse":[685,685,685,685,685,685,685,685,685,685,685,685,685,685,685,685,685,685,685,685,685,685,685,685,685,685,685,685,685,685,685,685,685,685,685,685,685,685,685,685,685,685,685,685,685,685,685,685,685,685,685,685,685,685,685,685,685,685,685,685,685,685,685,685,685,685,685,685,685,685,685,685,685,685,685,685,685,685,685,685,685,685,685,696,701,707,709,712,731,780,794,805,820,826,841,868,886,896,912,925,929],"ymouse":[433,433,433,433,433,433,433,433,433,433,433,433,433,433,433,433,433,433,433,433,433,433,433,433,433,433,433,433,433,433,433,433,433,433,433,433,433,433,433,433,433,433,433,433,433,433,433,433,433,433,433,433,433,433,433,433,433,433,433,433,433,433,433,433,433,433,433,433,433,433,433,433,433,433,433,433,433,433,433,433,433,433,433,431,430,430,430,430,417,366,335,313,292,281,260,219,188,172,136,107,91],"timestamp_mouse":[12,22,43,62,82,103,123,144,162,182,203,224,242,262,282,302,322,342,362,384,403,424,442,462,483,503,522,543,562,583,602,622,642,662,683,703,723,743,763,784,802,823,843,863,884,904,923,943,964,982,1002,1022,1042,1062,1082,1102,1122,1143,1162,1182,1202,1222,1243,1262,1282,1302,1322,1343,1363,1384,1403,1424,1442,1462,1483,1502,1522,1542,1562,1583,1602,1622,1642,1662,1682,1703,1724,1742,1764,1784,1802,1822,1842,1862,1882,1904,1922,1942,1962,1983,2002],"xSR":624.5,"ySR":416,"xT1":354.7,"yT1":0,"xT2":894.3,"yT2":0,"toosoon":0,"cond_shown":"Congruent","ratio_trial":300,"L_num":2,"L_den":10,"R_num":12,"R_den":24,"correct_side":2,"subjID":"valentinagomezvanegas","gender":"1","school":"sexto","age":"11"},{"start_time":1551794428918,"click_time":1551794431458,"finger_time":1551794430538,"fix_duration":1058.9049273498797,"trial":41,"RT":1620,"MT":920,"sideResp":2,"stimulus":[],"xmouse":[664,664,664,664,664,664,664,664,664,664,664,664,664,664,664,664,664,664,664,664,664,664,664,664,664,664,664,664,664,664,664,664,664,664,664,664,664,664,664,664,664,664,664,664,664,664,664,664,664,664,664,664,664,664,664,664,664,664,664,664,664,664,664,664,664,664,664,664,664,664,664,664,685,685,685,685,685,685,705,711,713,713,713,721,724,728,741,753,762,767,770,774,783,813,844,857,889,916,937,943,945,947,949,949,949,947,941,930,926,926,925,925,925,925,925,925,925,925,925,925,925,925,925,925,924,917,910,898],"ymouse":[490,490,490,490,490,490,490,490,490,490,490,490,490,490,490,490,490,490,490,490,490,490,490,490,490,490,490,490,490,490,490,490,490,490,490,490,490,490,490,490,490,490,490,490,490,490,490,490,490,490,490,490,490,490,490,490,490,490,490,490,490,490,490,490,490,490,490,490,490,490,490,490,476,476,476,476,476,476,454,436,426,411,403,378,371,366,353,334,309,294,285,270,255,230,213,204,187,171,151,142,136,128,121,117,117,115,112,109,107,107,107,107,107,107,107,107,107,107,107,107,107,107,107,107,106,103,101,97],"timestamp_mouse":[1,30,40,60,79,99,120,139,159,179,200,220,239,260,279,299,319,339,360,379,399,421,440,460,479,501,521,541,560,580,599,619,641,660,679,700,719,740,759,780,800,819,839,860,879,899,919,939,959,979,1001,1020,1039,1059,1079,1100,1120,1140,1161,1180,1200,1219,1240,1260,1280,1300,1319,1339,1360,1379,1399,1420,1439,1461,1480,1501,1519,1541,1559,1579,1599,1620,1639,1660,1681,1701,1720,1739,1759,1779,1801,1819,1839,1859,1880,1900,1919,1939,1959,1979,2000,2020,2039,2060,2080,2100,2119,2140,2160,2180,2199,2220,2240,2260,2281,2300,2320,2340,2360,2381,2399,2419,2440,2461,2480,2499,2520,2539],"xSR":624.5,"ySR":416,"xT1":354.7,"yT1":0,"xT2":894.3,"yT2":0,"toosoon":0,"cond_shown":"Congruent","ratio_trial":300,"L_num":1,"L_den":5,"R_num":11,"R_den":22,"correct_side":2,"subjID":"valentinagomezvanegas","gender":"1","school":"sexto","age":"11"},{"start_time":1551794434362,"click_time":1551794436897,"finger_time":1551794436279,"fix_duration":483.8763128369893,"trial":42,"RT":1917,"MT":618,"sideResp":1,"stimulus":[],"xmouse":[660,660,660,660,660,660,660,660,660,660,660,660,660,660,660,660,660,660,660,660,660,660,660,660,660,660,660,660,660,660,660,660,660,660,660,660,660,660,660,660,660,660,660,660,660,660,660,660,660,660,660,660,660,660,660,660,660,660,660,660,660,660,660,660,660,660,660,660,660,660,660,660,660,660,660,660,660,660,660,660,660,660,660,660,660,660,660,660,660,660,660,661,661,661,660,655,653,647,640,636,632,631,630,630,630,629,617,609,588,565,552,505,495,481,473,470,456,453,450,446,444,444,442,438,430,424,388],"ymouse":[468,468,468,468,468,468,468,468,468,468,468,468,468,468,468,468,468,468,468,468,468,468,468,468,468,468,468,468,468,468,468,468,468,468,468,468,468,468,468,468,468,468,468,468,468,468,468,468,468,468,468,468,468,468,468,468,468,468,468,468,468,468,468,468,468,468,468,468,468,468,468,468,468,468,468,468,468,468,468,468,468,468,468,468,468,468,468,468,468,468,468,466,455,436,429,406,397,380,370,365,362,362,362,362,362,362,362,358,346,333,326,290,283,270,260,256,229,225,215,202,196,169,149,138,118,107,60],"timestamp_mouse":[15,41,55,76,96,116,136,157,175,195,215,235,256,275,295,315,336,355,375,396,416,435,455,475,495,516,536,557,576,596,615,635,656,675,696,715,737,756,776,796,816,835,856,875,897,916,935,956,976,995,1016,1036,1056,1076,1095,1117,1135,1155,1177,1196,1215,1235,1255,1275,1296,1315,1335,1355,1375,1395,1415,1437,1457,1476,1496,1516,1536,1557,1576,1595,1615,1635,1655,1677,1697,1715,1735,1755,1775,1795,1815,1836,1855,1876,1895,1917,1935,1956,1977,1996,2016,2035,2055,2077,2096,2117,2136,2156,2176,2196,2215,2236,2255,2275,2295,2317,2336,2356,2377,2396,2416,2435,2455,2475,2496,2516,2535],"xSR":624.5,"ySR":416,"xT1":354.7,"yT1":0,"xT2":894.3,"yT2":0,"toosoon":0,"cond_shown":"Incongruent","ratio_trial":200,"L_num":6,"L_den":20,"R_num":3,"R_den":6,"correct_side":2,"subjID":"valentinagomezvanegas","gender":"1","school":"sexto","age":"11"},{"start_time":1551794439984,"click_time":1551794443478,"finger_time":1551794442457,"fix_duration":1245.311396751678,"trial":43,"RT":2473,"MT":1021,"sideResp":2,"stimulus":[],"xmouse":[689,689,689,689,689,689,689,689,689,689,689,689,689,689,689,689,689,689,689,689,689,689,689,689,689,689,689,689,689,689,689,689,689,689,689,689,689,689,689,689,689,689,689,689,689,689,689,689,689,689,689,689,689,689,689,689,689,689,689,689,689,689,689,689,689,689,689,689,689,689,689,689,689,689,689,689,689,689,689,689,689,689,689,689,689,689,689,689,689,689,689,689,689,689,689,689,689,689,689,689,689,689,689,689,689,689,689,689,695,698,708,716,716,716,716,716,716,716,716,716,716,717,719,725,728,732,737,741,748,751,754,756,764,770,774,779,779,768,755,748,742,741,741,741,741,741,741,741,739,723,706,646,496,422,422,422,422,422,422,422,422,422,422,422,422,82,131,347,393,489,536,622,820,863,944],"ymouse":[453,453,453,453,453,453,453,453,453,453,453,453,453,453,453,453,453,453,453,453,453,453,453,453,453,453,453,453,453,453,453,453,453,453,453,453,453,453,453,453,453,453,453,453,453,453,453,453,453,453,453,453,453,453,453,453,453,453,453,453,453,453,453,453,453,453,453,453,453,453,453,453,453,453,453,453,453,453,453,453,453,453,453,453,453,453,453,453,453,453,453,453,453,453,453,453,453,453,453,453,453,453,453,453,453,453,453,453,452,450,448,446,446,446,446,446,446,446,446,446,446,446,444,436,430,423,410,398,384,377,369,362,340,327,318,302,300,296,290,287,284,284,284,284,284,284,284,284,285,303,325,393,546,611,611,611,611,611,611,611,611,611,611,611,611,631,598,459,425,349,313,239,100,70,18],"timestamp_mouse":[13,35,53,73,93,113,134,153,175,194,213,233,254,274,293,313,333,353,373,393,413,434,455,474,493,514,534,554,574,593,615,635,655,673,694,714,734,753,773,793,813,833,853,874,893,914,933,953,974,993,1014,1033,1053,1074,1093,1113,1134,1155,1174,1194,1214,1234,1254,1274,1295,1313,1335,1354,1373,1393,1413,1434,1454,1473,1494,1514,1535,1555,1573,1593,1613,1633,1653,1673,1693,1713,1733,1753,1773,1793,1813,1833,1853,1874,1894,1913,1933,1955,1974,1994,2013,2033,2055,2074,2094,2113,2134,2154,2174,2194,2214,2234,2254,2274,2293,2314,2334,2354,2373,2394,2413,2433,2453,2473,2493,2514,2534,2554,2573,2593,2614,2633,2654,2673,2694,2714,2734,2753,2774,2794,2813,2835,2854,2874,2894,2914,2935,2953,2974,2993,3014,3033,3053,3074,3094,3114,3134,3153,3174,3195,3214,3234,3253,3273,3295,3314,3333,3353,3374,3393,3413,3433,3454,3473,3494],"xSR":624.5,"ySR":416,"xT1":354.7,"yT1":0,"xT2":894.3,"yT2":0,"toosoon":0,"cond_shown":"Congruent","ratio_trial":200,"L_num":6,"L_den":12,"R_num":7,"R_den":10,"correct_side":2,"subjID":"valentinagomezvanegas","gender":"1","school":"sexto","age":"11"},{"start_time":1551794445827,"click_time":1551794447938,"finger_time":1551794447537,"fix_duration":1168.3361391598921,"trial":44,"RT":1710,"MT":401,"sideResp":2,"stimulus":[],"xmouse":[669,669,669,669,669,669,669,669,669,669,669,669,669,669,669,669,669,669,669,669,669,669,669,669,669,669,669,669,669,669,669,669,669,669,669,669,669,669,669,669,669,669,669,669,669,669,669,669,669,669,669,669,669,669,669,669,669,669,669,669,669,669,669,669,669,669,669,669,669,669,669,669,669,669,669,669,669,669,669,669,669,672,673,676,680,703,725,738,752,765,768,769,769,769,770,777,783,785,795,805,839,866,874,888,894,896],"ymouse":[492,492,492,492,492,492,492,492,492,492,492,492,492,492,492,492,492,492,492,492,492,492,492,492,492,492,492,492,492,492,492,492,492,492,492,492,492,492,492,492,492,492,492,492,492,492,492,492,492,492,492,492,492,492,492,492,492,492,492,492,492,492,492,492,492,492,492,492,492,492,492,492,492,492,492,492,492,492,492,492,491,483,475,456,430,366,314,291,258,222,203,186,180,171,162,150,138,133,119,107,89,78,74,68,66,66],"timestamp_mouse":[12,32,52,71,91,112,131,150,170,190,210,230,251,270,291,310,330,350,370,390,410,430,450,470,490,510,531,550,571,591,610,631,651,671,692,711,732,750,770,790,812,830,850,870,890,910,930,950,971,990,1010,1030,1051,1072,1091,1111,1130,1150,1171,1191,1210,1231,1251,1271,1291,1310,1331,1351,1370,1390,1410,1431,1451,1470,1490,1510,1531,1552,1570,1590,1610,1631,1650,1672,1690,1710,1731,1751,1771,1792,1810,1832,1850,1870,1890,1910,1930,1951,1970,1991,2010,2031,2051,2071,2091,2110],"xSR":624.5,"ySR":416,"xT1":354.7,"yT1":0,"xT2":894.3,"yT2":0,"toosoon":0,"cond_shown":"Congruent","ratio_trial":200,"L_num":13,"L_den":26,"R_num":14,"R_den":20,"correct_side":2,"subjID":"valentinagomezvanegas","gender":"1","school":"sexto","age":"11"},{"start_time":1551794449384,"click_time":1551794452379,"finger_time":1551794451097,"fix_duration":364.1939483067257,"trial":45,"RT":1713,"MT":1282,"sideResp":2,"stimulus":[],"xmouse":[679,679,679,679,679,679,679,679,679,679,679,679,679,679,679,679,679,679,679,679,679,679,679,679,679,679,679,679,679,679,679,679,679,679,679,679,679,679,679,