[{"start_time":1551899795908,"click_time":1551899832435,"finger_time":1551899795917,"fix_duration":250,"trial":0,"RT":9,"MT":36518,"sideResp":1,"stimulus":[],"xmouse":[779,779,779,779,779,779,779,779,779,779,779,779,779,779,779,779,779,779,779,779,779,779,779,779,779,779,779,779,779,779,779,779,779,779,779,779,783,827,843,850,851,851,851,851,851,851,851,851,851,849,842,835,827,822,812,807,804,802,800,797,793,789,787,784,784,784,784,784,784,784,784,784,784,784,784,784,784,784,784,784,784,784,784,784,784,784,784,784,784,784,784,784,784,784,784,784,784,784,784,784,784,784,784,784,784,784,784,784,784,784,784,784,784,784,784,784,784,784,784,784,784,784,784,784,784,784,784,784,784,784,784,784,784,784,784,784,784,784,784,784,784,784,784,784,784,784,784,784,784,784,784,784,784,784,784,784,784,784,784,784,784,784,784,784,784,784,784,784,784,784,784,784,784,784,784,784,784,784,784,784,784,784,784,784,784,784,784,784,784,784,784,784,784,784,784,784,784,784,784,784,784,784,784,784,784,784,784,784,784,784,784,784,784,784,784,784,784,784,784,784,784,784,784,784,784,784,784,784,784,784,784,784,784,784,784,784,784,784,784,784,784,784,784,784,784,784,784,784,784,784,784,784,784,784,784,784,784,784,784,784,784,784,784,784,784,784,784,784,784,784,784,784,784,784,784,784,784,784,784,784,784,784,784,784,784,784,784,784,784,784,784,784,784,784,784,784,784,784,787,808,812,813,813,813,813,813,813,813,813,813,813,813,813,813,815,828,846,862,871,873,873,873,873,873,873,873,873,873,873,873,873,873,873,873,873,873,873,873,873,873,873,873,873,868,825,774,719,675,671,671,671,671,671,671,671,670,670,670,670,703,747,805,846,870,883,883,883,883,882,880,879,879,879,879,879,879,879,879,879,875,873,872,871,871,871,871,871,871,871,871,871,871,871,871,871,871,871,871,871,871,871,871,871,871,871,871,871,871,871,871,871,871,871,871,871,871,871,871,871,871,871,871,871,871,871,871,871,871,871,871,871,871,871,871,871,871,871,871,871,871,871,865,830,804,796,796,796,796,794,794,794,794,797,805,811,812,812,812,812,812,812,812,812,812,812,812,812,812,814,837,862,892,929,950,965,972,977,983,991,1005,1015,1021,1028,1032,1034,1036,1038,1040,1041,1044,1044,1045,1047,1049,1056,1059,1061,1062,1065,1066,1066,1066,1066,1066,1066,1066,1066,1066,1066,1066,1066,1066,1066,1066,1066,1066,1067,1067,1066,1057,1047,1035,1019,994,944,919,900,885,883,882,882,881,879,879,877,876,874,871,863,844,838,832,827,822,807,800,797,796,796,796,796,796,796,796,796,796,796,795,797,801,804,805,805,805,805,805,805,805,805,805,805,805,805,805,805,805,805,805,805,805,805,805,805,805,805,805,805,805,805,805,805,805,805,805,805,805,805,805,805,805,805,805,805,805,805,805,805,805,805,805,805,805,805,805,805,805,805,805,805,805,805,805,805,805,805,805,805,805,805,805,805,805,805,805,805,805,805,805,805,805,805,805,805,805,805,805,805,805,805,805,805,805,805,805,805,805,805,805,805,805,805,805,805,805,805,805,805,805,805,805,805,805,805,805,805,805,805,805,805,805,805,805,805,805,805,805,805,805,805,805,805,805,805,805,805,805,805,805,805,805,805,805,805,805,805,805,805,805,805,805,805,805,805,805,805,805,805,805,805,805,805,805,805,805,805,805,805,805,805,805,805,805,805,805,805,805,805,805,805,805,805,805,805,805,805,805,805,805,805,805,805,805,805,805,805,805,805,805,805,805,805,805,805,805,805,805,805,805,805,805,805,805,805,805,805,805,805,805,805,805,805,805,805,805,805,805,805,805,805,805,805,805,805,805,805,805,805,805,805,805,805,805,805,805,805,805,805,805,805,805,805,805,805,805,805,805,805,805,805,805,805,805,805,805,805,805,805,805,805,805,805,805,805,805,805,805,805,805,805,805,805,805,805,805,805,805,805,805,805,805,805,805,805,805,805,805,805,805,805,805,805,805,805,805,805,805,805,805,805,805,805,805,805,805,805,805,805,805,805,805,805,805,805,805,805,805,805,805,805,805,805,805,805,805,805,805,805,805,805,805,805,805,805,805,805,805,805,805,805,805,805,805,805,805,805,805,805,805,805,805,805,805,805,805,805,805,805,805,805,805,805,805,805,805,805,805,805,805,805,805,805,805,805,805,805,805,805,805,805,805,805,805,805,805,805,805,805,805,805,805,805,805,805,805,805,805,805,805,805,805,805,805,805,805,805,805,805,805,805,805,805,805,805,805,805,805,805,805,805,805,805,805,805,805,805,805,805,805,805,805,805,805,805,805,805,805,805,805,805,805,805,805,805,805,805,805,805,805,805,805,805,805,805,805,805,805,805,805,805,805,805,805,805,805,805,805,805,805,805,805,805,805,805,805,805,805,805,805,805,805,805,805,805,805,805,805,805,805,805,805,805,805,805,805,805,805,805,805,805,805,805,805,805,805,805,805,805,805,805,805,805,805,805,805,805,805,805,805,805,805,805,805,805,805,805,805,805,805,805,805,805,805,805,805,805,805,805,805,805,805,805,805,805,805,805,805,805,805,805,805,805,805,805,805,805,805,805,805,805,805,805,805,805,805,805,805,805,805,805,805,805,805,805,805,805,805,805,805,805,805,805,805,805,805,805,805,805,805,805,805,805,805,805,805,805,805,805,805,805,805,805,805,805,805,805,805,805,805,805,805,805,805,805,805,805,805,805,805,805,805,805,805,805,805,805,805,805,805,805,805,805,805,805,805,805,805,805,805,805,805,805,805,805,805,805,805,805,805,805,805,805,805,805,805,805,805,805,805,805,805,805,805,805,805,805,805,805,805,805,805,805,805,805,805,805,805,805,805,805,805,805,805,805,805,805,805,805,805,805,805,805,805,805,805,805,805,805,805,805,805,805,805,805,805,805,805,805,805,805,805,805,805,805,805,805,805,805,805,805,805,805,805,805,805,805,805,805,805,805,805,805,805,805,805,805,805,805,805,805,805,805,805,805,805,805,805,805,805,805,805,805,805,805,805,805,805,805,805,805,805,805,805,805,805,805,805,805,805,805,805,805,805,805,805,805,805,805,805,805,805,805,805,805,805,805,805,805,805,805,805,805,805,805,805,805,805,805,805,805,805,805,805,805,805,805,805,805,805,805,805,805,805,805,805,805,805,805,805,805,805,805,805,805,805,805,805,805,805,805,805,805,805,805,805,805,805,805,805,805,805,805,805,805,805,805,805,805,805,805,805,805,805,805,805,805,805,805,805,805,805,805,805,805,805,805,805,805,805,805,805,805,805,805,805,805,805,805,805,805,805,805,805,805,805,805,805,805,805,805,805,805,805,805,805,805,805,805,805,805,805,805,805,805,805,805,805,805,805,805,805,805,805,805,805,805,805,805,805,805,805,805,805,805,805,805,805,805,805,805,805,805,805,805,805,805,805,805,805,805,805,805,805,805,805,805,805,805,805,805,805,805,805,805,805,805,805,805,805,805,805,805,805,805,805,805,805,805,805,805,805,805,805,805,805,805,805,805,805,805,805,805,805,805,805,805,805,805,805,805,805,805,805,805,805,805,805,805,805,805,805,805,805,805,805,805,805,805,805,805,805,805,805,805,805,805,805,805,805,805,805,805,805,805,805,805,805,805,805,805,805,805,805,805,805,805,805,805,805,805,805,805,805,805,805,805,805,805,805,805,805,805,805,805,805,805,805,805,805,805,805,805,805,805,805,805,805,805,805,805,805,805,805,805,805,805,805,805,805,805,805,805,805,805,805,805,805,805,805,805,805,805,805,805,805,805,805,805,805,805,805,805,805,805,805,805,805,805,805,805,805,805,805,805,805,805,805,805,805,805,805,805,805,805,805,805,805,805,805,805,805,805,805,805,805,805,805,805,805,805,805,805,805,805,805,805,805,805,805,805,805,805,805,805,805,805,805,805,805,805,805,805,805,805,805,805,805,805,805,805,805,805,805,805,805,805,805,805,805,805,805,805,805,805,805,805,805,805,805,805,805,805,805,805,805,805,805,805,805,805,805,805,805,805,805,805,805,805,805,805,805,805,805,805,805,805,805,805,805,805,805,805,805,805,805,805,805,805,805,805,805,805,805,805,805,805,800,795,789,785,776,768,759,752,744,697,644,571,518,479,442,437,434,428,423,422,423,426],"ymouse":[490,490,490,490,490,490,490,490,490,490,490,490,490,490,490,490,490,490,490,490,490,490,490,490,490,490,490,490,490,490,490,490,490,490,490,490,496,571,620,671,681,687,689,690,690,690,690,690,690,690,690,685,680,676,662,655,652,648,646,640,635,630,628,627,627,627,627,627,627,627,627,627,627,627,627,627,627,627,627,627,627,627,627,627,627,627,627,627,627,627,627,627,627,627,627,627,627,627,627,627,627,627,627,627,627,627,627,627,627,627,627,627,627,627,627,627,627,627,627,627,627,627,627,627,627,627,627,627,627,627,627,627,627,627,627,627,627,627,627,627,627,627,627,627,627,627,627,627,627,627,627,627,627,627,627,627,627,627,627,627,627,627,627,627,627,627,627,627,627,627,627,627,627,627,627,627,627,627,627,627,627,627,627,627,627,627,627,627,627,627,627,627,627,627,627,627,627,627,627,627,627,627,627,627,627,627,627,627,627,627,627,627,627,627,627,627,627,627,627,627,627,627,627,627,627,627,627,627,627,627,627,627,627,627,627,627,627,627,627,627,627,627,627,627,627,627,627,627,627,627,627,627,627,627,627,627,627,627,627,627,627,627,627,627,627,627,627,627,627,627,627,627,627,627,627,627,627,627,627,627,627,627,627,627,627,627,627,627,627,627,627,627,627,627,627,627,627,627,625,621,620,620,620,620,620,620,620,620,620,620,620,620,620,620,618,589,549,494,459,437,437,437,437,437,437,437,437,437,437,437,437,437,437,437,437,437,437,437,437,437,437,437,442,459,522,586,651,702,705,706,706,706,706,706,706,706,706,706,706,675,653,636,623,619,617,617,617,617,619,623,624,624,626,626,627,627,627,627,627,625,625,623,623,623,623,623,623,623,623,623,623,623,623,623,623,623,623,623,623,623,623,623,623,623,623,623,623,623,623,623,623,623,623,623,623,623,623,623,623,623,623,623,623,623,623,623,623,623,623,623,623,623,623,623,623,623,623,623,623,623,623,612,563,540,528,526,526,526,526,540,547,554,562,574,584,586,586,586,586,586,586,586,586,586,586,586,586,586,586,543,515,490,460,439,393,371,352,334,301,257,235,219,204,191,181,177,173,171,169,166,165,163,161,156,145,140,135,131,124,122,122,122,122,122,122,122,122,122,122,122,122,122,122,122,122,122,121,121,125,142,157,177,201,233,311,370,405,429,435,440,443,449,458,469,486,491,501,519,539,588,602,615,627,634,649,654,657,658,658,658,658,658,658,658,658,658,658,658,648,635,626,625,625,625,625,625,625,625,625,625,625,625,625,625,625,625,625,625,625,625,625,625,625,625,625,625,625,625,625,625,625,625,625,625,625,625,625,625,625,625,625,625,625,625,625,625,625,625,625,625,625,625,625,625,625,625,625,625,625,625,625,625,625,625,625,625,625,625,625,625,625,625,625,625,625,625,625,625,625,625,625,625,625,625,625,625,625,625,625,625,625,625,625,625,625,625,625,625,625,625,625,625,625,625,625,625,625,625,625,625,625,625,625,625,625,625,625,625,625,625,625,625,625,625,625,625,625,625,625,625,625,625,625,625,625,625,625,625,625,625,625,625,625,625,625,625,625,625,625,625,625,625,625,625,625,625,625,625,625,625,625,625,625,625,625,625,625,625,625,625,625,625,625,625,625,625,625,625,625,625,625,625,625,625,625,625,625,625,625,625,625,625,625,625,625,625,625,625,625,625,625,625,625,625,625,625,625,625,625,625,625,625,625,625,625,625,625,625,625,625,625,625,625,625,625,625,625,625,625,625,625,625,625,625,625,625,625,625,625,625,625,625,625,625,625,625,625,625,625,625,625,625,625,625,625,625,625,625,625,625,625,625,625,625,625,625,625,625,625,625,625,625,625,625,625,625,625,625,625,625,625,625,625,625,625,625,625,625,625,625,625,625,625,625,625,625,625,625,625,625,625,625,625,625,625,625,625,625,625,625,625,625,625,625,625,625,625,625,625,625,625,625,625,625,625,625,625,625,625,625,625,625,625,625,625,625,625,625,625,625,625,625,625,625,625,625,625,625,625,625,625,625,625,625,625,625,625,625,625,625,625,625,625,625,625,625,625,625,625,625,625,625,625,625,625,625,625,625,625,625,625,625,625,625,625,625,625,625,625,625,625,625,625,625,625,625,625,625,625,625,625,625,625,625,625,625,625,625,625,625,625,625,625,625,625,625,625,625,625,625,625,625,625,625,625,625,625,625,625,625,625,625,625,625,625,625,625,625,625,625,625,625,625,625,625,625,625,625,625,625,625,625,625,625,625,625,625,625,625,625,625,625,625,625,625,625,625,625,625,625,625,625,625,625,625,625,625,625,625,625,625,625,625,625,625,625,625,625,625,625,625,625,625,625,625,625,625,625,625,625,625,625,625,625,625,625,625,625,625,625,625,625,625,625,625,625,625,625,625,625,625,625,625,625,625,625,625,625,625,625,625,625,625,625,625,625,625,625,625,625,625,625,625,625,625,625,625,625,625,625,625,625,625,625,625,625,625,625,625,625,625,625,625,625,625,625,625,625,625,625,625,625,625,625,625,625,625,625,625,625,625,625,625,625,625,625,625,625,625,625,625,625,625,625,625,625,625,625,625,625,625,625,625,625,625,625,625,625,625,625,625,625,625,625,625,625,625,625,625,625,625,625,625,625,625,625,625,625,625,625,625,625,625,625,625,625,625,625,625,625,625,625,625,625,625,625,625,625,625,625,625,625,625,625,625,625,625,625,625,625,625,625,625,625,625,625,625,625,625,625,625,625,625,625,625,625,625,625,625,625,625,625,625,625,625,625,625,625,625,625,625,625,625,625,625,625,625,625,625,625,625,625,625,625,625,625,625,625,625,625,625,625,625,625,625,625,625,625,625,625,625,625,625,625,625,625,625,625,625,625,625,625,625,625,625,625,625,625,625,625,625,625,625,625,625,625,625,625,625,625,625,625,625,625,625,625,625,625,625,625,625,625,625,625,625,625,625,625,625,625,625,625,625,625,625,625,625,625,625,625,625,625,625,625,625,625,625,625,625,625,625,625,625,625,625,625,625,625,625,625,625,625,625,625,625,625,625,625,625,625,625,625,625,625,625,625,625,625,625,625,625,625,625,625,625,625,625,625,625,625,625,625,625,625,625,625,625,625,625,625,625,625,625,625,625,625,625,625,625,625,625,625,625,625,625,625,625,625,625,625,625,625,625,625,625,625,625,625,625,625,625,625,625,625,625,625,625,625,625,625,625,625,625,625,625,625,625,625,625,625,625,625,625,625,625,625,625,625,625,625,625,625,625,625,625,625,625,625,625,625,625,625,625,625,625,625,625,625,625,625,625,625,625,625,625,625,625,625,625,625,625,625,625,625,625,625,625,625,625,625,625,625,625,625,625,625,625,625,625,625,625,625,625,625,625,625,625,625,625,625,625,625,625,625,625,625,625,625,625,625,625,625,625,625,625,625,625,625,625,625,625,625,625,625,625,625,625,625,625,625,625,625,625,625,625,625,625,625,625,625,625,625,625,625,625,625,625,625,625,625,625,625,625,625,625,625,625,625,625,625,625,625,625,625,625,625,625,625,625,625,625,625,625,625,625,625,625,625,625,625,625,625,625,625,625,625,625,625,625,625,625,625,625,625,625,625,625,625,625,625,625,625,625,625,625,625,625,625,625,625,625,625,625,625,625,625,625,625,625,625,625,625,625,625,625,625,625,625,625,625,625,625,625,625,625,625,625,625,625,625,625,625,625,625,625,625,625,625,625,625,625,625,625,625,625,625,625,625,625,625,625,625,625,625,625,625,625,625,625,625,625,625,625,625,625,625,625,625,625,625,625,625,625,625,625,625,625,625,625,625,625,625,625,625,625,625,625,625,625,625,625,625,625,625,625,625,625,625,625,625,625,625,625,625,625,625,625,625,625,625,625,625,625,625,625,625,625,625,625,625,625,625,625,625,625,625,625,625,625,625,625,625,625,625,625,625,625,625,625,625,625,625,625,625,625,625,625,625,625,625,625,625,625,625,625,625,625,625,625,625,625,625,625,625,625,625,625,625,625,625,625,625,625,625,625,598,584,565,539,502,483,466,452,438,387,344,295,254,226,180,163,145,127,111,95,93,93],"timestamp_mouse":[9,26,48,67,87,107,127,147,168,187,206,227,246,267,287,307,327,347,366,388,407,427,447,467,486,506,528,546,567,588,608,627,647,668,687,707,727,747,767,786,806,826,848,868,887,907,927,947,967,987,1007,1027,1046,1066,1087,1107,1126,1147,1167,1187,1206,1228,1247,1268,1288,1306,1327,1347,1368,1388,1407,1426,1447,1467,1488,1508,1527,1547,1566,1588,1608,1627,1647,1668,1687,1708,1727,1747,1766,1788,1806,1828,1848,1868,1888,1908,1928,1946,1968,1988,2007,2027,2046,2067,2087,2108,2128,2146,2168,2186,2208,2227,2247,2266,2288,2308,2327,2347,2367,2387,2408,2428,2447,2466,2487,2507,2527,2547,2567,2588,2608,2626,2647,2667,2688,2707,2727,2747,2767,2788,2807,2828,2848,2868,2887,2908,2927,2948,2967,2987,3006,3027,3047,3067,3086,3106,3128,3147,3168,3188,3207,3227,3247,3268,3288,3308,3327,3348,3368,3388,3406,3428,3447,3466,3487,3508,3528,3547,3567,3586,3607,3627,3648,3668,3687,3706,3728,3747,3768,3787,3807,3828,3848,3867,3888,3908,3928,3948,3967,3987,4007,4028,4048,4067,4088,4108,4128,4146,4167,4187,4208,4226,4246,4268,4287,4307,4328,4346,4368,4387,4406,4427,4448,4467,4486,4506,4528,4548,4567,4586,4608,4627,4648,4667,4688,4707,4727,4746,4768,4787,4806,4828,4846,4868,4888,4906,4927,4947,4967,4987,5007,5027,5048,5066,5087,5106,5127,5147,5168,5186,5207,5228,5248,5267,5287,5307,5326,5348,5366,5387,5407,5426,5447,5467,5487,5506,5527,5547,5567,5587,5607,5626,5647,5667,5687,5708,5727,5747,5768,5788,5807,5826,5847,5867,5888,5906,5926,5948,5968,5987,6007,6027,6047,6066,6086,6108,6126,6148,6168,6188,6207,6226,6248,6267,6287,6308,6327,6347,6368,6387,6406,6427,6447,6466,6488,6507,6527,6547,6567,6588,6606,6626,6648,6668,6688,6707,6728,6747,6768,6787,6807,6826,6847,6867,6886,6906,6926,6947,6967,6987,7007,7028,7047,7067,7087,7107,7127,7147,7167,7186,7207,7228,7247,7268,7287,7306,7327,7347,7368,7387,7408,7428,7446,7467,7488,7508,7528,7548,7567,7587,7608,7627,7647,7668,7687,7706,7726,7747,7768,7787,7807,7827,7847,7867,7887,7906,7927,7947,7966,7987,8008,8027,8046,8066,8087,8107,8126,8148,8167,8187,8206,8226,8246,8268,8288,8307,8328,8347,8367,8388,8406,8428,8448,8467,8488,8508,8527,8546,8566,8588,8608,8627,8646,8667,8688,8708,8728,8747,8768,8787,8807,8828,8848,8866,8886,8907,8928,8947,8968,8987,9008,9028,9047,9067,9087,9108,9127,9147,9167,9186,9206,9228,9246,9267,9288,9307,9327,9347,9367,9387,9407,9427,9446,9467,9487,9506,9526,9548,9567,9587,9607,9627,9647,9668,9687,9708,9728,9748,9768,9787,9807,9827,9847,9868,9886,9908,9927,9947,9966,9987,10008,10027,10047,10067,10087,10107,10127,10146,10168,10188,10208,10228,10247,10268,10287,10306,10327,10347,10367,10387,10407,10428,10447,10468,10486,10507,10527,10547,10567,10587,10606,10627,10648,10667,10687,10707,10727,10747,10766,10787,10808,10828,10847,10867,10887,10908,10927,10946,10968,10988,11008,11027,11048,11066,11086,11108,11126,11147,11167,11187,11208,11227,11248,11267,11286,11308,11328,11346,11367,11387,11408,11428,11447,11468,11488,11506,11527,11547,11567,11586,11607,11627,11647,11667,11687,11707,11728,11748,11766,11788,11807,11827,11846,11868,11886,11908,11927,11947,11968,11987,12007,12028,12046,12067,12086,12107,12126,12147,12168,12186,12206,12227,12247,12267,12286,12307,12327,12347,12367,12388,12408,12428,12447,12467,12487,12506,12527,12547,12566,12588,12608,12626,12646,12667,12687,12708,12726,12748,12768,12788,12807,12827,12848,12868,12886,12908,12927,12946,12968,12986,13006,13027,13046,13067,13087,13106,13127,13147,13166,13187,13207,13227,13246,13266,13288,13307,13326,13347,13368,13387,13407,13427,13446,13467,13487,13507,13526,13547,13566,13586,13608,13626,13647,13667,13686,13707,13728,13746,13766,13788,13806,13828,13846,13867,13887,13908,13928,13947,13967,13988,14006,14027,14047,14067,14086,14107,14127,14147,14167,14186,14206,14227,14247,14268,14286,14306,14327,14347,14366,14387,14406,14426,14448,14467,14486,14506,14527,14546,14567,14587,14607,14627,14647,14667,14686,14707,14726,14748,14766,14787,14807,14826,14848,14867,14887,14907,14927,14948,14966,14988,15007,15027,15046,15068,15088,15107,15127,15148,15167,15188,15208,15228,15247,15268,15288,15308,15327,15348,15368,15387,15408,15427,15447,15468,15487,15507,15528,15547,15568,15586,15607,15627,15647,15666,15687,15708,15726,15748,15768,15787,15806,15828,15848,15867,15886,15907,15928,15948,15967,15986,16008,16027,16046,16068,16088,16106,16128,16147,16167,16188,16208,16227,16247,16266,16288,16306,16326,16348,16368,16386,16407,16427,16447,16468,16487,16506,16528,16548,16568,16586,16606,16627,16648,16667,16688,16708,16728,16747,16768,16788,16806,16827,16847,16867,16888,16906,16927,16947,16968,16986,17008,17027,17048,17067,17088,17106,17127,17147,17168,17188,17206,17228,17247,17267,17287,17308,17327,17348,17366,17387,17408,17428,17448,17466,17488,17508,17526,17546,17568,17587,17608,17627,17647,17668,17687,17708,17726,17747,17768,17788,17806,17828,17846,17868,17888,17906,17926,17948,17968,17986,18008,18026,18047,18068,18088,18106,18128,18147,18167,18188,18208,18227,18247,18266,18287,18308,18327,18346,18367,18387,18406,18428,18448,18466,18487,18508,18526,18548,18568,18587,18608,18628,18646,18667,18687,18706,18726,18747,18766,18787,18808,18828,18847,18866,18888,18907,18926,18947,18968,18988,19007,19026,19047,19067,19088,19108,19127,19146,19167,19187,19207,19227,19246,19266,19288,19306,19326,19346,19367,19387,19407,19426,19447,19468,19488,19507,19527,19548,19566,19586,19607,19628,19646,19667,19687,19707,19728,19747,19766,19788,19807,19827,19848,19867,19887,19908,19928,19947,19967,19986,20007,20027,20047,20066,20087,20108,20127,20147,20167,20187,20207,20226,20246,20268,20287,20306,20326,20346,20368,20388,20406,20426,20447,20468,20487,20507,20528,20546,20568,20587,20607,20627,20646,20668,20687,20706,20727,20748,20767,20787,20807,20827,20847,20866,20888,20907,20927,20946,20968,20988,21007,21027,21047,21067,21086,21108,21127,21147,21166,21188,21207,21227,21246,21267,21288,21306,21328,21346,21368,21387,21407,21427,21446,21467,21486,21506,21528,21548,21567,21587,21607,21627,21648,21668,21687,21707,21727,21747,21767,21787,21807,21827,21847,21867,21887,21907,21927,21947,21967,21988,22007,22026,22047,22068,22088,22106,22126,22147,22167,22186,22206,22227,22248,22267,22287,22306,22326,22346,22366,22386,22406,22426,22447,22467,22487,22506,22527,22547,22566,22587,22608,22627,22648,22667,22686,22706,22727,22747,22767,22787,22806,22828,22846,22866,22886,22906,22927,22947,22967,22988,23006,23028,23047,23068,23087,23107,23127,23146,23167,23186,23208,23228,23246,23267,23287,23307,23326,23346,23367,23387,23407,23427,23446,23468,23487,23506,23527,23547,23567,23587,23607,23627,23646,23668,23686,23707,23727,23748,23766,23787,23807,23826,23847,23868,23888,23907,23927,23947,23967,23987,24008,24028,24046,24067,24088,24108,24128,24147,24167,24187,24208,24227,24246,24268,24287,24307,24327,24348,24366,24386,24408,24427,24448,24466,24488,24506,24527,24548,24567,24586,24608,24627,24647,24666,24688,24707,24727,24748,24767,24786,24808,24828,24848,24867,24887,24908,24926,24948,24966,24988,25008,25027,25047,25067,25088,25107,25127,25148,25168,25187,25206,25227,25248,25268,25288,25307,25328,25347,25368,25388,25407,25427,25446,25466,25487,25507,25527,25547,25568,25586,25608,25628,25646,25667,25687,25707,25726,25746,25767,25787,25807,25827,25848,25866,25886,25907,25927,25947,25967,25988,26007,26027,26047,26068,26087,26107,26127,26147,26168,26186,26208,26226,26246,26267,26288,26307,26326,26347,26367,26388,26408,26428,26446,26467,26487,26506,26527,26547,26568,26586,26607,26627,26647,26667,26688,26707,26727,26748,26766,26787,26807,26828,26846,26867,26888,26908,26928,26948,26968,26988,27008,27027,27047,27067,27088,27108,27127,27147,27168,27188,27208,27227,27246,27268,27288,27306,27327,27348,27367,27387,27408,27426,27448,27468,27487,27508,27528,27547,27568,27588,27607,27628,27647,27668,27688,27708,27728,27747,27768,27788,27807,27826,27848,27866,27887,27908,27926,27947,27968,27988,28007,28027,28048,28067,28088,28108,28127,28148,28168,28187,28208,28226,28248,28268,28288,28307,28326,28347,28367,28386,28406,28427,28447,28467,28487,28507,28528,28547,28566,28587,28606,28626,28648,28668,28687,28706,28728,28747,28766,28788,28807,28828,28846,28868,28887,28908,28928,28947,28967,28988,29007,29027,29046,29068,29086,29108,29127,29146,29167,29186,29207,29226,29246,29268,29286,29306,29326,29347,29367,29386,29407,29426,29448,29466,29488,29507,29526,29546,29567,29588,29606,29628,29646,29667,29687,29706,29726,29747,29768,29787,29807,29827,29847,29866,29887,29908,29926,29948,29967,29988,30007,30027,30046,30067,30087,30106,30126,30148,30167,30187,30208,30226,30246,30267,30288,30308,30326,30348,30366,30387,30408,30426,30448,30467,30488,30506,30527,30546,30568,30587,30607,30626,30646,30667,30687,30707,30727,30746,30766,30788,30807,30826,30847,30868,30887,30907,30926,30948,30967,30988,31007,31028,31048,31068,31088,31107,31128,31146,31168,31187,31206,31227,31246,31266,31287,31308,31326,31348,31366,31387,31408,31428,31448,31466,31487,31506,31528,31548,31566,31588,31608,31626,31647,31667,31687,31706,31728,31747,31767,31787,31808,31827,31847,31866,31888,31908,31928,31948,31968,31986,32008,32028,32046,32068,32087,32108,32127,32147,32167,32187,32208,32227,32247,32267,32287,32308,32327,32348,32368,32387,32408,32427,32447,32466,32487,32507,32527,32548,32568,32586,32607,32627,32647,32666,32688,32708,32727,32747,32768,32788,32807,32827,32847,32868,32887,32907,32927,32947,32967,32987,33006,33027,33048,33068,33087,33107,33127,33147,33166,33187,33207,33227,33247,33267,33287,33306,33328,33346,33367,33387,33408,33428,33446,33467,33487,33506,33527,33547,33567,33586,33607,33627,33647,33666,33688,33706,33726,33747,33767,33787,33808,33826,33848,33866,33886,33908,33927,33947,33966,33987,34007,34028,34048,34067,34087,34107,34128,34147,34166,34187,34206,34228,34246,34266,34287,34307,34327,34346,34366,34386,34408,34428,34452,34466,34487,34508,34528,34547,34567,34587,34606,34626,34647,34666,34686,34708,34727,34748,34768,34786,34807,34826,34848,34866,34886,34908,34927,34947,34968,34986,35008,35028,35048,35067,35088,35107,35128,35147,35167,35186,35207,35227,35248,35268,35287,35306,35326,35347,35367,35386,35406,35426,35448,35466,35486,35507,35526,35547,35566,35587,35607,35627,35646,35666,35688,35707,35727,35747,35767,35787,35806,35826,35846,35867,35888,35907,35927,35947,35966,35987,36008,36026,36048,36067,36087,36107,36127,36148,36168,36187,36207,36226,36246,36267,36287,36308,36326,36347,36368,36387,36408,36426,36447,36467,36486,36506,36527],"xSR":741.5,"ySR":449.15000000000003,"xT1":424.9,"yT1":0,"xT2":1058.1,"yT2":0,"toosoon":0,"cond_shown":"Congruent","ratio_trial":100,"L_num":1,"L_den":2,"R_num":18,"R_den":30,"correct_side":2,"subjID":"DiegoAlejandroSalamancaRamirez23","gender":"0","age":"11","school":"6","test":{"fix_dur":[250,1500],"timestim":1000,"targets_dim":[100,100],"targets_relative_coord":[0.3,0.7],"size_stim":[880,420],"start_dim":[100,100],"size_start":[300,300],"size_fix":60,"samplingrate":20,"img_types":["Congruent","Incongruent"],"ratios":[100,200,300],"rep_conds":19,"nTrials":120,"trials_to_rest":500,"Trials_order":[30,23,46,93,96,55,70,68,72,59,31,19,52,90,98,17,44,94,73,13,62,41,115,69,47,56,117,4,57,61,110,38,65,105,2,67,100,99,119,48,14,39,12,85,118,32,112,91,10,84,63,74,15,95,35,97,26,71,49,3,54,28,6,20,88,7,5,102,18,45,51,81,79,24,36,108,42,106,64,53,34,89,75,87,92,113,8,78,58,21,29,60,103,40,0,101,86,22,114,107,25,76,43,104,80,37,33,27,50,82,109,9,1,77,16,11,83,116,111,66],"cond_shown":["Congruent","Incongruent","Congruent","Incongruent","Congruent","Incongruent","Congruent","Congruent","Congruent","Incongruent","Incongruent","Incongruent","Congruent","Congruent","Congruent","Incongruent","Congruent","Congruent","Incongruent","Incongruent","Congruent","Incongruent","Incongruent","Incongruent","Incongruent","Congruent","Incongruent","Congruent","Incongruent","Incongruent","Congruent","Congruent","Incongruent","Incongruent","Congruent","Incongruent","Congruent","Incongruent","Incongruent","Congruent","Congruent","Incongruent","Congruent","Incongruent","Congruent","Congruent","Congruent","Incongruent","Congruent","Congruent","Incongruent","Congruent","Incongruent","Incongruent","Incongruent","Incongruent","Congruent","Incongruent","Incongruent","Incongruent","Congruent","Congruent","Congruent","Congruent","Congruent","Incongruent","Incongruent","Congruent","Congruent","Incongruent","Incongruent","Incongruent","Incongruent","Congruent","Congruent","Congruent","Congruent","Congruent","Congruent","Incongruent","Congruent","Incongruent","Incongruent","Incongruent","Congruent","Incongruent","Congruent","Congruent","Congruent","Incongruent","Incongruent","Congruent","Incongruent","Congruent","Congruent","Incongruent","Congruent","Congruent","Congruent","Incongruent","Incongruent","Congruent","Incongruent","Congruent","Congruent","Incongruent","Incongruent","Incongruent","Congruent","Congruent","Incongruent","Incongruent","Incongruent","Incongruent","Congruent","Incongruent","Incongruent","Congruent","Incongruent","Congruent"],"ratio_trial":[100,300,300,200,100,100,300,200,100,300,100,100,300,100,200,300,200,300,100,100,200,300,100,200,300,200,200,300,200,100,200,200,300,200,200,100,300,200,300,100,200,200,100,100,300,200,300,100,300,100,200,200,200,300,300,100,200,300,100,200,100,300,100,200,300,100,300,100,100,200,200,200,100,100,100,100,100,300,300,300,300,300,200,200,200,300,200,100,300,200,300,100,100,300,100,300,200,300,100,300,100,300,100,200,200,100,200,200,200,300,100,200,100,300,300,300,300,200,200,100],"left_num":[1,4,4,7,1,13,1,3,6,3,3,8,5,1,6,4,21,11,2,10,13,13,9,1,13,6,7,2,7,6,16,1,13,11,16,8,1,4,4,3,16,7,15,12,11,3,3,3,20,4,7,4,1,1,13,6,3,1,8,9,8,4,7,4,20,12,7,10,2,7,9,4,8,8,10,3,1,1,5,4,11,3,6,7,7,4,15,11,3,4,3,3,2,4,4,8,13,20,6,13,8,1,6,13,6,6,4,7,9,24,9,4,8,13,1,13,4,8,9,6],"right_num":[18,2,2,12,18,6,19,11,5,4,7,6,6,18,7,2,2,4,8,8,14,12,14,2,12,7,4,10,6,13,9,21,12,3,12,1,7,6,2,4,9,6,13,9,4,7,2,4,14,6,4,3,2,3,12,3,14,3,1,8,2,2,15,3,9,2,8,3,6,8,8,14,1,2,3,2,18,8,6,6,4,4,3,8,2,2,4,4,11,6,4,4,8,2,6,9,14,13,15,12,1,3,7,14,3,13,6,12,4,8,6,14,6,12,7,12,8,3,8,15],"left_den":[2,20,5,10,2,26,3,10,20,6,9,16,25,2,12,20,30,22,4,25,26,26,15,3,26,12,15,20,15,10,30,2,26,20,20,20,20,5,20,20,30,15,25,24,22,10,6,6,25,8,15,10,3,2,26,12,10,2,20,15,16,5,14,8,25,30,10,25,5,10,15,6,20,16,25,6,2,30,25,5,22,6,20,10,21,20,25,22,12,5,6,20,4,5,8,10,26,25,12,26,20,5,10,26,15,10,5,10,20,30,18,6,16,26,20,26,5,15,15,12],"right_den":[30,4,4,24,30,10,30,22,25,20,30,10,12,30,10,4,4,20,20,16,20,15,28,15,15,10,6,25,9,26,27,30,15,4,20,2,20,10,4,16,27,9,26,15,20,14,10,10,28,10,6,15,15,15,15,5,28,15,2,10,5,4,25,10,18,4,20,10,12,16,10,30,2,5,10,5,30,24,12,12,20,20,6,16,15,4,10,10,20,10,20,16,20,4,10,18,20,26,25,15,2,6,14,20,15,26,10,24,16,16,10,30,10,15,20,15,16,9,10,25],"correct_side":[2,2,1,1,2,2,2,2,1,1,1,2,2,2,2,2,1,1,1,2,2,2,1,1,2,2,2,2,2,1,1,2,2,2,1,2,2,1,2,2,1,2,1,2,1,2,1,1,1,2,2,1,1,1,2,2,2,1,2,2,1,1,2,1,1,2,1,1,2,1,2,1,2,1,1,1,2,2,2,1,1,1,2,1,1,2,1,1,2,1,1,2,1,1,2,1,2,1,2,2,2,2,1,2,1,1,1,1,1,1,2,1,2,2,2,2,1,1,2,2],"img_shown":["img2/100/Congruent/R/C_Dist_100_LN_1_LD_2_RN_18_RD_30_1.png","img2/300/Incongruent/R/I_Dist_300_LN_4_LD_20_RN_2_RD_4_1.png","img2/300/Congruent/L/C_Dist_300_LN_4_LD_5_RN_2_RD_4_0.png","img2/200/Incongruent/L/I_Dist_200_LN_7_LD_10_RN_12_RD_24_0.png","img2/100/Congruent/R/C_Dist_100_LN_1_LD_2_RN_18_RD_30_1.png","img2/100/Incongruent/R/I_Dist_100_LN_13_LD_26_RN_6_RD_10_1.png","img2/300/Congruent/R/C_Dist_300_LN_1_LD_3_RN_19_RD_30_1.png","img2/200/Congruent/R/C_Dist_200_LN_3_LD_10_RN_11_RD_22_1.png","img2/100/Congruent/L/C_Dist_100_LN_6_LD_20_RN_5_RD_25_0.png","img2/300/Incongruent/L/I_Dist_300_LN_3_LD_6_RN_4_RD_20_0.png","img2/100/Incongruent/L/I_Dist_100_LN_3_LD_9_RN_7_RD_30_0.png","img2/100/Incongruent/R/I_Dist_100_LN_8_LD_16_RN_6_RD_10_1.png","img2/300/Congruent/R/C_Dist_300_LN_5_LD_25_RN_6_RD_12_1.png","img2/100/Congruent/R/C_Dist_100_LN_1_LD_2_RN_18_RD_30_1.png","img2/200/Congruent/R/C_Dist_200_LN_6_LD_12_RN_7_RD_10_1.png","img2/300/Incongruent/R/I_Dist_300_LN_4_LD_20_RN_2_RD_4_1.png","img2/200/Congruent/L/C_Dist_200_LN_21_LD_30_RN_2_RD_4_0.png","img2/300/Congruent/L/C_Dist_300_LN_11_LD_22_RN_4_RD_20_0.png","img2/100/Incongruent/L/I_Dist_100_LN_2_LD_4_RN_8_RD_20_0.png","img2/100/Incongruent/R/I_Dist_100_LN_10_LD_25_RN_8_RD_16_1.png","img2/200/Congruent/R/C_Dist_200_LN_13_LD_26_RN_14_RD_20_1.png","img2/300/Incongruent/R/I_Dist_300_LN_13_LD_26_RN_12_RD_15_1.png","img2/100/Incongruent/L/I_Dist_100_LN_9_LD_15_RN_14_RD_28_0.png","img2/200/Incongruent/L/I_Dist_200_LN_1_LD_3_RN_2_RD_15_0.png","img2/300/Incongruent/R/I_Dist_300_LN_13_LD_26_RN_12_RD_15_1.png","img2/200/Congruent/R/C_Dist_200_LN_6_LD_12_RN_7_RD_10_1.png","img2/200/Incongruent/R/I_Dist_200_LN_7_LD_15_RN_4_RD_6_1.png","img2/300/Congruent/R/C_Dist_300_LN_2_LD_20_RN_10_RD_25_1.png","img2/200/Incongruent/R/I_Dist_200_LN_7_LD_15_RN_6_RD_9_1.png","img2/100/Incongruent/L/I_Dist_100_LN_6_LD_10_RN_13_RD_26_0.png","img2/200/Congruent/L/C_Dist_200_LN_16_LD_30_RN_9_RD_27_0.png","img2/200/Congruent/R/C_Dist_200_LN_1_LD_2_RN_21_RD_30_1.png","img2/300/Incongruent/R/I_Dist_300_LN_13_LD_26_RN_12_RD_15_1.png","img2/200/Incongruent/R/I_Dist_200_LN_11_LD_20_RN_3_RD_4_1.png","img2/200/Congruent/L/C_Dist_200_LN_16_LD_20_RN_12_RD_20_0.png","img2/100/Incongruent/R/I_Dist_100_LN_8_LD_20_RN_1_RD_2_1.png","img2/300/Congruent/R/C_Dist_300_LN_1_LD_20_RN_7_RD_20_1.png","img2/200/Incongruent/L/I_Dist_200_LN_4_LD_5_RN_6_RD_10_0.png","img2/300/Incongruent/R/I_Dist_300_LN_4_LD_20_RN_2_RD_4_1.png","img2/100/Congruent/R/C_Dist_100_LN_3_LD_20_RN_4_RD_16_1.png","img2/200/Congruent/L/C_Dist_200_LN_16_LD_30_RN_9_RD_27_0.png","img2/200/Incongruent/R/I_Dist_200_LN_7_LD_15_RN_6_RD_9_1.png","img2/100/Congruent/L/C_Dist_100_LN_15_LD_25_RN_13_RD_26_0.png","img2/100/Incongruent/R/I_Dist_100_LN_12_LD_24_RN_9_RD_15_1.png","img2/300/Congruent/L/C_Dist_300_LN_11_LD_22_RN_4_RD_20_0.png","img2/200/Congruent/R/C_Dist_200_LN_3_LD_10_RN_7_RD_14_1.png","img2/300/Congruent/L/C_Dist_300_LN_3_LD_6_RN_2_RD_10_0.png","img2/100/Incongruent/L/I_Dist_100_LN_3_LD_6_RN_4_RD_10_0.png","img2/300/Congruent/L/C_Dist_300_LN_20_LD_25_RN_14_RD_28_0.png","img2/100/Congruent/R/C_Dist_100_LN_4_LD_8_RN_6_RD_10_1.png","img2/200/Incongruent/R/I_Dist_200_LN_7_LD_15_RN_4_RD_6_1.png","img2/200/Congruent/L/C_Dist_200_LN_4_LD_10_RN_3_RD_15_0.png","img2/200/Incongruent/L/I_Dist_200_LN_1_LD_3_RN_2_RD_15_0.png","img2/300/Incongruent/L/I_Dist_300_LN_1_LD_2_RN_3_RD_15_0.png","img2/300/Incongruent/R/I_Dist_300_LN_13_LD_26_RN_12_RD_15_1.png","img2/100/Incongruent/R/I_Dist_100_LN_6_LD_12_RN_3_RD_5_1.png","img2/200/Congruent/R/C_Dist_200_LN_3_LD_10_RN_14_RD_28_1.png","img2/300/Incongruent/L/I_Dist_300_LN_1_LD_2_RN_3_RD_15_0.png","img2/100/Incongruent/R/I_Dist_100_LN_8_LD_20_RN_1_RD_2_1.png","img2/200/Incongruent/R/I_Dist_200_LN_9_LD_15_RN_8_RD_10_1.png","img2/100/Congruent/L/C_Dist_100_LN_8_LD_16_RN_2_RD_5_0.png","img2/300/Congruent/L/C_Dist_300_LN_4_LD_5_RN_2_RD_4_0.png","img2/100/Congruent/R/C_Dist_100_LN_7_LD_14_RN_15_RD_25_1.png","img2/200/Congruent/L/C_Dist_200_LN_4_LD_8_RN_3_RD_10_0.png","img2/300/Congruent/L/C_Dist_300_LN_20_LD_25_RN_9_RD_18_0.png","img2/100/Incongruent/R/I_Dist_100_LN_12_LD_30_RN_2_RD_4_1.png","img2/300/Incongruent/L/I_Dist_300_LN_7_LD_10_RN_8_RD_20_0.png","img2/100/Congruent/L/C_Dist_100_LN_10_LD_25_RN_3_RD_10_0.png","img2/100/Congruent/R/C_Dist_100_LN_2_LD_5_RN_6_RD_12_1.png","img2/200/Incongruent/L/I_Dist_200_LN_7_LD_10_RN_8_RD_16_0.png","img2/200/Incongruent/R/I_Dist_200_LN_9_LD_15_RN_8_RD_10_1.png","img2/200/Incongruent/L/I_Dist_200_LN_4_LD_6_RN_14_RD_30_0.png","img2/100/Incongruent/R/I_Dist_100_LN_8_LD_20_RN_1_RD_2_1.png","img2/100/Congruent/L/C_Dist_100_LN_8_LD_16_RN_2_RD_5_0.png","img2/100/Congruent/L/C_Dist_100_LN_10_LD_25_RN_3_RD_10_0.png","img2/100/Congruent/L/C_Dist_100_LN_3_LD_6_RN_2_RD_5_0.png","img2/100/Congruent/R/C_Dist_100_LN_1_LD_2_RN_18_RD_30_1.png","img2/300/Congruent/R/C_Dist_300_LN_1_LD_30_RN_8_RD_24_1.png","img2/300/Congruent/R/C_Dist_300_LN_5_LD_25_RN_6_RD_12_1.png","img2/300/Incongruent/L/I_Dist_300_LN_4_LD_5_RN_6_RD_12_0.png","img2/300/Congruent/L/C_Dist_300_LN_11_LD_22_RN_4_RD_20_0.png","img2/300/Incongruent/L/I_Dist_300_LN_3_LD_6_RN_4_RD_20_0.png","img2/200/Incongruent/R/I_Dist_200_LN_6_LD_20_RN_3_RD_6_1.png","img2/200/Incongruent/L/I_Dist_200_LN_7_LD_10_RN_8_RD_16_0.png","img2/200/Congruent/L/C_Dist_200_LN_7_LD_21_RN_2_RD_15_0.png","img2/300/Incongruent/R/I_Dist_300_LN_4_LD_20_RN_2_RD_4_1.png","img2/200/Congruent/L/C_Dist_200_LN_15_LD_25_RN_4_RD_10_0.png","img2/100/Congruent/L/C_Dist_100_LN_11_LD_22_RN_4_RD_10_0.png","img2/300/Congruent/R/C_Dist_300_LN_3_LD_12_RN_11_RD_20_1.png","img2/200/Incongruent/L/I_Dist_200_LN_4_LD_5_RN_6_RD_10_0.png","img2/300/Incongruent/L/I_Dist_300_LN_3_LD_6_RN_4_RD_20_0.png","img2/100/Congruent/R/C_Dist_100_LN_3_LD_20_RN_4_RD_16_1.png","img2/100/Incongruent/L/I_Dist_100_LN_2_LD_4_RN_8_RD_20_0.png","img2/300/Congruent/L/C_Dist_300_LN_4_LD_5_RN_2_RD_4_0.png","img2/100/Congruent/R/C_Dist_100_LN_4_LD_8_RN_6_RD_10_1.png","img2/300/Incongruent/L/I_Dist_300_LN_8_LD_10_RN_9_RD_18_0.png","img2/200/Congruent/R/C_Dist_200_LN_13_LD_26_RN_14_RD_20_1.png","img2/300/Congruent/L/C_Dist_300_LN_20_LD_25_RN_13_RD_26_0.png","img2/100/Congruent/R/C_Dist_100_LN_6_LD_12_RN_15_RD_25_1.png","img2/300/Incongruent/R/I_Dist_300_LN_13_LD_26_RN_12_RD_15_1.png","img2/100/Incongruent/R/I_Dist_100_LN_8_LD_20_RN_1_RD_2_1.png","img2/300/Congruent/R/C_Dist_300_LN_1_LD_5_RN_3_RD_6_1.png","img2/100/Incongruent/L/I_Dist_100_LN_6_LD_10_RN_7_RD_14_0.png","img2/200/Congruent/R/C_Dist_200_LN_13_LD_26_RN_14_RD_20_1.png","img2/200/Congruent/L/C_Dist_200_LN_6_LD_15_RN_3_RD_15_0.png","img2/100/Incongruent/L/I_Dist_100_LN_6_LD_10_RN_13_RD_26_0.png","img2/200/Incongruent/L/I_Dist_200_LN_4_LD_5_RN_6_RD_10_0.png","img2/200/Incongruent/L/I_Dist_200_LN_7_LD_10_RN_12_RD_24_0.png","img2/200/Congruent/L/C_Dist_200_LN_9_LD_20_RN_4_RD_16_0.png","img2/300/Congruent/L/C_Dist_300_LN_24_LD_30_RN_8_RD_16_0.png","img2/100/Incongruent/R/I_Dist_100_LN_9_LD_18_RN_6_RD_10_1.png","img2/200/Incongruent/L/I_Dist_200_LN_4_LD_6_RN_14_RD_30_0.png","img2/100/Incongruent/R/I_Dist_100_LN_8_LD_16_RN_6_RD_10_1.png","img2/300/Incongruent/R/I_Dist_300_LN_13_LD_26_RN_12_RD_15_1.png","img2/300/Congruent/R/C_Dist_300_LN_1_LD_20_RN_7_RD_20_1.png","img2/300/Incongruent/R/I_Dist_300_LN_13_LD_26_RN_12_RD_15_1.png","img2/300/Incongruent/L/I_Dist_300_LN_4_LD_5_RN_8_RD_16_0.png","img2/200/Congruent/L/C_Dist_200_LN_8_LD_15_RN_3_RD_9_0.png","img2/200/Incongruent/R/I_Dist_200_LN_9_LD_15_RN_8_RD_10_1.png","img2/100/Congruent/R/C_Dist_100_LN_6_LD_12_RN_15_RD_25_1.png"],"dist100_C":[["C_Dist_100_LN_10_LD_25_RN_3_RD_10_0.png","C_Dist_100_LN_11_LD_22_RN_4_RD_10_0.png","C_Dist_100_LN_11_LD_22_RN_6_RD_15_0.png","C_Dist_100_LN_15_LD_25_RN_13_RD_26_0.png","C_Dist_100_LN_3_LD_6_RN_2_RD_5_0.png","C_Dist_100_LN_6_LD_20_RN_5_RD_25_0.png","C_Dist_100_LN_8_LD_16_RN_2_RD_5_0.png","C_Dist_100_LN_9_LD_15_RN_8_RD_16_0.png"],["C_Dist_100_LN_1_LD_2_RN_18_RD_30_1.png","C_Dist_100_LN_1_LD_2_RN_3_RD_5_1.png","C_Dist_100_LN_12_LD_30_RN_13_RD_26_1.png","C_Dist_100_LN_2_LD_5_RN_11_RD_22_1.png","C_Dist_100_LN_2_LD_5_RN_6_RD_12_1.png","C_Dist_100_LN_3_LD_20_RN_4_RD_16_1.png","C_Dist_100_LN_4_LD_10_RN_15_RD_30_1.png","C_Dist_100_LN_4_LD_8_RN_6_RD_10_1.png","C_Dist_100_LN_6_LD_12_RN_15_RD_25_1.png","C_Dist_100_LN_7_LD_14_RN_15_RD_25_1.png","C_Dist_100_LN_7_LD_14_RN_9_RD_15_1.png"]],"dist100_I":[["I_Dist_100_LN_1_LD_2_RN_8_RD_20_0.png","I_Dist_100_LN_2_LD_4_RN_6_RD_15_0.png","I_Dist_100_LN_2_LD_4_RN_8_RD_20_0.png","I_Dist_100_LN_3_LD_5_RN_11_RD_22_0.png","I_Dist_100_LN_3_LD_5_RN_8_RD_16_0.png","I_Dist_100_LN_3_LD_6_RN_4_RD_10_0.png","I_Dist_100_LN_3_LD_9_RN_7_RD_30_0.png","I_Dist_100_LN_4_LD_8_RN_8_RD_20_0.png","I_Dist_100_LN_6_LD_10_RN_11_RD_22_0.png","I_Dist_100_LN_6_LD_10_RN_13_RD_26_0.png","I_Dist_100_LN_6_LD_10_RN_7_RD_14_0.png","I_Dist_100_LN_9_LD_10_RN_20_RD_25_0.png","I_Dist_100_LN_9_LD_15_RN_13_RD_26_0.png","I_Dist_100_LN_9_LD_15_RN_14_RD_28_0.png"],["I_Dist_100_LN_10_LD_25_RN_8_RD_16_1.png","I_Dist_100_LN_10_LD_25_RN_9_RD_18_1.png","I_Dist_100_LN_11_LD_22_RN_9_RD_15_1.png","I_Dist_100_LN_12_LD_24_RN_9_RD_15_1.png","I_Dist_100_LN_12_LD_30_RN_2_RD_4_1.png","I_Dist_100_LN_13_LD_26_RN_12_RD_20_1.png","I_Dist_100_LN_13_LD_26_RN_6_RD_10_1.png","I_Dist_100_LN_17_LD_30_RN_10_RD_15_1.png","I_Dist_100_LN_6_LD_12_RN_3_RD_5_1.png","I_Dist_100_LN_8_LD_16_RN_6_RD_10_1.png","I_Dist_100_LN_8_LD_20_RN_1_RD_2_1.png","I_Dist_100_LN_9_LD_18_RN_6_RD_10_1.png"]],"dist100_S":[["E_Dist_100_LN_2_LD_12_RN_2_RD_30_0.png","E_Dist_100_LN_6_LD_10_RN_6_RD_12_0.png"],["E_Dist_100_LN_6_LD_12_RN_6_RD_10_1.png"]],"dist200_C":[["C_Dist_200_LN_11_LD_22_RN_3_RD_10_0.png","C_Dist_200_LN_12_LD_15_RN_6_RD_10_0.png","C_Dist_200_LN_12_LD_20_RN_6_RD_15_0.png","C_Dist_200_LN_14_LD_28_RN_6_RD_20_0.png","C_Dist_200_LN_15_LD_25_RN_4_RD_10_0.png","C_Dist_200_LN_16_LD_20_RN_12_RD_20_0.png","C_Dist_200_LN_16_LD_30_RN_9_RD_27_0.png","C_Dist_200_LN_20_LD_25_RN_9_RD_15_0.png","C_Dist_200_LN_21_LD_30_RN_2_RD_4_0.png","C_Dist_200_LN_4_LD_10_RN_3_RD_15_0.png","C_Dist_200_LN_4_LD_8_RN_3_RD_10_0.png","C_Dist_200_LN_6_LD_15_RN_3_RD_15_0.png","C_Dist_200_LN_7_LD_21_RN_2_RD_15_0.png","C_Dist_200_LN_8_LD_15_RN_2_RD_6_0.png","C_Dist_200_LN_8_LD_15_RN_3_RD_9_0.png","C_Dist_200_LN_8_LD_15_RN_7_RD_21_0.png","C_Dist_200_LN_9_LD_20_RN_4_RD_16_0.png"],["C_Dist_200_LN_1_LD_2_RN_21_RD_30_1.png","C_Dist_200_LN_13_LD_26_RN_14_RD_20_1.png","C_Dist_200_LN_3_LD_10_RN_11_RD_22_1.png","C_Dist_200_LN_3_LD_10_RN_14_RD_28_1.png","C_Dist_200_LN_3_LD_10_RN_7_RD_14_1.png","C_Dist_200_LN_3_LD_12_RN_9_RD_20_1.png","C_Dist_200_LN_3_LD_6_RN_14_RD_20_1.png","C_Dist_200_LN_5_LD_10_RN_14_RD_20_1.png","C_Dist_200_LN_6_LD_12_RN_7_RD_10_1.png","C_Dist_200_LN_6_LD_20_RN_11_RD_22_1.png","C_Dist_200_LN_7_LD_15_RN_18_RD_27_1.png","C_Dist_200_LN_9_LD_30_RN_13_RD_26_1.png"]],"dist200_I":[["I_Dist_200_LN_1_LD_2_RN_3_RD_10_0.png","I_Dist_200_LN_1_LD_3_RN_2_RD_15_0.png","I_Dist_200_LN_3_LD_4_RN_11_RD_20_0.png","I_Dist_200_LN_4_LD_5_RN_6_RD_10_0.png","I_Dist_200_LN_4_LD_6_RN_14_RD_30_0.png","I_Dist_200_LN_7_LD_10_RN_12_RD_24_0.png","I_Dist_200_LN_7_LD_10_RN_14_RD_28_0.png","I_Dist_200_LN_7_LD_10_RN_8_RD_16_0.png"],["I_Dist_200_LN_11_LD_20_RN_3_RD_4_1.png","I_Dist_200_LN_14_LD_30_RN_12_RD_18_1.png","I_Dist_200_LN_14_LD_30_RN_6_RD_9_1.png","I_Dist_200_LN_3_LD_10_RN_1_RD_2_1.png","I_Dist_200_LN_4_LD_30_RN_1_RD_3_1.png","I_Dist_200_LN_6_LD_20_RN_3_RD_6_1.png","I_Dist_200_LN_7_LD_15_RN_4_RD_6_1.png","I_Dist_200_LN_7_LD_15_RN_6_RD_9_1.png","I_Dist_200_LN_9_LD_15_RN_8_RD_10_1.png"]],"dist200_S":[["E_Dist_200_LN_3_LD_6_RN_3_RD_10_0.png"],["E_Dist_200_LN_3_LD_10_RN_3_RD_6_1.png"]],"dist300_C":[["C_Dist_300_LN_11_LD_22_RN_1_RD_5_0.png","C_Dist_300_LN_11_LD_22_RN_2_RD_10_0.png","C_Dist_300_LN_11_LD_22_RN_4_RD_20_0.png","C_Dist_300_LN_12_LD_24_RN_2_RD_10_0.png","C_Dist_300_LN_18_LD_20_RN_9_RD_15_0.png","C_Dist_300_LN_20_LD_25_RN_13_RD_26_0.png","C_Dist_300_LN_20_LD_25_RN_14_RD_28_0.png","C_Dist_300_LN_20_LD_25_RN_5_RD_10_0.png","C_Dist_300_LN_20_LD_25_RN_8_RD_16_0.png","C_Dist_300_LN_20_LD_25_RN_9_RD_18_0.png","C_Dist_300_LN_24_LD_30_RN_2_RD_4_0.png","C_Dist_300_LN_24_LD_30_RN_8_RD_16_0.png","C_Dist_300_LN_3_LD_6_RN_2_RD_10_0.png","C_Dist_300_LN_4_LD_10_RN_1_RD_10_0.png","C_Dist_300_LN_4_LD_5_RN_2_RD_4_0.png","C_Dist_300_LN_8_LD_16_RN_1_RD_5_0.png","C_Dist_300_LN_9_LD_10_RN_3_RD_5_0.png"],["C_Dist_300_LN_1_LD_20_RN_7_RD_20_1.png","C_Dist_300_LN_1_LD_3_RN_19_RD_30_1.png","C_Dist_300_LN_1_LD_30_RN_8_RD_24_1.png","C_Dist_300_LN_1_LD_5_RN_11_RD_22_1.png","C_Dist_300_LN_1_LD_5_RN_3_RD_6_1.png","C_Dist_300_LN_1_LD_5_RN_6_RD_12_1.png","C_Dist_300_LN_2_LD_10_RN_12_RD_24_1.png","C_Dist_300_LN_2_LD_20_RN_10_RD_25_1.png","C_Dist_300_LN_3_LD_12_RN_11_RD_20_1.png","C_Dist_300_LN_3_LD_6_RN_4_RD_5_1.png","C_Dist_300_LN_4_LD_20_RN_13_RD_26_1.png","C_Dist_300_LN_5_LD_25_RN_6_RD_12_1.png","C_Dist_300_LN_5_LD_25_RN_7_RD_14_1.png","C_Dist_300_LN_7_LD_14_RN_20_RD_25_1.png","C_Dist_300_LN_8_LD_15_RN_10_RD_12_1.png"]],"dist300_I":[["I_Dist_300_LN_1_LD_2_RN_2_RD_10_0.png","I_Dist_300_LN_1_LD_2_RN_3_RD_15_0.png","I_Dist_300_LN_2_LD_4_RN_6_RD_30_0.png","I_Dist_300_LN_3_LD_6_RN_4_RD_20_0.png","I_Dist_300_LN_4_LD_5_RN_6_RD_12_0.png","I_Dist_300_LN_4_LD_5_RN_8_RD_16_0.png","I_Dist_300_LN_7_LD_10_RN_8_RD_20_0.png","I_Dist_300_LN_8_LD_10_RN_14_RD_28_0.png","I_Dist_300_LN_8_LD_10_RN_9_RD_18_0.png"],["I_Dist_300_LN_13_LD_26_RN_12_RD_15_1.png","I_Dist_300_LN_4_LD_20_RN_2_RD_4_1.png"]],"dist300_S":[["E_Dist_300_LN_9_LD_12_RN_9_RD_20_0.png"],["E_Dist_300_LN_18_LD_30_RN_18_RD_20_1.png","E_Dist_300_LN_3_LD_10_RN_3_RD_5_1.png","E_Dist_300_LN_9_LD_20_RN_9_RD_12_1.png"]],"dist500_C":[["C_Dist_500_LN_10_LD_13_RN_7_RD_26_0.png","C_Dist_500_LN_10_LD_15_RN_4_RD_24_0.png","C_Dist_500_LN_12_LD_16_RN_3_RD_12_0.png","C_Dist_500_LN_12_LD_18_RN_4_RD_24_0.png","C_Dist_500_LN_15_LD_18_RN_5_RD_15_0.png","C_Dist_500_LN_15_LD_20_RN_1_RD_4_0.png","C_Dist_500_LN_18_LD_27_RN_1_RD_6_0.png","C_Dist_500_LN_20_LD_24_RN_1_RD_3_0.png","C_Dist_500_LN_20_LD_24_RN_3_RD_9_0.png","C_Dist_500_LN_20_LD_24_RN_7_RD_21_0.png","C_Dist_500_LN_20_LD_28_RN_3_RD_14_0.png","C_Dist_500_LN_21_LD_28_RN_6_RD_24_0.png","C_Dist_500_LN_22_LD_28_RN_2_RD_7_0.png","C_Dist_500_LN_25_LD_30_RN_9_RD_27_0.png","C_Dist_500_LN_4_LD_6_RN_1_RD_6_0.png","C_Dist_500_LN_5_LD_6_RN_2_RD_6_0.png","C_Dist_500_LN_6_LD_9_RN_1_RD_6_0.png","C_Dist_500_LN_7_LD_10_RN_1_RD_5_0.png","C_Dist_500_LN_8_LD_12_RN_1_RD_6_0.png","C_Dist_500_LN_8_LD_12_RN_4_RD_24_0.png"],["C_Dist_500_LN_1_LD_4_RN_12_RD_16_1.png","C_Dist_500_LN_1_LD_4_RN_9_RD_12_1.png","C_Dist_500_LN_1_LD_9_RN_11_RD_18_1.png","C_Dist_500_LN_10_LD_24_RN_22_RD_24_1.png","C_Dist_500_LN_2_LD_12_RN_10_RD_15_1.png","C_Dist_500_LN_2_LD_12_RN_12_RD_18_1.png","C_Dist_500_LN_2_LD_12_RN_4_RD_6_1.png","C_Dist_500_LN_2_LD_24_RN_7_RD_12_1.png","C_Dist_500_LN_2_LD_5_RN_18_RD_20_1.png","C_Dist_500_LN_2_LD_5_RN_9_RD_10_1.png","C_Dist_500_LN_2_LD_8_RN_12_RD_16_1.png","C_Dist_500_LN_2_LD_8_RN_21_RD_28_1.png","C_Dist_500_LN_3_LD_10_RN_4_RD_5_1.png","C_Dist_500_LN_3_LD_12_RN_15_RD_20_1.png","C_Dist_500_LN_3_LD_30_RN_6_RD_10_1.png","C_Dist_500_LN_3_LD_8_RN_14_RD_16_1.png","C_Dist_500_LN_4_LD_16_RN_15_RD_20_1.png","C_Dist_500_LN_4_LD_24_RN_12_RD_18_1.png","C_Dist_500_LN_5_LD_14_RN_6_RD_7_1.png","C_Dist_500_LN_7_LD_21_RN_20_RD_24_1.png","C_Dist_500_LN_7_LD_28_RN_12_RD_16_1.png","C_Dist_500_LN_7_LD_28_RN_9_RD_12_1.png","C_Dist_500_LN_9_LD_27_RN_20_RD_24_1.png"]],"dist500_I":[["I_Dist_500_LN_2_LD_3_RN_4_RD_24_0.png","I_Dist_500_LN_5_LD_6_RN_6_RD_18_0.png","I_Dist_500_LN_7_LD_8_RN_9_RD_24_0.png"],["I_Dist_500_LN_7_LD_21_RN_5_RD_6_1.png"]],"dist500_S":[["E_Dist_500_LN_6_LD_8_RN_6_RD_24_0.png"],["E_Dist_500_LN_2_LD_12_RN_2_RD_3_1.png","E_Dist_500_LN_6_LD_24_RN_6_RD_8_1.png"]]}},{"start_time":1551899835687,"click_time":1551899837696,"finger_time":1551899837415,"fix_duration":250,"trial":1,"RT":1728,"MT":281,"sideResp":2,"stimulus":[],"xmouse":[826,826,826,826,826,826,826,826,826,826,826,826,826,826,826,826,826,826,826,826,826,826,826,826,826,826,826,826,826,826,826,826,826,826,826,826,826,826,826,826,826,826,826,826,826,826,826,826,826,826,826,826,826,826,826,826,826,826,826,826,826,826,826,826,826,826,826,826,826,826,826,826,826,826,826,826,826,826,826,826,826,826,826,826,826,826,847,869,907,964,1021,1037,1048,1052,1053,1057,1062,1063,1063,1063,1066],"ymouse":[593,593,593,593,593,593,593,593,593,593,593,593,593,593,593,593,593,593,593,593,593,593,593,593,593,593,593,593,593,593,593,593,593,593,593,593,593,593,593,593,593,593,593,593,593,593,593,593,593,593,593,593,593,593,593,593,593,593,593,593,593,593,593,593,593,593,593,593,593,593,593,593,593,593,593,593,593,593,593,593,593,593,593,593,593,593,568,542,499,431,339,306,268,237,212,189,151,135,120,103,78],"timestamp_mouse":[11,41,48,68,87,109,129,148,169,189,209,228,248,269,288,308,328,349,368,389,408,429,448,469,488,509,528,548,569,589,607,627,648,668,689,708,728,748,768,789,808,828,848,868,889,909,928,948,967,989,1008,1028,1049,1067,1089,1109,1128,1148,1168,1189,1209,1229,1248,1268,1289,1308,1329,1349,1369,1387,1408,1429,1448,1468,1487,1509,1528,1548,1568,1587,1608,1628,1648,1669,1689,1708,1728,1748,1768,1788,1807,1829,1847,1868,1888,1908,1929,1947,1968,1989,2008],"xSR":741.5,"ySR":573.95,"xT1":424.9,"yT1":0,"xT2":1058.1,"yT2":0,"toosoon":0,"cond_shown":"Incongruent","ratio_trial":300,"L_num":4,"L_den":20,"R_num":2,"R_den":4,"correct_side":2,"subjID":"DiegoAlejandroSalamancaRamirez23","gender":"0","school":"6","age":"11"},{"start_time":1551899840418,"click_time":1551899842295,"finger_time":1551899841755,"fix_duration":460.8080984223173,"trial":2,"RT":1337,"MT":540,"sideResp":1,"stimulus":[],"xmouse":[802,802,802,802,802,802,802,802,802,802,802,802,802,802,802,802,802,802,802,802,802,802,802,802,802,802,802,802,802,802,802,802,802,802,802,802,802,802,802,802,802,802,802,802,802,802,802,802,802,802,802,802,802,802,802,802,802,802,802,802,802,802,802,802,802,795,782,771,738,724,712,701,688,649,635,620,600,580,554,543,526,510,495,450,434,425,421,417,416,416,416,416,420,428],"ymouse":[642,642,642,642,642,642,642,642,642,642,642,642,642,642,642,642,642,642,642,642,642,642,642,642,642,642,642,642,642,642,642,642,642,642,642,642,642,642,642,642,642,642,642,642,642,642,642,642,642,642,642,642,642,642,642,642,642,642,642,642,642,642,642,642,642,617,573,533,462,437,414,387,357,300,280,264,249,238,216,205,191,178,166,134,122,112,104,96,88,87,86,84,78,71],"timestamp_mouse":[17,40,57,76,96,117,136,156,178,196,216,237,256,277,298,316,337,356,377,397,417,436,457,477,497,516,538,558,578,597,616,637,657,676,697,716,736,757,777,798,816,836,858,877,898,916,937,957,976,996,1016,1036,1057,1076,1096,1117,1137,1157,1176,1196,1217,1238,1257,1277,1297,1317,1337,1357,1377,1397,1416,1437,1457,1477,1498,1517,1538,1558,1577,1597,1617,1637,1657,1676,1698,1717,1736,1756,1777,1798,1818,1837,1856,1877],"xSR":741.5,"ySR":573.95,"xT1":424.9,"yT1":0,"xT2":1058.1,"yT2":0,"toosoon":0,"cond_shown":"Congruent","ratio_trial":300,"L_num":4,"L_den":5,"R_num":2,"R_den":4,"correct_side":1,"subjID":"DiegoAlejandroSalamancaRamirez23","gender":"0","school":"6","age":"11"},{"start_time":1551899844948,"click_time":1551899846515,"finger_time":1551899846095,"fix_duration":250,"trial":3,"RT":1147,"MT":420,"sideResp":1,"stimulus":[],"xmouse":[751,751,751,751,751,751,751,751,751,751,751,751,751,751,751,751,751,751,751,751,751,751,751,751,751,751,751,751,751,751,751,751,751,751,751,751,751,751,751,751,751,751,751,751,751,751,751,751,751,751,751,751,751,751,751,750,747,739,732,726,721,715,697,687,677,665,653,620,610,600,590,581,569,563,556,548,539,507,490],"ymouse":[616,616,616,616,616,616,616,616,616,616,616,616,616,616,616,616,616,616,616,616,616,616,616,616,616,616,616,616,616,616,616,616,616,616,616,616,616,616,616,616,616,616,616,616,616,616,616,616,616,616,616,616,616,616,616,613,607,593,581,566,550,533,493,469,445,419,388,313,288,263,241,219,186,173,161,149,136,106,97],"timestamp_mouse":[10,33,47,68,87,108,127,147,167,186,207,226,247,266,288,308,327,347,368,387,407,426,446,467,487,508,526,548,568,587,608,628,647,668,688,708,728,747,768,786,807,827,848,866,888,908,928,946,968,987,1008,1028,1046,1067,1086,1106,1128,1147,1168,1186,1206,1226,1247,1268,1287,1307,1326,1346,1367,1387,1406,1427,1447,1467,1487,1507,1527,1547,1566],"xSR":741.5,"ySR":573.95,"xT1":424.9,"yT1":0,"xT2":1058.1,"yT2":0,"toosoon":0,"cond_shown":"Incongruent","ratio_trial":200,"L_num":7,"L_den":10,"R_num":12,"R_den":24,"correct_side":1,"subjID":"DiegoAlejandroSalamancaRamirez23","gender":"0","school":"6","age":"11"},{"start_time":1551899847917,"click_time":1551899849095,"finger_time":1551899848536,"fix_duration":540.9666703951859,"trial":4,"RT":619,"MT":559,"sideResp":2,"stimulus":[],"xmouse":[790,790,790,790,790,790,790,790,790,790,790,790,790,790,790,790,790,790,790,790,790,790,790,790,790,790,790,790,790,800,821,842,857,889,898,902,905,907,914,920,927,934,940,950,954,956,958,960,969,976,985,994,1008,1036,1043,1046,1052,1057,1063],"ymouse":[604,604,604,604,604,604,604,604,604,604,604,604,604,604,604,604,604,604,604,604,604,604,604,604,604,604,604,604,604,585,550,516,487,432,415,404,394,381,340,319,302,287,268,220,198,178,159,143,108,91,75,60,43,20,15,12,10,10,9],"timestamp_mouse":[19,40,58,77,99,118,138,159,179,198,218,237,259,278,298,317,337,359,377,399,418,438,458,479,498,518,538,558,577,598,619,638,657,678,699,718,738,758,778,799,817,839,859,878,899,917,938,958,978,998,1018,1037,1059,1078,1098,1119,1139,1159,1178],"xSR":741.5,"ySR":573.95,"xT1":424.9,"yT1":0,"xT2":1058.1,"yT2":0,"toosoon":0,"cond_shown":"Congruent","ratio_trial":100,"L_num":1,"L_den":2,"R_num":18,"R_den":30,"correct_side":2,"subjID":"DiegoAlejandroSalamancaRamirez23","gender":"0","school":"6","age":"11"},{"start_time":1551899851101,"click_time":1551899852595,"finger_time":1551899852336,"fix_duration":522.8094139324339,"trial":5,"RT":1235,"MT":259,"sideResp":1,"stimulus":[],"xmouse":[804,804,804,804,804,804,804,804,804,804,804,804,804,804,804,804,804,804,804,804,804,804,804,804,804,804,804,804,804,804,804,804,804,804,804,804,804,804,804,804,804,804,804,804,804,804,804,804,804,804,804,804,804,804,804,804,804,804,804,804,804,803,795,773,725,701,680,657,622,595,580,567,553,541,512],"ymouse":[576,576,576,576,576,576,576,576,576,576,576,576,576,576,576,576,576,576,576,576,576,576,576,576,576,576,576,576,576,576,576,576,576,576,576,576,576,576,576,576,576,576,576,576,576,576,576,576,576,576,576,576,576,576,576,576,576,576,576,576,576,566,524,466,374,334,288,232,168,120,99,82,65,52,26],"timestamp_mouse":[29,35,54,75,95,115,134,153,173,195,213,234,255,273,293,315,335,354,375,394,415,434,453,474,494,514,534,554,573,593,614,633,655,673,694,714,735,753,774,794,814,834,855,874,894,914,934,953,974,993,1014,1035,1053,1075,1093,1114,1133,1153,1174,1193,1213,1235,1254,1275,1293,1314,1333,1355,1375,1394,1414,1434,1454,1473,1493],"xSR":741.5,"ySR":573.95,"xT1":424.9,"yT1":0,"xT2":1058.1,"yT2":0,"toosoon":0,"cond_shown":"Incongruent","ratio_trial":100,"L_num":13,"L_den":26,"R_num":6,"R_den":10,"correct_side":2,"subjID":"DiegoAlejandroSalamancaRamirez23","gender":"0","school":"6","age":"11"},{"start_time":1551899855017,"click_time":1551899855655,"finger_time":1551899855516,"fix_duration":1319.2089006619224,"trial":6,"RT":499,"MT":139,"sideResp":2,"stimulus":[],"xmouse":[801,801,801,801,801,801,801,801,801,801,801,801,801,801,801,801,801,801,801,801,801,801,801,801,815,852,895,942,987,1055,1079,1098,1110],"ymouse":[596,596,596,596,596,596,596,596,596,596,596,596,596,596,596,596,596,596,596,596,596,596,596,596,579,536,490,433,380,267,206,146,92],"timestamp_mouse":[1,30,39,60,79,99,120,140,158,179,200,220,238,260,280,300,320,340,360,380,398,420,440,459,479,499,519,539,559,578,599,619,638],"xSR":741.5,"ySR":573.95,"xT1":424.9,"yT1":0,"xT2":1058.1,"yT2":0,"toosoon":0,"cond_shown":"Congruent","ratio_trial":300,"L_num":1,"L_den":3,"R_num":19,"R_den":30,"correct_side":2,"subjID":"DiegoAlejandroSalamancaRamirez23","gender":"0","school":"6","age":"11"},{"start_time":1551899857521,"click_time":1551899858857,"finger_time":1551899858515,"fix_duration":624.9473374618055,"trial":7,"RT":994,"MT":342,"sideResp":2,"stimulus":[],"xmouse":[814,814,814,814,814,814,814,814,814,814,814,814,814,814,814,814,814,814,814,814,814,814,814,814,814,814,814,814,814,814,814,814,814,814,814,814,814,814,814,814,814,814,814,814,814,814,814,814,815,818,833,855,879,900,908,922,947,962,974,977,977,977,977,1003,1035,1058,1073],"ymouse":[597,597,597,597,597,597,597,597,597,597,597,597,597,597,597,597,597,597,597,597,597,597,597,597,597,597,597,597,597,597,597,597,597,597,597,597,597,597,597,597,597,597,597,597,597,597,597,597,593,567,511,430,346,209,152,98,23,0,0,0,0,0,0,12,33,48,54],"timestamp_mouse":[32,36,54,75,95,115,135,155,176,196,215,235,256,275,295,314,336,354,376,396,415,435,456,475,494,515,535,556,574,595,616,634,655,676,695,714,735,754,775,795,815,834,854,875,895,916,936,955,975,994,1014,1035,1055,1075,1095,1115,1135,1156,1175,1194,1214,1235,1256,1276,1295,1316,1336],"xSR":741.5,"ySR":573.95,"xT1":424.9,"yT1":0,"xT2":1058.1,"yT2":0,"toosoon":0,"cond_shown":"Congruent","ratio_trial":200,"L_num":3,"L_den":10,"R_num":11,"R_den":22,"correct_side":2,"subjID":"DiegoAlejandroSalamancaRamirez23","gender":"0","school":"6","age":"11"},{"start_time":1551899861126,"click_time":1551899862456,"finger_time":1551899862077,"fix_duration":1208.7722311873665,"trial":8,"RT":951,"MT":379,"sideResp":2,"stimulus":[],"xmouse":[786,786,786,786,786,786,786,786,786,786,786,786,786,786,786,786,786,786,786,786,786,786,786,786,786,786,786,786,786,786,786,786,786,786,786,786,786,786,786,786,786,786,786,786,785,797,804,847,925,960,993,1017,1029,1044,1047,1049,1050,1050,1051,1052,1054,1059,1066,1079,1087,1100,1110],"ymouse":[633,633,633,633,633,633,633,633,633,633,633,633,633,633,633,633,633,633,633,633,633,633,633,633,633,633,633,633,633,633,633,633,633,633,633,633,633,633,633,633,633,633,633,633,632,616,606,553,461,410,365,332,312,288,283,279,278,278,264,255,244,227,207,160,132,103,78],"timestamp_mouse":[11,34,50,70,90,109,130,151,169,191,211,229,250,271,290,311,330,349,369,391,410,430,450,471,489,511,530,550,570,589,610,630,649,670,691,710,730,749,771,791,811,830,851,869,889,910,931,951,970,991,1010,1030,1049,1070,1090,1110,1130,1150,1169,1189,1210,1229,1250,1270,1289,1310,1330],"xSR":741.5,"ySR":573.95,"xT1":424.9,"yT1":0,"xT2":1058.1,"yT2":0,"toosoon":0,"cond_shown":"Congruent","ratio_trial":100,"L_num":6,"L_den":20,"R_num":5,"R_den":25,"correct_side":1,"subjID":"DiegoAlejandroSalamancaRamirez23","gender":"0","school":"6","age":"11"},{"start_time":1551899864174,"click_time":1551899865957,"finger_time":1551899865615,"fix_duration":576.8376187801274,"trial":9,"RT":1441,"MT":342,"sideResp":1,"stimulus":[],"xmouse":[813,813,813,813,813,813,813,813,813,813,813,813,812,809,806,805,804,804,804,804,804,804,804,804,804,804,804,804,804,804,804,804,804,804,804,804,804,804,804,804,803,799,798,798,797,797,797,797,797,797,797,797,797,796,796,796,796,796,796,796,796,796,796,796,796,796,796,796,796,794,793,782,772,752,744,704,631,594,555,523,500,476,468,462,457,454,453,453,453,453],"ymouse":[605,605,605,605,605,605,605,605,605,605,605,605,604,606,616,618,620,620,620,620,620,620,620,620,620,620,620,620,620,620,620,620,620,620,620,620,620,620,620,620,621,615,613,612,612,612,612,612,612,612,612,612,611,609,607,607,607,607,607,607,607,607,607,607,607,607,607,607,607,606,603,588,572,538,525,467,374,331,279,235,201,158,140,124,112,105,102,102,100,94],"timestamp_mouse":[9,22,43,63,82,101,123,142,161,182,202,221,241,263,282,303,323,343,363,382,402,421,443,463,482,502,523,543,561,583,603,623,642,662,681,702,722,743,762,781,803,822,841,862,883,901,922,942,961,983,1002,1021,1043,1062,1082,1102,1121,1143,1163,1182,1202,1223,1241,1262,1282,1302,1321,1342,1362,1382,1403,1422,1441,1461,1482,1502,1522,1542,1562,1583,1602,1622,1642,1663,1683,1701,1722,1742,1762,1783],"xSR":741.5,"ySR":573.95,"xT1":424.9,"yT1":0,"xT2":1058.1,"yT2":0,"toosoon":0,"cond_shown":"Incongruent","ratio_trial":300,"L_num":3,"L_den":6,"R_num":4,"R_den":20,"correct_side":1,"subjID":"DiegoAlejandroSalamancaRamirez23","gender":"0","school":"6","age":"11"},{"start_time":1551899867462,"click_time":1551899869276,"finger_time":1551899868997,"fix_duration":544.3269504544568,"trial":10,"RT":1535,"MT":279,"sideResp":2,"stimulus":[],"xmouse":[802,802,802,802,802,802,802,802,802,802,802,802,802,802,802,802,802,802,802,802,802,802,802,802,802,802,802,802,802,802,802,802,802,802,802,802,802,802,802,802,802,802,802,802,802,802,802,802,802,802,802,802,802,802,802,802,802,802,802,802,802,802,802,802,802,802,802,802,802,802,802,802,802,802,803,810,850,879,932,972,1009,1058,1070,1074,1076,1077,1077,1080,1084,1088,1090],"ymouse":[601,601,601,601,601,601,601,601,601,601,601,601,601,601,601,601,601,601,601,601,601,601,601,601,601,601,601,601,601,601,601,601,601,601,601,601,601,601,601,601,601,601,601,601,601,601,601,601,601,601,601,601,601,601,601,601,601,601,601,601,601,601,601,601,601,601,601,601,601,601,601,601,601,601,601,595,548,513,439,382,330,256,231,210,197,186,161,145,126,108,92],"timestamp_mouse":[14,34,53,75,94,114,133,155,173,195,214,235,253,274,294,315,334,354,374,394,415,435,453,473,494,514,535,553,575,594,615,634,653,674,694,714,734,755,774,795,814,834,855,875,895,913,935,953,975,994,1015,1034,1054,1073,1094,1114,1134,1155,1174,1193,1215,1234,1255,1274,1293,1315,1335,1355,1374,1395,1413,1435,1454,1474,1494,1514,1535,1553,1574,1594,1614,1634,1654,1674,1694,1714,1734,1753,1775,1794,1814],"xSR":741.5,"ySR":573.95,"xT1":424.9,"yT1":0,"xT2":1058.1,"yT2":0,"toosoon":0,"cond_shown":"Incongruent","ratio_trial":100,"L_num":3,"L_den":9,"R_num":7,"R_den":30,"correct_side":1,"subjID":"DiegoAlejandroSalamancaRamirez23","gender":"0","school":"6","age":"11"},{"start_time":1551899871371,"click_time":1551899872896,"finger_time":1551899872656,"fix_duration":813.4032554980771,"trial":11,"RT":1285,"MT":240,"sideResp":1,"stimulus":[],"xmouse":[812,812,812,812,812,812,812,812,812,812,812,812,812,812,812,812,812,812,812,812,812,812,812,812,812,812,812,812,812,812,812,812,812,812,812,812,812,812,812,812,812,812,812,812,812,812,812,812,812,812,812,812,812,812,812,812,812,812,812,812,812,812,810,805,762,740,653,626,610,600,589,563,551,541,535,525,510],"ymouse":[601,601,601,601,601,601,601,601,601,601,601,601,601,601,601,601,601,601,601,601,601,601,601,601,601,601,601,601,601,601,601,601,601,601,601,601,601,601,601,601,601,601,601,601,601,601,601,601,601,601,601,601,601,601,601,601,601,601,601,601,601,601,599,588,534,518,429,388,355,319,281,217,190,166,146,120,77],"timestamp_mouse":[10,41,45,65,85,106,125,146,166,184,206,225,245,266,285,305,326,344,366,386,406,425,445,465,486,505,526,544,566,585,606,625,646,666,686,705,726,746,765,784,805,825,846,866,885,906,925,945,966,985,1005,1025,1045,1065,1085,1106,1125,1145,1165,1184,1205,1224,1245,1265,1285,1305,1325,1344,1366,1386,1405,1425,1446,1464,1484,1505,1525],"xSR":741.5,"ySR":573.95,"xT1":424.9,"yT1":0,"xT2":1058.1,"yT2":0,"toosoon":0,"cond_shown":"Incongruent","ratio_trial":100,"L_num":8,"L_den":16,"R_num":6,"R_den":10,"correct_side":2,"subjID":"DiegoAlejandroSalamancaRamirez23","gender":"0","school":"6","age":"11"},{"start_time":1551899876199,"click_time":1551899877696,"finger_time":1551899876576,"fix_duration":662.7870177594094,"trial":12,"RT":377,"MT":1120,"sideResp":2,"stimulus":[],"xmouse":[797,797,797,797,797,797,797,797,797,797,797,797,797,797,797,797,797,797,797,797,797,797,797,797,797,797,797,797,796,794,794,794,794,794,794,794,794,794,794,794,794,794,794,794,794,794,794,794,791,761,754,754,754,754,754,758,779,819,888,1074,1140,1179,1200,1210,1217,1217,1217,1217,1216,1215,1213,1207,1196,1167,1124],"ymouse":[574,574,574,574,574,574,574,574,574,574,574,574,574,574,574,574,574,574,573,573,573,573,573,573,573,573,569,559,544,535,534,534,534,534,534,534,534,534,534,534,534,534,534,534,534,534,534,533,533,536,540,540,540,540,540,536,505,448,365,177,102,42,8,0,0,0,0,0,0,0,0,0,0,13,30],"timestamp_mouse":[32,37,57,78,97,117,138,157,178,196,217,237,257,278,298,318,338,356,377,397,418,437,458,476,498,518,537,557,576,597,617,637,656,677,698,718,737,758,778,798,818,838,858,877,897,918,937,957,978,997,1017,1036,1057,1078,1097,1118,1136,1157,1178,1197,1216,1236,1258,1277,1297,1317,1337,1357,1376,1396,1416,1437,1457,1477,1497],"xSR":741.5,"ySR":573.95,"xT1":424.9,"yT1":0,"xT2":1058.1,"yT2":0,"toosoon":0,"cond_shown":"Congruent","ratio_trial":300,"L_num":5,"L_den":25,"R_num":6,"R_den":12,"correct_side":2,"subjID":"DiegoAlejandroSalamancaRamirez23","gender":"0","school":"6","age":"11"},{"start_time":1551899879246,"click_time":1551899880296,"finger_time":1551899879836,"fix_duration":548.2527583615198,"trial":13,"RT":590,"MT":460,"sideResp":2,"stimulus":[],"xmouse":[824,824,824,824,824,824,824,824,824,824,824,824,824,824,824,824,824,824,824,824,824,824,824,824,824,824,824,824,833,849,872,916,941,976,986,993,997,1001,1001,1002,1002,1002,1003,1004,1006,1010,1018,1031,1037,1045,1054,1058,1065],"ymouse":[652,652,652,652,652,652,652,652,652,652,652,652,652,652,652,652,652,652,652,652,652,652,652,652,652,652,652,652,628,601,561,486,441,343,313,292,274,244,233,227,223,222,217,210,202,190,174,142,127,110,86,72,52],"timestamp_mouse":[9,29,51,71,90,109,131,151,169,190,211,230,250,269,291,309,331,350,371,390,411,431,451,471,490,511,531,551,570,590,610,630,650,670,689,710,730,750,770,791,810,829,850,869,889,909,930,950,970,990,1010,1030,1050],"xSR":741.5,"ySR":573.95,"xT1":424.9,"yT1":0,"xT2":1058.1,"yT2":0,"toosoon":0,"cond_shown":"Congruent","ratio_trial":100,"L_num":1,"L_den":2,"R_num":18,"R_den":30,"correct_side":2,"subjID":"DiegoAlejandroSalamancaRamirez23","gender":"0","school":"6","age":"11"},{"start_time":1551899882893,"click_time":1551899884717,"finger_time":1551899884296,"fix_duration":273.1721282758449,"trial":14,"RT":1403,"MT":421,"sideResp":2,"stimulus":[],"xmouse":[821,821,821,821,821,821,821,821,821,821,821,821,821,821,821,821,821,821,821,821,821,821,821,821,821,821,821,821,821,821,821,821,821,821,821,821,821,821,821,821,821,821,821,821,821,821,821,821,821,821,821,821,821,821,821,821,821,821,821,821,821,821,821,821,821,821,821,821,821,821,833,851,881,910,941,971,976,976,976,978,981,981,981,981,981,981,982,984,995,1013,1045,1061],"ymouse":[592,592,592,592,592,592,592,592,592,592,592,592,592,592,592,592,592,592,592,592,592,592,592,592,592,592,592,592,592,592,592,592,592,592,592,592,592,592,592,592,592,592,592,592,592,592,592,592,592,592,592,592,592,592,592,592,592,592,592,592,592,592,592,592,592,592,592,592,592,592,567,536,490,439,369,253,218,187,158,134,85,77,73,72,72,72,72,72,72,72,63,59],"timestamp_mouse":[11,34,43,62,83,104,124,144,163,183,204,223,242,263,284,304,322,344,362,383,403,423,443,462,483,503,522,544,564,583,602,622,643,663,682,703,724,743,762,782,802,823,843,864,882,904,923,943,964,983,1003,1023,1043,1064,1082,1102,1123,1143,1163,1182,1203,1223,1243,1263,1282,1304,1322,1342,1363,1383,1403,1422,1442,1462,1484,1502,1523,1542,1564,1583,1603,1623,1642,1664,1683,1703,1722,1744,1764,1782,1802,1824],"xSR":741.5,"ySR":573.95,"xT1":424.9,"yT1":0,"xT2":1058.1,"yT2":0,"toosoon":0,"cond_shown":"Congruent","ratio_trial":200,"L_num":6,"L_den":12,"R_num":7,"R_den":10,"correct_side":2,"subjID":"DiegoAlejandroSalamancaRamirez23","gender":"0","school":"6","age":"11"},{"start_time":1551899888767,"click_time":1551899891025,"finger_time":1551899890296,"fix_duration":250,"trial":15,"RT":1529,"MT":729,"sideResp":2,"stimulus":[],"xmouse":[813,812,811,810,809,809,809,809,809,809,809,809,809,809,809,809,809,809,809,809,809,809,809,809,809,809,809,809,809,809,809,809,809,809,809,809,809,809,809,809,809,809,809,809,809,809,809,809,809,809,809,809,809,809,809,809,809,809,809,809,809,809,809,809,809,809,809,809,809,809,809,809,809,809,807,799,760,738,721,706,695,682,673,654,648,637,632,619,607,594,584,579,578,578,578,578,578,581,595,618,656,764,814,852,883,911,919,936,948,970,996,1054,1083],"ymouse":[635,635,635,635,635,635,635,635,635,635,635,635,635,635,635,635,635,635,635,635,635,635,635,635,635,635,635,635,635,635,635,635,635,635,635,635,635,635,635,635,635,635,635,635,635,635,635,635,635,635,635,635,635,635,635,635,635,635,635,635,635,635,635,635,635,635,635,635,635,635,635,635,635,635,635,620,560,527,498,477,460,427,405,365,353,328,318,289,273,260,247,239,239,239,239,239,239,239,243,247,250,248,239,230,221,209,203,183,171,158,144,109,88],"timestamp_mouse":[9,34,48,69,89,110,129,149,168,190,210,229,248,270,289,310,329,350,369,389,409,430,448,470,488,509,529,548,568,589,609,629,649,670,688,709,729,749,769,789,809,829,850,869,888,909,930,949,969,988,1008,1030,1050,1069,1088,1110,1129,1149,1168,1189,1209,1228,1249,1269,1289,1309,1329,1349,1369,1389,1409,1428,1450,1470,1489,1509,1529,1550,1570,1589,1609,1629,1649,1669,1690,1709,1729,1750,1770,1788,1808,1829,1849,1869,1889,1908,1929,1948,1968,1989,2009,2029,2049,2068,2088,2110,2129,2148,2168,2188,2210,2229,2258],"xSR":741.5,"ySR":573.95,"xT1":424.9,"yT1":0,"xT2":1058.1,"yT2":0,"toosoon":0,"cond_shown":"Incongruent","ratio_trial":300,"L_num":4,"L_den":20,"R_num":2,"R_den":4,"correct_side":2,"subjID":"DiegoAlejandroSalamancaRamirez23","gender":"0","school":"6","age":"11"},{"start_time":1551899892448,"click_time":1551899893736,"finger_time":1551899893075,"fix_duration":250,"trial":16,"RT":627,"MT":661,"sideResp":1,"stimulus":[],"xmouse":[769,769,769,769,769,769,769,769,769,769,769,769,769,769,769,769,769,769,769,769,769,769,769,769,769,769,769,769,769,773,775,775,774,764,760,756,754,753,752,751,749,742,724,708,676,634,585,535,418,372,346,333,323,320,318,318,318,318,318,318,321,340,383,409,430],"ymouse":[634,634,634,634,634,634,634,634,634,634,634,634,634,634,634,634,634,634,634,634,634,634,634,634,634,634,634,634,625,616,597,571,558,535,530,526,525,524,523,522,521,514,496,477,438,389,335,276,168,127,105,92,79,75,73,73,73,73,73,70,67,60,53,50,47],"timestamp_mouse":[10,31,48,68,87,108,128,149,168,187,208,227,249,268,287,309,329,349,369,389,408,429,449,468,488,509,529,549,569,588,608,627,647,667,688,708,729,748,768,787,808,828,848,869,887,907,928,948,968,988,1007,1028,1048,1068,1088,1109,1127,1147,1168,1189,1209,1229,1248,1267,1287],"xSR":741.5,"ySR":573.95,"xT1":424.9,"yT1":0,"xT2":1058.1,"yT2":0,"toosoon":0,"cond_shown":"Congruent","ratio_trial":200,"L_num":21,"L_den":30,"R_num":2,"R_den":4,"correct_side":1,"subjID":"DiegoAlejandroSalamancaRamirez23","gender":"0","school":"6","age":"11"},{"start_time":1551899895163,"click_time":1551899896496,"finger_time":1551899896177,"fix_duration":266.22060520615696,"trial":17,"RT":1014,"MT":319,"sideResp":1,"stimulus":[],"xmouse":[823,823,823,823,823,823,823,823,823,823,823,823,823,823,823,823,823,823,823,823,823,823,823,823,823,823,823,823,823,823,823,823,823,823,823,823,823,823,823,823,823,823,823,823,823,823,823,820,811,800,788,768,758,747,732,720,685,665,647,629,617,598,585,566,549,543,523],"ymouse":[612,612,612,612,612,612,612,612,612,612,612,612,612,612,612,612,612,612,612,612,612,612,612,612,612,612,612,612,612,612,612,612,612,612,612,612,612,612,612,612,612,612,612,612,612,612,612,610,600,584,568,535,515,492,465,447,394,359,318,271,230,169,141,108,78,70,44],"timestamp_mouse":[14,37,52,73,94,113,134,154,172,194,212,233,254,274,293,313,333,354,373,393,414,434,453,473,493,514,533,553,574,592,612,632,654,673,694,712,733,753,774,794,814,833,852,874,892,913,934,954,973,994,1014,1033,1052,1073,1094,1114,1132,1153,1174,1193,1214,1233,1253,1273,1293,1314,1333],"xSR":741.5,"ySR":573.95,"xT1":424.9,"yT1":0,"xT2":1058.1,"yT2":0,"toosoon":0,"cond_shown":"Congruent","ratio_trial":300,"L_num":11,"L_den":22,"R_num":4,"R_den":20,"correct_side":1,"subjID":"DiegoAlejandroSalamancaRamirez23","gender":"0","school":"6","age":"11"},{"start_time":1551899899673,"click_time":1551899901477,"finger_time":1551899900976,"fix_duration":937.545953049888,"trial":18,"RT":1303,"MT":501,"sideResp":2,"stimulus":[],"xmouse":[774,774,774,774,774,774,774,774,774,774,774,774,774,774,774,774,774,774,774,774,774,774,774,774,774,774,774,774,774,774,774,774,776,788,801,811,820,821,823,826,828,830,830,830,830,830,830,830,830,830,830,830,830,830,830,830,830,830,830,830,830,830,830,830,830,832,840,849,863,882,909,995,1029,1055,1080,1100,1138,1154,1166,1176,1183,1192,1193,1193,1193,1192,1181,1172,1167,1159,1155],"ymouse":[615,615,615,615,615,615,615,615,615,615,615,615,615,615,615,615,615,615,615,615,615,615,615,615,615,615,615,615,615,615,615,615,609,601,594,588,584,583,581,579,577,575,575,575,575,575,575,575,575,575,575,575,575,575,575,575,575,575,575,575,575,575,575,575,575,573,562,553,535,518,497,436,411,389,364,338,291,269,249,230,211,174,159,145,129,114,83,71,64,59,58],"timestamp_mouse":[10,35,43,63,83,102,124,142,163,183,204,223,244,263,282,303,323,343,363,383,403,423,442,462,483,502,523,544,564,583,603,624,643,663,683,702,723,744,764,783,803,822,843,863,884,903,924,942,964,983,1003,1023,1042,1064,1084,1104,1122,1143,1162,1184,1204,1222,1244,1264,1284,1303,1323,1342,1363,1384,1403,1423,1442,1462,1484,1503,1522,1543,1563,1584,1604,1622,1643,1664,1684,1704,1723,1743,1762,1782,1804],"xSR":741.5,"ySR":573.95,"xT1":424.9,"yT1":0,"xT2":1058.1,"yT2":0,"toosoon":0,"cond_shown":"Incongruent","ratio_trial":100,"L_num":2,"L_den":4,"R_num":8,"R_den":20,"correct_side":1,"subjID":"DiegoAlejandroSalamancaRamirez23","gender":"0","school":"6","age":"11"},{"start_time":1551899903717,"click_time":1551899905595,"finger_time":1551899905135,"fix_duration":940.8344223966315,"trial":19,"RT":1418,"MT":460,"sideResp":2,"stimulus":[],"xmouse":[792,794,794,795,795,795,795,796,798,799,800,800,800,800,800,800,800,800,800,800,800,800,800,800,800,800,800,800,800,800,800,800,800,800,800,800,800,800,800,800,800,800,800,800,800,800,800,800,800,800,800,800,800,800,800,800,800,800,800,800,800,800,800,800,800,800,800,800,800,800,810,817,837,916,963,1006,1042,1067,1072,1072,1072,1074,1078,1085,1086,1087,1088,1089,1089,1089,1089,1089,1089,1090],"ymouse":[580,580,580,580,580,580,580,580,577,577,576,576,576,576,576,576,576,576,576,576,576,576,576,576,576,576,576,576,576,576,576,576,576,576,576,576,576,576,576,576,576,576,576,576,576,576,576,576,576,576,576,576,576,576,576,576,576,576,576,576,576,576,576,576,576,576,576,576,576,576,568,561,544,476,422,359,305,254,217,201,187,173,160,136,126,120,116,114,112,110,108,106,101,95],"timestamp_mouse":[20,45,59,79,99,119,140,159,178,199,218,239,259,279,299,319,339,359,380,400,418,438,458,479,498,520,538,560,579,600,619,650,659,680,699,720,740,758,779,800,819,838,860,879,899,920,939,960,979,1000,1020,1039,1059,1080,1100,1118,1140,1160,1178,1199,1219,1239,1258,1280,1299,1319,1340,1358,1380,1400,1418,1439,1459,1479,1499,1519,1539,1559,1578,1599,1619,1638,1660,1679,1700,1718,1739,1759,1780,1799,1819,1839,1860,1878],"xSR":741.5,"ySR":573.95,"xT1":424.9,"yT1":0,"xT2":1058.1,"yT2":0,"toosoon":0,"cond_shown":"Incongruent","ratio_trial":100,"L_num":10,"L_den":25,"R_num":8,"R_den":16,"correct_side":2,"subjID":"DiegoAlejandroSalamancaRamirez23","gender":"0","school":"6","age":"11"},{"start_time":1551899907835,"click_time":1551899909517,"finger_time":1551899909077,"fix_duration":997.9411960314638,"trial":20,"RT":1242,"MT":440,"sideResp":2,"stimulus":[],"xmouse":[757,757,757,757,757,757,757,757,757,757,757,757,757,757,757,757,757,757,757,757,757,757,757,757,757,757,757,757,757,757,757,757,757,757,757,757,757,757,757,757,757,757,757,757,757,757,757,757,757,757,757,757,757,757,757,757,757,757,757,765,777,794,830,885,915,938,954,969,992,1004,1011,1014,1014,1009,1009,1009,1010,1017,1031,1036,1042,1044,1045,1058,1069],"ymouse":[631,631,631,631,631,631,631,631,631,631,631,631,631,631,631,631,631,631,631,631,631,631,631,631,631,631,631,631,631,631,631,631,631,631,631,631,631,631,631,631,631,631,631,631,631,631,631,631,631,631,631,631,631,631,631,631,631,631,631,619,603,585,556,504,475,454,434,417,383,353,314,261,204,76,38,18,0,0,0,0,0,0,0,13,24],"timestamp_mouse":[9,21,41,61,82,100,120,142,160,181,202,220,242,261,281,300,322,341,362,382,402,422,442,461,481,502,522,540,561,582,601,621,640,662,681,702,722,742,760,781,801,820,842,861,880,902,922,940,962,982,1001,1022,1041,1062,1082,1102,1122,1141,1162,1182,1202,1222,1242,1260,1280,1301,1322,1342,1361,1382,1401,1422,1441,1460,1480,1501,1521,1542,1561,1581,1600,1620,1641,1661,1681],"xSR":741.5,"ySR":573.95,"xT1":424.9,"yT1":0,"xT2":1058.1,"yT2":0,"toosoon":0,"cond_shown":"Congruent","ratio_trial":200,"L_num":13,"L_den":26,"R_num":14,"R_den":20,"correct_side":2,"subjID":"DiegoAlejandroSalamancaRamirez23","gender":"0","school":"6","age":"11"},{"start_time":1551899914627,"click_time":1551899916236,"finger_time":1551899915835,"fix_duration":928.470178999502,"trial":21,"RT":1208,"MT":401,"sideResp":2,"stimulus":[],"xmouse":[801,801,801,801,801,801,801,801,801,801,801,801,801,801,801,801,801,801,801,801,801,801,801,801,801,801,801,801,801,801,801,801,801,801,801,801,801,801,801,801,801,801,801,801,801,801,801,801,801,801,801,801,801,801,801,801,801,801,801,806,819,840,867,955,1002,1041,1071,1095,1122,1130,1143,1162,1193,1216,1218,1212,1202,1192,1176,1160,1146],"ymouse":[596,596,596,596,596,596,596,596,596,596,596,596,596,596,596,596,596,596,596,596,596,596,596,596,596,596,596,596,596,596,596,596,596,596,596,596,596,596,596,596,596,596,596,596,596,596,596,596,596,596,596,596,596,596,596,596,596,596,596,589,572,540,505,399,345,299,266,242,218,208,195,175,151,126,116,101,89,79,67,61,57],"timestamp_mouse":[10,36,48,70,90,110,129,149,170,188,210,229,249,269,290,309,329,350,370,388,409,429,450,469,489,508,529,550,569,589,609,629,649,669,689,709,730,749,769,789,811,829,849,869,889,909,928,950,970,989,1009,1029,1049,1070,1088,1109,1129,1148,1169,1189,1208,1228,1249,1269,1288,1309,1329,1349,1369,1388,1409,1429,1449,1469,1490,1509,1530,1550,1570,1588,1609],"xSR":741.5,"ySR":573.95,"xT1":424.9,"yT1":0,"xT2":1058.1,"yT2":0,"toosoon":0,"cond_shown":"Incongruent","ratio_trial":300,"L_num":13,"L_den":26,"R_num":12,"R_den":15,"correct_side":2,"subjID":"DiegoAlejandroSalamancaRamirez23","gender":"0","school":"6","age":"11"},{"start_time":1551899917895,"click_time":1551899919757,"finger_time":1551899919316,"fix_duration":637.8898049952429,"trial":22,"RT":1421,"MT":441,"sideResp":1,"stimulus":[],"xmouse":[825,825,825,825,825,825,825,825,825,825,825,825,825,825,825,825,825,825,825,825,825,825,825,825,825,825,825,825,825,825,825,825,825,825,825,825,825,825,825,825,825,825,825,825,825,825,825,825,825,825,825,825,825,825,825,825,825,825,825,825,825,825,825,825,825,825,825,825,825,826,817,802,774,747,724,697,684,666,644,614,574,556,535,512,497,487,477,474,473,473,473,473,473,473],"ymouse":[621,621,621,621,621,621,621,621,621,621,621,621,621,621,621,621,621,621,621,621,621,621,621,621,621,621,621,621,621,621,621,621,621,621,621,621,621,621,621,621,621,621,621,621,621,621,621,621,621,621,621,621,621,621,621,621,621,621,621,621,621,621,621,621,621,621,621,621,621,620,595,561,515,467,440,376,343,316,290,269,252,242,230,214,200,184,160,153,146,142,116,106,100,95],"timestamp_mouse":[8,29,42,61,81,102,122,141,162,182,202,222,242,262,282,302,321,342,362,382,401,422,441,460,482,501,521,543,561,582,601,622,642,661,681,701,722,741,761,782,801,821,842,861,882,902,921,942,961,981,1001,1022,1042,1061,1082,1102,1120,1142,1162,1182,1201,1220,1241,1262,1281,1301,1322,1342,1361,1382,1401,1421,1441,1462,1480,1500,1520,1541,1561,1581,1601,1621,1641,1661,1681,1701,1721,1741,1762,1782,1800,1820,1841,1861],"xSR":741.5,"ySR":573.95,"xT1":424.9,"yT1":0,"xT2":1058.1,"yT2":0,"toosoon":0,"cond_shown":"Incongruent","ratio_trial":100,"L_num":9,"L_den":15,"R_num":14,"R_den":28,"correct_side":1,"subjID":"DiegoAlejandroSalamancaRamirez23","gender":"0","school":"6","age":"11"},{"start_time":1551899921843,"click_time":1551899924336,"finger_time":1551899923436,"fix_duration":1104.8008749357864,"trial":23,"RT":1593,"MT":900,"sideResp":1,"stimulus":[],"xmouse":[822,822,822,822,822,822,822,822,822,822,822,822,822,822,822,822,822,822,822,822,822,822,822,822,822,822,822,822,822,822,822,822,822,822,822,822,822,822,822,822,822,822,822,822,822,822,822,822,822,822,822,822,822,822,822,822,822,822,822,822,822,822,822,822,822,822,822,822,822,822,822,822,822,820,819,818,818,818,829,847,871,892,921,922,922,922,922,922,922,922,922,922,922,907,875,827,778,693,673,663,653,645,631,622,609,598,587,552,529,511,492,454,419,413,407,404,403,403,403,403,403,404,414,421,429],"ymouse":[618,618,618,618,618,618,618,618,618,618,618,618,618,618,618,618,618,618,618,618,618,618,618,618,618,618,618,618,618,618,618,618,618,618,618,618,618,618,618,618,618,618,618,618,618,618,618,618,618,618,618,618,618,618,618,618,618,618,618,618,618,618,618,618,618,618,618,618,618,618,618,618,619,617,616,614,613,608,598,584,567,550,525,523,523,523,523,523,523,523,523,523,522,511,497,476,461,437,428,421,412,403,383,372,360,350,337,293,262,233,198,141,66,44,27,16,11,9,9,9,9,9,9,9,9],"timestamp_mouse":[13,35,53,73,94,113,133,152,173,194,213,233,253,274,293,314,334,354,373,394,412,434,454,474,493,514,534,552,574,594,612,634,654,672,692,713,733,752,774,792,814,834,853,873,894,913,933,952,974,993,1014,1033,1052,1074,1093,1113,1133,1152,1172,1193,1213,1233,1253,1273,1293,1312,1334,1353,1373,1394,1413,1433,1453,1473,1493,1513,1533,1553,1574,1593,1614,1634,1652,1673,1693,1713,1733,1753,1773,1794,1813,1833,1853,1873,1893,1914,1932,1953,1974,1994,2014,2034,2052,2074,2093,2113,2132,2153,2174,2193,2213,2233,2253,2273,2293,2312,2334,2353,2374,2393,2414,2434,2452,2473,2492],"xSR":741.5,"ySR":573.95,"xT1":424.9,"yT1":0,"xT2":1058.1,"yT2":0,"toosoon":0,"cond_shown":"Incongruent","ratio_trial":200,"L_num":1,"L_den":3,"R_num":2,"R_den":15,"correct_side":1,"subjID":"DiegoAlejandroSalamancaRamirez23","gender":"0","school":"6","age":"11"},{"start_time":1551899927149,"click_time":1551899928417,"finger_time":1551899928296,"fix_duration":250,"trial":24,"RT":1147,"MT":121,"sideResp":2,"stimulus":[],"xmouse":[764,764,764,764,764,764,764,764,764,764,764,763,763,763,763,763,763,763,763,763,763,763,763,763,763,763,763,763,763,763,763,763,763,763,763,763,763,763,763,763,763,763,763,763,763,763,763,763,763,763,763,763,763,763,763,763,763,825,887,942,989,1039,1123,1145],"ymouse":[618,618,618,618,618,618,618,618,618,618,618,618,618,618,618,618,618,618,618,618,618,618,618,618,618,618,618,618,618,618,618,618,618,618,618,618,618,618,618,618,618,618,618,618,618,618,618,618,618,618,618,618,618,618,618,618,618,552,491,422,357,286,151,95],"timestamp_mouse":[8,34,47,66,88,107,128,147,167,187,208,227,247,268,287,308,327,346,368,388,407,427,448,467,488,507,528,548,567,588,608,627,647,667,688,706,730,747,767,788,807,828,848,867,887,907,927,947,967,988,1008,1027,1047,1067,1088,1107,1127,1147,1167,1188,1207,1228,1247,1268],"xSR":741.5,"ySR":573.95,"xT1":424.9,"yT1":0,"xT2":1058.1,"yT2":0,"toosoon":0,"cond_shown":"Incongruent","ratio_trial":300,"L_num":13,"L_den":26,"R_num":12,"R_den":15,"correct_side":2,"subjID":"DiegoAlejandroSalamancaRamirez23","gender":"0","school":"6","age":"11"},{"start_time":1551899931153,"click_time":1551899932896,"finger_time":1551899932237,"fix_duration":975.2372621299328,"trial":25,"RT":1084,"MT":659,"sideResp":2,"stimulus":[],"xmouse":[793,793,793,793,793,793,793,793,793,793,793,793,793,793,793,793,793,794,794,794,794,794,794,794,794,794,794,794,794,794,794,794,794,794,794,794,794,794,794,794,794,794,794,794,794,794,794,794,794,794,794,794,800,810,819,830,848,879,891,898,904,907,914,920,924,929,937,952,969,989,1007,1026,1053,1057,1058,1058,1058,1058,1058,1059,1061,1063,1070,1074,1078,1082,1085,1094],"ymouse":[598,598,598,598,598,598,598,598,598,598,598,598,598,598,598,598,598,597,597,597,597,597,597,597,597,597,597,597,597,597,597,597,597,597,597,597,597,597,597,597,597,597,597,597,597,597,597,597,597,597,597,597,588,577,565,550,520,449,424,404,391,379,351,334,319,306,294,279,272,265,260,253,240,236,234,225,218,204,197,190,183,175,159,150,142,133,121,88],"timestamp_mouse":[10,24,43,64,83,103,123,143,162,184,203,223,243,264,283,304,324,344,363,384,403,424,443,464,483,503,524,544,563,584,604,624,643,663,683,704,722,744,763,783,803,823,843,864,884,902,923,943,963,983,1003,1023,1043,1064,1084,1103,1124,1142,1164,1183,1203,1223,1243,1263,1283,1303,1322,1343,1364,1383,1404,1423,1443,1463,1483,1502,1524,1543,1564,1583,1602,1624,1644,1662,1683,1703,1724,1742],"xSR":741.5,"ySR":573.95,"xT1":424.9,"yT1":0,"xT2":1058.1,"yT2":0,"toosoon":0,"cond_shown":"Congruent","ratio_trial":200,"L_num":6,"L_den":12,"R_num":7,"R_den":10,"correct_side":2,"subjID":"DiegoAlejandroSalamancaRamirez23","gender":"0","school":"6","age":"11"},{"start_time":1551899936170,"click_time":1551899938136,"finger_time":1551899937737,"fix_duration":1293.1658221805699,"trial":26,"RT":1567,"MT":399,"sideResp":2,"stimulus":[],"xmouse":[796,796,796,797,797,797,797,797,797,797,797,797,797,797,797,797,797,797,797,797,797,797,797,797,797,797,797,797,797,797,797,797,797,797,797,797,797,797,797,797,797,797,797,797,797,797,797,797,797,797,797,797,797,797,797,797,797,797,797,797,797,797,797,797,797,797,797,797,797,797,797,797,797,797,797,797,802,814,830,850,876,926,942,951,956,961,962,964,964,966,970,985,994,1005,1016,1031,1059,1078,1092],"ymouse":[595,595,595,594,594,594,594,594,594,594,594,594,594,594,594,594,594,594,594,594,594,594,594,594,594,594,594,594,594,594,594,594,594,594,594,594,594,594,594,594,594,594,594,594,594,594,594,594,594,594,594,594,594,594,594,594,594,594,594,594,594,594,594,594,594,594,594,594,594,594,594,594,594,594,594,594,586,577,563,545,518,440,413,393,378,364,354,349,341,329,318,288,272,255,233,197,139,105,75],"timestamp_mouse":[6,39,45,66,86,106,127,146,166,186,207,227,246,267,286,306,327,346,366,386,406,427,446,466,487,507,526,547,567,585,606,626,646,666,686,706,727,746,766,785,806,826,846,867,886,907,926,946,967,985,1006,1027,1047,1067,1086,1107,1127,1146,1166,1186,1206,1227,1247,1267,1287,1307,1327,1347,1367,1387,1406,1427,1447,1467,1486,1507,1526,1547,1567,1585,1607,1626,1646,1666,1686,1706,1726,1745,1766,1786,1807,1826,1845,1867,1887,1907,1925,1946,1966],"xSR":741.5,"ySR":573.95,"xT1":424.9,"yT1":0,"xT2":1058.1,"yT2":0,"toosoon":0,"cond_shown":"Incongruent","ratio_trial":200,"L_num":7,"L_den":15,"R_num":4,"R_den":6,"correct_side":2,"subjID":"DiegoAlejandroSalamancaRamirez23","gender":"0","school":"6","age":"11"},{"start_time":1551899942582,"click_time":1551899944417,"finger_time":1551899943636,"fix_duration":904.890574986833,"trial":27,"RT":1054,"MT":781,"sideResp":2,"stimulus":[],"xmouse":[812,812,812,812,812,812,812,812,812,812,812,812,812,812,812,812,812,812,812,812,812,812,812,812,812,812,812,812,812,812,812,812,812,812,812,812,812,812,812,812,812,812,812,812,812,812,812,812,812,812,812,820,843,876,939,1009,1021,1022,1022,1022,1022,1022,1022,1027,1029,1029,1025,1022,1019,1019,1018,1018,1018,1023,1029,1037,1039,1040,1042,1044,1046,1046,1046,1047,1047,1047,1047,1047,1048,1049,1057,1060],"ymouse":[602,602,602,602,602,602,602,602,602,602,602,602,602,602,602,602,602,602,602,602,602,602,602,602,602,602,602,602,602,602,602,602,602,602,602,602,602,602,602,602,602,602,602,602,602,602,602,602,602,602,602,602,599,593,565,514,497,487,477,469,447,430,406,379,345,316,306,298,292,287,271,258,240,219,194,142,124,109,94,81,62,56,53,52,52,52,52,52,52,52,50,50],"timestamp_mouse":[15,40,54,75,95,114,135,154,175,194,215,234,255,275,294,313,334,354,375,394,415,434,455,474,494,514,534,554,574,595,615,634,654,674,695,714,735,755,775,795,814,833,854,875,893,915,935,954,974,995,1014,1035,1054,1075,1094,1113,1135,1155,1175,1194,1213,1233,1254,1275,1295,1314,1335,1354,1374,1395,1414,1434,1455,1474,1495,1514,1535,1553,1574,1595,1614,1635,1655,1675,1694,1715,1735,1754,1774,1794,1814,1835],"xSR":741.5,"ySR":573.95,"xT1":424.9,"yT1":0,"xT2":1058.1,"yT2":0,"toosoon":0,"cond_shown":"Congruent","ratio_trial":300,"L_num":2,"L_den":20,"R_num":10,"R_den":25,"correct_side":2,"subjID":"DiegoAlejandroSalamancaRamirez23","gender":"0","school":"6","age":"11"},{"start_time":1551899946726,"click_time":1551899948496,"finger_time":1551899948175,"fix_duration":1108.7824673649777,"trial":28,"RT":1449,"MT":321,"sideResp":2,"stimulus":[],"xmouse":[817,817,817,817,817,817,817,817,817,817,817,817,817,817,817,817,817,817,817,817,817,817,817,817,817,817,817,817,817,817,817,817,817,817,817,817,817,817,817,817,817,817,817,817,817,817,817,817,817,817,817,817,817,817,817,817,817,817,817,817,817,817,817,817,817,817,817,817,817,817,827,835,862,902,996,1039,1071,1094,1107,1111,1111,1111,1111,1111,1111,1111,1111,1109,1103],"ymouse":[593,593,593,593,593,593,593,593,593,593,593,593,593,593,593,593,593,593,593,593,593,593,593,593,593,593,593,593,593,593,593,593,593,593,593,593,593,593,593,593,593,593,593,593,593,593,593,593,593,593,593,593,593,593,593,593,593,593,593,593,593,593,593,593,593,593,593,593,593,593,585,575,547,508,391,338,298,266,233,217,203,192,183,151,136,123,112,103,84],"timestamp_mouse":[11,34,50,71,90,110,130,151,171,191,209,229,249,271,291,310,330,350,370,390,409,431,450,471,490,510,531,551,570,589,610,630,650,670,690,711,731,750,770,791,811,831,850,870,890,910,930,949,971,990,1010,1030,1050,1071,1090,1110,1130,1150,1170,1191,1210,1230,1250,1271,1290,1310,1330,1350,1370,1391,1410,1430,1449,1470,1491,1510,1530,1549,1570,1591,1609,1631,1651,1670,1690,1710,1730,1750,1770],"xSR":741.5,"ySR":573.95,"xT1":424.9,"yT1":0,"xT2":1058.1,"yT2":0,"toosoon":0,"cond_shown":"Incongruent","ratio_trial":200,"L_num":7,"L_den":15,"R_num":6,"R_den":9,"correct_side":2,"subjID":"DiegoAlejandroSalamancaRamirez23","gender":"0","school":"6","age":"11"},{"start_time":1551899951676,"click_time":1551899953037,"finger_time":1551899952296,"fix_duration":577.5483793649576,"trial":29,"RT":620,"MT":741,"sideResp":2,"stimulus":[],"xmouse":[802,802,802,802,802,802,802,802,802,802,802,802,802,802,802,802,802,802,802,802,802,802,802,802,802,802,803,807,813,820,831,855,860,862,863,863,863,863,863,863,863,863,863,865,868,872,889,899,912,924,935,965,976,987,997,1006,1015,1018,1019,1019,1020,1034,1040,1042,1045,1045,1049,1054,1062],"ymouse":[619,619,619,619,619,619,619,619,619,619,619,619,619,619,619,619,619,619,619,619,619,619,619,619,619,619,619,617,612,603,591,558,552,550,549,549,549,549,549,549,549,549,549,548,543,536,505,486,466,442,421,371,351,331,313,292,246,222,201,171,162,120,107,101,95,93,87,82,77],"timestamp_mouse":[8,20,40,61,81,100,120,141,159,180,201,220,240,259,280,301,320,340,360,381,400,419,441,461,480,501,521,540,560,580,601,620,641,660,681,700,720,740,761,780,801,819,840,861,879,900,921,941,960,980,1001,1020,1040,1061,1081,1100,1121,1140,1160,1181,1201,1220,1240,1260,1280,1300,1321,1340,1361],"xSR":741.5,"ySR":573.95,"xT1":424.9,"yT1":0,"xT2":1058.1,"yT2":0,"toosoon":0,"cond_shown":"Incongruent","ratio_trial":100,"L_num":6,"L_den":10,"R_num":13,"R_den":26,"correct_side":1,"subjID":"DiegoAlejandroSalamancaRamirez23","gender":"0","school":"6","age":"11"},{"start_time":1551899956250,"click_time":1551899958076,"finger_time":1551899957577,"fix_duration":1092.3706844520177,"trial":30,"RT":1327,"MT":499,"sideResp":1,"stimulus":[],"xmouse":[822,822,822,822,822,822,822,822,822,822,822,822,822,822,822,822,822,822,822,822,822,822,822,822,822,822,822,822,822,822,822,822,822,822,822,822,822,822,822,822,822,822,822,822,822,822,822,822,822,822,822,822,822,822,822,822,822,822,822,822,822,822,822,822,809,797,763,679,641,612,589,571,559,555,548,543,538,528,521,514,505,495,481,476,474,472,469,464,463,463,463,463],"ymouse":[619,619,619,619,619,619,619,619,619,619,619,619,619,619,619,619,619,619,619,619,619,619,619,619,619,619,619,619,619,619,619,619,619,619,619,619,619,619,619,619,619,619,619,619,619,619,619,619,619,619,619,619,619,619,619,619,619,619,619,619,619,619,619,619,604,590,550,459,426,401,381,365,356,352,345,337,330,300,279,254,234,210,186,175,170,163,157,133,122,110,104,97],"timestamp_mouse":[9,32,46,66,87,105,126,146,167,187,207,226,246,265,286,307,326,346,366,387,406,426,446,466,486,506,527,545,566,586,606,627,645,666,686,706,727,747,765,786,805,826,846,866,886,906,927,945,966,987,1006,1026,1047,1065,1087,1106,1126,1146,1166,1187,1205,1227,1245,1266,1287,1306,1327,1347,1366,1387,1406,1427,1446,1466,1486,1507,1526,1547,1566,1587,1606,1626,1646,1667,1686,1706,1726,1745,1767,1785,1807,1826],"xSR":741.5,"ySR":573.95,"xT1":424.9,"yT1":0,"xT2":1058.1,"yT2":0,"toosoon":0,"cond_shown":"Congruent","ratio_trial":200,"L_num":16,"L_den":30,"R_num":9,"R_den":27,"correct_side":1,"subjID":"DiegoAlejandroSalamancaRamirez23","gender":"0","school":"6","age":"11"},{"start_time":1551899963247,"click_time":1551899964696,"finger_time":1551899964396,"fix_duration":1150.0468454718455,"trial":31,"RT":1149,"MT":300,"sideResp":2,"stimulus":[],"xmouse":[790,790,790,790,790,790,790,790,790,790,790,790,790,790,790,790,790,790,790,790,790,790,790,790,790,790,790,790,790,790,790,790,790,790,790,790,790,790,790,790,790,790,790,790,790,790,790,790,790,790,790,790,790,790,790,792,798,816,830,844,857,878,902,917,934,949,963,987,1006,1022,1034,1046,1071],"ymouse":[623,623,623,623,623,623,623,623,623,623,623,623,623,623,623,623,623,623,623,623,623,623,623,623,623,623,623,623,623,623,623,623,623,623,623,623,623,623,623,623,623,623,623,623,623,623,623,623,623,623,623,623,623,618,604,595,587,570,557,540,521,491,440,407,369,332,299,246,207,182,162,140,96],"timestamp_mouse":[10,34,50,69,88,109,129,149,169,189,209,228,249,269,289,308,329,350,368,389,410,430,450,468,489,510,530,549,570,589,610,630,650,669,690,710,728,750,769,790,810,829,849,869,890,910,930,950,970,989,1009,1029,1050,1068,1090,1109,1129,1149,1169,1188,1210,1230,1249,1269,1290,1309,1330,1350,1369,1389,1409,1429,1449],"xSR":741.5,"ySR":573.95,"xT1":424.9,"yT1":0,"xT2":1058.1,"yT2":0,"toosoon":0,"cond_shown":"Congruent","ratio_trial":200,"L_num":1,"L_den":2,"R_num":21,"R_den":30,"correct_side":2,"subjID":"DiegoAlejandroSalamancaRamirez23","gender":"0","school":"6","age":"11"},{"start_time":1551899966310,"click_time":1551899969197,"finger_time":1551899968096,"fix_duration":250,"trial":32,"RT":1786,"MT":1101,"sideResp":2,"stimulus":[],"xmouse":[756,756,757,757,757,757,757,757,757,757,757,757,757,757,757,757,757,757,757,757,757,757,757,757,757,757,757,757,757,757,757,757,757,757,757,757,757,757,757,757,757,757,757,757,757,757,757,757,757,757,757,757,757,757,757,757,757,757,757,757,757,757,757,757,757,757,757,757,757,757,757,757,757,757,757,757,757,757,757,757,757,757,757,755,754,754,754,754,754,756,759,760,760,760,760,760,760,760,760,760,760,760,760,760,760,760,760,760,760,760,760,760,760,760,760,760,760,760,760,760,760,760,760,760,760,760,760,760,760,760,760,760,760,760,760,760,760,760,761,813,857,911,973,1032,1105],"ymouse":[630,630,629,629,629,629,629,629,629,629,629,629,629,629,629,629,629,629,629,629,629,629,629,629,629,629,629,629,629,629,629,629,629,629,629,629,629,629,629,629,629,629,629,629,629,629,629,629,629,629,629,629,629,627,625,625,625,625,625,625,625,625,625,625,625,625,625,625,625,625,625,625,625,625,625,625,625,625,625,625,625,625,619,613,606,606,606,606,604,573,566,566,566,566,566,566,566,566,566,566,566,566,566,566,566,566,566,566,566,566,566,567,568,568,568,568,568,568,568,568,568,568,568,568,568,568,568,568,568,568,568,568,568,568,568,568,568,568,568,509,463,401,333,252,97],"timestamp_mouse":[10,32,46,65,87,106,126,147,167,186,207,226,246,266,285,307,326,346,366,386,406,426,446,467,486,506,526,547,567,586,607,627,646,666,687,707,727,745,766,786,806,826,846,866,885,906,926,946,967,987,1006,1027,1046,1067,1085,1106,1126,1146,1166,1187,1205,1227,1246,1266,1286,1307,1327,1346,1366,1386,1407,1425,1446,1466,1486,1507,1527,1547,1567,1587,1606,1626,1647,1667,1686,1707,1726,1747,1766,1786,1806,1826,1847,1866,1887,1906,1927,1946,1967,1987,2006,2026,2047,2067,2086,2106,2126,2146,2166,2186,2207,2226,2246,2267,2287,2306,2326,2346,2366,2387,2406,2427,2447,2467,2486,2506,2527,2547,2567,2586,2607,2626,2646,2666,2686,2706,2727,2746,2766,2786,2806,2826,2847,2867,2887],"xSR":741.5,"ySR":573.95,"xT1":424.9,"yT1":0,"xT2":1058.1,"yT2":0,"toosoon":0,"cond_shown":"Incongruent","ratio_trial":300,"L_num":13,"L_den":26,"R_num":12,"R_den":15,"correct_side":2,"subjID":"DiegoAlejandroSalamancaRamirez23","gender":"0","school":"6","age":"11"},{"start_time":1551899970689,"click_time":1551899972656,"finger_time":1551899972296,"fix_duration":290.0706839184074,"trial":33,"RT":1607,"MT":360,"sideResp":2,"stimulus":[],"xmouse":[833,833,833,833,833,833,833,833,833,833,833,833,833,833,833,833,833,833,833,833,833,833,833,833,833,833,833,833,833,833,833,833,833,833,833,833,833,833,833,833,833,833,833,833,833,833,833,833,833,833,833,833,833,833,833,833,833,833,833,833,833,833,833,833,833,833,833,833,833,833,833,833,833,833,833,833,833,833,833,841,908,964,1022,1079,1135,1213,1232,1241,1246,1247,1246,1243,1240,1237,1230,1201,1184,1165,1151],"ymouse":[636,636,636,636,636,636,636,636,636,636,636,636,636,636,636,636,636,636,636,636,636,636,636,636,636,636,636,636,636,636,636,636,636,636,636,636,636,636,636,636,636,636,636,636,636,636,636,636,636,636,636,636,636,636,636,636,636,636,636,636,636,636,636,636,636,636,636,636,636,636,636,636,636,636,636,636,636,636,636,633,596,560,516,465,400,250,199,174,147,138,94,83,75,70,67,62,62,62,62],"timestamp_mouse":[10,39,47,67,87,108,127,147,167,188,207,227,247,267,287,307,327,346,367,387,407,427,447,468,487,508,527,546,568,587,607,627,648,668,686,707,728,747,767,788,807,828,847,867,887,907,927,947,967,987,1007,1027,1047,1067,1087,1107,1127,1147,1167,1187,1207,1227,1248,1266,1287,1308,1328,1348,1367,1388,1407,1428,1447,1467,1487,1508,1527,1547,1568,1588,1607,1628,1647,1668,1688,1707,1727,1747,1767,1787,1807,1827,1847,1868,1887,1907,1927,1947,1967],"xSR":741.5,"ySR":573.95,"xT1":424.9,"yT1":0,"xT2":1058.1,"yT2":0,"toosoon":0,"cond_shown":"Incongruent","ratio_trial":200,"L_num":11,"L_den":20,"R_num":3,"R_den":4,"correct_side":2,"subjID":"DiegoAlejandroSalamancaRamirez23","gender":"0","school":"6","age":"11"},{"start_time":1551899975026,"click_time":1551899976437,"finger_time":1551899975996,"fix_duration":1147.0346721861504,"trial":34,"RT":970,"MT":441,"sideResp":1,"stimulus":[],"xmouse":[769,769,769,769,769,769,769,769,769,769,769,769,769,769,769,769,769,769,769,769,769,769,769,769,769,769,769,769,769,769,769,769,769,769,769,769,769,769,769,769,769,769,769,769,769,769,769,767,750,740,729,712,692,663,645,628,609,596,580,576,574,565,555,528,520,515,510,508,504,504,501],"ymouse":[592,592,592,592,592,592,592,592,592,592,592,592,592,592,592,592,592,592,592,592,592,592,592,592,592,592,592,592,592,592,592,592,592,592,592,592,592,592,592,592,592,592,592,592,592,592,592,574,535,513,486,452,407,359,337,318,299,284,270,266,262,241,222,187,174,163,154,145,125,114,98],"timestamp_mouse":[10,34,50,70,90,111,131,152,170,191,211,231,251,270,290,310,330,351,370,390,412,430,451,471,490,510,530,552,571,590,610,630,650,670,692,711,731,751,771,791,811,830,850,871,890,910,930,951,970,990,1011,1030,1050,1070,1091,1110,1130,1150,1171,1192,1210,1230,1250,1271,1291,1311,1330,1351,1370,1390,1410],"xSR":741.5,"ySR":573.95,"xT1":424.9,"yT1":0,"xT2":1058.1,"yT2":0,"toosoon":0,"cond_shown":"Congruent","ratio_trial":200,"L_num":16,"L_den":20,"R_num":12,"R_den":20,"correct_side":1,"subjID":"DiegoAlejandroSalamancaRamirez23","gender":"0","school":"6","age":"11"},{"start_time":1551899979843,"click_time":1551899981597,"finger_time":1551899981377,"fix_duration":544.1182283374628,"trial":35,"RT":1534,"MT":220,"sideResp":1,"stimulus":[],"xmouse":[778,778,778,778,778,778,778,778,778,778,778,778,778,778,778,778,778,778,778,778,778,778,778,778,778,778,778,778,778,778,778,778,778,778,778,778,778,778,778,778,778,778,778,778,778,778,778,778,778,778,778,778,778,778,778,778,778,778,778,778,778,778,778,778,778,778,778,778,778,778,778,778,778,778,777,772,760,711,688,663,638,593,550,541,537,533,527,505],"ymouse":[586,586,586,586,586,586,586,586,586,586,586,586,586,586,586,586,586,586,586,586,586,586,586,586,586,586,586,586,586,586,586,586,586,586,586,586,586,586,586,586,586,586,586,586,586,586,586,586,586,586,586,586,586,586,586,586,586,586,586,586,586,586,586,586,586,586,586,586,586,586,586,586,586,586,583,576,558,490,450,405,346,239,142,123,107,91,70,18],"timestamp_mouse":[13,34,53,74,94,114,134,154,174,194,213,233,253,273,294,314,333,353,373,394,413,433,454,473,493,513,533,554,573,593,613,633,653,673,694,713,733,754,775,794,814,833,854,874,893,913,933,953,974,994,1014,1033,1054,1073,1094,1113,1133,1155,1173,1193,1213,1235,1253,1273,1293,1314,1333,1353,1374,1393,1413,1433,1453,1474,1493,1513,1534,1554,1574,1593,1614,1633,1653,1673,1693,1713,1734,1754],"xSR":741.5,"ySR":573.95,"xT1":424.9,"yT1":0,"xT2":1058.1,"yT2":0,"toosoon":0,"cond_shown":"Incongruent","ratio_trial":100,"L_num":8,"L_den":20,"R_num":1,"R_den":2,"correct_side":2,"subjID":"DiegoAlejandroSalamancaRamirez23","gender":"0","school":"6","age":"11"},{"start_time":1551899989360,"click_time":1551899990836,"finger_time":1551899990197,"fix_duration":440.75098164564383,"trial":36,"RT":837,"MT":639,"sideResp":2,"stimulus":[],"xmouse":[835,835,835,835,835,835,835,835,835,835,835,835,835,835,835,835,835,835,835,835,835,835,835,835,835,835,835,835,835,835,835,835,835,835,835,835,835,835,835,835,836,842,845,849,851,852,852,853,853,853,854,854,854,854,854,856,869,891,923,949,971,1014,1025,1029,1031,1031,1031,1033,1034,1034,1034,1035,1046,1064],"ymouse":[601,601,601,601,601,601,601,601,601,601,601,601,601,601,601,601,601,601,601,601,601,601,601,601,601,601,601,601,601,601,601,601,601,601,601,601,601,601,601,601,601,593,584,576,570,569,567,565,563,561,560,560,560,560,556,552,515,429,323,221,135,0,0,0,0,0,0,0,0,0,0,0,4,16],"timestamp_mouse":[17,36,57,77,96,116,136,157,176,196,216,236,258,276,296,317,336,357,377,398,416,437,456,476,497,516,536,557,577,597,617,638,657,677,698,717,736,757,778,796,816,837,857,877,896,917,936,956,976,996,1016,1036,1056,1078,1096,1117,1136,1157,1176,1196,1217,1236,1256,1276,1297,1318,1337,1356,1376,1396,1417,1437,1456,1476],"xSR":741.5,"ySR":573.95,"xT1":424.9,"yT1":0,"xT2":1058.1,"yT2":0,"toosoon":0,"cond_shown":"Congruent","ratio_trial":300,"L_num":1,"L_den":20,"R_num":7,"R_den":20,"correct_side":2,"subjID":"DiegoAlejandroSalamancaRamirez23","gender":"0","school":"6","age":"11"},{"start_time":1551899994285,"click_time":1551899995796,"finger_time":15518999955