[{"start_time":1551900990158,"click_time":1551901028506,"finger_time":1551900990169,"fix_duration":250,"trial":0,"RT":11,"MT":38337,"sideResp":2,"stimulus":"img/900/equaldotsize/L/2_Ratio_900_L_20_R_18.png","xmouse":[785,785,785,785,785,785,785,785,785,785,785,785,785,785,785,785,785,785,785,785,785,785,785,785,785,785,785,785,785,785,785,785,785,785,785,785,785,785,785,785,785,785,785,785,785,785,785,785,785,785,785,785,785,785,785,785,778,777,777,777,777,777,777,778,779,781,784,785,786,786,787,789,791,792,795,800,802,802,802,801,798,797,796,796,796,796,796,796,796,796,796,796,796,796,796,796,796,796,796,796,796,796,796,796,796,796,796,796,796,796,796,796,796,796,796,796,796,796,796,796,796,796,796,796,796,796,796,796,796,796,796,796,796,796,796,796,800,825,864,905,957,1079,1134,1177,1196,1208,1226,1260,1346,1449,1556,1556,1556,1556,1556,1556,1556,1556,1556,1525,1419,1225,1176,1190,1267,1346,1368,1368,1368,1368,1368,1368,1368,1368,1368,1368,1368,1368,1368,1368,1368,1368,1368,1368,1368,1368,1368,1368,1368,1368,1368,1368,1368,1368,1368,1368,1368,1368,1368,1368,1368,1368,1368,1368,1368,1368,1368,1368,1368,1368,1368,1368,1368,1368,1368,1368,1368,1368,1368,1368,1368,1368,1368,1368,1368,1368,1368,1368,1368,1368,1368,1368,1368,1368,1368,1368,1368,1368,1368,1368,1368,1368,1368,1368,1368,1368,1368,1368,1368,1368,1368,1368,1368,1368,1368,1368,1368,1368,1368,1368,1368,1368,1368,1368,1368,1368,1368,1368,1368,1368,1368,1368,1368,1368,1368,1368,1368,1368,1368,1368,1368,1368,1368,1368,1368,1368,1368,1368,1368,1368,1368,1368,1368,1368,1368,1368,1368,1368,1368,1368,1368,1368,1368,1368,1368,1368,1368,1368,1368,1368,1368,1368,1368,1368,1368,1368,1368,1368,1368,1368,1368,1368,1368,1368,1368,1368,1368,1368,1368,1368,1368,1368,1368,1368,1368,1368,1368,1368,1368,1368,1368,1368,1368,1368,1368,1368,1368,1368,1368,1368,1368,1368,1368,1368,1368,1368,1368,1368,1368,1368,1368,1368,1368,1368,1368,1368,1368,1368,1368,1368,1368,1368,1368,1368,1368,1368,1368,1368,1368,1368,1368,1368,1368,1368,1368,1368,1368,1368,1368,1368,1368,1368,1368,1368,1368,1368,1368,1368,1368,1368,1368,1368,1368,1368,1368,1368,1368,1368,1368,1368,1368,1368,1368,1368,1368,1368,1368,1368,1368,1368,1368,1368,1368,1368,1368,1368,1368,1368,1368,1368,1368,1368,1368,1368,1368,1368,1368,1368,1368,1368,1368,1368,1368,1368,1368,1368,1368,1368,1368,1368,1368,1368,1368,1368,1368,1368,1368,1368,1368,1368,1368,1368,1368,1368,1368,1368,1368,1368,1368,1368,1368,1368,1368,1368,1368,1368,1368,1368,1368,1368,1368,1368,1368,1368,1368,1368,1368,1368,1368,1368,1368,1368,1368,1368,1368,1368,1368,1368,1368,1368,1368,1368,1368,1368,1368,1368,1368,1368,1368,1368,1368,1368,1368,1368,1368,1368,1368,1368,1368,1368,1368,1368,1368,1368,1368,1368,1368,1368,1368,1368,1368,1368,1368,1368,1368,1368,1368,1368,1368,1368,1368,1368,1368,1368,1368,1368,1368,1368,1368,1368,1368,1368,1368,1368,1368,1368,1368,1368,1368,1368,1368,1368,1368,1368,1368,1368,1368,1368,1368,1368,1368,1368,1368,1368,1368,1368,1368,1368,1368,1368,1368,1368,1368,1368,1368,1368,1368,1368,1368,1368,1368,1368,1368,1368,1368,1368,1368,1368,1368,1368,1368,1368,1368,1368,1368,1368,1368,1368,1368,1368,1368,1368,1368,1368,1368,1368,1368,1368,1368,1368,1368,1368,1368,1368,1368,1368,1368,1368,1368,1368,1368,1368,1368,1368,1368,1368,1368,1368,1368,1368,1368,1368,1368,1368,1368,1368,1368,1368,1368,1368,1368,1368,1368,1368,1368,1368,1368,1368,1368,1368,1368,1368,1368,1368,1368,1368,1368,1368,1368,1368,1368,1368,1368,1368,1368,1368,1368,1368,1368,1368,1368,1368,1368,1368,1368,1368,1368,1368,1368,1368,1368,1368,1368,1368,1368,1368,1368,1368,1368,1368,1368,1368,1368,1368,1368,1368,1368,1368,1368,1368,1368,1368,1368,1368,1368,1368,1368,1368,1368,1368,1368,1368,1368,1368,1368,1368,1368,1368,1368,1368,1368,1368,1368,1368,1368,1368,1368,1368,1368,1368,1368,1368,1368,1368,1368,1368,1368,1368,1368,1368,1368,1368,1368,1368,1368,1368,1368,1368,1368,1368,1368,1368,1368,1368,1368,1368,1368,1368,1368,1368,1368,1368,1368,1368,1368,1368,1368,1368,1368,1368,1368,1368,1368,1368,1368,1368,1368,1368,1368,1368,1368,1368,1368,1368,1368,1368,1368,1368,1368,1368,1368,1368,1368,1368,1368,1368,1368,1368,1368,1368,1368,1368,1368,1368,1368,1368,1368,1368,1368,1368,1368,1368,1368,1368,1368,1368,1368,1368,1368,1368,1368,1368,1368,1368,1368,1368,1368,1368,1368,1368,1368,1368,1368,1368,1368,1368,1368,1368,1368,1368,1368,1368,1368,1368,1368,1368,1368,1368,1368,1368,1368,1368,1368,1368,1368,1368,1368,1368,1368,1368,1368,1368,1368,1368,1368,1368,1368,1368,1368,1368,1368,1368,1368,1368,1368,1368,1368,1368,1368,1368,1368,1368,1368,1368,1368,1368,1368,1368,1368,1368,1368,1368,1368,1368,1368,1368,1368,1368,1368,1368,1368,1368,1368,1368,1368,1368,1368,1368,1368,1368,1368,1368,1368,1368,1368,1368,1368,1368,1368,1368,1368,1368,1368,1368,1368,1368,1368,1368,1368,1368,1368,1368,1368,1368,1368,1368,1368,1368,1368,1368,1368,1368,1368,1368,1368,1368,1368,1368,1368,1368,1368,1368,1368,1368,1368,1368,1368,1368,1368,1368,1368,1368,1368,1368,1368,1368,1368,1368,1368,1368,1368,1368,1368,1368,1368,1368,1368,1368,1368,1368,1368,1368,1368,1368,1368,1368,1368,1368,1368,1368,1368,1368,1368,1368,1368,1368,1368,1368,1368,1368,1368,1368,1368,1368,1368,1368,1368,1368,1368,1368,1368,1368,1368,1368,1368,1368,1368,1368,1368,1368,1368,1368,1368,1368,1368,1368,1368,1368,1368,1368,1368,1368,1368,1368,1368,1368,1368,1368,1368,1368,1368,1368,1368,1368,1368,1368,1368,1368,1368,1368,1368,1368,1368,1368,1368,1368,1368,1368,1368,1368,1368,1368,1368,1368,1368,1368,1368,1368,1368,1368,1368,1368,1368,1368,1368,1368,1368,1368,1368,1368,1368,1368,1368,1368,1368,1368,1368,1368,1368,1368,1368,1368,1368,1368,1368,1368,1368,1368,1368,1368,1368,1368,1368,1368,1368,1368,1368,1368,1368,1368,1368,1368,1368,1368,1368,1368,1368,1368,1368,1368,1368,1368,1368,1368,1368,1368,1368,1368,1368,1368,1368,1368,1368,1368,1368,1368,1368,1368,1368,1368,1368,1368,1368,1368,1368,1368,1368,1368,1368,1368,1368,1368,1368,1368,1368,1368,1368,1368,1368,1368,1368,1368,1368,1368,1368,1368,1368,1368,1368,1368,1368,1368,1368,1368,1368,1368,1368,1368,1368,1368,1368,1368,1368,1368,1368,1368,1368,1368,1368,1368,1368,1368,1368,1368,1368,1368,1368,1368,1368,1368,1368,1368,1368,1368,1368,1368,1368,1368,1368,1368,1368,1368,1368,1368,1368,1368,1368,1368,1368,1368,1368,1368,1368,1368,1368,1368,1368,1368,1368,1368,1368,1368,1368,1368,1368,1368,1368,1368,1368,1368,1368,1368,1368,1368,1368,1368,1368,1368,1368,1368,1368,1368,1368,1368,1368,1368,1368,1368,1368,1368,1368,1368,1368,1368,1368,1368,1368,1368,1368,1368,1368,1368,1368,1368,1368,1368,1368,1368,1368,1368,1368,1368,1368,1368,1368,1368,1368,1368,1368,1368,1368,1368,1368,1368,1368,1368,1368,1368,1368,1368,1368,1368,1368,1368,1368,1368,1368,1368,1368,1368,1368,1368,1368,1368,1368,1368,1368,1368,1368,1368,1368,1368,1368,1368,1368,1368,1368,1368,1368,1368,1368,1368,1368,1368,1368,1368,1368,1368,1368,1368,1368,1368,1368,1368,1368,1368,1368,1368,1368,1368,1368,1368,1368,1368,1368,1368,1368,1368,1368,1368,1368,1368,1368,1368,1368,1368,1368,1368,1368,1368,1368,1368,1368,1368,1368,1368,1368,1368,1368,1368,1368,1368,1368,1368,1368,1368,1368,1368,1368,1368,1368,1368,1368,1368,1368,1368,1368,1368,1368,1368,1368,1368,1368,1368,1368,1368,1368,1368,1368,1368,1368,1368,1368,1368,1368,1368,1368,1368,1368,1368,1368,1368,1368,1368,1368,1368,1368,1368,1368,1368,1368,1368,1368,1368,1368,1368,1368,1368,1368,1368,1368,1368,1368,1368,1368,1368,1368,1368,1368,1368,1368,1368,1368,1368,1368,1368,1368,1368,1368,1368,1368,1368,1368,1368,1368,1368,1368,1368,1368,1368,1368,1368,1368,1368,1368,1368,1368,1368,1368,1368,1368,1368,1368,1368,1368,1368,1368,1368,1368,1368,1368,1368,1368,1368,1368,1368,1368,1368,1368,1368,1368,1368,1368,1368,1368,1368,1368,1368,1368,1368,1368,1368,1368,1368,1368,1368,1368,1368,1368,1368,1368,1368,1368,1368,1368,1368,1368,1368,1368,1368,1368,1368,1368,1368,1368,1368,1368,1368,1368,1368,1368,1368,1368,1368,1368,1368,1368,1368,1368,1368,1368,1368,1368,1368,1368,1368,1368,1368,1368,1368,1368,1368,1368,1368,1368,1368,1368,1368,1368,1368,1368,1368,1368,1368,1368,1368,1368,1368,1368,1368,1368,1368,1368,1368,1368,1368,1368,1368,1368,1368,1368,1368,1368,1368,1368,1368,1368,1368,1368,1368,1368,1368,1368,1368,1368,1368,1368,1368,1368,1368,1368,1368,1368,1368,1368,1368,1368,1368,1368,1368,1368,1368,1368,1368,1368,1368,1368,1368,1368,1368,1368,1368,1368,1368,1368,1368,1368,1368,1368,1368,1368,1368,1368,1368,1368,1368,1368,1368,1368,1368,1368,1368,1368,1368,1368,1368,1368,1368,1368,1368,1368,1368,1368,1368,1368,1368,1368,1368,1368,1368,1368,1368,1368,1368,1368,1368,1368,1368,1368,1368,1368,1368,1368,1368,1368,1368,1368,1368,1368,1368,1368,1368,1368,1368,1368,1368,1368,1368,1368,1368,1368,1368,1368,1368,1368,1368,1368,1368,1368,1368,1368,1368,1368,1368,1368,1368,1368,1368,1368,1368,1368,1368,1368,1368,1368,1368,1368,1368,1368,1368,1368,1368,1368,1368,1368,1368,1368,1368,1368,1368,1368,1368,1368,1368,1368,1368,1368,1368,1368,1368,1368,1368,1368,1368,1368,1368,1368,1368,1368,1368,1368,1368,1368,1368,1368,1368,1368,1368,1368,1368,1368,1368,1368,1368,1368,1368,1368,1368,1368,1368,1368,1368,1368,1368,1368,1368,1368,1368,1368,1368,1368,1368,1368,1368,1368,1368,1368,1368,1368,1368,1368,1368,1368,1368,1368,1368,1368,1368,1368,1368,1368,1368,1368,1368,1368,1368,1368,1368,1368,1368,1368,1368,1368,1368,1368,1368,1368,1368,1368,1368,1368,1368,1368,1368,1368,1368,1368,1368,1368,1368,1368,1368,1368,1368,1368,1379,1449,1577,1577,1577,1577,1577,1577,1577,1577,1577,1559,1479,1381,1278,1061,1019,996,980,967,963,962,960,948,942,932,932,938,947,953,969,970,970,970,970,972,977,980,981,982,993,1041,1046,1046,1046,1047,1047,1048,1050,1054,1056,1056,1056,1056,1056,1056,1056,1057,1057,1057,1057,1057,1059],"ymouse":[509,509,509,509,509,509,509,509,509,509,509,509,509,509,509,509,509,509,509,509,509,509,509,509,509,509,509,509,509,509,509,509,509,509,509,509,509,509,509,509,509,509,509,509,509,509,509,509,509,509,509,509,509,509,509,511,515,516,519,521,523,528,533,535,538,541,547,548,549,550,550,550,551,552,553,555,559,562,565,570,576,581,583,584,584,584,584,584,584,584,584,584,584,584,584,584,584,584,584,584,584,584,584,584,584,584,584,584,584,584,584,584,584,584,584,584,584,584,584,584,584,584,584,584,584,584,584,584,584,584,584,584,584,584,584,584,584,559,497,405,286,0,0,0,0,0,0,1,36,89,150,150,150,150,150,150,150,150,150,267,348,491,525,560,640,728,755,755,755,755,755,755,755,755,755,755,755,755,755,755,755,755,755,755,755,755,755,755,755,755,755,755,755,755,755,755,755,755,755,755,755,755,755,755,755,755,755,755,755,755,755,755,755,755,755,755,755,755,755,755,755,755,755,755,755,755,755,755,755,755,755,755,755,755,755,755,755,755,755,755,755,755,755,755,755,755,755,755,755,755,755,755,755,755,755,755,755,755,755,755,755,755,755,755,755,755,755,755,755,755,755,755,755,755,755,755,755,755,755,755,755,755,755,755,755,755,755,755,755,755,755,755,755,755,755,755,755,755,755,755,755,755,755,755,755,755,755,755,755,755,755,755,755,755,755,755,755,755,755,755,755,755,755,755,755,755,755,755,755,755,755,755,755,755,755,755,755,755,755,755,755,755,755,755,755,755,755,755,755,755,755,755,755,755,755,755,755,755,755,755,755,755,755,755,755,755,755,755,755,755,755,755,755,755,755,755,755,755,755,755,755,755,755,755,755,755,755,755,755,755,755,755,755,755,755,755,755,755,755,755,755,755,755,755,755,755,755,755,755,755,755,755,755,755,755,755,755,755,755,755,755,755,755,755,755,755,755,755,755,755,755,755,755,755,755,755,755,755,755,755,755,755,755,755,755,755,755,755,755,755,755,755,755,755,755,755,755,755,755,755,755,755,755,755,755,755,755,755,755,755,755,755,755,755,755,755,755,755,755,755,755,755,755,755,755,755,755,755,755,755,755,755,755,755,755,755,755,755,755,755,755,755,755,755,755,755,755,755,755,755,755,755,755,755,755,755,755,755,755,755,755,755,755,755,755,755,755,755,755,755,755,755,755,755,755,755,755,755,755,755,755,755,755,755,755,755,755,755,755,755,755,755,755,755,755,755,755,755,755,755,755,755,755,755,755,755,755,755,755,755,755,755,755,755,755,755,755,755,755,755,755,755,755,755,755,755,755,755,755,755,755,755,755,755,755,755,755,755,755,755,755,755,755,755,755,755,755,755,755,755,755,755,755,755,755,755,755,755,755,755,755,755,755,755,755,755,755,755,755,755,755,755,755,755,755,755,755,755,755,755,755,755,755,755,755,755,755,755,755,755,755,755,755,755,755,755,755,755,755,755,755,755,755,755,755,755,755,755,755,755,755,755,755,755,755,755,755,755,755,755,755,755,755,755,755,755,755,755,755,755,755,755,755,755,755,755,755,755,755,755,755,755,755,755,755,755,755,755,755,755,755,755,755,755,755,755,755,755,755,755,755,755,755,755,755,755,755,755,755,755,755,755,755,755,755,755,755,755,755,755,755,755,755,755,755,755,755,755,755,755,755,755,755,755,755,755,755,755,755,755,755,755,755,755,755,755,755,755,755,755,755,755,755,755,755,755,755,755,755,755,755,755,755,755,755,755,755,755,755,755,755,755,755,755,755,755,755,755,755,755,755,755,755,755,755,755,755,755,755,755,755,755,755,755,755,755,755,755,755,755,755,755,755,755,755,755,755,755,755,755,755,755,755,755,755,755,755,755,755,755,755,755,755,755,755,755,755,755,755,755,755,755,755,755,755,755,755,755,755,755,755,755,755,755,755,755,755,755,755,755,755,755,755,755,755,755,755,755,755,755,755,755,755,755,755,755,755,755,755,755,755,755,755,755,755,755,755,755,755,755,755,755,755,755,755,755,755,755,755,755,755,755,755,755,755,755,755,755,755,755,755,755,755,755,755,755,755,755,755,755,755,755,755,755,755,755,755,755,755,755,755,755,755,755,755,755,755,755,755,755,755,755,755,755,755,755,755,755,755,755,755,755,755,755,755,755,755,755,755,755,755,755,755,755,755,755,755,755,755,755,755,755,755,755,755,755,755,755,755,755,755,755,755,755,755,755,755,755,755,755,755,755,755,755,755,755,755,755,755,755,755,755,755,755,755,755,755,755,755,755,755,755,755,755,755,755,755,755,755,755,755,755,755,755,755,755,755,755,755,755,755,755,755,755,755,755,755,755,755,755,755,755,755,755,755,755,755,755,755,755,755,755,755,755,755,755,755,755,755,755,755,755,755,755,755,755,755,755,755,755,755,755,755,755,755,755,755,755,755,755,755,755,755,755,755,755,755,755,755,755,755,755,755,755,755,755,755,755,755,755,755,755,755,755,755,755,755,755,755,755,755,755,755,755,755,755,755,755,755,755,755,755,755,755,755,755,755,755,755,755,755,755,755,755,755,755,755,755,755,755,755,755,755,755,755,755,755,755,755,755,755,755,755,755,755,755,755,755,755,755,755,755,755,755,755,755,755,755,755,755,755,755,755,755,755,755,755,755,755,755,755,755,755,755,755,755,755,755,755,755,755,755,755,755,755,755,755,755,755,755,755,755,755,755,755,755,755,755,755,755,755,755,755,755,755,755,755,755,755,755,755,755,755,755,755,755,755,755,755,755,755,755,755,755,755,755,755,755,755,755,755,755,755,755,755,755,755,755,755,755,755,755,755,755,755,755,755,755,755,755,755,755,755,755,755,755,755,755,755,755,755,755,755,755,755,755,755,755,755,755,755,755,755,755,755,755,755,755,755,755,755,755,755,755,755,755,755,755,755,755,755,755,755,755,755,755,755,755,755,755,755,755,755,755,755,755,755,755,755,755,755,755,755,755,755,755,755,755,755,755,755,755,755,755,755,755,755,755,755,755,755,755,755,755,755,755,755,755,755,755,755,755,755,755,755,755,755,755,755,755,755,755,755,755,755,755,755,755,755,755,755,755,755,755,755,755,755,755,755,755,755,755,755,755,755,755,755,755,755,755,755,755,755,755,755,755,755,755,755,755,755,755,755,755,755,755,755,755,755,755,755,755,755,755,755,755,755,755,755,755,755,755,755,755,755,755,755,755,755,755,755,755,755,755,755,755,755,755,755,755,755,755,755,755,755,755,755,755,755,755,755,755,755,755,755,755,755,755,755,755,755,755,755,755,755,755,755,755,755,755,755,755,755,755,755,755,755,755,755,755,755,755,755,755,755,755,755,755,755,755,755,755,755,755,755,755,755,755,755,755,755,755,755,755,755,755,755,755,755,755,755,755,755,755,755,755,755,755,755,755,755,755,755,755,755,755,755,755,755,755,755,755,755,755,755,755,755,755,755,755,755,755,755,755,755,755,755,755,755,755,755,755,755,755,755,755,755,755,755,755,755,755,755,755,755,755,755,755,755,755,755,755,755,755,755,755,755,755,755,755,755,755,755,755,755,755,755,755,755,755,755,755,755,755,755,755,755,755,755,755,755,755,755,755,755,755,755,755,755,755,755,755,755,755,755,755,755,755,755,755,755,755,755,755,755,755,755,755,755,755,755,755,755,755,755,755,755,755,755,755,755,755,755,755,755,755,755,755,755,755,755,755,755,755,755,755,755,755,755,755,755,755,755,755,755,755,755,755,755,755,755,755,755,755,755,755,755,755,755,755,755,755,755,755,755,755,755,755,755,755,755,755,755,755,755,755,755,755,755,755,755,755,755,755,755,755,755,755,755,755,755,755,755,755,755,755,755,755,755,755,755,755,755,755,755,755,755,755,755,755,755,755,755,755,755,755,755,755,755,755,755,755,755,755,755,755,755,755,755,755,755,755,755,755,755,755,755,755,755,755,755,755,755,755,755,755,755,755,755,755,755,755,755,755,755,755,755,755,755,755,755,755,755,755,755,755,755,755,755,755,755,755,755,755,755,755,755,755,755,755,755,755,755,755,755,755,755,755,755,755,755,755,755,755,755,755,755,755,755,755,755,755,755,755,755,755,755,755,755,755,755,755,755,755,755,755,755,755,755,755,755,755,755,755,755,752,722,716,716,716,716,716,716,716,716,716,680,566,431,277,0,0,0,0,0,0,0,0,0,0,0,0,3,14,22,26,26,26,26,26,26,29,33,34,36,43,66,68,68,68,68,67,67,66,65,65,65,65,65,65,65,65,65,65,65,65,65,65],"timestamp_mouse":[10,24,44,65,85,106,125,144,164,184,204,225,246,266,286,306,325,345,364,385,405,425,446,465,486,505,526,545,565,586,605,625,645,664,685,706,725,746,766,786,805,825,845,865,885,905,925,945,965,985,1005,1025,1046,1064,1085,1105,1124,1145,1164,1185,1206,1225,1244,1266,1286,1305,1325,1346,1365,1385,1406,1425,1444,1464,1485,1504,1525,1546,1564,1584,1606,1624,1645,1665,1686,1706,1726,1745,1766,1785,1806,1825,1846,1865,1885,1904,1925,1945,1966,1986,2006,2026,2044,2064,2085,2106,2125,2146,2165,2184,2204,2226,2245,2266,2286,2305,2325,2344,2366,2386,2405,2425,2446,2465,2486,2505,2524,2546,2566,2586,2604,2625,2646,2664,2685,2704,2725,2744,2764,2786,2806,2825,2846,2865,2884,2906,2925,2945,2966,2985,3005,3026,3045,3066,3084,3104,3125,3145,3164,3184,3205,3227,3244,3265,3285,3305,3326,3344,3365,3385,3405,3426,3446,3465,3486,3506,3526,3545,3564,3585,3605,3625,3645,3665,3686,3706,3725,3745,3766,3786,3806,3825,3845,3865,3886,3904,3925,3945,3965,3985,4005,4025,4045,4064,4086,4104,4126,4144,4165,4185,4205,4225,4245,4265,4286,4305,4325,4345,4365,4385,4404,4425,4445,4465,4485,4506,4526,4546,4566,4586,4606,4625,4646,4665,4685,4704,4725,4744,4765,4784,4805,4826,4846,4866,4885,4905,4924,4944,4965,4986,5006,5025,5046,5065,5086,5106,5125,5144,5165,5185,5205,5225,5245,5265,5285,5305,5326,5346,5366,5386,5405,5425,5444,5464,5485,5504,5525,5545,5564,5585,5606,5626,5646,5665,5685,5705,5725,5744,5765,5785,5805,5826,5845,5865,5886,5906,5925,5945,5965,5985,6005,6025,6045,6065,6085,6104,6126,6146,6166,6186,6206,6226,6245,6265,6285,6304,6325,6345,6364,6385,6405,6426,6444,6464,6485,6504,6525,6545,6566,6584,6604,6625,6646,6665,6686,6705,6725,6744,6764,6785,6806,6826,6846,6866,6885,6905,6925,6944,6965,6986,7005,7025,7045,7065,7085,7105,7125,7145,7164,7185,7205,7225,7246,7265,7286,7306,7325,7344,7365,7385,7405,7426,7445,7464,7485,7504,7526,7544,7565,7586,7605,7625,7645,7666,7686,7706,7725,7745,7764,7784,7806,7825,7846,7865,7885,7905,7925,7945,7966,7985,8006,8025,8045,8065,8085,8106,8125,8145,8165,8185,8205,8225,8246,8266,8286,8305,8326,8344,8364,8385,8404,8425,8446,8465,8486,8505,8524,8544,8564,8585,8606,8625,8646,8665,8685,8704,8725,8745,8765,8786,8806,8825,8845,8865,8885,8906,8926,8945,8965,8985,9005,9024,9046,9065,9085,9104,9125,9145,9166,9185,9206,9226,9245,9264,9286,9305,9325,9345,9365,9385,9405,9425,9445,9465,9486,9506,9526,9545,9565,9585,9606,9625,9645,9665,9685,9706,9726,9744,9765,9785,9805,9826,9846,9864,9885,9905,9925,9944,9965,9985,10006,10026,10044,10065,10085,10105,10125,10145,10166,10186,10206,10225,10245,10266,10285,10305,10325,10344,10366,10386,10405,10425,10446,10466,10485,10504,10525,10545,10564,10586,10605,10625,10646,10666,10686,10704,10725,10745,10764,10785,10806,10826,10846,10865,10884,10905,10926,10945,10965,10985,11005,11026,11045,11065,11084,11105,11126,11146,11165,11184,11205,11224,11245,11264,11286,11306,11325,11346,11365,11384,11405,11424,11445,11466,11486,11505,11526,11545,11564,11584,11605,11624,11645,11665,11686,11706,11726,11745,11764,11785,11805,11826,11845,11866,11885,11905,11925,11945,11965,11985,12005,12025,12046,12066,12086,12106,12125,12145,12165,12185,12205,12225,12245,12264,12285,12304,12325,12345,12365,12386,12406,12426,12445,12465,12485,12504,12525,12546,12565,12585,12606,12625,12645,12665,12685,12705,12725,12745,12765,12786,12806,12826,12845,12866,12885,12905,12925,12945,12966,12986,13005,13025,13045,13066,13085,13105,13125,13146,13165,13186,13205,13225,13245,13265,13285,13305,13325,13345,13366,13385,13405,13425,13445,13465,13485,13505,13525,13545,13565,13585,13606,13626,13646,13666,13686,13706,13726,13745,13766,13785,13806,13826,13845,13865,13884,13905,13926,13946,13965,13985,14005,14024,14046,14065,14084,14104,14124,14145,14165,14184,14205,14226,14245,14265,14286,14305,14325,14345,14364,14385,14406,14426,14445,14465,14486,14505,14525,14545,14565,14585,14606,14626,14646,14664,14684,14705,14724,14745,14766,14785,14806,14825,14844,14864,14884,14904,14926,14945,14965,14986,15004,15024,15045,15064,15085,15105,15125,15146,15165,15185,15205,15225,15245,15265,15286,15306,15326,15346,15364,15384,15404,15425,15445,15465,15486,15504,15525,15545,15565,15586,15605,15626,15645,15665,15685,15705,15725,15745,15764,15785,15806,15826,15845,15864,15885,15905,15925,15945,15964,15984,16005,16025,16045,16064,16086,16105,16124,16145,16165,16185,16205,16224,16245,16265,16286,16305,16325,16345,16365,16385,16404,16424,16445,16465,16486,16506,16525,16545,16565,16585,16605,16625,16646,16664,16685,16705,16724,16744,16766,16786,16806,16825,16845,16865,16884,16904,16925,16945,16965,16985,17005,17026,17046,17064,17084,17105,17125,17146,17165,17185,17206,17224,17246,17264,17284,17305,17325,17344,17365,17386,17405,17426,17445,17465,17485,17505,17525,17545,17565,17585,17606,17626,17646,17664,17685,17704,17724,17745,17765,17784,17806,17826,17845,17864,17885,17905,17924,17945,17965,17986,18006,18026,18045,18065,18084,18105,18125,18146,18166,18185,18205,18225,18245,18264,18285,18305,18324,18346,18366,18386,18407,18425,18446,18466,18485,18506,18525,18547,18565,18586,18607,18626,18646,18666,18686,18705,18725,18745,18765,18785,18805,18825,18846,18866,18885,18905,18926,18945,18966,18986,19007,19026,19045,19066,19085,19106,19126,19146,19165,19186,19206,19225,19246,19266,19286,19305,19325,19346,19365,19386,19406,19426,19446,19466,19485,19505,19525,19545,19566,19585,19606,19626,19647,19667,19686,19705,19726,19745,19765,19786,19805,19826,19846,19866,19887,19907,19927,19946,19965,19986,20006,20026,20046,20065,20086,20107,20126,20146,20166,20186,20206,20226,20246,20266,20285,20306,20326,20345,20366,20385,20405,20426,20445,20466,20486,20507,20526,20546,20565,20586,20606,20626,20647,20666,20686,20706,20726,20746,20766,20786,20807,20826,20846,20866,20886,20906,20925,20946,20966,20986,21005,21026,21046,21065,21086,21106,21126,21146,21166,21186,21206,21226,21246,21265,21286,21305,21326,21347,21366,21386,21407,21427,21446,21466,21486,21506,21526,21546,21565,21585,21605,21627,21645,21666,21686,21706,21726,21746,21766,21786,21806,21825,21845,21866,21886,21906,21925,21946,21966,21986,22006,22026,22046,22065,22085,22106,22125,22147,22166,22186,22206,22225,22246,22266,22286,22306,22327,22346,22366,22385,22405,22425,22446,22466,22486,22506,22526,22547,22571,22586,22606,22626,22646,22666,22686,22706,22726,22746,22766,22785,22806,22825,22846,22866,22886,22905,22926,22947,22966,22985,23006,23026,23046,23066,23086,23105,23127,23146,23166,23186,23205,23225,23245,23267,23286,23306,23326,23346,23365,23387,23405,23426,23446,23466,23485,23506,23526,23545,23566,23586,23607,23625,23646,23666,23686,23706,23726,23745,23766,23787,23807,23826,23846,23866,23885,23906,23925,23946,23965,23986,24005,24026,24045,24067,24085,24105,24126,24145,24165,24186,24206,24225,24245,24267,24285,24305,24326,24346,24366,24386,24405,24426,24445,24466,24485,24506,24526,24546,24566,24586,24606,24627,24645,24666,24685,24705,24726,24745,24766,24787,24805,24826,24845,24866,24885,24905,24925,24945,24966,24986,25006,25025,25045,25066,25085,25106,25125,25145,25166,25185,25205,25225,25245,25267,25285,25305,25326,25345,25366,25386,25406,25427,25445,25466,25485,25506,25525,25546,25566,25586,25606,25626,25646,25666,25685,25706,25726,25745,25766,25786,25805,25825,25846,25866,25887,25906,25926,25945,25966,25985,26005,26026,26045,26066,26085,26106,26125,26145,26167,26185,26205,26226,26245,26265,26286,26305,26325,26345,26366,26385,26405,26425,26446,26466,26486,26505,26525,26546,26566,26586,26605,26625,26646,26667,26686,26706,26726,26746,26766,26785,26805,26826,26846,26865,26886,26906,26925,26946,26965,26986,27005,27026,27046,27066,27085,27106,27126,27146,27166,27186,27206,27226,27246,27266,27286,27305,27326,27345,27366,27386,27406,27426,27447,27466,27486,27506,27526,27546,27566,27585,27606,27626,27646,27666,27685,27705,27725,27747,27766,27785,27805,27826,27847,27866,27886,27906,27926,27947,27966,27985,28005,28026,28046,28066,28086,28106,28126,28146,28166,28186,28206,28227,28247,28266,28286,28306,28326,28346,28365,28386,28406,28426,28446,28466,28486,28506,28526,28546,28566,28585,28606,28626,28645,28665,28686,28706,28726,28747,28767,28785,28805,28826,28845,28866,28885,28905,28925,28946,28966,28986,29005,29025,29045,29066,29085,29105,29126,29145,29166,29186,29205,29225,29246,29265,29286,29305,29327,29345,29365,29386,29406,29426,29446,29466,29486,29506,29525,29546,29566,29586,29606,29625,29646,29665,29686,29705,29726,29745,29765,29786,29805,29826,29847,29866,29886,29906,29925,29945,29965,29987,30006,30025,30046,30065,30085,30106,30125,30146,30167,30186,30205,30225,30246,30266,30286,30306,30326,30346,30365,30386,30406,30425,30445,30466,30486,30506,30526,30547,30566,30585,30605,30626,30646,30666,30686,30705,30726,30745,30765,30786,30805,30825,30845,30866,30886,30906,30925,30946,30966,30986,31005,31027,31046,31065,31086,31105,31126,31145,31165,31187,31206,31226,31246,31267,31286,31305,31325,31346,31365,31386,31407,31426,31446,31466,31486,31506,31526,31546,31566,31586,31607,31627,31647,31666,31686,31705,31725,31746,31765,31787,31806,31826,31846,31866,31886,31905,31926,31946,31966,31986,32006,32025,32046,32066,32087,32105,32125,32146,32166,32186,32206,32227,32246,32267,32285,32306,32325,32346,32365,32386,32405,32425,32446,32466,32485,32506,32525,32546,32566,32586,32605,32626,32645,32665,32685,32705,32727,32746,32766,32786,32805,32825,32846,32866,32886,32906,32926,32946,32967,32986,33006,33026,33046,33066,33086,33106,33126,33146,33166,33186,33206,33225,33245,33265,33286,33305,33326,33345,33366,33386,33406,33426,33446,33466,33486,33506,33526,33545,33565,33586,33605,33626,33646,33666,33686,33706,33725,33746,33766,33786,33806,33827,33847,33866,33886,33905,33925,33945,33965,33986,34006,34026,34046,34065,34087,34105,34126,34146,34166,34186,34206,34226,34246,34266,34287,34306,34326,34346,34366,34386,34405,34426,34446,34466,34487,34505,34526,34546,34566,34586,34606,34626,34646,34666,34686,34705,34725,34746,34765,34785,34806,34826,34846,34866,34887,34905,34926,34946,34966,34986,35006,35025,35046,35066,35087,35107,35126,35146,35166,35186,35206,35226,35246,35266,35286,35306,35326,35346,35366,35386,35406,35425,35446,35466,35485,35506,35526,35546,35566,35586,35605,35625,35646,35666,35686,35706,35727,35746,35767,35787,35806,35826,35846,35865,35886,35906,35926,35946,35966,35985,36006,36026,36047,36065,36085,36106,36126,36146,36166,36185,36207,36226,36247,36266,36285,36306,36326,36346,36366,36385,36406,36425,36446,36465,36486,36506,36526,36545,36567,36586,36606,36626,36646,36665,36686,36706,36725,36747,36765,36786,36806,36825,36845,36866,36886,36905,36926,36945,36966,36986,37005,37026,37046,37066,37086,37105,37125,37146,37167,37187,37205,37225,37246,37265,37285,37305,37325,37347,37365,37385,37405,37427,37447,37465,37486,37506,37526,37546,37567,37586,37606,37626,37646,37666,37686,37707,37726,37745,37766,37786,37805,37825,37845,37866,37887,37906,37925,37945,37966,37985,38006,38025,38045,38066,38087,38106,38126,38145,38166,38185,38207,38225,38246,38266,38286,38306,38325,38347],"xSR":741.5,"ySR":469.95,"xT1":424.9,"yT1":0,"xT2":1058.1,"yT2":0,"toosoon":0,"cond_shown":"equaldotsize","ratio_trial":900,"smaller_num":"18","larger_num":"20","correct_side":1,"subjID":"diegosimonpinedaramirez3","gender":"0","age":"11","school":"6","test":{"fix_dur":[250,1500],"timestim":300,"targets_dim":[100,100],"targets_relative_coord":[0.3,0.7],"size_stim":[880,420],"start_dim":[100,100],"size_start":[300,300],"size_fix":60,"samplingrate":20,"img_types":["equaldotsize","equaldotanddens","randomdotsizeEA"],"ratios":[250,500,750,900],"rep_conds":9,"nTrials":120,"trials_to_rest":500,"Trials_order":[9,64,113,88,23,103,49,27,18,83,58,60,26,65,55,52,114,84,25,42,119,111,94,46,6,90,105,41,4,1,12,76,11,117,87,21,15,118,57,35,62,29,32,71,80,48,70,97,22,107,72,79,7,100,96,10,69,61,75,98,5,73,16,47,67,104,3,89,33,14,63,8,34,108,36,109,95,102,2,51,31,106,74,39,91,85,13,110,66,28,93,59,77,68,43,20,45,86,78,0,38,53,40,81,30,112,101,17,54,99,115,82,24,116,19,50,44,37,56,92],"cond_shown":["equaldotsize","equaldotanddens","randomdotsizeEA","equaldotanddens","randomdotsizeEA","equaldotanddens","equaldotanddens","equaldotsize","equaldotsize","randomdotsizeEA","equaldotanddens","equaldotsize","randomdotsizeEA","randomdotsizeEA","equaldotanddens","equaldotanddens","equaldotsize","equaldotsize","equaldotanddens","equaldotsize","randomdotsizeEA","equaldotsize","equaldotanddens","equaldotanddens","equaldotsize","equaldotsize","equaldotsize","randomdotsizeEA","equaldotanddens","equaldotanddens","equaldotsize","equaldotanddens","randomdotsizeEA","equaldotsize","equaldotsize","equaldotsize","equaldotsize","equaldotanddens","equaldotsize","randomdotsizeEA","randomdotsizeEA","randomdotsizeEA","randomdotsizeEA","randomdotsizeEA","randomdotsizeEA","equaldotsize","equaldotanddens","equaldotanddens","equaldotanddens","randomdotsizeEA","equaldotsize","equaldotanddens","equaldotanddens","equaldotanddens","equaldotsize","equaldotanddens","equaldotsize","equaldotanddens","equaldotsize","randomdotsizeEA","randomdotsizeEA","equaldotanddens","equaldotanddens","randomdotsizeEA","equaldotanddens","randomdotsizeEA","equaldotsize","randomdotsizeEA","equaldotsize","randomdotsizeEA","equaldotsize","randomdotsizeEA","equaldotanddens","equaldotsize","equaldotsize","equaldotanddens","randomdotsizeEA","equaldotsize","randomdotsizeEA","equaldotsize","equaldotanddens","equaldotanddens","randomdotsizeEA","equaldotsize","equaldotanddens","equaldotanddens","equaldotanddens","randomdotsizeEA","equaldotsize","equaldotanddens","equaldotsize","randomdotsizeEA","randomdotsizeEA","randomdotsizeEA","equaldotanddens","randomdotsizeEA","equaldotsize","randomdotsizeEA","equaldotsize","equaldotsize","randomdotsizeEA","randomdotsizeEA","equaldotanddens","equaldotsize","equaldotsize","equaldotanddens","randomdotsizeEA","randomdotsizeEA","equaldotsize","equaldotsize","equaldotanddens","equaldotanddens","equaldotsize","randomdotsizeEA","equaldotanddens","randomdotsizeEA","randomdotsizeEA","equaldotanddens","randomdotsizeEA","randomdotsizeEA"],"ratio_trial":[900,500,500,500,900,750,250,500,750,900,900,250,250,500,750,500,750,250,250,750,900,500,900,900,750,750,900,500,500,250,250,500,900,900,500,900,500,900,900,900,250,500,750,900,750,250,900,250,900,900,250,750,750,500,250,900,900,250,500,250,500,250,500,900,750,750,500,500,900,250,500,750,900,250,250,250,900,750,250,500,750,900,250,500,750,250,250,250,750,500,900,900,500,750,750,750,900,250,750,250,250,500,500,900,750,500,500,500,750,500,750,900,250,750,750,250,750,250,750,750],"smaller_num":["18","4","3","6","18","3","2","2","15","9","18","3","2","6","3","6","3","3","2","15","18","9","9","18","6","3","18","2","3","2","3","6","18","9","6","18","9","18","18","9","2","1","3","18","18","6","18","4","18","18","3","15","3","5","3","18","18","2","2","3","6","3","4","18","6","9","9","9","18","1","10","12","9","6","4","1","18","3","4","9","15","18","1","9","12","6","4","2","3","6","18","18","3","9","18","3","9","3","12","3","2","10","2","18","6","1","6","3","6","9","6","18","6","9","3","2","3","3","3","15"],"larger_num":["20","8","6","12","20","4","8","4","20","10","20","12","8","12","4","12","4","12","8","20","20","18","10","20","8","4","20","4","6","8","12","12","20","10","12","20","18","20","20","10","8","2","4","20","24","24","20","16","20","20","12","20","4","10","12","20","20","8","4","12","12","12","8","20","8","12","18","18","20","4","20","16","10","24","16","4","20","4","16","18","20","20","4","18","16","24","16","8","4","12","20","20","6","12","24","4","10","12","16","12","8","20","4","20","8","2","12","6","8","18","8","20","24","12","4","8","4","12","4","20"],"correct_side":[1,1,2,1,2,1,2,2,1,2,1,1,1,1,1,1,2,1,1,2,1,1,2,2,2,1,1,1,2,1,1,1,2,2,1,1,2,1,1,1,1,2,1,2,1,2,1,2,1,2,2,2,1,2,1,2,1,1,1,2,1,2,1,1,2,2,1,2,1,2,2,2,2,2,2,2,2,1,2,2,2,1,2,2,2,1,2,1,2,1,1,1,2,2,1,1,2,2,2,2,1,2,2,1,1,2,1,2,2,2,1,1,2,2,2,1,2,2,2,2],"img_shown":["img/900/equaldotsize/L/2_Ratio_900_L_20_R_18.png","img/500/equaldotanddens/L/8_Ratio_500_L_8_R_4.png","img/500/randomdotsizeEA/R/2_Ratio_500_L_3_R_6.png","img/500/equaldotanddens/L/13_Ratio_500_L_12_R_6.png","img/900/randomdotsizeEA/R/9_Ratio_900_L_18_R_20.png","img/750/equaldotanddens/L/10_Ratio_750_L_4_R_3.png","img/250/equaldotanddens/R/13_Ratio_250_L_2_R_8.png","img/500/equaldotsize/R/9_Ratio_500_L_2_R_4.png","img/750/equaldotsize/L/1_Ratio_750_L_20_R_15.png","img/900/randomdotsizeEA/R/6_Ratio_900_L_9_R_10.png","img/900/equaldotanddens/L/8_Ratio_900_L_20_R_18.png","img/250/equaldotsize/L/15_Ratio_250_L_12_R_3.png","img/250/randomdotsizeEA/L/1_Ratio_250_L_8_R_2.png","img/500/randomdotsizeEA/L/13_Ratio_500_L_12_R_6.png","img/750/equaldotanddens/L/10_Ratio_750_L_4_R_3.png","img/500/equaldotanddens/L/11_Ratio_500_L_12_R_6.png","img/750/equaldotsize/R/7_Ratio_750_L_3_R_4.png","img/250/equaldotsize/L/14_Ratio_250_L_12_R_3.png","img/250/equaldotanddens/L/3_Ratio_250_L_8_R_2.png","img/750/equaldotsize/R/4_Ratio_750_L_15_R_20.png","img/900/randomdotsizeEA/L/8_Ratio_900_L_20_R_18.png","img/500/equaldotsize/L/4_Ratio_500_L_18_R_9.png","img/900/equaldotanddens/R/15_Ratio_900_L_9_R_10.png","img/900/equaldotanddens/R/13_Ratio_900_L_18_R_20.png","img/750/equaldotsize/R/2_Ratio_750_L_6_R_8.png","img/750/equaldotsize/L/9_Ratio_750_L_4_R_3.png","img/900/equaldotsize/L/10_Ratio_900_L_20_R_18.png","img/500/randomdotsizeEA/L/5_Ratio_500_L_4_R_2.png","img/500/equaldotanddens/R/2_Ratio_500_L_3_R_6.png","img/250/equaldotanddens/L/3_Ratio_250_L_8_R_2.png","img/250/equaldotsize/L/15_Ratio_250_L_12_R_3.png","img/500/equaldotanddens/L/11_Ratio_500_L_12_R_6.png","img/900/randomdotsizeEA/R/9_Ratio_900_L_18_R_20.png","img/900/equaldotsize/R/15_Ratio_900_L_9_R_10.png","img/500/equaldotsize/L/11_Ratio_500_L_12_R_6.png","img/900/equaldotsize/L/10_Ratio_900_L_20_R_18.png","img/500/equaldotsize/R/6_Ratio_500_L_9_R_18.png","img/900/equaldotanddens/L/8_Ratio_900_L_20_R_18.png","img/900/equaldotsize/L/10_Ratio_900_L_20_R_18.png","img/900/randomdotsizeEA/L/1_Ratio_900_L_10_R_9.png","img/250/randomdotsizeEA/L/7_Ratio_250_L_8_R_2.png","img/500/randomdotsizeEA/R/12_Ratio_500_L_1_R_2.png","img/750/randomdotsizeEA/L/9_Ratio_750_L_4_R_3.png","img/900/randomdotsizeEA/R/13_Ratio_900_L_18_R_20.png","img/750/randomdotsizeEA/L/6_Ratio_750_L_24_R_18.png","img/250/equaldotsize/R/6_Ratio_250_L_6_R_24.png","img/900/equaldotanddens/L/10_Ratio_900_L_20_R_18.png","img/250/equaldotanddens/R/10_Ratio_250_L_4_R_16.png","img/900/equaldotanddens/L/10_Ratio_900_L_20_R_18.png","img/900/randomdotsizeEA/R/9_Ratio_900_L_18_R_20.png","img/250/equaldotsize/R/11_Ratio_250_L_3_R_12.png","img/750/equaldotanddens/R/5_Ratio_750_L_15_R_20.png","img/750/equaldotanddens/L/8_Ratio_750_L_4_R_3.png","img/500/equaldotanddens/R/14_Ratio_500_L_5_R_10.png","img/250/equaldotsize/L/15_Ratio_250_L_12_R_3.png","img/900/equaldotanddens/R/9_Ratio_900_L_18_R_20.png","img/900/equaldotsize/L/2_Ratio_900_L_20_R_18.png","img/250/equaldotanddens/L/3_Ratio_250_L_8_R_2.png","img/500/equaldotsize/L/5_Ratio_500_L_4_R_2.png","img/250/randomdotsizeEA/R/9_Ratio_250_L_3_R_12.png","img/500/randomdotsizeEA/L/13_Ratio_500_L_12_R_6.png","img/250/equaldotanddens/R/4_Ratio_250_L_3_R_12.png","img/500/equaldotanddens/L/8_Ratio_500_L_8_R_4.png","img/900/randomdotsizeEA/L/4_Ratio_900_L_20_R_18.png","img/750/equaldotanddens/R/2_Ratio_750_L_6_R_8.png","img/750/randomdotsizeEA/R/15_Ratio_750_L_9_R_12.png","img/500/equaldotsize/L/4_Ratio_500_L_18_R_9.png","img/500/randomdotsizeEA/R/6_Ratio_500_L_9_R_18.png","img/900/equaldotsize/L/10_Ratio_900_L_20_R_18.png","img/250/randomdotsizeEA/R/8_Ratio_250_L_1_R_4.png","img/500/equaldotsize/R/3_Ratio_500_L_10_R_20.png","img/750/randomdotsizeEA/R/11_Ratio_750_L_12_R_16.png","img/900/equaldotanddens/R/6_Ratio_900_L_9_R_10.png","img/250/equaldotsize/R/6_Ratio_250_L_6_R_24.png","img/250/equaldotsize/R/10_Ratio_250_L_4_R_16.png","img/250/equaldotanddens/R/8_Ratio_250_L_1_R_4.png","img/900/randomdotsizeEA/R/14_Ratio_900_L_18_R_20.png","img/750/equaldotsize/L/10_Ratio_750_L_4_R_3.png","img/250/randomdotsizeEA/R/10_Ratio_250_L_4_R_16.png","img/500/equaldotsize/R/1_Ratio_500_L_9_R_18.png","img/750/equaldotanddens/R/3_Ratio_750_L_15_R_20.png","img/900/equaldotanddens/L/8_Ratio_900_L_20_R_18.png","img/250/randomdotsizeEA/R/8_Ratio_250_L_1_R_4.png","img/500/equaldotsize/R/1_Ratio_500_L_9_R_18.png","img/750/equaldotanddens/R/11_Ratio_750_L_12_R_16.png","img/250/equaldotanddens/L/5_Ratio_250_L_24_R_6.png","img/250/equaldotanddens/R/10_Ratio_250_L_4_R_16.png","img/250/randomdotsizeEA/L/1_Ratio_250_L_8_R_2.png","img/750/equaldotsize/R/12_Ratio_750_L_3_R_4.png","img/500/equaldotanddens/L/13_Ratio_500_L_12_R_6.png","img/900/equaldotsize/L/2_Ratio_900_L_20_R_18.png","img/900/randomdotsizeEA/L/2_Ratio_900_L_20_R_18.png","img/500/randomdotsizeEA/R/2_Ratio_500_L_3_R_6.png","img/750/randomdotsizeEA/R/15_Ratio_750_L_9_R_12.png","img/750/equaldotanddens/L/6_Ratio_750_L_24_R_18.png","img/750/randomdotsizeEA/L/8_Ratio_750_L_4_R_3.png","img/900/equaldotsize/R/6_Ratio_900_L_9_R_10.png","img/250/randomdotsizeEA/R/9_Ratio_250_L_3_R_12.png","img/750/equaldotsize/R/11_Ratio_750_L_12_R_16.png","img/250/equaldotsize/R/9_Ratio_250_L_3_R_12.png","img/250/randomdotsizeEA/L/7_Ratio_250_L_8_R_2.png","img/500/randomdotsizeEA/R/3_Ratio_500_L_10_R_20.png","img/500/equaldotanddens/R/9_Ratio_500_L_2_R_4.png","img/900/equaldotsize/L/2_Ratio_900_L_20_R_18.png","img/750/equaldotsize/L/14_Ratio_750_L_8_R_6.png","img/500/equaldotanddens/R/12_Ratio_500_L_1_R_2.png","img/500/randomdotsizeEA/L/13_Ratio_500_L_12_R_6.png","img/500/randomdotsizeEA/R/2_Ratio_500_L_3_R_6.png","img/750/equaldotsize/R/2_Ratio_750_L_6_R_8.png","img/500/equaldotsize/R/1_Ratio_500_L_9_R_18.png","img/750/equaldotanddens/L/13_Ratio_750_L_8_R_6.png","img/900/equaldotanddens/L/4_Ratio_900_L_20_R_18.png","img/250/equaldotsize/R/6_Ratio_250_L_6_R_24.png","img/750/randomdotsizeEA/R/15_Ratio_750_L_9_R_12.png","img/750/equaldotanddens/R/7_Ratio_750_L_3_R_4.png","img/250/randomdotsizeEA/L/3_Ratio_250_L_8_R_2.png","img/750/randomdotsizeEA/R/12_Ratio_750_L_3_R_4.png","img/250/equaldotanddens/R/4_Ratio_250_L_3_R_12.png","img/750/randomdotsizeEA/R/7_Ratio_750_L_3_R_4.png","img/750/randomdotsizeEA/R/3_Ratio_750_L_15_R_20.png"],"Rat0":[["12_Ratio_0_L_9_R_0.png","13_Ratio_0_L_6_R_0.png","5_Ratio_0_L_2_R_0.png","6_Ratio_0_L_4_R_0.png","8_Ratio_0_L_6_R_0.png"],["1_Ratio_0_L_0_R_17.png","10_Ratio_0_L_0_R_22.png","11_Ratio_0_L_0_R_1.png","14_Ratio_0_L_0_R_24.png","15_Ratio_0_L_0_R_4.png","2_Ratio_0_L_0_R_5.png","3_Ratio_0_L_0_R_17.png","4_Ratio_0_L_0_R_7.png","7_Ratio_0_L_0_R_19.png","9_Ratio_0_L_0_R_15.png"]],"Rat250":[["1_Ratio_250_L_8_R_2.png","14_Ratio_250_L_12_R_3.png","15_Ratio_250_L_12_R_3.png","2_Ratio_250_L_16_R_4.png","3_Ratio_250_L_8_R_2.png","5_Ratio_250_L_24_R_6.png","7_Ratio_250_L_8_R_2.png"],["10_Ratio_250_L_4_R_16.png","11_Ratio_250_L_3_R_12.png","12_Ratio_250_L_5_R_20.png","13_Ratio_250_L_2_R_8.png","4_Ratio_250_L_3_R_12.png","6_Ratio_250_L_6_R_24.png","8_Ratio_250_L_1_R_4.png","9_Ratio_250_L_3_R_12.png"]],"Rat500":[["10_Ratio_500_L_4_R_2.png","11_Ratio_500_L_12_R_6.png","13_Ratio_500_L_12_R_6.png","4_Ratio_500_L_18_R_9.png","5_Ratio_500_L_4_R_2.png","7_Ratio_500_L_10_R_5.png","8_Ratio_500_L_8_R_4.png"],["1_Ratio_500_L_9_R_18.png","12_Ratio_500_L_1_R_2.png","14_Ratio_500_L_5_R_10.png","15_Ratio_500_L_1_R_2.png","2_Ratio_500_L_3_R_6.png","3_Ratio_500_L_10_R_20.png","6_Ratio_500_L_9_R_18.png","9_Ratio_500_L_2_R_4.png"]],"Rat750":[["1_Ratio_750_L_20_R_15.png","10_Ratio_750_L_4_R_3.png","13_Ratio_750_L_8_R_6.png","14_Ratio_750_L_8_R_6.png","6_Ratio_750_L_24_R_18.png","8_Ratio_750_L_4_R_3.png","9_Ratio_750_L_4_R_3.png"],["11_Ratio_750_L_12_R_16.png","12_Ratio_750_L_3_R_4.png","15_Ratio_750_L_9_R_12.png","2_Ratio_750_L_6_R_8.png","3_Ratio_750_L_15_R_20.png","4_Ratio_750_L_15_R_20.png","5_Ratio_750_L_15_R_20.png","7_Ratio_750_L_3_R_4.png"]],"Rat900":[["1_Ratio_900_L_10_R_9.png","10_Ratio_900_L_20_R_18.png","2_Ratio_900_L_20_R_18.png","4_Ratio_900_L_20_R_18.png","8_Ratio_900_L_20_R_18.png"],["11_Ratio_900_L_18_R_20.png","12_Ratio_900_L_18_R_20.png","13_Ratio_900_L_18_R_20.png","14_Ratio_900_L_18_R_20.png","15_Ratio_900_L_9_R_10.png","3_Ratio_900_L_9_R_10.png","5_Ratio_900_L_9_R_10.png","6_Ratio_900_L_9_R_10.png","7_Ratio_900_L_9_R_10.png","9_Ratio_900_L_18_R_20.png"]],"Rat1000":[["10_Ratio_1000_L_16_R_16.png","11_Ratio_1000_L_6_R_6.png","12_Ratio_1000_L_14_R_14.png","13_Ratio_1000_L_20_R_20.png","15_Ratio_1000_L_15_R_15.png","2_Ratio_1000_L_17_R_17.png","4_Ratio_1000_L_9_R_9.png","5_Ratio_1000_L_6_R_6.png","6_Ratio_1000_L_19_R_19.png","8_Ratio_1000_L_14_R_14.png","9_Ratio_1000_L_25_R_25.png"],["1_Ratio_1000_L_1_R_1.png","14_Ratio_1000_L_17_R_17.png","3_Ratio_1000_L_17_R_17.png","7_Ratio_1000_L_6_R_6.png"]]}},{"start_time":1551901031356,"click_time":1551901032984,"finger_time":1551901032444,"fix_duration":250,"trial":1,"RT":1088,"MT":540,"sideResp":1,"stimulus":"img/500/equaldotanddens/L/8_Ratio_500_L_8_R_4.png","xmouse":[811,811,811,811,811,811,811,811,811,811,811,811,811,811,811,811,811,811,811,811,811,811,811,811,811,811,811,811,811,811,811,811,811,811,811,811,811,811,811,811,811,811,811,811,811,811,811,811,811,811,811,810,809,805,797,784,733,687,652,623,602,587,583,577,567,554,537,535,533,529,518,503,503,503,503,502,500,500,500,499,499,498],"ymouse":[611,611,611,611,611,611,611,611,611,611,611,611,611,611,611,611,611,611,611,611,611,611,611,611,611,611,611,611,611,611,611,611,611,611,611,611,611,611,611,611,611,611,611,611,611,611,611,611,611,611,611,608,602,584,566,541,444,354,295,252,221,186,173,160,147,137,120,115,113,112,111,110,110,110,110,109,105,104,104,103,101,94],"timestamp_mouse":[14,29,47,68,87,108,128,147,167,188,207,228,247,268,288,309,327,348,367,389,408,428,447,469,488,509,529,547,568,589,608,628,647,667,687,708,728,748,768,789,807,828,848,868,888,907,928,947,968,988,1008,1027,1047,1068,1088,1108,1127,1147,1167,1187,1208,1229,1249,1267,1287,1308,1327,1349,1367,1387,1407,1428,1448,1467,1487,1507,1527,1548,1568,1589,1609,1628],"xSR":741.5,"ySR":573.95,"xT1":424.9,"yT1":0,"xT2":1058.1,"yT2":0,"toosoon":0,"cond_shown":"equaldotanddens","ratio_trial":500,"smaller_num":"4","larger_num":"8","correct_side":1,"subjID":"diegosimonpinedaramirez3","gender":"0","age":"11","school":"6"},{"start_time":1551901034435,"click_time":1551901035324,"finger_time":1551901035065,"fix_duration":551.8689003805029,"trial":2,"RT":630,"MT":259,"sideResp":2,"stimulus":"img/500/randomdotsizeEA/R/2_Ratio_500_L_3_R_6.png","xmouse":[795,795,795,795,795,795,795,795,795,795,795,795,795,795,795,795,795,795,795,795,795,795,795,795,795,795,795,795,795,799,804,824,850,864,875,886,892,895,900,903,908,919,989,1039,1103],"ymouse":[602,602,602,602,602,602,602,602,602,602,602,602,602,602,602,602,602,602,602,602,602,602,602,602,602,602,602,602,602,593,586,550,486,452,418,389,365,345,314,303,290,274,179,117,28],"timestamp_mouse":[9,29,48,68,89,108,129,148,169,188,208,229,250,270,288,308,328,348,368,390,409,429,450,468,489,508,529,548,568,588,609,630,649,668,688,709,730,748,768,789,808,828,848,868,888],"xSR":741.5,"ySR":573.95,"xT1":424.9,"yT1":0,"xT2":1058.1,"yT2":0,"toosoon":0,"cond_shown":"randomdotsizeEA","ratio_trial":500,"smaller_num":"3","larger_num":"6","correct_side":2,"subjID":"diegosimonpinedaramirez3","gender":"0","age":"11","school":"6"},{"start_time":1551901037010,"click_time":1551901037724,"finger_time":1551901037584,"fix_duration":665.3779209286602,"trial":3,"RT":574,"MT":140,"sideResp":1,"stimulus":"img/500/equaldotanddens/L/13_Ratio_500_L_12_R_6.png","xmouse":[765,765,765,765,765,765,765,765,765,765,765,765,765,765,765,765,765,765,765,765,765,765,765,767,767,767,767,767,761,746,711,653,548,448,433,430],"ymouse":[613,613,613,613,613,613,613,613,613,613,613,613,613,613,613,613,613,613,613,613,613,613,613,612,601,595,589,580,542,489,404,305,194,119,104,95],"timestamp_mouse":[13,41,53,74,94,114,133,153,175,193,214,233,254,274,294,313,333,353,374,394,414,434,455,473,494,515,534,553,574,593,614,634,653,673,693,714],"xSR":741.5,"ySR":573.95,"xT1":424.9,"yT1":0,"xT2":1058.1,"yT2":0,"toosoon":0,"cond_shown":"equaldotanddens","ratio_trial":500,"smaller_num":"6","larger_num":"12","correct_side":1,"subjID":"diegosimonpinedaramirez3","gender":"0","age":"11","school":"6"},{"start_time":1551901039508,"click_time":1551901042363,"finger_time":1551901040885,"fix_duration":922.3277625503836,"trial":4,"RT":1377,"MT":1478,"sideResp":2,"stimulus":"img/900/randomdotsizeEA/R/9_Ratio_900_L_18_R_20.png","xmouse":[804,804,804,805,805,805,805,805,805,805,805,805,805,805,805,805,805,805,805,805,805,805,805,805,805,805,805,805,805,805,805,805,805,805,805,805,805,805,805,805,805,805,805,805,805,805,805,805,805,805,805,805,805,805,805,805,805,805,805,805,805,805,805,805,805,805,805,805,805,805,805,805,805,805,805,805,805,805,805,805,805,805,805,805,805,801,795,787,777,745,728,712,696,679,651,643,643,642,640,638,634,627,617,609,597,595,595,596,599,635,658,685,711,741,815,849,885,903,912,933,949,963,975,981,985,985,986,986,987,996,1004,1013,1019,1023,1032,1041,1047,1052,1052,1054,1056,1058,1060],"ymouse":[600,600,600,597,597,597,597,597,597,597,597,597,597,597,597,597,597,597,597,597,597,597,597,597,597,597,597,597,597,597,597,597,597,597,597,597,597,597,597,597,597,597,597,597,594,593,592,592,592,592,592,592,592,592,592,592,592,592,592,592,592,592,590,589,580,577,575,574,571,569,568,568,568,568,568,568,568,568,568,566,564,563,561,559,556,545,532,520,506,471,450,427,405,381,341,328,326,322,314,292,275,258,242,228,209,205,204,202,200,194,191,188,181,177,167,162,157,155,154,154,154,154,152,151,150,149,147,147,145,136,130,123,117,113,109,106,104,100,99,96,95,93,92],"timestamp_mouse":[16,40,55,76,97,115,136,156,175,195,217,235,255,276,297,316,336,355,376,396,416,435,456,475,496,517,536,556,577,595,615,636,655,677,695,715,735,756,776,796,815,836,855,875,895,915,935,955,976,997,1016,1035,1055,1076,1095,1116,1137,1156,1176,1195,1216,1236,1255,1276,1296,1317,1335,1355,1377,1395,1415,1435,1455,1475,1495,1515,1536,1557,1575,1596,1615,1635,1655,1675,1695,1716,1735,1755,1777,1796,1817,1836,1855,1875,1895,1916,1936,1955,1976,1996,2017,2036,2057,2076,2096,2115,2135,2156,2176,2196,2216,2236,2256,2276,2295,2315,2335,2356,2375,2395,2415,2435,2456,2475,2497,2515,2536,2555,2575,2596,2617,2637,2655,2677,2696,2717,2735,2755,2777,2797,2815,2835,2855],"xSR":741.5,"ySR":573.95,"xT1":424.9,"yT1":0,"xT2":1058.1,"yT2":0,"toosoon":0,"cond_shown":"randomdotsizeEA","ratio_trial":900,"smaller_num":"18","larger_num":"20","correct_side":2,"subjID":"diegosimonpinedaramirez3","gender":"0","age":"11","school":"6"},{"start_time":1551901043584,"click_time":1551901045425,"finger_time":1551901044883,"fix_duration":539.0955253283093,"trial":5,"RT":1299,"MT":542,"sideResp":1,"stimulus":"img/750/equaldotanddens/L/10_Ratio_750_L_4_R_3.png","xmouse":[796,796,796,796,796,796,796,796,796,796,796,796,796,796,796,796,796,796,796,796,796,796,796,796,796,796,796,796,796,796,796,796,796,796,796,796,796,796,796,796,796,796,796,796,796,796,796,796,796,796,796,796,796,796,796,796,796,796,796,796,796,796,796,792,762,713,661,599,583,569,559,553,545,542,535,533,551,561,569,574,575,575,571,568,567,563,548,547,546,546,544,529,523],"ymouse":[631,631,631,631,631,631,631,631,631,631,631,631,631,631,631,631,630,629,628,628,628,628,628,628,628,628,628,628,628,628,628,628,628,628,628,628,628,628,628,628,628,628,628,628,628,628,628,628,628,628,628,628,628,628,628,628,628,628,628,628,628,628,628,618,580,534,497,439,412,386,366,350,320,303,279,262,235,222,206,188,169,133,107,91,81,75,74,74,74,74,74,87,90],"timestamp_mouse":[2,29,40,60,80,100,119,139,159,180,199,219,239,259,279,300,319,341,359,380,401,420,440,460,479,500,519,541,561,580,600,619,640,659,680,700,720,741,760,780,799,819,840,859,880,899,920,940,959,979,999,1019,1039,1060,1080,1100,1119,1139,1161,1181,1200,1220,1239,1261,1279,1299,1319,1339,1360,1379,1400,1419,1439,1460,1480,1501,1519,1539,1559,1579,1601,1619,1640,1659,1679,1700,1719,1740,1760,1779,1800,1819,1840],"xSR":741.5,"ySR":573.95,"xT1":424.9,"yT1":0,"xT2":1058.1,"yT2":0,"toosoon":0,"cond_shown":"equaldotanddens","ratio_trial":750,"smaller_num":"3","larger_num":"4","correct_side":1,"subjID":"diegosimonpinedaramirez3","gender":"0","age":"11","school":"6"},{"start_time":1551901046919,"click_time":1551901048023,"finger_time":1551901047545,"fix_duration":794.1654819630573,"trial":6,"RT":626,"MT":478,"sideResp":2,"stimulus":"img/250/equaldotanddens/R/13_Ratio_250_L_2_R_8.png","xmouse":[807,807,807,807,807,807,807,807,807,807,807,807,807,807,807,807,807,807,807,807,807,807,807,807,807,806,806,806,806,806,816,845,915,960,982,983,983,983,982,979,977,977,977,977,977,977,979,984,986,986,986,986,986,986,1012,1076],"ymouse":[623,623,623,623,623,623,623,623,623,623,618,618,618,618,618,618,618,618,618,618,618,615,614,610,609,608,608,608,608,603,589,554,451,356,285,248,236,225,215,194,183,170,157,143,132,125,117,108,106,106,106,106,105,105,95,59],"timestamp_mouse":[9,37,45,64,85,105,124,145,165,184,204,225,246,266,285,304,324,346,365,385,405,424,445,465,484,505,526,546,564,585,604,626,644,666,684,705,724,745,766,785,804,824,845,864,885,905,924,946,965,984,1005,1024,1044,1064,1085,1104],"xSR":741.5,"ySR":573.95,"xT1":424.9,"yT1":0,"xT2":1058.1,"yT2":0,"toosoon":0,"cond_shown":"equaldotanddens","ratio_trial":250,"smaller_num":"2","larger_num":"8","correct_side":2,"subjID":"diegosimonpinedaramirez3","gender":"0","age":"11","school":"6"},{"start_time":1551901049351,"click_time":1551901050784,"finger_time":1551901049985,"fix_duration":325.3374556481086,"trial":7,"RT":634,"MT":799,"sideResp":2,"stimulus":"img/500/equaldotsize/R/9_Ratio_500_L_2_R_4.png","xmouse":[828,828,828,828,828,828,828,828,828,828,828,828,828,828,828,828,828,828,828,828,828,828,828,828,825,822,818,817,817,817,817,817,817,817,810,793,765,742,724,724,729,744,768,841,868,887,898,908,909,909,901,897,897,913,919,920,926,962,989,996,1004,1008,1012,1024,1028,1029,1030,1030,1038,1041,1053,1064],"ymouse":[595,595,595,595,595,595,595,595,595,595,595,595,595,595,595,595,595,595,595,595,595,596,596,596,595,593,590,589,586,585,583,561,549,531,518,496,463,437,404,403,401,398,394,367,351,335,320,289,281,275,258,243,226,157,139,129,117,90,81,79,75,72,69,67,67,67,67,67,67,68,77,81],"timestamp_mouse":[12,44,52,73,93,114,132,152,173,193,214,233,253,274,292,313,333,352,372,393,412,433,453,474,493,513,532,553,574,593,613,634,652,673,693,714,734,752,773,793,812,832,852,872,892,912,932,954,972,993,1012,1032,1052,1074,1093,1113,1134,1154,1173,1192,1212,1232,1252,1272,1293,1312,1332,1354,1373,1392,1412,1433],"xSR":741.5,"ySR":573.95,"xT1":424.9,"yT1":0,"xT2":1058.1,"yT2":0,"toosoon":0,"cond_shown":"equaldotsize","ratio_trial":500,"smaller_num":"2","larger_num":"4","correct_side":2,"subjID":"diegosimonpinedaramirez3","gender":"0","age":"11","school":"6"},{"start_time":1551901052083,"click_time":1551901053524,"finger_time":1551901053104,"fix_duration":417.2122417249897,"trial":8,"RT":1021,"MT":420,"sideResp":1,"stimulus":"img/750/equaldotsize/L/1_Ratio_750_L_20_R_15.png","xmouse":[767,767,767,767,767,767,767,767,767,767,767,767,767,767,767,767,767,767,767,767,767,767,767,767,767,767,767,767,767,767,767,767,767,767,767,767,767,767,767,767,767,767,767,767,767,767,767,767,762,755,742,724,689,673,635,582,536,509,507,503,497,491,480,478,477,475,474,472,471,470,470,468,455],"ymouse":[628,628,628,628,628,628,628,628,628,628,628,628,628,628,628,628,628,628,628,628,628,628,628,628,628,628,628,628,628,628,628,628,628,628,628,628,628,628,628,628,628,628,628,628,628,628,628,626,620,611,594,568,517,488,414,325,267,234,230,223,215,205,182,174,170,166,161,149,143,135,128,115,63],"timestamp_mouse":[11,20,41,61,80,100,121,142,161,180,201,222,241,261,282,300,321,340,360,380,402,421,441,460,480,500,521,542,560,580,600,621,640,661,681,701,720,740,760,781,801,820,841,860,881,902,921,940,960,980,1001,1021,1041,1061,1080,1100,1122,1140,1162,1181,1200,1220,1240,1260,1280,1300,1322,1340,1361,1381,1400,1420,1440],"xSR":741.5,"ySR":573.95,"xT1":424.9,"yT1":0,"xT2":1058.1,"yT2":0,"toosoon":0,"cond_shown":"equaldotsize","ratio_trial":750,"smaller_num":"15","larger_num":"20","correct_side":1,"subjID":"diegosimonpinedaramirez3","gender":"0","age":"11","school":"6"},{"start_time":1551901054622,"click_time":1551901056745,"finger_time":1551901055904,"fix_duration":476.4831898889833,"trial":9,"RT":1282,"MT":841,"sideResp":2,"stimulus":"img/900/randomdotsizeEA/R/6_Ratio_900_L_9_R_10.png","xmouse":[796,796,796,796,796,796,796,796,796,797,797,797,797,797,797,797,797,797,797,797,797,797,797,797,797,797,797,797,797,797,797,796,796,796,795,794,794,794,794,794,794,794,794,794,794,794,794,794,794,794,794,794,794,794,794,794,794,794,794,794,794,794,794,794,795,809,828,844,849,852,853,855,858,860,864,929,1009,1076,1128,1179,1233,1257,1281,1299,1314,1333,1336,1337,1337,1336,1308,1287,1266,1253,1249,1248,1248,1248,1248,1247,1241,1234,1222,1206,1191,1159,1151],"ymouse":[581,581,581,581,581,581,581,581,581,581,581,581,581,581,581,581,581,581,581,581,581,581,581,581,581,581,581,581,581,581,581,580,580,580,579,578,578,578,578,578,578,578,578,578,578,578,578,578,578,578,578,578,578,578,578,578,578,578,578,578,578,578,578,576,573,562,549,538,535,525,431,384,364,350,340,255,194,162,140,117,99,96,96,97,100,101,98,96,93,88,64,50,40,35,35,34,34,34,34,33,29,27,27,27,27,33,35],"timestamp_mouse":[11,22,41,63,82,101,122,141,162,181,202,221,241,261,282,301,323,342,361,382,401,423,442,463,481,501,521,542,561,581,602,622,641,661,681,702,723,742,762,781,801,822,841,861,881,901,922,942,961,981,1001,1023,1042,1063,1082,1102,1123,1141,1162,1183,1201,1221,1241,1261,1282,1301,1322,1341,1362,1383,1401,1421,1442,1461,1482,1501,1523,1541,1562,1583,1602,1623,1641,1661,1681,1702,1723,1742,1762,1783,1801,1821,1841,1861,1882,1902,1921,1942,1961,1981,2002,2021,2043,2061,2082,2102,2123],"xSR":741.5,"ySR":573.95,"xT1":424.9,"yT1":0,"xT2":1058.1,"yT2":0,"toosoon":0,"cond_shown":"randomdotsizeEA","ratio_trial":900,"smaller_num":"9","larger_num":"10","correct_side":2,"subjID":"diegosimonpinedaramirez3","gender":"0","age":"11","school":"6"},{"start_time":1551901061789,"click_time":1551901063184,"finger_time":1551901062745,"fix_duration":943.958650563371,"trial":10,"RT":956,"MT":439,"sideResp":1,"stimulus":"img/900/equaldotanddens/L/8_Ratio_900_L_20_R_18.png","xmouse":[796,796,796,796,796,796,796,796,796,796,796,796,796,796,796,796,796,796,796,796,796,796,796,796,796,796,796,796,796,796,796,796,796,796,796,796,796,796,796,796,796,796,796,796,796,796,796,777,757,748,746,744,734,723,716,709,703,684,678,671,667,661,652,648,647,643,626,557,532,515],"ymouse":[623,623,623,623,623,623,623,623,623,623,623,623,623,623,623,623,623,623,623,623,623,623,623,623,623,623,623,623,623,623,623,623,623,623,623,623,623,623,623,623,623,623,623,623,623,623,624,553,523,513,509,504,443,414,399,383,366,324,312,302,292,283,268,262,261,254,205,116,94,80],"timestamp_mouse":[15,36,55,75,94,114,134,155,175,194,216,236,255,274,295,315,335,355,375,394,414,435,456,475,495,515,534,554,574,596,616,636,655,675,694,715,735,754,774,794,814,835,854,874,894,914,934,955,974,994,1014,1034,1054,1076,1094,1114,1134,1155,1175,1194,1215,1236,1255,1275,1294,1316,1336,1354,1374,1395],"xSR":741.5,"ySR":573.95,"xT1":424.9,"yT1":0,"xT2":1058.1,"yT2":0,"toosoon":0,"cond_shown":"equaldotanddens","ratio_trial":900,"smaller_num":"18","larger_num":"20","correct_side":1,"subjID":"diegosimonpinedaramirez3","gender":"0","age":"11","school":"6"},{"start_time":1551901067577,"click_time":1551901068664,"finger_time":1551901068143,"fix_duration":451.16084755903864,"trial":11,"RT":566,"MT":521,"sideResp":1,"stimulus":"img/250/equaldotsize/L/15_Ratio_250_L_12_R_3.png","xmouse":[799,799,799,799,799,799,799,799,799,799,799,799,799,799,799,799,799,799,799,799,799,799,799,799,799,799,794,791,756,731,710,691,663,648,631,629,629,627,624,624,619,615,605,567,559,541,532,520,508,502,502,502,502,502,499],"ymouse":[634,634,634,634,634,634,634,634,634,634,634,634,634,634,634,634,634,634,634,634,634,634,634,634,634,634,623,615,565,527,499,475,455,443,428,424,420,406,369,347,317,271,219,48,21,0,0,0,0,0,0,0,0,0,2],"timestamp_mouse":[9,36,46,66,87,106,127,148,166,187,207,226,246,267,287,307,326,348,367,387,407,427,447,467,487,507,527,546,566,586,607,627,648,666,687,706,726,746,767,786,806,826,846,866,888,906,927,947,967,986,1006,1027,1047,1066,1086],"xSR":741.5,"ySR":573.95,"xT1":424.9,"yT1":0,"xT2":1058.1,"yT2":0,"toosoon":0,"cond_shown":"equaldotsize","ratio_trial":250,"smaller_num":"3","larger_num":"12","correct_side":1,"subjID":"diegosimonpinedaramirez3","gender":"0","age":"11","school":"6"},{"start_time":1551901070470,"click_time":1551901073484,"finger_time":1551901071124,"fix_duration":724.8272100796077,"trial":12,"RT":654,"MT":2360,"sideResp":1,"stimulus":"img/250/randomdotsizeEA/L/1_Ratio_250_L_8_R_2.png","xmouse":[790,790,790,790,790,790,790,790,790,790,790,790,790,790,790,790,790,790,790,790,790,790,790,790,790,790,790,790,790,788,782,773,758,753,719,710,707,706,705,699,695,692,690,689,688,688,688,688,688,688,688,688,688,688,688,688,688,688,688,688,688,688,688,688,688,688,688,688,688,688,688,688,688,688,688,688,688,688,688,688,688,688,688,688,688,688,688,688,688,688,688,688,688,688,688,688,688,687,686,686,685,684,684,684,683,683,683,683,683,682,682,682,682,682,682,682,682,682,682,682,682,682,682,682,682,682,682,682,682,676,674,671,668,661,657,643,638,634,630,615,610,604,597,589,580,567,560,551,536,526,506],"ymouse":[644,644,644,644,644,644,644,644,644,644,644,644,644,644,644,644,644,644,644,644,644,644,644,644,644,644,644,644,644,638,619,599,569,561,518,507,502,499,495,480,471,464,454,450,446,446,446,445,445,441,441,441,441,441,441,441,441,441,441,441,441,441,441,441,441,441,441,441,441,441,441,441,441,441,441,441,441,441,441,441,441,441,441,441,441,441,441,441,441,441,441,441,441,441,441,441,442,455,468,480,484,488,489,489,492,493,493,495,495,495,495,495,495,495,495,495,495,495,495,495,495,495,495,495,495,490,478,463,447,413,400,390,381,369,361,336,325,316,304,278,269,258,246,236,217,177,148,111,82,67,43],"timestamp_mouse":[13,36,53,73,93,114,134,154,173,193,214,233,253,275,295,314,334,354,373,393,413,434,455,474,494,514,534,554,574,593,613,633,654,675,693,713,733,753,773,793,813,834,853,873,893,913,935,954,974,993,1015,1033,1053,1073,1095,1115,1133,1153,1173,1194,1213,1234,1253,1275,1294,1314,1333,1353,1373,1393,1413,1435,1453,1473,1494,1513,1533,1554,1574,1594,1613,1634,1654,1673,1694,1713,1733,1754,1773,1793,1814,1833,1854,1873,1894,1913,1934,1954,1973,1994,2013,2033,2054,2073,2093,2113,2133,2153,2174,2193,2214,2233,2254,2273,2293,2313,2334,2354,2373,2394,2413,2434,2454,2475,2494,2513,2533,2553,2574,2594,2613,2634,2654,2673,2694,2714,2734,2753,2773,2794,2813,2833,2853,2873,2893,2913,2935,2955,2974,2993,3013],"xSR":741.5,"ySR":573.95,"xT1":424.9,"yT1":0,"xT2":1058.1,"yT2":0,"toosoon":0,"cond_shown":"randomdotsizeEA","ratio_trial":250,"smaller_num":"2","larger_num":"8","correct_side":1,"subjID":"diegosimonpinedaramirez3","gender":"0","age":"11","school":"6"},{"start_time":1551901074942,"click_time":1551901078084,"finger_time":1551901076064,"fix_duration":757.2385155143171,"trial":13,"RT":1122,"MT":2020,"sideResp":1,"stimulus":"img/500/randomdotsizeEA/L/13_Ratio_500_L_12_R_6.png","xmouse":[813,813,813,813,813,813,813,813,813,813,813,813,813,813,813,813,813,813,813,813,813,813,813,813,813,813,813,813,813,813,813,813,813,813,813,813,813,813,813,813,813,813,813,813,813,813,813,813,813,813,813,813,813,813,814,824,879,1044,1107,1113,1113,1113,1117,1127,1140,1157,1183,1188,1190,1192,1194,1194,1197,1197,1197,1195,1188,1193,1195,1195,1195,1195,1188,1185,1183,1182,1182,1182,1182,1182,1182,1182,1182,1182,1182,1182,1182,1182,1182,1181,1181,1181,1180,1180,1180,1180,1180,1180,1180,1180,1180,1180,1180,1180,1180,1176,1164,925,758,593,439,331,252,251,251,251,251,251,251,251,251,250,250,252,262,272,283,296,355,386,409,418,418,418,418,418,418,418,418,418,418,418,418,418,418,420,423,448],"ymouse":[637,637,637,637,637,637,637,637,637,637,637,637,637,637,637,637,637,637,637,637,637,637,637,637,637,637,637,637,637,637,637,637,637,637,637,637,637,637,637,637,637,637,637,637,637,637,637,637,637,637,637,637,637,637,630,621,597,519,470,458,455,455,450,438,422,404,378,371,367,361,345,319,210,124,23,0,0,0,0,0,0,0,7,11,14,16,17,17,17,17,17,17,17,17,17,17,17,17,17,17,18,18,20,20,20,21,21,21,21,21,21,21,21,22,24,28,38,89,102,104,106,106,92,92,92,92,92,92,92,92,92,92,91,88,84,82,79,78,77,77,77,77,77,77,77,77,77,77,77,77,77,77,77,77,77,77,76,68],"timestamp_mouse":[9,23,41,61,83,102,122,141,162,183,202,221,242,261,281,301,322,342,361,382,401,423,442,462,481,501,521,543,562,582,602,623,642,661,681,702,722,741,762,781,802,821,841,862,882,902,922,941,963,982,1002,1022,1041,1063,1082,1101,1122,1141,1163,1181,1202,1222,1241,1262,1281,1302,1323,1341,1361,1381,1402,1422,1441,1462,1481,1501,1522,1543,1562,1581,1603,1621,1642,1662,1682,1702,1723,1742,1763,1783,1802,1822,1842,1862,1882,1903,1921,1941,1962,1981,2001,2022,2043,2063,2082,2102,2121,2143,2162,2183,2202,2223,2241,2261,2282,2303,2322,2341,2361,2382,2401,2422,2443,2463,2482,2501,2522,2542,2562,2581,2601,2621,2643,2663,2682,2703,2722,2741,2763,2781,2801,2822,2842,2861,2882,2901,2923,2941,2961,2982,3002,3022,3041,3061,3081,3102,3121,3141],"xSR":741.5,"ySR":573.95,"xT1":424.9,"yT1":0,"xT2":1058.1,"yT2":0,"toosoon":0,"cond_shown":"randomdotsizeEA","ratio_trial":500,"smaller_num":"6","larger_num":"12","correct_side":1,"subjID":"diegosimonpinedaramirez3","gender":"0","age":"11","school":"6"},{"start_time":1551901079801,"click_time":1551901081703,"finger_time":1551901080903,"fix_duration":656.5930618860775,"trial":14,"RT":1102,"MT":800,"sideResp":1,"stimulus":"img/750/equaldotanddens/L/10_Ratio_750_L_4_R_3.png","xmouse":[784,784,784,784,784,784,784,784,784,784,784,784,784,784,784,784,784,784,784,784,784,784,784,784,784,784,784,784,784,784,784,784,784,784,784,784,784,784,784,784,784,784,784,784,784,784,784,784,784,784,784,784,784,784,783,767,761,753,746,729,714,702,683,680,676,668,664,661,656,628,567,460,359,294,286,289,295,298,299,301,301,301,302,302,314,339,349,356,360,364,366,368,370,389,412,490],"ymouse":[642,642,642,642,642,642,642,642,642,642,642,642,642,642,642,642,642,642,642,642,642,642,642,642,642,642,642,642,642,642,642,642,642,642,642,642,642,642,642,642,642,642,642,642,642,642,642,642,642,642,642,642,642,641,625,571,545,515,489,433,405,380,355,344,336,323,318,314,311,293,261,172,115,79,61,50,43,38,36,34,32,32,31,30,28,26,23,20,19,18,18,17,17,19,25,47],"timestamp_mouse":[12,29,43,64,82,103,123,143,162,182,203,222,243,262,284,302,322,342,362,382,404,423,443,463,483,502,523,542,562,583,603,622,643,662,682,702,724,744,763,783,803,824,843,863,883,904,922,944,962,983,1003,1022,1044,1062,1082,1102,1122,1142,1162,1183,1202,1223,1242,1264,1282,1302,1322,1343,1363,1383,1402,1422,1442,1464,1483,1502,1523,1543,1563,1583,1602,1622,1642,1663,1682,1702,1723,1742,1763,1783,1802,1824,1843,1862,1882,1902],"xSR":741.5,"ySR":573.95,"xT1":424.9,"yT1":0,"xT2":1058.1,"yT2":0,"toosoon":0,"cond_shown":"equaldotanddens","ratio_trial":750,"smaller_num":"3","larger_num":"4","correct_side":1,"subjID":"diegosimonpinedaramirez3","gender":"0","age":"11","school":"6"},{"start_time":1551901083374,"click_time":1551901084305,"finger_time":1551901084045,"fix_duration":749.3415280387112,"trial":15,"RT":671,"MT":260,"sideResp":1,"stimulus":"img/500/equaldotanddens/L/11_Ratio_500_L_12_R_6.png","xmouse":[831,831,831,831,831,831,831,831,831,831,831,831,831,831,831,831,831,831,831,831,831,831,831,831,831,831,831,831,831,831,831,828,825,816,807,790,781,770,755,743,724,680,656,626,599,568,517],"ymouse":[597,597,597,597,597,597,597,597,597,597,597,597,597,597,597,597,597,597,597,597,597,597,597,597,597,597,597,597,597,597,597,594,588,569,548,496,466,428,395,367,332,258,218,167,129,94,50],"timestamp_mouse":[10,44,49,70,89,111,131,149,170,190,210,230,249,270,290,310,330,350,371,390,409,430,450,471,489,509,529,550,570,589,610,629,650,671,690,711,729,750,770,790,810,829,849,869,889,909,930],"xSR":741.5,"ySR":573.95,"xT1":424.9,"yT1":0,"xT2":1058.1,"yT2":0,"toosoon":0,"cond_shown":"equaldotanddens","ratio_trial":500,"smaller_num":"6","larger_num":"12","correct_side":1,"subjID":"diegosimonpinedaramirez3","gender":"0","age":"11","school":"6"},{"start_time":1551901086164,"click_time":1551901087365,"finger_time":1551901086823,"fix_duration":798.41557681691,"trial":16,"RT":659,"MT":542,"sideResp":2,"stimulus":"img/750/equaldotsize/R/7_Ratio_750_L_3_R_4.png","xmouse":[771,771,771,771,771,771,771,771,771,771,771,771,771,771,771,771,771,771,771,771,771,771,771,771,771,771,771,771,771,771,771,773,788,803,828,851,870,892,904,917,928,937,946,948,950,954,958,977,988,1001,1015,1042,1055,1059,1060,1062,1063,1063,1063,1063,1063],"ymouse":[604,604,604,604,604,604,604,604,604,604,604,604,604,604,604,604,604,604,604,604,604,604,604,604,604,604,604,604,604,604,604,604,581,559,528,501,476,436,416,390,364,338,297,285,278,267,254,223,207,191,178,158,148,141,137,131,126,114,107,102,97],"timestamp_mouse":[1,20,39,60,81,99,119,139,159,180,201,219,240,261,280,299,320,340,360,379,399,420,440,461,480,500,520,539,560,580,599,620,640,659,679,700,720,739,760,780,799,819,839,859,879,899,919,939,960,980,999,1019,1039,1061,1079,1099,1120,1140,1161,1181,1201],"xSR":741.5,"ySR":573.95,"xT1":424.9,"yT1":0,"xT2":1058.1,"yT2":0,"toosoon":0,"cond_shown":"equaldotsize","ratio_trial":750,"smaller_num":"3","larger_num":"4","correct_side":2,"subjID":"diegosimonpinedaramirez3","gender":"0","age":"11","school":"6"},{"start_time":1551901090713,"click_time":1551901091484,"finger_time":1551901091323,"fix_duration":927.2882016328342,"trial":17,"RT":610,"MT":161,"sideResp":1,"stimulus":"img/250/equaldotsize/L/14_Ratio_250_L_12_R_3.png","xmouse":[787,787,787,787,787,787,787,787,787,787,787,787,787,787,787,787,787,787,787,787,787,787,787,787,787,787,787,787,787,785,774,739,635,584,560,539,534,527,518],"ymouse":[594,594,594,594,594,594,594,594,594,594,594,594,594,594,594,594,594,594,594,594,594,594,594,594,594,594,594,594,594,590,573,523,392,301,227,124,94,70,45],"timestamp_mouse":[21,47,51,70,91,110,131,150,171,191,212,231,251,271,290,312,331,350,370,390,410,430,450,471,491,510,530,551,572,592,610,630,651,670,690,711,730,750,771],"xSR":741.5,"ySR":573.95,"xT1":424.9,"yT1":0,"xT2":1058.1,"yT2":0,"toosoon":0,"cond_shown":"equaldotsize","ratio_trial":250,"smaller_num":"3","larger_num":"12","correct_side":1,"subjID":"diegosimonpinedaramirez3","gender":"0","age":"11","school":"6"},{"start_time":1551901095394,"click_time":1551901096263,"finger_time":1551901095963,"fix_duration":1028.5162590897398,"trial":18,"RT":569,"MT":300,"sideResp":1,"stimulus":"img/250/equaldotanddens/L/3_Ratio_250_L_8_R_2.png","xmouse":[810,810,810,810,810,810,810,810,810,810,810,810,810,810,810,810,810,810,810,810,810,810,810,810,810,810,801,790,768,724,673,557,518,498,486,479,476,472,471,470,470,471,476,485],"ymouse":[645,645,645,645,645,645,645,645,645,645,645,645,645,645,645,645,645,645,645,645,645,645,645,645,645,644,615,589,551,481,415,281,235,209,193,183,175,166,161,158,151,128,108,86],"timestamp_mouse":[12,41,50,69,89,109,129,150,171,189,210,229,249,271,289,310,329,351,370,389,410,430,450,470,490,510,530,550,569,589,609,629,649,669,689,710,730,750,769,789,810,829,849,869],"xSR":741.5,"ySR":573.95,"xT1":424.9,"yT1":0,"xT2":1058.1,"yT2":0,"toosoon":0,"cond_shown":"equaldotanddens","ratio_trial":250,"smaller_num":"2","larger_num":"8","correct_side":1,"subjID":"diegosimonpinedaramirez3","gender":"0","age":"11","school":"6"},{"start_time":1551901097934,"click_time":1551901099024,"finger_time":1551901098584,"fix_duration":809.7313801267152,"trial":19,"RT":650,"MT":440,"sideResp":2,"stimulus":"img/750/equaldotsize/R/4_Ratio_750_L_15_R_20.png","xmouse":[763,763,763,763,763,763,763,763,763,763,763,763,763,763,763,763,763,763,763,763,763,763,763,763,763,763,763,763,763,763,763,769,772,788,823,900,941,976,1008,1120,1180,1231,1266,1293,1304,1294,1283,1277,1265,1232,1216,1204,1187,1166,1147],"ymouse":[589,589,589,589,589,589,589,589,589,589,589,589,589,589,589,589,589,589,589,589,589,589,589,589,589,589,589,589,589,589,589,575,567,544,502,415,377,343,319,262,236,212,186,152,81,42,18,6,0,0,0,4,11,21,30],"timestamp_mouse":[9,39,50,69,90,111,131,149,170,191,210,230,251,270,290,310,330,351,369,390,409,430,449,469,490,510,530,550,569,590,609,629,650,670,690,709,729,749,769,790,809,829,850,869,890,909,929,949,969,990,1010,1029,1049,1070,1089],"xSR":741.5,"ySR":573.95,"xT1":424.9,"yT1":0,"xT2":1058.1,"yT2":0,"toosoon":0,"cond_shown":"equaldotsize","ratio_trial":750,"smaller_num":"15","larger_num":"20","correct_side":2,"subjID":"diegosimonpinedaramirez3","gender":"0","age":"11","school":"6"},{"start_time":1551901101416,"click_time":1551901102323,"finger_time":1551901102004,"fix_duration":250,"trial":20,"RT":588,"MT":319,"sideResp":1,"stimulus":"img/900/randomdotsizeEA/L/8_Ratio_900_L_20_R_18.png","xmouse":[797,797,797,797,797,797,797,797,797,797,797,797,797,797,797,797,797,797,797,797,797,797,797,797,797,797,797,789,774,744,690,503,456,426,412,408,408,408,408,409,411,419,429,437,445,451],"ymouse":[622,622,622,622,622,622,622,622,622,622,622,622,622,622,622,622,622,622,622,622,622,622,622,622,622,622,622,614,591,551,494,330,285,246,224,212,203,201,197,193,184,148,126,114,101,86],"timestamp_mouse":[14,29,47,67,89,107,127,148,167,188,209,227,247,267,287,307,327,349,367,387,407,428,447,469,488,507,528,547,567,588,608,628,647,667,687,707,728,748,767,788,807,827,847,867,888,907],"xSR":741.5,"ySR":573.95,"xT1":424.9,"yT1":0,"xT2":1058.1,"yT2":0,"toosoon":0,"cond_shown":"randomdotsizeEA","ratio_trial":900,"smaller_num":"18","larger_num":"20","correct_side":1,"subjID":"diegosimonpinedaramirez3","gender":"0","age":"11","school":"6"},{"start_time":1551901103988,"click_time":1551901104644,"finger_time":1551901104543,"fix_duration":882.4144737167222,"trial":21,"RT":555,"MT":101,"sideResp":1,"stimulus":"img/500/equaldotsize/L/4_Ratio_500_L_18_R_9.png","xmouse":[804,804,804,804,804,804,804,804,804,804,804,804,804,802,800,799,799,799,799,799,799,799,799,799,795,793,786,762,726,665,588,522,449],"ymouse":[609,609,609,609,609,609,609,609,609,609,609,609,609,610,611,611,611,611,611,611,611,611,611,611,609,605,590,545,489,407,313,223,83],"timestamp_mouse":[17,38,56,75,96,115,135,156,177,196,216,236,256,275,295,315,336,357,375,396,416,435,456,476,495,515,536,555,575,595,616,636,656],"xSR":741.5,"ySR":573.95,"xT1":424.9,"yT1":0,"xT2":1058.1,"yT2":0,"toosoon":0,"cond_shown":"equaldotsize","ratio_trial":500,"smaller_num":"9","larger_num":"18","correct_side":1,"subjID":"diegosimonpinedaramirez3","gender":"0","age":"11","school":"6"},{"start_time":1551901106141,"click_time":1551901107123,"finger_time":1551901106705,"fix_duration":454.62866690890223,"trial":22,"RT":564,"MT":418,"sideResp":2,"stimulus":"img/900/equaldotanddens/R/15_Ratio_900_L_9_R_10.png","xmouse":[765,765,765,765,765,765,765,765,765,765,765,765,765,765,765,765,765,765,765,765,765,765,765,765,765,769,782,805,835,860,879,882,885,889,890,890,893,904,924,950,1015,1039,1055,1073,1083,1129,1143,1149,1153,1156],"ymouse":[645,645,645,645,645,645,645,645,645,645,645,645,645,645,645,645,645,645,645,645,645,645,645,645,645,636,620,593,556,518,470,449,438,430,428,428,425,419,404,385,337,315,292,259,246,189,167,144,117,89],"timestamp_mouse":[13,27,43,62,82,103,122,143,163,182,203,223,242,263,284,303,323,343,363,382,403,422,442,463,482,502,523,543,564,583,603,622,642,663,682,703,723,743,763,783,802,822,844,863,883,902,922,942,963,982],"xSR":741.5,"ySR":573.95,"xT1":424.9,"yT1":0,"xT2":1058.1,"yT2":0,"toosoon":0,"cond_shown":"equaldotanddens","ratio_trial":900,"smaller_num":"9","larger_num":"10","correct_side":2,"subjID":"diegosimonpinedaramirez3","gender":"0","age":"11","school":"6"},{"start_time":1551901108722,"click_time":1551901110003,"finger_time":1551901109264,"fix_duration":875.2171944242763,"trial":23,"RT":542,"MT":739,"sideResp":2,"stimulus":"img/900/equaldotanddens/R/13_Ratio_900_L_18_R_20.png","xmouse":[773,773,773,773,773,773,773,773,773,773,773,773,773,773,773,773,773,773,773,773,773,774,774,773,771,767,763,757,754,753,753,754,756,762,792,830,897,1041,1114,1166,1193,1209,1224,1225,1225,1226,1227,1229,1230,1230,1229,1223,1201,1193,1185,1181,1178,1169,1167,1163,1160,1159,1159,1159,1157],"ymouse":[629,629,629,629,629,629,629,629,629,629,629,629,629,629,629,629,629,629,629,629,629,628,623,620,613,596,582,545,525,507,495,486,483,479,471,457,431,363,315,264,230,203,168,165,164,163,161,147,141,136,128,120,105,101,94,92,89,83,81,79,77,76,76,76,74],"timestamp_mouse":[9,22,41,62,82,101,122,141,161,182,201,223,242,261,282,301,321,342,361,382,402,421,442,461,482,502,522,542,561,581,601,623,641,662,681,701,722,741,762,782,801,822,841,862,882,901,922,942,962,982,1002,1022,1042,1062,1081,1101,1122,1142,1162,1181,1203,1223,1241,1261,1281],"xSR":741.5,"ySR":573.95,"xT1":424.9,"yT1":0,"xT2":1058.1,"yT2":0,"toosoon":0,"cond_shown":"equaldotanddens","ratio_trial":900,"smaller_num":"18","larger_num":"20","correct_side":2,"subjID":"diegosimonpinedaramirez3","gender":"0","age":"11","school":"6"},{"start_time":1551901112014,"click_time":1551901113063,"finger_time":1551901112483,"fix_duration":689.8826976234964,"trial":24,"RT":469,"MT":580,"sideResp":2,"stimulus":"img/750/equaldotsize/R/2_Ratio_750_L_6_R_8.png","xmouse":[787,787,787,787,787,787,787,787,787,787,787,787,787,787,787,787,787,787,787,787,787,787,785,783,780,780,786,804,824,845,869,895,949,969,985,997,1005,1018,1023,1031,1037,1041,1050,1058,1065,1073,1076,1079,1080,1082,1085,1089,1098],"ymouse":[635,635,635,635,635,635,635,635,635,635,635,635,635,635,635,635,635,635,635,635,635,623,594,568,546,527,512,489,471,455,440,420,375,360,349,340,333,296,280,260,237,213,167,152,142,134,131,119,115,112,108,105,91],"timestamp_mouse":[13,29,50,70,89,109,130,149,169,189,209,229,249,270,290,309,330,350,369,389,410,430,449,469,490,511,530,549,570,589,610,630,649,671,690,709,730,750,769,789,810,829,849,870,890,909,929,949,969,989,1010,1029,1049],"xSR":741.5,"ySR":573.95,"xT1":424.9,"yT1":0,"xT2":1058.1,"yT2":0,"toosoon":0,"cond_shown":"equaldotsize","ratio_trial":750,"smaller_num":"6","larger_num":"8","correct_side":2,"subjID":"diegosimonpinedaramirez3","gender":"0","age":"11","school":"6"},{"start_time":1551901115118,"click_time":1551901116044,"finger_time":1551901115663,"fix_duration":1073.2529180484569,"trial":25,"RT":545,"MT":381,"sideResp":1,"stimulus":"img/750/equaldotsize/L/9_Ratio_750_L_4_R_3.png","xmouse":[799,799,799,799,799,799,799,799,799,799,799,799,799,799,799,799,799,799,799,799,799,799,799,799,798,798,796,775,746,720,678,573,478,459,451,446,443,428,415,409,406,405,408,409,414,419,426],"ymouse":[611,611,611,611,611,611,611,611,611,611,611,611,611,611,611,611,611,611,611,611,611,611,611,611,605,597,582,531,490,454,412,347,287,269,253,240,229,195,176,162,151,137,112,105,97,92,83],"timestamp_mouse":[14,25,45,66,86,106,126,146,166,186,206,226,245,267,286,305,326,347,366,386,405,425,446,467,486,506,525,545,565,586,605,625,646,665,685,707,725,745,765,785,806,826,846,865,885,905,926],"xSR":741.5,"ySR":573.95,"xT1":424.9,"yT1":0,"xT2":1058.1,"yT2":0,"toosoon":0,"cond_shown":"equaldotsize","ratio_trial":750,"smaller_num":"3","larger_num":"4","correct_side":1,"subjID":"diegosimonpinedaramirez3","gender":"0","age":"11","school":"6"},{"start_time":1551901117405,"click_time":1551901118665,"finger_time":1551901117983,"fix_duration":541.8624795906231,"trial":26,"RT":578,"MT":682,"sideResp":1,"stimulus":"img/900/equaldotsize/L/10_Ratio_900_L_20_R_18.png","xmouse":[765,765,765,765,765,765,765,765,765,765,765,765,765,765,765,765,765,765,765,765,765,765,765,765,765,767,778,788,805,809,812,815,817,820,820,820,820,820,820,820,820,820,820,820,820,820,820,820,820,814,793,751,602,523,458,423,413,413,417,420,425,431,453],"ymouse":[621,621,621,621,621,621,621,621,621,621,621,621,621,621,621,621,621,621,621,621,621,621,621,621,621,618,604,588,561,551,542,533,525,517,516,516,516,516,516,516,516,516,516,516,516,516,516,516,516,505,485,454,352,298,255,224,205,194,167,155,139,124,92],"timestamp_mouse":[18,41,59,78,98,120,139,158,179,200,219,238,259,279,299,318,339,359,379,398,419,438,459,478,499,518,538,559,578,598,618,638,658,679,698,718,739,759,778,799,819,839,859,878,898,919,939,959,979,998,1018,1039,1060,1078,1099,1118,1139,1158,1179,1198,1218,1238,1260],"xSR":741.5,"ySR":573.95,"xT1":424.9,"yT1":0,"xT2":1058.1,"yT2":0,"toosoon":0,"cond_shown":"equaldotsize","ratio_trial":900,"smaller_num":"18","larger_num":"20","correct_side":1,"subjID":"diegosimonpinedaramirez3","gender":"0","age":"11","school":"6"},{"start_time":1551901119887,"click_time":1551901121904,"finger_time":1551901121624,"fix_duration":381.6852568118293,"trial":27,"RT":1737,"MT":280,"sideResp":1,"stimulus":"img/500/randomdotsizeEA/L/5_Ratio_500_L_4_R_2.png","xmouse":[839,839,839,839,839,839,839,839,839,839,839,839,839,839,839,839,839,839,839,839,839,839,839,839,839,839,839,839,839,839,839,839,839,839,839,839,839,839,839,839,839,839,839,839,839,839,839,839,839,838,836,834,833,832,832,831,831,831,831,831,831,831,831,831,831,831,831,831,831,831,831,831,831,831,831,831,831,831,831,831,831,831,831,831,828,800,742,641,501,307,303,303,303,303,307,312,316,324,338,382,441],"ymouse":[632,632,632,632,632,632,632,632,632,632,632,632,632,632,632,632,632,632,632,632,632,632,632,632,632,632,632,632,632,632,632,632,632,632,632,632,632,632,632,632,632,632,632,632,632,632,632,632,632,632,632,632,632,633,634,634,634,634,634,634,634,634,634,634,634,634,634,634,634,634,634,634,634,634,634,634,634,634,634,634,634,634,634,634,632,593,528,452,362,227,210,202,197,192,177,166,155,144,130,105,85],"timestamp_mouse":[16,44,57,76,98,117,137,157,178,197,216,236,256,278,297,316,336,356,376,396,417,437,456,476,497,517,536,556,577,597,616,638,656,676,697,717,736,756,777,797,817,837,856,877,897,916,936,956,976,996,1017,1037,1057,1076,1097,1116,1138,1156,1177,1196,1216,1236,1256,1276,1296,1316,1338,1357,1377,1397,1416,1436,1456,1476,1497,1517,1536,1556,1578,1596,1616,1637,1657,1678,1696,1717,1737,1757,1777,1796,1817,1836,1857,1877,1896,1916,1936,1957,1977,1996,2016],"xSR":741.5,"ySR":573.95,"xT1":424.9,"yT1":0,"xT2":1058.1,"yT2":0,"toosoon":0,"cond_shown":"randomdotsizeEA","ratio_trial":500,"smaller_num":"2","larger_num":"4","correct_side":1,"subjID":"diegosimonpinedaramirez3","gender":"0","age":"11","school":"6"},{"start_time":1551901124855,"click_time":1551901125905,"finger_time":1551901125483,"fix_duration":808.4142737774418,"trial":28,"RT":628,"MT":422,"sideResp":2,"stimulus":"img/500/equaldotanddens/R/2_Ratio_500_L_3_R_6.png","xmouse":[812,812,812,812,812,812,812,812,812,812,812,812,812,812,812,812,812,812,812,812,812,812,812,812,812,812,812,812,812,812,812,831,864,902,933,962,989,997,1004,1008,1013,1023,1023,1023,1022,1022,1022,1022,1022,1022,1022,1051,1073],"ymouse":[621,621,621,621,621,621,621,621,621,621,621,621,621,621,621,621,621,621,621,621,621,621,621,621,621,621,621,621,621,621,611,559,501,444,402,361,296,268,241,214,187,127,105,87,73,66,63,63,63,63,61,55,49],"timestamp_mouse":[10,41,48,68,88,108,128,149,168,188,208,228,248,268,288,308,329,348,368,389,409,429,449,468,488,508,529,550,569,589,608,628,648,668,688,709,728,749,769,788,809,828,848,868,888,909,929,948,968,988,1008,1028,1050],"xSR":741.5,"ySR":573.95,"xT1":424.9,"yT1":0,"xT2":1058.1,"yT2":0,"toosoon":0,"cond_shown":"equaldotanddens","ratio_trial":500,"smaller_num":"3","larger_num":"6","correct_side":2,"subjID":"diegosimonpinedaramirez3","gender":"0","age":"11","school":"6"},{"start_time":1551901127913,"click_time":1551901128823,"finger_time":1551901128384,"fix_duration":1207.8796807918566,"trial":29,"RT":471,"MT":439,"sideResp":1,"stimulus":"img/250/equaldotanddens/L/3_Ratio_250_L_8_R_2.png","xmouse":[814,814,814,814,814,814,814,814,814,814,814,814,814,814,814,814,814,814,814,814,814,812,804,698,642,590,542,504,489,465,454,442,416,396,396,404,418,431,440,453,459,460,461,461,461,463],"ymouse":[640,640,640,640,640,640,640,640,640,640,640,640,640,640,640,640,640,640,640,640,640,639,632,578,554,539,518,494,477,433,402,346,189,41,23,0,0,0,0,0,0,0,0,0,0,21],"timestamp_mouse":[13,34,51,70,91,112,132,151,171,190,211,232,251,270,290,311,331,350,372,391,410,430,451,471,490,511,530,551,570,591,611,630,650,672,690,710,730,751,770,791,811,830,850,871,890,910],"xSR":741.5,"ySR":573.95,"xT1":424.9,"yT1":0,"xT2":1058.1,"yT2":0,"toosoon":0,"cond_shown":"equaldotanddens","ratio_trial":250,"smaller_num":"2","larger_num":"8","correct_side":1,"subjID":"diegosimonpinedaramirez3","gender":"0","age":"11","school":"6"},{"start_time":1551901131648,"click_time":1551901132403,"finger_time":1551901132184,"fix_duration":703.7838740172759,"trial":30,"RT":536,"MT":219,"sideResp":1,"stimulus":"img/250/equaldotsize/L/15_Ratio_250_L_12_R_3.png","xmouse":[775,775,775,775,775,775,775,775,775,775,775,775,775,775,775,775,775,775,775,775,775,775,775,773,771,762,748,706,699,694,690,683,645,625,599,565,527,510],"ymouse":[656,656,656,656,656,656,656,656,656,656,656,656,656,656,656,656,656,656,656,656,656,656,656,638,628,596,544,393,349,309,285,263,146,114,84,57,36,29],"timestamp_mouse":[15,36,55,76,96,115,135,156,175,195,215,235,256,276,295,316,335,356,377,396,416,436,455,475,496,515,536,555,577,595,616,635,655,674,695,715,735,755],"xSR":741.5,"ySR":573.95,"xT1":424.9,"yT1":0,"xT2":1058.1,"yT2":0,"toosoon":0,"cond_shown":"equaldotsize","ratio_trial":250,"smaller_num":"3","larger_num":"12","correct_side":1,"subjID":"diegosimonpinedaramirez3","gender":"0","age":"11","school":"6"},{"start_time":1551901134576,"click_time":1551901136143,"finger_time":1551901135104,"fix_duration":1412.5674180478168,"trial":31,"RT":528,"MT":1039,"sideResp":1,"stimulus":"img/500/equaldotanddens/L/11_Ratio_500_L_12_R_6.png","xmouse":[777,777,777,777,777,777,777,777,777,777,777,777,777,777,777,777,777,777,777,777,777,777,777,777,778,779,776,764,731,720,678,643,604,596,592,586,579,551,545,570,585,603,614,616,616,616,606,573,542,514,487,466,448,448,448,448,448,444,444,444,449,458,487,503,509,512,512,512,512,512,512,512,512,512,512,512,512,512,511],"ymouse":[616,616,616,616,616,616,616,616,616,616,616,616,616,616,616,616,616,616,616,616,616,616,616,610,604,592,560,542,513,503,475,454,424,406,386,363,312,179,56,0,0,0,0,0,0,0,19,75,117,147,166,171,173,173,173,173,173,171,161,153,142,133,114,108,105,104,104,104,104,104,104,104,104,104,104,104,104,100,94],"timestamp_mouse":[22,36,48,67,88,107,127,147,167,188,207,227,247,267,288,307,328,348,367,387,408,427,447,467,488,508,528,547,569,588,608,627,648,667,687,707,728,747,767,787,807,828,847,868,888,907,929,947,969,987,1008,1027,1047,1067,1088,1108,1127,1147,1167,1188,1207,1227,1247,1267,1287,1307,1327,1347,1367,1388,1407,1428,1446,1467,1488,1507,1527,1547,1567],"xSR":741.5,"ySR":573.95,"xT1":424.9,"yT1":0,"xT2":1058.1,"yT2":0,"toosoon":0,"cond_shown":"equaldotanddens","ratio_trial":500,"smaller_num":"6","larger_num":"12","correct_side":1,"subjID":"diegosimonpinedaramirez3","gender":"0","age":"11","school":"6"},{"start_time":1551901138481,"click_time":1551901139823,"finger_time":1551901139584,"fix_duration":1296.6033212777902,"trial":32,"RT":1103,"MT":239,"sideResp":2,"stimulus":"img/900/randomdotsizeEA/R/9_Ratio_900_L_18_R_20.png","xmouse":[793,793,793,793,793,793,793,793,793,793,793,793,793,793,793,793,793,793,793,793,793,791,789,787,785,785,785,785,785,785,785,785,785,785,785,785,785,785,785,785,785,785,785,785,785,785,785,785,785,785,785,785,785,785,790,807,841,957,1024,1084,1135,1170,1193,1193,1193,1193,1189,1158],"ymouse":[618,618,618,618,618,618,618,618,618,618,618,618,618,618,618,618,618,618,618,618,618,616,611,606,603,602,600,600,600,600,600,600,600,600,600,600,600,600,600,600,600,600,600,600,600,600,600,600,600,600,600,600,600,600,585,570,549,488,448,404,363,316,227,196,170,145,120,57],"timestamp_mouse":[10,22,43,62,83,103,123,143,162,182,203,223,242,263,282,302,323,343,362,383,403,422,442,462,482,503,523,543,562,582,603,622,642,663,683,702,722,742,763,782,803,822,842,863,883,902,923,943,963,982,1003,1023,1043,1063,1083,1103,1122,1142,1162,1182,1203,1223,1242,1262,1282,1303,1322,1342],"xSR":741.5,"ySR":573.95,"xT1":424.9,"yT1":0,"xT2":1058.1,"yT2":0,"toosoon":0,"cond_shown":"randomdotsizeEA","ratio_trial":900,"smaller_num":"18","larger_num":"20","correct_side":2,"subjID":"diegosimonpinedaramirez3","gender":"0","age":"11","school":"6"},{"start_time":1551901142475,"click_time":1551901143543,"finger_time":1551901143204,"fix_duration":250,"trial":33,"RT":729,"MT":339,"sideResp":2,"stimulus":"img/900/equaldotsize/R/15_Ratio_900_L_9_R_10.png","xmouse":[799,799,799,799,799,799,799,799,799,799,799,799,799,799,799,799,799,799,799,799,799,799,799,799,799,799,799,799,799,799,799,799,800,808,817,832,845,857,874,885,904,919,931,951,961,972,985,1000,1028,1045,1057,1073,1092,1118],"ymouse":[636,636,636,636,636,636,636,636,636,636,636,636,636,636,636,636,636,636,636,636,636,636,636,636,636,636,636,636,636,636,636,636,634,616,603,581,554,524,475,451,416,394,378,351,334,318,299,279,233,196,167,134,102,56],"timestamp_mouse":[11,29,48,69,88,108,128,149,168,189,209,229,249,268,288,309,328,349,368,389,409,428,448,469,489,508,529,549,568,589,609,629,648,668,689,709,729,748,768,788,808,828,850,868,889,908,928,948,968,988,1008,1028,1048,1068],"xSR":741.5,"ySR":573.95,"xT1":424.9,"yT1":0,"xT2":1058.1,"yT2":0,"toosoon":0,"cond_shown":"equaldotsize","ratio_trial":900,"smaller_num":"9","larger_num":"10","correct_side":2,"subjID":"diegosimonpinedaramirez3","gender":"0","age":"11","school":"6"},{"start_time":1551901145177,"click_time":1551901145963,"finger_time":1551901145704,"fix_duration":790.5475295945616,"trial":34,"RT":527,"MT":259,"sideResp":1,"stimulus":"img/500/equaldotsize/L/11_Ratio_500_L_12_R_6.png","xmouse":[793,793,793,793,793,793,793,793,793,793,793,793,793,793,793,793,793,793,793,793,793,793,793,793,783,765,730,692,618,580,557,542,533,531,531,531,531,531,528,524],"ymouse":[636,636,636,636,636,636,636,636,636,636,636,636,636,636,636,636,636,636,636,636,636,636,636,632,613,581,523,454,281,185,83,0,0,0,0,0,0,0,8,17],"timestamp_mouse":[9,36,46,67,87,106,126,147,166,186,206,226,246,266,287,308,327,346,366,386,407,426,447,465,486,506,527,546,567,586,606,627,646,666,686,706,727,746,766,786],"xSR":741.5,"ySR":573.95,"xT1":424.9,"yT1":0,"xT2":1058.1,"yT2":0,"toosoon":0,"cond_shown":"equaldotsize","ratio_trial":500,"smaller_num":"6","larger_num":"12","correct_side":1,"subjID":"diegosimonpinedaramirez3","gender":"0","age":"11","school":"6"},{"start_time":1551901149358,"click_time":1551901150303,"finger_time":1551901149963,"fix_duration":1213.136128084802,"trial":35,"RT":605,"MT":340,"sideResp":1,"stimulus":"img/900/equaldotsize/L/10_Ratio_900_L_20_R_18.png","xmouse":[785,785,785,785,785,785,785,785,785,785,785,785,785,785,785,785,785,785,785,785,785,785,785,785,785,785,785,785,785,788,789,789,789,787,757,721,675,643,621,567,532,493,466,440,433,433,433,434],"ymouse":[599,599,599,599,599,599,599,599,599,599,599,599,599,599,599,599,599,599,599,599,599,599,599,599,599,599,599,599,599,585,570,550,514,501,435,403,374,352,337,291,266,238,215,183,142,120,100,89],"timestamp_mouse":[12,36,44,65,86,105,125,145,165,186,206,225,245,266,285,305,325,345,366,386,405,426,446,466,485,506,526,546,565,585,605,625,645,665,686,705,725,745,766,785,805,825,846,865,885,905,925,945],"xSR":741.5,"ySR":573.95,"xT1":424.9,"yT1":0,"xT2":1058.1,"yT2":0,"toosoon":0,"cond_shown":"equaldotsize","ratio_trial":900,"smaller_num":"18","larger_num":"20","correct_side":1,"subjID":"diegosimonpinedaramirez3","gender":"0","age":"11","school":"6"},{"start_time":1551901152759,"click_time":1551901153724,"finger_time":1551901153384,"fix_duration":1374.7096580585428,"trial":36,"RT":625,"MT":340,"sideResp":2,"stimulus":"img/500/equaldotsize/R/6_Ratio_500_L_9_R_18.png","xmouse":[807,807,807,807,807,807,807,807,807,807,807,807,807,807,807,807,807,807,807,807,807,807,807,807,807,807,807,807,806,807,813,823,832,844,876,896,918,937,954,972,1009,1029,1057,1073,1098,1113,1125,1134,1138],"ymouse":[625,625,625,625,625,625,625,625,625,625,625,625,625,625,625,625,625,625,625,625,625,625,625,625,625,625,625,625,624,615,597,573,556,537,494,471,450,430,412,394,355,331,294,266,208,173,144,115,91],"timestamp_mouse":[15,37,44,64,84,105,125,145,165,184,205,224,244,265,285,304,324,344,364,384,405,424,444,465,484,504,525,544,564,584,605,625,644,664,685,704,725,744,765,785,804,824,844,864,885,904,925,944,965],"xSR":741.5,"ySR":573.95,"xT1":424.9,"yT1":0,"xT2":1058.1,"yT2":0,"toosoon":0,"cond_shown":"equaldotsize","ratio_trial":500,"smaller_num":"9","larger_num":"18","correct_side":2,"subjID":"diegosimonpinedaramirez3","gender":"0","age":"11","school":"6"},{"start_time":1551901154995,"click_time":1551901155863,"finger_time":1551901155563,"fix_duration":650.8761568758962,"trial":37,"RT":568,"MT":300,"sideResp":1,"stimulus":"img/900/equaldotanddens/L/8_Ratio_900_L_20_R_18.png","xmouse":[803,803,803,803,803,803,803,803,803,803,803,803,803,803,803,803,803,803,803,803,803,803,803,803,803,803,803,803,790,780,768,757,743,696,655,617,591,578,573,573,571,565,554,501],"ymouse":[605,605,605,605,605,605,605,605,605,605,605,605,605,605,605,605,605,605,605,605,605,605,605,605,603,600,595,590,566,555,543,533,521,446,384,318,266,229,194,166,145,120,95,47],"timestamp_mouse":[12,38,49,68,89,108,129,149,169,188,208,228,249,268,288,308,328,349,369,389,409,429,448,469,488,509,529,549,568,588,608,629,648,668,688,708,728,748,768,787,808,828,848,868],"xSR":741.5,"ySR":573.95,"xT1":424.9,"yT1":0,"xT2":1058.1,"yT2":0,"toosoon":0,"cond_shown":"equaldotanddens","ratio_trial":900,"smaller_num":"18","larger_num":"20","correct_side":1,"subjID":"diegosimonpinedaramirez3","gender":"0","age":"11","school":"6"},{"start_time":1551901157951,"click_time":1551901158844,"finger_time":1551901158304,"fix_duration":1067.467725592725,"trial":38,"RT":353,"MT":540,"sideResp":1,"stimulus":"img/900/equaldotsize/L/10_Ratio_900_L_20_R_18.png","xmouse":[796,796,796,796,796,796,796,796,796,797,797,797,797,797,799,800,801,801,803,808,832,847,862,874,882,882,873,860,843,807,699,637,596,569,552,546,545,543,537,534,528,525,522,508,489],"ymouse":[640,640,640,640,640,640,640,640,640,639,627,618,606,593,583,576,575,573,570,562,515,483,455,425,396,360,345,337,335,335,329,320,309,298,289,282,275,268,253,243,215,202,179,103,38],"timestamp_mouse":[23,38,52,73,93,113,132,153,173,193,212,232,253,272,293,312,332,353,372,393,412,432,452,472,493,512,532,552,572,592,612,634,652,673,692,712,731,752,772,793,812,834,851,872,893],"xSR":741.5,"ySR":573.95,"xT1":424.9,"yT1":0,"xT2":1058.1,"yT2":0,"toosoon":0,"cond_shown":"equaldotsize","ratio_trial":900,"smaller_num":"18","larger_num":"20","correct_side":1,"subjID":"diegosimonpinedaramirez3","gender":"0","age":"11","school":"6"},{"start_time":1551901160242,"click_time":1551901163483,"finger_time":1551901160724,"fix_duration":577.822160662434,"trial":39,"RT":482,"MT":2759,"sideResp":1,"stimulus":"img/900/randomdotsizeEA/L/1_Ratio_900_L_10_R_9.png","xmouse":[778,778,778,778,778,778,778,778,778,778,778,778,778,778,778,778,778,778,778,778,778,776,775,772,768,760,751,735,727,715,705,665,637,604,589,581,577,573,568,560,554,550,539,535,529,525,521,513,513,513,512,512,512,512,512,512,512,512,512,512,512,512,512,512,512,512,512,512,512,512,512,512,512,512,512,512,512,512,512,513,518,537,601,626,648,667,716,771,839,904,958,992,1015,1015,1015,1015,1015,1015,1015,1015,1015,1015,1015,1015,1015,1015,1015,1015,1015,1015,1015,1015,1015,1015,1015,1015,1015,1015,984,901,639,340,1,0,122,334,737,776,767,724,670,654,743,976,1119,1197,1202,1061,881,742,729,755,988,1151,1167,1166,1128,897,795,721,687,670,663,663,663,663,661,641,620,590,561,540,508],"ymouse":[614,614,614,614,614,614,614,614,614,614,614,614,614,614,614,614,614,614,614,614,614,607,596,578,546,522,503,471,459,447,436,405,387,363,350,341,336,322,313,303,297,293,289,288,288,288,289,291,291,291,291,291,291,291,291,291,291,291,291,291,291,291,291,291,291,291,291,291,291,291,291,291,291,291,291,291,291,291,291,291,291,291,283,280,277,274,270,270,270,270,270,270,270,270,270,270,270,270,270,270,270,270,270,270,270,270,270,270,270,270,270,270,270,270,270,270,270,270,270,270,270,274,252,237,174,116,80,89,105,137,172,191,217,221,221,221,223,253,277,298,298,291,224,188,182,180,169,135,121,100,88,80,73,70,69,68,66,66,66,66,69,72,77],"timestamp_mouse":[9,22,41,62,82,102,121,142,161,181,202,222,242,262,281,302,321,342,362,381,402,422,442,462,482,501,521,541,561,582,602,622,641,661,681,701,723,742,761,781,802,822,841,861,881,901,921,942,961,981,1001,1021,1041,1061,1081,1101,1121,1142,1161,1181,1201,1222,1241,1262,1281,1301,1322,1342,1361,1382,1401,1422,1441,1461,1481,1502,1521,1542,1562,1582,1601,1623,1642,1661,1681,1701,1722,1741,1762,1781,1801,1821,1841,1861,1881,1901,1922,1941,1962,1981,2002,2021,2041,2061,2082,2102,2122,2141,2161,2182,2202,2221,2242,2262,2281,2302,2321,2341,2361,2381,2401,2421,2441,2462,2482,2502,2522,2541,2562,2581,2601,2622,2641,2663,2681,2702,2722,2741,2762,2782,2802,2822,2841,2861,2880,2901,2921,2941,2962,2982,3002,3022,3041,3062,3081,3102,3122,3141,3161,3181,3202,3221,3241],"xSR":741.5,"ySR":573.95,"xT1":424.9,"yT1":0,"xT2":1058.1,"yT2":0,"toosoon":0,"cond_shown":"randomdotsizeEA","ratio_trial":900,"smaller_num":"9","larger_num":"10","correct_side":1,"subjID":"diegosimonpinedaramirez3","gender":"0","age":"11","school":"6"},{"start_time":1551901165475,"click_time":1551901167023,"finger_time":1551901166564,"fix_duration":1090.9229693541342,"trial":40,"RT":1089,"MT":459,"sideResp":1,"stimulus":"img/250/randomdotsizeEA/L/7_Ratio_250_L_8_R_2.png","xmouse":[790,790,790,790,790,790,790,790,790,790,790,790,790,790,790,790,790,790,790,790,790,790,790,790,790,790,790,790,790,790,790,790,790,790,790,790,790,790,790,790,790,790,790,790,790,790,790,790,790,790,790,789,784,772,757,655,561,500,476,473,476,478,479,479,479,484,489,496,505,512,514,514,514,514,512,502,498,494],"ymouse":[627,627,627,627,627,627,627,627,627,627,627,627,627,627,627,627,627,627,627,627,627,627,627,627,627,627,627,627,627,627,627,627,627,627,627,627,627,627,627,627,627,627,627,627,627,627,627,627,627,627,627,625,607,581,541,434,378,343,322,309,297,291,286,280,275,266,260,248,236,218,192,181,173,163,152,123,108,95],"timestamp_mouse":[12,28,49,69,88,108,128,148,168,189,209,228,249,268,289,309,329,348,369,389,409,428,448,468,488,508,528,548,569,589,609,628,648,668,689,709,728,749,768,789,809,829,849,869,889,908,928,949,969,989,1009,1028,1048,1069,1089,1108,1128,1149,1168,1188,1208,1228,1248,1268,1289,1308,1328,1349,1368,1388,1408,1429,1448,1468,1488,1508,1529,1548],"xSR":741.5,"ySR":573.95,"xT1":424.9,"yT1":0,"xT2":1058.1,"yT2":0,"toosoon":0,"cond_shown":"randomdotsizeEA","ratio_trial":250,"smaller_num":"2","larger_num":"8","correct_side":1,"subjID":"diegosimonpinedaramirez3","gender":"0","age":"11","school":"6"},{"start_time":1551901168878,"click_time":1551901169763,"finger_time":1551901169583,"fix_duration":1093.7319487159673,"trial":41,"RT":705,"MT":180,"sideResp":2,"stimulus":"img/500/randomdotsizeEA/R/12_Ratio_500_L_1_R_2.png","xmouse":[778,778,778,778,778,778,778,778,778,778,778,778,778,778,778,778,778,778,778,778,778,778,778,778,778,778,778,778,778,778,778,777,782,786,798,869,925,985,1081,1129,1148,1147,1140,1139,1147],"ymouse":[647,647,647,647,647,647,647,647,647,647,647,647,647,647,647,647,647,647,647,647,647,647,647,647,647,647,647,647,647,647,647,647,640,636,624,549,467,388,279,220,186,143,127,112,95],"timestamp_mouse":[12,39,45,65,85,106,126,146,167,186,205,225,246,265,285,305,325,345,365,386,405,426,446,465,485,505,525,545,566,585,606,626,645,666,685,705,725,745,765,786,805,826,845,865,885],"xSR":741.5,"ySR":573.95,"xT1":424.9,"yT1":0,"xT2":1058.1,"yT2":0,"toosoon":0,"cond_shown":"randomdotsizeEA","ratio_trial":500,"smaller_num":"1","larger_num":"2","correct_side":2,"subjID":"diegosimonpinedaramirez3","gender":"0","age":"11","school":"6"},{"start_time":1551901172682,"click_time":1551901174843,"finger_time":1551901174623,"fix_duration":736.9997156509002,"trial":42,"RT":1941,"MT":220,"sideResp":1,"stimulus":"img/750/randomdotsizeEA/L/9_Ratio_750_L_4_R_3.png","xmouse":[779,779,779,779,779,779,779,779,779,779,779,779,779,779,779,779,779,779,779,779,779,779,779,779,779,779,779,779,779,779,779,779,779,779,779,779,779,779,779,779,779,779,779,779,779,779,779,779,779,779,779,779,779,779,779,779,779,779,779,779,779,779,779,779,779,779,779,779,779,779,779,779,779,779,779,779,779,779,779,779,779,779,779,779,779,779,779,779,779,779,779,779,779,779,779,779,773,739,707,679,664,637,625,597,565,530,440,434,433],"ymouse":[645,645,645,645,645,645,645,645,645,645,645,645,645,645,645,645,645,645,645,645,645,645,645,645,645,645,645,645,645,645,645,645,645,645,645,645,645,645,645,645,645,645,645,645,645,645,645,645,645,645,645,645,645,645,645,645,645,645,645,645,645,645,645,645,645,645,645,645,645,645,645,645,645,645,645,645,645,645,645,645,645,645,645,645,645,645,645,645,645,645,645,645,645,645,645,645,637,622,607,593,581,543,520,477,430,367,151,122,95],"timestamp_mouse":[10,22,41,62,82,102,122,142,161,181,202,222,242,262,282,302,322,342,361,381,402,422,442,461,481,501,522,542,562,582,602,622,642,661,682,701,721,741,762,781,800,822,841,862,881,901,921,942,962,981,1002,1022,1042,1061,1082,1102,1122,1141,1162,1181,1201,1222,1241,1261,1282,1301,1321,1341,1362,1381,1401,1422,1442,1461,1482,1502,1522,1542,1562,1581,1602,1621,1642,1661,1682,1701,1721,1742,1762,1781,1801,1821,1842,1861,1882,1902,1921,1941,1961,1981,2001,2021,2041,2061,2082,2101,2121,2141,2161],"xSR":741.5,"ySR":573.95,"xT1":424.9,"yT1":0,"xT2":1058.1,"yT2":0,"toosoon":0,"cond_shown":"randomdotsizeEA","ratio_trial":750,"smaller_num":"3","larger_num":"4","correct_side":1,"subjID":"diegosimonpinedaramirez3","gender":"0","age":"11","school":"6"},{"start_time":1551901178528,"click_time":1551901180463,"finger_time":1551901180083,"fix_duration":1484.8066464678648,"trial":43,"RT":1555,"MT":380,"sideResp":2,"stimulus":"img/900/randomdotsizeEA/R/13_Ratio_900_L_18_R_20.png","xmouse":[765,765,765,765,765,765,765,765,765,765,765,765,765,765,765,765,765,765,765,765,765,765,765,765,765,765,765,765,765,765,765,765,765,765,765,765,765,765,765,765,765,765,765,765,765,765,765,765,765,765,765,765,765,765,765,765,765,765,765,765,765,765,765,765,765,765,765,765,765,765,765,765,765,765,765,765,774,803,853,964,1032,1073,1094,1112,1132,1140,1144,1147,1148,1148,1148,1147,1129,1108,1087,1082,1080],"ymouse":[628,628,628,628,628,628,628,628,628,628,628,628,628,628,628,628,628,628,628,628,628,628,628,628,628,628,628,628,628,628,628,628,628,628,628,628,628,628,628,628,628,628,628,628,628,628,628,628,628,628,628,628,628,628,628,628,628,628,628,628,628,628,628,628,628,628,628,628,628,628,628,628,628,628,628,621,602,545,476,358,298,264,241,216,183