[{"start_time":1551899886769,"click_time":1551899892317,"finger_time":1551899886775,"fix_duration":250,"trial":0,"RT":6,"MT":5542,"sideResp":1,"stimulus":[],"xmouse":[798,798,798,798,798,798,798,798,798,798,798,798,798,798,798,798,798,798,798,798,798,798,798,798,798,798,798,798,798,798,798,798,798,798,797,789,778,761,759,759,759,759,766,769,771,775,777,784,786,788,789,789,789,789,789,789,789,789,789,789,789,789,789,789,789,789,789,789,789,789,789,789,789,789,789,789,789,789,789,789,789,789,789,789,789,789,789,789,789,789,789,789,789,789,789,789,789,789,789,789,789,789,789,789,789,789,789,789,789,789,789,789,789,789,789,789,789,789,789,789,789,789,789,789,789,789,789,789,789,789,789,789,789,789,789,789,789,789,789,789,789,789,789,789,789,789,789,789,790,820,835,847,851,851,851,851,851,851,851,851,851,851,851,851,851,851,851,851,846,839,832,826,823,823,820,819,819,819,819,819,824,830,834,834,834,835,835,846,846,846,846,846,846,846,846,846,846,846,846,846,846,846,847,847,847,847,847,848,848,848,848,848,848,845,843,835,831,830,830,830,830,830,830,829,828,828,828,839,848,854,857,857,857,857,857,857,857,858,858,858,858,858,854,844,839,836,833,781,711,678,673,673,680,686,689,694,696,696,696,696,696,696,696,696,696,695,687,627,587,551,527,441,430,422,422,422,422,425],"ymouse":[527,527,527,527,527,527,527,527,527,527,527,527,527,527,527,527,527,527,527,527,527,527,527,527,527,527,527,527,527,527,527,527,527,527,527,529,535,558,566,573,578,585,597,601,604,608,612,623,626,627,627,627,627,627,627,627,627,627,627,627,627,627,627,627,627,627,627,627,627,627,627,627,627,627,627,627,627,627,627,627,627,627,627,627,627,627,627,627,627,627,627,627,627,627,627,627,627,627,627,627,627,627,627,627,627,627,627,627,627,627,627,627,627,627,627,627,627,627,627,627,627,627,627,627,627,627,627,627,627,627,627,627,627,627,627,627,627,627,627,627,627,627,627,627,627,627,627,627,621,570,543,522,514,514,514,514,514,514,514,514,514,514,514,514,514,514,514,518,529,546,572,603,663,687,707,714,714,714,714,715,715,714,714,714,714,714,714,711,711,711,711,711,711,711,711,711,711,711,711,711,711,711,711,710,710,710,710,710,710,710,710,710,710,711,713,715,717,717,717,717,717,717,717,720,722,722,722,711,703,693,685,683,683,683,683,682,681,679,678,678,677,675,673,665,660,652,648,615,584,571,568,568,564,562,560,558,557,557,557,557,557,557,557,557,556,542,500,317,211,104,36,0,0,0,0,0,0,3],"timestamp_mouse":[6,26,46,67,86,106,126,147,166,187,207,226,246,266,286,307,327,346,367,386,406,427,448,466,487,507,527,546,567,587,607,626,646,667,686,707,727,746,766,786,806,827,846,866,887,906,927,946,967,987,1007,1026,1047,1067,1087,1106,1126,1146,1167,1186,1206,1226,1246,1266,1288,1306,1327,1347,1366,1387,1407,1427,1446,1467,1488,1506,1526,1546,1566,1586,1606,1626,1647,1667,1687,1707,1726,1747,1767,1787,1806,1826,1846,1866,1887,1908,1927,1946,1966,1987,2006,2027,2047,2067,2086,2106,2127,2146,2167,2187,2206,2226,2246,2268,2286,2306,2326,2346,2366,2387,2406,2426,2447,2466,2486,2506,2528,2547,2567,2587,2607,2628,2647,2667,2688,2707,2727,2746,2767,2786,2807,2827,2848,2867,2887,2906,2928,2947,2967,2986,3006,3027,3046,3066,3086,3107,3127,3146,3167,3187,3207,3227,3246,3267,3286,3306,3326,3346,3367,3387,3406,3427,3446,3467,3487,3507,3527,3547,3566,3587,3607,3627,3647,3667,3687,3706,3727,3746,3767,3787,3806,3827,3846,3867,3886,3908,3927,3947,3967,3987,4007,4027,4046,4067,4087,4107,4126,4146,4167,4187,4207,4227,4248,4268,4286,4307,4327,4347,4367,4387,4407,4427,4446,4467,4487,4506,4527,4546,4568,4586,4607,4627,4647,4667,4687,4706,4727,4746,4766,4786,4806,4827,4846,4867,4887,4906,4926,4947,4967,4986,5006,5027,5047,5066,5086,5107,5126,5146,5167,5187,5207,5227,5247,5267,5287,5307,5327,5346,5368,5388,5407,5427,5447,5467,5487,5507,5526,5547],"xSR":741.5,"ySR":469.95,"xT1":424.9,"yT1":0,"xT2":1058.1,"yT2":0,"toosoon":0,"cond_shown":"Congruent","ratio_trial":200,"L_num":3,"L_den":10,"R_num":14,"R_den":28,"correct_side":2,"subjID":"diegosimonpinedaramirez3","gender":"0","age":"11","school":"6","test":{"fix_dur":[250,1500],"timestim":1000,"targets_dim":[100,100],"targets_relative_coord":[0.3,0.7],"size_stim":[880,420],"start_dim":[100,100],"size_start":[300,300],"size_fix":60,"samplingrate":20,"img_types":["Congruent","Incongruent"],"ratios":[100,200,300],"rep_conds":19,"nTrials":120,"trials_to_rest":500,"Trials_order":[50,92,57,118,33,116,17,19,71,8,48,2,38,79,67,23,90,117,108,0,94,49,52,106,74,75,11,82,5,62,119,88,39,3,109,61,77,102,99,22,31,24,37,44,45,115,7,72,43,100,85,29,105,111,65,112,69,60,12,103,59,56,42,98,28,54,27,41,14,83,4,46,95,110,97,53,36,40,15,18,91,81,10,101,26,96,78,68,89,20,104,35,63,47,93,30,107,84,21,114,73,25,9,87,34,70,66,58,86,80,6,76,13,55,16,64,1,51,113,32],"cond_shown":["Congruent","Congruent","Incongruent","Congruent","Incongruent","Congruent","Incongruent","Incongruent","Incongruent","Congruent","Congruent","Congruent","Congruent","Incongruent","Incongruent","Incongruent","Congruent","Incongruent","Congruent","Congruent","Congruent","Incongruent","Congruent","Congruent","Congruent","Incongruent","Incongruent","Congruent","Incongruent","Congruent","Incongruent","Congruent","Incongruent","Incongruent","Incongruent","Incongruent","Incongruent","Congruent","Incongruent","Congruent","Incongruent","Congruent","Incongruent","Congruent","Incongruent","Incongruent","Incongruent","Congruent","Incongruent","Congruent","Incongruent","Incongruent","Incongruent","Incongruent","Incongruent","Congruent","Incongruent","Congruent","Congruent","Incongruent","Incongruent","Congruent","Congruent","Congruent","Congruent","Congruent","Incongruent","Incongruent","Congruent","Incongruent","Congruent","Congruent","Incongruent","Congruent","Incongruent","Incongruent","Congruent","Congruent","Incongruent","Congruent","Incongruent","Incongruent","Congruent","Incongruent","Congruent","Congruent","Congruent","Congruent","Incongruent","Congruent","Congruent","Incongruent","Incongruent","Incongruent","Incongruent","Congruent","Incongruent","Congruent","Incongruent","Congruent","Incongruent","Incongruent","Incongruent","Incongruent","Congruent","Congruent","Congruent","Congruent","Congruent","Congruent","Congruent","Congruent","Incongruent","Incongruent","Congruent","Congruent","Incongruent","Incongruent","Incongruent","Congruent"],"ratio_trial":[200,200,200,300,200,200,300,100,300,200,100,200,200,100,100,300,100,200,100,100,300,100,300,300,200,200,300,300,300,200,300,300,200,200,100,100,300,100,200,300,100,100,100,200,200,100,100,100,100,300,100,300,200,200,300,300,200,100,100,100,300,200,100,200,300,100,200,300,200,300,300,300,300,200,100,300,100,300,200,100,100,200,300,300,200,100,100,200,300,200,200,300,200,300,200,100,300,100,200,100,100,100,200,200,300,300,100,300,200,200,100,300,100,100,300,300,100,200,300,200],"left_num":[3,3,3,24,4,16,4,13,13,8,10,9,15,11,12,1,9,4,10,11,20,8,8,24,1,6,13,20,13,8,4,18,7,3,8,8,13,6,4,11,2,11,3,8,7,10,10,2,11,2,12,4,7,7,4,24,3,10,3,6,8,21,3,8,3,15,4,3,4,4,5,24,3,3,17,4,8,20,6,12,10,7,24,4,12,6,7,15,4,8,16,4,7,4,4,3,13,8,4,10,3,2,3,11,11,4,2,3,5,1,11,18,3,2,1,20,11,7,2,14],"right_num":[14,7,1,8,14,12,6,6,12,2,3,13,4,9,9,2,8,1,3,4,14,1,1,2,21,3,12,8,12,3,2,9,4,11,6,6,12,15,6,2,8,4,7,7,14,9,9,11,9,10,2,2,8,14,2,8,11,3,2,7,9,2,2,7,2,13,6,4,3,2,7,2,4,7,10,8,2,14,3,13,8,12,8,2,6,5,9,4,6,2,12,8,12,8,14,2,12,2,14,3,11,6,1,3,1,2,11,11,14,21,4,9,8,8,7,5,9,6,6,6],"left_den":[10,10,10,30,6,20,5,26,26,15,25,30,25,22,24,2,15,30,25,22,25,20,16,30,2,20,26,25,26,15,20,20,15,4,16,16,26,12,5,22,4,22,9,15,10,25,25,5,22,20,30,20,10,10,20,30,4,25,6,10,10,30,6,15,6,25,5,6,10,20,25,30,6,10,30,5,16,25,20,30,25,10,30,20,15,20,14,25,5,15,20,5,10,5,6,6,26,16,6,25,5,4,10,20,22,5,5,12,10,2,22,20,5,4,20,25,22,15,4,28],"right_den":[28,14,2,16,30,20,12,10,15,6,10,26,10,15,15,10,16,3,10,10,28,2,5,4,30,6,15,16,15,9,4,15,6,20,10,10,15,25,10,10,20,10,30,21,28,18,18,22,15,25,4,4,16,28,4,16,20,10,5,14,18,4,5,21,10,26,10,20,15,4,14,4,20,14,15,16,5,28,6,26,16,24,16,4,10,25,15,10,12,6,20,16,24,16,30,5,15,5,30,10,22,15,2,4,5,4,22,20,20,30,10,15,16,20,20,10,15,9,30,20],"correct_side":[2,2,2,1,1,1,1,2,2,1,1,2,1,2,2,1,1,2,1,1,1,2,1,1,2,2,2,1,2,1,2,1,2,1,2,2,2,2,1,1,1,1,1,1,1,2,2,2,2,2,2,2,1,1,2,1,1,1,1,1,1,1,1,1,1,1,1,1,1,2,2,1,1,2,2,1,1,1,2,2,2,1,1,2,1,1,2,1,1,1,1,1,1,1,1,1,2,1,1,1,1,1,2,2,1,1,2,2,2,2,1,1,1,1,2,1,2,2,1,1],"img_shown":["img2/200/Congruent/R/C_Dist_200_LN_3_LD_10_RN_14_RD_28_1.png","img2/200/Congruent/R/C_Dist_200_LN_3_LD_10_RN_7_RD_14_1.png","img2/200/Incongruent/R/I_Dist_200_LN_3_LD_10_RN_1_RD_2_1.png","img2/300/Congruent/L/C_Dist_300_LN_24_LD_30_RN_8_RD_16_0.png","img2/200/Incongruent/L/I_Dist_200_LN_4_LD_6_RN_14_RD_30_0.png","img2/200/Congruent/L/C_Dist_200_LN_16_LD_20_RN_12_RD_20_0.png","img2/300/Incongruent/L/I_Dist_300_LN_4_LD_5_RN_6_RD_12_0.png","img2/100/Incongruent/R/I_Dist_100_LN_13_LD_26_RN_6_RD_10_1.png","img2/300/Incongruent/R/I_Dist_300_LN_13_LD_26_RN_12_RD_15_1.png","img2/200/Congruent/L/C_Dist_200_LN_8_LD_15_RN_2_RD_6_0.png","img2/100/Congruent/L/C_Dist_100_LN_10_LD_25_RN_3_RD_10_0.png","img2/200/Congruent/R/C_Dist_200_LN_9_LD_30_RN_13_RD_26_1.png","img2/200/Congruent/L/C_Dist_200_LN_15_LD_25_RN_4_RD_10_0.png","img2/100/Incongruent/R/I_Dist_100_LN_11_LD_22_RN_9_RD_15_1.png","img2/100/Incongruent/R/I_Dist_100_LN_12_LD_24_RN_9_RD_15_1.png","img2/300/Incongruent/L/I_Dist_300_LN_1_LD_2_RN_2_RD_10_0.png","img2/100/Congruent/L/C_Dist_100_LN_9_LD_15_RN_8_RD_16_0.png","img2/200/Incongruent/R/I_Dist_200_LN_4_LD_30_RN_1_RD_3_1.png","img2/100/Congruent/L/C_Dist_100_LN_10_LD_25_RN_3_RD_10_0.png","img2/100/Congruent/L/C_Dist_100_LN_11_LD_22_RN_4_RD_10_0.png","img2/300/Congruent/L/C_Dist_300_LN_20_LD_25_RN_14_RD_28_0.png","img2/100/Incongruent/R/I_Dist_100_LN_8_LD_20_RN_1_RD_2_1.png","img2/300/Congruent/L/C_Dist_300_LN_8_LD_16_RN_1_RD_5_0.png","img2/300/Congruent/L/C_Dist_300_LN_24_LD_30_RN_2_RD_4_0.png","img2/200/Congruent/R/C_Dist_200_LN_1_LD_2_RN_21_RD_30_1.png","img2/200/Incongruent/R/I_Dist_200_LN_6_LD_20_RN_3_RD_6_1.png","img2/300/Incongruent/R/I_Dist_300_LN_13_LD_26_RN_12_RD_15_1.png","img2/300/Congruent/L/C_Dist_300_LN_20_LD_25_RN_8_RD_16_0.png","img2/300/Incongruent/R/I_Dist_300_LN_13_LD_26_RN_12_RD_15_1.png","img2/200/Congruent/L/C_Dist_200_LN_8_LD_15_RN_3_RD_9_0.png","img2/300/Incongruent/R/I_Dist_300_LN_4_LD_20_RN_2_RD_4_1.png","img2/300/Congruent/L/C_Dist_300_LN_18_LD_20_RN_9_RD_15_0.png","img2/200/Incongruent/R/I_Dist_200_LN_7_LD_15_RN_4_RD_6_1.png","img2/200/Incongruent/L/I_Dist_200_LN_3_LD_4_RN_11_RD_20_0.png","img2/100/Incongruent/R/I_Dist_100_LN_8_LD_16_RN_6_RD_10_1.png","img2/100/Incongruent/R/I_Dist_100_LN_8_LD_16_RN_6_RD_10_1.png","img2/300/Incongruent/R/I_Dist_300_LN_13_LD_26_RN_12_RD_15_1.png","img2/100/Congruent/R/C_Dist_100_LN_6_LD_12_RN_15_RD_25_1.png","img2/200/Incongruent/L/I_Dist_200_LN_4_LD_5_RN_6_RD_10_0.png","img2/300/Congruent/L/C_Dist_300_LN_11_LD_22_RN_2_RD_10_0.png","img2/100/Incongruent/L/I_Dist_100_LN_2_LD_4_RN_8_RD_20_0.png","img2/100/Congruent/L/C_Dist_100_LN_11_LD_22_RN_4_RD_10_0.png","img2/100/Incongruent/L/I_Dist_100_LN_3_LD_9_RN_7_RD_30_0.png","img2/200/Congruent/L/C_Dist_200_LN_8_LD_15_RN_7_RD_21_0.png","img2/200/Incongruent/L/I_Dist_200_LN_7_LD_10_RN_14_RD_28_0.png","img2/100/Incongruent/R/I_Dist_100_LN_10_LD_25_RN_9_RD_18_1.png","img2/100/Incongruent/R/I_Dist_100_LN_10_LD_25_RN_9_RD_18_1.png","img2/100/Congruent/R/C_Dist_100_LN_2_LD_5_RN_11_RD_22_1.png","img2/100/Incongruent/R/I_Dist_100_LN_11_LD_22_RN_9_RD_15_1.png","img2/300/Congruent/R/C_Dist_300_LN_2_LD_20_RN_10_RD_25_1.png","img2/100/Incongruent/R/I_Dist_100_LN_12_LD_30_RN_2_RD_4_1.png","img2/300/Incongruent/R/I_Dist_300_LN_4_LD_20_RN_2_RD_4_1.png","img2/200/Incongruent/L/I_Dist_200_LN_7_LD_10_RN_8_RD_16_0.png","img2/200/Incongruent/L/I_Dist_200_LN_7_LD_10_RN_14_RD_28_0.png","img2/300/Incongruent/R/I_Dist_300_LN_4_LD_20_RN_2_RD_4_1.png","img2/300/Congruent/L/C_Dist_300_LN_24_LD_30_RN_8_RD_16_0.png","img2/200/Incongruent/L/I_Dist_200_LN_3_LD_4_RN_11_RD_20_0.png","img2/100/Congruent/L/C_Dist_100_LN_10_LD_25_RN_3_RD_10_0.png","img2/100/Congruent/L/C_Dist_100_LN_3_LD_6_RN_2_RD_5_0.png","img2/100/Incongruent/L/I_Dist_100_LN_6_LD_10_RN_7_RD_14_0.png","img2/300/Incongruent/L/I_Dist_300_LN_8_LD_10_RN_9_RD_18_0.png","img2/200/Congruent/L/C_Dist_200_LN_21_LD_30_RN_2_RD_4_0.png","img2/100/Congruent/L/C_Dist_100_LN_3_LD_6_RN_2_RD_5_0.png","img2/200/Congruent/L/C_Dist_200_LN_8_LD_15_RN_7_RD_21_0.png","img2/300/Congruent/L/C_Dist_300_LN_3_LD_6_RN_2_RD_10_0.png","img2/100/Congruent/L/C_Dist_100_LN_15_LD_25_RN_13_RD_26_0.png","img2/200/Incongruent/L/I_Dist_200_LN_4_LD_5_RN_6_RD_10_0.png","img2/300/Incongruent/L/I_Dist_300_LN_3_LD_6_RN_4_RD_20_0.png","img2/200/Congruent/L/C_Dist_200_LN_4_LD_10_RN_3_RD_15_0.png","img2/300/Incongruent/R/I_Dist_300_LN_4_LD_20_RN_2_RD_4_1.png","img2/300/Congruent/R/C_Dist_300_LN_5_LD_25_RN_7_RD_14_1.png","img2/300/Congruent/L/C_Dist_300_LN_24_LD_30_RN_2_RD_4_0.png","img2/300/Incongruent/L/I_Dist_300_LN_3_LD_6_RN_4_RD_20_0.png","img2/200/Congruent/R/C_Dist_200_LN_3_LD_10_RN_7_RD_14_1.png","img2/100/Incongruent/R/I_Dist_100_LN_17_LD_30_RN_10_RD_15_1.png","img2/300/Incongruent/L/I_Dist_300_LN_4_LD_5_RN_8_RD_16_0.png","img2/100/Congruent/L/C_Dist_100_LN_8_LD_16_RN_2_RD_5_0.png","img2/300/Congruent/L/C_Dist_300_LN_20_LD_25_RN_14_RD_28_0.png","img2/200/Incongruent/R/I_Dist_200_LN_6_LD_20_RN_3_RD_6_1.png","img2/100/Congruent/R/C_Dist_100_LN_12_LD_30_RN_13_RD_26_1.png","img2/100/Incongruent/R/I_Dist_100_LN_10_LD_25_RN_8_RD_16_1.png","img2/200/Incongruent/L/I_Dist_200_LN_7_LD_10_RN_12_RD_24_0.png","img2/300/Congruent/L/C_Dist_300_LN_24_LD_30_RN_8_RD_16_0.png","img2/300/Incongruent/R/I_Dist_300_LN_4_LD_20_RN_2_RD_4_1.png","img2/200/Congruent/L/C_Dist_200_LN_12_LD_15_RN_6_RD_10_0.png","img2/100/Congruent/L/C_Dist_100_LN_6_LD_20_RN_5_RD_25_0.png","img2/100/Congruent/R/C_Dist_100_LN_7_LD_14_RN_9_RD_15_1.png","img2/200/Congruent/L/C_Dist_200_LN_15_LD_25_RN_4_RD_10_0.png","img2/300/Incongruent/L/I_Dist_300_LN_4_LD_5_RN_6_RD_12_0.png","img2/200/Congruent/L/C_Dist_200_LN_8_LD_15_RN_2_RD_6_0.png","img2/200/Congruent/L/C_Dist_200_LN_16_LD_20_RN_12_RD_20_0.png","img2/300/Incongruent/L/I_Dist_300_LN_4_LD_5_RN_8_RD_16_0.png","img2/200/Incongruent/L/I_Dist_200_LN_7_LD_10_RN_12_RD_24_0.png","img2/300/Incongruent/L/I_Dist_300_LN_4_LD_5_RN_8_RD_16_0.png","img2/200/Incongruent/L/I_Dist_200_LN_4_LD_6_RN_14_RD_30_0.png","img2/100/Congruent/L/C_Dist_100_LN_3_LD_6_RN_2_RD_5_0.png","img2/300/Incongruent/R/I_Dist_300_LN_13_LD_26_RN_12_RD_15_1.png","img2/100/Congruent/L/C_Dist_100_LN_8_LD_16_RN_2_RD_5_0.png","img2/200/Incongruent/L/I_Dist_200_LN_4_LD_6_RN_14_RD_30_0.png","img2/100/Congruent/L/C_Dist_100_LN_10_LD_25_RN_3_RD_10_0.png","img2/100/Incongruent/L/I_Dist_100_LN_3_LD_5_RN_11_RD_22_0.png","img2/100/Incongruent/L/I_Dist_100_LN_2_LD_4_RN_6_RD_15_0.png","img2/200/Incongruent/R/I_Dist_200_LN_3_LD_10_RN_1_RD_2_1.png","img2/200/Incongruent/R/I_Dist_200_LN_11_LD_20_RN_3_RD_4_1.png","img2/300/Congruent/L/C_Dist_300_LN_11_LD_22_RN_1_RD_5_0.png","img2/300/Congruent/L/C_Dist_300_LN_4_LD_5_RN_2_RD_4_0.png","img2/100/Congruent/R/C_Dist_100_LN_2_LD_5_RN_11_RD_22_1.png","img2/300/Congruent/R/C_Dist_300_LN_3_LD_12_RN_11_RD_20_1.png","img2/200/Congruent/R/C_Dist_200_LN_5_LD_10_RN_14_RD_20_1.png","img2/200/Congruent/R/C_Dist_200_LN_1_LD_2_RN_21_RD_30_1.png","img2/100/Congruent/L/C_Dist_100_LN_11_LD_22_RN_4_RD_10_0.png","img2/300/Congruent/L/C_Dist_300_LN_18_LD_20_RN_9_RD_15_0.png","img2/100/Incongruent/L/I_Dist_100_LN_3_LD_5_RN_8_RD_16_0.png","img2/100/Incongruent/L/I_Dist_100_LN_2_LD_4_RN_8_RD_20_0.png","img2/300/Congruent/R/C_Dist_300_LN_1_LD_20_RN_7_RD_20_1.png","img2/300/Congruent/L/C_Dist_300_LN_20_LD_25_RN_5_RD_10_0.png","img2/100/Incongruent/R/I_Dist_100_LN_11_LD_22_RN_9_RD_15_1.png","img2/200/Incongruent/R/I_Dist_200_LN_7_LD_15_RN_6_RD_9_1.png","img2/300/Incongruent/L/I_Dist_300_LN_2_LD_4_RN_6_RD_30_0.png","img2/200/Congruent/L/C_Dist_200_LN_14_LD_28_RN_6_RD_20_0.png"],"dist100_C":[["C_Dist_100_LN_10_LD_25_RN_3_RD_10_0.png","C_Dist_100_LN_11_LD_22_RN_4_RD_10_0.png","C_Dist_100_LN_11_LD_22_RN_6_RD_15_0.png","C_Dist_100_LN_15_LD_25_RN_13_RD_26_0.png","C_Dist_100_LN_3_LD_6_RN_2_RD_5_0.png","C_Dist_100_LN_6_LD_20_RN_5_RD_25_0.png","C_Dist_100_LN_8_LD_16_RN_2_RD_5_0.png","C_Dist_100_LN_9_LD_15_RN_8_RD_16_0.png"],["C_Dist_100_LN_1_LD_2_RN_18_RD_30_1.png","C_Dist_100_LN_1_LD_2_RN_3_RD_5_1.png","C_Dist_100_LN_12_LD_30_RN_13_RD_26_1.png","C_Dist_100_LN_2_LD_5_RN_11_RD_22_1.png","C_Dist_100_LN_2_LD_5_RN_6_RD_12_1.png","C_Dist_100_LN_3_LD_20_RN_4_RD_16_1.png","C_Dist_100_LN_4_LD_10_RN_15_RD_30_1.png","C_Dist_100_LN_4_LD_8_RN_6_RD_10_1.png","C_Dist_100_LN_6_LD_12_RN_15_RD_25_1.png","C_Dist_100_LN_7_LD_14_RN_15_RD_25_1.png","C_Dist_100_LN_7_LD_14_RN_9_RD_15_1.png"]],"dist100_I":[["I_Dist_100_LN_1_LD_2_RN_8_RD_20_0.png","I_Dist_100_LN_2_LD_4_RN_6_RD_15_0.png","I_Dist_100_LN_2_LD_4_RN_8_RD_20_0.png","I_Dist_100_LN_3_LD_5_RN_11_RD_22_0.png","I_Dist_100_LN_3_LD_5_RN_8_RD_16_0.png","I_Dist_100_LN_3_LD_6_RN_4_RD_10_0.png","I_Dist_100_LN_3_LD_9_RN_7_RD_30_0.png","I_Dist_100_LN_4_LD_8_RN_8_RD_20_0.png","I_Dist_100_LN_6_LD_10_RN_11_RD_22_0.png","I_Dist_100_LN_6_LD_10_RN_13_RD_26_0.png","I_Dist_100_LN_6_LD_10_RN_7_RD_14_0.png","I_Dist_100_LN_9_LD_10_RN_20_RD_25_0.png","I_Dist_100_LN_9_LD_15_RN_13_RD_26_0.png","I_Dist_100_LN_9_LD_15_RN_14_RD_28_0.png"],["I_Dist_100_LN_10_LD_25_RN_8_RD_16_1.png","I_Dist_100_LN_10_LD_25_RN_9_RD_18_1.png","I_Dist_100_LN_11_LD_22_RN_9_RD_15_1.png","I_Dist_100_LN_12_LD_24_RN_9_RD_15_1.png","I_Dist_100_LN_12_LD_30_RN_2_RD_4_1.png","I_Dist_100_LN_13_LD_26_RN_12_RD_20_1.png","I_Dist_100_LN_13_LD_26_RN_6_RD_10_1.png","I_Dist_100_LN_17_LD_30_RN_10_RD_15_1.png","I_Dist_100_LN_6_LD_12_RN_3_RD_5_1.png","I_Dist_100_LN_8_LD_16_RN_6_RD_10_1.png","I_Dist_100_LN_8_LD_20_RN_1_RD_2_1.png","I_Dist_100_LN_9_LD_18_RN_6_RD_10_1.png"]],"dist100_S":[["E_Dist_100_LN_2_LD_12_RN_2_RD_30_0.png","E_Dist_100_LN_6_LD_10_RN_6_RD_12_0.png"],["E_Dist_100_LN_6_LD_12_RN_6_RD_10_1.png"]],"dist200_C":[["C_Dist_200_LN_11_LD_22_RN_3_RD_10_0.png","C_Dist_200_LN_12_LD_15_RN_6_RD_10_0.png","C_Dist_200_LN_12_LD_20_RN_6_RD_15_0.png","C_Dist_200_LN_14_LD_28_RN_6_RD_20_0.png","C_Dist_200_LN_15_LD_25_RN_4_RD_10_0.png","C_Dist_200_LN_16_LD_20_RN_12_RD_20_0.png","C_Dist_200_LN_16_LD_30_RN_9_RD_27_0.png","C_Dist_200_LN_20_LD_25_RN_9_RD_15_0.png","C_Dist_200_LN_21_LD_30_RN_2_RD_4_0.png","C_Dist_200_LN_4_LD_10_RN_3_RD_15_0.png","C_Dist_200_LN_4_LD_8_RN_3_RD_10_0.png","C_Dist_200_LN_6_LD_15_RN_3_RD_15_0.png","C_Dist_200_LN_7_LD_21_RN_2_RD_15_0.png","C_Dist_200_LN_8_LD_15_RN_2_RD_6_0.png","C_Dist_200_LN_8_LD_15_RN_3_RD_9_0.png","C_Dist_200_LN_8_LD_15_RN_7_RD_21_0.png","C_Dist_200_LN_9_LD_20_RN_4_RD_16_0.png"],["C_Dist_200_LN_1_LD_2_RN_21_RD_30_1.png","C_Dist_200_LN_13_LD_26_RN_14_RD_20_1.png","C_Dist_200_LN_3_LD_10_RN_11_RD_22_1.png","C_Dist_200_LN_3_LD_10_RN_14_RD_28_1.png","C_Dist_200_LN_3_LD_10_RN_7_RD_14_1.png","C_Dist_200_LN_3_LD_12_RN_9_RD_20_1.png","C_Dist_200_LN_3_LD_6_RN_14_RD_20_1.png","C_Dist_200_LN_5_LD_10_RN_14_RD_20_1.png","C_Dist_200_LN_6_LD_12_RN_7_RD_10_1.png","C_Dist_200_LN_6_LD_20_RN_11_RD_22_1.png","C_Dist_200_LN_7_LD_15_RN_18_RD_27_1.png","C_Dist_200_LN_9_LD_30_RN_13_RD_26_1.png"]],"dist200_I":[["I_Dist_200_LN_1_LD_2_RN_3_RD_10_0.png","I_Dist_200_LN_1_LD_3_RN_2_RD_15_0.png","I_Dist_200_LN_3_LD_4_RN_11_RD_20_0.png","I_Dist_200_LN_4_LD_5_RN_6_RD_10_0.png","I_Dist_200_LN_4_LD_6_RN_14_RD_30_0.png","I_Dist_200_LN_7_LD_10_RN_12_RD_24_0.png","I_Dist_200_LN_7_LD_10_RN_14_RD_28_0.png","I_Dist_200_LN_7_LD_10_RN_8_RD_16_0.png"],["I_Dist_200_LN_11_LD_20_RN_3_RD_4_1.png","I_Dist_200_LN_14_LD_30_RN_12_RD_18_1.png","I_Dist_200_LN_14_LD_30_RN_6_RD_9_1.png","I_Dist_200_LN_3_LD_10_RN_1_RD_2_1.png","I_Dist_200_LN_4_LD_30_RN_1_RD_3_1.png","I_Dist_200_LN_6_LD_20_RN_3_RD_6_1.png","I_Dist_200_LN_7_LD_15_RN_4_RD_6_1.png","I_Dist_200_LN_7_LD_15_RN_6_RD_9_1.png","I_Dist_200_LN_9_LD_15_RN_8_RD_10_1.png"]],"dist200_S":[["E_Dist_200_LN_3_LD_6_RN_3_RD_10_0.png"],["E_Dist_200_LN_3_LD_10_RN_3_RD_6_1.png"]],"dist300_C":[["C_Dist_300_LN_11_LD_22_RN_1_RD_5_0.png","C_Dist_300_LN_11_LD_22_RN_2_RD_10_0.png","C_Dist_300_LN_11_LD_22_RN_4_RD_20_0.png","C_Dist_300_LN_12_LD_24_RN_2_RD_10_0.png","C_Dist_300_LN_18_LD_20_RN_9_RD_15_0.png","C_Dist_300_LN_20_LD_25_RN_13_RD_26_0.png","C_Dist_300_LN_20_LD_25_RN_14_RD_28_0.png","C_Dist_300_LN_20_LD_25_RN_5_RD_10_0.png","C_Dist_300_LN_20_LD_25_RN_8_RD_16_0.png","C_Dist_300_LN_20_LD_25_RN_9_RD_18_0.png","C_Dist_300_LN_24_LD_30_RN_2_RD_4_0.png","C_Dist_300_LN_24_LD_30_RN_8_RD_16_0.png","C_Dist_300_LN_3_LD_6_RN_2_RD_10_0.png","C_Dist_300_LN_4_LD_10_RN_1_RD_10_0.png","C_Dist_300_LN_4_LD_5_RN_2_RD_4_0.png","C_Dist_300_LN_8_LD_16_RN_1_RD_5_0.png","C_Dist_300_LN_9_LD_10_RN_3_RD_5_0.png"],["C_Dist_300_LN_1_LD_20_RN_7_RD_20_1.png","C_Dist_300_LN_1_LD_3_RN_19_RD_30_1.png","C_Dist_300_LN_1_LD_30_RN_8_RD_24_1.png","C_Dist_300_LN_1_LD_5_RN_11_RD_22_1.png","C_Dist_300_LN_1_LD_5_RN_3_RD_6_1.png","C_Dist_300_LN_1_LD_5_RN_6_RD_12_1.png","C_Dist_300_LN_2_LD_10_RN_12_RD_24_1.png","C_Dist_300_LN_2_LD_20_RN_10_RD_25_1.png","C_Dist_300_LN_3_LD_12_RN_11_RD_20_1.png","C_Dist_300_LN_3_LD_6_RN_4_RD_5_1.png","C_Dist_300_LN_4_LD_20_RN_13_RD_26_1.png","C_Dist_300_LN_5_LD_25_RN_6_RD_12_1.png","C_Dist_300_LN_5_LD_25_RN_7_RD_14_1.png","C_Dist_300_LN_7_LD_14_RN_20_RD_25_1.png","C_Dist_300_LN_8_LD_15_RN_10_RD_12_1.png"]],"dist300_I":[["I_Dist_300_LN_1_LD_2_RN_2_RD_10_0.png","I_Dist_300_LN_1_LD_2_RN_3_RD_15_0.png","I_Dist_300_LN_2_LD_4_RN_6_RD_30_0.png","I_Dist_300_LN_3_LD_6_RN_4_RD_20_0.png","I_Dist_300_LN_4_LD_5_RN_6_RD_12_0.png","I_Dist_300_LN_4_LD_5_RN_8_RD_16_0.png","I_Dist_300_LN_7_LD_10_RN_8_RD_20_0.png","I_Dist_300_LN_8_LD_10_RN_14_RD_28_0.png","I_Dist_300_LN_8_LD_10_RN_9_RD_18_0.png"],["I_Dist_300_LN_13_LD_26_RN_12_RD_15_1.png","I_Dist_300_LN_4_LD_20_RN_2_RD_4_1.png"]],"dist300_S":[["E_Dist_300_LN_9_LD_12_RN_9_RD_20_0.png"],["E_Dist_300_LN_18_LD_30_RN_18_RD_20_1.png","E_Dist_300_LN_3_LD_10_RN_3_RD_5_1.png","E_Dist_300_LN_9_LD_20_RN_9_RD_12_1.png"]],"dist500_C":[["C_Dist_500_LN_10_LD_13_RN_7_RD_26_0.png","C_Dist_500_LN_10_LD_15_RN_4_RD_24_0.png","C_Dist_500_LN_12_LD_16_RN_3_RD_12_0.png","C_Dist_500_LN_12_LD_18_RN_4_RD_24_0.png","C_Dist_500_LN_15_LD_18_RN_5_RD_15_0.png","C_Dist_500_LN_15_LD_20_RN_1_RD_4_0.png","C_Dist_500_LN_18_LD_27_RN_1_RD_6_0.png","C_Dist_500_LN_20_LD_24_RN_1_RD_3_0.png","C_Dist_500_LN_20_LD_24_RN_3_RD_9_0.png","C_Dist_500_LN_20_LD_24_RN_7_RD_21_0.png","C_Dist_500_LN_20_LD_28_RN_3_RD_14_0.png","C_Dist_500_LN_21_LD_28_RN_6_RD_24_0.png","C_Dist_500_LN_22_LD_28_RN_2_RD_7_0.png","C_Dist_500_LN_25_LD_30_RN_9_RD_27_0.png","C_Dist_500_LN_4_LD_6_RN_1_RD_6_0.png","C_Dist_500_LN_5_LD_6_RN_2_RD_6_0.png","C_Dist_500_LN_6_LD_9_RN_1_RD_6_0.png","C_Dist_500_LN_7_LD_10_RN_1_RD_5_0.png","C_Dist_500_LN_8_LD_12_RN_1_RD_6_0.png","C_Dist_500_LN_8_LD_12_RN_4_RD_24_0.png"],["C_Dist_500_LN_1_LD_4_RN_12_RD_16_1.png","C_Dist_500_LN_1_LD_4_RN_9_RD_12_1.png","C_Dist_500_LN_1_LD_9_RN_11_RD_18_1.png","C_Dist_500_LN_10_LD_24_RN_22_RD_24_1.png","C_Dist_500_LN_2_LD_12_RN_10_RD_15_1.png","C_Dist_500_LN_2_LD_12_RN_12_RD_18_1.png","C_Dist_500_LN_2_LD_12_RN_4_RD_6_1.png","C_Dist_500_LN_2_LD_24_RN_7_RD_12_1.png","C_Dist_500_LN_2_LD_5_RN_18_RD_20_1.png","C_Dist_500_LN_2_LD_5_RN_9_RD_10_1.png","C_Dist_500_LN_2_LD_8_RN_12_RD_16_1.png","C_Dist_500_LN_2_LD_8_RN_21_RD_28_1.png","C_Dist_500_LN_3_LD_10_RN_4_RD_5_1.png","C_Dist_500_LN_3_LD_12_RN_15_RD_20_1.png","C_Dist_500_LN_3_LD_30_RN_6_RD_10_1.png","C_Dist_500_LN_3_LD_8_RN_14_RD_16_1.png","C_Dist_500_LN_4_LD_16_RN_15_RD_20_1.png","C_Dist_500_LN_4_LD_24_RN_12_RD_18_1.png","C_Dist_500_LN_5_LD_14_RN_6_RD_7_1.png","C_Dist_500_LN_7_LD_21_RN_20_RD_24_1.png","C_Dist_500_LN_7_LD_28_RN_12_RD_16_1.png","C_Dist_500_LN_7_LD_28_RN_9_RD_12_1.png","C_Dist_500_LN_9_LD_27_RN_20_RD_24_1.png"]],"dist500_I":[["I_Dist_500_LN_2_LD_3_RN_4_RD_24_0.png","I_Dist_500_LN_5_LD_6_RN_6_RD_18_0.png","I_Dist_500_LN_7_LD_8_RN_9_RD_24_0.png"],["I_Dist_500_LN_7_LD_21_RN_5_RD_6_1.png"]],"dist500_S":[["E_Dist_500_LN_6_LD_8_RN_6_RD_24_0.png"],["E_Dist_500_LN_2_LD_12_RN_2_RD_3_1.png","E_Dist_500_LN_6_LD_24_RN_6_RD_8_1.png"]]}},{"start_time":1551899895136,"click_time":1551899898135,"finger_time":1551899897136,"fix_duration":1317.7653322019014,"trial":1,"RT":2000,"MT":999,"sideResp":2,"stimulus":[],"xmouse":[785,785,785,785,785,785,785,785,785,785,785,785,785,785,785,785,785,785,785,785,785,785,785,785,785,785,785,785,785,785,785,785,785,785,785,785,784,783,783,783,783,783,782,782,781,779,778,777,774,770,766,765,764,764,764,764,764,764,764,764,764,764,764,764,764,764,764,764,764,764,764,764,764,764,764,764,761,761,761,761,761,761,761,761,761,761,761,761,761,761,761,761,760,759,757,751,747,746,744,742,738,734,732,731,730,730,730,730,730,730,730,730,730,730,730,730,730,730,730,730,730,730,733,734,741,752,758,764,769,779,803,822,842,859,880,948,968,983,995,1007,1027,1033,1038,1040,1042,1047,1048,1052,1059,1070,1099],"ymouse":[596,596,596,596,596,596,596,596,596,596,596,596,596,596,596,596,596,596,596,596,596,596,596,596,596,596,596,596,596,596,596,596,596,596,596,596,597,597,597,597,597,597,598,598,599,600,601,601,602,603,605,606,606,606,606,606,606,606,606,606,606,606,606,606,606,606,606,606,606,606,606,606,606,606,606,606,607,607,607,607,607,607,607,607,607,607,607,607,607,607,607,607,607,608,608,611,611,612,613,613,615,615,615,615,615,615,615,615,615,615,615,615,615,615,615,615,615,615,615,615,615,615,611,608,601,576,567,559,551,535,486,451,415,381,349,297,280,266,249,233,199,186,173,164,158,150,148,143,130,111,66],"timestamp_mouse":[1,19,40,60,79,100,120,140,160,179,200,220,240,260,280,299,319,339,359,380,400,419,440,459,479,499,520,539,559,580,599,620,639,660,679,699,720,739,760,779,799,819,841,859,879,899,920,940,959,980,999,1019,1040,1060,1079,1099,1119,1140,1159,1179,1201,1220,1240,1261,1280,1299,1320,1340,1359,1379,1400,1420,1440,1459,1480,1500,1520,1539,1559,1580,1599,1620,1640,1659,1680,1700,1720,1740,1760,1779,1799,1819,1840,1860,1880,1899,1919,1940,1960,1979,2000,2019,2039,2060,2079,2099,2120,2139,2159,2179,2199,2220,2240,2260,2281,2299,2320,2339,2359,2379,2401,2419,2439,2460,2480,2499,2519,2539,2559,2580,2599,2620,2639,2659,2680,2699,2720,2739,2759,2779,2799,2820,2839,2859,2879,2899,2920,2939,2959,2980,2999],"xSR":741.5,"ySR":573.95,"xT1":424.9,"yT1":0,"xT2":1058.1,"yT2":0,"toosoon":0,"cond_shown":"Congruent","ratio_trial":200,"L_num":3,"L_den":10,"R_num":7,"R_den":14,"correct_side":2,"subjID":"diegosimonpinedaramirez3","gender":"0","school":"6","age":"11"},{"start_time":1551899900873,"click_time":1551899902676,"finger_time":1551899902356,"fix_duration":1035.9551816236283,"trial":2,"RT":1483,"MT":320,"sideResp":2,"stimulus":[],"xmouse":[773,773,773,773,773,773,773,773,773,773,773,773,773,773,773,773,773,773,773,773,773,773,773,773,773,773,773,773,773,773,773,773,773,773,773,773,773,773,773,773,773,773,773,773,773,773,773,773,773,773,773,773,773,773,773,773,773,773,773,773,773,773,773,773,773,773,773,773,773,773,773,776,780,797,870,939,960,1012,1055,1072,1092,1113,1133,1148,1168,1173,1174,1174,1174,1162,1135],"ymouse":[625,625,625,625,625,625,625,625,625,625,625,625,625,625,625,625,625,625,625,625,625,625,625,625,625,625,625,625,625,625,625,625,625,625,625,625,625,625,625,625,625,625,625,625,625,625,625,625,625,625,625,625,625,625,625,625,625,625,625,625,625,625,625,625,625,625,625,625,625,625,625,618,608,583,491,405,375,293,230,209,188,173,157,145,122,107,88,82,82,80,78],"timestamp_mouse":[10,32,42,63,83,103,123,142,163,183,202,222,243,263,282,303,324,343,363,383,402,422,443,462,483,503,522,543,562,583,604,623,642,663,683,703,722,744,763,783,802,823,843,863,883,903,924,943,962,982,1004,1022,1042,1063,1082,1102,1122,1142,1163,1182,1202,1223,1242,1262,1282,1303,1322,1343,1362,1383,1404,1422,1442,1462,1483,1502,1522,1543,1563,1582,1603,1622,1642,1663,1682,1703,1722,1742,1762,1783,1802],"xSR":741.5,"ySR":573.95,"xT1":424.9,"yT1":0,"xT2":1058.1,"yT2":0,"toosoon":0,"cond_shown":"Incongruent","ratio_trial":200,"L_num":3,"L_den":10,"R_num":1,"R_den":2,"correct_side":2,"subjID":"diegosimonpinedaramirez3","gender":"0","school":"6","age":"11"},{"start_time":1551899905627,"click_time":1551899907095,"finger_time":1551899906655,"fix_duration":250,"trial":3,"RT":1028,"MT":440,"sideResp":1,"stimulus":[],"xmouse":[816,816,816,816,816,816,816,816,816,816,816,816,816,816,816,816,816,816,816,815,814,814,814,814,814,814,814,814,814,814,814,814,814,814,814,814,814,814,814,814,814,814,814,814,814,814,814,814,814,794,773,674,649,636,633,633,641,641,635,626,612,582,572,570,567,562,540,538,537,537,537,534,528,522],"ymouse":[642,642,642,642,642,642,642,642,642,642,642,642,642,642,642,642,642,642,642,642,642,642,642,642,642,642,642,642,642,642,642,642,642,642,642,642,642,642,642,642,642,642,642,642,642,642,642,642,642,633,623,552,492,421,339,255,60,25,0,0,0,0,0,0,0,0,4,5,6,6,6,8,10,11],"timestamp_mouse":[10,42,48,70,88,109,129,148,169,189,209,229,249,269,289,309,328,348,369,389,408,429,448,468,490,508,528,549,568,589,609,633,649,669,688,709,728,749,768,790,808,828,848,868,889,909,928,948,969,989,1009,1028,1049,1068,1089,1108,1128,1148,1168,1188,1208,1228,1248,1269,1288,1309,1329,1348,1368,1388,1408,1430,1449,1468],"xSR":741.5,"ySR":573.95,"xT1":424.9,"yT1":0,"xT2":1058.1,"yT2":0,"toosoon":0,"cond_shown":"Congruent","ratio_trial":300,"L_num":24,"L_den":30,"R_num":8,"R_den":16,"correct_side":1,"subjID":"diegosimonpinedaramirez3","gender":"0","school":"6","age":"11"},{"start_time":1551899910066,"click_time":1551899911635,"finger_time":1551899911315,"fix_duration":1347.520577446783,"trial":4,"RT":1249,"MT":320,"sideResp":2,"stimulus":[],"xmouse":[796,796,796,796,796,796,796,796,796,796,796,796,796,796,796,796,796,796,796,796,796,796,796,796,796,796,796,796,796,796,796,796,796,796,796,796,796,796,796,796,796,796,796,796,796,796,796,796,796,796,796,796,796,796,796,796,796,796,796,796,801,809,815,825,838,888,917,947,966,979,997,1002,1009,1024,1043,1054,1064,1072,1080],"ymouse":[634,634,634,634,634,634,634,634,634,634,634,634,634,634,634,634,634,634,634,634,634,634,634,634,634,634,634,634,634,634,634,634,634,634,634,634,634,634,634,634,634,634,634,634,634,634,634,634,634,634,634,634,634,634,634,634,634,634,634,633,610,577,552,524,487,398,354,310,276,248,210,201,192,178,157,140,124,108,96],"timestamp_mouse":[9,38,49,70,89,111,130,150,170,190,210,229,250,270,290,310,329,350,370,389,410,429,450,470,490,509,530,549,570,589,610,630,650,670,689,711,730,750,770,790,809,829,850,870,889,910,930,949,970,989,1009,1030,1049,1069,1090,1109,1129,1149,1169,1189,1210,1229,1249,1270,1289,1310,1329,1350,1369,1390,1410,1430,1449,1469,1490,1509,1530,1549,1569],"xSR":741.5,"ySR":573.95,"xT1":424.9,"yT1":0,"xT2":1058.1,"yT2":0,"toosoon":0,"cond_shown":"Incongruent","ratio_trial":200,"L_num":4,"L_den":6,"R_num":14,"R_den":30,"correct_side":1,"subjID":"diegosimonpinedaramirez3","gender":"0","school":"6","age":"11"},{"start_time":1551899913209,"click_time":1551899914755,"finger_time":1551899914475,"fix_duration":250,"trial":5,"RT":1266,"MT":280,"sideResp":1,"stimulus":[],"xmouse":[779,779,779,779,779,779,779,779,779,779,779,779,779,779,779,779,779,779,779,779,779,779,779,779,779,779,779,779,779,779,779,779,779,779,779,780,781,781,781,781,781,781,781,781,781,781,781,781,781,781,781,781,781,781,781,781,781,781,781,781,781,781,775,725,670,640,625,619,575,545,510,487,479,479,479,478,473,463],"ymouse":[603,603,603,603,603,603,603,603,603,603,603,603,603,603,603,603,603,603,603,603,603,603,603,603,603,603,603,603,603,603,603,603,603,603,603,603,601,601,601,601,601,601,601,601,601,601,601,601,601,601,601,601,601,601,601,601,601,601,601,601,600,597,588,544,480,405,302,174,0,0,0,0,0,0,0,0,0,1],"timestamp_mouse":[15,29,48,67,87,108,127,147,167,187,206,227,247,267,287,306,328,346,367,387,406,426,447,466,486,507,527,547,566,586,607,627,647,666,687,707,726,746,767,788,807,827,848,866,887,907,926,946,966,987,1008,1026,1046,1066,1087,1106,1126,1146,1166,1187,1207,1227,1247,1266,1287,1306,1326,1347,1367,1386,1406,1427,1446,1467,1487,1507,1527,1546],"xSR":741.5,"ySR":573.95,"xT1":424.9,"yT1":0,"xT2":1058.1,"yT2":0,"toosoon":0,"cond_shown":"Congruent","ratio_trial":200,"L_num":16,"L_den":20,"R_num":12,"R_den":20,"correct_side":1,"subjID":"diegosimonpinedaramirez3","gender":"0","school":"6","age":"11"},{"start_time":1551899917509,"click_time":1551899919076,"finger_time":1551899918875,"fix_duration":1391.6814929712843,"trial":6,"RT":1366,"MT":201,"sideResp":1,"stimulus":[],"xmouse":[830,830,830,830,830,830,830,830,830,830,830,830,830,830,830,830,830,830,830,830,830,830,830,830,830,830,830,830,830,830,830,830,830,830,830,830,830,830,830,830,830,830,830,830,830,830,830,830,830,830,830,830,830,830,830,830,830,830,830,830,830,830,830,830,828,818,806,781,747,729,717,710,705,689,670,653,630,590,503],"ymouse":[623,623,623,623,623,623,623,623,623,623,623,623,623,623,623,623,623,623,623,623,623,623,623,623,623,623,623,623,623,623,623,623,623,623,623,623,623,623,623,623,623,623,623,623,623,623,623,623,623,623,623,623,623,623,623,623,623,623,623,623,623,623,623,623,622,620,614,596,550,511,465,429,401,333,285,250,212,159,76],"timestamp_mouse":[10,35,46,66,86,107,127,146,167,187,207,227,247,267,287,307,327,347,368,387,407,426,447,466,486,507,527,546,567,586,607,627,646,668,686,706,726,747,767,787,806,827,847,866,887,907,926,947,968,987,1006,1026,1046,1066,1086,1106,1127,1146,1166,1187,1207,1226,1247,1267,1287,1307,1327,1346,1366,1386,1406,1427,1447,1466,1486,1506,1526,1547,1567],"xSR":741.5,"ySR":573.95,"xT1":424.9,"yT1":0,"xT2":1058.1,"yT2":0,"toosoon":0,"cond_shown":"Incongruent","ratio_trial":300,"L_num":4,"L_den":5,"R_num":6,"R_den":12,"correct_side":1,"subjID":"diegosimonpinedaramirez3","gender":"0","school":"6","age":"11"},{"start_time":1551899923913,"click_time":1551899925476,"finger_time":1551899925235,"fix_duration":1135.094204090426,"trial":7,"RT":1322,"MT":241,"sideResp":2,"stimulus":[],"xmouse":[804,804,804,804,804,804,804,804,804,804,804,804,804,804,804,804,804,804,804,804,804,804,804,804,804,804,804,804,804,804,804,804,804,804,804,804,804,804,804,804,804,803,803,803,804,804,804,804,804,805,805,805,805,805,805,806,806,806,807,807,808,808,808,809,813,818,823,833,838,848,853,861,869,881,929,957,988,1029,1079],"ymouse":[644,644,644,644,644,644,644,644,644,644,644,644,644,644,644,644,644,644,644,644,644,644,644,644,644,644,644,644,644,644,644,644,644,644,644,644,644,644,644,644,644,644,644,643,642,641,641,640,640,639,639,639,639,639,634,631,629,627,626,624,622,621,618,614,595,578,557,536,520,487,468,442,412,376,272,226,177,115,44],"timestamp_mouse":[9,22,42,63,83,103,122,142,163,183,203,222,243,263,283,303,324,343,363,383,403,423,443,463,483,503,524,542,562,582,602,622,643,662,682,704,723,742,763,783,802,823,843,863,883,902,923,943,962,982,1002,1022,1043,1063,1082,1102,1123,1142,1164,1183,1203,1222,1243,1262,1282,1303,1322,1343,1362,1382,1402,1424,1444,1463,1482,1503,1522,1542,1562],"xSR":741.5,"ySR":573.95,"xT1":424.9,"yT1":0,"xT2":1058.1,"yT2":0,"toosoon":0,"cond_shown":"Incongruent","ratio_trial":100,"L_num":13,"L_den":26,"R_num":6,"R_den":10,"correct_side":2,"subjID":"diegosimonpinedaramirez3","gender":"0","school":"6","age":"11"},{"start_time":1551899929491,"click_time":1551899930775,"finger_time":1551899930675,"fix_duration":1132.2800719644151,"trial":8,"RT":1184,"MT":100,"sideResp":2,"stimulus":[],"xmouse":[785,786,786,786,788,788,788,788,788,788,788,788,788,788,788,788,788,788,788,788,788,788,788,788,788,788,788,788,788,788,788,788,788,788,788,788,788,788,788,788,788,788,788,788,788,788,788,788,788,788,788,788,788,788,788,788,788,790,796,810,850,961,1028,1064,1097],"ymouse":[606,606,606,606,609,609,609,609,609,609,609,609,609,609,609,609,609,609,609,609,609,609,609,609,609,609,609,609,609,609,609,609,609,609,609,609,609,609,609,609,609,609,609,609,609,609,609,609,609,609,609,609,609,609,609,609,609,609,597,568,496,299,174,118,69],"timestamp_mouse":[10,25,53,65,84,104,124,144,166,184,204,225,246,265,285,304,325,345,365,385,405,424,445,465,485,504,525,544,566,584,604,624,644,666,685,705,724,745,765,784,805,824,844,864,885,905,924,945,966,985,1006,1025,1045,1065,1086,1105,1125,1145,1164,1184,1204,1224,1244,1264,1284],"xSR":741.5,"ySR":573.95,"xT1":424.9,"yT1":0,"xT2":1058.1,"yT2":0,"toosoon":0,"cond_shown":"Incongruent","ratio_trial":300,"L_num":13,"L_den":26,"R_num":12,"R_den":15,"correct_side":2,"subjID":"diegosimonpinedaramirez3","gender":"0","school":"6","age":"11"},{"start_time":1551899932897,"click_time":1551899934817,"finger_time":1551899934295,"fix_duration":959.2274122070326,"trial":9,"RT":1398,"MT":522,"sideResp":1,"stimulus":[],"xmouse":[781,781,781,781,783,784,788,789,791,791,791,791,791,791,791,791,791,791,791,791,791,791,791,791,791,791,791,791,793,793,793,793,793,793,793,793,793,793,793,793,793,793,793,793,793,793,793,793,793,793,793,793,793,793,793,793,793,793,793,793,793,793,793,793,793,793,793,791,774,750,690,626,613,606,599,592,585,585,588,611,628,661,668,671,671,666,651,639,620,594,587,584,581,575,559,540,499],"ymouse":[644,644,644,643,640,637,626,620,616,614,613,613,613,613,613,613,613,613,613,613,613,613,613,613,613,613,613,613,610,610,610,610,610,610,610,610,610,610,610,610,610,610,610,610,610,610,610,610,610,610,610,610,610,610,610,610,610,610,610,610,610,610,610,610,610,610,609,604,594,579,538,481,463,450,436,418,375,341,303,222,157,35,9,0,0,0,0,0,0,0,0,0,1,4,11,19,35],"timestamp_mouse":[1,18,40,59,78,98,118,138,159,179,198,218,240,259,279,298,318,338,360,379,400,418,438,459,478,498,520,538,559,579,599,620,638,659,679,699,718,738,759,779,798,818,838,859,879,899,918,938,960,979,998,1020,1039,1059,1079,1099,1119,1138,1158,1178,1198,1218,1238,1258,1278,1298,1319,1338,1358,1378,1398,1418,1439,1458,1478,1500,1519,1538,1559,1578,1598,1618,1638,1659,1679,1699,1718,1738,1759,1778,1798,1820,1840,1860,1878,1899,1919],"xSR":741.5,"ySR":573.95,"xT1":424.9,"yT1":0,"xT2":1058.1,"yT2":0,"toosoon":0,"cond_shown":"Congruent","ratio_trial":200,"L_num":8,"L_den":15,"R_num":2,"R_den":6,"correct_side":1,"subjID":"diegosimonpinedaramirez3","gender":"0","school":"6","age":"11"},{"start_time":1551899937112,"click_time":1551899938915,"finger_time":1551899938516,"fix_duration":1055.1371881250943,"trial":10,"RT":1404,"MT":399,"sideResp":1,"stimulus":[],"xmouse":[816,816,816,816,816,816,816,816,816,816,816,816,816,816,816,816,816,816,816,816,816,816,816,816,816,816,816,816,816,816,816,816,816,816,816,816,816,816,816,816,816,816,816,816,816,816,816,816,815,814,813,813,813,813,813,813,812,810,806,805,805,805,805,805,805,805,805,805,805,804,841,868,883,886,887,888,888,888,888,888,888,871,845,791,725,675,610,578,552,525,501],"ymouse":[601,601,601,601,601,601,601,601,601,601,601,601,601,601,601,601,601,601,601,601,601,601,601,601,601,601,601,601,601,601,601,601,601,601,601,601,601,601,601,601,601,601,601,601,601,601,601,601,601,601,601,601,601,601,601,601,601,601,601,601,601,601,601,601,601,601,601,601,601,600,561,538,523,510,505,504,504,504,504,503,501,490,476,453,415,377,291,219,169,130,99],"timestamp_mouse":[16,29,44,63,84,104,123,144,163,183,204,223,244,264,284,304,324,343,364,385,404,423,445,463,484,504,524,544,563,584,604,623,644,664,685,704,723,744,764,784,803,824,844,863,883,903,924,944,963,983,1005,1023,1044,1063,1083,1103,1124,1143,1163,1184,1204,1223,1243,1264,1283,1305,1323,1343,1364,1383,1404,1423,1444,1465,1484,1503,1523,1544,1563,1584,1604,1624,1644,1664,1683,1704,1723,1743,1763,1783,1803],"xSR":741.5,"ySR":573.95,"xT1":424.9,"yT1":0,"xT2":1058.1,"yT2":0,"toosoon":0,"cond_shown":"Congruent","ratio_trial":100,"L_num":10,"L_den":25,"R_num":3,"R_den":10,"correct_side":1,"subjID":"diegosimonpinedaramirez3","gender":"0","school":"6","age":"11"},{"start_time":1551899942166,"click_time":1551899943838,"finger_time":1551899943516,"fix_duration":250,"trial":11,"RT":1350,"MT":322,"sideResp":2,"stimulus":[],"xmouse":[784,792,795,795,795,795,795,795,795,795,795,793,790,787,786,786,786,786,786,786,786,786,786,786,786,786,786,786,786,786,786,786,786,786,786,786,786,786,786,786,786,786,786,786,786,786,786,786,786,786,786,786,786,786,786,786,786,786,786,786,786,786,786,786,786,786,795,848,926,1113,1181,1228,1256,1264,1264,1264,1264,1264,1264,1256,1230,1217,1173,1150],"ymouse":[612,605,603,602,602,602,602,602,602,602,602,604,606,608,609,609,609,609,609,609,609,609,609,609,609,609,609,609,609,609,609,609,609,609,609,609,609,609,609,609,609,609,609,609,609,609,609,609,609,609,609,609,609,609,609,609,609,609,609,609,609,609,609,609,609,606,595,531,447,239,151,74,15,0,0,0,0,0,0,0,0,0,0,3],"timestamp_mouse":[11,30,53,69,89,110,129,150,170,189,209,229,250,269,289,310,330,349,370,389,410,429,450,470,489,509,531,550,569,589,610,630,649,670,689,710,729,750,771,790,809,830,849,870,890,910,929,950,969,989,1010,1029,1050,1070,1089,1110,1129,1151,1169,1190,1209,1230,1249,1269,1289,1309,1330,1350,1369,1389,1409,1429,1450,1472,1489,1510,1529,1549,1570,1589,1610,1630,1649,1672],"xSR":741.5,"ySR":573.95,"xT1":424.9,"yT1":0,"xT2":1058.1,"yT2":0,"toosoon":0,"cond_shown":"Congruent","ratio_trial":200,"L_num":9,"L_den":30,"R_num":13,"R_den":26,"correct_side":2,"subjID":"diegosimonpinedaramirez3","gender":"0","school":"6","age":"11"},{"start_time":1551899946747,"click_time":1551899948954,"finger_time":1551899948154,"fix_duration":250,"trial":12,"RT":1407,"MT":800,"sideResp":1,"stimulus":[],"xmouse":[810,810,810,810,810,810,810,810,810,810,811,814,816,816,816,816,816,816,816,816,816,816,816,816,816,816,816,816,817,817,817,817,817,817,817,817,817,817,817,817,817,817,817,817,817,817,817,817,817,817,817,817,817,817,819,824,824,825,825,825,825,825,827,827,828,830,830,831,831,831,831,829,828,828,828,828,829,836,847,852,858,860,861,862,862,862,862,859,854,842,798,768,727,679,633,578,568,560,553,545,537,537,540,555,567,573,567,558,552,539,512],"ymouse":[628,628,628,628,628,628,628,628,628,628,626,622,620,620,620,620,620,620,620,620,620,620,620,620,620,620,620,620,619,618,618,618,618,618,618,618,618,618,618,618,618,618,618,618,618,618,618,618,618,618,618,618,618,616,615,610,609,608,608,608,607,607,606,605,603,600,597,593,589,579,572,568,565,563,561,555,549,538,524,514,500,497,495,493,491,487,484,478,470,455,410,389,369,348,328,287,270,256,246,240,230,224,212,187,162,116,101,86,76,58,15],"timestamp_mouse":[10,40,47,68,87,108,127,149,169,188,207,227,247,268,288,308,328,348,368,388,408,428,449,467,488,507,527,548,568,587,607,628,647,669,687,707,729,747,768,788,809,827,848,869,888,908,929,947,967,988,1008,1028,1047,1068,1087,1109,1127,1147,1168,1188,1209,1227,1247,1267,1289,1307,1329,1349,1369,1389,1407,1427,1447,1468,1488,1508,1528,1547,1568,1589,1609,1628,1648,1667,1687,1708,1729,1749,1769,1788,1807,1827,1847,1867,1888,1907,1928,1947,1967,1987,2007,2028,2048,2067,2087,2107,2128,2148,2167,2189,2207],"xSR":741.5,"ySR":573.95,"xT1":424.9,"yT1":0,"xT2":1058.1,"yT2":0,"toosoon":0,"cond_shown":"Congruent","ratio_trial":200,"L_num":15,"L_den":25,"R_num":4,"R_den":10,"correct_side":1,"subjID":"diegosimonpinedaramirez3","gender":"0","school":"6","age":"11"},{"start_time":1551899953088,"click_time":1551899954816,"finger_time":1551899954434,"fix_duration":1271.1430823257356,"trial":13,"RT":1346,"MT":382,"sideResp":2,"stimulus":[],"xmouse":[815,815,815,815,815,815,815,815,815,815,815,815,815,815,815,815,815,815,817,817,818,819,820,821,821,821,821,821,821,821,821,821,821,822,822,823,823,823,823,823,823,823,823,823,823,823,823,823,823,823,823,823,823,823,823,823,823,823,823,823,823,823,823,824,825,827,829,837,867,878,883,884,884,888,906,916,923,931,948,958,968,987,1004,1017,1044,1054,1063],"ymouse":[606,606,606,605,605,605,605,605,605,605,605,605,605,605,605,605,605,603,601,600,598,597,597,595,595,595,595,595,595,595,595,595,595,593,593,591,591,591,591,591,591,591,591,591,591,591,591,591,591,591,591,591,591,591,591,591,591,591,591,591,591,591,591,588,586,582,578,566,506,475,446,418,389,347,280,247,219,192,143,122,102,77,62,53,42,39,36],"timestamp_mouse":[9,42,46,67,86,107,128,146,167,187,208,227,247,266,286,306,326,348,367,387,407,426,447,467,486,506,528,547,568,586,608,627,647,666,688,706,727,746,768,787,808,827,847,866,886,908,927,948,967,987,1006,1026,1047,1067,1087,1108,1127,1147,1166,1188,1206,1226,1248,1267,1286,1307,1327,1346,1366,1386,1408,1428,1446,1467,1486,1506,1527,1547,1567,1588,1607,1627,1646,1667,1686,1708,1728],"xSR":741.5,"ySR":573.95,"xT1":424.9,"yT1":0,"xT2":1058.1,"yT2":0,"toosoon":0,"cond_shown":"Incongruent","ratio_trial":100,"L_num":11,"L_den":22,"R_num":9,"R_den":15,"correct_side":2,"subjID":"diegosimonpinedaramirez3","gender":"0","school":"6","age":"11"},{"start_time":1551899956413,"click_time":1551899958555,"finger_time":1551899957075,"fix_duration":336.31583370815457,"trial":14,"RT":662,"MT":1480,"sideResp":2,"stimulus":[],"xmouse":[814,814,815,818,824,827,829,829,829,830,830,830,830,830,830,830,829,829,829,829,829,828,828,827,827,827,826,825,815,809,802,793,783,764,757,756,755,755,755,755,755,755,755,755,755,755,755,755,755,758,759,765,769,781,785,785,785,785,785,787,787,788,788,791,799,807,814,824,830,832,834,836,839,875,900,919,927,934,947,957,976,996,1013,1032,1039,1050,1056,1069,1099,1107,1113,1113,1115,1117,1117,1117,1117,1116,1105,1103,1102,1101,1101,1100,1100,1100,1100,1100],"ymouse":[621,621,621,620,615,614,614,614,614,616,618,620,623,623,623,624,626,626,626,626,627,627,627,629,629,629,629,629,633,639,646,655,663,680,685,686,687,687,687,687,687,687,687,687,687,687,687,687,687,687,685,681,678,666,660,659,659,659,659,658,657,656,655,647,639,635,629,621,614,611,609,605,600,548,508,476,460,449,421,398,353,312,276,226,210,197,192,183,158,149,140,140,137,135,133,132,129,127,125,124,124,123,122,121,121,120,115,98],"timestamp_mouse":[1,22,42,63,82,102,122,143,162,182,202,222,243,262,281,301,323,341,362,383,403,423,441,462,483,501,522,542,563,581,602,622,642,662,682,701,721,741,762,781,802,822,843,861,882,902,922,942,962,983,1002,1023,1041,1062,1083,1103,1121,1142,1163,1182,1202,1221,1241,1261,1281,1301,1323,1342,1361,1382,1402,1422,1441,1461,1481,1501,1522,1541,1561,1582,1602,1623,1642,1662,1682,1702,1723,1742,1762,1782,1811,1822,1842,1862,1881,1902,1922,1942,1963,1982,2002,2022,2042,2062,2083,2103,2122,2142],"xSR":741.5,"ySR":573.95,"xT1":424.9,"yT1":0,"xT2":1058.1,"yT2":0,"toosoon":0,"cond_shown":"Incongruent","ratio_trial":100,"L_num":12,"L_den":24,"R_num":9,"R_den":15,"correct_side":2,"subjID":"diegosimonpinedaramirez3","gender":"0","school":"6","age":"11"},{"start_time":1551899959868,"click_time":1551899961955,"finger_time":1551899961156,"fix_duration":250,"trial":15,"RT":1288,"MT":799,"sideResp":1,"stimulus":[],"xmouse":[758,760,760,762,762,762,762,762,762,762,762,762,762,762,762,762,762,762,762,762,762,762,762,762,762,762,762,762,762,762,762,762,762,762,762,762,762,762,762,762,762,762,762,762,762,762,762,762,762,762,762,762,762,762,762,762,764,764,764,764,764,764,760,752,740,714,704,701,699,698,698,698,698,697,697,697,697,697,697,695,678,668,657,650,643,612,592,578,570,564,557,557,557,557,557,557,556,556,556,556,549,541,533,526,521],"ymouse":[655,654,654,654,654,654,654,654,654,654,654,654,654,654,654,654,654,654,654,654,654,654,654,654,654,654,654,654,654,654,654,654,654,654,654,654,654,654,654,654,654,654,654,654,654,654,654,654,654,654,654,654,654,654,654,654,651,649,648,648,648,645,639,629,616,585,571,566,561,559,555,553,553,552,552,552,552,552,549,543,493,458,413,369,319,206,145,99,70,52,39,39,39,39,39,38,38,38,38,38,37,37,37,37,38],"timestamp_mouse":[13,41,47,67,86,108,127,148,167,187,207,227,246,268,288,308,327,347,366,388,408,428,446,468,488,508,528,547,566,587,607,628,647,666,687,706,727,747,767,787,808,828,847,867,888,908,928,947,967,987,1008,1027,1047,1067,1086,1107,1127,1147,1168,1187,1208,1227,1247,1267,1288,1306,1326,1347,1367,1386,1406,1427,1447,1467,1488,1506,1526,1546,1568,1587,1606,1626,1647,1667,1687,1706,1726,1747,1767,1786,1806,1827,1847,1868,1887,1907,1927,1946,1966,1986,2006,2028,2046,2067,2087],"xSR":741.5,"ySR":573.95,"xT1":424.9,"yT1":0,"xT2":1058.1,"yT2":0,"toosoon":0,"cond_shown":"Incongruent","ratio_trial":300,"L_num":1,"L_den":2,"R_num":2,"R_den":10,"correct_side":1,"subjID":"diegosimonpinedaramirez3","gender":"0","school":"6","age":"11"},{"start_time":1551899963694,"click_time":1551899965255,"finger_time":1551899965054,"fix_duration":416.3106284871845,"trial":16,"RT":1360,"MT":201,"sideResp":1,"stimulus":[],"xmouse":[786,787,787,787,787,787,788,789,789,789,789,789,790,790,790,790,790,790,790,790,790,790,790,790,790,790,790,790,790,790,790,790,790,790,790,791,791,792,792,792,792,792,792,792,792,792,792,792,792,792,792,792,792,792,792,792,792,792,792,792,792,792,792,792,792,792,792,792,793,793,793,792,778,758,701,669,584,545,478],"ymouse":[618,617,617,616,615,615,614,614,614,613,613,613,612,612,612,612,612,612,612,612,612,612,612,612,612,612,612,612,612,612,612,612,612,611,604,601,598,597,597,596,596,596,596,596,596,596,596,596,596,596,596,596,596,596,596,596,596,596,596,596,596,595,595,595,595,593,590,578,561,504,460,410,366,323,236,192,105,74,18],"timestamp_mouse":[10,33,41,60,81,100,121,142,160,181,201,220,240,262,282,300,321,341,361,382,402,422,442,461,480,500,520,540,562,581,602,620,641,661,680,700,721,742,760,780,800,821,842,862,881,900,922,942,960,981,1000,1020,1041,1061,1081,1100,1121,1142,1162,1181,1201,1220,1242,1260,1281,1300,1322,1341,1360,1381,1400,1420,1441,1461,1480,1500,1522,1541,1561],"xSR":741.5,"ySR":573.95,"xT1":424.9,"yT1":0,"xT2":1058.1,"yT2":0,"toosoon":0,"cond_shown":"Congruent","ratio_trial":100,"L_num":9,"L_den":15,"R_num":8,"R_den":16,"correct_side":1,"subjID":"diegosimonpinedaramirez3","gender":"0","school":"6","age":"11"},{"start_time":1551899970379,"click_time":1551899972897,"finger_time":1551899971814,"fix_duration":1163.0223371548514,"trial":17,"RT":1435,"MT":1083,"sideResp":1,"stimulus":[],"xmouse":[799,799,799,799,799,799,799,799,799,799,799,799,799,799,799,799,799,799,799,799,799,799,799,799,796,789,788,787,786,786,786,786,786,786,786,786,786,786,786,787,792,793,794,795,796,797,797,797,797,797,797,797,797,797,797,797,797,797,797,797,797,797,797,797,797,797,797,797,797,792,772,761,749,735,719,705,682,676,669,667,648,632,620,613,608,604,602,600,598,595,578,571,567,565,562,557,555,552,545,541,537,535,534,533,533,531,531,530,529,528,528,527,527,527,527,527,526,526,526,525,525,525,525,525,525,524],"ymouse":[597,597,597,597,597,597,597,597,597,597,597,597,597,597,597,597,597,597,597,597,597,597,597,597,599,603,604,605,605,605,605,605,605,605,605,605,605,605,605,605,599,597,595,594,592,590,590,590,590,590,590,590,590,590,590,590,590,590,590,590,590,590,590,590,590,590,590,590,588,585,574,565,555,543,530,516,486,471,445,425,372,345,321,301,291,284,282,280,275,264,243,232,225,221,216,204,199,192,173,160,147,142,138,136,134,129,126,125,122,121,120,110,105,98,90,49,27,11,6,4,4,4,4,4,4,3],"timestamp_mouse":[16,35,55,75,97,115,135,156,176,195,216,237,257,276,297,317,335,355,377,397,416,435,456,475,495,515,537,556,575,596,617,636,655,675,697,716,735,756,777,796,816,836,856,876,895,916,936,955,976,996,1016,1036,1056,1077,1096,1117,1136,1155,1177,1197,1216,1235,1255,1277,1295,1315,1336,1355,1376,1395,1416,1435,1456,1477,1496,1516,1536,1556,1575,1595,1616,1635,1656,1676,1696,1716,1735,1756,1776,1796,1816,1836,1856,1875,1897,1916,1935,1955,1975,1996,2016,2036,2055,2076,2096,2116,2136,2156,2175,2195,2215,2237,2255,2275,2296,2317,2336,2357,2375,2396,2417,2437,2456,2476,2495,2517],"xSR":741.5,"ySR":573.95,"xT1":424.9,"yT1":0,"xT2":1058.1,"yT2":0,"toosoon":0,"cond_shown":"Incongruent","ratio_trial":200,"L_num":4,"L_den":30,"R_num":1,"R_den":3,"correct_side":2,"subjID":"diegosimonpinedaramirez3","gender":"0","school":"6","age":"11"},{"start_time":1551899974806,"click_time":1551899976195,"finger_time":1551899975755,"fix_duration":708.1951670511914,"trial":18,"RT":949,"MT":440,"sideResp":1,"stimulus":[],"xmouse":[782,782,782,782,782,782,782,782,782,782,782,782,782,782,782,784,791,799,803,806,807,808,808,809,810,810,810,810,810,810,810,810,810,810,810,810,810,810,810,810,810,810,810,812,814,827,837,853,882,906,927,927,918,901,888,877,873,860,841,818,767,730,683,630,579,520,519,519,519,522],"ymouse":[617,617,617,617,617,617,617,617,617,617,617,617,617,617,617,614,607,599,595,592,591,589,588,588,586,586,586,586,586,586,586,586,586,586,586,586,586,586,586,586,586,586,586,586,586,582,578,564,536,502,428,366,306,238,185,103,86,52,21,0,0,0,0,0,0,0,0,0,0,4],"timestamp_mouse":[12,38,50,68,89,109,130,148,170,189,209,229,250,270,289,309,329,350,369,388,409,429,450,470,489,509,529,550,570,589,608,628,649,669,690,709,729,748,770,789,809,828,849,868,890,909,930,949,969,989,1008,1028,1049,1070,1089,1108,1128,1148,1169,1190,1210,1229,1249,1270,1289,1309,1329,1350,1370,1389],"xSR":741.5,"ySR":573.95,"xT1":424.9,"yT1":0,"xT2":1058.1,"yT2":0,"toosoon":0,"cond_shown":"Congruent","ratio_trial":100,"L_num":10,"L_den":25,"R_num":3,"R_den":10,"correct_side":1,"subjID":"diegosimonpinedaramirez3","gender":"0","school":"6","age":"11"},{"start_time":1551899982813,"click_time":1551899984955,"finger_time":1551899984235,"fix_duration":297.9146226736131,"trial":19,"RT":1422,"MT":720,"sideResp":1,"stimulus":[],"xmouse":[793,793,793,793,793,793,793,793,793,793,793,793,793,793,793,793,793,793,793,793,793,793,793,793,793,793,793,793,793,793,793,794,794,794,794,794,794,794,794,794,794,794,794,794,794,794,794,794,794,794,794,794,794,794,794,794,794,794,794,794,795,795,795,795,795,795,795,795,795,795,795,795,753,641,478,285,0,0,0,0,0,13,28,51,81,108,146,156,159,160,164,216,241,264,282,295,312,323,333,344,353,377,382,386,389,393,411,425],"ymouse":[578,578,578,578,578,578,578,578,578,578,578,578,578,578,578,578,578,578,578,578,578,578,578,578,578,578,578,578,578,578,578,578,578,578,578,578,578,578,578,578,578,578,578,578,578,578,578,578,578,578,578,578,578,578,578,578,578,578,578,578,578,578,578,578,578,578,578,578,578,578,575,545,475,366,237,86,0,0,0,0,0,0,0,0,0,0,0,0,0,0,0,28,41,48,51,52,52,52,54,57,61,72,74,74,74,75,77,79],"timestamp_mouse":[10,22,41,62,83,103,122,142,162,182,203,223,241,262,281,303,323,342,361,382,401,422,443,462,482,501,521,542,563,582,601,621,643,663,682,702,721,742,761,783,802,821,841,863,881,902,922,943,963,982,1002,1021,1042,1063,1082,1102,1122,1142,1161,1182,1202,1222,1241,1262,1282,1303,1322,1341,1363,1383,1402,1422,1443,1461,1482,1502,1523,1542,1563,1582,1601,1623,1641,1662,1681,1702,1721,1741,1762,1782,1802,1822,1842,1863,1882,1902,1923,1942,1961,1982,2002,2021,2042,2061,2082,2102,2122,2142],"xSR":741.5,"ySR":573.95,"xT1":424.9,"yT1":0,"xT2":1058.1,"yT2":0,"toosoon":0,"cond_shown":"Congruent","ratio_trial":100,"L_num":11,"L_den":22,"R_num":4,"R_den":10,"correct_side":1,"subjID":"diegosimonpinedaramirez3","gender":"0","school":"6","age":"11"},{"start_time":1551899990073,"click_time":1551899991535,"finger_time":1551899990556,"fix_duration":596.3833751738242,"trial":20,"RT":483,"MT":979,"sideResp":1,"stimulus":[],"xmouse":[813,813,813,813,813,813,813,813,813,813,813,813,813,813,813,813,813,813,808,802,794,781,764,745,729,729,729,729,729,729,729,729,729,729,728,724,720,717,716,716,716,716,716,716,716,716,714,706,675,641,583,503,411,323,185,176,177,187,208,212,215,219,229,253,278,301,319,340,365,374,384,398,416,432],"ymouse":[600,600,600,600,600,600,600,600,600,600,600,600,600,600,600,600,600,600,601,602,603,604,607,610,612,612,612,612,612,612,612,612,612,612,612,613,614,614,614,614,614,614,614,614,614,614,612,596,524,441,342,228,108,0,0,0,0,0,0,0,0,0,0,6,21,32,43,54,66,71,74,78,81,84],"timestamp_mouse":[10,23,41,62,82,102,121,142,161,183,202,223,241,262,282,302,323,342,363,382,402,422,442,461,482,502,523,542,561,582,601,622,643,661,681,701,722,743,762,782,802,821,842,862,881,902,922,942,963,982,1002,1022,1042,1062,1082,1103,1123,1142,1165,1183,1201,1223,1242,1264,1283,1302,1321,1342,1365,1383,1401,1422,1443,1462],"xSR":741.5,"ySR":573.95,"xT1":424.9,"yT1":0,"xT2":1058.1,"yT2":0,"toosoon":0,"cond_shown":"Congruent","ratio_trial":300,"L_num":20,"L_den":25,"R_num":14,"R_den":28,"correct_side":1,"subjID":"diegosimonpinedaramirez3","gender":"0","school":"6","age":"11"},{"start_time":1551899997677,"click_time":1551899999474,"finger_time":1551899998835,"fix_duration":980.1429671898444,"trial":21,"RT":1158,"MT":639,"sideResp":2,"stimulus":[],"xmouse":[779,779,779,779,779,779,779,779,779,779,779,779,779,779,779,779,779,779,779,779,779,779,779,779,779,779,779,779,779,779,779,779,779,779,779,779,779,779,779,779,779,779,779,779,779,779,779,779,779,779,779,779,779,770,758,751,747,745,784,827,874,940,991,1120,1191,1258,1314,1359,1389,1406,1406,1404,1387,1352,1252,1217,1197,1185,1172,1153,1152,1152,1151,1149,1149,1149,1146,1141,1130,1127],"ymouse":[588,588,588,588,588,588,588,588,588,588,588,588,588,588,588,588,588,588,588,588,588,588,588,588,588,588,588,588,588,588,588,588,588,588,588,588,588,588,588,588,588,588,588,588,588,588,588,588,588,588,588,588,588,590,591,591,588,571,528,470,395,245,135,0,0,0,0,0,0,0,0,0,15,48,134,164,178,183,187,187,187,187,187,186,180,165,142,123,101,90],"timestamp_mouse":[18,44,59,78,97,119,139,157,178,199,218,237,259,277,299,317,339,359,377,399,418,437,457,477,497,519,538,559,579,599,617,639,658,678,697,717,738,759,778,797,819,837,858,879,898,917,938,959,977,997,1018,1039,1058,1078,1099,1118,1138,1158,1178,1198,1218,1237,1257,1279,1298,1318,1338,1359,1378,1397,1417,1437,1458,1477,1498,1518,1538,1558,1579,1598,1617,1637,1658,1678,1697,1717,1738,1759,1780,1797],"xSR":741.5,"ySR":573.95,"xT1":424.9,"yT1":0,"xT2":1058.1,"yT2":0,"toosoon":0,"cond_shown":"Incongruent","ratio_trial":100,"L_num":8,"L_den":20,"R_num":1,"R_den":2,"correct_side":2,"subjID":"diegosimonpinedaramirez3","gender":"0","school":"6","age":"11"},{"start_time":1551900001517,"click_time":1551900002994,"finger_time":1551900002756,"fix_duration":901.7717154348655,"trial":22,"RT":1239,"MT":238,"sideResp":1,"stimulus":[],"xmouse":[756,756,756,756,756,756,756,756,756,756,756,756,756,756,756,756,756,756,756,756,756,756,756,756,756,756,756,756,756,756,756,756,756,756,756,756,756,756,756,756,756,756,756,756,756,756,756,756,756,756,756,756,756,756,756,756,756,756,756,751,746,736,704,684,670,655,614,570,564,564,565,563,530,515],"ymouse":[614,614,614,614,614,614,614,614,614,614,614,614,614,614,614,614,614,614,614,614,614,614,614,614,614,614,614,614,614,614,614,614,614,614,614,614,614,614,614,614,614,614,614,614,614,614,614,614,614,614,614,614,614,614,614,614,614,614,614,608,602,587,525,477,430,363,263,139,114,87,69,62,55,53],"timestamp_mouse":[17,37,57,79,98,118,138,158,178,198,217,237,257,279,298,319,339,357,377,397,419,439,458,479,497,519,539,557,577,598,618,638,658,677,698,717,737,758,779,797,817,838,859,878,897,918,937,957,979,999,1018,1038,1057,1078,1098,1119,1138,1157,1178,1198,1217,1239,1257,1278,1297,1319,1337,1358,1378,1398,1418,1439,1458,1477],"xSR":741.5,"ySR":573.95,"xT1":424.9,"yT1":0,"xT2":1058.1,"yT2":0,"toosoon":0,"cond_shown":"Congruent","ratio_trial":300,"L_num":8,"L_den":16,"R_num":1,"R_den":5,"correct_side":1,"subjID":"diegosimonpinedaramirez3","gender":"0","school":"6","age":"11"},{"start_time":1551900006507,"click_time":1551900008154,"finger_time":1551900007875,"fix_duration":370.83481891531545,"trial":23,"RT":1368,"MT":279,"sideResp":1,"stimulus":[],"xmouse":[822,822,822,822,822,822,822,822,822,822,822,822,822,822,822,822,822,821,820,820,819,819,818,818,817,816,816,815,810,791,786,785,783,780,779,779,779,779,779,778,778,778,778,778,778,778,778,778,778,778,778,778,778,778,778,778,778,778,778,778,778,778,778,778,778,778,774,765,719,695,679,668,657,650,635,627,623,622,605,588,564,536,513],"ymouse":[604,604,604,604,604,604,604,604,604,604,604,604,604,604,604,604,602,601,599,597,595,593,592,589,584,582,581,581,580,580,580,580,580,582,583,583,583,583,583,583,583,583,583,583,583,583,583,583,583,583,583,583,583,583,583,583,583,583,583,583,583,583,583,583,583,583,583,583,573,521,441,352,284,240,197,183,172,162,119,96,72,59,53],"timestamp_mouse":[10,34,48,67,88,108,127,148,169,189,208,228,247,267,288,307,328,347,367,388,407,427,447,467,487,509,527,547,568,588,607,628,647,667,688,708,727,749,767,788,807,827,848,868,887,907,927,948,967,989,1007,1027,1047,1068,1087,1108,1127,1148,1167,1188,1207,1228,1248,1268,1287,1308,1327,1348,1368,1387,1407,1428,1447,1467,1487,1508,1527,1548,1568,1587,1608,1627,1647],"xSR":741.5,"ySR":573.95,"xT1":424.9,"yT1":0,"xT2":1058.1,"yT2":0,"toosoon":0,"cond_shown":"Congruent","ratio_trial":300,"L_num":24,"L_den":30,"R_num":2,"R_den":4,"correct_side":1,"subjID":"diegosimonpinedaramirez3","gender":"0","school":"6","age":"11"},{"start_time":1551900010607,"click_time":1551900011755,"finger_time":1551900011235,"fix_duration":1170.4549940901015,"trial":24,"RT":628,"MT":520,"sideResp":2,"stimulus":[],"xmouse":[815,815,815,815,815,815,815,815,815,815,815,815,815,815,815,815,815,815,815,815,815,815,815,815,815,815,815,814,807,783,770,770,779,799,848,882,914,942,974,1051,1061,1062,1062,1062,1062,1062,1062,1062,1062,1061,1061,1061,1061,1064,1081,1098,1117,1135],"ymouse":[637,637,637,637,637,637,637,637,637,637,637,637,637,637,637,637,637,637,637,637,637,637,637,637,637,637,637,636,634,618,590,569,536,490,400,353,309,276,250,219,216,215,215,215,215,212,210,204,200,188,183,177,173,168,146,126,100,74],"timestamp_mouse":[15,27,47,67,87,107,127,147,168,187,208,227,248,268,288,308,327,347,367,387,408,427,447,468,488,508,527,549,567,588,607,628,648,667,687,707,728,747,767,787,807,827,847,867,888,908,928,949,967,988,1008,1027,1048,1067,1088,1108,1128,1148],"xSR":741.5,"ySR":573.95,"xT1":424.9,"yT1":0,"xT2":1058.1,"yT2":0,"toosoon":0,"cond_shown":"Congruent","ratio_trial":200,"L_num":1,"L_den":2,"R_num":21,"R_den":30,"correct_side":2,"subjID":"diegosimonpinedaramirez3","gender":"0","school":"6","age":"11"},{"start_time":1551900015267,"click_time":1551900016776,"finger_time":1551900016435,"fix_duration":991.6141464390865,"trial":25,"RT":1168,"MT":341,"sideResp":1,"stimulus":[],"xmouse":[799,799,799,799,799,799,799,799,799,799,799,799,799,799,799,799,799,799,799,799,799,799,799,799,799,799,799,799,799,799,799,799,799,799,799,799,799,799,799,799,799,799,799,798,798,798,799,799,799,799,799,799,799,799,799,799,788,743,651,542,436,272,243,228,225,230,266,299,329,358,373,391,396,400,413,430],"ymouse":[616,616,616,616,616,616,616,616,616,616,616,616,616,616,616,616,616,616,616,616,616,616,616,616,616,616,616,616,616,616,616,616,616,616,616,616,616,616,616,616,616,616,616,616,615,613,608,608,608,608,608,607,606,606,604,603,595,584,561,537,507,435,411,394,377,348,278,217,174,132,111,87,82,80,75,67],"timestamp_mouse":[10,43,48,67,88,108,128,148,168,187,207,228,249,267,288,307,327,348,368,388,408,429,449,467,487,508,527,547,568,588,608,628,648,667,687,707,728,747,768,787,808,828,847,867,888,908,927,947,967,988,1007,1027,1047,1067,1088,1108,1127,1147,1168,1188,1208,1227,1247,1267,1288,1308,1327,1348,1367,1388,1407,1427,1447,1468,1488,1508],"xSR":741.5,"ySR":573.95,"xT1":424.9,"yT1":0,"xT2":1058.1,"yT2":0,"toosoon":0,"cond_shown":"Incongruent","ratio_trial":200,"L_num":6,"L_den":20,"R_num":3,"R_den":6,"correct_side":2,"subjID":"diegosimonpinedaramirez3","gender":"0","school":"6","age":"11"},{"start_time":1551900020247,"click_time":1551900021796,"finger_time":1551900021314,"fix_duration":250,"trial":26,"RT":1067,"MT":482,"sideResp":2,"stimulus":[],"xmouse":[793,793,793,793,793,793,793,793,793,793,793,793,793,793,793,793,793,793,793,793,793,793,793,793,793,793,793,793,793,793,793,793,793,793,793,793,793,793,793,793,793,793,793,793,793,793,794,794,794,798,801,807,821,832,841,853,863,873,889,898,903,906,909,929,945,956,967,979,1001,1008,1012,1015,1018,1030,1039,1048,1056,1066],"ymouse":[624,624,624,624,624,624,624,624,624,624,624,624,624,624,624,624,624,624,624,624,624,624,624,624,624,624,624,624,624,624,624,624,624,624,624,624,624,624,624,624,624,624,624,624,624,624,624,624,624,623,621,617,600,571,541,500,462,407,312,287,272,266,260,225,203,187,168,150,120,111,105,102,98,93,91,88,84,78],"timestamp_mouse":[13,35,47,69,87,108,128,149,168,189,208,227,248,268,287,308,328,348,368,387,407,428,448,467,487,508,527,548,568,587,608,628,648,669,687,708,728,748,767,787,808,827,847,868,887,907,928,948,968,987,1008,1028,1049,1067,1088,1107,1127,1147,1167,1187,1207,1227,1248,1267,1289,1309,1327,1347,1368,1387,1407,1427,1449,1467,1487,1507,1527,1548],"xSR":741.5,"ySR":573.95,"xT1":424.9,"yT1":0,"xT2":1058.1,"yT2":0,"toosoon":0,"cond_shown":"Incongruent","ratio_trial":300,"L_num":13,"L_den":26,"R_num":12,"R_den":15,"correct_side":2,"subjID":"diegosimonpinedaramirez3","gender":"0","school":"6","age":"11"},{"start_time":1551900023674,"click_time":1551900024974,"finger_time":1551900024414,"fix_duration":976.2751696730998,"trial":27,"RT":740,"MT":560,"sideResp":1,"stimulus":[],"xmouse":[802,802,802,802,802,802,802,802,802,802,802,802,802,802,802,802,802,802,802,802,802,802,802,802,802,802,802,802,802,802,802,802,802,802,802,800,798,780,763,745,719,679,616,578,558,547,542,538,538,538,538,538,539,542,544,544,544,541,538,537,537,536,532,530,527,521],"ymouse":[613,613,613,613,613,613,613,613,613,613,613,613,613,613,613,613,613,613,613,613,613,613,613,613,613,613,613,613,613,613,613,613,613,613,613,611,602,551,523,495,459,412,333,276,230,200,180,146,136,133,132,132,131,123,116,109,103,95,93,93,93,93,92,90,87,84],"timestamp_mouse":[14,31,48,60,80,100,120,141,160,180,200,220,241,260,280,300,320,341,360,380,400,420,441,460,480,500,521,541,561,580,600,621,640,661,680,701,721,740,761,781,800,821,840,860,880,900,921,941,960,981,1000,1020,1040,1060,1080,1101,1120,1140,1160,1180,1200,1221,1240,1261,1281,1300],"xSR":741.5,"ySR":573.95,"xT1":424.9,"yT1":0,"xT2":1058.1,"yT2":0,"toosoon":0,"cond_shown":"Congruent","ratio_trial":300,"L_num":20,"L_den":25,"R_num":8,"R_den":16,"correct_side":1,"subjID":"diegosimonpinedaramirez3","gender":"0","school":"6","age":"11"},{"start_time":1551900025863,"click_time":1551900027134,"finger_time":1551900026674,"fix_duration":266.1499716170094,"trial":28,"RT":811,"MT":460,"sideResp":2,"stimulus":[],"xmouse":[769,769,769,769,769,769,769,769,770,770,771,772,774,774,774,774,774,774,774,774,774,774,774,774,774,774,774,774,774,774,774,774,774,774,775,777,779,782,783,787,804,823,865,978,1030,1084,1139,1225,1241,1252,1262,1268,1275,1294,1297,1298,1298,1297,1288,1282,1265,1236,1194,1143],"ymouse":[634,634,634,634,634,634,634,634,632,632,630,629,626,626,626,626,626,626,626,626,626,626,626,626,626,626,626,625,617,611,610,608,607,607,604,600,596,591,588,582,561,540,507,437,385,328,263,166,139,121,99,88,75,41,22,0,0,0,0,0,0,16,40,68],"timestamp_mouse":[11,31,52,72,92,111,131,151,172,191,212,232,251,271,292,312,333,351,371,391,411,432,451,471,492,511,532,552,572,591,611,631,652,672,692,711,732,751,771,791,811,832,852,872,892,912,932,951,971,991,1011,1031,1051,1072,1091,1112,1132,1151,1171,1192,1211,1232,1251,1271],"xSR":741.5,"ySR":573.95,"xT1":424.9,"yT1":0,"xT2":1058.1,"yT2":0,"toosoon":0,"cond_shown":"Incongruent","ratio_trial":300,"L_num":13,"L_den":26,"R_num":12,"R_den":15,"correct_side":2,"subjID":"diegosimonpinedaramirez3","gender":"0","school":"6","age":"11"},{"start_time":1551900029372,"click_time":1551900031215,"finger_time":1551900030774,"fix_duration":1237.032535200853,"trial":29,"RT":1402,"MT":441,"sideResp":2,"stimulus":[],"xmouse":[771,771,771,771,771,771,771,771,771,771,771,771,771,771,771,771,771,771,771,771,771,771,771,771,771,771,771,771,771,770,770,770,770,770,770,770,770,770,770,770,770,770,770,770,770,770,770,770,770,770,770,770,770,770,770,770,770,770,770,770,770,770,770,770,770,766,763,758,755,753,753,753,753,753,753,753,753,753,753,753,753,753,753,753,753,753,753,753,777,830,909,1005,1128],"ymouse":[643,643,643,643,643,643,643,643,643,643,643,643,643,643,643,643,643,643,643,643,643,643,643,643,643,643,643,643,643,643,643,643,643,643,643,643,643,643,643,643,643,643,643,643,643,643,643,643,643,643,643,643,643,643,643,643,643,643,643,643,643,643,643,643,643,640,629,614,589,579,573,570,570,570,570,570,570,570,570,570,570,570,570,570,570,570,570,569,531,454,348,235,89],"timestamp_mouse":[10,23,47,63,82,103,122,143,163,182,202,222,242,262,282,302,322,343,362,382,402,422,442,462,483,503,522,542,562,582,604,622,642,662,682,703,724,743,763,782,804,823,842,862,883,902,923,943,962,982,1002,1022,1043,1062,1083,1103,1122,1143,1163,1183,1202,1223,1243,1263,1282,1302,1323,1343,1363,1383,1402,1422,1444,1464,1483,1502,1523,1542,1562,1582,1603,1623,1642,1663,1683,1702,1722,1743,1762,1782,1803,1823,1842],"xSR":741.5,"ySR":573.95,"xT1":424.9,"yT1":0,"xT2":1058.1,"yT2":0,"toosoon":0,"cond_shown":"Congruent","ratio_trial":200,"L_num":8,"L_den":15,"R_num":3,"R_den":9,"correct_side":1,"subjID":"diegosimonpinedaramirez3","gender":"0","school":"6","age":"11"},{"start_time":1551900033701,"click_time":1551900035214,"finger_time":1551900034435,"fix_duration":1245.3831138374505,"trial":30,"RT":734,"MT":779,"sideResp":2,"stimulus":[],"xmouse":[802,802,802,802,802,802,802,802,802,802,802,802,802,802,802,802,802,802,802,802,802,802,802,802,802,802,802,802,802,802,802,805,813,823,829,835,847,852,859,865,869,874,876,878,880,882,887,898,902,904,909,910,907,899,887,871,857,849,849,851,863,882,918,938,944,950,965,977,991,1000,1008,1016,1036,1046,1057,1062],"ymouse":[612,612,612,612,612,612,612,612,612,612,612,612,612,612,612,612,612,612,612,612,612,612,612,612,612,612,612,612,612,612,612,609,598,589,583,578,571,567,561,556,552,544,538,534,530,524,516,496,489,480,463,450,436,425,412,399,391,387,386,383,376,364,333,312,302,291,257,222,170,138,113,89,41,27,13,5],"timestamp_mouse":[14,39,53,75,93,114,133,154,173,193,213,234,255,274,294,314,335,353,373,394,414,434,455,473,494,514,533,553,574,594,614,633,654,673,694,713,734,753,773,794,814,834,853,873,894,914,933,953,974,994,1013,1035,1053,1073,1093,1113,1133,1154,1173,1194,1213,1233,1253,1274,1294,1314,1334,1353,1373,1394,1413,1433,1454,1473,1494,1513],"xSR":741.5,"ySR":573.95,"xT1":424.9,"yT1":0,"xT2":1058.1,"yT2":0,"toosoon":0,"cond_shown":"Incongruent","ratio_trial":300,"L_num":4,"L_den":20,"R_num":2,"R_den":4,"correct_side":2,"subjID":"diegosimonpinedaramirez3","gender":"0","school":"6","age":"11"},{"start_time":1551900036394,"click_time":1551900037654,"finger_time":1551900037354,"fix_duration":337.71143729123355,"trial":31,"RT":960,"MT":300,"sideResp":1,"stimulus":[],"xmouse":[770,770,770,770,770,770,770,770,770,770,770,770,770,770,770,770,770,770,770,770,770,770,770,770,770,770,771,772,773,773,773,773,773,773,773,773,773,773,773,773,773,773,773,773,773,773,769,750,721,703,687,664,644,617,612,608,601,591,543,533,529,525,522,522],"ymouse":[655,655,655,655,655,655,655,655,655,655,655,655,655,655,655,655,655,655,655,655,655,655,655,655,655,655,654,652,649,649,649,649,649,649,649,649,649,649,649,649,649,649,649,649,649,643,634,607,552,521,494,467,445,416,406,393,379,355,226,188,155,130,107,82],"timestamp_mouse":[12,24,47,61,80,101,120,140,161,181,201,220,241,260,281,300,321,341,360,380,400,421,440,461,481,501,520,540,560,580,601,620,641,660,680,700,721,741,761,780,801,822,841,861,880,901,920,940,960,981,1000,1020,1041,1060,1080,1100,1120,1140,1160,1181,1202,1220,1241,1260],"xSR":741.5,"ySR":573.95,"xT1":424.9,"yT1":0,"xT2":1058.1,"yT2":0,"toosoon":0,"cond_shown":"Congruent","ratio_trial":300,"L_num":18,"L_den":20,"R_num":9,"R_den":15,"correct_side":1,"subjID":"diegosimonpinedaramirez3","gender":"0","school":"6","age":"11"},{"start_time":1551900039486,"click_time":1551900042275,"finger_time":1551900040734,"fix_duration":729.478520343991,"trial":32,"RT":1248,"MT":1541,"sideResp":2,"stimulus":[],"xmouse":[786,786,786,786,786,786,786,786,786,786,786,786,786,786,786,786,786,786,786,786,786,786,786,786,786,786,786,786,786,786,786,786,786,786,786,786,786,786,786,786,786,786,786,786,786,786,786,786,786,786,786,786,786,786,786,786,786,786,786,783,772,756,734,597,503,427,378,358,353,353,353,356,357,359,361,363,367,376,386,389,395,400,405,408,415,419,422,425,425,427,439,482,539,697,780,840,878,893,907,932,948,959,961,964,968,971,974,977,984,988,992,993,995,999,1003,1010,1015,1023,1028,1031,1032,1032,1034,1034,1034,1034,1035,1035,1036,1037,1038,1038,1038,1038,1040,1042,1044,1045,1054,1080],"ymouse":[591,591,591,589,587,587,587,587,587,587,587,587,587,587,587,587,587,587,587,587,587,587,587,587,587,587,587,587,587,587,587,587,587,587,587,587,587,587,587,587,587,587,587,587,587,587,587,587,587,587,587,587,587,587,587,587,587,587,586,584,583,579,571,528,503,480,460,447,443,442,439,425,419,395,387,380,373,362,338,320,289,263,235,209,181,171,166,163,162,162,162,166,174,195,202,202,183,150,104,77,70,64,62,61,58,58,57,57,55,55,55,55,55,54,52,50,47,44,42,42,42,42,42,42,42,43,44,44,48,49,49,50,50,50,53,55,55,55,60,73],"timestamp_mouse":[10,39,48,68,88,108,128,149,168,188,209,229,249,268,288,309,328,348,369,389,410,429,448,469,489,509,529,548,568,589,609,629,649,669,690,709,728,748,769,789,809,828,849,869,889,909,929,948,968,988,1008,1030,1048,1069,1089,1108,1128,1148,1168,1188,1209,1229,1248,1268,1288,1308,1329,1349,1369,1388,1408,1429,1449,1468,1488,1509,1530,1549,1569,1588,1608,1628,1648,1669,1689,1709,1729,1750,1768,1789,1808,1828,1849,1869,1888,1908,1928,1950,1968,1988,2009,2029,2048,2069,2089,2108,2129,2148,2169,2188,2209,2229,2249,2269,2288,2308,2329,2348,2369,2388,2409,2428,2449,2469,2489,2508,2529,2548,2569,2588,2609,2628,2648,2668,2688,2708,2729,2748,2769,2789],"xSR":741.5,"ySR":573.95,"xT1":424.9,"yT1":0,"xT2":1058.1,"yT2":0,"toosoon":0,"cond_shown":"Incongruent","ratio_trial":200,"L_num":7,"L_den":15,"R_num":4,"R_den":6,"correct_side":2,"subjID":"diegosimonpinedaramirez3","gender":"0","school":"6","age":"11"},{"start_time":1551900044150,"click_time":1551900045456,"finger_time":1551900044875,"fix_duration":713.7337150545428,"trial":33,"RT":725,"MT":581,"sideResp":2,"stimulus":[],"xmouse":[821,821,821,821,821,821,821,821,821,821,821,821,821,821,821,821,821,821,821,821,821,821,821,821,821,821,821,821,821,821,821,821,821,821,825,839,858,875,876,878,885,888,891,894,905,919,943,954,960,967,973,988,997,1004,1008,1011,1022,1023,1025,1027,1034,1038,1042,1045,1049,1061],"ymouse":[598,598,598,598,598,598,598,598,598,598,598,598,598,598,598,598,598,598,598,598,598,598,598,598,598,598,598,598,598,598,598,598,598,598,598,594,583,571,570,568,558,547,530,506,478,443,378,341,320,305,292,267,253,243,235,227,199,192,187,179,160,145,128,113,99,75],"timestamp_mouse":[12,28,44,65,85,104,125,144,164,185,205,224,244,264,285,305,325,344,365,385,404,424,445,465,484,505,524,545,564,584,605,624,645,665,685,706,725,744,764,784,805,825,845,865,884,904,925,944,964,985,1005,1024,1044,1064,1084,1104,1125,1144,1164,1185,1205,1224,1245,1264,1285,1305],"xSR":741.5,"ySR":573.95,"xT1":424.9,"yT1":0,"xT2":1058.1,"yT2":0,"toosoon":0,"cond_shown":"Incongruent","ratio_trial":200,"L_num":3,"L_den":4,"R_num":11,"R_den":20,"correct_side":1,"subjID":"diegosimonpinedaramirez3","gender":"0","school":"6","age":"11"},{"start_time":1551900047276,"click_time":1551900048975,"finger_time":1551900048715,"fix_duration":739.6253018224294,"trial":34,"RT":1439,"MT":260,"sideResp":1,"stimulus":[],"xmouse":[829,829,829,829,829,829,829,829,829,829,829,829,829,829,829,829,829,829,829,829,829,829,829,829,829,829,829,829,829,829,829,829,829,829,829,829,829,829,829,829,829,829,829,829,829,829,829,829,829,829,829,829,829,829,829,829,829,829,829,829,829,829,829,829,829,829,829,828,823,795,770,748,724,692,596,547,504,464,433,423,422,421,421,422,426],"ymouse":[639,639,639,639,639,639,639,639,639,639,639,639,639,639,639,639,639,639,639,639,639,639,639,639,639,639,639,639,639,639,639,639,639,639,639,639,639,639,639,639,639,639,639,639,639,639,639,639,639,639,639,639,639,639,639,639,639,639,639,639,639,639,639,639,639,639,639,639,637,605,580,559,533,493,348,293,257,223,194,167,148,125,109,99,88],"timestamp_mouse":[18,46,59,78,98,119,138,159,178,198,219,238,260,278,298,319,338,359,379,398,419,439,458,478,499,519,538,559,579,598,618,639,658,679,698,719,739,759,780,799,818,839,859,879,899,919,939,959,980,999,1018,1038,1059,1078,1099,1118,1139,1159,1179,1199,1219,1238,1258,1279,1298,1319,1338,1358,1378,1398,1418,1439,1458,1479,1499,1518,1538,1559,1578,1598,1619,1639,1659,1678,1699],"xSR":741.5,"ySR":573.95,"xT1":424.9,"yT1":0,"xT2":1058.1,"yT2":0,"toosoon":0,"cond_shown":"Incongruent","ratio_trial":100,"L_num":8,"L_den":16,"R_num":6,"R_den":10,"correct_side":2,"subjID":"diegosimonpinedaramirez3","gender":"0","school":"6","age":"11"},{"start_time":1551900050307,"click_time":1551900051614,"finger_time":1551900051175,"fix_duration":250,"trial":35,"RT":868,"MT":439,"sideResp":2,"stimulus":[],"xmouse":[788,787,787,787,787,787,787,787,787,787,787,787,787,787,787,787,787,787,787,787,787,787,787,787,787,787,787,787,787,787,787,787,787,787,787,787,787,787,787,787,787,786,798,836,867,896,904,905,909,913,923,937,949,959,974,990,1011,1036,1052,1064,1068,1073,1080,1087,1098,1102],"ymouse":[622,622,622,622,622,622,622,622,622,622,622,622,622,622,622,622,622,622,622,622,622,622,622,622,622,622,622,622,622,622,622,622,622,622,622,622,622,622,622,622,622,622,609,568,526,484,470,467,460,448,431,406,385,364,327,300,276,251,235,211,197,181,161,143,100,85],"timestamp_mouse":[14,28,48,67,88,108,127,148,168,188,207,228,248,267,287,307,328,347,367,388,408,427,448,467,487,508,527,548,568,588,607,628,648,668,688,707,728,749,769,787,808,827,848,868,887,907,927,947,968,987,1008,1027,1048,1068,1088,1108,1128,1147,1167,1187,1207,1228,1247,1267,1288,1307],"xSR":741.5,"ySR":573.95,"xT1":424.9,"yT1":0,"xT2":1058.1,"yT2":0,"toosoon":0,"cond_shown":"Incongruent","ratio_trial":100,"L_num":8,"L_den":16,"R_num":6,"R_den":10,"correct_side":2,"subjID":"diegosimonpinedaramirez3","gender":"0","school":"6","age":"11"},{"start_time":1551900053762,"click_time":1551900054895,"finger_time":1551900054595,"fix_duration":867.2057037731222,"trial":36,"RT":833,"MT":300,"sideResp":2,"stimulus":[],"xmouse":[766,766,766,766,766,766,766,766,766,766,766,766,766,766,766,766,766,766,766,766,766,766,766,766,766,766,766,766,766,766,766,766,766,766,766,766,766,766,770,774,783,820,842,872,925,983,1094,1115,1120,1122,1122,1122,1122,1122,1120,1118,1113],"ymouse":[605,605,605,605,605,604,604,604,604,604,604,604,604,604,604,604,604,604,604,604,604,604,604,604,604,604,604,604,604,604,604,604,604,604,604,604,604,604,600,595,585,559,546,519,464,380,232,201,186,179,177,158,142,126,112,103,94],"timestamp_mouse":[12,36,53,73,93,113,133,153,172,192,213,232,253,272,293,312,333,352,373,392,413,432,452,472,493,513,532,552,572,593,612,632,653,674,694,713,733,753,773,793,813,833,854,872,892,913,932,953,973,994,1013,1032,1052,1073,1092,1113,1133],"xSR":741.5,"ySR":573.95,"xT1":424.9,"yT1":0,"xT2":1058.1,"yT2":0,"toosoon":0,"cond_shown":"Incongruent","ratio_trial":300,"L_num":13,"L_den":26,"R_num":12,"R_den":15,"correct_side":2,"subjID":"diegosimonpinedaramirez3","gender":"0","school":"6","age":"11"},{"start_time":1551900063161,"click_time":1551900064014,"finger_time":1551900063794,"fix_duration":765.1906674055987,"trial":37,"RT":633,"MT":220,"sideResp":2,"stimulus":[],"xmouse":[819,819,819,819,819,819,819,819,819,819,819,819,819,819,819,819,819,819,819,819,819,819,819,819,819,819,819,819,818,824,840,870,971,1023,1061,1083,1092,1099,1099,1099,1099,1099,1105],"ymouse":[651,651,651,651,651,651,651,651,651,651,651,651,651,651,651,651,651,651,651,651,651,651,651,651,651,651,651,651,650,639,623,599,507,454,407,374,351,261,220,189,133,133,91],"timestamp_mouse":[15,39,53,74,94,114,134,153,173,193,214,234,253,273,293,314,335,354,373,393,414,434,454,474,493,514,533,554,573,594,613,633,653,674,694,713,733,753,773,793,822,833,853],"xSR":741.5,"ySR":573.95,"xT1":424.9,"yT1":0,"xT2":1058.1,"yT2":0,"toosoon":0,"cond_shown":"Congruent","ratio_trial":100,"L_num":6,"L_den":12,"R_num":15,"R_den":25,"correct_side":2,"subjID":"diegosimonpinedaramirez3","gender":"0","school":"6","age":"11"},{"start_time":1551900065657,"click_time":1551900067255,"finger_time":1551900066914,"fix_duration":740.383484675512,"trial":38,"RT":1257,"MT":341,"sideResp":1,"stimulus":[],"xmouse":[798,798,798,798,798,798,798,798,798,798,798,798,798,798,798,798,798,798,798,798,798,798,798,798,798,798,798,798,798,798,798,798,798,798,798,798,798,798,799,799,799,799,799,799,799,799,799,799,799,799,799,799,799,799,799,800,800,801,801,801,801,801,801,799,796,791,784,764,682,626,573,520,493,476,474,474,474,471,453,440],"ymouse":[621,621,621,621,621,621,621,621,621,621,621,621,621,621,621,621,621,621,621,621,621,621,621,621,621,621,621,621,621,621,621,621,621,621,621,620,618,614,612,611,611,611,611,611,611,611,610,610,610,610,610,610,610,607,606,604,603,598,595,591,583,578,573,559,549,534,506,457,251,120,9,0,0,0,0,0,0,0,0,5],"timestamp_mouse":[17,38,58,79,97,117,137,158,177,198,217,237,258,278,297,318,338,357,378,398,418,437,457,477,498,518,537,557,577,597,618,639,657,678,698,717,737,758,777,798,818,837,858,878,898,918,937,958,977,998,1018,1038,1057,1077,1097,1117,1137,1157,1178,1197,1218,1237,1257,1277,1297,1318,1336,1357,1377,1398,1417,1437,1457,1477,1497,1518,1538,1557,1578,1597],"xSR":741.5,"ySR":573.95,"xT1":424.9,"yT1":0,"xT2":1058.1,"yT2":0,"toosoon":0,"cond_shown":"Incongruent","ratio_trial":200,"L_num":4,"L_den":5,"R_num":6,"R_den":10,"correct_side":1,"subjID":"diegosimonpinedaramirez3","gender":"0","school":"6","age":"11"},{"start_time":1551900070085,"click_time":1551900072174,"finger_time":1551900070515,"fix_duration":250,"trial":39,"RT":430,"MT":1659,"sideResp":1,"stimulus":[],"xmouse":[792,792,792,792,792,792,792,792,792,792,792,792,792,792,792,792,792,792,792,792,791,706,633,633,633,633,633,633,633,633,633,633,633,633,633,633,633,633,633,633,633,633,633,633,633,633,633,633,633,633,633,633,633,633,633,633,633,633,633,633,633,633,633,633,633,633,633,633,633,633,566,586,637,660,678,689,696,710,716,724,729,734,744,747,751,755,757,762,764,766,770,776,786,788,789,789,789,743,692,631,573,520,480,480,487],"ymouse":[655,655,655,655,655,655,655,655,655,655,655,655,655,655,655,655,655,655,655,655,672,787,854,854,854,854,854,854,854,854,854,854,854,854,854,854,854,854,854,854,854,854,854,854,854,854,854,854,854,854,854,854,854,854,854,854,854,854,854,854,854,854,854,854,854,854,854,854,854,854,878,866,829,811,794,783,773,747,737,725,718,710,696,690,682,676,671,662,658,654,648,640,625,619,614,606,600,544,498,439,369,296,170,116,64],"timestamp_mouse":[13,29,48,70,89,109,129,150,170,189,208,229,250,268,290,310,329,350,370,390,409,430,448,468,489,509,529,549,568,589,610,630,648,669,690,710,729,749,770,789,809,830,849,869,889,908,929,949,970,989,1010,1028,1049,1068,1089,1109,1129,1149,1170,1188,1210,1229,1250,1270,1288,1309,1329,1349,1369,1388,1410,1430,1449,1470,1490,1509,1528,1548,1569,1588,1609,1630,1649,1670,1689,1709,1728,1749,1769,1789,1810,1830,1850,1869,1889,1910,1929,1949,1970,1989,2009,2030,2049,2069,2089],"xSR":741.5,"ySR":573.95,"xT1":424.9,"yT1":0,"xT2":1058.1,"yT2":0,"toosoon":0,"cond_shown":"Congruent","ratio_trial":300,"L_num":11,"L_den":22,"R_num":2,"R_den":10,"correct_side":1,"subjID":"diegosimonpinedaramirez3","gender":"0","school":"6","age":"11"},{"start_time":1551900073746,"click_time":1551900080275,"finger_time":1551900076453,"fix_duration":250,"trial":40,"RT":2707,"MT":3822,"sideResp":1,"stimulus":[],"xmouse":[761,761,761,761,761,761,761,761,761,761,761,761,761,761,761,761,761,761,761,761,761,761,761,761,761,761,761,761,761,761,761,761,761,761,761,761,761,761,761,761,761,761,761,761,761,761,761,761,761,761,761,761,761,761,761,761,761,761,761,761,761,761,761,761,761,761,761,761,761,761,761,761,761,761,761,761,761,761,761,761,761,761,761,761,761,761,761,761,761,761,761,761,761,761,761,761,761,761,761,761,761,761,761,761,761,761,761,761,761,761,761,761,761,761,761,761,761,761,761,761,761,761,761,761,761,761,761,761,761,761,761,761,761,761,761,762,763,765,768,768,768,768,768,768,768,766,763,761,761,761,761,761,761,761,761,761,761,761,761,761,751,739,732,730,729,722,717,714,710,702,698,698,698,699,699,704,709,718,727,731,732,734,734,734,735,735,736,737,738,739,742,742,744,745,746,746,746,746,746,746,746,746,746,746,746,746,746,746,746,746,746,746,746,746,746,746,746,746,746,746,746,746,746,746,746,746,746,746,746,746,746,746,746,746,746,746,746,746,746,747,747,747,747,747,748,748,748,748,748,748,748,748,748,748,748,748,748,748,750,752,756,756,756,756,756,756,756,756,756,756,756,756,756,756,756,756,756,756,756,756,756,756,756,756,756,756,756,756,756,756,756,756,756,756,756,756,756,756,756,756,756,756,756,756,754,743,739,735,732,729,727,727,727,726,718,682,660,636,616,599,567,550,540,533,532,526,520],"ymouse":[593,593,593,593,593,593,593,593,593,593,593,593,593,593,593,593,593,593,593,593,593,593,593,593,593,593,593,593,593,593,593,593,593,593,593,593,593,593,593,593,593,593,593,593,593,593,593,593,593,593,593,593,593,593,593,593,593,593,593,593,593,593,593,593,593,593,593,593,593,593,593,593,593,593,593,593,593,593,593,593,593,593,593,593,593,593,593,593,593,593,593,593,593,593,593,593,593,593,593,593,593,593,593,593,593,593,593,593,593,593,593,593,593,593,593,593,593,593,593,593,593,593,593,593,593,593,593,593,593,593,593,593,593,593,584,568,542,513,487,469,451,439,427,409,381,370,360,356,356,356,356,356,356,356,356,356,356,356,355,355,332,312,305,301,298,285,275,262,248,227,222,222,222,221,220,206,198,187,176,171,170,164,158,156,151,148,146,141,136,132,122,119,114,112,109,108,108,108,108,108,105,100,95,89,86,86,86,86,85,83,83,82,82,81,80,80,80,80,80,80,80,80,80,80,80,80,80,80,80,80,79,79,79,79,78,78,78,77,76,75,75,75,75,75,75,75,75,75,75,75,75,75,75,75,75,75,75,75,73,70,67,67,67,67,67,67,67,67,67,67,67,67,67,67,67,67,67,67,67,67,67,67,67,67,67,67,67,67,67,67,67,67,67,67,67,67,67,67,67,67,67,67,67,67,67,67,67,66,66,65,64,64,64,64,67,81,88,91,91,91,84,80,78,77,76,74,72],"timestamp_mouse":[10,41,49,69,87,107,129,148,168,188,207,228,249,269,289,309,328,347,368,389,408,428,448,468,489,509,528,548,567,588,608,629,648,668,688,708,728,748,768,787,807,827,847,869,889,908,927,949,969,988,1008,1028,1049,1068,1087,1109,1128,1149,1168,1188,1208,1228,1249,1269,1288,1309,1328,1349,1369,1388,1407,1429,1448,1469,1489,1507,1528,1549,1567,1588,1609,1627,1647,1668,1688,1707,1727,1748,1768,1789,1808,1827,1849,1869,1888,1909,1929,1949,1968,1987,2008,2028,2049,2068,2088,2109,2129,2148,2169,2189,2207,2229,2248,2269,2289,2309,2328,2347,2367,2389,2409,2428,2449,2469,2488,2509,2527,2548,2569,2589,2607,2629,2649,2669,2688,2707,2727,2748,2768,2788,2808,2829,2849,2868,2888,2908,2929,2948,2968,2988,3008,3028,3047,3069,3088,3109,3128,3148,3169,3188,3208,3229,3248,3268,3288,3308,3329,3348,3368,3389,3408,3428,3449,3469,3488,3508,3528,3548,3568,3588,3608,3628,3649,3667,3688,3708,3728,3748,3768,3789,3808,3828,3849,3868,3889,3908,3928,3948,3968,3989,4008,4028,4047,4068,4089,4107,4128,4149,4168,4189,4208,4229,4247,4268,4288,4308,4328,4348,4369,4388,4408,4427,4448,4476,4487,4509,4528,4549,4568,4589,4607,4628,4649,4668,4689,4708,4728,4748,4769,4787,4807,4829,4848,4868,4888,4908,4928,4949,4967,4987,5007,5028,5048,5068,5090,5108,5128,5149,5168,5188,5209,5229,5249,5267,5289,5308,5329,5348,5368,5389,5408,5428,5448,5468,5489,5508,5528,5548,5568,5588,5608,5628,5648,5669,5688,5708,5728,5748,5769,5789,5807,5828,5848,5867,5889,5909,5929,5949,5968,5989,6008,6028,6048,6069,6089,6109,6128,6149,6167,6188,6209,6228,6248,6268,6288,6308,6327,6348,6367,6389,6408,6428,6448,6469,6489,6509,6529],"xSR":741.5,"ySR":573.95,"xT1":424.9,"yT1":0,"xT2":1058.1,"yT2":0,"toosoon":0,"cond_shown":"Incongruent","ratio_trial":100,"L_num":2,"L_den":4,"R_num":8,"R_den":20,"correct_side":1,"subjID":"diegosimonpinedaramirez3","gender":"0","school":"6","age":"11"},{"start_time":1551900081406,"click_time":1551900083455,"finger_time":1551900082354,"fix_duration":250,"trial":41,"RT":948,"MT":1101,"sideResp":1,"stimulus":[],"xmouse":[773,773,773,773,773,773,773,773,773,773,773,773,773,773,773,773,773,773,773,773,773,773,773,773,773,773,773,773,773,773,773,773,773,773,773,773,773,773,773,773,774,775,776,776,777,785,796,880,910,931,945,953,960,966,969,972,973,975,975,975,975,975,968,962,954,946,931,877,826,761,707,650,564,542,534,533,533,533,533,532,532,532,536,537,537,535,534,533,533,533,533,533,533,533,533,532,529,528,528,528,527,527,523],"ymouse":[604,604,604,604,604,604,604,604,604,604,604,604,604,604,604,604,604,604,604,604,604,604,604,604,604,604,604,604,604,604,604,604,604,604,604,604,604,604,604,603,603,603,602,602,601,595,587,541,523,513,503,496,485,473,461,452,445,429,422,417,408,394,363,348,329,315,293,250,219,193,179,171,168,168,168,167,166,166,164,159,148,135,97,83,75,64,60,59,59,59,59,59,59,59,59,58,57,57,57,57,57,57,57],"timestamp_mouse":[12,34,48,67,89,108,127,149,168,188,207,229,248,267,289,309,328,348,368,389,408,428,448,468,488,509,527,548,568,588,608,628,649,668,688,707,729,749,767,789,807,829,848,868,889,908,928,948,969,988,1009,1029,1049,1068,1088,1108,1128,1148,1168,1188,1208,1229,1248,1267,1288,1307,1328,1348,1369,1388,1409,1429,1448,1467,1489,1508,1529,1549,1569,1589,1608,1629,1648,1668,1688,1707,1727,1748,1769,1789,1809,1829,1848,1868,1888,1908,1927,1948,1969,1989,2009,2027,2048],"xSR":741.5,"ySR":573.95,"xT1":424.9,"yT1":0,"xT2":1058.1,"yT2":0,"toosoon":0,"cond_shown":"Congruent","ratio_trial":100,"L_num":11,"L_den":22,"R_num":4,"R_den":10,"correct_side":1,"subjID":"diegosimonpinedaramirez3","gender":"0","school":"6","age":"11"},{"start_time":1551900088899,"click_time":1551900091275,"finger_time":1551900090155,"fix_duration":421.85792810295465,"trial":42,"RT":1256,"MT":1120,"sideResp":2,"stimulus":[],"xmouse":[775,775,775,775,775,775,775,775,775,775,775,775,775,775,775,775,775,775,775,775,775,775,775,775,775,775,775,775,775,775,774,774,774,774,774,774,774,774,774,774,774,774,774,774,774,774,774,774,774,774,774,773,772,770,769,768,766,765,762,761,760,759,754,750,740,723,700,675,622,612,606,605,605,607,611,616,622,628,679,714,741,757,765,788,801,813,820,824,845,882,966,1038,1069,1071,1071,1071,1071,1071,1071,1071,1071,1071,1070,1067,1065,1062,1061,1061,1057,1052,1048,1045,1043,1041,1043,1044,1046,1050,1061],"ymouse":[604,604,604,604,604,604,604,604,604,604,604,604,604,604,604,604,604,604,604,604,604,604,604,604,604,604,604,604,604,604,604,604,604,604,604,604,604,604,604,604,604,604,604,604,604,604,604,604,604,604,604,603,600,595,594,591,588,586,580,579,577,576,570,565,554,538,515,486,411,389,375,366,363,348,338,322,307,292,222,203,196,194,191,182,174,166,159,155,153,148,148,161,171,172,172,172,172,172,172,172,172,171,169,165,162,155,144,133,107,97,88,81,76,67,65,64,62,61,60],"timestamp_mouse":[15,43,55,74,95,114,134,155,175,195,215,234,255,276,296,316,335,355,376,395,415,435,454,476,496,516,535,554,576,596,615,634,656,674,696,715,735,754,776,796,814,836,856,876,895,915,936,956,976,994,1015,1034,1056,1076,1096,1115,1134,1155,1176,1196,1216,1235,1256,1274,1295,1315,1336,1355,1375,1395,1415,1436,1456,1476,1494,1515,1534,1554,1574,1595,1615,1636,1655,1674,1695,1715,1734,1756,1775,1795,1814,1834,1854,1875,1896,1915,1935,1956,1975,1995,2015,2034,2056,2075,2096,2116,2135,2156,2174,2194,2215,2234,2255,2274,2295,2316,2335,2356,2376],"xSR":741.5,"ySR":573.95,"xT1":424.9,"yT1":0,"xT2":1058.1,"yT2":0,"toosoon":0,"cond_shown":"Incongruent","ratio_trial":100,"L_num":3,"L_den":9,"R_num":7,"R_den":30,"correct_side":1,"subjID":"diegosimonpinedaramirez3","gender":"0","school":"6","age":"11"},{"start_time":1551900093930,"click_time":1551900095493,"finger_time":1551900095114,"fix_duration":1053.910573320011,"trial":43,"RT":1184,"MT":379,"sideResp":1,"stimulus":[],"xmouse":[776,776,776,776,776,776,776,776,776,776,776,776,776,776,776,776,776,776,776,776,776,776,776,776,776,776,776,776,776,776,776,776,776,776,776,776,776,776,776,776,776,776,776,776,776,776,776,776,776,775,775,774,774,773,771,770,766,754,746,735,723,711,680,659,630,619,590,564,562,561,560,558,554,553,553,553,548,528,509],"ymouse":[641,641,641,640,638,637,636,636,636,636,636,636,636,636,636,636,636,636,636,636,636,636,636,636,636,636,636,636,636,636,636,636,636,636,636,636,636,636,636,636,636,636,636,636,636,636,636,636,636,634,633,631,628,626,622,620,610,593,582,567,551,532,487,450,391,365,289,226,211,197,182,165,141,136,134,130,118,91,77],"timestamp_mouse":[10,23,44,64,85,105,124,144,165,184,205,223,245,265,284,304,325,344,364,385,405,425,445,465,483,504,525,544,565,585,605,625,644,664,685,705,723,743,765,784,804,824,843,863,885,905,923,945,964,985,1004,1025,1044,1063,1083,1104,1125,1144,1165,1184,1204,1223,1244,1264,1285,1305,1325,1344,1363,1384,1405,1425,1444,1464,1484,1504,1524,1544,1563],"xSR":741.5,"ySR":573.95,"xT1":424.9,"yT1":0,"xT2":1058.1,"yT2":0,"toosoon":0,"cond_shown":"Congruent","ratio_trial":200,"L_num":8,"L_den":15,"R_num":7,"R_den":21,"correct_side":1,"subjID":"diegosimonpinedaramirez3","gender":"0","school":"6","age":"11"},{"start_time":1551900097458,"click_time":1551900099855,"finger_time":1551900098194,"fix_duration":281.16700509440363,"trial":44,"RT":736,"MT":1661,"sideResp":1,"stimulus":[],"xmouse":[759,759,759,759,759,760,760,760,760,760,760,760,760,760,760,760,760,760,760,760,760,760,760,760,760,760,760,760,760,760,761,765,767,771,781,812,844,851,854,854,856,863,866,870,873,877,885,893,902,911,916,923,925,930,938,950,963,970,981,987,989,997,1006,1022,1038,1051,1056,1057,1057,1058,1058,1061,1062,1065,1067,1072,1074,1074,1074,1074,1074,1053,1017,970,932,896,874,869,860,847,837,821,814,807,799,784,775,770,762,752,733,693,678,665,646,612,583,577,575,574,572,565,562,559,557,553,543,537,526,517],"ymouse":[633,633,633,633,633,633,632,632,632,632,631,630,630,630,630,630,630,630,630,630,630,630,630,630,630,630,630,630,630,628,625,616,610,604,598,583,536,500,469,449,434,393,370,345,322,295,268,251,238,226,217,210,208,204,201,196,192,191,191,191,191,192,191,186,182,178,176,175,173,169,166,159,157,154,152,148,146,146,146,146,146,143,141,135,130,120,113,111,108,102,100,94,93,93,93,93,91,91,92,95,100,110,110,110,110,110,105,103,101,100,97,84,78,74,71,67,63,61,58,55],"timestamp_mouse":[17,36,55,76,97,116,137,156,175,195,216,236,256,276,296,317,336,356,375,397,417,436,456,475,495,516,535,556,576,597,617,635,656,675,697,717,736,755,776,797,817,835,856,877,896,916,935,957,976,996,1016,1036,1055,1077,1095,1116,1135,1157,1176,1195,1216,1237,1256,1276,1296,1317,1336,1357,1377,1396,1417,1435,1456,1476,1496,1517,1536,1557,1576,1596,1616,1635,1657,1677,1697,1716,1736,1756,1776,1796,1816,1836,1856,1876,1896,1916,1936,1956,1976,1996,2017,2036,2057,2076,2096,2117,2135,2157,2177,2197,2216,2236,2256,2276,2296,2316,2336,2356,2377,2397],"xSR":741.5,"ySR":573.95,"xT1":424.9,"yT1":0,"xT2":1058.1,"yT2":0,"toosoon":0,"cond_shown":"Incongruent","ratio_trial":200,"L_num":7,"L_den":10,"R_num":14,"R_den":28,"correct_side":1,"subjID":"diegosimonpinedaramirez3","gender":"0","school":"6","age":"11"},{"start_time":1551900102545,"click_time":1551900104534,"finger_time":1551900103614,"fix_duration":1410.2528257417073,"trial":45,"RT":1069,"MT":920,"sideResp":2,"stimulus":[],"xmouse":[813,813,813,813,813,813,813,813,813,813,813,813,813,813,813,813,813,813,813,813,813,813,813,813,813,813,811,809,803,802,800,799,798,798,798,798,798,798,798,798,798,798,798,798,798,798,798,798,798,798,798,798,803,814,826,836,845,854,871,886,898,910,926,949,953,958,963,971,988,1001,1008,1014,1021,1041,1048,1055,1061,1068,1073,1079,1084,1087,1088,1089,1091,1092,1094,1095,1095,1096,1096,1098,1098,1099,1100,1101,1103,1104,1104,1105],"ymouse":[618,618,618,618,618,618,618,618,618,618,618,618,618,618,618,618,618,618,618,618,618,618,618,618,618,618,614,611,602,600,599,597,597,597,597,597,597,597,597,597,597,597,597,597,597,597,597,597,597,597,597,597,581,563,541,520,498,477,439,414,396,384,370,348,341,333,325,311,277,252,241,233,225,200,187,174,164,149,141,134,125,121,119,119,119,119,119,119,119,119,119,119,119,119,119,119,116,113,103,94],"timestamp_mouse":[10,30,48,70,92,110,130,149,168,189,210,228,249,270,289,308,330,349,370,389,409,430,448,470,489,509,530,549,570,590,610,629,650,668,689,710,729,749,768,790,810,830,849,869,890,910,929,950,969,988,1008,1029,1049,1069,1088,1108,1129,1149,1170,1189,1210,1229,1249,1269,1290,1310,1330,1348,1370,1389,1410,1429,1450,1470,1489,1510,1529,1550,1569,1589,1609,1630,1649,1669,1689,1710,1730,1749,1769,1789,1810,1829,1850,1870,1889,1910,1930,1950,1970,1988],"xSR":741.5,"ySR":573.95,"xT1":424.9,"yT1":0,"xT2":1058.1,"yT2":0,"toosoon":0,"cond_shown":"Incongruent","ratio_trial":100,"L_num":10,"L_den":25,"R_num":9,"R_den":18,"correct_side":2,"subjID":"diegosimonpinedaramirez3","gender":"0","school":"6","age":"11"},{"start_time":1551900111193,"click_time":1551900112495,"finger_time":1551900112134,"fix_duration":497.2442645789055,"trial":46,"RT":941,"MT":361,"sideResp":1,"stimulus":[],"xmouse":[806,806,806,806,806,806,806,806,806,806,806,806,806,806,806,806,806,806,806,806,806,806,806,806,806,806,806,806,807,807,808,808,808,808,808,808,808,808,808,807,803,802,802,801,796,791,785,773,763,752,740,726,700,691,685,676,649,641,637,635,629,605,586,552,528,510],"ymouse":[659,659,659,659,659,659,659,659,659,659,659,659,659,659,659,659,659,659,659,659,659,659,659,659,659,659,659,658,657,653,648,641,641,641,641,641,641,641,640,640,640,640,640,640,635,626,610,570,538,504,478,445,385,346,305,260,186,167,159,154,146,125,113,94,80,68],"timestamp_mouse":[8,22,42,62,81,102,120,140,162,181,202,220,241,262,281,301,321,342,360,382,401,421,442,461,481,500,522,541,562,581,601,621,642,662,682,700,721,742,762,781,801,822,840,861,882,902,921,941,961,981,1001,1021,1041,1061,1081,1100,1122,1141,1161,1181,1201,1222,1241,1261,1282,1302],"xSR":741.5,"ySR":573.95,"xT1":424.9,"yT1":0,"xT2":1058.1,"yT2":0,"toosoon":0,"cond_shown":"Incongruent","ratio_trial":100,"L_num":10,"L_den":25,"R_num":9,"R_den":18,"correct_side":2,"subjID":"diegosimonpinedaramirez3","gender":"0","school":"6","age":"11"},{"start_time":1551900119691,"click_time":1551900120775,"finger_time":1551900120395,"fix_duration":1174.128939152881,"trial":47,"RT":704,"MT":380,"sideResp":2,"stimulus":[],"xmouse":[798,798,798,798,798,798,798,798,798,798,798,798,798,798,798,798,798,798,798,798,798,798,798,798,798,797,795,792,792,791,790,789,788,788,793,799,805,814,825,853,889,921,942,966,980,990,1000,1024,1035,1044,1052,1058,1081,1107,1131],"ymouse":[633,633,633,633,633,633,633,633,633,633,633,633,633,631,631,631,631,631,631,631,631,631,631,631,631,630,626,619,618,616,613,611,598,587,574,561,552,537,519,481,440,410,394,364,348,336,322,287,266,245,223,202,153,106,66],"timestamp_mouse":[9,23,42,63,84,104,122,143,163,182,203,224,244,264,282,303,323,343,364,384,402,424,442,464,483,504,523,543,563,584,604,623,643,664,684,704,724,743,763,783,803,823,843,863,883,903,922,944,963,983,1002,1023,1044,1063,1084],"xSR":741.5,"ySR":573.95,"xT1":424.9,"yT1":0,"xT2":1058.1,"yT2":0,"toosoon":0,"cond_shown":"Congruent","ratio_trial":100,"L_num":2,"L_den":5,"R_num":11,"R_den":22,"correct_side":2,"subjID":"diegosimonpinedaramirez3","gender":"0","school":"6","age":"11"},{"start_time":1551900124627,"click_time":1551900126594,"finger_time":1551900125874,"fix_duration":250,"trial":48,"RT":1247,"MT":720,"sideResp":2,"stimulus":[],"xmouse":[768,768,768,768,768,768,768,768,768,768,768,768,768,768,768,768,768,768,768,768,768,768,768,768,768,768,768,768,768,768,768,768,768,768,768,768,768,768,768,768,768,768,768,768,768,768,768,768,768,768,768,768,768,768,768,768,768,768,768,768,770,834,917,1010,1115,1242,1369,1399,1411,1411,1405,1387,1383,1380,1377,1373,1363,1357,1351,1339,1335,1333,1333,1331,1323,1316,1308,1273,1255,1238,1219,1190,1183,1180,1179,1179,1175,1163,1149],"ymouse":[652,652,652,652,652,652,652,652,652,652,652,652,652,652,652,652,652,652,652,652,652,652,652,652,652,652,652,652,652,652,652,652,652,652,652,652,652,652,652,652,652,652,652,652,652,652,652,652,652,652,652,652,652,652,652,652,652,652,652,652,653,629,593,541,478,373,225,160,94,58,33,0,0,0,0,0,0,0,0,0,0,0,0,0,0,0,0,0,0,0,0,0,0,0,0,0,0,3,8],"timestamp_mouse":[13,42,47,66,87,108,127,146,167,188,206,227,246,268,288,306,326,346,367,387,407,426,446,467,488,508,526,546,568,588,608,628,647,666,686,708,728,747,767,788,806,828,846,867,886,908,927,947,966,986,1006,1028,1046,1067,1087,1108,1127,1148,1166,1188,1208,1228,1247,1267,1286,1306,1326,1347,1367,1387,1407,1428,1448,1467,1487,1506,1527,1547,1567,1588,1607,1627,1647,1668,1687,1706,1726,1746,1766,1786,1807,1828,18