[{"start_time":1551901140443,"click_time":1551901144132,"finger_time":1551901143350,"fix_duration":1468.4759354793803,"trial":0,"RT":2907,"MT":782,"sideResp":2,"stimulus":[],"xmouse":[784,784,784,784,784,784,784,784,784,784,784,784,784,784,784,784,784,784,784,784,784,784,784,784,784,784,784,784,784,784,784,784,784,784,784,784,784,784,784,784,784,784,784,784,784,784,784,784,784,784,784,784,784,784,784,784,784,784,784,784,784,784,784,784,784,784,784,784,784,784,784,784,784,784,784,784,784,784,784,784,784,784,784,784,784,784,784,784,784,784,784,784,784,784,784,784,784,784,784,784,784,784,784,784,784,784,784,784,784,784,784,784,784,784,784,784,784,784,784,784,784,784,784,784,784,784,784,784,784,784,784,784,784,784,784,784,784,784,784,784,784,784,785,788,792,819,833,841,843,844,858,868,875,891,906,927,933,941,954,979,992,998,1004,1008,1012,1018,1025,1030,1037,1049,1060,1066,1074,1085,1099,1100,1101,1101,1102,1105,1110,1113,1116,1119,1124],"ymouse":[517,517,517,517,517,517,517,517,517,517,517,517,517,517,517,517,517,517,517,517,517,517,517,517,517,517,517,517,517,517,517,517,517,517,517,517,517,517,517,517,517,517,517,517,517,517,517,517,517,517,517,517,517,517,517,517,517,517,517,517,517,517,517,517,517,517,517,517,517,517,517,517,517,517,517,517,517,517,517,517,517,517,517,517,517,517,517,517,517,517,517,517,517,517,517,517,517,517,517,517,517,517,517,517,517,517,517,517,517,517,517,517,517,517,517,517,517,517,517,517,517,517,517,517,517,517,517,517,517,517,517,517,517,517,517,517,517,517,517,517,517,517,517,514,508,478,463,456,454,453,446,441,436,428,421,411,408,404,398,386,375,370,365,361,356,348,338,331,318,285,251,227,205,183,154,150,149,147,145,137,127,122,114,106,88],"timestamp_mouse":[9,46,47,68,87,107,129,147,167,187,209,229,247,267,287,309,327,347,368,388,407,427,448,469,487,508,527,548,567,587,609,628,647,667,687,709,727,747,767,787,809,827,847,867,888,907,927,947,967,988,1009,1029,1047,1067,1087,1108,1128,1147,1167,1187,1209,1228,1248,1268,1287,1309,1328,1347,1367,1388,1408,1428,1448,1467,1487,1508,1527,1547,1568,1587,1608,1627,1647,1668,1687,1708,1727,1747,1767,1787,1808,1827,1848,1868,1888,1907,1928,1948,1968,1988,2007,2029,2047,2067,2087,2107,2127,2147,2167,2187,2207,2228,2247,2268,2287,2307,2328,2349,2367,2388,2408,2428,2448,2468,2487,2507,2527,2547,2568,2587,2608,2628,2647,2667,2687,2708,2727,2747,2767,2787,2808,2827,2847,2867,2887,2907,2927,2947,2968,2988,3007,3028,3047,3067,3087,3107,3127,3147,3168,3188,3207,3227,3247,3268,3288,3307,3328,3348,3367,3388,3407,3427,3448,3468,3489,3507,3527,3547,3568,3588,3607,3627,3649,3668,3688],"xSR":741.5,"ySR":481,"xT1":424.9,"yT1":0,"xT2":1058.1,"yT2":0,"toosoon":0,"cond_shown":"Congruent","ratio_trial":300,"L_num":1,"L_den":5,"R_num":11,"R_den":22,"correct_side":2,"subjID":"alejandrocala7","gender":"0","age":null,"school":"2019","test":{"fix_dur":[250,1500],"timestim":1000,"targets_dim":[100,100],"targets_relative_coord":[0.3,0.7],"size_stim":[880,420],"start_dim":[100,100],"size_start":[300,300],"size_fix":60,"samplingrate":20,"img_types":["Congruent","Incongruent"],"ratios":[100,200,300],"rep_conds":19,"nTrials":120,"trials_to_rest":500,"Trials_order":[82,54,67,38,34,32,64,89,24,106,41,77,110,74,85,108,119,11,37,6,56,40,83,17,76,5,57,88,19,49,114,46,113,10,91,59,80,36,31,84,69,9,72,18,30,92,117,87,21,20,62,4,93,116,111,44,94,66,115,68,107,45,71,65,14,50,22,97,29,81,15,104,53,55,42,52,79,90,25,99,63,33,35,0,27,26,109,28,86,105,98,100,101,102,3,70,43,96,13,61,8,78,75,1,51,7,12,95,39,2,118,48,103,23,60,47,58,16,73,112],"cond_shown":["Congruent","Congruent","Incongruent","Congruent","Congruent","Congruent","Congruent","Incongruent","Congruent","Congruent","Incongruent","Incongruent","Congruent","Congruent","Incongruent","Congruent","Incongruent","Incongruent","Incongruent","Congruent","Congruent","Congruent","Incongruent","Incongruent","Congruent","Incongruent","Incongruent","Congruent","Incongruent","Incongruent","Congruent","Congruent","Incongruent","Congruent","Incongruent","Incongruent","Congruent","Congruent","Incongruent","Congruent","Incongruent","Incongruent","Congruent","Congruent","Congruent","Congruent","Incongruent","Incongruent","Incongruent","Congruent","Congruent","Congruent","Incongruent","Congruent","Incongruent","Congruent","Congruent","Congruent","Incongruent","Congruent","Incongruent","Incongruent","Incongruent","Incongruent","Congruent","Congruent","Congruent","Incongruent","Incongruent","Incongruent","Incongruent","Congruent","Incongruent","Incongruent","Congruent","Congruent","Incongruent","Congruent","Incongruent","Incongruent","Incongruent","Incongruent","Incongruent","Congruent","Incongruent","Congruent","Incongruent","Congruent","Congruent","Incongruent","Congruent","Congruent","Incongruent","Congruent","Incongruent","Congruent","Incongruent","Congruent","Incongruent","Incongruent","Congruent","Congruent","Incongruent","Incongruent","Incongruent","Incongruent","Congruent","Incongruent","Incongruent","Congruent","Congruent","Congruent","Incongruent","Incongruent","Congruent","Incongruent","Congruent","Congruent","Incongruent","Congruent"],"ratio_trial":[300,100,100,200,300,200,300,300,100,300,300,300,200,200,100,100,300,300,100,100,200,300,300,300,300,300,200,300,100,100,100,300,300,300,100,300,200,100,100,100,200,200,100,100,100,200,200,200,200,200,200,300,200,200,200,200,300,100,100,200,300,200,300,300,200,200,300,100,300,200,200,200,300,100,100,300,100,100,100,200,200,200,300,100,200,200,100,300,200,200,200,300,300,100,200,300,100,100,100,100,200,100,200,100,200,100,100,300,200,200,300,100,100,300,100,300,300,300,100,300],"left_num":[1,12,9,12,1,13,11,4,11,4,8,4,21,15,3,9,13,4,12,11,21,20,13,8,4,13,4,3,17,3,15,20,4,1,3,3,3,15,17,9,3,14,15,3,4,3,3,14,4,8,8,1,6,12,9,5,8,3,3,6,4,3,2,4,3,9,11,1,3,7,14,12,4,11,2,24,3,7,9,3,7,14,4,8,7,1,10,4,6,1,3,20,13,11,7,20,13,4,4,3,1,11,7,11,4,12,4,8,7,11,1,6,10,13,4,13,7,20,6,20],"right_num":[11,13,13,6,19,14,1,2,4,13,9,2,2,4,11,8,12,2,9,6,2,13,12,9,13,12,1,11,10,7,13,14,2,19,11,4,14,13,10,8,11,12,13,4,6,7,11,6,14,7,7,19,3,6,8,14,1,2,8,3,2,1,6,2,14,4,2,8,4,14,12,6,2,9,6,2,7,15,13,11,14,6,2,2,12,21,9,2,3,3,14,8,12,4,12,13,6,15,8,8,21,4,8,9,1,2,6,14,8,3,11,5,8,12,15,12,20,9,11,13],"left_den":[5,30,15,20,3,26,22,20,22,20,10,20,30,25,5,15,26,20,24,22,30,25,26,10,20,26,30,12,30,9,25,25,20,3,5,6,6,25,30,15,4,30,25,20,8,10,4,30,6,15,15,3,20,15,15,10,16,6,5,15,20,10,4,20,6,20,22,2,6,10,30,15,20,22,5,30,9,14,15,4,10,30,20,16,10,2,25,5,15,2,6,25,26,22,10,25,26,10,8,5,2,22,10,22,30,30,8,10,10,22,5,20,25,26,10,26,14,25,10,25],"right_den":[22,26,26,15,30,20,5,4,10,26,18,4,4,10,22,16,15,4,15,15,4,26,15,18,26,15,3,20,15,30,26,28,4,30,22,20,20,26,15,16,20,18,26,16,10,14,20,9,30,21,21,30,6,10,10,20,5,5,16,15,4,2,30,4,20,16,10,20,20,28,18,10,4,15,12,4,30,25,26,20,28,9,4,5,24,30,18,4,15,10,20,16,15,10,24,26,10,30,20,16,30,10,16,15,3,4,10,28,16,10,22,25,16,15,30,15,25,18,22,26],"correct_side":[2,2,1,1,2,2,1,2,1,2,1,2,1,1,1,1,2,2,2,1,1,1,2,1,2,2,2,2,2,1,1,1,2,2,1,1,2,1,2,1,1,2,1,2,2,2,1,2,1,1,1,2,2,1,2,2,1,1,1,1,2,2,1,2,2,1,1,1,1,1,2,1,2,2,2,1,1,2,1,1,1,2,2,1,1,2,2,1,1,1,2,1,2,1,1,1,2,2,1,1,2,1,1,2,2,2,2,1,1,1,2,1,2,2,2,2,2,1,1,1],"img_shown":["img2/300/Congruent/R/C_Dist_300_LN_1_LD_5_RN_11_RD_22_1.png","img2/100/Congruent/R/C_Dist_100_LN_12_LD_30_RN_13_RD_26_1.png","img2/100/Incongruent/L/I_Dist_100_LN_9_LD_15_RN_13_RD_26_0.png","img2/200/Congruent/L/C_Dist_200_LN_12_LD_20_RN_6_RD_15_0.png","img2/300/Congruent/R/C_Dist_300_LN_1_LD_3_RN_19_RD_30_1.png","img2/200/Congruent/R/C_Dist_200_LN_13_LD_26_RN_14_RD_20_1.png","img2/300/Congruent/L/C_Dist_300_LN_11_LD_22_RN_1_RD_5_0.png","img2/300/Incongruent/R/I_Dist_300_LN_4_LD_20_RN_2_RD_4_1.png","img2/100/Congruent/L/C_Dist_100_LN_11_LD_22_RN_4_RD_10_0.png","img2/300/Congruent/R/C_Dist_300_LN_4_LD_20_RN_13_RD_26_1.png","img2/300/Incongruent/L/I_Dist_300_LN_8_LD_10_RN_9_RD_18_0.png","img2/300/Incongruent/R/I_Dist_300_LN_4_LD_20_RN_2_RD_4_1.png","img2/200/Congruent/L/C_Dist_200_LN_21_LD_30_RN_2_RD_4_0.png","img2/200/Congruent/L/C_Dist_200_LN_15_LD_25_RN_4_RD_10_0.png","img2/100/Incongruent/L/I_Dist_100_LN_3_LD_5_RN_11_RD_22_0.png","img2/100/Congruent/L/C_Dist_100_LN_9_LD_15_RN_8_RD_16_0.png","img2/300/Incongruent/R/I_Dist_300_LN_13_LD_26_RN_12_RD_15_1.png","img2/300/Incongruent/R/I_Dist_300_LN_4_LD_20_RN_2_RD_4_1.png","img2/100/Incongruent/R/I_Dist_100_LN_12_LD_24_RN_9_RD_15_1.png","img2/100/Congruent/L/C_Dist_100_LN_11_LD_22_RN_6_RD_15_0.png","img2/200/Congruent/L/C_Dist_200_LN_21_LD_30_RN_2_RD_4_0.png","img2/300/Congruent/L/C_Dist_300_LN_20_LD_25_RN_13_RD_26_0.png","img2/300/Incongruent/R/I_Dist_300_LN_13_LD_26_RN_12_RD_15_1.png","img2/300/Incongruent/L/I_Dist_300_LN_8_LD_10_RN_9_RD_18_0.png","img2/300/Congruent/R/C_Dist_300_LN_4_LD_20_RN_13_RD_26_1.png","img2/300/Incongruent/R/I_Dist_300_LN_13_LD_26_RN_12_RD_15_1.png","img2/200/Incongruent/R/I_Dist_200_LN_4_LD_30_RN_1_RD_3_1.png","img2/300/Congruent/R/C_Dist_300_LN_3_LD_12_RN_11_RD_20_1.png","img2/100/Incongruent/R/I_Dist_100_LN_17_LD_30_RN_10_RD_15_1.png","img2/100/Incongruent/L/I_Dist_100_LN_3_LD_9_RN_7_RD_30_0.png","img2/100/Congruent/L/C_Dist_100_LN_15_LD_25_RN_13_RD_26_0.png","img2/300/Congruent/L/C_Dist_300_LN_20_LD_25_RN_14_RD_28_0.png","img2/300/Incongruent/R/I_Dist_300_LN_4_LD_20_RN_2_RD_4_1.png","img2/300/Congruent/R/C_Dist_300_LN_1_LD_3_RN_19_RD_30_1.png","img2/100/Incongruent/L/I_Dist_100_LN_3_LD_5_RN_11_RD_22_0.png","img2/300/Incongruent/L/I_Dist_300_LN_3_LD_6_RN_4_RD_20_0.png","img2/200/Congruent/R/C_Dist_200_LN_3_LD_6_RN_14_RD_20_1.png","img2/100/Congruent/L/C_Dist_100_LN_15_LD_25_RN_13_RD_26_0.png","img2/100/Incongruent/R/I_Dist_100_LN_17_LD_30_RN_10_RD_15_1.png","img2/100/Congruent/L/C_Dist_100_LN_9_LD_15_RN_8_RD_16_0.png","img2/200/Incongruent/L/I_Dist_200_LN_3_LD_4_RN_11_RD_20_0.png","img2/200/Incongruent/R/I_Dist_200_LN_14_LD_30_RN_12_RD_18_1.png","img2/100/Congruent/L/C_Dist_100_LN_15_LD_25_RN_13_RD_26_0.png","img2/100/Congruent/R/C_Dist_100_LN_3_LD_20_RN_4_RD_16_1.png","img2/100/Congruent/R/C_Dist_100_LN_4_LD_8_RN_6_RD_10_1.png","img2/200/Congruent/R/C_Dist_200_LN_3_LD_10_RN_7_RD_14_1.png","img2/200/Incongruent/L/I_Dist_200_LN_3_LD_4_RN_11_RD_20_0.png","img2/200/Incongruent/R/I_Dist_200_LN_14_LD_30_RN_6_RD_9_1.png","img2/200/Incongruent/L/I_Dist_200_LN_4_LD_6_RN_14_RD_30_0.png","img2/200/Congruent/L/C_Dist_200_LN_8_LD_15_RN_7_RD_21_0.png","img2/200/Congruent/L/C_Dist_200_LN_8_LD_15_RN_7_RD_21_0.png","img2/300/Congruent/R/C_Dist_300_LN_1_LD_3_RN_19_RD_30_1.png","img2/200/Incongruent/R/I_Dist_200_LN_6_LD_20_RN_3_RD_6_1.png","img2/200/Congruent/L/C_Dist_200_LN_12_LD_15_RN_6_RD_10_0.png","img2/200/Incongruent/R/I_Dist_200_LN_9_LD_15_RN_8_RD_10_1.png","img2/200/Congruent/R/C_Dist_200_LN_5_LD_10_RN_14_RD_20_1.png","img2/300/Congruent/L/C_Dist_300_LN_8_LD_16_RN_1_RD_5_0.png","img2/100/Congruent/L/C_Dist_100_LN_3_LD_6_RN_2_RD_5_0.png","img2/100/Incongruent/L/I_Dist_100_LN_3_LD_5_RN_8_RD_16_0.png","img2/200/Congruent/L/C_Dist_200_LN_6_LD_15_RN_3_RD_15_0.png","img2/300/Incongruent/R/I_Dist_300_LN_4_LD_20_RN_2_RD_4_1.png","img2/200/Incongruent/R/I_Dist_200_LN_3_LD_10_RN_1_RD_2_1.png","img2/300/Incongruent/L/I_Dist_300_LN_2_LD_4_RN_6_RD_30_0.png","img2/300/Incongruent/R/I_Dist_300_LN_4_LD_20_RN_2_RD_4_1.png","img2/200/Congruent/R/C_Dist_200_LN_3_LD_6_RN_14_RD_20_1.png","img2/200/Congruent/L/C_Dist_200_LN_9_LD_20_RN_4_RD_16_0.png","img2/300/Congruent/L/C_Dist_300_LN_11_LD_22_RN_2_RD_10_0.png","img2/100/Incongruent/L/I_Dist_100_LN_1_LD_2_RN_8_RD_20_0.png","img2/300/Incongruent/L/I_Dist_300_LN_3_LD_6_RN_4_RD_20_0.png","img2/200/Incongruent/L/I_Dist_200_LN_7_LD_10_RN_14_RD_28_0.png","img2/200/Incongruent/R/I_Dist_200_LN_14_LD_30_RN_12_RD_18_1.png","img2/200/Congruent/L/C_Dist_200_LN_12_LD_15_RN_6_RD_10_0.png","img2/300/Incongruent/R/I_Dist_300_LN_4_LD_20_RN_2_RD_4_1.png","img2/100/Incongruent/R/I_Dist_100_LN_11_LD_22_RN_9_RD_15_1.png","img2/100/Congruent/R/C_Dist_100_LN_2_LD_5_RN_6_RD_12_1.png","img2/300/Congruent/L/C_Dist_300_LN_24_LD_30_RN_2_RD_4_0.png","img2/100/Incongruent/L/I_Dist_100_LN_3_LD_9_RN_7_RD_30_0.png","img2/100/Congruent/R/C_Dist_100_LN_7_LD_14_RN_15_RD_25_1.png","img2/100/Incongruent/L/I_Dist_100_LN_9_LD_15_RN_13_RD_26_0.png","img2/200/Incongruent/L/I_Dist_200_LN_3_LD_4_RN_11_RD_20_0.png","img2/200/Incongruent/L/I_Dist_200_LN_7_LD_10_RN_14_RD_28_0.png","img2/200/Incongruent/R/I_Dist_200_LN_14_LD_30_RN_6_RD_9_1.png","img2/300/Incongruent/R/I_Dist_300_LN_4_LD_20_RN_2_RD_4_1.png","img2/100/Congruent/L/C_Dist_100_LN_8_LD_16_RN_2_RD_5_0.png","img2/200/Incongruent/L/I_Dist_200_LN_7_LD_10_RN_12_RD_24_0.png","img2/200/Congruent/R/C_Dist_200_LN_1_LD_2_RN_21_RD_30_1.png","img2/100/Incongruent/R/I_Dist_100_LN_10_LD_25_RN_9_RD_18_1.png","img2/300/Congruent/L/C_Dist_300_LN_4_LD_5_RN_2_RD_4_0.png","img2/200/Congruent/L/C_Dist_200_LN_6_LD_15_RN_3_RD_15_0.png","img2/200/Incongruent/L/I_Dist_200_LN_1_LD_2_RN_3_RD_10_0.png","img2/200/Congruent/R/C_Dist_200_LN_3_LD_6_RN_14_RD_20_1.png","img2/300/Congruent/L/C_Dist_300_LN_20_LD_25_RN_8_RD_16_0.png","img2/300/Incongruent/R/I_Dist_300_LN_13_LD_26_RN_12_RD_15_1.png","img2/100/Congruent/L/C_Dist_100_LN_11_LD_22_RN_4_RD_10_0.png","img2/200/Incongruent/L/I_Dist_200_LN_7_LD_10_RN_12_RD_24_0.png","img2/300/Congruent/L/C_Dist_300_LN_20_LD_25_RN_13_RD_26_0.png","img2/100/Incongruent/R/I_Dist_100_LN_13_LD_26_RN_6_RD_10_1.png","img2/100/Congruent/R/C_Dist_100_LN_4_LD_10_RN_15_RD_30_1.png","img2/100/Incongruent/L/I_Dist_100_LN_4_LD_8_RN_8_RD_20_0.png","img2/100/Incongruent/L/I_Dist_100_LN_3_LD_5_RN_8_RD_16_0.png","img2/200/Congruent/R/C_Dist_200_LN_1_LD_2_RN_21_RD_30_1.png","img2/100/Congruent/L/C_Dist_100_LN_11_LD_22_RN_4_RD_10_0.png","img2/200/Incongruent/L/I_Dist_200_LN_7_LD_10_RN_8_RD_16_0.png","img2/100/Incongruent/R/I_Dist_100_LN_11_LD_22_RN_9_RD_15_1.png","img2/200/Incongruent/R/I_Dist_200_LN_4_LD_30_RN_1_RD_3_1.png","img2/100/Incongruent/R/I_Dist_100_LN_12_LD_30_RN_2_RD_4_1.png","img2/100/Congruent/R/C_Dist_100_LN_4_LD_8_RN_6_RD_10_1.png","img2/300/Incongruent/L/I_Dist_300_LN_8_LD_10_RN_14_RD_28_0.png","img2/200/Incongruent/L/I_Dist_200_LN_7_LD_10_RN_8_RD_16_0.png","img2/200/Congruent/L/C_Dist_200_LN_11_LD_22_RN_3_RD_10_0.png","img2/300/Congruent/R/C_Dist_300_LN_1_LD_5_RN_11_RD_22_1.png","img2/100/Congruent/L/C_Dist_100_LN_6_LD_20_RN_5_RD_25_0.png","img2/100/Incongruent/R/I_Dist_100_LN_10_LD_25_RN_8_RD_16_1.png","img2/300/Incongruent/R/I_Dist_300_LN_13_LD_26_RN_12_RD_15_1.png","img2/100/Congruent/R/C_Dist_100_LN_4_LD_10_RN_15_RD_30_1.png","img2/300/Incongruent/R/I_Dist_300_LN_13_LD_26_RN_12_RD_15_1.png","img2/300/Congruent/R/C_Dist_300_LN_7_LD_14_RN_20_RD_25_1.png","img2/300/Congruent/L/C_Dist_300_LN_20_LD_25_RN_9_RD_18_0.png","img2/100/Incongruent/L/I_Dist_100_LN_6_LD_10_RN_11_RD_22_0.png","img2/300/Congruent/L/C_Dist_300_LN_20_LD_25_RN_13_RD_26_0.png"],"dist100_C":[["C_Dist_100_LN_10_LD_25_RN_3_RD_10_0.png","C_Dist_100_LN_11_LD_22_RN_4_RD_10_0.png","C_Dist_100_LN_11_LD_22_RN_6_RD_15_0.png","C_Dist_100_LN_15_LD_25_RN_13_RD_26_0.png","C_Dist_100_LN_3_LD_6_RN_2_RD_5_0.png","C_Dist_100_LN_6_LD_20_RN_5_RD_25_0.png","C_Dist_100_LN_8_LD_16_RN_2_RD_5_0.png","C_Dist_100_LN_9_LD_15_RN_8_RD_16_0.png"],["C_Dist_100_LN_1_LD_2_RN_18_RD_30_1.png","C_Dist_100_LN_1_LD_2_RN_3_RD_5_1.png","C_Dist_100_LN_12_LD_30_RN_13_RD_26_1.png","C_Dist_100_LN_2_LD_5_RN_11_RD_22_1.png","C_Dist_100_LN_2_LD_5_RN_6_RD_12_1.png","C_Dist_100_LN_3_LD_20_RN_4_RD_16_1.png","C_Dist_100_LN_4_LD_10_RN_15_RD_30_1.png","C_Dist_100_LN_4_LD_8_RN_6_RD_10_1.png","C_Dist_100_LN_6_LD_12_RN_15_RD_25_1.png","C_Dist_100_LN_7_LD_14_RN_15_RD_25_1.png","C_Dist_100_LN_7_LD_14_RN_9_RD_15_1.png"]],"dist100_I":[["I_Dist_100_LN_1_LD_2_RN_8_RD_20_0.png","I_Dist_100_LN_2_LD_4_RN_6_RD_15_0.png","I_Dist_100_LN_2_LD_4_RN_8_RD_20_0.png","I_Dist_100_LN_3_LD_5_RN_11_RD_22_0.png","I_Dist_100_LN_3_LD_5_RN_8_RD_16_0.png","I_Dist_100_LN_3_LD_6_RN_4_RD_10_0.png","I_Dist_100_LN_3_LD_9_RN_7_RD_30_0.png","I_Dist_100_LN_4_LD_8_RN_8_RD_20_0.png","I_Dist_100_LN_6_LD_10_RN_11_RD_22_0.png","I_Dist_100_LN_6_LD_10_RN_13_RD_26_0.png","I_Dist_100_LN_6_LD_10_RN_7_RD_14_0.png","I_Dist_100_LN_9_LD_10_RN_20_RD_25_0.png","I_Dist_100_LN_9_LD_15_RN_13_RD_26_0.png","I_Dist_100_LN_9_LD_15_RN_14_RD_28_0.png"],["I_Dist_100_LN_10_LD_25_RN_8_RD_16_1.png","I_Dist_100_LN_10_LD_25_RN_9_RD_18_1.png","I_Dist_100_LN_11_LD_22_RN_9_RD_15_1.png","I_Dist_100_LN_12_LD_24_RN_9_RD_15_1.png","I_Dist_100_LN_12_LD_30_RN_2_RD_4_1.png","I_Dist_100_LN_13_LD_26_RN_12_RD_20_1.png","I_Dist_100_LN_13_LD_26_RN_6_RD_10_1.png","I_Dist_100_LN_17_LD_30_RN_10_RD_15_1.png","I_Dist_100_LN_6_LD_12_RN_3_RD_5_1.png","I_Dist_100_LN_8_LD_16_RN_6_RD_10_1.png","I_Dist_100_LN_8_LD_20_RN_1_RD_2_1.png","I_Dist_100_LN_9_LD_18_RN_6_RD_10_1.png"]],"dist100_S":[["E_Dist_100_LN_2_LD_12_RN_2_RD_30_0.png","E_Dist_100_LN_6_LD_10_RN_6_RD_12_0.png"],["E_Dist_100_LN_6_LD_12_RN_6_RD_10_1.png"]],"dist200_C":[["C_Dist_200_LN_11_LD_22_RN_3_RD_10_0.png","C_Dist_200_LN_12_LD_15_RN_6_RD_10_0.png","C_Dist_200_LN_12_LD_20_RN_6_RD_15_0.png","C_Dist_200_LN_14_LD_28_RN_6_RD_20_0.png","C_Dist_200_LN_15_LD_25_RN_4_RD_10_0.png","C_Dist_200_LN_16_LD_20_RN_12_RD_20_0.png","C_Dist_200_LN_16_LD_30_RN_9_RD_27_0.png","C_Dist_200_LN_20_LD_25_RN_9_RD_15_0.png","C_Dist_200_LN_21_LD_30_RN_2_RD_4_0.png","C_Dist_200_LN_4_LD_10_RN_3_RD_15_0.png","C_Dist_200_LN_4_LD_8_RN_3_RD_10_0.png","C_Dist_200_LN_6_LD_15_RN_3_RD_15_0.png","C_Dist_200_LN_7_LD_21_RN_2_RD_15_0.png","C_Dist_200_LN_8_LD_15_RN_2_RD_6_0.png","C_Dist_200_LN_8_LD_15_RN_3_RD_9_0.png","C_Dist_200_LN_8_LD_15_RN_7_RD_21_0.png","C_Dist_200_LN_9_LD_20_RN_4_RD_16_0.png"],["C_Dist_200_LN_1_LD_2_RN_21_RD_30_1.png","C_Dist_200_LN_13_LD_26_RN_14_RD_20_1.png","C_Dist_200_LN_3_LD_10_RN_11_RD_22_1.png","C_Dist_200_LN_3_LD_10_RN_14_RD_28_1.png","C_Dist_200_LN_3_LD_10_RN_7_RD_14_1.png","C_Dist_200_LN_3_LD_12_RN_9_RD_20_1.png","C_Dist_200_LN_3_LD_6_RN_14_RD_20_1.png","C_Dist_200_LN_5_LD_10_RN_14_RD_20_1.png","C_Dist_200_LN_6_LD_12_RN_7_RD_10_1.png","C_Dist_200_LN_6_LD_20_RN_11_RD_22_1.png","C_Dist_200_LN_7_LD_15_RN_18_RD_27_1.png","C_Dist_200_LN_9_LD_30_RN_13_RD_26_1.png"]],"dist200_I":[["I_Dist_200_LN_1_LD_2_RN_3_RD_10_0.png","I_Dist_200_LN_1_LD_3_RN_2_RD_15_0.png","I_Dist_200_LN_3_LD_4_RN_11_RD_20_0.png","I_Dist_200_LN_4_LD_5_RN_6_RD_10_0.png","I_Dist_200_LN_4_LD_6_RN_14_RD_30_0.png","I_Dist_200_LN_7_LD_10_RN_12_RD_24_0.png","I_Dist_200_LN_7_LD_10_RN_14_RD_28_0.png","I_Dist_200_LN_7_LD_10_RN_8_RD_16_0.png"],["I_Dist_200_LN_11_LD_20_RN_3_RD_4_1.png","I_Dist_200_LN_14_LD_30_RN_12_RD_18_1.png","I_Dist_200_LN_14_LD_30_RN_6_RD_9_1.png","I_Dist_200_LN_3_LD_10_RN_1_RD_2_1.png","I_Dist_200_LN_4_LD_30_RN_1_RD_3_1.png","I_Dist_200_LN_6_LD_20_RN_3_RD_6_1.png","I_Dist_200_LN_7_LD_15_RN_4_RD_6_1.png","I_Dist_200_LN_7_LD_15_RN_6_RD_9_1.png","I_Dist_200_LN_9_LD_15_RN_8_RD_10_1.png"]],"dist200_S":[["E_Dist_200_LN_3_LD_6_RN_3_RD_10_0.png"],["E_Dist_200_LN_3_LD_10_RN_3_RD_6_1.png"]],"dist300_C":[["C_Dist_300_LN_11_LD_22_RN_1_RD_5_0.png","C_Dist_300_LN_11_LD_22_RN_2_RD_10_0.png","C_Dist_300_LN_11_LD_22_RN_4_RD_20_0.png","C_Dist_300_LN_12_LD_24_RN_2_RD_10_0.png","C_Dist_300_LN_18_LD_20_RN_9_RD_15_0.png","C_Dist_300_LN_20_LD_25_RN_13_RD_26_0.png","C_Dist_300_LN_20_LD_25_RN_14_RD_28_0.png","C_Dist_300_LN_20_LD_25_RN_5_RD_10_0.png","C_Dist_300_LN_20_LD_25_RN_8_RD_16_0.png","C_Dist_300_LN_20_LD_25_RN_9_RD_18_0.png","C_Dist_300_LN_24_LD_30_RN_2_RD_4_0.png","C_Dist_300_LN_24_LD_30_RN_8_RD_16_0.png","C_Dist_300_LN_3_LD_6_RN_2_RD_10_0.png","C_Dist_300_LN_4_LD_10_RN_1_RD_10_0.png","C_Dist_300_LN_4_LD_5_RN_2_RD_4_0.png","C_Dist_300_LN_8_LD_16_RN_1_RD_5_0.png","C_Dist_300_LN_9_LD_10_RN_3_RD_5_0.png"],["C_Dist_300_LN_1_LD_20_RN_7_RD_20_1.png","C_Dist_300_LN_1_LD_3_RN_19_RD_30_1.png","C_Dist_300_LN_1_LD_30_RN_8_RD_24_1.png","C_Dist_300_LN_1_LD_5_RN_11_RD_22_1.png","C_Dist_300_LN_1_LD_5_RN_3_RD_6_1.png","C_Dist_300_LN_1_LD_5_RN_6_RD_12_1.png","C_Dist_300_LN_2_LD_10_RN_12_RD_24_1.png","C_Dist_300_LN_2_LD_20_RN_10_RD_25_1.png","C_Dist_300_LN_3_LD_12_RN_11_RD_20_1.png","C_Dist_300_LN_3_LD_6_RN_4_RD_5_1.png","C_Dist_300_LN_4_LD_20_RN_13_RD_26_1.png","C_Dist_300_LN_5_LD_25_RN_6_RD_12_1.png","C_Dist_300_LN_5_LD_25_RN_7_RD_14_1.png","C_Dist_300_LN_7_LD_14_RN_20_RD_25_1.png","C_Dist_300_LN_8_LD_15_RN_10_RD_12_1.png"]],"dist300_I":[["I_Dist_300_LN_1_LD_2_RN_2_RD_10_0.png","I_Dist_300_LN_1_LD_2_RN_3_RD_15_0.png","I_Dist_300_LN_2_LD_4_RN_6_RD_30_0.png","I_Dist_300_LN_3_LD_6_RN_4_RD_20_0.png","I_Dist_300_LN_4_LD_5_RN_6_RD_12_0.png","I_Dist_300_LN_4_LD_5_RN_8_RD_16_0.png","I_Dist_300_LN_7_LD_10_RN_8_RD_20_0.png","I_Dist_300_LN_8_LD_10_RN_14_RD_28_0.png","I_Dist_300_LN_8_LD_10_RN_9_RD_18_0.png"],["I_Dist_300_LN_13_LD_26_RN_12_RD_15_1.png","I_Dist_300_LN_4_LD_20_RN_2_RD_4_1.png"]],"dist300_S":[["E_Dist_300_LN_9_LD_12_RN_9_RD_20_0.png"],["E_Dist_300_LN_18_LD_30_RN_18_RD_20_1.png","E_Dist_300_LN_3_LD_10_RN_3_RD_5_1.png","E_Dist_300_LN_9_LD_20_RN_9_RD_12_1.png"]],"dist500_C":[["C_Dist_500_LN_10_LD_13_RN_7_RD_26_0.png","C_Dist_500_LN_10_LD_15_RN_4_RD_24_0.png","C_Dist_500_LN_12_LD_16_RN_3_RD_12_0.png","C_Dist_500_LN_12_LD_18_RN_4_RD_24_0.png","C_Dist_500_LN_15_LD_18_RN_5_RD_15_0.png","C_Dist_500_LN_15_LD_20_RN_1_RD_4_0.png","C_Dist_500_LN_18_LD_27_RN_1_RD_6_0.png","C_Dist_500_LN_20_LD_24_RN_1_RD_3_0.png","C_Dist_500_LN_20_LD_24_RN_3_RD_9_0.png","C_Dist_500_LN_20_LD_24_RN_7_RD_21_0.png","C_Dist_500_LN_20_LD_28_RN_3_RD_14_0.png","C_Dist_500_LN_21_LD_28_RN_6_RD_24_0.png","C_Dist_500_LN_22_LD_28_RN_2_RD_7_0.png","C_Dist_500_LN_25_LD_30_RN_9_RD_27_0.png","C_Dist_500_LN_4_LD_6_RN_1_RD_6_0.png","C_Dist_500_LN_5_LD_6_RN_2_RD_6_0.png","C_Dist_500_LN_6_LD_9_RN_1_RD_6_0.png","C_Dist_500_LN_7_LD_10_RN_1_RD_5_0.png","C_Dist_500_LN_8_LD_12_RN_1_RD_6_0.png","C_Dist_500_LN_8_LD_12_RN_4_RD_24_0.png"],["C_Dist_500_LN_1_LD_4_RN_12_RD_16_1.png","C_Dist_500_LN_1_LD_4_RN_9_RD_12_1.png","C_Dist_500_LN_1_LD_9_RN_11_RD_18_1.png","C_Dist_500_LN_10_LD_24_RN_22_RD_24_1.png","C_Dist_500_LN_2_LD_12_RN_10_RD_15_1.png","C_Dist_500_LN_2_LD_12_RN_12_RD_18_1.png","C_Dist_500_LN_2_LD_12_RN_4_RD_6_1.png","C_Dist_500_LN_2_LD_24_RN_7_RD_12_1.png","C_Dist_500_LN_2_LD_5_RN_18_RD_20_1.png","C_Dist_500_LN_2_LD_5_RN_9_RD_10_1.png","C_Dist_500_LN_2_LD_8_RN_12_RD_16_1.png","C_Dist_500_LN_2_LD_8_RN_21_RD_28_1.png","C_Dist_500_LN_3_LD_10_RN_4_RD_5_1.png","C_Dist_500_LN_3_LD_12_RN_15_RD_20_1.png","C_Dist_500_LN_3_LD_30_RN_6_RD_10_1.png","C_Dist_500_LN_3_LD_8_RN_14_RD_16_1.png","C_Dist_500_LN_4_LD_16_RN_15_RD_20_1.png","C_Dist_500_LN_4_LD_24_RN_12_RD_18_1.png","C_Dist_500_LN_5_LD_14_RN_6_RD_7_1.png","C_Dist_500_LN_7_LD_21_RN_20_RD_24_1.png","C_Dist_500_LN_7_LD_28_RN_12_RD_16_1.png","C_Dist_500_LN_7_LD_28_RN_9_RD_12_1.png","C_Dist_500_LN_9_LD_27_RN_20_RD_24_1.png"]],"dist500_I":[["I_Dist_500_LN_2_LD_3_RN_4_RD_24_0.png","I_Dist_500_LN_5_LD_6_RN_6_RD_18_0.png","I_Dist_500_LN_7_LD_8_RN_9_RD_24_0.png"],["I_Dist_500_LN_7_LD_21_RN_5_RD_6_1.png"]],"dist500_S":[["E_Dist_500_LN_6_LD_8_RN_6_RD_24_0.png"],["E_Dist_500_LN_2_LD_12_RN_2_RD_3_1.png","E_Dist_500_LN_6_LD_24_RN_6_RD_8_1.png"]]}},{"start_time":1551901147041,"click_time":1551901152271,"finger_time":1551901151731,"fix_duration":1488.2325193954687,"trial":1,"RT":4690,"MT":540,"sideResp":1,"stimulus":[],"xmouse":[821,821,821,821,821,821,821,821,821,821,821,821,821,821,821,821,821,821,821,821,821,821,821,821,821,821,821,821,821,821,821,821,821,821,821,821,821,821,821,821,821,821,821,821,821,821,821,821,821,821,821,821,821,821,821,821,821,821,821,821,821,821,821,821,821,821,821,821,821,821,821,821,821,821,821,821,821,821,821,821,821,821,816,812,808,804,804,804,804,803,805,806,806,806,806,806,806,806,806,806,806,806,806,806,806,806,806,806,806,806,805,805,805,805,805,805,805,804,804,804,804,804,804,804,804,804,804,804,804,804,804,804,804,804,804,804,804,804,804,804,804,804,804,804,804,804,804,804,804,804,804,804,804,804,804,804,804,804,804,804,804,804,804,804,804,804,804,804,804,804,804,804,804,804,804,804,804,804,804,804,804,804,804,804,804,804,804,804,804,804,804,804,804,804,804,804,804,804,804,804,804,804,804,804,804,804,804,804,804,804,804,804,804,804,804,804,804,804,804,804,804,804,804,802,801,798,796,796,796,796,794,792,790,785,768,752,723,691,663,616,605,595,586,579,573,552,543,538,535,534,529,526,524,523,523,523,521,520,519,516,514,511],"ymouse":[513,513,513,513,513,513,513,513,513,513,513,513,513,513,513,513,513,513,513,513,513,513,513,513,513,513,513,513,513,513,513,513,513,513,513,513,513,513,513,513,513,513,513,513,513,513,513,513,513,513,513,513,513,513,513,513,513,513,513,513,513,513,513,513,513,513,513,513,513,513,513,513,513,513,513,513,513,513,513,513,513,513,511,507,503,498,498,498,498,499,507,509,510,510,510,510,512,513,514,514,514,514,514,514,514,516,516,516,516,517,517,517,517,517,517,517,517,518,518,518,518,518,518,518,518,518,518,518,518,518,518,518,518,518,518,518,518,518,518,518,518,518,518,518,518,518,518,518,518,518,518,518,518,518,518,518,518,518,518,518,518,518,518,518,518,518,518,518,518,518,518,518,518,518,518,518,518,518,518,518,518,518,518,518,518,518,518,518,518,518,518,518,518,518,518,518,518,518,518,518,518,518,518,518,518,518,518,518,518,518,518,518,518,518,518,518,518,518,518,518,518,518,518,517,515,510,508,508,507,507,505,503,501,496,476,459,435,401,362,287,267,250,232,215,199,159,147,139,133,131,126,123,122,120,119,118,115,112,109,106,103,99],"timestamp_mouse":[12,36,50,69,90,111,129,150,169,189,211,230,249,269,290,311,330,349,370,390,410,429,449,469,489,509,529,549,570,589,610,629,649,669,689,709,730,750,769,789,810,829,849,870,889,910,929,950,969,989,1010,1031,1050,1071,1090,1110,1129,1149,1169,1189,1210,1229,1249,1269,1290,1310,1330,1351,1369,1390,1411,1429,1449,1469,1490,1511,1530,1551,1569,1590,1609,1629,1649,1670,1689,1710,1729,1749,1769,1789,1810,1829,1849,1869,1889,1909,1930,1949,1970,1990,2010,2030,2049,2070,2090,2111,2130,2150,2169,2189,2211,2230,2249,2269,2290,2309,2330,2349,2369,2391,2409,2429,2450,2469,2490,2510,2530,2549,2569,2589,2611,2629,2649,2670,2689,2710,2729,2749,2769,2789,2811,2830,2851,2870,2890,2909,2929,2949,2969,2991,3010,3029,3049,3069,3089,3110,3129,3150,3170,3190,3209,3230,3249,3269,3289,3310,3329,3349,3369,3390,3411,3429,3449,3469,3489,3511,3530,3550,3569,3589,3610,3629,3649,3669,3689,3711,3729,3750,3769,3789,3811,3830,3850,3869,3889,3910,3929,3949,3969,3989,4010,4030,4050,4070,4090,4111,4129,4149,4170,4189,4210,4229,4249,4269,4290,4311,4330,4351,4370,4389,4410,4429,4451,4469,4489,4509,4529,4549,4569,4589,4610,4629,4649,4670,4689,4709,4730,4750,4770,4791,4810,4830,4849,4869,4890,4909,4930,4950,4970,4990,5010,5029,5049,5069,5090,5109,5130,5150,5170,5191,5209,5230],"xSR":741.5,"ySR":481,"xT1":424.9,"yT1":0,"xT2":1058.1,"yT2":0,"toosoon":0,"cond_shown":"Congruent","ratio_trial":100,"L_num":12,"L_den":30,"R_num":13,"R_den":26,"correct_side":2,"subjID":"alejandrocala7","gender":"0","school":"2019","age":null},{"start_time":1551901154504,"click_time":1551901156191,"finger_time":1551901155891,"fix_duration":992.8964996410422,"trial":2,"RT":1387,"MT":300,"sideResp":2,"stimulus":[],"xmouse":[790,790,790,790,790,790,790,790,790,790,790,790,790,790,790,790,790,790,790,790,790,790,790,790,790,790,790,790,790,790,790,790,790,790,790,790,790,790,790,790,790,790,790,790,790,790,790,790,790,790,790,790,790,790,790,790,790,790,790,790,790,790,790,790,790,790,790,796,815,861,919,984,993,999,1002,1006,1022,1030,1039,1045,1050,1063,1071,1081,1087],"ymouse":[511,511,511,511,511,511,511,511,511,511,511,511,511,511,511,511,511,511,511,511,511,511,511,511,511,511,511,511,511,511,511,511,511,511,511,511,511,511,511,511,511,511,511,511,511,511,511,511,511,511,511,511,511,511,511,511,511,511,511,511,511,511,511,511,511,511,511,511,487,431,359,273,255,242,236,231,204,192,177,164,151,125,114,101,91],"timestamp_mouse":[14,41,46,66,87,107,126,148,166,187,206,227,248,266,287,307,327,348,366,386,407,426,448,467,486,506,526,547,567,586,606,627,646,666,686,706,726,746,766,786,806,826,847,866,887,907,926,946,966,986,1006,1027,1046,1066,1087,1107,1126,1146,1167,1187,1207,1227,1246,1266,1287,1306,1327,1346,1366,1387,1407,1427,1446,1467,1487,1506,1528,1546,1566,1587,1607,1627,1646,1666,1686],"xSR":741.5,"ySR":481,"xT1":424.9,"yT1":0,"xT2":1058.1,"yT2":0,"toosoon":0,"cond_shown":"Incongruent","ratio_trial":100,"L_num":9,"L_den":15,"R_num":13,"R_den":26,"correct_side":1,"subjID":"alejandrocala7","gender":"0","school":"2019","age":null},{"start_time":1551901157942,"click_time":1551901159750,"finger_time":1551901159550,"fix_duration":250,"trial":3,"RT":1608,"MT":200,"sideResp":1,"stimulus":[],"xmouse":[815,815,815,815,815,815,815,815,815,815,815,815,815,815,815,815,815,815,815,815,815,815,815,815,815,815,815,815,815,815,815,815,815,815,815,815,815,815,815,815,815,815,815,815,815,815,815,815,815,815,815,815,815,815,815,815,815,815,815,815,815,815,815,815,815,815,815,815,815,815,815,815,815,815,815,815,815,808,797,786,757,739,717,685,624,602,581,556,536,501,488],"ymouse":[549,549,549,549,549,549,549,549,549,549,549,549,549,549,549,549,549,549,549,549,549,549,549,549,549,549,549,549,549,549,549,549,549,549,549,549,549,549,549,549,549,549,549,549,549,549,549,549,549,549,549,549,549,549,549,549,549,549,549,549,549,549,549,549,549,549,549,549,549,549,549,549,549,549,549,549,549,538,521,505,471,448,418,371,260,230,204,172,147,107,92],"timestamp_mouse":[10,34,50,68,88,108,129,149,168,188,208,228,249,269,288,308,328,349,368,388,410,428,448,468,488,508,529,548,568,589,609,628,648,668,689,708,728,749,769,788,809,828,848,868,888,910,929,948,968,988,1009,1028,1049,1068,1088,1110,1129,1148,1168,1188,1208,1228,1248,1268,1289,1309,1328,1348,1368,1388,1408,1428,1450,1468,1488,1508,1528,1548,1568,1589,1608,1628,1648,1669,1690,1708,1729,1748,1769,1789,1808],"xSR":741.5,"ySR":481,"xT1":424.9,"yT1":0,"xT2":1058.1,"yT2":0,"toosoon":0,"cond_shown":"Congruent","ratio_trial":200,"L_num":12,"L_den":20,"R_num":6,"R_den":15,"correct_side":1,"subjID":"alejandrocala7","gender":"0","school":"2019","age":null},{"start_time":1551901161351,"click_time":1551901162771,"finger_time":1551901162650,"fix_duration":639.9462510502442,"trial":4,"RT":1299,"MT":121,"sideResp":2,"stimulus":[],"xmouse":[808,808,808,808,808,808,808,808,808,808,808,808,808,808,808,808,808,808,808,808,808,808,808,808,808,808,808,808,808,808,808,808,808,808,808,808,808,808,808,808,808,808,809,812,822,833,834,834,834,834,834,834,833,832,831,830,829,829,829,828,828,828,828,830,836,868,900,933,959,1028,1056,1066],"ymouse":[524,524,524,524,524,524,524,524,524,524,524,524,524,524,524,524,524,524,524,524,524,524,524,524,524,524,524,524,524,524,524,524,524,524,524,524,524,524,524,524,524,524,520,518,507,496,495,495,495,495,495,496,497,499,501,503,504,504,504,505,505,505,505,503,494,438,387,333,266,112,45,18],"timestamp_mouse":[10,34,40,59,79,101,119,139,159,181,201,219,239,259,279,300,320,339,359,379,399,419,439,459,480,501,520,539,559,579,600,620,640,660,679,700,720,739,760,779,801,821,839,859,880,901,921,939,959,980,1000,1019,1039,1059,1080,1099,1120,1139,1159,1180,1201,1219,1239,1259,1279,1299,1319,1340,1359,1380,1399,1420],"xSR":741.5,"ySR":481,"xT1":424.9,"yT1":0,"xT2":1058.1,"yT2":0,"toosoon":0,"cond_shown":"Congruent","ratio_trial":300,"L_num":1,"L_den":3,"R_num":19,"R_den":30,"correct_side":2,"subjID":"alejandrocala7","gender":"0","school":"2019","age":null},{"start_time":1551901164710,"click_time":1551901168850,"finger_time":1551901167331,"fix_duration":1057.755375844628,"trial":5,"RT":2621,"MT":1519,"sideResp":2,"stimulus":[],"xmouse":[770,770,770,770,770,770,770,770,770,770,770,770,770,770,770,770,770,770,770,770,770,770,770,770,770,770,770,769,769,769,769,769,769,769,769,769,769,769,769,769,769,769,769,769,769,769,769,769,769,769,769,769,769,769,769,769,769,769,769,769,769,769,769,769,769,769,769,769,769,769,769,769,769,769,769,769,769,769,769,769,769,769,769,769,769,769,769,769,769,769,769,769,769,769,769,769,769,769,769,767,767,767,767,767,767,767,767,767,767,767,767,767,767,767,767,767,767,767,767,767,767,767,767,767,767,768,769,771,773,779,789,814,833,850,865,872,877,879,879,879,879,879,879,879,882,891,940,957,969,976,979,982,983,983,984,984,985,986,986,987,987,987,987,981,965,941,815,783,768,761,759,756,756,761,774,793,858,883,907,933,957,977,979,981,981,981,979,978,979,981,984,992,1021,1032,1038,1043,1048,1059,1061,1063,1065,1066,1066,1066,1065,1065,1066,1095],"ymouse":[527,527,527,527,527,527,527,527,527,527,527,527,527,527,527,527,527,527,527,527,527,527,527,527,527,527,527,527,527,527,527,527,527,527,527,527,527,527,527,527,527,527,527,527,527,527,527,527,527,527,527,527,527,527,527,527,527,527,527,527,527,527,527,527,527,527,527,527,527,527,527,527,527,527,527,527,527,527,527,527,527,527,527,527,527,527,527,527,527,527,527,527,527,527,527,527,527,527,527,527,527,527,527,527,527,527,527,527,527,527,527,527,527,527,527,527,527,527,527,527,527,527,526,526,524,522,521,518,515,509,501,479,464,451,440,434,429,421,418,416,414,406,401,395,386,371,330,317,305,296,289,284,280,278,276,274,271,269,268,266,265,264,262,261,258,255,244,237,231,227,226,224,223,221,219,215,210,210,210,210,210,204,200,193,182,174,166,156,154,151,149,146,142,140,140,140,140,140,139,138,136,134,127,125,120,116,108,46],"timestamp_mouse":[12,34,42,60,81,101,121,140,161,180,200,221,240,260,280,300,321,342,362,382,400,420,441,460,481,500,521,541,560,582,601,620,640,660,680,701,720,741,760,781,801,820,842,861,881,900,921,940,960,981,1000,1021,1042,1060,1080,1101,1121,1141,1160,1181,1202,1221,1242,1260,1280,1300,1321,1340,1362,1381,1400,1420,1440,1461,1480,1500,1520,1541,1561,1580,1600,1621,1642,1660,1680,1701,1721,1741,1760,1780,1801,1821,1841,1860,1880,1900,1920,1940,1960,1980,2001,2021,2041,2060,2080,2101,2120,2141,2161,2181,2200,2220,2242,2260,2280,2300,2320,2342,2361,2380,2401,2420,2441,2461,2481,2501,2520,2541,2560,2581,2601,2621,2640,2660,2681,2700,2720,2740,2760,2781,2800,2822,2840,2860,2880,2901,2921,2940,2961,2981,3000,3021,3040,3061,3081,3100,3121,3140,3160,3180,3200,3221,3240,3261,3280,3300,3321,3340,3361,3380,3400,3421,3440,3462,3481,3500,3522,3540,3560,3581,3601,3621,3640,3661,3681,3701,3720,3740,3760,3781,3800,3820,3840,3860,3880,3901,3920,3940,3960,3980,4000,4021,4040,4061,4080,4100,4120,4140],"xSR":741.5,"ySR":481,"xT1":424.9,"yT1":0,"xT2":1058.1,"yT2":0,"toosoon":0,"cond_shown":"Congruent","ratio_trial":200,"L_num":13,"L_den":26,"R_num":14,"R_den":20,"correct_side":2,"subjID":"alejandrocala7","gender":"0","school":"2019","age":null},{"start_time":1551901170751,"click_time":1551901172211,"finger_time":1551901171911,"fix_duration":918.8374169498372,"trial":6,"RT":1160,"MT":300,"sideResp":1,"stimulus":[],"xmouse":[813,813,813,813,813,813,813,813,813,813,813,813,813,813,813,813,813,813,813,813,813,813,813,813,813,813,813,813,813,813,813,813,813,813,813,813,813,813,813,813,813,813,813,813,813,813,813,813,813,813,813,813,813,813,810,782,767,748,732,698,680,662,635,600,559,504,499,497,494,486,481,474,463,454],"ymouse":[525,525,525,525,525,525,525,525,525,525,525,525,525,525,525,525,525,525,525,525,525,525,525,525,525,525,525,525,525,525,525,525,525,525,525,525,525,525,525,525,525,525,525,525,525,525,525,525,525,525,525,525,525,525,525,523,521,516,508,485,469,451,413,364,297,183,166,158,151,137,128,117,106,99],"timestamp_mouse":[3,19,39,59,79,100,119,139,159,179,199,220,239,260,280,300,320,339,359,379,400,420,439,459,479,499,519,539,560,580,599,619,640,660,679,700,719,740,759,779,799,819,840,860,879,901,919,940,959,980,999,1020,1039,1060,1079,1099,1120,1139,1160,1180,1199,1220,1240,1259,1279,1299,1319,1339,1360,1381,1399,1419,1439,1460],"xSR":741.5,"ySR":481,"xT1":424.9,"yT1":0,"xT2":1058.1,"yT2":0,"toosoon":0,"cond_shown":"Congruent","ratio_trial":300,"L_num":11,"L_den":22,"R_num":1,"R_den":5,"correct_side":1,"subjID":"alejandrocala7","gender":"0","school":"2019","age":null},{"start_time":1551901174125,"click_time":1551901175870,"finger_time":1551901175451,"fix_duration":1194.5552031040752,"trial":7,"RT":1326,"MT":419,"sideResp":1,"stimulus":[],"xmouse":[808,807,807,807,806,806,806,806,806,806,806,806,806,806,806,806,806,806,806,806,806,806,806,806,806,806,806,806,806,806,806,806,806,806,806,806,806,806,806,806,806,806,806,806,806,806,806,806,806,806,806,806,806,806,806,806,806,806,806,806,806,806,806,806,805,796,740,713,686,667,650,643,639,636,626,599,588,579,565,548,508,499,494,491,491,491,491,492],"ymouse":[528,529,529,529,529,529,529,529,529,529,529,529,529,529,529,529,529,529,529,529,529,529,529,529,529,529,529,529,529,529,529,529,529,529,529,529,529,529,529,529,529,529,529,529,529,529,529,529,529,529,529,529,529,529,529,529,529,529,529,529,529,529,529,529,529,529,512,500,483,466,434,409,384,356,317,219,191,178,164,151,123,117,112,109,108,108,103,97],"timestamp_mouse":[13,35,47,65,85,105,126,145,165,186,205,226,247,265,285,306,326,347,367,385,405,426,445,465,486,506,526,545,565,585,606,627,645,665,685,705,725,745,765,786,806,825,845,865,885,906,925,945,965,986,1006,1025,1045,1065,1085,1105,1125,1146,1165,1185,1206,1226,1247,1265,1285,1306,1326,1345,1365,1385,1407,1425,1445,1466,1486,1506,1525,1545,1565,1585,1606,1625,1645,1665,1686,1706,1726,1745],"xSR":741.5,"ySR":481,"xT1":424.9,"yT1":0,"xT2":1058.1,"yT2":0,"toosoon":0,"cond_shown":"Incongruent","ratio_trial":300,"L_num":4,"L_den":20,"R_num":2,"R_den":4,"correct_side":2,"subjID":"alejandrocala7","gender":"0","school":"2019","age":null},{"start_time":1551901194881,"click_time":1551901196570,"finger_time":1551901196331,"fix_duration":1468.0655618502628,"trial":8,"RT":1450,"MT":239,"sideResp":1,"stimulus":[],"xmouse":[802,802,802,802,802,802,802,802,802,802,802,802,802,802,802,802,802,802,802,802,802,802,802,802,802,802,802,802,802,802,802,802,802,802,802,802,802,802,802,802,802,802,802,802,802,802,802,802,802,802,802,802,802,802,802,802,802,802,802,802,802,802,802,802,802,802,802,802,802,802,802,802,776,696,635,623,634,636,626,609,581,564,545,518,483],"ymouse":[498,498,498,498,498,498,498,498,498,498,498,498,498,498,498,498,498,498,498,498,498,498,498,498,498,498,498,498,498,498,498,498,498,498,498,498,498,498,498,498,498,498,498,498,498,498,498,498,498,498,498,498,498,498,498,498,498,498,498,498,498,498,498,498,498,498,498,498,498,498,498,498,475,404,345,315,295,290,278,260,228,196,154,107,71],"timestamp_mouse":[14,36,51,69,89,110,130,149,169,189,210,231,250,270,289,310,329,349,370,389,409,429,449,470,490,510,529,549,571,590,609,629,650,670,690,710,729,750,771,790,809,829,850,871,889,909,930,951,969,989,1010,1029,1050,1070,1089,1109,1129,1150,1169,1189,1209,1229,1249,1270,1289,1309,1330,1350,1371,1389,1409,1430,1450,1469,1489,1509,1529,1549,1569,1589,1610,1629,1650,1669,1689],"xSR":741.5,"ySR":481,"xT1":424.9,"yT1":0,"xT2":1058.1,"yT2":0,"toosoon":0,"cond_shown":"Congruent","ratio_trial":100,"L_num":11,"L_den":22,"R_num":4,"R_den":10,"correct_side":1,"subjID":"alejandrocala7","gender":"0","school":"2019","age":null},{"start_time":1551901198981,"click_time":1551901200711,"finger_time":1551901200370,"fix_duration":250,"trial":9,"RT":1389,"MT":341,"sideResp":2,"stimulus":[],"xmouse":[810,810,810,810,810,810,810,810,810,810,810,810,810,810,810,810,810,810,810,810,810,810,810,810,810,810,810,810,810,810,810,810,810,810,810,810,810,810,810,810,810,810,810,810,810,810,810,810,810,810,810,810,810,810,810,810,810,810,810,810,810,810,810,810,810,810,810,810,810,816,826,845,913,1000,1024,1038,1047,1081,1111,1141,1152,1157,1159,1159,1156,1149,1142],"ymouse":[498,498,498,498,498,498,498,498,498,498,498,498,498,498,498,498,498,498,498,498,498,498,498,498,498,498,498,498,498,498,498,498,498,498,498,498,498,498,498,498,498,498,498,498,498,498,498,498,498,498,498,498,498,498,498,498,498,498,498,498,498,498,498,498,498,498,498,498,498,478,450,411,325,250,228,212,204,187,165,142,127,114,107,106,104,101,98],"timestamp_mouse":[13,33,50,70,90,110,130,150,171,189,209,231,250,270,289,309,330,350,370,389,410,430,450,469,489,510,530,550,570,589,610,630,650,670,689,709,730,749,770,789,809,830,850,871,890,909,929,950,971,989,1010,1029,1050,1070,1090,1109,1129,1149,1170,1190,1211,1229,1249,1270,1290,1310,1329,1350,1369,1389,1409,1430,1450,1470,1490,1510,1529,1550,1569,1590,1610,1629,1650,1671,1689,1710,1730],"xSR":741.5,"ySR":481,"xT1":424.9,"yT1":0,"xT2":1058.1,"yT2":0,"toosoon":0,"cond_shown":"Congruent","ratio_trial":300,"L_num":4,"L_den":20,"R_num":13,"R_den":26,"correct_side":2,"subjID":"alejandrocala7","gender":"0","school":"2019","age":null},{"start_time":1551901202324,"click_time":1551901204051,"finger_time":1551901203990,"fix_duration":512.5207039939065,"trial":10,"RT":1666,"MT":61,"sideResp":1,"stimulus":[],"xmouse":[787,787,787,787,787,787,787,787,787,787,787,787,787,787,787,787,787,787,787,787,787,787,787,787,787,787,787,787,787,787,787,787,787,787,787,787,787,787,787,787,787,787,787,787,787,787,787,787,787,787,787,787,787,787,787,787,787,787,787,787,787,787,787,787,787,787,787,787,787,787,787,787,787,787,787,787,787,787,787,787,787,779,754,710,653,576,497],"ymouse":[546,546,546,546,546,546,546,546,546,546,546,546,546,546,546,546,546,546,546,546,546,546,546,546,546,546,546,546,546,546,546,546,546,546,546,546,546,546,546,546,546,546,546,546,546,546,546,546,546,546,546,546,546,546,546,546,546,546,546,546,546,546,546,546,546,546,546,546,546,546,546,546,546,546,546,546,546,546,546,546,546,537,502,444,360,249,39],"timestamp_mouse":[14,38,46,66,86,106,127,147,166,187,207,227,246,267,286,307,326,346,367,387,407,427,446,467,487,506,527,546,567,587,606,626,646,666,686,707,727,747,766,786,807,827,846,866,886,906,926,948,967,987,1007,1026,1046,1068,1087,1106,1127,1147,1166,1186,1206,1228,1247,1266,1286,1306,1328,1347,1366,1386,1406,1428,1447,1467,1487,1506,1528,1546,1567,1587,1606,1626,1646,1666,1686,1707,1727],"xSR":741.5,"ySR":481,"xT1":424.9,"yT1":0,"xT2":1058.1,"yT2":0,"toosoon":0,"cond_shown":"Incongruent","ratio_trial":300,"L_num":8,"L_den":10,"R_num":9,"R_den":18,"correct_side":1,"subjID":"alejandrocala7","gender":"0","school":"2019","age":null},{"start_time":1551901206144,"click_time":1551901207931,"finger_time":1551901207550,"fix_duration":930.381206177345,"trial":11,"RT":1406,"MT":381,"sideResp":1,"stimulus":[],"xmouse":[810,810,810,810,810,810,810,810,810,810,810,810,810,810,810,810,810,810,810,810,810,810,810,810,810,810,810,810,810,810,810,810,810,810,810,810,810,810,810,810,810,810,810,810,810,810,810,810,810,810,810,810,810,810,810,810,810,810,810,810,810,810,810,810,810,810,810,810,810,807,775,752,726,703,688,673,671,670,666,644,630,618,609,597,564,554,546,538,531,508],"ymouse":[511,511,511,511,511,511,511,511,511,511,511,511,511,511,511,511,511,511,511,511,511,511,511,511,511,511,511,511,511,511,511,511,511,511,511,511,511,511,511,511,511,511,511,511,511,511,511,511,511,511,511,511,511,511,511,511,511,511,511,511,511,511,511,511,511,511,511,511,511,508,478,454,418,387,359,328,325,320,312,269,246,229,216,204,164,151,140,129,119,89],"timestamp_mouse":[13,32,47,67,86,107,126,146,166,187,208,226,248,267,286,306,326,348,366,386,406,426,447,467,487,508,527,546,566,587,608,626,647,667,687,706,726,746,768,787,807,826,846,868,887,906,926,946,966,986,1007,1027,1046,1066,1087,1108,1127,1146,1167,1187,1207,1226,1246,1267,1287,1308,1327,1346,1366,1387,1406,1426,1446,1466,1487,1507,1526,1546,1567,1587,1606,1626,1647,1667,1688,1706,1727,1747,1766,1787],"xSR":741.5,"ySR":481,"xT1":424.9,"yT1":0,"xT2":1058.1,"yT2":0,"toosoon":0,"cond_shown":"Incongruent","ratio_trial":300,"L_num":4,"L_den":20,"R_num":2,"R_den":4,"correct_side":2,"subjID":"alejandrocala7","gender":"0","school":"2019","age":null},{"start_time":1551901211316,"click_time":1551901220851,"finger_time":1551901219131,"fix_duration":1204.6939759706029,"trial":12,"RT":7815,"MT":1720,"sideResp":2,"stimulus":[],"xmouse":[799,799,799,799,799,799,799,799,799,799,799,799,799,799,799,799,799,799,799,799,799,799,799,799,799,799,799,799,799,799,799,799,799,799,799,799,799,799,799,799,799,799,799,799,799,799,799,799,799,799,799,799,799,799,799,799,799,799,799,799,799,799,799,799,799,799,799,799,799,799,799,799,799,799,799,799,799,799,799,799,799,799,799,799,799,799,799,799,799,799,799,799,799,799,799,799,799,799,799,799,799,799,799,799,799,799,799,799,799,799,799,799,799,799,799,799,799,799,799,799,799,799,799,799,799,799,799,799,799,799,799,799,799,799,799,799,799,799,799,799,799,799,799,799,799,799,799,799,799,799,799,799,799,799,799,799,799,799,799,799,799,799,799,799,799,799,799,799,799,799,799,799,799,799,799,799,799,799,799,799,799,799,799,799,799,799,799,799,799,799,799,799,799,799,799,799,799,799,799,799,799,799,799,799,799,799,799,799,799,799,799,799,799,799,799,799,799,799,799,799,799,799,799,799,799,799,799,799,799,799,799,799,799,799,799,799,799,799,799,799,799,799,799,799,799,799,799,799,799,799,799,799,799,799,799,799,799,799,799,799,799,799,799,799,799,799,799,799,799,799,799,799,799,799,799,799,799,799,799,799,799,799,799,799,799,799,799,799,799,799,799,799,799,799,799,799,799,799,799,799,799,799,799,799,799,799,799,799,799,799,799,799,799,799,799,799,799,799,799,799,799,799,799,799,799,799,799,799,799,799,799,799,799,799,799,799,799,799,799,799,799,799,799,799,799,799,799,799,799,799,799,799,799,799,799,799,799,799,799,799,799,799,799,799,799,799,799,799,799,799,799,799,799,799,799,799,799,799,799,799,799,799,799,799,799,799,799,813,827,839,846,846,846,846,846,842,808,802,798,794,792,788,786,781,771,755,744,744,748,789,827,831,833,833,831,807,802,798,795,793,785,781,780,780,780,780,780,780,786,793,809,815,820,823,824,824,825,822,795,767,731,719,713,711,711,733,753,781,826,899,1110,1167,1174,1174,1168,1104,1051,994,930,853,769,768,781,798,835,934,948,956,970,982,997,1025,1025,1025,1025,1025,1080],"ymouse":[526,526,526,526,526,526,526,526,526,526,526,526,526,526,526,526,526,526,526,526,526,526,526,526,526,526,526,526,526,526,526,526,526,526,526,526,526,526,526,526,526,526,526,526,526,526,526,526,526,526,526,526,526,526,526,526,526,526,526,526,526,526,526,526,526,526,526,526,526,526,526,526,526,526,526,526,526,526,526,526,526,526,526,526,526,526,526,526,526,526,526,526,526,526,526,526,526,526,526,526,526,526,526,526,526,526,526,526,526,526,526,526,526,526,526,526,526,526,526,526,526,526,526,526,526,526,526,526,526,526,526,526,526,526,526,526,526,526,526,526,526,526,526,526,526,526,526,526,526,526,526,526,526,526,526,526,526,526,526,526,526,526,526,526,526,526,526,526,526,526,526,526,526,526,526,526,526,526,526,526,526,526,526,526,526,526,526,526,526,526,526,526,526,526,526,526,526,526,526,526,526,526,526,526,526,526,526,526,526,526,526,526,526,526,526,526,526,526,526,526,526,526,526,526,526,526,526,526,526,526,526,526,526,526,526,526,526,526,526,526,526,526,526,526,526,526,526,526,526,526,526,526,526,526,526,526,526,526,526,526,526,526,526,526,526,526,526,526,526,526,526,526,526,526,526,526,526,526,526,526,526,526,526,526,526,526,526,526,526,526,526,526,526,526,526,526,526,526,526,526,526,526,526,526,526,526,526,526,526,526,526,526,526,526,526,526,526,526,526,526,526,526,526,526,526,526,526,526,526,526,526,526,526,526,526,526,526,526,526,526,526,526,526,526,526,526,526,526,526,526,526,526,526,526,526,526,526,526,526,526,526,526,526,526,526,526,526,526,526,526,526,526,526,526,526,526,526,526,526,526,526,526,526,526,526,526,532,548,565,578,583,583,583,583,583,583,581,577,574,571,569,563,558,546,526,497,468,468,468,479,511,535,556,567,571,571,571,571,569,568,564,562,561,561,561,561,560,558,556,554,550,549,547,547,546,546,545,545,540,532,515,500,481,463,450,429,428,428,428,434,519,571,589,596,600,598,569,519,437,333,165,133,111,97,86,65,55,45,35,26,17,1,1,1,1,1,1],"timestamp_mouse":[14,34,54,74,94,114,134,154,174,195,214,234,255,275,295,315,336,355,374,395,415,435,455,475,494,515,536,556,575,594,615,636,655,675,695,714,735,754,775,795,815,834,854,874,894,914,935,956,975,994,1015,1035,1054,1074,1095,1115,1134,1154,1175,1195,1215,1236,1254,1275,1295,1314,1335,1355,1374,1394,1415,1435,1454,1474,1494,1514,1536,1554,1575,1595,1615,1635,1655,1674,1694,1714,1734,1754,1774,1795,1815,1835,1854,1874,1894,1915,1936,1954,1975,1995,2015,2036,2054,2074,2094,2115,2135,2154,2176,2195,2215,2235,2255,2275,2296,2315,2336,2354,2374,2395,2415,2435,2455,2474,2495,2515,2536,2554,2575,2595,2615,2635,2654,2675,2695,2714,2735,2754,2775,2794,2815,2835,2854,2875,2895,2914,2935,2954,2975,2995,3015,3035,3054,3075,3095,3114,3135,3155,3174,3194,3214,3236,3256,3275,3294,3314,3336,3354,3374,3394,3415,3436,3455,3474,3494,3515,3536,3554,3575,3595,3616,3635,3654,3676,3695,3714,3735,3755,3775,3796,3814,3835,3855,3875,3895,3914,3935,3955,3975,3994,4014,4035,4054,4075,4095,4115,4135,4154,4174,4194,4215,4235,4254,4275,4294,4314,4336,4355,4375,4395,4415,4435,4454,4475,4494,4515,4536,4555,4575,4594,4615,4634,4654,4675,4695,4715,4734,4754,4774,4794,4815,4835,4855,4875,4895,4915,4935,4954,4974,4995,5015,5036,5055,5074,5094,5114,5136,5155,5176,5194,5216,5236,5254,5274,5295,5314,5335,5355,5376,5394,5415,5436,5456,5475,5494,5515,5534,5554,5574,5594,5614,5636,5655,5674,5694,5715,5734,5754,5775,5795,5815,5834,5854,5874,5895,5915,5935,5954,5976,5995,6015,6035,6055,6075,6094,6115,6136,6154,6174,6194,6214,6236,6256,6274,6294,6315,6334,6354,6375,6395,6416,6434,6455,6475,6495,6515,6535,6555,6574,6594,6615,6635,6655,6674,6694,6714,6734,6754,6774,6794,6814,6835,6855,6875,6895,6915,6934,6955,6974,6994,7014,7036,7055,7075,7095,7115,7136,7154,7174,7194,7214,7236,7255,7274,7294,7316,7336,7355,7375,7394,7414,7435,7454,7474,7495,7515,7535,7554,7575,7595,7614,7636,7655,7674,7694,7716,7736,7754,7774,7795,7815,7834,7855,7874,7894,7915,7934,7954,7974,7994,8014,8034,8054,8075,8095,8114,8135,8156,8175,8195,8215,8234,8255,8275,8295,8315,8335,8354,8374,8395,8415,8434,8455,8474,8494,8514,8536,8554,8574,8595,8615,8634,8654,8674,8695,8715,8734,8754,8775,8795,8814,8834,8855,8875,8895,8916,8934,8955,8974,8994,9015,9035,9054,9074,9095,9114,9135,9155,9176,9194,9215,9234,9255,9274,9294,9315,9334,9354,9374,9394,9414,9434,9455,9475,9496,9515,9535],"xSR":741.5,"ySR":481,"xT1":424.9,"yT1":0,"xT2":1058.1,"yT2":0,"toosoon":0,"cond_shown":"Congruent","ratio_trial":200,"L_num":21,"L_den":30,"R_num":2,"R_den":4,"correct_side":1,"subjID":"alejandrocala7","gender":"0","school":"2019","age":null},{"start_time":1551901223003,"click_time":1551901224671,"finger_time":1551901224311,"fix_duration":1430.836854074245,"trial":13,"RT":1308,"MT":360,"sideResp":1,"stimulus":[],"xmouse":[799,799,799,799,799,799,799,799,799,799,799,799,799,799,799,799,799,799,799,799,799,799,799,799,799,799,799,799,799,799,799,799,799,799,799,799,799,799,799,799,799,799,799,799,799,799,799,799,799,799,799,799,799,799,799,799,799,799,799,799,799,799,799,799,785,760,663,638,630,627,627,626,619,610,598,586,565,557,553,547,542,538,530,522],"ymouse":[527,527,527,527,527,527,527,527,527,527,527,527,527,527,527,527,527,527,527,527,527,527,527,527,527,527,527,527,527,527,527,527,527,527,527,527,527,527,527,527,527,527,527,527,527,527,527,527,527,527,527,527,527,527,527,527,527,527,527,527,527,527,527,527,495,455,282,232,209,198,193,183,150,132,119,109,102,101,100,98,98,97,96,95],"timestamp_mouse":[13,40,47,67,87,108,128,148,168,188,208,227,247,267,287,307,327,347,367,387,407,428,448,467,489,507,527,548,568,588,607,627,649,668,688,708,728,749,767,789,808,828,847,867,887,907,928,947,968,988,1008,1028,1048,1068,1088,1107,1127,1147,1167,1187,1208,1227,1247,1267,1287,1308,1328,1347,1367,1387,1407,1427,1447,1467,1487,1508,1529,1547,1567,1587,1607,1628,1647,1668],"xSR":741.5,"ySR":481,"xT1":424.9,"yT1":0,"xT2":1058.1,"yT2":0,"toosoon":0,"cond_shown":"Congruent","ratio_trial":200,"L_num":15,"L_den":25,"R_num":4,"R_den":10,"correct_side":1,"subjID":"alejandrocala7","gender":"0","school":"2019","age":null},{"start_time":1551901226720,"click_time":1551901228411,"finger_time":1551901227950,"fix_duration":1149.6965272438933,"trial":14,"RT":1230,"MT":461,"sideResp":2,"stimulus":[],"xmouse":[820,820,820,820,820,820,820,820,820,820,820,820,820,820,820,820,820,820,820,820,820,820,820,820,820,820,820,820,820,820,820,820,820,820,820,820,820,820,820,820,820,820,820,820,820,820,820,820,820,820,820,820,820,820,820,820,820,820,821,821,840,859,879,904,918,933,960,975,991,1005,1013,1016,1016,1016,1017,1021,1022,1023,1024,1025,1029,1034,1042,1050,1059],"ymouse":[533,533,533,533,533,533,533,533,533,533,533,533,533,533,533,533,533,533,533,533,533,533,533,533,533,533,533,533,533,533,533,533,533,533,533,533,533,533,533,533,533,533,533,533,533,533,533,533,533,533,533,533,533,533,533,533,533,533,533,533,489,445,397,367,337,303,267,252,240,229,220,214,214,214,213,192,170,159,152,147,134,122,108,93,79],"timestamp_mouse":[19,52,52,70,91,111,131,150,171,190,210,230,251,270,290,311,332,351,371,390,412,431,450,470,490,511,532,550,570,591,610,631,651,670,691,711,731,750,770,791,811,832,851,870,891,911,931,950,970,991,1011,1032,1052,1070,1090,1110,1131,1150,1170,1190,1211,1230,1251,1270,1290,1311,1331,1350,1371,1391,1411,1430,1451,1470,1490,1511,1530,1551,1571,1591,1611,1630,1651,1670,1691],"xSR":741.5,"ySR":481,"xT1":424.9,"yT1":0,"xT2":1058.1,"yT2":0,"toosoon":0,"cond_shown":"Incongruent","ratio_trial":100,"L_num":3,"L_den":5,"R_num":11,"R_den":22,"correct_side":1,"subjID":"alejandrocala7","gender":"0","school":"2019","age":null},{"start_time":1551901236103,"click_time":1551901237810,"finger_time":1551901237451,"fix_duration":691.9173951136279,"trial":15,"RT":1348,"MT":359,"sideResp":1,"stimulus":[],"xmouse":[814,814,814,814,814,814,814,814,814,814,814,814,814,814,814,814,814,814,814,814,814,814,814,814,814,814,814,814,814,814,814,814,814,814,814,814,814,814,814,814,814,814,814,814,814,814,814,814,814,814,814,814,814,814,814,814,814,814,814,814,814,814,814,814,814,812,803,722,675,643,622,598,586,572,558,540,525,525,525,524,517,492,482,476,472,470],"ymouse":[543,543,543,543,543,543,543,543,543,543,543,543,543,543,543,543,543,543,543,543,543,543,543,543,543,543,543,543,543,543,543,543,543,543,543,543,543,543,543,543,543,543,543,543,543,543,543,543,543,543,543,543,543,543,543,543,543,543,543,543,543,543,543,543,543,542,525,431,380,340,309,277,264,246,229,204,178,177,176,173,160,129,117,107,100,94],"timestamp_mouse":[14,28,49,68,87,108,128,149,168,189,207,227,248,268,287,307,328,349,368,387,408,428,449,469,488,507,527,549,567,587,607,628,649,668,687,707,727,748,768,787,807,827,848,868,889,907,927,948,968,988,1008,1028,1048,1068,1087,1107,1127,1147,1167,1187,1207,1227,1249,1267,1287,1307,1328,1348,1367,1388,1407,1428,1447,1467,1487,1507,1529,1547,1568,1587,1607,1628,1647,1669,1688,1707],"xSR":741.5,"ySR":481,"xT1":424.9,"yT1":0,"xT2":1058.1,"yT2":0,"toosoon":0,"cond_shown":"Congruent","ratio_trial":100,"L_num":9,"L_den":15,"R_num":8,"R_den":16,"correct_side":1,"subjID":"alejandrocala7","gender":"0","school":"2019","age":null},{"start_time":1551901240124,"click_time":1551901241831,"finger_time":1551901241511,"fix_duration":1410.0127280392862,"trial":16,"RT":1387,"MT":320,"sideResp":1,"stimulus":[],"xmouse":[802,802,802,802,802,802,802,802,802,802,802,802,802,802,802,802,802,802,802,802,802,802,802,802,802,802,802,802,802,802,802,802,802,802,802,802,802,802,802,802,802,802,802,802,802,802,802,802,802,802,802,802,802,802,802,802,802,802,802,802,802,802,802,802,802,802,802,799,784,755,659,589,536,518,516,516,516,516,516,513,509,493,485,481,479,477],"ymouse":[516,516,516,516,516,516,516,516,516,516,516,516,516,516,516,516,516,516,516,516,516,516,516,516,516,516,516,516,516,516,516,516,516,516,516,516,516,516,516,516,516,516,516,516,516,516,516,516,516,516,516,516,516,516,516,516,516,516,516,516,516,516,516,516,516,516,516,515,487,448,330,268,227,212,210,210,210,210,208,199,190,155,134,115,100,87],"timestamp_mouse":[15,38,47,67,86,107,126,147,167,187,207,227,246,266,286,306,327,346,367,386,406,426,446,467,486,507,528,546,567,587,607,628,647,667,687,707,727,746,767,787,807,828,846,867,886,907,927,948,967,987,1007,1027,1047,1066,1086,1107,1127,1147,1166,1186,1207,1228,1246,1266,1286,1307,1327,1346,1367,1387,1407,1426,1447,1467,1487,1507,1527,1546,1567,1586,1606,1626,1646,1667,1688,1707],"xSR":741.5,"ySR":481,"xT1":424.9,"yT1":0,"xT2":1058.1,"yT2":0,"toosoon":0,"cond_shown":"Incongruent","ratio_trial":300,"L_num":13,"L_den":26,"R_num":12,"R_den":15,"correct_side":2,"subjID":"alejandrocala7","gender":"0","school":"2019","age":null},{"start_time":1551901245103,"click_time":1551901246932,"finger_time":1551901246730,"fix_duration":951.6810711228047,"trial":17,"RT":1627,"MT":202,"sideResp":1,"stimulus":[],"xmouse":[774,774,774,774,774,774,774,774,774,774,774,774,774,774,774,774,774,774,774,774,774,774,774,774,774,774,774,774,774,774,774,774,774,774,774,774,774,774,774,774,774,774,774,774,774,774,774,774,774,774,774,774,774,774,774,774,774,774,774,774,774,774,774,774,774,774,774,774,774,774,773,768,767,767,767,767,767,767,767,769,768,734,619,577,566,565,562,544,531,519,510,496],"ymouse":[569,569,569,569,569,569,569,569,569,569,569,569,569,569,569,569,569,569,569,569,569,569,569,569,569,569,569,569,569,569,569,569,569,569,569,569,569,569,569,569,569,569,569,569,569,569,569,569,569,569,569,569,569,569,569,569,569,569,569,569,569,569,569,569,569,569,569,569,569,569,567,547,540,537,536,536,536,536,536,532,506,443,277,219,201,197,189,159,141,123,106,87],"timestamp_mouse":[14,40,49,68,88,108,129,149,167,187,207,228,249,269,287,307,327,349,368,388,408,428,449,467,487,507,527,548,568,588,608,627,648,668,687,707,728,748,768,787,807,827,849,868,887,907,928,948,967,987,1007,1027,1049,1068,1088,1107,1128,1148,1168,1188,1207,1228,1249,1267,1287,1308,1328,1349,1367,1387,1407,1427,1447,1468,1488,1507,1528,1548,1567,1588,1608,1627,1647,1667,1687,1708,1727,1748,1767,1788,1808,1829],"xSR":741.5,"ySR":481,"xT1":424.9,"yT1":0,"xT2":1058.1,"yT2":0,"toosoon":0,"cond_shown":"Incongruent","ratio_trial":300,"L_num":4,"L_den":20,"R_num":2,"R_den":4,"correct_side":2,"subjID":"alejandrocala7","gender":"0","school":"2019","age":null},{"start_time":1551901250607,"click_time":1551901252632,"finger_time":1551901252030,"fix_duration":995.2085619876465,"trial":18,"RT":1423,"MT":602,"sideResp":1,"stimulus":[],"xmouse":[799,799,799,799,799,799,799,799,799,799,799,799,799,800,800,800,800,800,800,800,800,800,800,800,800,800,800,800,800,800,800,800,800,800,800,800,800,800,800,800,800,800,800,800,801,801,801,801,801,801,801,801,801,801,801,801,801,801,801,801,801,801,801,801,801,801,801,801,801,796,787,757,754,754,754,754,754,755,760,765,771,779,779,779,775,759,712,690,671,656,637,628,562,527,500,485,472,470,468,465,461,457],"ymouse":[505,505,505,505,505,505,505,505,505,505,505,505,505,505,505,505,505,505,505,505,505,505,505,505,505,505,505,505,505,505,505,506,506,506,506,506,506,506,506,506,506,506,506,506,507,507,507,507,507,507,507,507,507,507,507,507,507,507,507,507,507,507,507,507,507,507,507,507,507,505,496,469,465,465,464,464,464,464,464,462,458,446,441,435,428,414,383,368,354,341,324,316,260,231,208,193,167,152,136,119,106,85],"timestamp_mouse":[14,38,44,63,83,103,123,144,163,184,204,224,243,263,283,303,323,344,363,384,403,423,443,463,483,504,523,543,563,584,603,624,643,663,684,704,723,743,763,784,803,824,843,863,885,903,924,944,963,983,1003,1023,1043,1063,1083,1103,1123,1145,1163,1183,1205,1223,1244,1263,1284,1304,1323,1344,1364,1383,1403,1423,1443,1464,1483,1504,1524,1543,1564,1584,1604,1624,1643,1663,1684,1703,1724,1743,1763,1784,1803,1823,1843,1863,1883,1903,1924,1943,1963,1983,2003,2024],"xSR":741.5,"ySR":481,"xT1":424.9,"yT1":0,"xT2":1058.1,"yT2":0,"toosoon":0,"cond_shown":"Incongruent","ratio_trial":100,"L_num":12,"L_den":24,"R_num":9,"R_den":15,"correct_side":2,"subjID":"alejandrocala7","gender":"0","school":"2019","age":null},{"start_time":1551901257955,"click_time":1551901260330,"finger_time":1551901258390,"fix_duration":961.5988669031286,"trial":19,"RT":435,"MT":1940,"sideResp":1,"stimulus":[],"xmouse":[809,809,809,809,809,809,809,809,809,809,809,809,809,809,809,809,809,809,809,815,831,854,883,929,1140,1222,1271,1298,1323,1329,1329,1329,1329,1329,1329,1329,1325,1317,1278,1247,1190,1125,1054,985,833,793,764,745,730,709,701,695,693,692,699,720,746,774,799,836,843,848,849,850,850,849,846,838,831,814,805,798,792,777,777,777,777,777,777,777,777,777,777,777,777,777,776,773,769,762,762,762,763,778,781,781,781,775,684,605,561,547,541,536,535,535,535,535,534,532,527,519,501,475,414,413,413,416,439],"ymouse":[570,570,570,570,570,570,570,570,570,570,570,570,570,570,570,570,570,570,570,570,570,570,570,581,641,665,679,687,694,695,695,695,695,695,695,695,695,695,695,695,695,695,688,672,628,613,602,593,585,568,561,556,553,545,540,536,532,528,524,519,518,518,518,518,518,518,518,518,518,518,518,518,518,518,518,518,518,518,518,518,518,518,518,518,518,518,513,504,495,485,485,485,485,482,480,472,459,442,346,276,227,199,186,175,174,174,174,174,174,174,171,163,150,129,77,72,69,68,67],"timestamp_mouse":[16,39,57,76,95,116,136,156,175,196,216,235,255,275,295,316,337,356,375,395,416,435,456,476,496,516,537,556,576,595,616,636,657,677,697,716,736,755,776,795,816,836,856,875,896,915,936,955,976,995,1016,1036,1056,1076,1096,1116,1135,1155,1175,1195,1215,1235,1256,1276,1296,1315,1336,1355,1375,1396,1415,1435,1455,1476,1497,1515,1535,1556,1576,1596,1617,1635,1655,1675,1696,1715,1736,1756,1776,1797,1816,1836,1856,1875,1896,1915,1936,1956,1975,1996,2016,2035,2057,2076,2097,2115,2135,2157,2176,2195,2215,2235,2255,2275,2296,2316,2335,2355,2375],"xSR":741.5,"ySR":481,"xT1":424.9,"yT1":0,"xT2":1058.1,"yT2":0,"toosoon":0,"cond_shown":"Congruent","ratio_trial":100,"L_num":11,"L_den":22,"R_num":6,"R_den":15,"correct_side":1,"subjID":"alejandrocala7","gender":"0","school":"2019","age":null},{"start_time":1551901262563,"click_time":1551901264211,"finger_time":1551901263930,"fix_duration":892.8055578602639,"trial":20,"RT":1367,"MT":281,"sideResp":1,"stimulus":[],"xmouse":[809,809,809,809,809,809,809,809,809,809,809,809,809,809,809,809,809,809,809,809,809,809,809,809,809,809,809,809,809,809,809,809,809,809,809,809,809,809,809,809,809,809,809,809,809,809,809,809,809,809,809,809,809,809,809,809,809,809,809,809,809,809,809,809,809,809,808,806,779,747,713,700,693,678,628,593,560,538,528,521,514,498,467],"ymouse":[529,529,529,529,529,529,529,529,529,529,529,529,529,529,529,529,529,529,529,529,529,529,529,529,529,529,529,529,529,529,529,529,529,529,529,529,529,529,529,529,529,529,529,529,529,529,529,529,529,529,529,529,529,529,529,529,529,529,529,529,529,529,529,529,529,529,524,513,448,408,372,357,344,321,263,220,182,161,148,137,128,112,90],"timestamp_mouse":[20,36,47,67,88,107,127,149,168,187,209,227,247,268,289,307,327,347,368,388,407,427,448,468,488,507,528,547,567,587,607,627,648,668,689,709,727,747,767,788,809,828,848,868,889,908,929,948,968,988,1008,1027,1049,1068,1089,1107,1127,1147,1168,1188,1208,1228,1248,1267,1288,1308,1328,1347,1367,1387,1407,1427,1447,1468,1487,1507,1528,1548,1568,1587,1608,1628,1648],"xSR":741.5,"ySR":481,"xT1":424.9,"yT1":0,"xT2":1058.1,"yT2":0,"toosoon":0,"cond_shown":"Congruent","ratio_trial":200,"L_num":21,"L_den":30,"R_num":2,"R_den":4,"correct_side":1,"subjID":"alejandrocala7","gender":"0","school":"2019","age":null},{"start_time":1551901266014,"click_time":1551901268110,"finger_time":1551901267670,"fix_duration":841.5440981228919,"trial":21,"RT":1656,"MT":440,"sideResp":1,"stimulus":[],"xmouse":[827,827,827,827,827,827,827,827,827,827,827,827,827,827,827,827,827,827,827,827,827,827,827,827,827,827,827,827,827,827,827,827,827,827,827,827,827,827,827,827,827,827,827,827,827,827,827,827,827,827,827,827,827,827,827,827,827,827,827,827,827,827,827,827,827,827,827,827,827,827,827,827,827,827,827,827,827,827,827,821,798,780,758,716,675,631,569,552,538,529,521,516,516,522,532,561,570,572,572,570,556,546,539,528,518],"ymouse":[543,543,543,543,543,543,543,543,543,543,543,543,543,543,543,543,543,543,543,543,543,543,543,543,543,543,543,543,543,543,543,543,543,543,543,543,543,543,543,543,543,543,543,543,543,543,543,543,543,543,543,543,543,543,543,543,543,543,543,543,543,543,543,543,543,543,543,543,543,543,543,543,543,543,543,543,543,543,543,536,518,504,478,427,391,342,265,238,217,202,183,164,158,148,138,117,108,101,96,93,87,85,83,81,78],"timestamp_mouse":[17,41,56,76,96,116,136,156,176,196,216,236,257,277,297,316,336,357,377,397,416,436,457,477,498,516,538,556,576,597,616,637,656,678,697,716,736,756,777,797,816,838,857,876,896,916,936,956,977,996,1017,1037,1056,1076,1097,1117,1137,1156,1177,1196,1217,1236,1256,1276,1296,1317,1338,1356,1377,1397,1417,1437,1457,1476,1496,1517,1537,1556,1576,1597,1617,1637,1656,1677,1697,1717,1737,1756,1777,1796,1816,1836,1856,1877,1896,1917,1936,1956,1977,1996,2017,2036,2057,2077,2096],"xSR":741.5,"ySR":481,"xT1":424.9,"yT1":0,"xT2":1058.1,"yT2":0,"toosoon":0,"cond_shown":"Congruent","ratio_trial":300,"L_num":20,"L_den":25,"R_num":13,"R_den":26,"correct_side":1,"subjID":"alejandrocala7","gender":"0","school":"2019","age":null},{"start_time":1551901270022,"click_time":1551901271691,"finger_time":1551901271371,"fix_duration":790.1878178391182,"trial":22,"RT":1349,"MT":320,"sideResp":2,"stimulus":[],"xmouse":[815,815,815,815,815,815,815,815,815,815,815,815,815,815,815,815,815,815,815,815,815,815,815,815,815,815,815,815,815,815,815,815,815,815,815,815,815,815,815,815,815,815,815,815,815,815,815,815,815,815,815,815,815,814,813,813,813,813,812,812,812,812,812,812,812,812,812,813,813,814,834,852,868,888,907,920,941,951,961,980,988,1037,1049,1063],"ymouse":[542,542,542,542,542,542,542,542,542,542,542,542,542,542,542,542,542,542,542,542,542,542,542,542,542,542,542,542,542,542,542,542,542,542,542,542,542,542,542,542,542,542,542,542,542,542,542,542,542,542,542,542,542,541,539,538,536,536,535,535,535,535,535,535,534,531,503,468,432,405,343,313,284,254,232,212,182,172,162,147,140,107,97,89],"timestamp_mouse":[13,40,48,68,88,108,128,149,168,189,208,228,250,268,288,308,329,350,369,388,408,429,449,469,488,509,529,549,570,588,610,628,648,669,689,708,730,750,768,790,809,829,848,870,888,908,929,948,969,989,1009,1029,1048,1068,1088,1108,1129,1148,1169,1189,1208,1229,1248,1268,1288,1308,1328,1349,1369,1388,1410,1428,1448,1469,1488,1509,1528,1548,1569,1590,1609,1628,1648,1668],"xSR":741.5,"ySR":481,"xT1":424.9,"yT1":0,"xT2":1058.1,"yT2":0,"toosoon":0,"cond_shown":"Incongruent","ratio_trial":300,"L_num":13,"L_den":26,"R_num":12,"R_den":15,"correct_side":2,"subjID":"alejandrocala7","gender":"0","school":"2019","age":null},{"start_time":1551901273122,"click_time":1551901274861,"finger_time":1551901274611,"fix_duration":250,"trial":23,"RT":1489,"MT":250,"sideResp":1,"stimulus":[],"xmouse":[799,799,799,799,799,799,799,799,799,799,799,799,799,799,799,799,799,799,799,799,799,799,799,799,799,799,799,799,799,799,799,799,799,799,799,799,799,799,799,799,799,799,798,798,798,798,797,797,797,797,796,796,796,796,796,796,796,796,796,796,796,796,796,796,796,796,796,796,796,796,795,792,789,784,773,767,684,630,584,556,549,549,549,539,523,502,501],"ymouse":[516,516,516,516,516,516,516,516,516,516,516,516,516,516,516,516,516,516,516,516,516,516,516,516,516,516,516,516,516,516,516,516,516,516,516,516,516,516,516,516,516,516,517,517,517,517,517,517,517,517,517,517,517,517,517,517,517,517,517,517,517,517,517,517,517,517,517,517,517,517,516,513,505,492,466,455,333,264,215,179,155,151,147,135,121,101,98],"timestamp_mouse":[13,38,49,68,88,108,129,149,168,189,209,230,248,268,288,308,328,348,368,389,408,428,449,468,488,509,530,548,568,588,609,629,648,668,688,708,729,749,770,789,810,829,848,868,888,908,929,948,968,988,1009,1028,1048,1068,1089,1109,1128,1149,1168,1188,1209,1230,1249,1269,1289,1308,1329,1348,1368,1388,1408,1428,1449,1469,1489,1509,1529,1548,1568,1588,1609,1628,1649,1669,1688,1709,1739],"xSR":741.5,"ySR":481,"xT1":424.9,"yT1":0,"xT2":1058.1,"yT2":0,"toosoon":0,"cond_shown":"Incongruent","ratio_trial":300,"L_num":8,"L_den":10,"R_num":9,"R_den":18,"correct_side":1,"subjID":"alejandrocala7","gender":"0","school":"2019","age":null},{"start_time":1551901276216,"click_time":1551901277990,"finger_time":1551901277350,"fix_duration":283.6124224113556,"trial":24,"RT":1134,"MT":640,"sideResp":2,"stimulus":[],"xmouse":[774,774,774,774,774,774,774,774,774,774,774,774,774,774,774,774,774,774,774,774,774,774,774,774,774,774,774,774,774,774,774,774,774,774,774,774,774,774,774,774,774,774,774,774,774,774,774,774,774,774,775,775,776,778,780,789,837,871,903,923,950,981,1003,1016,1024,1037,1045,1052,1059,1066,1075,1092,1094,1094,1094,1094,1094,1095,1096,1097,1099,1099,1099,1099,1099,1099,1099,1099,1100],"ymouse":[508,508,508,508,508,508,508,508,508,508,508,508,508,508,508,508,508,508,508,508,508,508,508,508,508,508,508,508,508,508,508,508,508,508,508,508,508,508,508,508,508,508,508,508,508,508,508,508,508,508,508,508,508,508,508,502,473,446,419,400,370,327,278,246,225,196,184,172,165,156,145,123,119,117,116,113,111,107,105,103,100,100,100,100,100,100,100,100,98],"timestamp_mouse":[16,35,55,76,95,114,135,154,174,194,215,234,255,275,294,314,335,355,374,394,415,434,455,474,495,515,536,554,574,594,614,636,654,675,695,715,735,754,775,794,814,835,855,875,894,915,935,954,974,994,1015,1036,1054,1074,1094,1114,1134,1155,1174,1194,1215,1234,1254,1274,1294,1315,1334,1355,1374,1394,1415,1435,1454,1475,1496,1515,1534,1554,1574,1594,1615,1636,1656,1674,1694,1714,1735,1754,1774],"xSR":741.5,"ySR":481,"xT1":424.9,"yT1":0,"xT2":1058.1,"yT2":0,"toosoon":0,"cond_shown":"Congruent","ratio_trial":300,"L_num":4,"L_den":20,"R_num":13,"R_den":26,"correct_side":2,"subjID":"alejandrocala7","gender":"0","school":"2019","age":null},{"start_time":1551901279615,"click_time":1551901281332,"finger_time":1551901280870,"fix_duration":682.4674175823488,"trial":25,"RT":1255,"MT":462,"sideResp":1,"stimulus":[],"xmouse":[802,802,802,802,802,802,802,802,802,802,802,802,802,802,802,802,802,802,802,802,802,802,802,802,802,802,802,802,802,802,802,802,802,802,802,802,802,802,802,802,802,802,802,802,802,802,802,802,802,802,801,800,800,800,800,800,799,799,798,797,793,790,786,779,765,747,710,700,696,695,696,697,699,702,705,708,701,688,668,651,605,583,563,545,529,506],"ymouse":[500,500,500,500,500,500,500,500,500,500,500,500,500,500,500,500,500,500,500,500,500,500,500,500,500,500,500,500,500,500,500,500,500,500,500,500,500,500,500,500,500,500,500,500,500,500,500,500,500,501,501,501,501,501,501,501,500,500,499,497,490,486,478,465,444,416,352,332,322,317,312,310,309,304,296,260,237,216,195,182,153,138,126,114,103,88],"timestamp_mouse":[16,35,55,75,95,115,135,155,175,196,216,235,257,276,296,316,337,355,375,395,415,437,456,476,495,516,537,556,575,595,617,637,655,676,695,715,735,756,776,795,815,836,856,876,896,915,936,957,977,995,1016,1035,1055,1075,1096,1115,1136,1155,1176,1196,1216,1235,1255,1276,1296,1316,1335,1357,1376,1396,1416,1435,1455,1475,1495,1517,1535,1556,1576,1596,1617,1637,1656,1676,1695,1717],"xSR":741.5,"ySR":481,"xT1":424.9,"yT1":0,"xT2":1058.1,"yT2":0,"toosoon":0,"cond_shown":"Incongruent","ratio_trial":300,"L_num":13,"L_den":26,"R_num":12,"R_den":15,"correct_side":2,"subjID":"alejandrocala7","gender":"0","school":"2019","age":null},{"start_time":1551901282797,"click_time":1551901284232,"finger_time":1551901283810,"fix_duration":465.52921139617933,"trial":26,"RT":1013,"MT":422,"sideResp":1,"stimulus":[],"xmouse":[820,820,820,820,820,820,820,820,820,820,820,820,820,820,820,820,820,820,820,820,820,820,820,820,820,820,820,820,820,820,820,820,820,820,820,820,820,820,820,820,819,817,810,807,803,801,799,792,785,774,763,735,722,709,693,679,669,654,645,635,626,610,595,583,573,565,547,541,537,534,531,518],"ymouse":[544,544,544,544,544,544,544,544,544,544,544,544,544,544,544,544,544,544,544,544,544,544,544,544,541,540,539,538,537,537,537,537,537,537,537,537,537,537,537,537,535,533,525,521,515,512,508,500,495,487,472,424,402,383,364,347,332,298,279,258,240,214,191,174,158,141,114,106,101,98,94,87],"timestamp_mouse":[14,36,54,73,93,113,133,153,174,194,213,233,253,273,293,313,333,353,373,394,414,434,455,473,493,513,534,554,573,593,614,634,655,673,693,713,734,754,773,793,814,833,854,873,894,914,934,953,973,994,1013,1035,1054,1074,1093,1113,1133,1153,1174,1193,1213,1234,1253,1273,1294,1313,1334,1353,1374,1394,1414,1434],"xSR":741.5,"ySR":481,"xT1":424.9,"yT1":0,"xT2":1058.1,"yT2":0,"toosoon":0,"cond_shown":"Incongruent","ratio_trial":200,"L_num":4,"L_den":30,"R_num":1,"R_den":3,"correct_side":2,"subjID":"alejandrocala7","gender":"0","school":"2019","age":null},{"start_time":1551901290111,"click_time":1551901291631,"finger_time":1551901291051,"fix_duration":1058.4064414986874,"trial":27,"RT":940,"MT":580,"sideResp":2,"stimulus":[],"xmouse":[793,793,793,793,793,793,793,793,793,793,793,793,793,793,793,793,793,793,793,793,793,793,793,793,793,793,793,793,793,793,793,793,793,793,793,793,793,793,793,793,793,793,794,794,806,833,886,896,901,902,908,921,939,958,975,1001,1008,1018,1023,1030,1035,1044,1045,1050,1052,1055,1055,1055,1055,1055,1064,1074,1085,1097,1110,1132],"ymouse":[559,559,559,559,559,559,559,559,559,559,559,559,559,559,559,559,559,559,559,559,559,559,559,559,559,559,559,559,559,559,559,559,559,559,559,559,559,559,559,559,559,559,557,554,535,500,443,436,435,435,432,424,407,389,370,334,319,303,290,276,257,210,190,168,150,129,128,128,128,128,126,121,115,108,102,88],"timestamp_mouse":[20,40,59,79,99,120,141,159,180,200,220,240,259,279,299,320,341,360,379,399,420,440,460,479,500,519,541,560,579,599,620,639,659,679,700,721,740,759,780,800,819,839,860,880,900,919,940,959,980,999,1020,1039,1060,1079,1100,1120,1139,1159,1179,1199,1220,1239,1260,1280,1299,1320,1339,1361,1379,1399,1419,1439,1460,1479,1499,1520],"xSR":741.5,"ySR":481,"xT1":424.9,"yT1":0,"xT2":1058.1,"yT2":0,"toosoon":0,"cond_shown":"Congruent","ratio_trial":300,"L_num":3,"L_den":12,"R_num":11,"R_den":20,"correct_side":2,"subjID":"alejandrocala7","gender":"0","school":"2019","age":null},{"start_time":1551901293144,"click_time":1551901294671,"finger_time":1551901294450,"fix_duration":452.6602930154594,"trial":28,"RT":1306,"MT":221,"sideResp":1,"stimulus":[],"xmouse":[804,804,804,804,804,804,804,804,804,804,804,804,804,804,804,804,804,804,804,804,804,804,804,804,804,804,804,804,804,804,804,804,804,804,804,804,804,804,804,804,804,804,804,804,804,804,804,804,804,804,804,804,804,804,804,804,804,804,804,804,804,804,804,804,804,769,720,654,580,515,433,423,421,421,420,421,427],"ymouse":[491,491,491,491,491,491,491,491,491,491,491,491,491,491,491,491,491,491,491,491,491,491,491,491,491,491,491,491,491,491,491,491,491,491,491,491,491,491,491,491,491,491,491,491,491,491,491,491,491,491,491,491,491,491,491,491,491,491,491,491,491,491,491,491,491,455,403,334,265,201,137,130,129,129,124,104,87],"timestamp_mouse":[13,35,47,67,86,107,126,146,166,188,208,226,246,266,286,307,326,348,366,386,406,428,448,467,486,507,527,546,567,586,607,626,647,667,686,707,726,747,767,786,806,827,846,867,886,906,927,947,967,987,1006,1026,1046,1066,1086,1107,1126,1146,1167,1187,1208,1227,1246,1266,1286,1306,1326,1346,1366,1387,1407,1427,1447,1467,1487,1506,1527],"xSR":741.5,"ySR":481,"xT1":424.9,"yT1":0,"xT2":1058.1,"yT2":0,"toosoon":0,"cond_shown":"Incongruent","ratio_trial":100,"L_num":17,"L_den":30,"R_num":10,"R_den":15,"correct_side":2,"subjID":"alejandrocala7","gender":"0","school":"2019","age":null},{"start_time":1551901301263,"click_time":1551901303651,"finger_time":1551901303010,"fix_duration":250,"trial":29,"RT":1747,"MT":641,"sideResp":2,"stimulus":[],"xmouse":[830,830,830,830,830,830,830,830,830,830,830,830,830,830,830,830,830,830,830,830,830,830,830,830,830,830,830,830,830,830,830,831,831,831,831,831,831,831,831,831,831,831,831,831,831,831,831,831,831,831,831,831,831,831,831,831,831,831,831,831,831,831,831,831,831,831,834,835,837,838,838,838,838,838,838,838,838,838,838,838,838,838,838,838,838,837,830,825,810,804,802,800,800,800,800,800,801,803,843,857,876,892,911,956,978,988,998,1012,1017,1040,1050,1057,1062,1070,1073,1078,1082,1087,1092,1096],"ymouse":[545,544,544,544,544,544,544,544,544,544,544,544,544,544,544,544,544,544,544,544,544,544,544,544,544,544,544,544,544,544,544,543,543,543,543,543,543,543,543,543,543,543,543,543,543,543,543,543,543,543,543,543,543,543,543,543,543,543,543,543,543,543,543,543,543,543,537,536,530,527,527,527,527,527,527,527,527,527,527,527,527,527,527,525,518,506,488,471,427,414,407,403,403,403,403,403,404,406,412,412,404,387,364,291,247,220,198,175,170,151,144,140,136,129,126,123,118,114,105,99],"timestamp_mouse":[14,35,47,68,87,108,128,147,167,189,207,227,247,267,288,307,327,347,368,388,408,427,447,468,488,507,528,547,568,587,607,627,647,667,688,708,729,748,768,788,807,827,847,868,888,907,928,948,967,988,1007,1029,1048,1069,1088,1108,1128,1148,1168,1188,1207,1227,1247,1267,1288,1307,1327,1347,1367,1388,1407,1428,1447,1468,1488,1507,1531,1547,1568,1588,1608,1628,1647,1669,1687,1708,1727,1747,1768,1787,1808,1827,1848,1869,1887,1907,1927,1947,1968,1987,2007,2028,2048,2068,2087,2107,2127,2147,2167,2187,2207,2227,2247,2268,2288,2307,2327,2347,2367,2388],"xSR":741.5,"ySR":481,"xT1":424.9,"yT1":0,"xT2":1058.1,"yT2":0,"toosoon":0,"cond_shown":"Incongruent","ratio_trial":100,"L_num":3,"L_den":9,"R_num":7,"R_den":30,"correct_side":1,"subjID":"alejandrocala7","gender":"0","school":"2019","age":null},{"start_time":1551901305146,"click_time":1551901307090,"finger_time":1551901305350,"fix_duration":254.96229135588567,"trial":30,"RT":204,"MT":1740,"sideResp":1,"stimulus":[],"xmouse":[747,747,747,747,747,747,747,747,746,746,736,687,673,680,721,721,721,721,721,721,722,723,724,736,781,789,790,790,790,790,790,790,791,791,791,791,791,791,791,791,791,791,791,791,791,791,791,791,791,791,791,791,791,791,787,773,767,764,764,795,829,864,892,911,938,946,948,948,949,949,949,950,953,962,976,1059,1071,1076,1076,1077,1050,1028,1014,993,931,900,829,770,723,695,677,677,677,677,677,677,677,442],"ymouse":[552,552,552,552,552,552,552,552,552,553,562,582,582,581,576,576,576,576,576,576,576,576,576,576,561,556,555,555,555,555,555,555,555,555,555,555,555,555,555,555,555,555,555,555,555,555,555,555,555,555,555,555,555,555,550,523,500,473,444,372,332,301,281,264,239,226,224,224,224,224,224,223,220,215,212,211,211,211,211,211,240,247,251,256,261,246,199,136,82,43,10,10,10,10,10,10,10,8],"timestamp_mouse":[10,25,44,65,85,104,125,145,164,184,204,225,244,265,286,304,324,345,365,384,405,426,445,466,485,504,524,544,565,584,605,626,645,664,685,706,725,745,765,784,806,825,844,864,884,906,925,944,964,984,1006,1024,1044,1065,1084,1105,1124,1145,1165,1186,1204,1224,1244,1264,1285,1304,1324,1344,1365,1384,1404,1425,1445,1465,1485,1505,1524,1545,1565,1584,1604,1624,1644,1665,1685,1704,1724,1745,1765,1784,1805,1824,1845,1865,1886,1906,1924,1944],"xSR":741.5,"ySR":481,"xT1":424.9,"yT1":0,"xT2":1058.1,"yT2":0,"toosoon":0,"cond_shown":"Congruent","ratio_trial":100,"L_num":15,"L_den":25,"R_num":13,"R_den":26,"correct_side":1,"subjID":"alejandrocala7","gender":"0","school":"2019","age":null},{"start_time":1551901308462,"click_time":1551901310010,"finger_time":1551901309750,"fix_duration":250,"trial":31,"RT":1288,"MT":260,"sideResp":1,"stimulus":[],"xmouse":[761,764,764,766,766,766,766,766,766,766,766,766,766,766,767,767,767,767,767,767,767,767,767,767,767,767,767,767,767,767,767,767,767,767,767,767,767,767,767,767,767,767,767,767,767,767,767,767,767,767,767,767,767,767,767,767,767,767,767,767,767,767,768,768,743,688,625,571,532,526,525,525,525,525,525,525,525,517],"ymouse":[532,530,530,529,529,529,528,528,528,528,527,527,527,527,526,526,526,526,526,526,526,526,526,526,526,526,526,526,526,526,526,526,526,526,526,526,526,526,526,526,526,526,526,526,526,526,526,526,526,526,526,526,526,526,526,526,526,526,526,526,526,526,523,511,404,300,198,120,62,46,45,45,45,45,45,45,45,45],"timestamp_mouse":[14,34,48,69,88,109,129,148,168,189,208,230,248,268,289,309,329,349,368,390,409,429,448,468,489,509,529,549,569,589,608,629,649,669,690,710,729,750,769,789,808,829,849,869,888,908,929,949,969,989,1008,1028,1048,1068,1089,1108,1129,1149,1168,1190,1209,1228,1248,1268,1288,1308,1328,1348,1368,1388,1409,1429,1448,1469,1489,1508,1528,1548],"xSR":741.5,"ySR":481,"xT1":424.9,"yT1":0,"xT2":1058.1,"yT2":0,"toosoon":0,"cond_shown":"Congruent","ratio_trial":300,"L_num":20,"L_den":25,"R_num":14,"R_den":28,"correct_side":1,"subjID":"alejandrocala7","gender":"0","school":"2019","age":null},{"start_time":1551901312795,"click_time":1551901315150,"finger_time":1551901314790,"fix_duration":1041.6636937737678,"trial":32,"RT":1995,"MT":360,"sideResp":1,"stimulus":[],"xmouse":[799,799,799,799,799,799,799,799,799,799,799,799,799,799,799,799,799,799,799,799,799,799,799,799,799,799,799,799,799,799,799,799,799,799,799,799,799,799,799,799,799,799,799,799,799,799,799,799,799,799,799,799,799,799,799,799,799,799,799,799,799,799,799,799,799,799,799,799,799,799,799,799,799,799,799,799,799,799,799,799,799,799,799,799,799,799,799,799,799,799,799,799,799,799,799,797,793,783,776,767,749,688,622,589,570,558,548,543,535,528,520,516,515,515,515,515,515,515],"ymouse":[527,527,527,527,527,527,527,527,527,527,527,527,527,527,527,527,527,527,527,527,527,527,527,527,527,527,527,527,527,527,527,527,527,527,527,527,527,527,527,527,527,527,527,527,527,527,527,527,527,527,527,527,527,527,527,527,527,527,527,527,527,527,527,527,527,527,527,527,527,527,527,527,527,527,527,527,527,527,527,527,527,527,527,527,527,527,527,527,527,527,527,527,527,527,527,523,519,503,490,474,452,380,312,277,251,232,204,190,173,156,138,118,114,113,109,105,101,97],"timestamp_mouse":[17,36,56,75,95,116,136,156,175,195,216,236,256,275,295,317,336,355,376,395,415,435,455,476,495,515,536,556,575,596,615,636,656,675,695,715,736,755,775,796,816,835,855,875,897,916,935,957,977,995,1015,1035,1056,1075,1096,1115,1136,1156,1176,1195,1215,1236,1256,1275,1295,1316,1336,1355,1375,1396,1415,1435,1456,1475,1496,1516,1535,1555,1575,1596,1616,1636,1656,1676,1696,1716,1736,1757,1775,1795,1815,1835,1857,1875,1895,1915,1936,1955,1975,1995,2015,2037,2055,2075,2096,2115,2136,2155,2175,2195,2216,2236,2256,2275,2295,2316,2336,2355],"xSR":741.5,"ySR":481,"xT1":424.9,"yT1":0,"xT2":1058.1,"yT2":0,"toosoon":0,"cond_shown":"Incongruent","ratio_trial":300,"L_num":4,"L_den":20,"R_num":2,"R_den":4,"correct_side":2,"subjID":"alejandrocala7","gender":"0","school":"2019","age":null},{"start_time":1551901321543,"click_time":1551901322730,"finger_time":1551901322251,"fix_duration":1232.1573580417694,"trial":33,"RT":708,"MT":479,"sideResp":2,"stimulus":[],"xmouse":[829,829,829,829,829,829,829,829,829,829,829,829,829,829,829,829,829,829,829,829,829,829,830,830,830,831,831,832,832,833,833,833,833,834,836,846,857,868,879,890,892,893,894,894,894,894,894,894,894,894,898,911,930,953,1019,1044,1071,1094,1107,1126],"ymouse":[546,546,546,546,546,546,546,546,546,546,546,546,546,546,546,546,546,546,546,546,546,546,546,546,546,546,546,546,546,546,546,546,546,546,545,543,537,527,516,491,482,475,470,468,462,461,461,461,461,450,441,422,397,364,256,212,166,129,109,80],"timestamp_mouse":[14,33,47,67,87,106,126,146,168,188,206,227,247,267,287,307,327,346,366,387,408,427,447,467,486,507,526,547,566,586,608,627,647,667,686,708,726,746,767,787,807,827,846,867,887,906,928,946,966,987,1006,1026,1047,1067,1087,1106,1127,1146,1167,1187],"xSR":741.5,"ySR":481,"xT1":424.9,"yT1":0,"xT2":1058.1,"yT2":0,"toosoon":0,"cond_shown":"Congruent","ratio_trial":300,"L_num":1,"L_den":3,"R_num":19,"R_den":30,"correct_side":2,"subjID":"alejandrocala7","gender":"0","school":"2019","age":null},{"start_time":1551901325788,"click_time":1551901327990,"finger_time":1551901327110,"fix_duration":497.97857183128934,"trial":34,"RT":1322,"MT":880,"sideResp":2,"stimulus":[],"xmouse":[805,805,805,805,805,805,805,805,805,805,805,805,805,805,805,805,805,805,805,805,805,805,805,805,805,805,805,805,805,805,805,805,805,805,805,805,805,805,805,805,805,805,805,805,805,805,805,805,805,805,805,805,805,805,805,805,805,805,805,805,805,805,805,805,813,832,866,951,982,1007,1032,1051,1063,1069,1076,1082,1084,1086,1086,1086,1087,1089,1092,1095,1095,1095,1095,1095,1095,1095,1095,1095,1095,1095,1095,1095,1095,1096,1096,1096,1096,1096,1096,1096,1096,1096,1096,1096,1096,1096,1096],"ymouse":[557,557,557,557,557,557,557,557,557,557,557,557,557,557,557,557,557,557,557,557,557,557,557,557,557,557,557,557,557,557,557,557,557,557,557,557,557,557,557,557,557,557,557,557,557,557,557,557,557,557,557,557,557,557,557,557,557,557,557,557,557,557,557,557,540,515,468,359,308,252,207,175,151,140,133,127,124,122,121,121,119,115,110,103,103,103,103,103,103,103,103,103,103,103,103,103,102,100,100,100,100,100,100,100,100,100,100,100,100,100,99],"timestamp_mouse":[11,21,41,62,82,102,121,143,161,181,202,222,242,261,282,301,322,342,361,381,402,422,441,462,481,502,522,541,561,581,602,622,642,663,682,702,722,743,762,782,802,822,843,861,881,903,922,943,963,981,1003,1022,1042,1062,1083,1102,1122,1142,1161,1182,1202,1221,1242,1262,1282,1302,1322,1343,1362,1382,1401,1421,1442,1461,1482,1502,1521,1541,1562,1582,1602,1621,1641,1662,1682,1702,1722,1742,1761,1783,1802,1821,1842,1862,1881,1902,1921,1942,1962,1982,2001,2022,2042,2063,2082,2101,2121,2142,2161,2182,2202],"xSR":741.5,"ySR":481,"xT1":424.9,"yT1":0,"xT2":1058.1,"yT2":0,"toosoon":0,"cond_shown":"Incongruent","ratio_trial":100,"L_num":3,"L_den":5,"R_num":11,"R_den":22,"correct_side":1,"subjID":"alejandrocala7","gender":"0","school":"2019","age":null},{"start_time":1551901337464,"click_time":1551901339731,"finger_time":1551901338950,"fix_duration":273.90825305699764,"trial":35,"RT":1486,"MT":781,"sideResp":2,"stimulus":[],"xmouse":[766,766,766,766,766,766,766,766,766,766,766,766,766,766,766,766,766,766,766,766,766,766,766,766,766,766,766,766,766,766,766,766,766,766,766,766,766,766,766,766,766,766,766,766,766,766,766,766,766,766,766,766,766,766,766,766,766,766,766,766,766,766,766,766,766,766,766,766,766,766,766,766,765,763,755,742,733,726,724,718,717,717,717,717,717,717,717,717,717,717,717,717,717,713,712,710,710,710,722,761,798,841,899,971,990,1008,1025,1037,1041,1041,1041,1041,1045,1076],"ymouse":[506,506,506,506,506,506,506,506,506,506,506,506,506,506,506,506,506,506,506,506,506,506,506,506,506,506,506,506,506,506,506,506,506,506,506,506,506,506,506,506,506,506,506,506,506,506,506,506,506,506,506,506,506,506,506,506,506,506,506,506,506,506,506,506,506,506,506,506,506,506,506,506,499,495,478,469,463,459,457,453,452,452,452,451,451,451,451,451,451,450,444,439,433,419,414,409,404,396,354,302,259,214,170,120,108,99,91,86,85,85,85,85,84,76],"timestamp_mouse":[13,31,46,66,85,106,126,146,165,186,205,226,245,265,286,305,326,346,365,385,405,426,446,466,487,505,525,545,566,587,607,626,645,666,687,706,726,745,765,786,806,826,846,866,886,905,925,945,965,986,1007,1026,1046,1066,1086,1106,1127,1147,1165,1186,1206,1226,1246,1265,1287,1306,1326,1345,1365,1387,1406,1426,1445,1465,1486,1505,1526,1545,1566,1587,1606,1625,1645,1666,1686,1706,1726,1746,1766,1785,1805,1825,1845,1866,1885,1905,1925,1945,1966,1985,2006,2025,2045,2067,2085,2105,2125,2145,2166,2185,2206,2226,2245,2267],"xSR":741.5,"ySR":481,"xT1":424.9,"yT1":0,"xT2":1058.1,"yT2":0,"toosoon":0,"cond_shown":"Incongruent","ratio_trial":300,"L_num":3,"L_den":6,"R_num":4,"R_den":20,"correct_side":1,"subjID":"alejandrocala7","gender":"0","school":"2019","age":null},{"start_time":1551901346449,"click_time":1551901348330,"finger_time":1551901347730,"fix_duration":1418.1831863254217,"trial":36,"RT":1281,"MT":600,"sideResp":2,"stimulus":[],"xmouse":[769,769,769,769,769,769,769,769,769,769,769,769,769,769,769,769,769,769,769,769,769,769,769,769,769,769,769,769,769,769,769,769,769,769,769,769,769,769,769,769,769,769,769,769,769,769,769,769,769,769,769,769,769,769,769,769,769,769,769,769,769,769,769,773,796,822,846,859,864,874,884,892,899,905,922,931,941,951,959,979,988,993,997,999,1001,1006,1012,1015,1020,1030,1033,1036,1042,1051,1066],"ymouse":[511,511,511,511,511,511,511,511,511,511,511,511,511,511,511,511,511,511,511,511,511,511,511,511,511,511,511,511,511,511,511,511,511,511,511,511,511,511,511,511,511,511,511,511,511,511,511,511,511,511,511,511,511,511,511,511,511,511,511,511,511,511,511,503,458,415,366,327,301,259,225,203,186,172,152,142,134,123,111,82,71,66,66,65,65,65,65,65,64,64,64,64,64,64,64],"timestamp_mouse":[11,35,41,61,82,100,122,140,161,181,202,220,240,261,281,301,320,341,360,381,400,420,441,461,482,500,520,541,561,580,601,621,642,660,680,702,721,740,760,781,801,822,841,860,881,902,921,940,961,981,1001,1020,1040,1060,1080,1100,1121,1141,1160,1181,1201,1222,1241,1260,1281,1301,1320,1340,1360,1381,1401,1420,1441,1460,1482,1500,1520,1541,1560,1581,1600,1621,1640,1660,1681,1700,1721,1740,1760,1782,1800,1820,1840,1860,1881],"xSR":741.5,"ySR":481,"xT1":424.9,"yT1":0,"xT2":1058.1,"yT2":0,"toosoon":0,"cond_shown":"Congruent","ratio_trial":200,"L_num":3,"L_den":6,"R_num":14,"R_den":20,"correct_side":2,"subjID":"alejandrocala7","gender":"0","school":"2019","age":null},{"start_time":1551901349781,"click_time":1551901351931,"finger_time":1551901351170,"fix_duration":250,"trial":37,"RT":1389,"MT":761,"sideResp":1,"stimulus":[],"xmouse":[816,816,816,816,816,816,816,816,816,816,816,816,816,816,816,816,816,816,816,816,816,816,816,816,816,816,816,816,816,816,816,816,816,816,816,816,816,816,816,816,816,816,816,816,816,816,816,816,816,816,816,816,816,816,816,816,816,816,816,816,816,816,816,816,816,816,816,814,795,779,769,760,744,737,730,723,716,709,693,689,686,685,683,674,659,646,637,635,634,634,634,634,634,634,634,634,634,622,604,592,581,571,562,554,549,541,533,519],"ymouse":[534,534,534,534,534,534,534,534,534,534,534,534,534,534,534,534,534,534,534,534,534,534,534,534,534,534,534,534,534,534,534,534,534,534,534,534,534,534,534,534,534,534,534,534,534,534,534,534,534,534,534,534,534,534,534,534,534,534,534,534,534,534,534,534,534,534,534,530,499,478,459,444,421,410,399,389,375,362,330,313,294,266,214,188,161,143,113,103,97,96,96,96,96,96,96,96,95,95,95,95,95,95,92,87,84,81,78,71],"timestamp_mouse":[13,33,50,68,88,109,128,148,169,190,209,228,249,269,289,308,328,349,369,389,409,428,448,470,488,508,528,549,570,589,609,629,649,670,688,709,728,749,769,788,808,829,850,869,888,909,928,949,969,988,1008,1029,1049,1069,1089,1108,1130,1149,1170,1188,1208,1229,1249,1270,1288,1308,1328,1349,1368,1388,1408,1428,1449,1469,1488,1509,1528,1549,1568,1589,1609,1629,1649,1668,1688,1710,1729,1749,1769,1789,1808,1828,1849,1869,1888,1908,1928,1949,1968,1989,2009,2029,2049,2068,2089,2110,2129,2150],"xSR":741.5,"ySR":481,"xT1":424.9,"yT1":0,"xT2":1058.1,"yT2":0,"toosoon":0,"cond_shown":"Congruent","ratio_trial":100,"L_num":15,"L_den":25,"R_num":13,"R_den":26,"correct_side":1,"subjID":"alejandrocala7","gender":"0","school":"2019","age":null},{"start_time":1551901353310,"click_time":1551901355031,"finger_time":1551901354490,"fix_duration":278.44652373580516,"trial":38,"RT":1180,"MT":541,"sideResp":1,"stimulus":[],"xmouse":[796,796,796,796,796,796,796,796,796,796,796,796,796,796,796,796,796,796,796,796,796,796,796,796,796,796,796,796,796,796,796,796,796,796,796,796,796,796,796,796,796,796,796,796,796,796,796,796,796,796,796,796,796,796,796,796,796,790,768,750,732,706,651,625,603,583,549,543,539,537,537,537,537,537,540,547,556,558,558,554,549,545,543,540,534,526,498],"ymouse":[520,520,520,520,520,520,520,520,520,520,520,520,520,520,520,520,520,520,520,520,520,520,520,520,520,520,520,520,520,520,520,520,520,520,520,520,520,520,520,520,520,520,520,520,520,520,520,520,520,520,520,520,520,520,520,520,520,508,482,466,442,413,346,316,288,269,227,218,213,211,211,211,211,207,198,186,161,128,110,92,78,66,63,59,52,47,36],"timestamp_mouse":[1,30,39,59,80,99,120,139,159,180,199,219,240,260,279,301,320,340,359,380,400,419,440,459,480,500,520,540,560,581,599,619,641,661,680,701,720,740,760,780,799,819,841,860,880,901,920,939,960,980,1000,1020,1040,1059,1080,1099,1119,1141,1160,1180,1200,1220,1239,1260,1280,1300,1321,1341,1360,1380,1400,1420,1439,1460,1479,1499,1519,1539,1559,1579,1600,1620,1639,1659,1680,1700,1720],"xSR":741.5,"ySR":481,"xT1":424.9,"yT1":0,"xT2":1058.1,"yT2":0,"toosoon":0,"cond_shown":"Incongruent","ratio_trial":100,"L_num":17,"L_den":30,"R_num":10,"R_den":15,"correct_side":2,"subjID":"alejandrocala7","gender":"0","school":"2019","age":null},{"start_time":1551901359036,"click_time":1551901361530,"finger_time":1551901360570,"fix_duration":1005.6169089744425,"trial":39,"RT":1534,"MT":960,"sideResp":1,"stimulus":[],"xmouse":[823,823,823,823,823,823,823,823,823,823,823,823,823,823,823,823,823,823,823,823,823,823,823,823,823,823,823,823,823,823,823,823,823,823,823,823,823,823,823,823,823,823,823,823,823,823,823,823,823,823,823,823,823,823,823,823,823,823,823,823,823,823,823,823,823,823,823,823,823,823,823,823,823,823,822,787,696,590,483,358,354,354,355,359,368,379,396,415,428,473,493,513,522,526,528,528,528,528,528,527,519,514,511,508,506,505,504,504,504,504,504,504,504,504,504,504,504,504,504,504,504,503,503,502,501],"ymouse":[508,508,508,508,508,508,508,508,508,508,508,508,508,508,508,508,508,508,508,508,508,508,508,508,508,508,508,508,508,508,508,508,508,508,508,508,508,508,508,508,508,508,508,508,508,508,508,508,508,508,508,508,508,508,508,508,508,508,508,508,508,508,508,508,508,508,508,508,508,508,508,508,508,508,509,488,439,401,381,317,298,279,263,252,236,226,214,200,185,147,137,128,121,118,116,116,116,116,115,112,111,109,108,106,105,103,103,103,103,103,103,103,103,103,103,103,103,103,103,103,103,103,102,100,93],"timestamp_mouse":[13,39,53,73,93,113,133,153,175,194,213,233,254,273,294,315,335,353,373,393,414,434,454,473,495,514,534,554,574,594,613,634,654,675,694,714,734,754,774,793,814,834,854,874,893,914,934,954,973,993,1013,1034,1054,1073,1093,1115,1134,1153,1173,1194,1213,1234,1254,1274,1293,1314,1334,1354,1375,1393,1413,1433,1454,1474,1495,1513,1534,1554,1574,1594,1615,1634,1653,1674,1695,1713,1735,1754,1775,1795,1814,1834,1855,1874,1895,1914,1934,1953,1973,1994,2014,2034,2054,2073,2094,2113,2134,2153,2173,2193,2214,2234,2253,2273,2294,2313,2333,2354,2374,2394,2415,2434,2454,2474,2494],"xSR":741.5,"ySR":481,"xT1":424.9,"yT1":0,"xT2":1058.1,"yT2":0,"toosoon":0,"cond_shown":"Congruent","ratio_trial":100,"L_num":9,"L_den":15,"R_num":8,"R_den":16,"correct_side":1,"subjID":"alejandrocala7","gender":"0","school":"2019","age":null},{"start_time":1551901364102,"click_time":1551901366009,"finger_time":1551901365589,"fix_duration":250,"trial":40,"RT":1487,"MT":420,"sideResp":2,"stimulus":[],"xmouse":[806,806,806,806,806,806,806,806,806,806,806,806,806,806,806,806,806,806,806,806,806,806,806,806,806,806,806,806,806,806,806,806,806,806,806,806,806,806,806,806,806,806,806,806,806,806,806,806,806,806,806,806,806,806,806,806,806,806,806,806,806,806,806,806,806,806,806,806,806,806,806,806,806,813,821,842,875,927,942,950,957,979,996,1008,1025,1036,1047,1054,1058,1063,1066,1078,1084,1092,1097,1099],"ymouse":[490,490,490,490,490,490,490,490,490,490,490,491,491,491,491,491,491,491,491,491,491,491,491,491,491,491,491,491,491,491,491,491,491,491,491,491,491,491,491,491,491,491,491,491,491,491,491,491,491,491,491,491,491,491,491,491,491,491,491,491,491,491,491,491,491,491,491,491,491,491,491,491,491,485,477,456,421,372,358,348,340,321,307,292,273,257,230,213,202,192,182,153,136,118,104,96],"timestamp_mouse":[10,28,48,69,88,109,127,147,167,187,209,228,248,268,288,307,328,347,367,388,407,428,448,468,488,507,528,548,568,588,608,628,649,667,689,707,728,749,767,788,807,828,849,867,888,907,927,949,967,989,1008,1028,1047,1067,1088,1108,1128,1147,1168,1189,1208,1229,1247,1268,1288,1308,1327,1349,1368,1387,1408,1427,1449,1468,1487,1508,1527,1547,1567,1587,1607,1628,1647,1667,1687,1708,1728,1747,1767,1788,1808,1829,1847,1868,1888,1907],"xSR":741.5,"ySR":481,"xT1":424.9,"yT1":0,"xT2":1058.1,"yT2":0,"toosoon":0,"cond_shown":"Incongruent","ratio_trial":200,"L_num":3,"L_den":4,"R_num":11,"R_den":20,"correct_side":1,"subjID":"alejandrocala7","gender":"0","school":"2019","age":null},{"start_time":1551901380246,"click_time":1551901385751,"finger_time":1551901384611,"fix_duration":1194.675097603145,"trial":41,"RT":4365,"MT":1140,"sideResp":1,"stimulus":[],"xmouse":[768,768,768,768,768,768,768,768,768,768,768,768,768,768,768,768,768,768,768,768,768,768,768,768,768,768,768,768,768,768,768,768,768,768,768,768,768,768,768,768,768,768,768,768,768,768,768,768,768,768,768,768,768,768,768,768,768,768,768,768,768,768,768,768,768,768,768,768,768,768,768,768,768,768,768,768,768,768,768,768,768,768,768,768,768,768,768,768,768,768,768,768,768,768,768,768,768,768,768,768,768,768,768,768,768,768,768,768,768,768,768,768,768,768,768,768,768,768,768,768,768,768,768,768,768,768,768,768,768,768,768,768,768,768,768,768,768,768,768,768,768,768,768,768,768,768,768,768,768,768,768,768,768,768,768,768,768,768,768,768,768,768,768,768,768,768,768,768,768,768,768,768,768,768,768,768,768,768,768,768,768,768,768,768,768,768,768,768,768,768,768,768,768,768,768,768,768,768,768,768,768,768,768,768,768,768,768,768,768,768,768,768,764,762,753,747,745,743,741,735,731,729,726,723,716,710,704,699,696,690,688,685,683,679,670,663,656,649,643,631,627,623,620,616,608,602,594,589,585,572,569,566,565,564,563,563,563,563,563,560,555,550,546,540,533,530,526,523,518,515,515,515,515,515,513,508],"ymouse":[522,522,522,522,522,522,522,522,522,522,522,522,522,522,522,522,522,522,522,522,522,522,522,522,522,522,522,522,522,522,522,522,522,522,522,522,522,522,522,522,522,522,522,522,522,522,522,522,522,522,522,522,522,522,522,522,522,522,522,522,522,522,522,522,522,522,522,522,522,522,522,522,522,522,522,522,522,522,522,522,522,522,522,522,522,522,522,522,522,522,522,522,522,522,522,522,522,522,522,522,522,522,522,522,522,522,522,522,522,522,522,522,522,522,522,522,522,522,522,522,522,522,522,522,522,522,522,522,522,522,522,522,522,522,522,522,522,522,522,522,522,522,522,522,522,522,522,522,522,522,522,522,522,522,522,522,522,522,522,522,522,522,522,522,522,522,522,522,522,522,522,522,522,522,522,522,522,522,522,522,522,522,522,522,522,522,522,522,522,522,522,522,522,522,522,522,522,522,522,522,522,522,522,522,522,522,522,522,522,522,522,522,515,513,504,499,497,495,492,483,480,478,474,470,460,453,446,441,436,426,423,418,413,406,386,373,361,349,338,314,304,296,288,280,268,263,258,255,250,239,236,232,231,230,228,228,228,228,227,224,219,213,205,194,175,164,150,137,124,107,105,105,105,104,100,93],"timestamp_mouse":[13,31,45,65,85,106,125,144,164,185,205,224,245,264,285,304,324,344,365,385,404,424,444,464,486,505,524,545,564,584,606,625,644,666,684,705,724,745,765,784,805,824,845,865,884,905,925,945,964,984,1005,1025,1045,1066,1085,1105,1124,1144,1164,1185,1204,1224,1244,1265,1285,1305,1324,1344,1364,1386,1404,1424,1444,1465,1485,1505,1524,1545,1564,1584,1606,1624,1645,1665,1684,1705,1724,1744,1764,1785,1806,1825,1844,1864,1884,1904,1925,1944,1964,1985,2006,2025,2045,2064,2084,2105,2126,2145,2164,2184,2205,2226,2244,2264,2284,2305,2325,2344,2364,2384,2405,2424,2445,2464,2485,2504,2525,2545,2565,2585,2604,2625,2644,2664,2685,2704,2724,2746,2765,2785,2804,2824,2845,2864,2884,2905,2926,2944,2964,2985,3004,3024,3044,3064,3085,3106,3124,3144,3164,3185,3205,3225,3245,3265,3284,3305,3325,3345,3364,3384,3404,3425,3444,3464,3484,3506,3525,3544,3564,3584,3604,3624,3644,3665,3684,3705,3725,3746,3764,3784,3805,3824,3844,3864,3884,3905,3925,3946,3966,3985,4005,4024,4044,4064,4086,4105,4124,4144,4164,4186,4204,4224,4244,4265,4285,4305,4325,4345,4365,4385,4404,4424,4445,4465,4485,4504,4524,4545,4564,4586,4604,4624,4645,4664,4686,4704,4724,4744,4765,4785,4804,4824,4844,4864,4885,4904,4926,4945,4964,4985,5005,5025,5045,5064,5085,5105,5124,5144,5164,5185,5204,5224,5245,5264,5285,5304,5325,5345,5364,5384,5404,5425,5444,5464,5485,5505],"xSR":741.5,"ySR":481,"xT1":424.9,"yT1":0,"xT2":1058.1,"yT2":0,"toosoon":0,"cond_shown":"Incongruent","ratio_trial":200,"L_num":14,"L_den":30,"R_num":12,"R_den":18,"correct_side":2,"subjID":"alejandrocala7","gender":"0","school":"2019","age":null},{"start_time":1551901390825,"click_time":1551901392631,"finger_time":1551901392170,"fix_duration":632.0597831817371,"trial":42,"RT":1345,"MT":461,"sideResp":1,"stimulus":[],"xmouse":[839,839,839,839,839,839,839,839,839,839,839,839,839,839,839,839,839,839,839,839,839,839,839,839,839,839,839,839,839,839,839,839,839,839,839,839,839,839,839,839,839,839,839,839,839,839,839,839,839,839,839,839,839,839,839,839,839,839,839,839,839,839,839,839,839,838,830,813,793,775,747,741,738,734,729,717,706,685,650,612,567,532,528,524,521,514,509,507,506,506,510],"ymouse":[517,517,517,517,517,517