[{"start_time":1551887095286,"click_time":1551887096267,"finger_time":1551887095346,"fix_duration":314.73819861948516,"trial":0,"RT":60,"MT":921,"sideResp":1,"stimulus":[],"xmouse":[751,752,752,759,759,759,759,759,762,775,780,785,788,790,791,791,791,791,791,791,791,791,791,791,791,791,791,791,792,792,790,785,770,749,712,699,686,672,652,645,630,618,606,568,548,533,528,528,527,510],"ymouse":[482,473,473,423,423,423,423,423,430,458,472,484,492,496,501,502,502,503,503,503,503,503,503,502,500,496,493,488,477,453,434,411,343,270,186,165,147,130,110,102,90,85,82,77,77,77,77,77,77,74],"timestamp_mouse":[4,38,40,60,80,100,119,139,159,180,200,219,240,259,280,299,319,340,361,379,400,419,440,460,481,500,519,541,559,580,600,620,641,661,680,700,719,740,761,780,800,820,840,860,879,901,920,939,960,981],"xSR":741.5,"ySR":449.15000000000003,"xT1":424.9,"yT1":0,"xT2":1058.1,"yT2":0,"toosoon":0,"cond_shown":"Congruent","ratio_trial":200,"L_num":9,"L_den":30,"R_num":13,"R_den":26,"correct_side":2,"subjID":"dillanaugustoserravera28","gender":"0","age":"No_age","school":"No_school","test":{"fix_dur":[250,1500],"timestim":1000,"targets_dim":[100,100],"targets_relative_coord":[0.3,0.7],"size_stim":[880,420],"start_dim":[100,100],"size_start":[300,300],"size_fix":60,"samplingrate":20,"img_types":["Congruent","Incongruent"],"ratios":[100,200,300],"rep_conds":19,"nTrials":120,"trials_to_rest":500,"Trials_order":[92,117,12,79,86,43,111,17,93,76,10,78,106,75,64,101,53,47,113,112,54,25,74,39,4,36,70,42,51,99,83,77,27,28,38,20,16,52,62,61,89,100,50,3,84,18,81,55,107,104,116,105,35,63,82,30,103,23,32,58,109,56,66,88,40,115,21,44,87,46,59,26,22,14,73,2,5,45,31,15,41,48,49,91,80,60,72,68,57,6,19,9,96,67,24,7,110,13,71,69,29,33,1,94,37,118,65,98,0,8,34,114,97,95,119,85,90,108,11,102],"cond_shown":["Congruent","Incongruent","Congruent","Incongruent","Congruent","Incongruent","Incongruent","Incongruent","Incongruent","Congruent","Congruent","Congruent","Congruent","Incongruent","Congruent","Incongruent","Incongruent","Incongruent","Incongruent","Congruent","Congruent","Incongruent","Congruent","Incongruent","Congruent","Congruent","Congruent","Congruent","Incongruent","Incongruent","Incongruent","Incongruent","Incongruent","Congruent","Congruent","Congruent","Congruent","Congruent","Congruent","Incongruent","Incongruent","Congruent","Congruent","Incongruent","Congruent","Congruent","Incongruent","Incongruent","Incongruent","Congruent","Congruent","Incongruent","Incongruent","Incongruent","Congruent","Congruent","Incongruent","Incongruent","Congruent","Congruent","Incongruent","Congruent","Congruent","Congruent","Congruent","Incongruent","Incongruent","Congruent","Incongruent","Congruent","Incongruent","Congruent","Congruent","Congruent","Incongruent","Congruent","Incongruent","Incongruent","Incongruent","Incongruent","Incongruent","Congruent","Incongruent","Incongruent","Congruent","Congruent","Congruent","Congruent","Incongruent","Congruent","Incongruent","Incongruent","Congruent","Incongruent","Congruent","Incongruent","Congruent","Incongruent","Incongruent","Incongruent","Incongruent","Incongruent","Incongruent","Congruent","Incongruent","Congruent","Incongruent","Congruent","Congruent","Congruent","Congruent","Congruent","Incongruent","Incongruent","Incongruent","Incongruent","Congruent","Congruent","Incongruent","Congruent"],"ratio_trial":[200,200,100,100,200,100,200,300,200,300,300,100,300,200,300,300,300,300,300,300,100,100,200,200,300,100,300,100,200,200,300,300,200,300,200,200,300,300,200,100,300,300,200,200,100,100,200,100,300,200,200,200,300,200,300,100,100,300,200,300,100,200,100,300,300,100,200,200,200,300,300,200,300,200,100,200,300,200,100,200,300,100,100,100,200,100,100,200,200,100,100,200,100,100,100,100,200,100,300,200,300,200,100,300,100,300,300,200,100,200,300,100,100,300,300,100,100,100,300,100],"left_num":[9,4,9,9,13,11,3,4,7,4,20,7,1,6,11,13,8,4,13,9,4,10,4,1,3,10,1,2,11,1,3,2,1,2,7,3,1,24,8,6,7,2,3,1,7,7,4,2,8,1,5,3,7,3,1,4,8,13,12,1,8,6,15,20,1,12,7,16,1,1,2,9,1,14,6,13,4,4,3,7,7,7,9,17,7,9,6,8,1,6,3,3,12,12,1,6,15,17,4,1,13,3,9,1,6,12,13,21,12,16,4,9,12,4,4,4,11,8,8,4],"right_num":[13,14,8,14,14,9,1,2,12,13,13,9,7,3,2,12,14,8,12,3,6,8,3,2,2,3,7,11,3,2,4,6,2,10,18,11,19,2,2,13,8,12,7,2,15,9,1,6,14,21,14,11,8,11,8,6,1,12,6,7,6,7,13,9,7,2,14,12,3,7,6,13,11,6,3,14,2,6,11,12,8,15,6,10,2,8,15,2,2,15,4,1,13,9,3,7,4,10,2,3,12,11,13,6,13,2,12,2,13,9,1,8,2,2,2,8,4,2,14,15],"left_den":[30,6,15,15,26,22,10,20,10,20,25,14,20,20,22,26,10,5,26,10,8,25,8,3,6,25,20,5,20,3,6,4,3,20,15,10,3,30,15,10,10,10,10,3,14,14,30,4,10,2,10,4,10,4,30,8,20,26,20,20,16,12,25,25,20,30,10,20,2,20,4,30,5,28,12,26,20,5,5,10,10,14,18,30,21,15,12,15,3,12,6,10,30,24,2,10,25,30,20,2,26,4,15,5,10,24,26,30,30,30,10,15,30,20,20,8,22,16,10,10],"right_den":[26,30,16,28,20,15,2,4,24,26,26,15,20,6,10,15,28,16,15,5,10,16,10,15,10,10,20,22,4,15,20,30,15,25,27,22,30,4,6,26,20,24,14,15,25,15,3,15,28,30,20,20,20,20,24,10,2,15,15,20,10,10,26,18,20,4,28,20,10,20,30,26,22,20,5,20,4,10,22,24,20,25,10,15,15,16,25,6,15,25,10,2,26,15,5,14,10,15,4,10,15,20,26,12,26,10,15,4,26,27,10,16,4,4,4,20,10,5,28,30],"correct_side":[2,1,1,1,2,2,2,2,1,2,1,2,2,2,1,2,1,1,2,1,2,2,1,1,1,1,2,2,2,1,1,1,1,2,2,2,2,1,1,1,1,2,2,1,2,2,2,1,1,2,2,1,1,1,2,2,2,2,1,2,2,2,1,1,2,2,1,1,1,2,1,2,2,1,2,2,2,1,1,1,1,2,2,2,1,1,2,1,1,2,1,2,2,2,2,1,1,2,2,1,2,1,1,2,1,1,2,1,2,1,1,1,2,2,2,1,1,1,1,2],"img_shown":["img2/200/Congruent/R/C_Dist_200_LN_9_LD_30_RN_13_RD_26_1.png","img2/200/Incongruent/L/I_Dist_200_LN_4_LD_6_RN_14_RD_30_0.png","img2/100/Congruent/L/C_Dist_100_LN_9_LD_15_RN_8_RD_16_0.png","img2/100/Incongruent/L/I_Dist_100_LN_9_LD_15_RN_14_RD_28_0.png","img2/200/Congruent/R/C_Dist_200_LN_13_LD_26_RN_14_RD_20_1.png","img2/100/Incongruent/R/I_Dist_100_LN_11_LD_22_RN_9_RD_15_1.png","img2/200/Incongruent/R/I_Dist_200_LN_3_LD_10_RN_1_RD_2_1.png","img2/300/Incongruent/R/I_Dist_300_LN_4_LD_20_RN_2_RD_4_1.png","img2/200/Incongruent/L/I_Dist_200_LN_7_LD_10_RN_12_RD_24_0.png","img2/300/Congruent/R/C_Dist_300_LN_4_LD_20_RN_13_RD_26_1.png","img2/300/Congruent/L/C_Dist_300_LN_20_LD_25_RN_13_RD_26_0.png","img2/100/Congruent/R/C_Dist_100_LN_7_LD_14_RN_9_RD_15_1.png","img2/300/Congruent/R/C_Dist_300_LN_1_LD_20_RN_7_RD_20_1.png","img2/200/Incongruent/R/I_Dist_200_LN_6_LD_20_RN_3_RD_6_1.png","img2/300/Congruent/L/C_Dist_300_LN_11_LD_22_RN_2_RD_10_0.png","img2/300/Incongruent/R/I_Dist_300_LN_13_LD_26_RN_12_RD_15_1.png","img2/300/Incongruent/L/I_Dist_300_LN_8_LD_10_RN_14_RD_28_0.png","img2/300/Incongruent/L/I_Dist_300_LN_4_LD_5_RN_8_RD_16_0.png","img2/300/Incongruent/R/I_Dist_300_LN_13_LD_26_RN_12_RD_15_1.png","img2/300/Congruent/L/C_Dist_300_LN_9_LD_10_RN_3_RD_5_0.png","img2/100/Congruent/R/C_Dist_100_LN_4_LD_8_RN_6_RD_10_1.png","img2/100/Incongruent/R/I_Dist_100_LN_10_LD_25_RN_8_RD_16_1.png","img2/200/Congruent/L/C_Dist_200_LN_4_LD_8_RN_3_RD_10_0.png","img2/200/Incongruent/L/I_Dist_200_LN_1_LD_3_RN_2_RD_15_0.png","img2/300/Congruent/L/C_Dist_300_LN_3_LD_6_RN_2_RD_10_0.png","img2/100/Congruent/L/C_Dist_100_LN_10_LD_25_RN_3_RD_10_0.png","img2/300/Congruent/R/C_Dist_300_LN_1_LD_20_RN_7_RD_20_1.png","img2/100/Congruent/R/C_Dist_100_LN_2_LD_5_RN_11_RD_22_1.png","img2/200/Incongruent/R/I_Dist_200_LN_11_LD_20_RN_3_RD_4_1.png","img2/200/Incongruent/L/I_Dist_200_LN_1_LD_3_RN_2_RD_15_0.png","img2/300/Incongruent/L/I_Dist_300_LN_3_LD_6_RN_4_RD_20_0.png","img2/300/Incongruent/L/I_Dist_300_LN_2_LD_4_RN_6_RD_30_0.png","img2/200/Incongruent/L/I_Dist_200_LN_1_LD_3_RN_2_RD_15_0.png","img2/300/Congruent/R/C_Dist_300_LN_2_LD_20_RN_10_RD_25_1.png","img2/200/Congruent/R/C_Dist_200_LN_7_LD_15_RN_18_RD_27_1.png","img2/200/Congruent/R/C_Dist_200_LN_3_LD_10_RN_11_RD_22_1.png","img2/300/Congruent/R/C_Dist_300_LN_1_LD_3_RN_19_RD_30_1.png","img2/300/Congruent/L/C_Dist_300_LN_24_LD_30_RN_2_RD_4_0.png","img2/200/Congruent/L/C_Dist_200_LN_8_LD_15_RN_2_RD_6_0.png","img2/100/Incongruent/L/I_Dist_100_LN_6_LD_10_RN_13_RD_26_0.png","img2/300/Incongruent/L/I_Dist_300_LN_7_LD_10_RN_8_RD_20_0.png","img2/300/Congruent/R/C_Dist_300_LN_2_LD_10_RN_12_RD_24_1.png","img2/200/Congruent/R/C_Dist_200_LN_3_LD_10_RN_7_RD_14_1.png","img2/200/Incongruent/L/I_Dist_200_LN_1_LD_3_RN_2_RD_15_0.png","img2/100/Congruent/R/C_Dist_100_LN_7_LD_14_RN_15_RD_25_1.png","img2/100/Congruent/R/C_Dist_100_LN_7_LD_14_RN_9_RD_15_1.png","img2/200/Incongruent/R/I_Dist_200_LN_4_LD_30_RN_1_RD_3_1.png","img2/100/Incongruent/L/I_Dist_100_LN_2_LD_4_RN_6_RD_15_0.png","img2/300/Incongruent/L/I_Dist_300_LN_8_LD_10_RN_14_RD_28_0.png","img2/200/Congruent/R/C_Dist_200_LN_1_LD_2_RN_21_RD_30_1.png","img2/200/Congruent/R/C_Dist_200_LN_5_LD_10_RN_14_RD_20_1.png","img2/200/Incongruent/L/I_Dist_200_LN_3_LD_4_RN_11_RD_20_0.png","img2/300/Incongruent/L/I_Dist_300_LN_7_LD_10_RN_8_RD_20_0.png","img2/200/Incongruent/L/I_Dist_200_LN_3_LD_4_RN_11_RD_20_0.png","img2/300/Congruent/R/C_Dist_300_LN_1_LD_30_RN_8_RD_24_1.png","img2/100/Congruent/R/C_Dist_100_LN_4_LD_8_RN_6_RD_10_1.png","img2/100/Incongruent/R/I_Dist_100_LN_8_LD_20_RN_1_RD_2_1.png","img2/300/Incongruent/R/I_Dist_300_LN_13_LD_26_RN_12_RD_15_1.png","img2/200/Congruent/L/C_Dist_200_LN_12_LD_20_RN_6_RD_15_0.png","img2/300/Congruent/R/C_Dist_300_LN_1_LD_20_RN_7_RD_20_1.png","img2/100/Incongruent/R/I_Dist_100_LN_8_LD_16_RN_6_RD_10_1.png","img2/200/Congruent/R/C_Dist_200_LN_6_LD_12_RN_7_RD_10_1.png","img2/100/Congruent/L/C_Dist_100_LN_15_LD_25_RN_13_RD_26_0.png","img2/300/Congruent/L/C_Dist_300_LN_20_LD_25_RN_9_RD_18_0.png","img2/300/Congruent/R/C_Dist_300_LN_1_LD_20_RN_7_RD_20_1.png","img2/100/Incongruent/R/I_Dist_100_LN_12_LD_30_RN_2_RD_4_1.png","img2/200/Incongruent/L/I_Dist_200_LN_7_LD_10_RN_14_RD_28_0.png","img2/200/Congruent/L/C_Dist_200_LN_16_LD_20_RN_12_RD_20_0.png","img2/200/Incongruent/L/I_Dist_200_LN_1_LD_2_RN_3_RD_10_0.png","img2/300/Congruent/R/C_Dist_300_LN_1_LD_20_RN_7_RD_20_1.png","img2/300/Incongruent/L/I_Dist_300_LN_2_LD_4_RN_6_RD_30_0.png","img2/200/Congruent/R/C_Dist_200_LN_9_LD_30_RN_13_RD_26_1.png","img2/300/Congruent/R/C_Dist_300_LN_1_LD_5_RN_11_RD_22_1.png","img2/200/Congruent/L/C_Dist_200_LN_14_LD_28_RN_6_RD_20_0.png","img2/100/Incongruent/R/I_Dist_100_LN_6_LD_12_RN_3_RD_5_1.png","img2/200/Congruent/R/C_Dist_200_LN_13_LD_26_RN_14_RD_20_1.png","img2/300/Incongruent/R/I_Dist_300_LN_4_LD_20_RN_2_RD_4_1.png","img2/200/Incongruent/L/I_Dist_200_LN_4_LD_5_RN_6_RD_10_0.png","img2/100/Incongruent/L/I_Dist_100_LN_3_LD_5_RN_11_RD_22_0.png","img2/200/Incongruent/L/I_Dist_200_LN_7_LD_10_RN_12_RD_24_0.png","img2/300/Incongruent/L/I_Dist_300_LN_7_LD_10_RN_8_RD_20_0.png","img2/100/Congruent/R/C_Dist_100_LN_7_LD_14_RN_15_RD_25_1.png","img2/100/Incongruent/R/I_Dist_100_LN_9_LD_18_RN_6_RD_10_1.png","img2/100/Incongruent/R/I_Dist_100_LN_17_LD_30_RN_10_RD_15_1.png","img2/200/Congruent/L/C_Dist_200_LN_7_LD_21_RN_2_RD_15_0.png","img2/100/Congruent/L/C_Dist_100_LN_9_LD_15_RN_8_RD_16_0.png","img2/100/Congruent/R/C_Dist_100_LN_6_LD_12_RN_15_RD_25_1.png","img2/200/Congruent/L/C_Dist_200_LN_8_LD_15_RN_2_RD_6_0.png","img2/200/Incongruent/L/I_Dist_200_LN_1_LD_3_RN_2_RD_15_0.png","img2/100/Congruent/R/C_Dist_100_LN_6_LD_12_RN_15_RD_25_1.png","img2/100/Incongruent/L/I_Dist_100_LN_3_LD_6_RN_4_RD_10_0.png","img2/200/Incongruent/R/I_Dist_200_LN_3_LD_10_RN_1_RD_2_1.png","img2/100/Congruent/R/C_Dist_100_LN_12_LD_30_RN_13_RD_26_1.png","img2/100/Incongruent/R/I_Dist_100_LN_12_LD_24_RN_9_RD_15_1.png","img2/100/Congruent/R/C_Dist_100_LN_1_LD_2_RN_3_RD_5_1.png","img2/100/Incongruent/L/I_Dist_100_LN_6_LD_10_RN_7_RD_14_0.png","img2/200/Congruent/L/C_Dist_200_LN_15_LD_25_RN_4_RD_10_0.png","img2/100/Incongruent/R/I_Dist_100_LN_17_LD_30_RN_10_RD_15_1.png","img2/300/Incongruent/R/I_Dist_300_LN_4_LD_20_RN_2_RD_4_1.png","img2/200/Incongruent/L/I_Dist_200_LN_1_LD_2_RN_3_RD_10_0.png","img2/300/Incongruent/R/I_Dist_300_LN_13_LD_26_RN_12_RD_15_1.png","img2/200/Incongruent/L/I_Dist_200_LN_3_LD_4_RN_11_RD_20_0.png","img2/100/Incongruent/L/I_Dist_100_LN_9_LD_15_RN_13_RD_26_0.png","img2/300/Congruent/R/C_Dist_300_LN_1_LD_5_RN_6_RD_12_1.png","img2/100/Incongruent/L/I_Dist_100_LN_6_LD_10_RN_13_RD_26_0.png","img2/300/Congruent/L/C_Dist_300_LN_12_LD_24_RN_2_RD_10_0.png","img2/300/Incongruent/R/I_Dist_300_LN_13_LD_26_RN_12_RD_15_1.png","img2/200/Congruent/L/C_Dist_200_LN_21_LD_30_RN_2_RD_4_0.png","img2/100/Congruent/R/C_Dist_100_LN_12_LD_30_RN_13_RD_26_1.png","img2/200/Congruent/L/C_Dist_200_LN_16_LD_30_RN_9_RD_27_0.png","img2/300/Congruent/L/C_Dist_300_LN_4_LD_10_RN_1_RD_10_0.png","img2/100/Congruent/L/C_Dist_100_LN_9_LD_15_RN_8_RD_16_0.png","img2/100/Incongruent/R/I_Dist_100_LN_12_LD_30_RN_2_RD_4_1.png","img2/300/Incongruent/R/I_Dist_300_LN_4_LD_20_RN_2_RD_4_1.png","img2/300/Incongruent/R/I_Dist_300_LN_4_LD_20_RN_2_RD_4_1.png","img2/100/Incongruent/L/I_Dist_100_LN_4_LD_8_RN_8_RD_20_0.png","img2/100/Congruent/L/C_Dist_100_LN_11_LD_22_RN_4_RD_10_0.png","img2/100/Congruent/L/C_Dist_100_LN_8_LD_16_RN_2_RD_5_0.png","img2/300/Incongruent/L/I_Dist_300_LN_8_LD_10_RN_14_RD_28_0.png","img2/100/Congruent/R/C_Dist_100_LN_4_LD_10_RN_15_RD_30_1.png"],"dist100_C":[["C_Dist_100_LN_10_LD_25_RN_3_RD_10_0.png","C_Dist_100_LN_11_LD_22_RN_4_RD_10_0.png","C_Dist_100_LN_11_LD_22_RN_6_RD_15_0.png","C_Dist_100_LN_15_LD_25_RN_13_RD_26_0.png","C_Dist_100_LN_3_LD_6_RN_2_RD_5_0.png","C_Dist_100_LN_6_LD_20_RN_5_RD_25_0.png","C_Dist_100_LN_8_LD_16_RN_2_RD_5_0.png","C_Dist_100_LN_9_LD_15_RN_8_RD_16_0.png"],["C_Dist_100_LN_1_LD_2_RN_18_RD_30_1.png","C_Dist_100_LN_1_LD_2_RN_3_RD_5_1.png","C_Dist_100_LN_12_LD_30_RN_13_RD_26_1.png","C_Dist_100_LN_2_LD_5_RN_11_RD_22_1.png","C_Dist_100_LN_2_LD_5_RN_6_RD_12_1.png","C_Dist_100_LN_3_LD_20_RN_4_RD_16_1.png","C_Dist_100_LN_4_LD_10_RN_15_RD_30_1.png","C_Dist_100_LN_4_LD_8_RN_6_RD_10_1.png","C_Dist_100_LN_6_LD_12_RN_15_RD_25_1.png","C_Dist_100_LN_7_LD_14_RN_15_RD_25_1.png","C_Dist_100_LN_7_LD_14_RN_9_RD_15_1.png"]],"dist100_I":[["I_Dist_100_LN_1_LD_2_RN_8_RD_20_0.png","I_Dist_100_LN_2_LD_4_RN_6_RD_15_0.png","I_Dist_100_LN_2_LD_4_RN_8_RD_20_0.png","I_Dist_100_LN_3_LD_5_RN_11_RD_22_0.png","I_Dist_100_LN_3_LD_5_RN_8_RD_16_0.png","I_Dist_100_LN_3_LD_6_RN_4_RD_10_0.png","I_Dist_100_LN_3_LD_9_RN_7_RD_30_0.png","I_Dist_100_LN_4_LD_8_RN_8_RD_20_0.png","I_Dist_100_LN_6_LD_10_RN_11_RD_22_0.png","I_Dist_100_LN_6_LD_10_RN_13_RD_26_0.png","I_Dist_100_LN_6_LD_10_RN_7_RD_14_0.png","I_Dist_100_LN_9_LD_10_RN_20_RD_25_0.png","I_Dist_100_LN_9_LD_15_RN_13_RD_26_0.png","I_Dist_100_LN_9_LD_15_RN_14_RD_28_0.png"],["I_Dist_100_LN_10_LD_25_RN_8_RD_16_1.png","I_Dist_100_LN_10_LD_25_RN_9_RD_18_1.png","I_Dist_100_LN_11_LD_22_RN_9_RD_15_1.png","I_Dist_100_LN_12_LD_24_RN_9_RD_15_1.png","I_Dist_100_LN_12_LD_30_RN_2_RD_4_1.png","I_Dist_100_LN_13_LD_26_RN_12_RD_20_1.png","I_Dist_100_LN_13_LD_26_RN_6_RD_10_1.png","I_Dist_100_LN_17_LD_30_RN_10_RD_15_1.png","I_Dist_100_LN_6_LD_12_RN_3_RD_5_1.png","I_Dist_100_LN_8_LD_16_RN_6_RD_10_1.png","I_Dist_100_LN_8_LD_20_RN_1_RD_2_1.png","I_Dist_100_LN_9_LD_18_RN_6_RD_10_1.png"]],"dist100_S":[["E_Dist_100_LN_2_LD_12_RN_2_RD_30_0.png","E_Dist_100_LN_6_LD_10_RN_6_RD_12_0.png"],["E_Dist_100_LN_6_LD_12_RN_6_RD_10_1.png"]],"dist200_C":[["C_Dist_200_LN_11_LD_22_RN_3_RD_10_0.png","C_Dist_200_LN_12_LD_15_RN_6_RD_10_0.png","C_Dist_200_LN_12_LD_20_RN_6_RD_15_0.png","C_Dist_200_LN_14_LD_28_RN_6_RD_20_0.png","C_Dist_200_LN_15_LD_25_RN_4_RD_10_0.png","C_Dist_200_LN_16_LD_20_RN_12_RD_20_0.png","C_Dist_200_LN_16_LD_30_RN_9_RD_27_0.png","C_Dist_200_LN_20_LD_25_RN_9_RD_15_0.png","C_Dist_200_LN_21_LD_30_RN_2_RD_4_0.png","C_Dist_200_LN_4_LD_10_RN_3_RD_15_0.png","C_Dist_200_LN_4_LD_8_RN_3_RD_10_0.png","C_Dist_200_LN_6_LD_15_RN_3_RD_15_0.png","C_Dist_200_LN_7_LD_21_RN_2_RD_15_0.png","C_Dist_200_LN_8_LD_15_RN_2_RD_6_0.png","C_Dist_200_LN_8_LD_15_RN_3_RD_9_0.png","C_Dist_200_LN_8_LD_15_RN_7_RD_21_0.png","C_Dist_200_LN_9_LD_20_RN_4_RD_16_0.png"],["C_Dist_200_LN_1_LD_2_RN_21_RD_30_1.png","C_Dist_200_LN_13_LD_26_RN_14_RD_20_1.png","C_Dist_200_LN_3_LD_10_RN_11_RD_22_1.png","C_Dist_200_LN_3_LD_10_RN_14_RD_28_1.png","C_Dist_200_LN_3_LD_10_RN_7_RD_14_1.png","C_Dist_200_LN_3_LD_12_RN_9_RD_20_1.png","C_Dist_200_LN_3_LD_6_RN_14_RD_20_1.png","C_Dist_200_LN_5_LD_10_RN_14_RD_20_1.png","C_Dist_200_LN_6_LD_12_RN_7_RD_10_1.png","C_Dist_200_LN_6_LD_20_RN_11_RD_22_1.png","C_Dist_200_LN_7_LD_15_RN_18_RD_27_1.png","C_Dist_200_LN_9_LD_30_RN_13_RD_26_1.png"]],"dist200_I":[["I_Dist_200_LN_1_LD_2_RN_3_RD_10_0.png","I_Dist_200_LN_1_LD_3_RN_2_RD_15_0.png","I_Dist_200_LN_3_LD_4_RN_11_RD_20_0.png","I_Dist_200_LN_4_LD_5_RN_6_RD_10_0.png","I_Dist_200_LN_4_LD_6_RN_14_RD_30_0.png","I_Dist_200_LN_7_LD_10_RN_12_RD_24_0.png","I_Dist_200_LN_7_LD_10_RN_14_RD_28_0.png","I_Dist_200_LN_7_LD_10_RN_8_RD_16_0.png"],["I_Dist_200_LN_11_LD_20_RN_3_RD_4_1.png","I_Dist_200_LN_14_LD_30_RN_12_RD_18_1.png","I_Dist_200_LN_14_LD_30_RN_6_RD_9_1.png","I_Dist_200_LN_3_LD_10_RN_1_RD_2_1.png","I_Dist_200_LN_4_LD_30_RN_1_RD_3_1.png","I_Dist_200_LN_6_LD_20_RN_3_RD_6_1.png","I_Dist_200_LN_7_LD_15_RN_4_RD_6_1.png","I_Dist_200_LN_7_LD_15_RN_6_RD_9_1.png","I_Dist_200_LN_9_LD_15_RN_8_RD_10_1.png"]],"dist200_S":[["E_Dist_200_LN_3_LD_6_RN_3_RD_10_0.png"],["E_Dist_200_LN_3_LD_10_RN_3_RD_6_1.png"]],"dist300_C":[["C_Dist_300_LN_11_LD_22_RN_1_RD_5_0.png","C_Dist_300_LN_11_LD_22_RN_2_RD_10_0.png","C_Dist_300_LN_11_LD_22_RN_4_RD_20_0.png","C_Dist_300_LN_12_LD_24_RN_2_RD_10_0.png","C_Dist_300_LN_18_LD_20_RN_9_RD_15_0.png","C_Dist_300_LN_20_LD_25_RN_13_RD_26_0.png","C_Dist_300_LN_20_LD_25_RN_14_RD_28_0.png","C_Dist_300_LN_20_LD_25_RN_5_RD_10_0.png","C_Dist_300_LN_20_LD_25_RN_8_RD_16_0.png","C_Dist_300_LN_20_LD_25_RN_9_RD_18_0.png","C_Dist_300_LN_24_LD_30_RN_2_RD_4_0.png","C_Dist_300_LN_24_LD_30_RN_8_RD_16_0.png","C_Dist_300_LN_3_LD_6_RN_2_RD_10_0.png","C_Dist_300_LN_4_LD_10_RN_1_RD_10_0.png","C_Dist_300_LN_4_LD_5_RN_2_RD_4_0.png","C_Dist_300_LN_8_LD_16_RN_1_RD_5_0.png","C_Dist_300_LN_9_LD_10_RN_3_RD_5_0.png"],["C_Dist_300_LN_1_LD_20_RN_7_RD_20_1.png","C_Dist_300_LN_1_LD_3_RN_19_RD_30_1.png","C_Dist_300_LN_1_LD_30_RN_8_RD_24_1.png","C_Dist_300_LN_1_LD_5_RN_11_RD_22_1.png","C_Dist_300_LN_1_LD_5_RN_3_RD_6_1.png","C_Dist_300_LN_1_LD_5_RN_6_RD_12_1.png","C_Dist_300_LN_2_LD_10_RN_12_RD_24_1.png","C_Dist_300_LN_2_LD_20_RN_10_RD_25_1.png","C_Dist_300_LN_3_LD_12_RN_11_RD_20_1.png","C_Dist_300_LN_3_LD_6_RN_4_RD_5_1.png","C_Dist_300_LN_4_LD_20_RN_13_RD_26_1.png","C_Dist_300_LN_5_LD_25_RN_6_RD_12_1.png","C_Dist_300_LN_5_LD_25_RN_7_RD_14_1.png","C_Dist_300_LN_7_LD_14_RN_20_RD_25_1.png","C_Dist_300_LN_8_LD_15_RN_10_RD_12_1.png"]],"dist300_I":[["I_Dist_300_LN_1_LD_2_RN_2_RD_10_0.png","I_Dist_300_LN_1_LD_2_RN_3_RD_15_0.png","I_Dist_300_LN_2_LD_4_RN_6_RD_30_0.png","I_Dist_300_LN_3_LD_6_RN_4_RD_20_0.png","I_Dist_300_LN_4_LD_5_RN_6_RD_12_0.png","I_Dist_300_LN_4_LD_5_RN_8_RD_16_0.png","I_Dist_300_LN_7_LD_10_RN_8_RD_20_0.png","I_Dist_300_LN_8_LD_10_RN_14_RD_28_0.png","I_Dist_300_LN_8_LD_10_RN_9_RD_18_0.png"],["I_Dist_300_LN_13_LD_26_RN_12_RD_15_1.png","I_Dist_300_LN_4_LD_20_RN_2_RD_4_1.png"]],"dist300_S":[["E_Dist_300_LN_9_LD_12_RN_9_RD_20_0.png"],["E_Dist_300_LN_18_LD_30_RN_18_RD_20_1.png","E_Dist_300_LN_3_LD_10_RN_3_RD_5_1.png","E_Dist_300_LN_9_LD_20_RN_9_RD_12_1.png"]],"dist500_C":[["C_Dist_500_LN_10_LD_13_RN_7_RD_26_0.png","C_Dist_500_LN_10_LD_15_RN_4_RD_24_0.png","C_Dist_500_LN_12_LD_16_RN_3_RD_12_0.png","C_Dist_500_LN_12_LD_18_RN_4_RD_24_0.png","C_Dist_500_LN_15_LD_18_RN_5_RD_15_0.png","C_Dist_500_LN_15_LD_20_RN_1_RD_4_0.png","C_Dist_500_LN_18_LD_27_RN_1_RD_6_0.png","C_Dist_500_LN_20_LD_24_RN_1_RD_3_0.png","C_Dist_500_LN_20_LD_24_RN_3_RD_9_0.png","C_Dist_500_LN_20_LD_24_RN_7_RD_21_0.png","C_Dist_500_LN_20_LD_28_RN_3_RD_14_0.png","C_Dist_500_LN_21_LD_28_RN_6_RD_24_0.png","C_Dist_500_LN_22_LD_28_RN_2_RD_7_0.png","C_Dist_500_LN_25_LD_30_RN_9_RD_27_0.png","C_Dist_500_LN_4_LD_6_RN_1_RD_6_0.png","C_Dist_500_LN_5_LD_6_RN_2_RD_6_0.png","C_Dist_500_LN_6_LD_9_RN_1_RD_6_0.png","C_Dist_500_LN_7_LD_10_RN_1_RD_5_0.png","C_Dist_500_LN_8_LD_12_RN_1_RD_6_0.png","C_Dist_500_LN_8_LD_12_RN_4_RD_24_0.png"],["C_Dist_500_LN_1_LD_4_RN_12_RD_16_1.png","C_Dist_500_LN_1_LD_4_RN_9_RD_12_1.png","C_Dist_500_LN_1_LD_9_RN_11_RD_18_1.png","C_Dist_500_LN_10_LD_24_RN_22_RD_24_1.png","C_Dist_500_LN_2_LD_12_RN_10_RD_15_1.png","C_Dist_500_LN_2_LD_12_RN_12_RD_18_1.png","C_Dist_500_LN_2_LD_12_RN_4_RD_6_1.png","C_Dist_500_LN_2_LD_24_RN_7_RD_12_1.png","C_Dist_500_LN_2_LD_5_RN_18_RD_20_1.png","C_Dist_500_LN_2_LD_5_RN_9_RD_10_1.png","C_Dist_500_LN_2_LD_8_RN_12_RD_16_1.png","C_Dist_500_LN_2_LD_8_RN_21_RD_28_1.png","C_Dist_500_LN_3_LD_10_RN_4_RD_5_1.png","C_Dist_500_LN_3_LD_12_RN_15_RD_20_1.png","C_Dist_500_LN_3_LD_30_RN_6_RD_10_1.png","C_Dist_500_LN_3_LD_8_RN_14_RD_16_1.png","C_Dist_500_LN_4_LD_16_RN_15_RD_20_1.png","C_Dist_500_LN_4_LD_24_RN_12_RD_18_1.png","C_Dist_500_LN_5_LD_14_RN_6_RD_7_1.png","C_Dist_500_LN_7_LD_21_RN_20_RD_24_1.png","C_Dist_500_LN_7_LD_28_RN_12_RD_16_1.png","C_Dist_500_LN_7_LD_28_RN_9_RD_12_1.png","C_Dist_500_LN_9_LD_27_RN_20_RD_24_1.png"]],"dist500_I":[["I_Dist_500_LN_2_LD_3_RN_4_RD_24_0.png","I_Dist_500_LN_5_LD_6_RN_6_RD_18_0.png","I_Dist_500_LN_7_LD_8_RN_9_RD_24_0.png"],["I_Dist_500_LN_7_LD_21_RN_5_RD_6_1.png"]],"dist500_S":[["E_Dist_500_LN_6_LD_8_RN_6_RD_24_0.png"],["E_Dist_500_LN_2_LD_12_RN_2_RD_3_1.png","E_Dist_500_LN_6_LD_24_RN_6_RD_8_1.png"]]}},{"start_time":1551887110383,"click_time":1551887111807,"finger_time":1551887110507,"fix_duration":253.55398378321237,"trial":1,"RT":124,"MT":1300,"sideResp":1,"stimulus":[],"xmouse":[786,786,786,786,775,766,753,743,737,732,732,732,732,732,733,733,733,733,733,733,733,733,733,734,734,734,727,721,719,719,719,719,719,713,702,693,684,668,529,386,221,59,0,0,3,3,4,8,22,57,57,57,57,57,57,57,57,57,57,57,57,57,57,57,57,57,57,57,412,416,422,434],"ymouse":[507,507,507,507,521,537,561,578,595,626,633,636,636,636,625,622,621,621,621,621,621,620,620,616,593,547,461,407,399,399,398,398,396,393,388,383,375,360,288,225,168,118,90,89,89,89,89,76,55,12,12,12,12,12,12,12,12,12,12,12,12,12,12,12,12,12,12,12,3,23,38,54],"timestamp_mouse":[9,23,43,64,83,103,124,144,163,183,203,224,243,263,283,303,323,344,364,383,403,423,443,463,483,503,523,543,563,583,603,623,643,665,683,704,723,744,764,783,804,823,843,863,883,903,923,943,963,983,1003,1025,1043,1063,1083,1103,1123,1143,1164,1184,1204,1224,1243,1264,1283,1303,1323,1343,1363,1383,1403,1423],"xSR":741.5,"ySR":449.15000000000003,"xT1":424.9,"yT1":0,"xT2":1058.1,"yT2":0,"toosoon":0,"cond_shown":"Incongruent","ratio_trial":200,"L_num":4,"L_den":6,"R_num":14,"R_den":30,"correct_side":1,"subjID":"dillanaugustoserravera28","gender":"0","school":"No_school","age":"No_age"},{"start_time":1551887113219,"click_time":1551887113766,"finger_time":1551887113286,"fix_duration":250,"trial":2,"RT":67,"MT":480,"sideResp":1,"stimulus":[],"xmouse":[763,763,762,751,744,737,733,733,732,732,732,732,732,719,701,669,584,540,523,519,519,519,510,504,501,501,499,499],"ymouse":[522,522,503,446,407,358,336,330,329,329,329,329,329,308,286,253,182,152,143,139,139,139,144,144,144,140,127,99],"timestamp_mouse":[7,29,47,67,88,108,127,148,167,188,207,229,247,267,287,307,328,347,367,387,407,428,447,467,487,507,527,547],"xSR":741.5,"ySR":449.15000000000003,"xT1":424.9,"yT1":0,"xT2":1058.1,"yT2":0,"toosoon":0,"cond_shown":"Congruent","ratio_trial":100,"L_num":9,"L_den":15,"R_num":8,"R_den":16,"correct_side":1,"subjID":"dillanaugustoserravera28","gender":"0","school":"No_school","age":"No_age"},{"start_time":1551887173199,"click_time":1551887177366,"finger_time":1551887173567,"fix_duration":250,"trial":3,"RT":368,"MT":3799,"sideResp":1,"stimulus":[],"xmouse":[836,836,836,836,836,836,835,835,835,835,835,835,835,835,835,835,835,813,801,789,777,768,759,750,749,749,749,749,749,749,749,749,749,749,749,749,749,749,749,749,748,748,748,748,748,748,748,748,748,748,748,748,748,748,748,748,748,748,748,748,748,748,748,748,748,748,748,748,748,748,748,748,748,748,748,748,748,748,748,748,748,748,748,748,748,748,748,748,748,748,748,748,748,748,748,748,748,748,748,748,748,748,748,748,748,748,748,748,748,748,748,748,748,748,748,748,748,748,748,748,748,748,748,748,748,748,748,748,748,748,748,748,748,748,748,748,748,748,748,748,748,748,748,748,748,748,748,748,748,748,748,748,748,748,748,748,748,748,748,748,748,748,748,748,748,748,748,748,748,748,748,748,748,748,748,748,748,748,748,748,748,748,748,748,748,748,747,745,736,732,730,729,724,682,623,587,564,549,536,531,529,527,520,519,519,519,519,519,515],"ymouse":[493,493,493,493,493,493,493,493,493,493,493,493,493,493,493,493,493,459,439,423,406,394,380,369,369,369,369,369,369,369,369,369,369,369,369,369,369,369,369,369,369,369,369,369,369,369,369,369,369,369,369,369,369,369,369,369,369,369,369,369,369,369,369,369,369,369,369,369,369,369,369,369,369,369,369,369,369,369,369,369,369,369,369,369,369,369,369,369,369,369,369,369,369,369,369,369,369,369,369,369,369,369,369,369,369,369,369,369,369,369,369,369,369,369,369,369,369,369,369,369,369,369,369,369,369,369,369,369,369,369,369,369,369,369,369,369,369,369,369,369,369,369,369,369,369,369,369,369,369,369,369,369,369,369,369,369,369,369,369,369,369,369,369,369,369,369,369,369,369,369,369,369,369,369,369,369,369,369,369,369,369,369,369,369,369,369,361,339,294,284,279,276,273,266,250,240,233,228,220,210,185,154,137,124,118,112,107,103,95],"timestamp_mouse":[11,32,47,68,88,108,127,148,168,187,207,227,247,267,286,308,327,348,368,387,408,428,446,467,488,507,527,546,567,588,607,627,648,667,687,707,726,748,766,787,807,828,847,867,887,907,927,947,967,988,1007,1027,1046,1067,1087,1107,1128,1147,1167,1187,1207,1227,1248,1267,1287,1308,1326,1348,1367,1388,1406,1427,1448,1467,1487,1507,1527,1548,1567,1587,1607,1627,1648,1667,1688,1708,1728,1748,1767,1787,1807,1827,1848,1867,1887,1906,1926,1948,1967,1987,2007,2027,2047,2067,2087,2106,2127,2147,2167,2187,2206,2227,2247,2268,2287,2307,2327,2348,2366,2388,2408,2428,2447,2467,2488,2507,2527,2546,2567,2587,2608,2627,2648,2667,2687,2707,2728,2747,2767,2788,2807,2833,2847,2867,2888,2907,2928,2948,2968,2988,3007,3027,3048,3067,3087,3108,3128,3147,3167,3188,3207,3227,3247,3267,3288,3307,3327,3348,3367,3387,3407,3427,3447,3467,3487,3507,3527,3547,3568,3588,3607,3627,3648,3668,3687,3706,3728,3747,3767,3788,3808,3827,3848,3867,3887,3907,3927,3947,3967,3986,4008,4028,4047,4067,4088,4107,4126,4147,4167],"xSR":741.5,"ySR":449.15000000000003,"xT1":424.9,"yT1":0,"xT2":1058.1,"yT2":0,"toosoon":0,"cond_shown":"Incongruent","ratio_trial":100,"L_num":9,"L_den":15,"R_num":14,"R_den":28,"correct_side":1,"subjID":"dillanaugustoserravera28","gender":"0","school":"No_school","age":"No_age"},{"start_time":1551887178888,"click_time":1551887179346,"finger_time":1551887179006,"fix_duration":421.31119498410897,"trial":4,"RT":118,"MT":340,"sideResp":1,"stimulus":[],"xmouse":[798,798,798,797,793,770,722,657,564,553,553,553,553,553,553,553,553,553,553,553,553,553,520],"ymouse":[526,526,526,526,511,449,344,224,48,10,10,10,10,10,10,10,10,10,10,10,10,10,12],"timestamp_mouse":[18,42,58,78,98,118,138,158,178,198,218,239,259,278,298,318,339,359,379,398,419,438,457],"xSR":741.5,"ySR":449.15000000000003,"xT1":424.9,"yT1":0,"xT2":1058.1,"yT2":0,"toosoon":0,"cond_shown":"Congruent","ratio_trial":200,"L_num":13,"L_den":26,"R_num":14,"R_den":20,"correct_side":2,"subjID":"dillanaugustoserravera28","gender":"0","school":"No_school","age":"No_age"},{"start_time":1551887186009,"click_time":1551887187066,"finger_time":1551887186547,"fix_duration":521.0077307596127,"trial":5,"RT":538,"MT":519,"sideResp":2,"stimulus":[],"xmouse":[780,780,780,780,780,780,780,780,780,780,780,780,780,780,780,782,784,785,785,785,785,785,786,787,791,799,827,864,940,1004,1069,1117,1209,1218,1226,1231,1231,1231,1231,1231,1231,1231,1231,1231,1231,1231,1231,1231,1173,1169,1163,1159,1154],"ymouse":[512,512,512,512,512,512,512,512,512,512,512,512,512,512,510,500,496,492,492,492,492,492,492,491,485,474,440,389,295,213,157,118,32,16,6,0,0,0,0,0,0,0,0,0,0,0,0,0,0,4,10,14,21],"timestamp_mouse":[18,40,57,76,98,118,138,157,176,197,218,236,257,278,296,317,337,357,377,397,417,438,457,477,498,518,538,557,578,598,617,637,658,678,697,718,737,757,777,797,817,837,857,877,897,917,938,956,977,997,1017,1037,1057],"xSR":741.5,"ySR":449.15000000000003,"xT1":424.9,"yT1":0,"xT2":1058.1,"yT2":0,"toosoon":0,"cond_shown":"Incongruent","ratio_trial":100,"L_num":11,"L_den":22,"R_num":9,"R_den":15,"correct_side":2,"subjID":"dillanaugustoserravera28","gender":"0","school":"No_school","age":"No_age"},{"start_time":1551887191298,"click_time":1551887191866,"finger_time":1551887191326,"fix_duration":250,"trial":6,"RT":28,"MT":540,"sideResp":1,"stimulus":[],"xmouse":[760,742,679,663,644,613,583,553,552,552,552,553,567,608,637,665,665,665,665,665,665,665,665,665,665,665,665,561,520],"ymouse":[486,423,272,255,243,227,213,204,204,204,204,202,194,145,76,11,11,11,11,11,11,11,11,11,11,11,11,1,46],"timestamp_mouse":[8,28,49,68,88,109,129,149,168,188,208,228,247,268,288,309,329,348,369,388,408,428,448,468,488,509,529,549,568],"xSR":741.5,"ySR":449.15000000000003,"xT1":424.9,"yT1":0,"xT2":1058.1,"yT2":0,"toosoon":0,"cond_shown":"Incongruent","ratio_trial":200,"L_num":3,"L_den":10,"R_num":1,"R_den":2,"correct_side":2,"subjID":"dillanaugustoserravera28","gender":"0","school":"No_school","age":"No_age"},{"start_time":1551887196178,"click_time":1551887208786,"finger_time":1551887196547,"fix_duration":250,"trial":7,"RT":369,"MT":12239,"sideResp":1,"stimulus":[],"xmouse":[782,782,782,782,782,782,782,782,782,782,782,782,782,782,782,782,782,781,780,780,780,780,780,773,764,761,757,756,756,767,786,798,803,809,812,812,812,812,812,812,812,812,812,812,812,812,812,812,814,814,814,814,814,814,814,814,814,814,815,815,815,815,815,815,815,815,815,815,682,507,324,159,11,0,0,0,0,0,0,0,0,0,0,0,0,0,0,0,0,0,0,0,0,0,0,0,0,0,0,0,0,0,0,0,0,0,0,0,0,0,0,0,0,0,0,0,0,0,0,0,0,0,0,0,0,0,0,0,0,0,0,0,0,0,0,0,0,0,0,0,0,0,0,0,0,0,0,0,0,0,0,0,0,0,0,0,0,0,0,0,0,0,0,0,0,0,0,0,0,0,0,0,0,0,0,0,0,0,0,0,0,0,0,0,0,0,0,0,0,0,0,0,0,0,0,0,0,0,0,0,0,0,0,0,0,0,0,0,0,0,0,0,0,0,0,0,0,0,0,0,0,0,0,0,0,0,0,0,0,0,0,0,0,0,0,0,0,0,0,0,0,0,0,0,0,0,0,0,0,0,0,0,0,0,0,0,0,0,0,0,0,0,0,0,0,0,0,0,0,0,0,0,0,0,0,0,0,0,0,0,0,0,0,0,0,0,0,0,0,0,0,0,0,0,0,0,0,0,0,0,0,0,0,0,0,0,0,0,0,0,0,0,0,0,0,0,0,0,0,0,0,0,0,0,0,0,0,0,0,0,0,0,0,0,0,0,0,0,0,0,0,0,0,0,0,0,0,0,0,0,0,0,0,0,0,0,0,0,0,0,0,0,0,0,0,0,0,0,0,0,0,0,0,0,0,0,0,0,0,0,0,0,0,0,0,0,0,0,0,0,0,0,0,0,0,0,0,0,0,0,0,0,0,0,0,0,0,0,0,0,0,0,0,0,0,0,0,0,0,0,0,0,0,0,0,0,0,0,0,0,0,0,0,0,0,0,0,0,0,0,0,0,0,0,0,0,0,0,0,0,0,0,0,0,0,0,0,0,0,0,0,0,0,0,0,0,0,0,0,0,0,409,526,609,646,646,646,648,649,653,653,653,653,653,653,653,653,653,651,643,628,610,591,570,569,569,569,570,577,596,600,600,600,600,600,600,600,600,600,600,600,600,603,615,620,620,623,635,707,765,811,847,869,881,886,886,886,886,888,892,893,893,893,893,893,893,891,887,879,872,857,835,816,805,799,799,799,799,799,796,792,791,790,789,788,788,788,788,788,788,786,783,781,781,781,781,781,781,781,781,781,779,776,771,771,771,771,771,771,771,766,760,753,737,718,708,697,687,682,679,678,678,677,673,659,657,657,657,656,637,625,616,604,556,484,434,385,347,347,347,347,347,347,347,347,347,347,347,347,347,347,347,347,347,347,347,347,383,404,412,427],"ymouse":[455,455,455,455,455,455,455,455,455,455,455,455,455,455,455,455,455,450,447,444,444,443,442,432,419,411,401,393,391,365,348,339,336,334,334,334,334,334,334,334,334,334,334,334,334,334,334,334,330,328,328,328,328,327,327,327,327,327,327,327,327,327,327,327,327,327,327,327,295,249,222,201,186,144,140,140,140,140,140,140,140,140,140,140,140,140,140,140,140,140,140,140,140,140,140,140,140,140,140,140,140,140,140,140,140,140,140,140,140,140,140,140,140,140,140,140,140,140,140,140,140,140,140,140,140,140,140,140,140,140,140,140,140,140,140,140,140,140,140,140,140,140,140,140,140,140,140,140,140,140,140,140,140,140,140,140,140,140,140,140,140,140,140,140,140,140,140,140,140,140,140,140,140,140,140,140,140,140,140,140,140,140,140,140,140,140,140,140,140,140,140,140,140,140,140,140,140,140,140,140,140,140,140,140,140,140,140,140,140,140,140,140,140,140,140,140,140,140,140,140,140,140,140,140,140,140,140,140,140,140,140,140,140,140,140,140,140,140,140,140,140,140,140,140,140,140,140,140,140,140,140,140,140,140,140,140,140,140,140,140,140,140,140,140,140,140,140,140,140,140,140,140,140,140,140,140,140,140,140,140,140,140,140,140,140,140,140,140,140,140,140,140,140,140,140,140,140,140,140,140,140,140,140,140,140,140,140,140,140,140,140,140,140,140,140,140,140,140,140,140,140,140,140,140,140,140,140,140,140,140,140,140,140,140,140,140,140,140,140,140,140,140,140,140,140,140,140,140,140,140,140,140,140,140,140,140,140,140,140,140,140,140,140,140,140,140,140,140,140,140,140,140,140,140,140,140,140,140,140,140,140,140,140,140,140,140,140,140,140,140,140,140,140,140,140,140,140,140,140,140,140,140,140,140,140,140,140,140,140,140,140,140,140,140,140,140,140,140,140,140,140,140,140,140,140,140,140,140,140,140,140,140,140,140,140,140,140,140,140,140,140,140,140,140,140,140,140,140,140,140,140,140,140,140,140,140,140,140,140,140,140,140,140,140,140,140,140,140,140,140,140,360,319,300,297,297,297,297,297,293,293,293,293,293,293,293,293,293,293,293,293,293,293,293,293,293,293,292,290,283,281,280,280,280,280,280,280,280,280,280,280,280,280,280,280,280,282,290,331,364,394,418,433,443,454,456,460,462,466,474,475,475,475,475,475,477,479,482,483,483,483,482,482,482,482,482,482,482,482,482,483,484,484,484,484,484,484,484,484,484,485,486,487,487,487,487,487,487,487,487,487,487,487,487,487,487,487,487,487,487,479,447,400,308,257,235,216,201,194,192,192,192,192,198,215,215,215,215,215,215,215,217,217,195,154,115,69,21,21,21,21,21,21,21,21,21,21,21,21,21,21,21,21,21,21,21,21,11,28,35,43],"timestamp_mouse":[8,28,49,68,87,109,128,147,169,188,208,229,248,267,287,309,329,347,369,388,408,429,447,468,489,508,529,548,568,589,608,629,648,668,688,709,728,749,769,788,808,828,848,869,888,908,928,948,969,987,1008,1028,1047,1069,1089,1108,1129,1147,1169,1188,1208,1228,1248,1268,1289,1308,1329,1349,1369,1388,1409,1428,1447,1468,1488,1508,1529,1548,1568,1588,1609,1629,1648,1668,1687,1709,1728,1748,1769,1788,1808,1828,1849,1868,1888,1908,1929,1948,1969,1988,2008,2029,2047,2069,2088,2109,2129,2149,2169,2188,2209,2228,2249,2269,2289,2309,2328,2348,2369,2389,2409,2427,2448,2469,2488,2509,2529,2547,2568,2589,2608,2629,2648,2667,2688,2707,2728,2748,2768,2789,2809,2829,2847,2869,2888,2909,2929,2948,2968,2988,3009,3029,3049,3068,3088,3109,3129,3148,3168,3188,3208,3228,3248,3268,3288,3308,3328,3349,3369,3389,3408,3428,3448,3468,3488,3508,3528,3549,3568,3589,3608,3629,3648,3668,3688,3708,3728,3748,3768,3789,3809,3828,3849,3868,3888,3908,3928,3948,3968,3988,4009,4029,4048,4068,4088,4109,4128,4148,4168,4187,4209,4229,4248,4269,4287,4308,4329,4348,4369,4389,4409,4427,4448,4470,4489,4508,4527,4548,4568,4588,4609,4627,4647,4668,4688,4707,4729,4748,4768,4787,4807,4827,4847,4868,4887,4907,4928,4949,4968,4988,5009,5029,5049,5069,5088,5109,5129,5149,5169,5189,5208,5228,5249,5268,5289,5308,5329,5349,5369,5388,5407,5427,5447,5468,5488,5508,5527,5547,5567,5588,5607,5627,5647,5667,5688,5709,5729,5748,5769,5788,5809,5828,5849,5868,5888,5909,5927,5949,5969,5988,6008,6028,6048,6069,6089,6109,6128,6149,6168,6189,6208,6227,6248,6267,6288,6308,6328,6349,6369,6388,6409,6427,6447,6467,6488,6508,6529,6548,6568,6588,6608,6629,6648,6668,6688,6708,6728,6748,6768,6788,6808,6828,6847,6868,6888,6908,6928,6947,6967,6988,7007,7027,7047,7069,7089,7109,7128,7148,7169,7189,7209,7229,7248,7269,7288,7309,7329,7348,7369,7388,7408,7428,7449,7468,7488,7509,7528,7548,7568,7588,7609,7628,7648,7669,7689,7709,7728,7748,7769,7788,7807,7828,7848,7868,7888,7909,7928,7948,7969,7989,8009,8029,8049,8068,8089,8107,8128,8148,8168,8188,8209,8229,8247,8269,8288,8308,8328,8349,8368,8388,8408,8428,8449,8469,8488,8507,8527,8549,8567,8588,8608,8629,8649,8668,8688,8709,8728,8748,8768,8788,8809,8828,8849,8869,8887,8907,8929,8949,8968,8989,9009,9029,9048,9068,9087,9108,9128,9148,9168,9189,9208,9228,9248,9268,9287,9308,9328,9349,9368,9389,9408,9427,9448,9468,9489,9508,9528,9549,9568,9589,9609,9628,9649,9669,9688,9708,9728,9748,9768,9788,9808,9828,9849,9869,9888,9908,9928,9948,9968,9988,10008,10028,10049,10069,10089,10109,10129,10149,10169,10189,10208,10229,10248,10268,10289,10308,10329,10348,10369,10388,10409,10427,10447,10468,10489,10508,10528,10549,10568,10588,10608,10629,10649,10669,10688,10708,10729,10749,10768,10787,10808,10829,10849,10868,10888,10908,10929,10948,10969,10989,11008,11029,11049,11068,11088,11109,11128,11148,11169,11188,11208,11228,11248,11269,11288,11307,11328,11348,11367,11389,11409,11428,11449,11468,11488,11508,11528,11549,11568,11588,11608,11628,11648,11669,11687,11708,11729,11748,11768,11788,11808,11829,11848,11868,11888,11909,11929,11949,11969,11988,12007,12027,12047,12068,12087,12108,12128,12149,12169,12188,12208,12228,12249,12269,12288,12308,12328,12348,12369,12389,12408,12429,12449,12468,12488,12508,12528,12548,12568,12588,12608],"xSR":741.5,"ySR":449.15000000000003,"xT1":424.9,"yT1":0,"xT2":1058.1,"yT2":0,"toosoon":0,"cond_shown":"Incongruent","ratio_trial":300,"L_num":4,"L_den":20,"R_num":2,"R_den":4,"correct_side":2,"subjID":"dillanaugustoserravera28","gender":"0","school":"No_school","age":"No_age"},{"start_time":1551887211069,"click_time":1551887213266,"finger_time":1551887212946,"fix_duration":781.7766743002963,"trial":8,"RT":1877,"MT":320,"sideResp":2,"stimulus":[],"xmouse":[810,810,810,810,810,810,810,810,810,810,810,810,810,810,810,810,810,810,810,810,810,810,810,810,810,810,810,810,810,810,810,810,810,810,810,810,810,810,810,810,810,810,810,810,810,810,810,810,810,810,810,810,810,810,810,810,810,810,810,810,810,810,810,810,810,810,810,810,810,810,810,810,810,810,810,810,810,810,810,810,810,810,810,809,808,808,808,808,808,808,809,815,827,843,898,947,1013,1062,1175,1239,1260,1268,1269,1271,1271,1267,1256,1238,1168,1121],"ymouse":[511,511,511,511,511,511,511,511,511,511,511,511,511,511,511,511,511,511,511,511,511,511,511,511,511,511,511,511,511,511,511,511,511,511,511,511,511,511,511,511,511,511,511,511,511,511,511,511,511,511,511,511,511,511,511,511,511,511,511,511,511,511,511,511,511,511,511,511,511,511,511,511,511,511,511,511,511,511,511,511,511,511,511,511,511,511,511,511,511,511,509,499,485,466,407,353,275,226,167,139,128,123,121,118,114,110,107,102,91,85],"timestamp_mouse":[18,38,56,78,98,117,136,158,178,197,217,237,258,277,297,318,337,357,378,398,417,437,458,477,498,517,537,557,577,598,618,637,657,677,696,717,736,758,778,797,818,837,858,877,897,917,938,958,977,997,1017,1037,1057,1077,1098,1117,1138,1157,1178,1197,1218,1237,1258,1277,1298,1317,1337,1358,1377,1397,1417,1437,1457,1478,1497,1517,1537,1557,1576,1597,1617,1637,1657,1677,1697,1716,1737,1757,1778,1796,1818,1837,1857,1877,1898,1917,1938,1957,1978,1997,2017,2037,2057,2077,2097,2117,2137,2157,2177,2197],"xSR":741.5,"ySR":449.15000000000003,"xT1":424.9,"yT1":0,"xT2":1058.1,"yT2":0,"toosoon":0,"cond_shown":"Incongruent","ratio_trial":200,"L_num":7,"L_den":10,"R_num":12,"R_den":24,"correct_side":1,"subjID":"dillanaugustoserravera28","gender":"0","school":"No_school","age":"No_age"},{"start_time":1551887215819,"click_time":1551887218606,"finger_time":1551887218446,"fix_duration":1391.6082569991327,"trial":9,"RT":2627,"MT":160,"sideResp":2,"stimulus":[],"xmouse":[777,778,778,778,777,776,774,774,774,774,774,774,774,774,774,774,774,774,774,774,774,774,774,775,775,775,775,775,775,775,775,775,775,775,775,775,775,775,775,775,775,775,775,775,779,780,780,780,780,780,780,780,780,780,780,780,780,780,780,780,780,780,780,780,780,780,780,780,780,780,780,780,780,780,780,780,780,780,780,780,780,780,781,781,782,782,782,782,782,782,782,782,782,782,782,782,782,782,782,782,782,782,782,782,782,782,782,782,782,782,782,782,782,782,782,782,782,782,782,782,782,782,782,782,782,782,782,782,783,785,808,859,964,992,1011,1026,1034,1039,1045,1062],"ymouse":[494,493,493,493,493,495,496,496,496,496,497,497,497,497,497,497,497,497,497,497,497,497,497,496,496,496,496,496,496,496,496,496,496,496,496,496,496,496,496,496,496,496,496,496,496,496,496,496,496,496,496,496,496,496,496,496,496,496,496,496,496,496,496,496,496,496,496,496,496,496,496,496,496,496,496,496,496,496,496,496,496,496,496,496,494,494,494,494,494,494,494,494,494,493,486,485,484,482,482,482,482,482,482,482,482,482,482,482,482,482,482,482,482,482,482,482,482,482,482,482,482,482,482,482,482,482,482,482,481,479,464,420,176,114,86,70,60,49,34,14],"timestamp_mouse":[8,28,47,68,86,108,128,148,168,188,208,227,248,268,287,307,326,347,367,387,407,427,448,467,487,507,527,548,567,586,607,627,648,667,686,707,727,746,767,787,806,828,848,868,887,908,927,948,968,987,1007,1028,1047,1068,1087,1108,1126,1148,1167,1188,1207,1227,1247,1267,1287,1306,1327,1347,1367,1387,1407,1427,1447,1468,1486,1507,1527,1547,1567,1586,1608,1627,1648,1668,1687,1708,1728,1748,1767,1787,1807,1828,1848,1866,1888,1908,1928,1947,1967,1987,2007,2028,2047,2067,2088,2108,2128,2147,2168,2187,2207,2228,2247,2267,2287,2308,2326,2348,2368,2388,2408,2428,2448,2468,2487,2507,2527,2548,2566,2587,2607,2627,2647,2667,2687,2706,2727,2747,2768,2787],"xSR":741.5,"ySR":449.15000000000003,"xT1":424.9,"yT1":0,"xT2":1058.1,"yT2":0,"toosoon":0,"cond_shown":"Congruent","ratio_trial":300,"L_num":4,"L_den":20,"R_num":13,"R_den":26,"correct_side":2,"subjID":"dillanaugustoserravera28","gender":"0","school":"No_school","age":"No_age"},{"start_time":1551887222637,"click_time":1551887223447,"finger_time":1551887222967,"fix_duration":250,"trial":10,"RT":330,"MT":480,"sideResp":2,"stimulus":[],"xmouse":[762,762,762,762,762,762,762,762,762,762,762,762,762,763,769,800,826,861,906,950,988,1066,1078,1084,1086,1087,1088,1090,1091,1091,1093,1093,1093,1093,1093,1093,1093,1093,1093,1093,1099],"ymouse":[486,486,486,486,486,486,486,486,486,486,486,486,486,486,482,461,439,401,345,289,246,172,158,149,146,144,139,136,134,131,122,120,120,120,120,120,120,120,118,114,91],"timestamp_mouse":[11,42,49,69,89,109,130,149,169,189,210,229,249,270,290,310,330,349,370,389,410,428,450,469,490,509,530,549,569,589,610,629,650,670,689,710,729,749,768,789,810],"xSR":741.5,"ySR":449.15000000000003,"xT1":424.9,"yT1":0,"xT2":1058.1,"yT2":0,"toosoon":0,"cond_shown":"Congruent","ratio_trial":300,"L_num":20,"L_den":25,"R_num":13,"R_den":26,"correct_side":1,"subjID":"dillanaugustoserravera28","gender":"0","school":"No_school","age":"No_age"},{"start_time":1551887225009,"click_time":1551887226866,"finger_time":1551887226306,"fix_duration":841.7575081451695,"trial":11,"RT":1297,"MT":560,"sideResp":1,"stimulus":[],"xmouse":[825,825,825,825,825,825,825,825,825,825,825,825,825,825,825,825,825,825,825,825,825,825,825,825,825,825,824,819,819,819,818,818,818,818,818,818,818,818,818,818,818,818,818,818,812,810,796,788,783,777,773,771,768,768,766,766,764,761,761,761,761,761,758,747,733,714,687,684,684,684,684,684,684,684,682,680,678,666,661,657,654,646,633,630,626,618,607,580,558,522,492,474,444],"ymouse":[497,497,497,497,497,497,497,497,497,497,497,497,497,497,497,497,497,497,497,497,497,497,497,497,497,497,497,490,489,489,488,488,488,488,488,488,488,488,488,488,488,488,488,488,490,494,508,511,513,513,513,512,509,507,503,499,495,489,489,489,489,489,489,501,518,533,550,551,551,551,551,551,551,551,549,531,508,443,410,384,359,334,312,311,307,297,284,248,222,184,151,126,81],"timestamp_mouse":[17,39,57,77,98,117,137,157,177,197,218,236,257,278,297,317,338,358,378,397,418,437,457,478,497,518,538,556,576,597,617,636,657,678,696,717,737,758,777,797,817,837,857,877,898,918,938,958,978,998,1017,1037,1057,1076,1097,1117,1137,1158,1178,1197,1217,1237,1257,1277,1297,1318,1338,1357,1377,1398,1418,1437,1457,1476,1497,1517,1536,1556,1577,1598,1618,1637,1656,1677,1697,1717,1737,1757,1777,1798,1816,1837,1857],"xSR":741.5,"ySR":449.15000000000003,"xT1":424.9,"yT1":0,"xT2":1058.1,"yT2":0,"toosoon":0,"cond_shown":"Congruent","ratio_trial":100,"L_num":7,"L_den":14,"R_num":9,"R_den":15,"correct_side":2,"subjID":"dillanaugustoserravera28","gender":"0","school":"No_school","age":"No_age"},{"start_time":1551887231368,"click_time":1551887232166,"finger_time":1551887231706,"fix_duration":800.8302050951181,"trial":12,"RT":338,"MT":460,"sideResp":2,"stimulus":[],"xmouse":[780,780,780,780,780,780,780,780,780,780,780,780,780,780,790,809,831,860,907,924,938,952,966,973,979,979,979,979,979,979,979,979,979,979,983,991,1005,1024,1047,1088],"ymouse":[528,528,528,528,528,528,528,528,528,528,528,528,528,528,501,476,445,406,349,329,311,285,231,189,145,139,137,136,136,136,136,136,136,136,137,136,130,123,113,97],"timestamp_mouse":[18,38,59,78,98,119,139,159,179,197,218,239,259,278,298,318,338,358,380,398,418,439,458,477,498,519,538,558,579,598,619,637,659,678,698,719,738,759,778,798],"xSR":741.5,"ySR":449.15000000000003,"xT1":424.9,"yT1":0,"xT2":1058.1,"yT2":0,"toosoon":0,"cond_shown":"Congruent","ratio_trial":300,"L_num":1,"L_den":20,"R_num":7,"R_den":20,"correct_side":2,"subjID":"dillanaugustoserravera28","gender":"0","school":"No_school","age":"No_age"},{"start_time":1551887233137,"click_time":1551887233947,"finger_time":1551887233467,"fix_duration":250,"trial":13,"RT":330,"MT":480,"sideResp":2,"stimulus":[],"xmouse":[812,812,812,812,812,812,812,812,812,812,812,812,812,815,817,824,836,844,861,875,891,905,907,909,909,910,912,914,917,920,923,936,947,960,976,989,1016,1025,1035,1044,1060],"ymouse":[486,486,486,486,486,486,486,486,486,486,486,486,486,483,481,465,440,420,381,335,278,213,199,192,192,191,189,186,182,179,175,162,152,143,135,130,114,107,96,81,60],"timestamp_mouse":[9,33,49,68,89,108,128,150,169,188,210,228,250,269,288,309,330,349,369,390,409,428,448,469,490,509,529,550,570,589,608,629,649,669,689,710,730,749,768,789,810],"xSR":741.5,"ySR":449.15000000000003,"xT1":424.9,"yT1":0,"xT2":1058.1,"yT2":0,"toosoon":0,"cond_shown":"Incongruent","ratio_trial":200,"L_num":6,"L_den":20,"R_num":3,"R_den":6,"correct_side":2,"subjID":"dillanaugustoserravera28","gender":"0","school":"No_school","age":"No_age"},{"start_time":1551887235724,"click_time":1551887237786,"finger_time":1551887237286,"fix_duration":877.8936701134919,"trial":14,"RT":1562,"MT":500,"sideResp":1,"stimulus":[],"xmouse":[814,814,814,814,814,814,814,814,814,814,814,814,814,814,814,814,814,814,814,814,814,814,814,814,814,814,814,814,814,814,814,814,814,814,814,814,814,814,814,814,814,814,814,814,814,814,814,814,814,814,814,814,814,814,814,814,814,814,814,814,814,814,814,814,814,814,814,814,814,814,814,814,814,814,814,813,813,830,840,849,856,861,873,879,886,895,904,916,916,916,916,916,916,916,916,916,913,882,839,786,727,669,531,464],"ymouse":[516,516,516,516,516,516,516,516,516,516,516,516,516,516,516,516,516,516,516,516,516,516,516,516,516,516,516,516,516,516,516,516,516,516,516,516,516,516,516,516,516,516,516,516,516,516,516,516,516,516,516,516,516,516,516,516,516,516,516,516,516,516,516,516,516,516,516,516,516,516,516,516,516,516,516,516,506,463,446,429,416,403,377,368,355,339,324,300,300,300,300,300,300,300,300,300,297,281,246,201,151,111,34,4],"timestamp_mouse":[11,21,42,62,83,101,122,141,161,182,202,221,241,263,282,302,321,341,362,382,401,422,442,463,481,501,523,543,561,583,601,623,641,662,681,702,722,743,761,781,802,823,841,861,883,901,923,943,962,982,1001,1021,1041,1061,1082,1101,1121,1143,1161,1181,1203,1222,1242,1261,1283,1302,1322,1343,1363,1381,1402,1422,1442,1462,1481,1502,1521,1542,1561,1582,1602,1623,1642,1662,1682,1701,1721,1742,1763,1782,1801,1823,1843,1862,1882,1901,1924,1941,1962,1982,2003,2021,2041,2062],"xSR":741.5,"ySR":449.15000000000003,"xT1":424.9,"yT1":0,"xT2":1058.1,"yT2":0,"toosoon":0,"cond_shown":"Congruent","ratio_trial":300,"L_num":11,"L_den":22,"R_num":2,"R_den":10,"correct_side":1,"subjID":"dillanaugustoserravera28","gender":"0","school":"No_school","age":"No_age"},{"start_time":1551887240555,"click_time":1551887242507,"finger_time":1551887242107,"fix_duration":1489.4516379855575,"trial":15,"RT":1552,"MT":400,"sideResp":2,"stimulus":[],"xmouse":[796,796,796,796,796,796,796,796,796,796,796,796,796,796,796,796,796,796,796,796,796,796,796,796,796,796,796,796,796,796,796,796,796,796,796,796,796,796,796,796,796,796,796,796,796,796,796,796,796,796,796,796,796,796,796,796,796,796,796,796,796,796,796,796,796,796,796,796,796,796,796,796,796,796,805,829,856,898,941,988,991,991,991,991,991,991,991,991,994,1018,1031,1040,1046,1052,1065,1071,1075],"ymouse":[498,498,498,498,498,498,498,498,498,498,498,498,498,498,498,498,498,498,498,498,498,498,498,498,498,498,498,498,498,498,498,498,498,498,498,498,498,498,498,498,498,498,498,498,498,498,498,498,498,498,498,498,498,498,498,498,498,498,498,498,498,498,498,498,498,498,498,498,498,498,498,498,498,498,478,453,429,387,338,252,233,221,215,214,210,210,207,204,193,163,152,142,134,126,110,102,98],"timestamp_mouse":[35,51,72,92,110,132,150,171,191,211,232,252,272,291,312,330,350,371,391,411,431,451,471,491,510,532,551,571,591,610,632,651,670,692,712,731,751,770,790,811,831,851,870,892,911,931,951,971,991,1012,1032,1052,1071,1090,1111,1131,1152,1171,1191,1211,1231,1250,1271,1291,1312,1331,1350,1372,1390,1410,1432,1451,1472,1490,1512,1531,1552,1570,1590,1611,1631,1650,1671,1690,1710,1730,1750,1770,1792,1810,1831,1851,1871,1891,1911,1931,1951],"xSR":741.5,"ySR":449.15000000000003,"xT1":424.9,"yT1":0,"xT2":1058.1,"yT2":0,"toosoon":0,"cond_shown":"Incongruent","ratio_trial":300,"L_num":13,"L_den":26,"R_num":12,"R_den":15,"correct_side":2,"subjID":"dillanaugustoserravera28","gender":"0","school":"No_school","age":"No_age"},{"start_time":1551887246185,"click_time":1551887248286,"finger_time":1551887247845,"fix_duration":416.9563960033563,"trial":16,"RT":1660,"MT":441,"sideResp":1,"stimulus":[],"xmouse":[805,805,805,805,805,805,805,805,805,805,805,805,805,805,805,805,805,805,805,805,803,798,795,793,787,787,787,787,787,787,787,787,787,787,787,787,787,787,787,787,787,787,787,787,787,787,787,787,787,787,787,787,787,787,787,787,787,787,787,787,787,787,787,787,787,787,787,787,787,787,787,787,787,787,787,787,787,787,787,787,787,782,773,743,678,658,638,628,619,608,603,596,590,574,571,571,569,568,568,565,563,556,541,518,501,493],"ymouse":[494,494,494,494,494,494,494,494,494,494,494,494,494,494,494,494,494,494,495,495,495,491,488,486,481,481,481,481,481,481,481,481,479,477,477,477,477,477,477,477,477,477,477,477,477,477,477,477,477,477,477,477,477,477,477,477,477,477,477,477,477,477,477,477,477,477,477,477,477,477,477,477,477,477,477,477,477,477,477,477,477,470,459,431,384,370,355,348,338,304,255,228,210,175,170,168,166,164,163,161,159,153,140,122,107,97],"timestamp_mouse":[9,32,40,62,81,100,120,140,161,180,200,221,240,260,281,300,321,340,361,382,401,420,440,460,480,500,520,541,560,582,600,622,642,661,681,702,720,740,762,780,800,822,840,861,881,902,920,941,960,980,1000,1021,1042,1060,1080,1100,1121,1141,1162,1180,1202,1222,1241,1262,1281,1301,1321,1341,1362,1381,1401,1422,1441,1462,1480,1501,1521,1541,1560,1581,1600,1620,1641,1660,1680,1700,1721,1741,1762,1781,1801,1821,1840,1861,1880,1900,1921,1941,1960,1981,2001,2033,2041,2062,2080,2101],"xSR":741.5,"ySR":449.15000000000003,"xT1":424.9,"yT1":0,"xT2":1058.1,"yT2":0,"toosoon":0,"cond_shown":"Incongruent","ratio_trial":300,"L_num":8,"L_den":10,"R_num":14,"R_den":28,"correct_side":1,"subjID":"dillanaugustoserravera28","gender":"0","school":"No_school","age":"No_age"},{"start_time":1551887251938,"click_time":1551887255607,"finger_time":1551887255305,"fix_duration":909.980324121704,"trial":17,"RT":3367,"MT":302,"sideResp":1,"stimulus":[],"xmouse":[759,759,759,759,759,759,759,759,759,759,759,759,759,759,759,759,759,759,759,759,759,759,759,759,759,759,759,759,759,759,759,759,759,759,759,759,759,759,759,759,759,759,759,759,759,759,759,759,759,759,759,759,759,759,759,759,759,759,759,759,759,759,759,759,759,759,759,759,759,759,759,759,759,759,759,759,759,759,759,759,759,759,759,759,759,759,759,759,759,759,759,759,759,759,759,759,759,759,759,759,759,759,759,759,759,759,759,759,759,759,759,759,759,759,759,759,759,759,759,759,759,759,759,759,759,759,759,759,759,759,759,759,759,759,759,759,759,759,759,759,759,759,759,759,759,759,759,759,759,759,759,759,759,759,759,759,759,759,759,759,759,759,759,759,759,759,759,759,748,725,663,624,624,624,624,624,624,624,624,624,624,624,624,507],"ymouse":[486,486,486,486,486,486,486,486,486,486,486,486,486,486,486,486,486,486,486,486,486,486,486,486,486,486,486,486,486,486,486,486,486,486,486,486,486,486,486,486,486,486,486,486,486,486,486,486,486,486,486,486,486,486,486,486,486,486,486,486,486,486,486,486,486,486,486,486,486,486,486,486,486,486,486,486,486,486,486,486,486,486,486,486,486,486,486,486,486,486,486,486,486,486,486,486,486,486,486,486,486,486,486,486,486,486,486,486,486,486,486,486,486,486,486,486,486,486,486,486,486,486,486,486,486,486,486,486,486,486,486,486,486,486,486,486,486,486,486,486,486,486,486,486,486,486,486,486,486,486,486,486,486,486,486,486,486,486,486,486,486,486,486,486,486,486,486,486,446,300,88,24,24,24,24,24,24,24,24,24,24,24,24,3],"timestamp_mouse":[9,43,49,67,87,108,127,149,169,188,208,227,248,267,287,309,329,347,367,388,407,428,448,467,488,509,527,548,567,589,608,628,649,669,688,709,727,749,768,788,808,827,848,868,888,909,927,947,968,989,1007,1027,1047,1068,1089,1108,1129,1147,1167,1188,1209,1228,1248,1268,1288,1309,1328,1347,1369,1387,1409,1428,1448,1468,1488,1508,1529,1547,1567,1587,1607,1627,1648,1667,1689,1707,1727,1747,1769,1787,1807,1828,1848,1868,1888,1907,1927,1947,1967,1988,2009,2028,2048,2068,2087,2107,2129,2148,2168,2187,2207,2227,2247,2267,2287,2307,2328,2348,2367,2388,2409,2428,2447,2468,2488,2508,2529,2548,2568,2587,2607,2629,2647,2668,2687,2708,2729,2749,2767,2787,2809,2827,2847,2868,2888,2909,2927,2947,2967,2988,3008,3027,3047,3069,3089,3107,3127,3148,3169,3187,3208,3228,3247,3269,3288,3307,3329,3347,3367,3388,3409,3428,3447,3467,3488,3508,3528,3547,3568,3588,3609,3628,3649,3669],"xSR":741.5,"ySR":449.15000000000003,"xT1":424.9,"yT1":0,"xT2":1058.1,"yT2":0,"toosoon":0,"cond_shown":"Incongruent","ratio_trial":300,"L_num":4,"L_den":5,"R_num":8,"R_den":16,"correct_side":1,"subjID":"dillanaugustoserravera28","gender":"0","school":"No_school","age":"No_age"},{"start_time":1551887257174,"click_time":1551887258525,"finger_time":1551887258106,"fix_duration":544.4547757120534,"trial":18,"RT":932,"MT":419,"sideResp":2,"stimulus":[],"xmouse":[823,823,823,823,823,823,823,823,823,823,823,823,823,823,823,823,823,823,823,823,823,823,823,823,823,823,823,823,823,823,823,823,823,823,823,823,823,823,823,823,823,823,823,823,825,831,838,855,921,959,1003,1039,1060,1076,1078,1079,1079,1079,1079,1080,1081,1083,1084,1085,1085,1085,1085,1085],"ymouse":[501,501,501,501,501,501,501,501,501,501,501,501,501,501,501,501,501,501,501,501,501,501,501,501,501,501,501,501,501,501,501,501,501,501,501,501,501,501,501,501,501,501,501,501,492,466,447,420,349,314,270,229,199,169,162,160,158,155,148,142,136,128,116,108,102,101,101,99],"timestamp_mouse":[14,37,53,71,91,111,133,151,171,192,212,232,251,273,292,312,332,351,371,392,411,433,453,471,492,511,532,552,573,591,612,632,652,672,691,711,732,752,773,791,812,831,852,872,893,911,932,951,973,991,1012,1031,1051,1073,1092,1112,1132,1152,1172,1191,1211,1232,1253,1272,1293,1313,1332,1351],"xSR":741.5,"ySR":449.15000000000003,"xT1":424.9,"yT1":0,"xT2":1058.1,"yT2":0,"toosoon":0,"cond_shown":"Incongruent","ratio_trial":300,"L_num":13,"L_den":26,"R_num":12,"R_den":15,"correct_side":2,"subjID":"dillanaugustoserravera28","gender":"0","school":"No_school","age":"No_age"},{"start_time":1551887260837,"click_time":1551887262325,"finger_time":1551887261846,"fix_duration":1269.115112193082,"trial":19,"RT":1009,"MT":479,"sideResp":1,"stimulus":[],"xmouse":[810,810,810,810,810,810,810,810,810,810,810,810,810,810,810,810,810,810,810,810,810,810,810,810,810,810,810,810,810,810,810,810,810,810,810,810,810,810,810,810,810,810,810,810,810,810,810,810,810,811,811,784,768,751,735,677,600,498,407,351,333,333,333,333,333,333,333,333,333,338,352,390,406,418,426],"ymouse":[473,473,473,473,473,473,473,473,473,473,473,473,473,473,473,473,473,473,473,473,473,473,473,473,473,473,473,473,473,473,473,473,473,473,473,473,473,473,473,473,473,473,473,473,473,473,473,473,473,454,442,396,376,356,334,281,224,132,55,22,13,13,13,13,12,9,9,9,8,8,15,37,43,47,50],"timestamp_mouse":[10,42,49,69,90,108,130,149,168,190,210,229,249,268,289,310,329,348,368,388,410,428,448,468,489,510,529,548,569,588,608,629,648,669,688,708,729,748,768,789,808,828,850,869,888,908,929,949,968,988,1009,1028,1049,1069,1088,1110,1128,1148,1168,1189,1210,1229,1250,1268,1288,1309,1329,1350,1369,1389,1408,1429,1448,1468,1488],"xSR":741.5,"ySR":449.15000000000003,"xT1":424.9,"yT1":0,"xT2":1058.1,"yT2":0,"toosoon":0,"cond_shown":"Congruent","ratio_trial":300,"L_num":9,"L_den":10,"R_num":3,"R_den":5,"correct_side":1,"subjID":"dillanaugustoserravera28","gender":"0","school":"No_school","age":"No_age"},{"start_time":1551887265397,"click_time":1551887266326,"finger_time":1551887265765,"fix_duration":1028.792769580071,"trial":20,"RT":368,"MT":561,"sideResp":1,"stimulus":[],"xmouse":[794,794,794,794,794,794,794,794,794,794,794,794,794,794,792,788,782,776,755,737,700,636,527,522,518,515,511,506,506,506,506,506,506,506,506,506,506,506,506,506,506,506,506,506,506,504,503],"ymouse":[501,501,501,501,501,501,501,501,501,501,501,501,501,497,486,477,466,455,422,397,333,244,165,162,161,159,156,151,150,150,150,150,150,150,150,150,150,150,150,150,150,150,150,148,125,107,98],"timestamp_mouse":[10,30,49,68,90,108,129,150,169,188,209,229,248,268,289,309,328,348,368,388,408,430,450,469,489,509,529,550,568,589,608,628,649,670,689,709,728,750,768,788,809,829,849,868,889,909,929],"xSR":741.5,"ySR":449.15000000000003,"xT1":424.9,"yT1":0,"xT2":1058.1,"yT2":0,"toosoon":0,"cond_shown":"Congruent","ratio_trial":100,"L_num":4,"L_den":8,"R_num":6,"R_den":10,"correct_side":2,"subjID":"dillanaugustoserravera28","gender":"0","school":"No_school","age":"No_age"},{"start_time":1551887267593,"click_time":1551887269766,"finger_time":1551887268725,"fix_duration":445.2014991323422,"trial":21,"RT":1132,"MT":1041,"sideResp":2,"stimulus":[],"xmouse":[792,792,792,792,792,792,792,792,792,792,792,792,792,792,792,792,792,792,792,792,792,792,792,793,793,793,793,793,793,793,793,793,793,793,793,793,793,793,793,793,793,793,793,793,793,793,793,793,793,793,793,793,793,784,778,768,752,718,652,623,596,570,536,525,508,498,490,486,482,482,482,484,484,481,481,480,480,480,480,480,480,480,480,480,480,480,480,491,505,523,547,577,681,800,894,995,1078,1141,1236,1250,1255,1255,1245,1245,1243,1240,1232,1189,1157],"ymouse":[524,524,524,524,524,524,524,524,524,524,524,524,524,524,524,524,524,524,524,524,524,524,524,523,523,523,523,523,523,523,523,523,523,523,523,523,523,523,523,523,523,523,523,523,523,523,523,523,523,523,523,523,523,497,478,456,421,377,304,273,254,236,215,207,192,181,172,167,154,152,149,140,119,110,109,108,107,105,105,105,105,105,105,105,105,105,105,105,107,113,119,129,151,170,184,199,206,206,206,206,202,197,171,169,166,160,148,114,95],"timestamp_mouse":[12,37,54,73,93,113,133,153,174,192,213,234,252,274,292,312,333,352,373,394,413,433,454,472,492,513,532,553,573,593,613,634,653,672,692,713,733,753,772,793,813,833,853,872,893,913,933,953,973,992,1012,1032,1052,1072,1093,1112,1132,1154,1172,1192,1212,1232,1254,1272,1292,1312,1334,1353,1373,1392,1413,1432,1453,1473,1492,1513,1533,1552,1573,1593,1613,1633,1652,1673,1693,1713,1732,1754,1772,1793,1813,1832,1854,1873,1893,1912,1932,1952,1972,1993,2012,2033,2054,2072,2093,2113,2134,2153,2173],"xSR":741.5,"ySR":449.15000000000003,"xT1":424.9,"yT1":0,"xT2":1058.1,"yT2":0,"toosoon":0,"cond_shown":"Incongruent","ratio_trial":100,"L_num":10,"L_den":25,"R_num":8,"R_den":16,"correct_side":2,"subjID":"dillanaugustoserravera28","gender":"0","school":"No_school","age":"No_age"},{"start_time":1551887271966,"click_time":1551887273625,"finger_time":1551887273246,"fix_duration":1159.0889331965102,"trial":22,"RT":1280,"MT":379,"sideResp":1,"stimulus":[],"xmouse":[785,785,785,785,785,785,785,785,785,785,785,785,785,785,785,785,785,785,785,785,785,785,785,785,785,785,785,785,785,785,785,785,785,785,785,785,785,785,785,785,785,785,785,785,785,785,785,785,785,785,785,785,785,785,785,785,785,785,785,785,785,785,785,784,746,710,688,667,648,619,617,616,616,616,616,616,616,612,602,588,556,539,525,520],"ymouse":[493,493,493,493,493,493,493,493,493,493,493,493,493,493,493,493,493,493,493,493,493,493,493,493,493,493,493,493,493,493,493,493,493,493,493,493,493,493,493,493,493,493,493,493,493,493,493,493,493,493,493,493,493,493,493,493,493,493,493,493,493,493,493,493,405,346,302,246,155,86,80,78,78,78,78,78,78,78,76,75,75,75,73,72],"timestamp_mouse":[8,31,40,60,79,99,119,140,161,181,199,220,239,261,279,301,320,339,360,381,401,419,439,461,479,501,521,539,559,580,599,619,639,661,679,701,721,740,761,780,800,820,839,861,880,900,920,939,961,980,999,1020,1039,1061,1079,1101,1119,1139,1160,1180,1200,1220,1239,1260,1280,1299,1320,1340,1360,1380,1399,1419,1440,1461,1480,1501,1519,1539,1560,1580,1600,1619,1640,1659],"xSR":741.5,"ySR":449.15000000000003,"xT1":424.9,"yT1":0,"xT2":1058.1,"yT2":0,"toosoon":0,"cond_shown":"Congruent","ratio_trial":200,"L_num":4,"L_den":8,"R_num":3,"R_den":10,"correct_side":1,"subjID":"dillanaugustoserravera28","gender":"0","school":"No_school","age":"No_age"},{"start_time":1551887277798,"click_time":1551887279007,"finger_time":1551887278647,"fix_duration":250,"trial":23,"RT":849,"MT":360,"sideResp":1,"stimulus":[],"xmouse":[778,778,778,778,778,778,778,778,778,778,778,778,778,778,778,778,778,778,778,778,778,778,778,778,778,778,778,778,778,778,778,778,778,778,778,778,778,778,778,778,769,762,734,707,694,686,678,668,650,643,632,625,615,596,592,586,577,566,541,524,510],"ymouse":[477,477,477,477,477,477,477,477,477,477,477,477,477,477,477,477,477,477,477,477,477,477,477,477,477,477,477,477,477,477,477,477,477,477,477,477,477,477,477,477,464,452,409,379,361,344,321,296,256,241,222,211,198,183,180,171,159,150,124,100,91],"timestamp_mouse":[10,34,49,67,87,109,127,147,167,188,209,228,247,269,288,308,329,347,367,388,408,428,448,467,487,507,528,548,569,587,609,627,648,667,687,709,728,748,769,789,808,827,849,867,888,909,928,947,967,988,1008,1028,1047,1067,1087,1107,1127,1148,1167,1188,1208],"xSR":741.5,"ySR":449.15000000000003,"xT1":424.9,"yT1":0,"xT2":1058.1,"yT2":0,"toosoon":0,"cond_shown":"Incongruent","ratio_trial":200,"L_num":1,"L_den":3,"R_num":2,"R_den":15,"correct_side":1,"subjID":"dillanaugustoserravera28","gender":"0","school":"No_school","age":"No_age"},{"start_time":1551887280218,"click_time":1551887281866,"finger_time":1551887281545,"fix_duration":250,"trial":24,"RT":1327,"MT":321,"sideResp":1,"stimulus":[],"xmouse":[792,792,792,792,792,792,792,792,792,792,792,792,792,792,792,792,792,792,792,792,792,792,792,792,792,792,792,792,792,792,792,792,792,792,792,792,792,792,792,792,792,792,792,792,792,792,792,792,792,792,792,792,792,792,792,792,792,792,792,792,792,792,792,792,792,777,771,757,748,739,725,707,673,668,666,663,657,642,634,620,598,548,515],"ymouse":[467,467,467,467,467,467,467,467,467,467,467,467,467,467,467,467,467,467,467,467,467,467,467,467,467,467,467,467,467,467,467,467,467,467,467,467,467,467,467,467,467,467,467,467,467,467,467,467,467,467,467,467,467,467,467,467,467,467,467,467,467,467,467,467,467,452,443,405,383,361,330,285,223,212,206,198,190,167,154,136,105,63,34],"timestamp_mouse":[8,37,47,68,87,109,129,148,168,187,207,228,248,267,287,307,327,348,367,387,407,428,448,467,487,508,528,548,567,588,607,628,647,669,688,708,728,747,767,787,809,829,849,867,888,907,927,947,968,987,1007,1028,1049,1068,1087,1109,1128,1147,1168,1187,1207,1228,1248,1268,1288,1307,1327,1348,1367,1389,1409,1428,1447,1468,1489,1508,1527,1548,1568,1588,1608,1628,1648],"xSR":741.5,"ySR":449.15000000000003,"xT1":424.9,"yT1":0,"xT2":1058.1,"yT2":0,"toosoon":0,"cond_shown":"Congruent","ratio_trial":300,"L_num":3,"L_den":6,"R_num":2,"R_den":10,"correct_side":1,"subjID":"dillanaugustoserravera28","gender":"0","school":"No_school","age":"No_age"},{"start_time":1551887283950,"click_time":1551887284946,"finger_time":1551887284447,"fix_duration":863.4350391033306,"trial":25,"RT":497,"MT":499,"sideResp":1,"stimulus":[],"xmouse":[788,788,788,788,788,788,788,788,788,788,788,788,788,788,788,788,788,788,788,788,788,788,788,789,789,789,787,785,781,779,777,775,771,761,735,706,686,668,649,608,588,569,554,547,545,541,541,540,538,522],"ymouse":[471,471,471,471,471,471,471,471,471,471,471,471,471,471,471,471,471,471,471,471,471,461,458,453,445,437,432,428,423,419,417,414,408,393,357,322,301,284,264,216,192,165,142,126,113,98,96,95,95,90],"timestamp_mouse":[16,40,56,77,97,116,136,156,175,196,216,236,255,276,295,317,335,355,376,396,415,436,457,475,497,515,536,556,575,595,616,635,656,675,697,715,735,756,776,797,815,835,857,876,895,916,936,957,976,996],"xSR":741.5,"ySR":449.15000000000003,"xT1":424.9,"yT1":0,"xT2":1058.1,"yT2":0,"toosoon":0,"cond_shown":"Congruent","ratio_trial":100,"L_num":10,"L_den":25,"R_num":3,"R_den":10,"correct_side":1,"subjID":"dillanaugustoserravera28","gender":"0","school":"No_school","age":"No_age"},{"start_time":1551887286118,"click_time":1551887287746,"finger_time":1551887287245,"fix_duration":250,"trial":26,"RT":1127,"MT":501,"sideResp":2,"stimulus":[],"xmouse":[807,807,807,807,807,807,807,807,807,807,807,807,807,807,807,807,807,807,807,807,807,807,807,807,807,807,807,807,807,807,807,807,807,807,807,807,807,807,807,807,807,807,807,807,807,807,807,807,807,807,807,807,809,814,820,823,829,836,840,844,850,871,884,897,911,927,960,977,983,986,989,993,994,996,997,998,1002,1013,1026,1041,1058,1089],"ymouse":[523,523,523,523,523,523,523,523,523,523,523,523,523,523,523,523,523,523,523,523,523,523,523,523,523,523,523,523,523,523,523,523,523,523,523,523,523,523,523,523,523,523,523,523,523,523,523,523,523,523,523,520,502,489,476,465,447,429,424,419,411,389,373,354,335,313,278,255,244,237,232,226,222,216,213,209,200,180,163,144,125,88],"timestamp_mouse":[10,31,47,69,87,109,127,149,168,189,209,229,248,269,288,308,329,348,367,388,407,427,448,468,489,507,528,549,567,588,609,628,649,668,688,709,729,747,767,789,807,828,848,868,888,908,927,949,968,989,1007,1028,1047,1068,1089,1107,1127,1147,1168,1187,1208,1228,1248,1268,1289,1307,1328,1348,1368,1389,1408,1428,1447,1468,1489,1507,1528,1547,1567,1587,1607,1628],"xSR":741.5,"ySR":449.15000000000003,"xT1":424.9,"yT1":0,"xT2":1058.1,"yT2":0,"toosoon":0,"cond_shown":"Congruent","ratio_trial":300,"L_num":1,"L_den":20,"R_num":7,"R_den":20,"correct_side":2,"subjID":"dillanaugustoserravera28","gender":"0","school":"No_school","age":"No_age"},{"start_time":1551887290117,"click_time":1551887292266,"finger_time":1551887291686,"fix_duration":1108.351390618202,"trial":27,"RT":1569,"MT":580,"sideResp":2,"stimulus":[],"xmouse":[795,795,794,793,793,793,793,793,793,793,793,793,793,793,793,793,793,793,793,793,793,793,793,793,793,793,793,793,793,793,793,793,793,793,793,793,793,793,793,793,793,793,793,793,793,793,793,793,793,793,793,793,793,793,793,793,793,793,793,793,793,793,793,793,793,793,793,793,793,793,793,793,793,793,793,793,793,793,1032,1033,1034,1035,1035,1035,1040,1049,1061,1100,1108,1116,1128,1158,1174,1191,1205,1212,1214,1214,1214,1214,1214,1214,1214,1214,1214,1214,1214,1151],"ymouse":[464,464,465,466,466,466,466,466,466,466,466,466,466,466,466,466,466,466,466,466,466,466,466,466,466,466,466,466,466,466,466,466,466,466,466,466,466,466,466,466,466,466,466,466,466,466,466,466,466,466,466,466,466,466,466,466,466,466,466,466,466,466,466,466,466,466,466,466,466,466,466,466,466,466,466,466,466,466,418,418,417,417,417,417,414,406,396,351,326,298,273,225,191,151,107,53,0,0,0,0,0,0,0,0,0,0,0,20],"timestamp_mouse":[8,40,48,69,89,110,128,149,170,188,209,230,248,269,290,310,328,349,368,389,410,430,449,468,490,510,530,549,569,589,608,628,649,668,688,708,728,748,768,788,808,828,848,868,888,908,929,950,969,989,1010,1028,1049,1068,1088,1108,1130,1148,1168,1189,1208,1228,1249,1269,1288,1309,1328,1348,1368,1388,1408,1428,1448,1468,1488,1509,1529,1549,1569,1588,1608,1629,1649,1669,1688,1709,1728,1748,1768,1788,1809,1829,1849,1868,1889,1909,1929,1948,1968,1988,2008,2029,2049,2068,2089,2108,2129,2149],"xSR":741.5,"ySR":449.15000000000003,"xT1":424.9,"yT1":0,"xT2":1058.1,"yT2":0,"toosoon":0,"cond_shown":"Congruent","ratio_trial":100,"L_num":2,"L_den":5,"R_num":11,"R_den":22,"correct_side":2,"subjID":"dillanaugustoserravera28","gender":"0","school":"No_school","age":"No_age"},{"start_time":1551887293586,"click_time":1551887294665,"finger_time":1551887294305,"fix_duration":420.9846734642424,"trial":28,"RT":719,"MT":360,"sideResp":1,"stimulus":[],"xmouse":[761,761,761,761,761,761,761,761,761,761,761,761,761,761,761,761,761,761,761,761,761,761,761,761,761,761,761,761,761,761,761,761,761,761,761,741,718,669,640,611,586,573,568,564,562,561,561,561,561,561,560,558,549,516],"ymouse":[469,469,469,469,469,469,469,469,469,469,469,469,469,469,469,469,469,469,469,469,469,469,469,469,469,469,469,469,469,469,469,469,469,469,463,414,355,225,165,115,77,54,43,22,17,15,15,15,15,15,14,14,14,21],"timestamp_mouse":[20,40,60,79,99,120,139,159,180,200,221,239,259,280,299,320,341,359,379,400,419,440,460,480,500,519,540,560,579,600,621,639,659,681,700,719,739,761,779,800,819,839,861,881,899,919,939,961,980,999,1020,1040,1060,1079],"xSR":741.5,"ySR":449.15000000000003,"xT1":424.9,"yT1":0,"xT2":1058.1,"yT2":0,"toosoon":0,"cond_shown":"Incongruent","ratio_trial":200,"L_num":11,"L_den":20,"R_num":3,"R_den":4,"correct_side":2,"subjID":"dillanaugustoserravera28","gender":"0","school":"No_school","age":"No_age"},{"start_time":1551887297044,"click_time":1551887298525,"finger_time":1551887298226,"fix_duration":1256.6449953182605,"trial":29,"RT":1182,"MT":299,"sideResp":1,"stimulus":[],"xmouse":[804,804,804,804,804,804,804,804,804,804,804,804,804,804,804,804,804,804,804,804,804,804,804,804,804,804,804,804,804,804,804,804,804,804,804,804,804,804,804,804,804,804,804,804,804,804,804,804,804,804,804,804,804,804,804,804,802,797,791,783,767,744,737,727,717,702,667,652,638,623,584,556,533,515,493],"ymouse":[507,507,507,507,507,507,507,507,507,507,507,507,507,507,507,507,507,507,507,502,497,493,491,490,488,487,487,487,487,487,487,487,487,487,487,487,487,487,487,487,487,487,487,487,487,487,487,487,487,487,487,487,487,487,487,487,477,465,453,434,408,370,359,347,335,316,280,263,245,227,180,145,123,107,92],"timestamp_mouse":[9,34,41,62,82,101,122,143,161,182,202,221,242,263,282,302,323,341,361,381,402,423,441,461,481,503,522,542,562,581,603,621,642,663,683,701,721,741,762,781,803,821,841,861,881,902,921,942,962,983,1001,1022,1041,1063,1081,1101,1122,1141,1161,1182,1201,1221,1241,1262,1281,1302,1321,1341,1363,1382,1402,1421,1442,1463,1481],"xSR":741.5,"ySR":449.15000000000003,"xT1":424.9,"yT1":0,"xT2":1058.1,"yT2":0,"toosoon":0,"cond_shown":"Incongruent","ratio_trial":200,"L_num":1,"L_den":3,"R_num":2,"R_den":15,"correct_side":1,"subjID":"dillanaugustoserravera28","gender":"0","school":"No_school","age":"No_age"},{"start_time":1551887299636,"click_time":1551887300826,"finger_time":1551887300065,"fix_duration":250,"trial":30,"RT":429,"MT":761,"sideResp":1,"stimulus":[],"xmouse":[797,797,797,797,797,797,797,797,797,797,797,797,797,797,797,795,793,790,785,782,772,761,749,732,716,707,705,705,703,701,691,677,667,654,641,630,619,615,615,613,609,592,581,575,573,573,573,571,566,557,547,540,540,540,540,539,534,530,527,522],"ymouse":[502,502,502,502,502,502,502,502,502,502,502,502,502,502,502,495,488,482,474,466,450,429,413,393,379,371,366,364,361,356,340,318,301,283,257,229,176,148,140,130,121,107,103,102,101,101,101,100,99,99,97,95,95,95,95,93,92,91,90,88],"timestamp_mouse":[10,41,49,69,90,109,129,150,171,189,210,231,249,270,290,309,330,351,370,391,410,429,449,470,489,510,530,549,570,589,610,629,649,670,689,709,730,749,769,790,810,829,850,870,890,909,930,950,969,990,1009,1030,1051,1071,1091,1110,1129,1149,1169,1190],"xSR":741.5,"ySR":449.15000000000003,"xT1":424.9,"yT1":0,"xT2":1058.1,"yT2":0,"toosoon":0,"cond_shown":"Incongruent","ratio_trial":300,"L_num":3,"L_den":6,"R_num":4,"R_den":20,"correct_side":1,"subjID":"dillanaugustoserravera28","gender":"0","school":"No_school","age":"No_age"},{"start_time":1551887302100,"click_time":1551887302866,"finger_time":1551887302486,"fix_duration":393.51020978042504,"trial":31,"RT":386,"MT":380,"sideResp":1,"stimulus":[],"xmouse":[776,776,776,776,776,776,776,776,776,776,776,776,776,776,775,774,767,755,747,740,734,728,720,702,691,680,671,657,651,648,643,634,619,587,571,557,544,520,504],"ymouse":[541,541,541,541,540,540,540,540,540,540,540,540,540,540,536,533,521,496,476,459,446,431,415,376,358,338,321,296,287,282,275,266,251,212,192,171,153,119,98],"timestamp_mouse":[10,34,46,67,85,106,126,147,165,186,207,226,245,266,286,306,326,346,366,386,405,426,445,466,485,505,526,547,565,586,605,626,647,666,685,706,725,746,766],"xSR":741.5,"ySR":449.15000000000003,"xT1":424.9,"yT1":0,"xT2":1058.1,"yT2":0,"toosoon":0,"cond_shown":"Incongruent","ratio_trial":300,"L_num":2,"L_den":4,"R_num":6,"R_den":30,"correct_side":1,"subjID":"dillanaugustoserravera28","gender":"0","school":"No_school","age":"No_age"},{"start_time":1551887349644,"click_time":1551887350785,"finger_time":1551887350126,"fix_duration":1195.1061569769004,"trial":32,"RT":482,"MT":659,"sideResp":1,"stimulus":[],"xmouse":[788,788,788,788,786,783,783,783,783,783,783,783,783,781,780,779,779,779,780,783,798,827,830,830,830,826,826,826,826,826,826,826,825,824,824,824,824,824,824,824,824,824,821,819,815,814,814,814,814,808,794,734,702,665,628,543,504,471],"ymouse":[502,502,502,502,502,502,502,502,502,502,502,502,502,503,505,506,506,506,506,504,494,470,460,450,439,400,389,382,378,377,377,376,376,376,376,376,376,376,376,376,376,376,392,407,418,422,423,423,424,422,413,345,312,284,252,174,133,97],"timestamp_mouse":[9,32,42,61,81,101,121,142,163,183,201,222,241,263,281,302,322,341,361,381,401,422,442,461,482,502,521,541,562,581,601,622,642,662,682,702,721,743,762,781,802,821,842,862,881,903,923,942,962,982,1003,1022,1041,1062,1081,1102,1122,1141],"xSR":741.5,"ySR":449.15000000000003,"xT1":424.9,"yT1":0,"xT2":1058.1,"yT2":0,"toosoon":0,"cond_shown":"Incongruent","ratio_trial":200,"L_num":1,"L_den":3,"R_num":2,"R_den":15,"correct_side":1,"subjID":"dillanaugustoserravera28","gender":"0","school":"No_school","age":"No_age"},{"start_time":1551887354211,"click_time":1551887355405,"finger_time":1551887354905,"fix_duration":362.9510858406104,"trial":33,"RT":694,"MT":500,"sideResp":2,"stimulus":[],"xmouse":[813,813,813,813,813,813,813,813,813,813,813,813,813,813,813,813,813,813,813,813,813,813,813,813,813,813,813,813,813,813,813,813,814,826,840,864,909,922,931,941,948,955,962,966,970,976,1006,1020,1023,1023,1023,1023,1027,1028,1029,1030,1035,1044,1055,1066],"ymouse":[517,517,517,517,517,517,517,517,517,517,517,517,517,517,517,517,517,517,517,517,517,517,517,517,517,517,517,517,517,517,517,517,514,479,449,409,322,299,279,259,222,183,162,153,147,141,126,118,116,116,116,116,114,113,112,111,106,100,95,90],"timestamp_mouse":[14,41,54,75,95,114,135,156,175,195,214,235,254,275,295,314,334,354,376,395,415,434,454,474,496,515,534,554,574,595,615,635,654,675,694,715,735,754,775,794,815,835,854,875,896,915,935,954,975,994,1014,1035,1054,1074,1095,1115,1135,1154,1175,1194],"xSR":741.5,"ySR":449.15000000000003,"xT1":424.9,"yT1":0,"xT2":1058.1,"yT2":0,"toosoon":0,"cond_shown":"Congruent","ratio_trial":300,"L_num":2,"L_den":20,"R_num":10,"R_den":25,"correct_side":2,"subjID":"dillanaugustoserravera28","gender":"0","school":"No_school","age":"No_age"},{"start_time":1551887359540,"click_time":1551887360585,"finger_time":1551887359826,"fix_duration":693.6012743750783,"trial":34,"RT":286,"MT":759,"sideResp":2,"stimulus":[],"xmouse":[749,749,749,749,749,749,749,749,748,747,744,743,743,742,741,740,740,740,740,740,740,740,740,740,740,740,740,740,740,740,740,740,740,740,740,740,744,766,796,842,950,1009,1071,1147,1180,1202,1231,1231,1231,1223,1191,1165,1134],"ymouse":[532,532,532,532,532,532,532,532,526,521,503,493,485,476,472,468,468,468,468,468,468,468,468,468,468,468,468,468,468,468,468,468,468,468,468,468,462,446,425,397,351,326,283,169,115,91,52,46,40,31,18,14,12],"timestamp_mouse":[8,36,47,65,86,105,125,145,166,186,206,226,245,265,286,306,325,346,365,386,406,425,445,466,486,506,525,546,566,585,606,625,645,666,685,706,725,746,765,786,807,825,845,865,885,906,925,945,966,986,1007,1025,1045],"xSR":741.5,"ySR":449.15000000000003,"xT1":424.9,"yT1":0,"xT2":1058.1,"yT2":0,"toosoon":0,"cond_shown":"Congruent","ratio_trial":200,"L_num":7,"L_den":15,"R_num":18,"R_den":27,"correct_side":2,"subjID":"dillanaugustoserravera28","gender":"0","school":"No_school","age":"No_age"},{"start_time":1551887362986,"click_time":1551887363886,"finger_time":1551887363485,"fix_duration":438.74788309865744,"trial":35,"RT":499,"MT":401,"sideResp":2,"stimulus":[],"xmouse":[762,762,762,762,762,762,762,762,762,762,762,762,762,762,762,762,762,762,762,762,762,762,762,762,796,820,846,865,882,912,939,964,984,1003,1010,1011,1012,1012,1012,1012,1012,1013,1014,1028,1041,1060],"ymouse":[495,495,495,495,495,495,495,495,495,495,495,495,495,495,495,495,495,495,495,495,495,495,495,495,461,421,378,344,317,268,221,178,137,86,52,44,41,38,38,38,38,38,38,42,43,43],"timestamp_mouse":[1,20,44,60,79,99,120,139,159,180,199,220,239,259,281,300,319,339,359,379,399,420,439,460,480,499,520,541,559,579,599,620,641,659,679,699,719,740,759,780,800,819,840,860,879,900],"xSR":741.5,"ySR":449.15000000000003,"xT1":424.9,"yT1":0,"xT2":1058.1,"yT2":0,"toosoon":0,"cond_shown":"Congruent","ratio_trial":200,"L_num":3,"L_den":10,"R_num":11,"R_den":22,"correct_side":2,"subjID":"dillanaugustoserravera28","gender":"0","school":"No_school","age":"No_age"},{"start_time":1551887365209,"click_time":1551887366065,"finger_time":1551887365646,"fix_duration":602.8748189713447,"trial":36,"RT":437,"MT":419,"sideResp":2,"stimulus":[],"xmouse":[782,782,782,782,782,782,782,782,782,782,782,782,782,782,782,782,788,794,803,817,837,889,930,948,966,978,995,1001,1005,1005,1008,1014,1016,1016,1016,1016,1022,1029,1037,1044,1048,1058,1068],"ymouse":[515,515,515,515,515,515,515,515,515,515,516,516,516,516,516,516,516,512,508,498,485,390,318,296,282,271,246,231,208,175,142,116,109,107,107,107,107,107,106,103,102,99,94],"timestamp_mouse":[16,40,56,77,97,116,137,156,177,196,217,238,256,276,297,317,337,356,376,396,418,437,456,476,497,517,537,556,578,596,616,637,656,676,698,716,737,756,776,797,818,837,856],"xSR":741.5,"ySR":449.15000000000003,"xT1":424.9,"yT1":0,"xT2":1058.1,"yT2":0,"toosoon":0,"cond_shown":"Congruent","ratio_trial":300,"L_num":1,"L_den":3,"R_num":19,"R_den":30,"correct_side":2,"subjID":"dillanaugustoserravera28","gender":"0","school":"No_school","age":"No_age"},{"start_time":1551887367518,"click_time":1551887368245,"finger_time":1551887367805,"fix_duration":250,"trial":37,"RT":287,"MT":440,"sideResp":1,"stimulus":[],"xmouse":[824,824,824,824,824,824,824,824,824,824,824,824,824,836,842,862,908,939,960,984,995,1002,1002,1002,1002,1002,1002,1002,1002,999,980,902,845,768,685,615,502],"ymouse":[495,495,495,495,495,495,495,495,495,495,495,495,495,479,468,434,359,309,272,232,207,183,179,178,178,178,178,178,178,177,177,177,177,174,157,127,20],"timestamp_mouse":[10,34,47,68,88,108,127,147,168,187,207,228,247,267,287,307,329,347,368,388,408,428,447,468,487,507,528,547,567,589,608,628,647,667,689,707,727],"xSR":741.5,"ySR":449.15000000000003,"xT1":424.9,"yT1":0,"xT2":1058.1,"yT2":0,"toosoon":0,"cond_shown":"Congruent","ratio_trial":300,"L_num":24,"L_den":30,"R_num":2,"R_den":4,"correct_side":1,"subjID":"dillanaugustoserravera28","gender":"0","school":"No_school","age":"No_age"},{"start_time":1551887369972,"click_time":1551887370547,"finger_time":1551887370346,"fix_duration":344.8924641087037,"trial":38,"RT":374,"MT":201,"sideResp":1,"stimulus":[],"xmouse":[747,747,747,747,747,747,747,747,747,747,747,747,747,747,748,749,749,749,747,746,743,739,734,716,685,651,609,567,507],"ymouse":[475,475,475,475,475,475,475,475,475,475,475,475,475,475,465,462,459,456,447,441,432,422,409,361,287,221,166,122,74],"timestamp_mouse":[13,38,53,74,94,113,133,154,174,194,213,233,253,273,293,314,335,355,374,393,414,434,453,474,493,514,535,553,574],"xSR":741.5,"ySR":449.15000000000003,"xT1":424.9,"yT1":0,"xT2":1058.1,"yT2":0,"toosoon":0,"cond_shown":"Congruent","ratio_trial":200,"L_num":8,"L_den":15,"R_num":2,"R_den":6,"correct_side":1,"subjID":"dillanaugustoserravera28","gender":"0","school":"No_school","age":"No_age"},{"start_time":1551887371936,"click_time":1551887372546,"finger_time":1551887372025,"fix_duration":509.728122060209,"trial":39,"RT":89,"MT":521,"sideResp":1,"stimulus":[],"xmouse":[810,810,810,810,805,787,782,779,774,761,698,647,612,596,592,592,591,586,577,566,555,545,545,545,545,545,543,541,537,534,518],"ymouse":[455,455,455,455,448,428,424,420,412,391,304,252,221,208,206,206,201,189,173,157,145,138,138,138,138,138,133,127,120,115,96],"timestamp_mouse":[9,29,50,69,89,111,129,150,171,189,210,229,250,270,289,310,331,349,370,389,410,430,449,469,489,510,529,550,569,590,610],"xSR":741.5,"ySR":449.15000000000003,"xT1":424.9,"yT1":0,"xT2":1058.1,"yT2":0,"toosoon":0,"cond_shown":"Incongruent","ratio_trial":100,"L_num":6,"L_den":10,"R_num":13,"R_den":26,"correct_side":1,"subjID":"dillanaugustoserravera28","gender":"0","school":"No_school","age":"No_age"},{"start_time":1551887376163,"click_time":1551887376946,"finger_time":1551887376465,"fix_duration":516.2919900622034,"trial":40,"RT":302,"MT":481,"sideResp":2,"stimulus":[],"xmouse":[785,785,785,785,785,785,785,785,785,785,785,785,792,798,825,849,869,894,930,983,1002,1013,1019,1021,1022,1024,1026,1029,1036,1054,1059,1059,1058,1059,1059,1063,1065,1065,1065,1071],"ymouse":[515,515,515,515,515,515,515,515,515,515,515,515,509,505,484,466,453,432,408,370,355,342,332,325,304,286,274,266,256,225,204,155,143,136,133,127,121,115,112,99],"timestamp_mouse":[10,32,43,63,82,103,123,142,162,183,203,222,243,262,283,302,322,342,362,383,402,422,443,463,483,502,522,543,563,582,602,623,643,662,683,703,723,742,762,783],"xSR":741.5,"ySR":449.15000000000003,"xT1":424.9,"yT1":0,"xT2":1058.1,"yT2":0,"toosoon":0,"cond_shown":"Incongruent","ratio_trial":300,"L_num":7,"L_den":10,"R_num":8,"R_den":20,"correct_side":1,"subjID":"dillanaugustoserravera28","gender":"0","school":"No_school","age":"No_age"},{"start_time":1551887378663,"click_time":1551887379166,"finger_time":1551887378966,"fix_duration":877.7262282778728,"trial":41,"RT":303,"MT":200,"sideResp":1,"stimulus":[],"xmouse":[807,807,807,807,807,807,807,807,807,807,807,807,807,801,799,782,751,708,664,562,510,496,489,486,484,478],"ymouse":[486,486,486,486,486,486,486,486,486,486,486,486,486,471,464,427,383,332,287,205,159,144,133,123,114,97],"timestamp_mouse":[8,22,43,63,94,103,123,142,164,183,202,223,243,263,283,303,322,342,362,382,402,422,443,462,483,503],"xSR":741.5,"ySR":449.15000000000003,"xT1":424.9,"yT1":0,"xT2":1058.1,"yT2":0,"toosoon":0,"cond_shown":"Congruent","ratio_trial":300,"L_num":2,"L_den":10,"R_num":12,"R_den":24,"correct_side":2,"subjID":"dillanaugustoserravera28","gender":"0","school":"No_school","age":"No_age"},{"start_time":1551887380138,"click_time":1551887380886,"finger_time":1551887380446,"fix_duration":250,"trial":42,"RT":308,"MT":440,"sideResp":2,"stimulus":[],"xmouse":[802,802,802,802,802,802,802,802,802,802,802,802,805,808,821,855,881,896,911,922,934,940,949,965,983,1005,1015,1018,1022,1026,1032,1046,1049,1050,1050,1050,1057,1064],"ymouse":[513,513,513,513,513,513,513,513,513,513,513,513,508,489,468,414,384,366,350,333,307,295,282,265,248,216,198,189,179,171,161,145,138,136,136,135,111,93],"timestamp_mouse":[8,39,47,67,87,107,127,148,169,187,208,227,248,268,287,308,327,347,368,387,408,427,448,468,489,508,527,548,568,588,607,627,647,667,688,708,727,747],"xSR":741.5,"ySR":449.15000000000003,"xT1":424.9,"yT1":0,"xT2":1058.1,"yT2":0,"toosoon":0,"cond_shown":"Congruent","ratio_trial":200,"L_num":3,"L_den":10,"R_num":7,"R_den":14,"correct_side":2,"subjID":"dillanaugustoserravera28","gender":"0","school":"No_school","age":"No_age"},{"start_time":1551887383207,"click_time":1551887384346,"finger_time":1551887383826,"fix_duration":1400.2794664280545,"trial":43,"RT":619,"MT":520,"sideResp":2,"stimulus":[],"xmouse":[780,780,780,780,780,780,780,780,780,780,780,780,780,780,780,780,780,780,780,780,780,779,779,779,779,779,779,779,786,791,803,815,815,835,862,892,945,957,958,958,958,958,967,973,980,986,995,1002,1010,1018,1020,1025,1028,1032,1041,1052,1063],"ymouse":[486,486,486,486,486,486,486,486,486,486,486,486,486,486,486,486,486,486,486,486,486,486,486,486,486,486,486,486,472,459,436,382,342,310,282,261,241,239,239,239,239,239,226,213,196,180,156,146,140,135,133,127,121,114,104,92,81],"timestamp_mouse":[18,38,58,78,98,119,138,158,178,198,218,239,260,278,299,319,338,358,378,399,418,438,459,479,499,519,538,559,578,598,619,639,658,679,699,718,739,758,778,798,818,838,859,878,900,919,939,958,978,998,1019,1040,1058,1078,1099,1118,1138],"xSR":741.5,"ySR":449.15000000000003,"xT1":424.9,"yT1":0,"xT2":1058.1,"yT2":0,"toosoon":0,"cond_shown":"Incongruent","ratio_trial":200,"L_num":1,"L_den":3,"R_num":2,"R_den":15,"correct_side":1,"subjID":"dillanaugustoserravera28","gender":"0","school":"No_school","age":"No_age"},{"start_time":1551887386986,"click_time":1551887388986,"finger_time":1551887388446,"fix_duration":1199.0450637235542,"trial":44,"RT":1460,"MT":540,"sideResp":2,"stimulus":[],"xmouse":[762,762,762,762,762,762,762,762,762,762,762,762,762,762,762,762,762,762,762,762,762,762,762,762,762,762,762,762,762,762,762,762,762,762,762,762,762,762,762,762,762,762,762,762,762,762,762,762,762,762,762,762,762,762,762,762,762,762,762,762,762,762,762,762,762,762,762,762,762,762,762,762,778,941,1148,1276,1362,1411,1431,1431,1431,1431,1431,1431,1427,1410,1388,1365,1319,1292,1269,1253,1236,1220,1211,1211,1211,1208,1187,1169,1149],"ymouse":[511,511,511,511,511,511,511,511,511,511,511,511,511,511,511,511,511,511,511,511,511,511,511,511,511,511,511,511,511,511,511,511,511,511,511,511,511,511,511,511,511,511,511,511,511,511,511,511,511,511,511,511,511,511,511,511,511,511,511,511,511,511,511,511,511,511,511,511,511,511,511,511,500,335,170,99,63,41,31,31,31,31,31,31,30,30,30,39,54,59,62,63,66,68,71,71,71,71,71,69,66],"timestamp_mouse":[1,19,41,60,80,99,119,140,159,179,199,219,239,259,279,299,319,340,361,379,399,419,440,459,480,499,519,540,559,580,600,620,639,660,679,700,719,739,759,781,799,820,839,859,879,899,919,939,959,980,999,1021,1040,1059,1080,1099,1119,1139,1160,1179,1199,1219,1241,1260,1279,1299,1321,1340,1359,1380,1399,1420,1441,1460,1479,1499,1520,1539,1561,1579,1600,1620,1639,1660,1680,1699,1720,1740,1760,1779,1800,1819,1840,1859,1881,1900,1920,1939,1959,1979,2000],"xSR":741.5,"ySR":449.15000000000003,"xT1":424.9,"yT1":0,"xT2":1058.1,"yT2":0,"toosoon":0,"cond_shown":"Congruent","ratio_trial":100,"L_num":7,"L_den":14,"R_num":15,"R_den":25,"correct_side":2,"subjID":"dillanaugustoserravera28","gender":"0","school":"No_school","age":"No_age"},{"start_time":1551887394800,"click_time":1551887446585,"finger_time":1551887445826,"fix_duration":1052.3108109971574,"trial":45,"RT":51026,"MT":759,"sideResp":2,"stimulus":[],"xmouse":[781,781,781,781,781,781,781,781,781,781,781,781,781,781,781,781,781,781,781,781,781,781,781,781,781,781,781,781,781,781,781,781,781,781,781,781,781,781,781,781,781,781,781,781,781,781,781,781,781,781,781,781,781,781,781,781,781,781,781,781,781,781,781,781,781,781,781,781,781,781,781,781,781,781,781,781,781,781,781,781,781,781,781,781,781,781,781,781,781,781,781,781,781,781,781,781,781,781,781,781,781,781,781,781,781,781,781,781,781,781,781,781,781,781,781,781,781,781,781,781,781,781,781,781,781,781,781,781,781,781,781,781,781,781,781,781,781,781,781,781,781,781,781,781,781,781,781,781,781,781,781,781,781,781,781,781,781,781,781,781,781,781,781,781,781,781,781,781,781,781,781,781,781,781,781,781,781,781,781,781,781,781,781,781,781,781,781,781,781,781,781,781,781,781,781,781,781,781,781,781,781,781,781,781,781,781,781,781,781,781,781,781,781,781,781,781,781,781,781,781,781,781,781,781,781,781,781,781,781,781,781,781,781,781,781,781,781,781,781,781,781,781,781,781,781,781,781,781,781,781,781,781,781,781,781,781,781,781,781,781,781,781,781,781,781,781,781,781,781,781,781,781,781,781,781,781,781,781,781,781,781,781,781,781,781,781,781,781,781,781,781,781,781,781,781,781,781,781,781,781,781,781,781,781,781,781,781,781,781,781,781,781,781,781,781,781,781,781,781,781,781,781,781,781,781,781,781,781,781,781,781,781,781,781,781,781,781,781,781,781,781,781,781,781,781,781,781,781,781,781,781,781,781,781,781,781,781,781,781,781,781,781,781,781,781,781,781,781,781,781,781,781,781,781,781,781,781,781,781,781,781,781,781,781,781,781,781,781,781,781,781,781,781,781,781,781,781,781,781,781,781,781,781,781,781,781,781,781,781,781,781,781,781,781,781,781,781,781,781,781,781,781,781,781,781,781,781,781,781,781,781,781,781,781,781,781,781,781,781,781,781,781,781,781,781,781,781,781,781,781,781,781,781,781,781,781,781,781,781,781,781,781,781,781,781,781,781,781,781,781,781,781,781,781,781,781,781,781,781,781,781,781,781,781,781,781,781,781,781,781,781,781,781,781,781,781,781,781,781,781,781,781,781,781,781,781,781,781,781,781,781,781,781,781,781,781,781,781,781,781,781,781,781,781,781,781,781,781,781,781,781,781,781,781,781,781,781,781,781,781,781,781,781,781,781,781,781,781,781,781,781,781,781,781,781,781,781,781,781,781,781,781,781,781,781,781,781,781,781,781,781,781,781,781,781,781,781,781,781,781,781,781,781,781,781,781,781,781,781,781,781,781,781,781,781,781,781,781,781,781,781,781,781,781,781,781,781,781,781,781,781,781,781,781,781,781,781,781,781,781,781,781,781,781,781,781,781,781,781,781,781,781,781,781,781,781,781,781,781,781,781,781,781,781,781,781,781,781,781,781,781,781,781,781,781,781,781,781,781,781,781,781,781,781,781,781,781,781,781,781,781,781,781,781,781,781,781,781,781,781,781,781,781,781,781,781,781,781,781,781,781,781,781,781,781,781,781,781,781,781,781,781,781,781,781,781,781,781,781,781,781,781,781,781,781,781,781,781,781,781,781,781,781,781,781,781,781,781,781,781,781,781,781,781,781,781,781,781,781,781,781,781,781,781,781,781,781,781,781,781,781,781,781,781,781,781,781,781,781,781,781,781,781,781,781,781,781,781,781,781,781,781,781,781,781,781,781,781,781,781,781,781,781,781,781,781,781,781,781,781,781,781,781,781,781,781,781,781,781,781,781,781,781,781,781,781,781,781,781,781,781,781,781,781,781,781,781,781,781,781,781,781,781,781,781,781,781,781,781,781,781,781,781,781,781,781,781,781,781,781,781,781,781,781,781,781,781,781,781,781,781,781,781,781,781,781,781,781,781,781,781,781,781,781,781,781,781,781,781,781,781,781,781,781,781,781,781,781,781,781,781,781,781,781,781,781,781,781,781,781,781,781,781,781,781,781,781,781,781,781,781,781,781,781,781,781,781,781,781,781,781,781,781,781,781,781,781,781,781,781,781,781,781,781,781,781,781,781,781,781,781,781,781,781,781,781,781,781,781,781,781,781,781,781,781,781,781,781,781,781,781,781,781,781,781,781,781,781,781,781,781,781,781,781,781,781,781,781,781,781,781,781,781,781,781,781,781,781,781,781,781,781,781,781,781,781,781,781,781,781,781,781,781,781,781,781,781,781,781,781,781,781,781,781,781,781,781,781,781,781,781,781,781,781,781,781,781,781,781,781,781,781,781,781,781,781,781,781,781,781,781,781,781,781,781,781,781,781,781,781,781,781,781,781,781,781,781,781,781,781,781,781,781,781,781,781,781,781,781,781,781,781,781,781,781,781,781,781,781,781,781,781,781,781,781,781,781,781,781,781,781,781,781,781,781,781,781,781,781,781,781,781,781,781,781,781,781,781,781,781,781,781,781,781,781,781,781,781,781,781,781,781,781,781,781,781,781,781,781,781,781,781,781,781,781,781,781,781,781,781,781,781,781,781,781,781,781,781,781,781,781,781,781,781,781,781,781,781,781,781,781,781,781,781,781,781,781,781,781,781,781,781,781,781,781,781,781,781,781,781,781,781,781,781,781,781,781,781,781,781,781,781,781,781,781,781,781,781,781,781,781,781,781,781,781,781,781,781,781,781,781,781,781,781,781,781,781,781,781,781,781,781,781,781,781,781,781,781,781,781,781,781,781,781,781,781,781,781,781,781,781,781,781,781,781,781,781,781,781,781,781,781,781,781,781,781,781,781,781,781,781,781,781,781,781,781,781,781,781,781,781,781,781,781,781,781,781,781,781,781,781,781,781,781,781,781,781,781,781,781,781,781,781,781,781,781,781,781,781,781,781,781,781,781,781,781,781,781,781,781,781,781,781,781,781,781,781,781,781,781,781,781,781,781,781,781,781,781,781,781,781,781,781,781,781,781,781,781,781,781,781,781,781,781,781,781,781,781,781,781,781,781,781,781,781,781,781,781,781,781,781,781,781,781,781,781,781,781,781,781,781,781,781,781,781,781,781,781,781,781,781,781,781,781,781,781,781,781,781,781,781,781,781,781,781,781,781,781,781,781,781,781,781,781,781,781,781,781,781,781,781,781,781,781,781,781,781,781,781,781,781,781,781,781,781,781,781,781,781,781,781,781,781,781,781,781,781,781,781,781,781,781,781,781,781,781,781,781,781,781,781,781,781,781,781,781,781,781,781,781,781,781,781,781,781,781,781,781,781,781,781,781,781,781,781,781,781,781,781,781,781,781,781,781,781,781,781,781,781,781,781,781,781,781,781,781,781,781,781,781,781,781,781,781,781,781,781,781,781,781,781,781,781,781,781,781,781,781,781,781,781,781,781,781,781,781,781,781,781,781,781,781,781,781,781,781,781,781,781,781,781,781,781,781,781,781,781,781,781,781,781,781,781,781,781,781,781,781,781,781,781,781,781,781,781,781,781,781,781,781,781,781,781,781,781,781,781,781,781,781,781,781,781,781,781,781,781,781,781,781,781,781,781,781,781,781,781,781,781,781,781,781,781,781,781,781,781,781,781,781,781,781,781,781,781,781,781,781,781,781,781,781,781,781,781,781,781,781,781,781,781,781,781,781,781,781,781,781,781,781,781,781,781,781,781,781,781,781,781,781,781,781,781,781,781,781,781,781,781,781,781,781,781,781,781,781,781,781,781,781,781,781,781,781,781,781,781,781,781,781,781,781,781,781,781,781,781,781,781,781,781,781,781,781,781,781,781,781,781,781,781,781,781,781,781,781,781,781,781,781,781,781,781,781,781,781,781,781,781,781,781,781,781,781,781,781,781,781,781,781,781,781,781,781,781,781,781,781,781,781,781,781,781,781,781,781,781,781,781,781,781,781,781,781,781,781,781,781,781,781,781,781,781,781,781,781,781,781,781,781,781,781,781,781,781,781,781,781,781,781,781,781,781,781,781,781,781,781,781,781,781,781,781,781,781,781,781,781,781,781,781,781,781,781,781,781,781,781,781,781,781,781,781,781,781,781,781,781,781,781,781,781,781,781,781,781,781,781,781,781,781,781,781,781,781,781,781,781,781,781,781,781,781,781,781,781,781,781,781,781,781,781,781,781,781,781,781,781,781,781,781,781,781,781,781,781,781,781,781,781,781,781,781,781,781,781,781,781,781,781,781,781,781,781,781,781,781,781,781,781,781,781,781,781,781,781,781,781,781,781,781,781,781,781,781,781,781,781,781,781,781,781,781,781,781,781,781,781,781,781,781,781,781,781,781,781,781,781,781,781,781,781,781,781,781,781,781,781,781,781,781,781,781,781,781,781,781,781,781,781,781,781,781,781,781,781,781,781,781,781,781,781,781,781,781,781,781,781,781,781,781,781,781,781,781,781,781,781,781,781,781,781,781,781,781,781,781,781,781,781,781,781,781,781,781,781,781,781,781,781,781,781,781,781,781,781,781,781,781,781,781,781,781,781,781,781,781,781,781,781,781,781,781,781,781,781,781,781,781,781,781,781,781,781,781,781,781,781,781,781,781,781,781,781,781,781,781,781,781,781,781,781,781,781,781,781,781,781,781,781,781,781,781,781,781,781,781,781,781,781,781,781,781,781,781,781,781,781,781,781,781,781,781,781,781,781,781,781,781,781,781,781,781,781,781,781,781,781,781,781,781,781,781,781,781,781,781,781,781,781,781,781,781,781,781,781,781,781,781,781,781,781,781,781,781,781,781,781,781,781,781,781,781,781,781,781,781,781,781,781,781,781,781,781,781,781,781,781,781,781,781,781,781,781,781,781,781,781,781,781,781,781,781,781,781,781,781,781,781,781,781,781,781,781,781,781,781,781,781,781,781,781,781,781,781,781,781,781,781,781,781,781,781,781,781,781,781,781,781,781,781,781,781,781,781,781,781,781,781,781,781,781,781,781,781,781,781,781,781,781,781,781,781,781,781,781,781,781,781,781,781,781,781,781,781,781,781,781,781,781,781,781,781,781,781,781,781,781,781,781,781,781,781,781,781,781,781,781,781,781,781,781,781,781,781,781,781,781,781,781,781,781,781,781,781,781,781,781,781,781,781,781,781,781,781,781,781,781,781,781,781,781,781,781,781,781,781,781,781,781,781,781,781,781,781,781,781,781,781,781,781,781,781,781,781,781,781,781,781,781,781,781,781,781,781,781,781,781,781,781,781,781,781,781,781,781,781,781,781,781,781,781,781,781,781,781,781,781,781,781,781,781,781,781,781,781,781,781,781,781,781,781,781,781,781,781,781,781,781,781,781,781,781,781,781,781,781,781,781,781,781,781,781,781,781,781,781,781,781,781,781,781,781,781,781,781,781,781,781,781,781,781,781,781,781,781,781,781,781,781,781,781,781,781,781,781,781,781,781,781,781,781,781,781,781,781,781,781,781,781,781,781,781,781,781,781,781,781,781,781,781,781,781,781,781,781,781,781,781,781,781,781,781,781,781,781,781,781,781,781,781,781,781,781,781,781,781,781,781,781,781,781,781,781,781,781,781,781,781,781,781,781,781,781,781,781,781,781,781,781,781,781,781,781,781,781,781,781,781,781,781,781,781,781,781,781,781,781,781,781,781,781,781,781,781,781,781,781,781,781,781,781,781,781,781,781,781,781,781,781,781,781,781,781,781,781,781,781,781,781,781,781,781,781,781,781,781,781,781,781,781,781,781,781,781,781,781,781,781,787,790,788,746,717,702,694,693,693,693,693,693,691,691,742,858,942,1032,1098,1168,1178,1189,1203,1210,1210,1210,1210,1212,1214,1215,1215,1215,1215,1227,1227,1227,1228,1226,1200,1172,1120],"ymouse":[546,546,546,546,546,546,546,546,546,546,546,546,546,546,546,546,546,546,546,546,546,546,546,546,546,546,546,546,546,546,546,546,546,546,546,546,546,546,546,546,546,546,546,546,546,546,546,546,546,546,546,546,546,546,546,546,546,546,546,546,546,546,546,546,546,546,546,546,546,546,546,546,546,546,546,546,546,546,546,546,546,546,546,546,546,546,546,546,546,546,546,546,546,546,546,546,546,546,546,546,546,546,546,546,546,546,546,546,546,546,546,546,546,546,546,546,546,546,546,546,546,546,546,546,546,546,546,546,546,546,546,546,546,546,546,546,546,546,546,546,546,546,546,546,546,546,546,546,546,546,546,546,546,546,546,546,546,546,546,546,546,546,546,546,546,546,546,546,546,546,546,546,546,546,546,546,546,546,546,546,546,546,546,546,546,546,546,546,546,546,546,546,546,546,546,546,546,546,546,546,546,546,546,546,546,546,546,546,546,546,546,546,546,546,546,546,546,546,546,546,546,546,546,546,546,546,546,546,546,546,546,546,546,546,546,546,546,546,546,546,546,546,546,546,546,546,546,546,546,546,546,546,546,546,546,546,546,546,546,546,546,546,546,546,546,546,546,546,546,546,546,546,546,546,546,546,546,546,546,546,546,546,546,546,546,546,546,546,546,546,546,546,546,546,546,546,546,546,546,546,546,546,546,546,546,546,546,546,546,546,546,546,546,546,546,546,546,546,546,546,546,546,546,546,546,546,546,546,546,546,546,546,546,546,546,546,546,546,546,546,546,546,546,546,546,546,546,546,546,546,546,546,546,546,546,546,546,546,546,546,546,546,546,546,546,546,546,546,546,546,546,546,546,546,546,546,546,546,546,546,546,546,546,546,546,546,546,546,546,546,546,546,546,546,546,546,546,546,546,546,546,546,546,546,546,546,546,546,546,546,546,546,546,546,546,546,546,546,546,546,546,546,546,546,546,546,546,546,546,546,546,546,546,546,546,546,546,546,546,546,546,546,546,546,546,546,546,546,546,546,546,546,546,546,546,546,546,546,546,546,546,546,546,546,546,546,546,546,546,546,546,546,546,546,546,546,546,546,546,546,546,546,546,546,546,546,546,546,546,546,546,546,546,546,546,546,546,546,546,546,546,546,546,546,546,546,546,546,546,546,546,546,546,546,546,546,546,546,546,546,546,546,546,546,546,546,546,546,546,546,546,546,546,546,546,546,546,546,546,546,546,546,546,546,546,546,546,546,546,546,546,546,546,546,546,546,546,546,546,546,546,546,546,546,546,546,546,546,546,546,546,546,546,546,546,546,546,546,546,546,546,546,546,546,546,546,546,546,546,546,546,546,546,546,546,546,546,546,546,546,546,546,546,546,546,546,546,546,546,546,546,546,546,546,546,546,546,546,546,546,546,546,546,546,546,546,546,546,546,546,546,546,546,546,546,546,546,546,546,546,546,546,546,546,546,546,546,546,546,546,546,546,546,546,546,546,546,546,546,546,546,546,546,546,546,546,546,546,546,546,546,546,546,546,546,