[{"start_time":1551794722520,"click_time":1551794723971,"finger_time":1551794723730,"fix_duration":786.3652462206786,"trial":0,"RT":1210,"MT":241,"sideResp":2,"stimulus":"img/900/equaldotanddens/R/11_Ratio_900_L_18_R_20.png","xmouse":[831,831,831,831,831,831,831,831,831,831,831,831,831,831,831,831,831,831,831,831,831,831,831,831,831,831,831,831,831,831,831,831,831,831,831,831,831,831,831,831,831,831,831,831,831,831,831,831,831,831,831,831,831,831,831,831,831,831,831,831,854,890,930,972,1003,1034,1044,1051,1054,1056,1067,1073,1083],"ymouse":[555,555,555,555,555,555,555,555,555,555,555,555,555,555,555,555,555,555,555,555,555,555,555,555,555,555,555,555,555,555,555,555,555,555,555,555,555,555,555,555,555,555,555,555,555,555,555,555,555,555,555,555,555,555,555,555,555,555,555,556,493,409,320,253,211,165,150,140,135,131,114,104,90],"timestamp_mouse":[10,44,51,70,90,110,130,150,170,190,210,231,250,269,289,309,330,350,370,390,410,430,450,470,491,511,531,550,570,590,610,630,650,670,690,710,731,750,770,790,810,830,850,870,890,910,930,950,970,990,1011,1030,1050,1070,1090,1110,1130,1150,1170,1190,1210,1230,1250,1270,1290,1310,1330,1350,1370,1390,1410,1430,1450],"xSR":741.5,"ySR":526.5,"xT1":424.9,"yT1":0,"xT2":1058.1,"yT2":0,"toosoon":0,"cond_shown":"equaldotanddens","ratio_trial":900,"smaller_num":"18","larger_num":"20","correct_side":2,"subjID":"DylanLeonBedoya18","gender":"0","age":"11","school":"6","test":{"fix_dur":[250,1500],"timestim":300,"targets_dim":[100,100],"targets_relative_coord":[0.3,0.7],"size_stim":[880,420],"start_dim":[100,100],"size_start":[300,300],"size_fix":60,"samplingrate":20,"img_types":["equaldotsize","equaldotanddens","randomdotsizeEA"],"ratios":[250,500,750,900],"rep_conds":9,"nTrials":120,"trials_to_rest":500,"Trials_order":[10,40,94,37,49,59,86,13,71,51,22,5,63,84,64,100,81,1,29,101,36,32,109,57,112,95,33,78,89,61,15,117,87,114,72,9,11,56,52,54,69,39,26,19,46,107,105,20,66,17,14,7,47,75,16,85,27,28,77,12,73,103,106,99,48,38,45,8,67,83,96,118,113,65,116,2,93,24,98,41,102,82,53,34,60,104,115,35,58,110,55,31,91,44,108,21,25,79,23,43,90,4,18,68,70,111,76,97,62,6,92,74,0,80,50,42,3,30,88,119],"cond_shown":["equaldotanddens","equaldotanddens","equaldotanddens","equaldotanddens","equaldotanddens","randomdotsizeEA","randomdotsizeEA","equaldotanddens","randomdotsizeEA","equaldotsize","equaldotanddens","randomdotsizeEA","equaldotsize","equaldotsize","equaldotanddens","equaldotanddens","equaldotsize","equaldotanddens","randomdotsizeEA","randomdotsizeEA","equaldotsize","randomdotsizeEA","equaldotanddens","equaldotsize","equaldotanddens","randomdotsizeEA","equaldotsize","equaldotsize","randomdotsizeEA","equaldotanddens","equaldotsize","equaldotsize","equaldotsize","equaldotsize","equaldotsize","equaldotsize","randomdotsizeEA","randomdotsizeEA","equaldotanddens","equaldotsize","equaldotsize","equaldotsize","randomdotsizeEA","equaldotanddens","equaldotanddens","randomdotsizeEA","equaldotsize","randomdotsizeEA","equaldotsize","randomdotsizeEA","randomdotsizeEA","equaldotanddens","randomdotsizeEA","equaldotsize","equaldotanddens","equaldotanddens","equaldotsize","equaldotanddens","randomdotsizeEA","equaldotsize","equaldotanddens","equaldotanddens","equaldotanddens","equaldotsize","equaldotsize","randomdotsizeEA","equaldotsize","randomdotsizeEA","equaldotanddens","randomdotsizeEA","equaldotsize","equaldotanddens","randomdotsizeEA","randomdotsizeEA","randomdotsizeEA","randomdotsizeEA","equaldotsize","equaldotsize","randomdotsizeEA","randomdotsizeEA","equaldotsize","equaldotanddens","randomdotsizeEA","equaldotanddens","equaldotsize","randomdotsizeEA","equaldotanddens","randomdotsizeEA","equaldotanddens","randomdotsizeEA","equaldotanddens","equaldotanddens","equaldotanddens","randomdotsizeEA","equaldotsize","equaldotsize","equaldotanddens","equaldotanddens","randomdotsizeEA","equaldotanddens","equaldotsize","equaldotanddens","equaldotsize","randomdotsizeEA","equaldotanddens","equaldotsize","equaldotanddens","equaldotanddens","randomdotsizeEA","equaldotsize","randomdotsizeEA","randomdotsizeEA","equaldotsize","randomdotsizeEA","randomdotsizeEA","equaldotsize","equaldotsize","equaldotsize","equaldotanddens","randomdotsizeEA"],"ratio_trial":[900,500,900,250,250,900,250,250,900,500,900,500,500,250,500,500,900,250,500,500,250,750,250,900,500,900,900,750,500,250,500,900,500,750,250,900,900,750,500,750,900,500,250,750,900,900,900,750,750,500,250,750,900,500,500,250,500,500,500,250,250,750,900,500,250,250,900,750,750,900,250,900,500,500,750,250,900,250,250,500,750,900,500,900,250,750,750,900,900,250,750,750,750,750,250,900,250,750,900,750,750,500,750,750,900,500,500,250,250,750,750,250,250,750,250,750,500,750,500,900],"smaller_num":["18","6","9","3","2","18","4","3","18","6","18","10","6","2","10","3","18","5","1","4","2","12","4","18","4","18","18","6","2","1","5","18","2","3","6","9","18","15","3","15","18","6","1","6","18","18","18","15","3","2","2","6","18","2","6","4","9","5","9","5","3","3","18","9","6","6","18","15","3","18","3","9","10","2","15","2","9","3","3","6","6","18","6","9","3","6","18","18","9","4","3","15","15","3","3","9","2","3","18","3","6","2","15","3","18","6","2","1","6","6","18","4","5","6","5","3","6","3","2","18"],"larger_num":["20","12","10","12","8","20","16","12","20","12","20","20","12","8","20","6","20","20","2","8","8","16","16","20","8","20","20","8","4","4","10","20","4","4","24","10","20","20","6","20","20","12","4","8","20","20","20","20","4","4","8","8","20","4","12","16","18","10","18","20","12","4","20","18","24","24","20","20","4","20","12","10","20","4","20","8","10","12","12","12","8","20","12","10","12","8","24","20","10","16","4","20","20","4","12","10","8","4","20","4","8","4","20","4","20","12","4","4","24","8","24","16","20","8","20","4","12","4","4","20"],"correct_side":[2,1,2,1,2,1,1,2,1,1,1,2,1,1,2,2,1,2,2,1,1,2,1,2,1,1,1,1,2,2,1,1,2,1,2,2,2,1,2,2,1,1,2,1,2,1,2,2,1,1,1,2,1,1,1,1,2,2,2,2,2,1,1,2,2,1,1,2,2,1,2,1,2,1,2,2,1,1,1,1,2,2,1,1,1,1,1,1,1,2,1,2,2,2,1,2,1,2,1,1,2,1,2,2,2,1,1,2,1,1,1,1,2,2,2,2,1,1,1,1],"img_shown":["img/900/equaldotanddens/R/11_Ratio_900_L_18_R_20.png","img/500/equaldotanddens/L/13_Ratio_500_L_12_R_6.png","img/900/equaldotanddens/R/6_Ratio_900_L_9_R_10.png","img/250/equaldotanddens/L/14_Ratio_250_L_12_R_3.png","img/250/equaldotanddens/R/13_Ratio_250_L_2_R_8.png","img/900/randomdotsizeEA/L/2_Ratio_900_L_20_R_18.png","img/250/randomdotsizeEA/L/2_Ratio_250_L_16_R_4.png","img/250/equaldotanddens/R/11_Ratio_250_L_3_R_12.png","img/900/randomdotsizeEA/L/8_Ratio_900_L_20_R_18.png","img/500/equaldotsize/L/13_Ratio_500_L_12_R_6.png","img/900/equaldotanddens/L/2_Ratio_900_L_20_R_18.png","img/500/randomdotsizeEA/R/3_Ratio_500_L_10_R_20.png","img/500/equaldotsize/L/13_Ratio_500_L_12_R_6.png","img/250/equaldotsize/L/1_Ratio_250_L_8_R_2.png","img/500/equaldotanddens/R/3_Ratio_500_L_10_R_20.png","img/500/equaldotanddens/R/2_Ratio_500_L_3_R_6.png","img/900/equaldotsize/L/2_Ratio_900_L_20_R_18.png","img/250/equaldotanddens/R/12_Ratio_250_L_5_R_20.png","img/500/randomdotsizeEA/R/12_Ratio_500_L_1_R_2.png","img/500/randomdotsizeEA/L/8_Ratio_500_L_8_R_4.png","img/250/equaldotsize/L/3_Ratio_250_L_8_R_2.png","img/750/randomdotsizeEA/R/11_Ratio_750_L_12_R_16.png","img/250/equaldotanddens/L/2_Ratio_250_L_16_R_4.png","img/900/equaldotsize/R/11_Ratio_900_L_18_R_20.png","img/500/equaldotanddens/L/8_Ratio_500_L_8_R_4.png","img/900/randomdotsizeEA/L/10_Ratio_900_L_20_R_18.png","img/900/equaldotsize/L/2_Ratio_900_L_20_R_18.png","img/750/equaldotsize/L/14_Ratio_750_L_8_R_6.png","img/500/randomdotsizeEA/R/9_Ratio_500_L_2_R_4.png","img/250/equaldotanddens/R/8_Ratio_250_L_1_R_4.png","img/500/equaldotsize/L/7_Ratio_500_L_10_R_5.png","img/900/equaldotsize/L/10_Ratio_900_L_20_R_18.png","img/500/equaldotsize/R/9_Ratio_500_L_2_R_4.png","img/750/equaldotsize/L/8_Ratio_750_L_4_R_3.png","img/250/equaldotsize/R/6_Ratio_250_L_6_R_24.png","img/900/equaldotsize/R/3_Ratio_900_L_9_R_10.png","img/900/randomdotsizeEA/R/9_Ratio_900_L_18_R_20.png","img/750/randomdotsizeEA/L/1_Ratio_750_L_20_R_15.png","img/500/equaldotanddens/R/2_Ratio_500_L_3_R_6.png","img/750/equaldotsize/R/5_Ratio_750_L_15_R_20.png","img/900/equaldotsize/L/2_Ratio_900_L_20_R_18.png","img/500/equaldotsize/L/13_Ratio_500_L_12_R_6.png","img/250/randomdotsizeEA/R/8_Ratio_250_L_1_R_4.png","img/750/equaldotanddens/L/13_Ratio_750_L_8_R_6.png","img/900/equaldotanddens/R/14_Ratio_900_L_18_R_20.png","img/900/randomdotsizeEA/L/8_Ratio_900_L_20_R_18.png","img/900/equaldotsize/R/13_Ratio_900_L_18_R_20.png","img/750/randomdotsizeEA/R/4_Ratio_750_L_15_R_20.png","img/750/equaldotsize/L/10_Ratio_750_L_4_R_3.png","img/500/randomdotsizeEA/L/10_Ratio_500_L_4_R_2.png","img/250/randomdotsizeEA/L/1_Ratio_250_L_8_R_2.png","img/750/equaldotanddens/R/2_Ratio_750_L_6_R_8.png","img/900/randomdotsizeEA/L/10_Ratio_900_L_20_R_18.png","img/500/equaldotsize/L/10_Ratio_500_L_4_R_2.png","img/500/equaldotanddens/L/13_Ratio_500_L_12_R_6.png","img/250/equaldotanddens/L/2_Ratio_250_L_16_R_4.png","img/500/equaldotsize/R/1_Ratio_500_L_9_R_18.png","img/500/equaldotanddens/R/14_Ratio_500_L_5_R_10.png","img/500/randomdotsizeEA/R/6_Ratio_500_L_9_R_18.png","img/250/equaldotsize/R/12_Ratio_250_L_5_R_20.png","img/250/equaldotanddens/R/11_Ratio_250_L_3_R_12.png","img/750/equaldotanddens/L/9_Ratio_750_L_4_R_3.png","img/900/equaldotanddens/L/2_Ratio_900_L_20_R_18.png","img/500/equaldotsize/R/6_Ratio_500_L_9_R_18.png","img/250/equaldotsize/R/6_Ratio_250_L_6_R_24.png","img/250/randomdotsizeEA/L/5_Ratio_250_L_24_R_6.png","img/900/equaldotsize/L/4_Ratio_900_L_20_R_18.png","img/750/randomdotsizeEA/R/5_Ratio_750_L_15_R_20.png","img/750/equaldotanddens/R/12_Ratio_750_L_3_R_4.png","img/900/randomdotsizeEA/L/8_Ratio_900_L_20_R_18.png","img/250/equaldotsize/R/9_Ratio_250_L_3_R_12.png","img/900/equaldotanddens/L/1_Ratio_900_L_10_R_9.png","img/500/randomdotsizeEA/R/3_Ratio_500_L_10_R_20.png","img/500/randomdotsizeEA/L/5_Ratio_500_L_4_R_2.png","img/750/randomdotsizeEA/R/3_Ratio_750_L_15_R_20.png","img/250/randomdotsizeEA/R/13_Ratio_250_L_2_R_8.png","img/900/equaldotsize/L/1_Ratio_900_L_10_R_9.png","img/250/equaldotsize/L/14_Ratio_250_L_12_R_3.png","img/250/randomdotsizeEA/L/15_Ratio_250_L_12_R_3.png","img/500/randomdotsizeEA/L/11_Ratio_500_L_12_R_6.png","img/750/equaldotsize/R/2_Ratio_750_L_6_R_8.png","img/900/equaldotanddens/R/14_Ratio_900_L_18_R_20.png","img/500/randomdotsizeEA/L/11_Ratio_500_L_12_R_6.png","img/900/equaldotanddens/L/1_Ratio_900_L_10_R_9.png","img/250/equaldotsize/L/14_Ratio_250_L_12_R_3.png","img/750/randomdotsizeEA/L/14_Ratio_750_L_8_R_6.png","img/750/equaldotanddens/L/6_Ratio_750_L_24_R_18.png","img/900/randomdotsizeEA/L/2_Ratio_900_L_20_R_18.png","img/900/equaldotanddens/L/1_Ratio_900_L_10_R_9.png","img/250/randomdotsizeEA/R/10_Ratio_250_L_4_R_16.png","img/750/equaldotanddens/L/8_Ratio_750_L_4_R_3.png","img/750/equaldotanddens/R/3_Ratio_750_L_15_R_20.png","img/750/equaldotanddens/R/3_Ratio_750_L_15_R_20.png","img/750/randomdotsizeEA/R/12_Ratio_750_L_3_R_4.png","img/250/equaldotsize/L/15_Ratio_250_L_12_R_3.png","img/900/equaldotsize/R/7_Ratio_900_L_9_R_10.png","img/250/equaldotanddens/L/1_Ratio_250_L_8_R_2.png","img/750/equaldotanddens/R/7_Ratio_750_L_3_R_4.png","img/900/randomdotsizeEA/L/4_Ratio_900_L_20_R_18.png","img/750/equaldotanddens/L/10_Ratio_750_L_4_R_3.png","img/750/equaldotsize/R/2_Ratio_750_L_6_R_8.png","img/500/equaldotanddens/L/10_Ratio_500_L_4_R_2.png","img/750/equaldotsize/R/5_Ratio_750_L_15_R_20.png","img/750/randomdotsizeEA/R/12_Ratio_750_L_3_R_4.png","img/900/equaldotanddens/R/12_Ratio_900_L_18_R_20.png","img/500/equaldotsize/L/13_Ratio_500_L_12_R_6.png","img/500/equaldotanddens/L/5_Ratio_500_L_4_R_2.png","img/250/equaldotanddens/R/8_Ratio_250_L_1_R_4.png","img/250/randomdotsizeEA/L/5_Ratio_250_L_24_R_6.png","img/750/equaldotsize/L/14_Ratio_750_L_8_R_6.png","img/750/randomdotsizeEA/L/6_Ratio_750_L_24_R_18.png","img/250/randomdotsizeEA/L/2_Ratio_250_L_16_R_4.png","img/250/equaldotsize/R/12_Ratio_250_L_5_R_20.png","img/750/randomdotsizeEA/R/2_Ratio_750_L_6_R_8.png","img/250/randomdotsizeEA/R/12_Ratio_250_L_5_R_20.png","img/750/equaldotsize/R/12_Ratio_750_L_3_R_4.png","img/500/equaldotsize/L/13_Ratio_500_L_12_R_6.png","img/750/equaldotsize/L/8_Ratio_750_L_4_R_3.png","img/500/equaldotanddens/L/5_Ratio_500_L_4_R_2.png","img/900/randomdotsizeEA/L/8_Ratio_900_L_20_R_18.png"],"Rat0":[["12_Ratio_0_L_9_R_0.png","13_Ratio_0_L_6_R_0.png","5_Ratio_0_L_2_R_0.png","6_Ratio_0_L_4_R_0.png","8_Ratio_0_L_6_R_0.png"],["1_Ratio_0_L_0_R_17.png","10_Ratio_0_L_0_R_22.png","11_Ratio_0_L_0_R_1.png","14_Ratio_0_L_0_R_24.png","15_Ratio_0_L_0_R_4.png","2_Ratio_0_L_0_R_5.png","3_Ratio_0_L_0_R_17.png","4_Ratio_0_L_0_R_7.png","7_Ratio_0_L_0_R_19.png","9_Ratio_0_L_0_R_15.png"]],"Rat250":[["1_Ratio_250_L_8_R_2.png","14_Ratio_250_L_12_R_3.png","15_Ratio_250_L_12_R_3.png","2_Ratio_250_L_16_R_4.png","3_Ratio_250_L_8_R_2.png","5_Ratio_250_L_24_R_6.png","7_Ratio_250_L_8_R_2.png"],["10_Ratio_250_L_4_R_16.png","11_Ratio_250_L_3_R_12.png","12_Ratio_250_L_5_R_20.png","13_Ratio_250_L_2_R_8.png","4_Ratio_250_L_3_R_12.png","6_Ratio_250_L_6_R_24.png","8_Ratio_250_L_1_R_4.png","9_Ratio_250_L_3_R_12.png"]],"Rat500":[["10_Ratio_500_L_4_R_2.png","11_Ratio_500_L_12_R_6.png","13_Ratio_500_L_12_R_6.png","4_Ratio_500_L_18_R_9.png","5_Ratio_500_L_4_R_2.png","7_Ratio_500_L_10_R_5.png","8_Ratio_500_L_8_R_4.png"],["1_Ratio_500_L_9_R_18.png","12_Ratio_500_L_1_R_2.png","14_Ratio_500_L_5_R_10.png","15_Ratio_500_L_1_R_2.png","2_Ratio_500_L_3_R_6.png","3_Ratio_500_L_10_R_20.png","6_Ratio_500_L_9_R_18.png","9_Ratio_500_L_2_R_4.png"]],"Rat750":[["1_Ratio_750_L_20_R_15.png","10_Ratio_750_L_4_R_3.png","13_Ratio_750_L_8_R_6.png","14_Ratio_750_L_8_R_6.png","6_Ratio_750_L_24_R_18.png","8_Ratio_750_L_4_R_3.png","9_Ratio_750_L_4_R_3.png"],["11_Ratio_750_L_12_R_16.png","12_Ratio_750_L_3_R_4.png","15_Ratio_750_L_9_R_12.png","2_Ratio_750_L_6_R_8.png","3_Ratio_750_L_15_R_20.png","4_Ratio_750_L_15_R_20.png","5_Ratio_750_L_15_R_20.png","7_Ratio_750_L_3_R_4.png"]],"Rat900":[["1_Ratio_900_L_10_R_9.png","10_Ratio_900_L_20_R_18.png","2_Ratio_900_L_20_R_18.png","4_Ratio_900_L_20_R_18.png","8_Ratio_900_L_20_R_18.png"],["11_Ratio_900_L_18_R_20.png","12_Ratio_900_L_18_R_20.png","13_Ratio_900_L_18_R_20.png","14_Ratio_900_L_18_R_20.png","15_Ratio_900_L_9_R_10.png","3_Ratio_900_L_9_R_10.png","5_Ratio_900_L_9_R_10.png","6_Ratio_900_L_9_R_10.png","7_Ratio_900_L_9_R_10.png","9_Ratio_900_L_18_R_20.png"]],"Rat1000":[["10_Ratio_1000_L_16_R_16.png","11_Ratio_1000_L_6_R_6.png","12_Ratio_1000_L_14_R_14.png","13_Ratio_1000_L_20_R_20.png","15_Ratio_1000_L_15_R_15.png","2_Ratio_1000_L_17_R_17.png","4_Ratio_1000_L_9_R_9.png","5_Ratio_1000_L_6_R_6.png","6_Ratio_1000_L_19_R_19.png","8_Ratio_1000_L_14_R_14.png","9_Ratio_1000_L_25_R_25.png"],["1_Ratio_1000_L_1_R_1.png","14_Ratio_1000_L_17_R_17.png","3_Ratio_1000_L_17_R_17.png","7_Ratio_1000_L_6_R_6.png"]]}},{"start_time":1551794725959,"click_time":1551794726712,"finger_time":1551794726610,"fix_duration":627.1398481760793,"trial":1,"RT":651,"MT":102,"sideResp":1,"stimulus":"img/500/equaldotanddens/L/13_Ratio_500_L_12_R_6.png","xmouse":[806,806,806,806,806,806,806,806,806,806,806,806,806,806,806,806,806,806,806,806,806,806,806,806,806,806,806,806,806,806,806,801,787,664,611,565,538,508],"ymouse":[521,521,521,521,521,521,521,521,521,521,521,521,521,521,521,521,521,521,521,521,521,521,521,521,521,521,521,521,521,521,521,516,486,267,193,142,112,83],"timestamp_mouse":[11,33,51,71,91,112,131,151,172,191,211,231,252,271,292,311,331,351,372,391,411,431,451,471,491,512,531,551,571,592,611,631,651,671,691,711,731,752],"xSR":741.5,"ySR":494.65000000000003,"xT1":424.9,"yT1":0,"xT2":1058.1,"yT2":0,"toosoon":0,"cond_shown":"equaldotanddens","ratio_trial":500,"smaller_num":"6","larger_num":"12","correct_side":1,"subjID":"DylanLeonBedoya18","gender":"0","age":"11","school":"6"},{"start_time":1551794728020,"click_time":1551794728990,"finger_time":1551794728690,"fix_duration":349.7877427552526,"trial":2,"RT":670,"MT":300,"sideResp":2,"stimulus":"img/900/equaldotanddens/R/6_Ratio_900_L_9_R_10.png","xmouse":[791,791,791,791,791,791,791,791,791,791,791,791,791,791,791,791,791,791,791,791,791,793,798,800,801,801,801,801,801,801,801,803,822,896,990,1097,1116,1134,1147,1158,1166,1168,1170,1171,1171,1171,1171,1160,1143],"ymouse":[545,545,545,545,545,545,545,545,545,545,545,545,545,545,545,545,545,545,545,545,545,547,553,556,557,557,557,557,557,557,557,556,529,438,337,258,244,224,199,159,110,89,74,63,61,61,60,62,66],"timestamp_mouse":[10,38,50,70,90,110,130,150,170,192,210,230,250,270,290,310,330,350,370,390,410,430,450,470,491,510,530,550,570,590,610,630,650,670,690,710,730,750,771,790,810,830,850,870,891,910,931,950,970],"xSR":741.5,"ySR":494.65000000000003,"xT1":424.9,"yT1":0,"xT2":1058.1,"yT2":0,"toosoon":0,"cond_shown":"equaldotanddens","ratio_trial":900,"smaller_num":"9","larger_num":"10","correct_side":2,"subjID":"DylanLeonBedoya18","gender":"0","age":"11","school":"6"},{"start_time":1551794732984,"click_time":1551794733790,"finger_time":1551794733530,"fix_duration":1172.9429931639177,"trial":3,"RT":546,"MT":260,"sideResp":1,"stimulus":"img/250/equaldotanddens/L/14_Ratio_250_L_12_R_3.png","xmouse":[812,812,812,812,812,812,812,812,812,812,812,812,812,812,812,812,812,812,812,812,812,812,812,812,812,812,810,774,735,692,654,577,552,536,530,528,527,526,525,525,524],"ymouse":[548,548,548,548,548,548,548,548,548,548,548,548,548,548,548,548,548,548,548,548,548,548,548,548,548,548,544,472,398,321,245,80,42,19,10,9,7,5,5,4,3],"timestamp_mouse":[6,30,46,66,86,106,126,146,166,186,206,226,246,266,286,306,326,346,366,386,406,427,446,466,486,506,526,546,566,587,606,627,646,666,686,706,726,746,766,786,806],"xSR":741.5,"ySR":494.65000000000003,"xT1":424.9,"yT1":0,"xT2":1058.1,"yT2":0,"toosoon":0,"cond_shown":"equaldotanddens","ratio_trial":250,"smaller_num":"3","larger_num":"12","correct_side":1,"subjID":"DylanLeonBedoya18","gender":"0","age":"11","school":"6"},{"start_time":1551794735311,"click_time":1551794735970,"finger_time":1551794735690,"fix_duration":579.4365404397804,"trial":4,"RT":379,"MT":280,"sideResp":2,"stimulus":"img/250/equaldotanddens/R/13_Ratio_250_L_2_R_8.png","xmouse":[836,836,836,836,836,836,836,836,836,836,836,836,836,836,836,836,836,835,841,847,859,896,919,959,970,985,1010,1017,1026,1032,1036,1044,1051,1059],"ymouse":[542,542,542,542,542,542,542,542,542,542,542,542,542,542,542,542,542,541,520,497,463,380,335,259,238,212,173,162,149,139,133,119,108,98],"timestamp_mouse":[1,25,39,59,80,99,119,139,160,179,199,219,239,259,279,299,319,339,359,379,400,419,439,459,479,499,519,539,559,579,599,619,639,659],"xSR":741.5,"ySR":494.65000000000003,"xT1":424.9,"yT1":0,"xT2":1058.1,"yT2":0,"toosoon":0,"cond_shown":"equaldotanddens","ratio_trial":250,"smaller_num":"2","larger_num":"8","correct_side":2,"subjID":"DylanLeonBedoya18","gender":"0","age":"11","school":"6"},{"start_time":1551794737426,"click_time":1551794739110,"finger_time":1551794738431,"fix_duration":734.8020391081147,"trial":5,"RT":1005,"MT":679,"sideResp":2,"stimulus":"img/900/randomdotsizeEA/L/2_Ratio_900_L_20_R_18.png","xmouse":[788,788,788,788,788,788,788,788,788,788,788,788,788,788,788,788,788,788,788,788,788,788,788,788,788,788,788,788,788,788,788,788,788,788,788,788,788,788,788,788,788,788,788,788,788,788,788,789,791,793,814,824,830,834,837,837,837,837,837,837,837,837,837,837,837,837,837,837,839,840,842,842,842,842,844,845,850,865,892,948,1017,1037,1053,1061,1068],"ymouse":[516,516,516,516,516,516,516,516,516,516,516,516,516,516,516,516,516,516,516,516,516,516,516,516,516,516,516,516,516,516,516,516,516,516,516,516,516,516,516,516,516,516,516,516,516,516,513,510,507,502,475,462,453,449,444,444,444,444,444,444,444,444,444,444,444,444,444,444,440,438,433,432,431,431,430,426,414,385,337,255,172,148,127,110,98],"timestamp_mouse":[6,32,44,64,84,104,124,144,165,184,204,224,244,264,285,305,324,344,364,384,404,424,444,464,484,504,524,545,564,584,605,625,644,664,684,704,724,744,764,785,804,824,845,864,885,904,925,944,964,984,1005,1024,1044,1064,1085,1104,1124,1144,1165,1184,1204,1224,1244,1264,1284,1304,1324,1344,1364,1384,1404,1424,1444,1464,1485,1504,1525,1544,1565,1584,1604,1624,1644,1665,1684],"xSR":741.5,"ySR":494.65000000000003,"xT1":424.9,"yT1":0,"xT2":1058.1,"yT2":0,"toosoon":0,"cond_shown":"randomdotsizeEA","ratio_trial":900,"smaller_num":"18","larger_num":"20","correct_side":1,"subjID":"DylanLeonBedoya18","gender":"0","age":"11","school":"6"},{"start_time":1551794740807,"click_time":1551794741552,"finger_time":1551794741390,"fix_duration":835.501414544332,"trial":6,"RT":583,"MT":162,"sideResp":1,"stimulus":"img/250/randomdotsizeEA/L/2_Ratio_250_L_16_R_4.png","xmouse":[821,821,821,821,821,821,821,821,821,821,821,821,821,821,821,821,821,821,821,821,821,821,821,821,821,821,821,820,813,767,678,634,599,575,557,542,525,521],"ymouse":[534,534,534,534,534,534,534,534,534,534,534,534,534,534,534,534,534,534,534,534,534,534,534,534,534,534,534,534,529,446,313,262,219,186,150,115,74,67],"timestamp_mouse":[6,23,43,63,83,103,123,143,163,184,203,223,243,263,284,303,325,343,363,383,405,423,443,464,483,503,523,543,563,583,604,623,643,663,683,704,723,745],"xSR":741.5,"ySR":494.65000000000003,"xT1":424.9,"yT1":0,"xT2":1058.1,"yT2":0,"toosoon":0,"cond_shown":"randomdotsizeEA","ratio_trial":250,"smaller_num":"4","larger_num":"16","correct_side":1,"subjID":"DylanLeonBedoya18","gender":"0","age":"11","school":"6"},{"start_time":1551794780675,"click_time":1551794781430,"finger_time":1551794781310,"fix_duration":1343.7687206868673,"trial":7,"RT":635,"MT":120,"sideResp":2,"stimulus":"img/250/equaldotanddens/R/11_Ratio_250_L_3_R_12.png","xmouse":[833,833,833,833,833,833,833,833,833,833,833,833,833,833,833,833,833,833,833,833,833,833,833,833,833,833,833,833,833,833,833,833,848,881,914,960,1007,1073],"ymouse":[497,497,497,497,497,497,497,497,497,497,497,497,497,497,497,497,497,497,497,497,497,497,497,497,497,497,497,497,497,497,497,492,441,366,290,210,144,69],"timestamp_mouse":[15,36,55,76,95,115,135,155,175,195,215,235,255,276,295,315,336,355,375,395,415,435,455,475,495,515,536,555,575,595,615,635,655,675,695,716,736,755],"xSR":741.5,"ySR":494.65000000000003,"xT1":424.9,"yT1":0,"xT2":1058.1,"yT2":0,"toosoon":0,"cond_shown":"equaldotanddens","ratio_trial":250,"smaller_num":"3","larger_num":"12","correct_side":2,"subjID":"DylanLeonBedoya18","gender":"0","age":"11","school":"6"},{"start_time":1551794782462,"click_time":1551794783991,"finger_time":1551794783090,"fix_duration":250,"trial":8,"RT":628,"MT":901,"sideResp":1,"stimulus":"img/900/randomdotsizeEA/L/8_Ratio_900_L_20_R_18.png","xmouse":[765,765,765,765,765,765,765,765,765,765,765,765,765,765,765,765,765,765,765,765,765,765,765,765,765,765,765,765,765,765,765,765,743,729,713,698,687,672,651,642,633,626,612,605,596,586,578,565,557,552,549,543,535,532,528,527,526,526,526,526,526,526,526,526,526,526,526,526,526,526,526,526,526,526,526,525,523],"ymouse":[508,508,508,508,508,508,508,508,508,508,508,508,508,508,508,508,508,508,508,508,508,508,508,508,508,508,508,508,508,508,503,492,398,352,309,274,250,218,183,171,160,151,133,123,111,100,95,86,80,78,76,74,70,68,66,65,64,64,64,64,64,64,64,64,64,64,64,64,64,64,64,64,64,64,64,64,64],"timestamp_mouse":[8,28,50,69,88,108,128,148,169,188,208,228,249,268,288,308,328,349,368,388,408,428,448,470,488,508,528,548,568,588,608,628,649,668,688,708,728,748,768,788,808,828,850,868,888,908,928,948,968,988,1008,1028,1050,1068,1088,1108,1128,1149,1168,1188,1208,1228,1249,1268,1289,1309,1328,1348,1368,1388,1408,1428,1450,1468,1489,1508,1529],"xSR":741.5,"ySR":494.65000000000003,"xT1":424.9,"yT1":0,"xT2":1058.1,"yT2":0,"toosoon":0,"cond_shown":"randomdotsizeEA","ratio_trial":900,"smaller_num":"18","larger_num":"20","correct_side":1,"subjID":"DylanLeonBedoya18","gender":"0","age":"11","school":"6"},{"start_time":1551794805724,"click_time":1551794806610,"finger_time":1551794806330,"fix_duration":953.5473615363879,"trial":9,"RT":606,"MT":280,"sideResp":1,"stimulus":"img/500/equaldotsize/L/13_Ratio_500_L_12_R_6.png","xmouse":[832,832,832,832,832,832,832,832,832,832,832,832,832,832,832,832,832,832,832,832,832,832,832,832,832,832,832,832,828,810,660,562,470,401,363,350,349,349,349,349,349,359,382,410,456],"ymouse":[553,553,553,553,553,553,553,553,553,553,553,553,553,553,553,553,553,553,553,553,553,553,553,553,553,553,553,553,542,513,314,222,158,120,103,97,97,97,97,97,93,84,74,65,46],"timestamp_mouse":[7,31,46,66,86,106,126,146,166,186,206,227,246,266,286,306,326,346,366,387,407,426,446,466,486,507,526,546,566,586,606,626,646,666,686,706,726,746,767,787,806,827,846,866,886],"xSR":741.5,"ySR":494.65000000000003,"xT1":424.9,"yT1":0,"xT2":1058.1,"yT2":0,"toosoon":0,"cond_shown":"equaldotsize","ratio_trial":500,"smaller_num":"6","larger_num":"12","correct_side":1,"subjID":"DylanLeonBedoya18","gender":"0","age":"11","school":"6"},{"start_time":1551794808902,"click_time":1551794810230,"finger_time":1551794809530,"fix_duration":1071.2488960768603,"trial":10,"RT":628,"MT":700,"sideResp":2,"stimulus":"img/900/equaldotanddens/L/2_Ratio_900_L_20_R_18.png","xmouse":[764,764,764,765,764,762,760,759,758,758,757,757,757,757,757,757,757,757,757,757,757,757,757,757,756,755,755,755,755,755,757,813,857,924,977,1004,1022,1027,1030,1034,1036,1044,1052,1056,1062,1086,1091,1094,1096,1097,1098,1098,1098,1098,1098,1098,1098,1098,1098,1098,1098,1098,1098,1098,1098,1099,1099],"ymouse":[553,553,553,552,548,546,541,540,539,538,537,536,536,535,535,535,535,535,535,535,534,533,531,529,527,524,521,521,521,518,511,410,333,246,192,176,164,161,160,158,156,153,148,147,144,128,125,122,120,119,118,118,118,118,118,118,118,118,118,118,117,116,115,112,109,104,94],"timestamp_mouse":[8,27,48,68,88,109,128,148,168,188,209,228,248,269,288,308,328,349,369,388,408,428,448,468,488,508,528,548,568,589,608,627,649,668,688,708,728,748,769,789,809,828,848,868,888,909,928,948,970,988,1009,1028,1049,1068,1088,1108,1128,1148,1168,1188,1208,1228,1248,1268,1288,1308,1328],"xSR":741.5,"ySR":494.65000000000003,"xT1":424.9,"yT1":0,"xT2":1058.1,"yT2":0,"toosoon":0,"cond_shown":"equaldotanddens","ratio_trial":900,"smaller_num":"18","larger_num":"20","correct_side":1,"subjID":"DylanLeonBedoya18","gender":"0","age":"11","school":"6"},{"start_time":1551794813698,"click_time":1551794815270,"finger_time":1551794814330,"fix_duration":306.2904872742025,"trial":11,"RT":632,"MT":940,"sideResp":2,"stimulus":"img/500/randomdotsizeEA/R/3_Ratio_500_L_10_R_20.png","xmouse":[818,818,818,818,818,818,818,818,818,818,818,818,818,818,818,818,818,818,818,818,818,818,818,818,818,818,818,818,816,812,806,785,770,757,748,742,735,731,727,719,699,681,665,657,652,651,651,651,650,649,646,642,641,641,641,642,691,749,817,863,888,909,920,932,940,946,968,979,989,996,1003,1021,1031,1037,1044,1063,1071,1075,1079],"ymouse":[579,579,579,579,579,579,579,579,579,579,579,579,579,579,579,579,579,579,579,579,579,579,579,579,579,579,579,577,570,555,533,464,427,399,378,364,348,340,330,313,267,231,205,193,185,185,183,183,181,179,175,170,169,169,169,169,172,170,160,154,149,147,142,136,132,130,123,120,117,115,115,114,114,114,112,106,102,100,98],"timestamp_mouse":[12,32,53,73,92,112,132,152,172,192,212,232,252,272,292,312,333,352,372,392,412,432,452,472,492,512,532,552,572,592,612,632,652,672,692,712,732,752,772,793,813,832,853,873,892,913,933,953,972,992,1012,1032,1052,1072,1093,1112,1133,1151,1172,1192,1213,1232,1252,1272,1292,1313,1332,1352,1372,1392,1413,1431,1453,1472,1493,1512,1532,1552,1572],"xSR":741.5,"ySR":494.65000000000003,"xT1":424.9,"yT1":0,"xT2":1058.1,"yT2":0,"toosoon":0,"cond_shown":"randomdotsizeEA","ratio_trial":500,"smaller_num":"10","larger_num":"20","correct_side":2,"subjID":"DylanLeonBedoya18","gender":"0","age":"11","school":"6"},{"start_time":1551794819455,"click_time":1551794820396,"finger_time":1551794820110,"fix_duration":1442.8186657080726,"trial":12,"RT":655,"MT":286,"sideResp":1,"stimulus":"img/500/equaldotsize/L/13_Ratio_500_L_12_R_6.png","xmouse":[831,831,831,831,831,831,831,831,831,831,831,831,831,831,831,831,831,831,831,831,831,831,831,831,831,831,831,831,831,831,831,831,828,821,815,805,784,756,727,716,709,699,670,648,620,586,496],"ymouse":[544,544,544,544,544,544,544,544,544,544,544,544,544,544,544,544,544,544,544,544,544,544,544,544,544,544,544,544,544,543,528,506,484,432,385,322,266,205,166,158,156,154,148,142,133,119,67],"timestamp_mouse":[15,35,56,76,95,115,135,155,175,195,215,235,255,275,296,315,335,355,376,395,415,436,456,475,495,515,535,556,575,595,615,635,655,675,695,715,735,755,775,795,816,835,856,875,895,915,941],"xSR":741.5,"ySR":494.65000000000003,"xT1":424.9,"yT1":0,"xT2":1058.1,"yT2":0,"toosoon":0,"cond_shown":"equaldotsize","ratio_trial":500,"smaller_num":"6","larger_num":"12","correct_side":1,"subjID":"DylanLeonBedoya18","gender":"0","age":"11","school":"6"},{"start_time":1551794822581,"click_time":1551794823670,"finger_time":1551794823310,"fix_duration":250,"trial":13,"RT":729,"MT":360,"sideResp":1,"stimulus":"img/250/equaldotsize/L/1_Ratio_250_L_8_R_2.png","xmouse":[811,811,811,811,811,811,811,811,811,811,811,811,811,811,811,811,811,811,811,811,811,811,811,811,811,811,811,811,811,811,811,811,811,810,806,801,797,789,782,771,755,723,690,676,657,640,599,583,569,560,553,540,534,528,523],"ymouse":[552,552,552,552,552,552,552,552,552,552,552,552,552,552,552,552,552,552,552,552,552,552,552,552,552,552,552,552,552,552,552,552,552,550,534,509,486,440,415,390,362,327,299,291,280,268,239,227,218,209,200,154,133,113,97],"timestamp_mouse":[10,30,49,69,90,109,130,149,169,190,209,229,249,269,288,309,330,349,369,389,409,430,449,469,489,510,529,549,568,589,609,629,648,669,689,709,729,748,769,789,809,830,850,869,889,909,930,949,969,989,1009,1030,1049,1069,1089],"xSR":741.5,"ySR":494.65000000000003,"xT1":424.9,"yT1":0,"xT2":1058.1,"yT2":0,"toosoon":0,"cond_shown":"equaldotsize","ratio_trial":250,"smaller_num":"2","larger_num":"8","correct_side":1,"subjID":"DylanLeonBedoya18","gender":"0","age":"11","school":"6"},{"start_time":1551794825361,"click_time":1551794826311,"finger_time":1551794826030,"fix_duration":250,"trial":14,"RT":669,"MT":281,"sideResp":2,"stimulus":"img/500/equaldotanddens/R/3_Ratio_500_L_10_R_20.png","xmouse":[775,775,775,775,775,775,775,775,775,775,775,775,775,775,775,775,775,775,775,775,775,775,775,775,775,775,775,775,775,775,775,775,778,823,869,912,938,955,981,994,1011,1024,1055,1063,1067,1069,1070,1074],"ymouse":[517,517,517,517,517,517,517,517,517,517,517,517,517,517,517,518,518,518,518,518,518,518,518,518,518,518,518,518,518,518,518,518,516,452,372,300,267,257,245,235,223,210,168,151,134,118,105,81],"timestamp_mouse":[10,29,49,69,89,109,129,149,170,190,209,229,249,269,289,309,329,349,369,389,409,429,450,469,489,509,529,549,570,589,609,629,649,668,689,709,730,750,769,789,809,829,850,869,889,909,930,950],"xSR":741.5,"ySR":494.65000000000003,"xT1":424.9,"yT1":0,"xT2":1058.1,"yT2":0,"toosoon":0,"cond_shown":"equaldotanddens","ratio_trial":500,"smaller_num":"10","larger_num":"20","correct_side":2,"subjID":"DylanLeonBedoya18","gender":"0","age":"11","school":"6"},{"start_time":1551794827321,"click_time":1551794828191,"finger_time":1551794827950,"fix_duration":250,"trial":15,"RT":629,"MT":241,"sideResp":2,"stimulus":"img/500/equaldotanddens/R/2_Ratio_500_L_3_R_6.png","xmouse":[822,822,822,822,822,822,822,822,822,822,822,822,822,822,822,822,822,822,822,822,822,822,822,822,822,822,822,822,822,822,822,846,910,1006,1036,1125,1133,1136,1138,1139,1140,1140,1140,1139],"ymouse":[514,514,514,514,514,514,514,514,514,514,514,514,514,514,514,514,514,514,514,514,514,514,514,514,514,514,514,514,514,514,515,480,388,255,221,135,129,125,123,120,117,110,100,88],"timestamp_mouse":[9,34,49,69,89,110,129,149,170,189,209,230,249,269,289,309,329,349,369,389,409,429,449,469,489,509,529,549,569,589,609,629,649,670,689,709,729,749,769,790,809,829,849,870],"xSR":741.5,"ySR":494.65000000000003,"xT1":424.9,"yT1":0,"xT2":1058.1,"yT2":0,"toosoon":0,"cond_shown":"equaldotanddens","ratio_trial":500,"smaller_num":"3","larger_num":"6","correct_side":2,"subjID":"DylanLeonBedoya18","gender":"0","age":"11","school":"6"},{"start_time":1551794829381,"click_time":1551794830312,"finger_time":1551794829990,"fix_duration":250,"trial":16,"RT":609,"MT":322,"sideResp":1,"stimulus":"img/900/equaldotsize/L/2_Ratio_900_L_20_R_18.png","xmouse":[779,779,779,779,779,779,779,779,779,779,779,779,779,779,779,779,779,779,779,779,779,779,779,779,779,779,779,779,779,777,761,702,680,669,665,657,645,606,584,565,551,531,525,522,518,516,512],"ymouse":[552,552,552,552,552,552,552,552,552,552,552,552,552,552,552,552,552,552,552,552,552,552,552,552,552,552,552,552,550,535,420,214,172,157,152,147,140,124,118,115,113,109,106,104,102,101,99],"timestamp_mouse":[9,29,49,69,89,109,129,149,169,189,209,229,249,269,289,309,330,349,369,389,409,429,449,469,489,509,529,549,569,589,609,630,649,669,689,710,729,749,769,789,809,830,849,869,889,909,931],"xSR":741.5,"ySR":494.65000000000003,"xT1":424.9,"yT1":0,"xT2":1058.1,"yT2":0,"toosoon":0,"cond_shown":"equaldotsize","ratio_trial":900,"smaller_num":"18","larger_num":"20","correct_side":1,"subjID":"DylanLeonBedoya18","gender":"0","age":"11","school":"6"},{"start_time":1551794831462,"click_time":1551794832111,"finger_time":1551794832030,"fix_duration":250,"trial":17,"RT":568,"MT":81,"sideResp":2,"stimulus":"img/250/equaldotanddens/R/12_Ratio_250_L_5_R_20.png","xmouse":[803,803,803,803,803,803,803,803,803,803,803,803,803,803,803,803,803,803,803,803,803,803,803,803,803,803,803,803,853,909,973,1037,1103],"ymouse":[512,512,512,512,512,512,512,512,512,512,512,512,512,512,512,512,512,512,512,512,512,512,512,512,512,512,512,513,427,318,206,119,58],"timestamp_mouse":[10,28,49,68,88,108,128,148,168,188,208,228,248,268,289,308,328,348,368,388,408,428,448,468,488,508,528,548,568,588,608,628,648],"xSR":741.5,"ySR":494.65000000000003,"xT1":424.9,"yT1":0,"xT2":1058.1,"yT2":0,"toosoon":0,"cond_shown":"equaldotanddens","ratio_trial":250,"smaller_num":"5","larger_num":"20","correct_side":2,"subjID":"DylanLeonBedoya18","gender":"0","age":"11","school":"6"},{"start_time":1551794834084,"click_time":1551794835050,"finger_time":1551794834550,"fix_duration":872.7195724876394,"trial":18,"RT":466,"MT":500,"sideResp":2,"stimulus":"img/500/randomdotsizeEA/R/12_Ratio_500_L_1_R_2.png","xmouse":[789,789,790,790,790,790,791,791,792,792,793,793,793,794,794,794,794,795,796,796,797,798,820,848,898,997,1115,1231,1231,1231,1231,1231,1231,1231,1231,1231,1231,1231,1231,1231,1231,1231,1231,1231,1231,1231,1231,1178,1114],"ymouse":[555,551,551,551,551,550,548,546,545,543,542,540,540,539,539,536,536,535,534,532,531,529,504,475,413,290,151,21,21,21,21,21,21,21,21,21,21,21,21,21,21,21,21,21,21,21,21,41,69],"timestamp_mouse":[6,40,46,66,86,106,126,146,166,187,206,227,246,266,287,307,327,346,366,386,406,427,446,466,486,506,526,547,566,586,606,626,646,666,686,706,727,747,766,786,806,826,845,866,886,906,926,947,965],"xSR":741.5,"ySR":494.65000000000003,"xT1":424.9,"yT1":0,"xT2":1058.1,"yT2":0,"toosoon":0,"cond_shown":"randomdotsizeEA","ratio_trial":500,"smaller_num":"1","larger_num":"2","correct_side":2,"subjID":"DylanLeonBedoya18","gender":"0","age":"11","school":"6"},{"start_time":1551794836481,"click_time":1551794837590,"finger_time":1551794837170,"fix_duration":250,"trial":19,"RT":689,"MT":420,"sideResp":1,"stimulus":"img/500/randomdotsizeEA/L/8_Ratio_500_L_8_R_4.png","xmouse":[810,810,810,810,810,810,810,810,810,810,810,810,810,810,810,810,810,810,810,810,810,810,810,810,810,810,810,810,810,810,810,810,810,801,776,741,623,581,553,530,519,516,516,516,516,516,516,516,516,515,515,515,515,514,511,507],"ymouse":[550,550,550,550,550,550,550,550,550,550,550,550,550,550,550,550,550,550,550,550,550,550,550,550,550,550,550,550,550,550,550,550,550,515,446,370,242,232,230,230,228,227,227,227,227,227,227,227,227,223,212,176,156,137,118,94],"timestamp_mouse":[10,30,49,69,89,109,130,149,169,190,209,229,249,269,289,309,329,349,369,389,409,429,449,470,489,509,529,549,569,589,609,629,649,669,689,709,730,749,769,789,810,829,849,869,889,909,929,949,969,989,1009,1030,1049,1069,1089,1109],"xSR":741.5,"ySR":494.65000000000003,"xT1":424.9,"yT1":0,"xT2":1058.1,"yT2":0,"toosoon":0,"cond_shown":"randomdotsizeEA","ratio_trial":500,"smaller_num":"4","larger_num":"8","correct_side":1,"subjID":"DylanLeonBedoya18","gender":"0","age":"11","school":"6"},{"start_time":1551794838865,"click_time":1551794840131,"finger_time":1551794839811,"fix_duration":634.559250494202,"trial":20,"RT":946,"MT":320,"sideResp":1,"stimulus":"img/250/equaldotsize/L/3_Ratio_250_L_8_R_2.png","xmouse":[820,820,820,820,820,820,820,820,820,820,820,820,820,820,820,820,820,820,820,820,820,820,820,820,820,820,820,820,820,820,820,820,820,820,820,820,820,820,820,820,820,820,820,820,818,816,803,749,602,528,528,528,528,528,528,528,528,528,528,528,528,528,528,467],"ymouse":[545,545,545,545,545,545,545,545,545,545,545,545,545,545,545,545,545,545,545,545,545,545,545,545,545,545,545,545,545,545,545,545,545,545,545,545,545,545,545,545,545,545,545,545,544,538,508,391,126,1,1,1,1,1,1,1,1,1,1,1,1,1,1,2],"timestamp_mouse":[7,25,46,65,85,105,125,145,165,185,205,225,245,265,285,305,325,345,365,385,405,425,446,465,486,505,525,545,566,585,605,625,644,665,686,705,725,745,766,785,805,825,845,866,885,905,925,946,966,985,1006,1025,1046,1065,1086,1105,1125,1146,1165,1185,1206,1225,1245,1266],"xSR":741.5,"ySR":494.65000000000003,"xT1":424.9,"yT1":0,"xT2":1058.1,"yT2":0,"toosoon":0,"cond_shown":"equaldotsize","ratio_trial":250,"smaller_num":"2","larger_num":"8","correct_side":1,"subjID":"DylanLeonBedoya18","gender":"0","age":"11","school":"6"},{"start_time":1551794841522,"click_time":1551794843010,"finger_time":1551794842331,"fix_duration":250,"trial":21,"RT":809,"MT":679,"sideResp":2,"stimulus":"img/750/randomdotsizeEA/R/11_Ratio_750_L_12_R_16.png","xmouse":[786,786,786,786,786,786,786,786,786,786,786,786,786,786,786,786,786,786,786,786,786,786,786,786,786,786,786,786,786,786,786,786,786,786,786,786,786,786,786,818,872,946,1022,1090,1140,1197,1209,1215,1218,1220,1220,1220,1221,1221,1218,1214,1209,1201,1192,1174,1169,1166,1164,1164,1164,1164,1164,1164,1164,1164,1164,1164,1162,1159,1155],"ymouse":[521,521,521,521,521,521,521,521,521,521,521,521,521,521,521,521,521,521,521,521,521,521,521,521,521,521,521,521,521,521,521,521,521,521,521,521,521,521,521,505,468,417,364,318,280,219,203,191,185,179,177,175,169,163,147,139,133,123,112,98,95,93,93,93,93,93,93,93,93,93,93,93,92,91,89],"timestamp_mouse":[8,34,48,68,88,108,128,148,168,188,208,228,248,268,288,309,328,348,369,388,408,428,448,468,488,508,529,548,568,588,609,628,648,668,688,708,728,748,768,789,809,828,848,868,889,908,928,948,967,989,1008,1028,1047,1068,1088,1108,1128,1148,1168,1189,1207,1228,1248,1268,1289,1308,1328,1348,1368,1388,1408,1428,1448,1468,1488],"xSR":741.5,"ySR":494.65000000000003,"xT1":424.9,"yT1":0,"xT2":1058.1,"yT2":0,"toosoon":0,"cond_shown":"randomdotsizeEA","ratio_trial":750,"smaller_num":"12","larger_num":"16","correct_side":2,"subjID":"DylanLeonBedoya18","gender":"0","age":"11","school":"6"},{"start_time":1551794845358,"click_time":1551794846030,"finger_time":1551794845950,"fix_duration":1427.6922455849835,"trial":22,"RT":592,"MT":80,"sideResp":1,"stimulus":"img/250/equaldotanddens/L/2_Ratio_250_L_16_R_4.png","xmouse":[804,804,804,804,804,804,804,804,804,804,804,804,804,804,804,804,804,804,804,804,804,804,804,804,804,804,804,804,802,781,742,703,550,520],"ymouse":[556,556,556,556,556,556,556,556,556,556,556,556,556,556,556,556,556,556,556,556,556,556,556,556,556,556,556,555,533,469,366,251,80,68],"timestamp_mouse":[14,32,52,72,92,113,132,152,172,192,212,233,252,272,292,312,332,352,373,392,412,432,452,472,492,512,532,553,572,592,612,632,653,672],"xSR":741.5,"ySR":494.65000000000003,"xT1":424.9,"yT1":0,"xT2":1058.1,"yT2":0,"toosoon":0,"cond_shown":"equaldotanddens","ratio_trial":250,"smaller_num":"4","larger_num":"16","correct_side":1,"subjID":"DylanLeonBedoya18","gender":"0","age":"11","school":"6"},{"start_time":1551794848454,"click_time":1551794849610,"finger_time":1551794849291,"fix_duration":1462.8982874976828,"trial":23,"RT":837,"MT":319,"sideResp":1,"stimulus":"img/900/equaldotsize/R/11_Ratio_900_L_18_R_20.png","xmouse":[786,786,786,786,786,786,786,786,786,786,786,786,786,786,786,786,786,786,786,786,786,786,786,786,786,786,786,786,786,786,786,786,786,786,786,786,786,786,791,797,801,803,802,797,792,788,784,773,771,770,769,769,766,741,703,639,560,443],"ymouse":[540,540,540,540,540,540,540,540,540,540,540,540,540,540,540,540,540,540,540,540,540,540,540,540,540,540,540,540,540,540,540,540,540,540,540,540,540,540,528,514,496,480,461,454,448,444,440,434,432,432,431,430,429,408,366,281,170,7],"timestamp_mouse":[16,35,57,76,96,116,136,156,176,196,216,236,256,276,296,316,336,356,376,396,416,436,456,476,496,517,536,556,576,596,617,636,656,677,696,716,736,756,776,796,817,837,857,876,896,916,936,956,976,997,1016,1036,1056,1076,1096,1117,1136,1156],"xSR":741.5,"ySR":494.65000000000003,"xT1":424.9,"yT1":0,"xT2":1058.1,"yT2":0,"toosoon":0,"cond_shown":"equaldotsize","ratio_trial":900,"smaller_num":"18","larger_num":"20","correct_side":2,"subjID":"DylanLeonBedoya18","gender":"0","age":"11","school":"6"},{"start_time":1551794852793,"click_time":1551794853750,"finger_time":1551794853330,"fix_duration":1182.5621303757525,"trial":24,"RT":537,"MT":420,"sideResp":1,"stimulus":"img/500/equaldotanddens/L/8_Ratio_500_L_8_R_4.png","xmouse":[759,759,759,759,759,759,759,759,759,759,759,759,759,761,762,764,768,769,770,772,772,772,772,772,772,772,747,733,713,690,662,651,640,629,618,610,604,604,603,601,585,577,569,564,560,540,530,524],"ymouse":[559,559,559,559,559,559,559,559,559,559,559,559,559,559,559,557,554,553,552,551,550,550,550,548,543,526,462,428,393,358,311,295,279,262,247,235,222,221,216,207,175,163,154,148,145,117,90,66],"timestamp_mouse":[30,37,58,77,97,117,138,157,177,197,217,238,257,277,297,317,337,357,377,397,418,437,457,478,498,518,537,558,577,597,618,637,657,677,697,718,737,757,777,797,817,837,857,878,898,918,937,957],"xSR":741.5,"ySR":494.65000000000003,"xT1":424.9,"yT1":0,"xT2":1058.1,"yT2":0,"toosoon":0,"cond_shown":"equaldotanddens","ratio_trial":500,"smaller_num":"4","larger_num":"8","correct_side":1,"subjID":"DylanLeonBedoya18","gender":"0","age":"11","school":"6"},{"start_time":1551794855221,"click_time":1551794856790,"finger_time":1551794855691,"fix_duration":448.7751402886867,"trial":25,"RT":470,"MT":1099,"sideResp":1,"stimulus":"img/900/randomdotsizeEA/L/10_Ratio_900_L_20_R_18.png","xmouse":[790,790,790,790,790,790,790,790,790,790,790,790,790,790,790,790,790,790,790,790,790,790,786,780,771,746,734,726,715,660,620,586,554,531,514,514,514,514,514,514,514,514,514,514,514,514,517,524,534,556,561,565,568,580,646,719,800,870,941,971,971,971,971,972,972,973,973,974,974,974,974,974,974,972,950,798,681,560,474],"ymouse":[517,517,517,517,517,517,517,517,517,517,517,517,517,517,517,517,517,517,517,517,517,516,497,474,449,410,399,392,382,330,296,269,248,235,225,225,225,225,225,225,225,225,225,225,225,223,218,207,195,162,153,147,144,139,128,117,110,110,108,103,103,103,103,103,103,101,101,100,99,99,99,99,98,96,88,67,51,32,25],"timestamp_mouse":[9,35,49,69,89,109,129,149,169,189,209,229,249,269,289,309,330,350,370,391,409,429,450,469,490,509,529,549,569,590,609,629,649,670,690,709,729,749,770,790,810,829,849,870,889,909,929,949,969,989,1009,1029,1049,1069,1090,1109,1130,1149,1169,1190,1209,1229,1249,1269,1290,1309,1329,1349,1370,1390,1409,1429,1449,1468,1490,1509,1529,1550,1569],"xSR":741.5,"ySR":494.65000000000003,"xT1":424.9,"yT1":0,"xT2":1058.1,"yT2":0,"toosoon":0,"cond_shown":"randomdotsizeEA","ratio_trial":900,"smaller_num":"18","larger_num":"20","correct_side":1,"subjID":"DylanLeonBedoya18","gender":"0","age":"11","school":"6"},{"start_time":1551794858345,"click_time":1551794859350,"finger_time":1551794858930,"fix_duration":414.5904356965561,"trial":26,"RT":585,"MT":420,"sideResp":1,"stimulus":"img/900/equaldotsize/L/2_Ratio_900_L_20_R_18.png","xmouse":[802,802,802,802,802,802,802,802,802,802,802,802,802,802,802,802,802,802,802,802,802,802,802,802,802,802,802,800,792,705,653,609,571,543,509,502,493,488,483,481,479,479,478,478,478,478,479,480,484,485,485],"ymouse":[553,553,553,553,553,553,553,553,553,553,553,553,553,553,553,553,553,553,553,553,553,553,553,553,553,553,553,550,546,473,425,374,328,296,241,227,211,199,184,178,172,168,165,161,159,154,147,138,117,108,97],"timestamp_mouse":[8,28,45,66,85,105,125,145,165,185,205,225,245,265,285,306,325,345,365,385,405,425,445,465,485,505,525,544,565,585,605,625,646,665,685,705,725,745,766,785,805,825,845,866,885,905,925,945,966,985,1005],"xSR":741.5,"ySR":494.65000000000003,"xT1":424.9,"yT1":0,"xT2":1058.1,"yT2":0,"toosoon":0,"cond_shown":"equaldotsize","ratio_trial":900,"smaller_num":"18","larger_num":"20","correct_side":1,"subjID":"DylanLeonBedoya18","gender":"0","age":"11","school":"6"},{"start_time":1551794863224,"click_time":1551794865390,"finger_time":1551794863790,"fix_duration":1031.4113505506846,"trial":27,"RT":566,"MT":1600,"sideResp":1,"stimulus":"img/750/equaldotsize/L/14_Ratio_750_L_8_R_6.png","xmouse":[784,784,784,784,784,784,784,784,784,784,784,784,784,784,784,784,784,784,784,784,784,784,785,785,784,783,781,778,771,719,693,668,652,643,639,639,639,639,639,639,639,648,673,725,884,951,985,1001,1004,1004,1004,1004,1004,1004,1004,1004,1004,1004,1004,1004,1004,1004,999,974,933,784,705,641,641,641,641,641,641,641,641,641,641,641,641,641,641,641,641,641,641,641,641,641,641,641,641,641,641,641,641,641,641,641,641,641,641,641,641,641,641,641,641,641,464],"ymouse":[559,559,559,559,559,559,559,559,559,559,559,559,559,559,559,559,559,559,559,559,559,559,555,548,540,535,526,512,491,393,348,312,289,275,269,269,269,269,269,269,267,256,243,221,161,147,142,140,140,140,140,140,140,140,140,140,140,140,140,140,140,140,140,142,143,88,44,7,7,7,7,7,7,7,7,7,7,7,7,7,7,7,7,7,7,7,7,7,7,7,7,7,7,7,7,7,7,7,7,7,7,7,7,7,7,7,7,7,7],"timestamp_mouse":[8,32,47,66,86,106,126,146,166,186,206,226,246,266,286,306,326,346,366,386,406,426,446,466,486,507,526,546,566,586,606,626,646,667,686,706,726,746,766,787,806,826,846,866,887,906,926,946,967,987,1006,1026,1046,1066,1087,1106,1127,1146,1166,1187,1206,1226,1246,1266,1287,1306,1326,1347,1367,1387,1407,1428,1448,1466,1488,1506,1527,1546,1566,1587,1606,1626,1646,1666,1686,1707,1726,1746,1766,1786,1806,1827,1847,1866,1887,1907,1926,1946,1966,1987,2006,2026,2047,2066,2087,2107,2127,2147,2166],"xSR":741.5,"ySR":494.65000000000003,"xT1":424.9,"yT1":0,"xT2":1058.1,"yT2":0,"toosoon":0,"cond_shown":"equaldotsize","ratio_trial":750,"smaller_num":"6","larger_num":"8","correct_side":1,"subjID":"DylanLeonBedoya18","gender":"0","age":"11","school":"6"},{"start_time":1551794867761,"click_time":1551794869050,"finger_time":1551794868510,"fix_duration":1089.060305685573,"trial":28,"RT":749,"MT":540,"sideResp":2,"stimulus":"img/500/randomdotsizeEA/R/9_Ratio_500_L_2_R_4.png","xmouse":[782,782,782,782,782,782,782,782,782,782,782,782,782,782,782,782,782,782,782,782,782,782,782,782,782,782,781,780,780,780,780,780,780,780,780,780,780,777,774,771,767,767,766,766,766,766,773,818,851,887,927,979,1018,1028,1035,1042,1047,1052,1060,1062,1066,1067,1072,1077,1080],"ymouse":[515,515,515,515,515,515,515,515,515,515,515,515,515,515,515,515,515,515,515,515,515,515,515,515,515,511,508,503,503,503,503,503,503,503,503,503,503,493,481,468,457,455,451,450,447,443,428,375,343,317,291,252,213,202,194,185,178,170,157,151,143,136,121,105,93],"timestamp_mouse":[9,29,49,69,89,109,129,149,171,191,209,229,249,271,291,310,331,349,369,389,409,429,449,469,489,510,529,550,570,589,609,629,649,671,689,710,729,749,769,789,809,829,849,869,889,909,930,949,969,989,1009,1030,1050,1069,1089,1109,1129,1150,1169,1190,1210,1229,1249,1269,1289],"xSR":741.5,"ySR":494.65000000000003,"xT1":424.9,"yT1":0,"xT2":1058.1,"yT2":0,"toosoon":0,"cond_shown":"randomdotsizeEA","ratio_trial":500,"smaller_num":"2","larger_num":"4","correct_side":2,"subjID":"DylanLeonBedoya18","gender":"0","age":"11","school":"6"},{"start_time":1551794871085,"click_time":1551794872111,"finger_time":1551794871750,"fix_duration":1113.65885459244,"trial":29,"RT":665,"MT":361,"sideResp":2,"stimulus":"img/250/equaldotanddens/R/8_Ratio_250_L_1_R_4.png","xmouse":[812,812,812,812,812,812,812,812,812,812,812,812,812,812,812,812,812,812,812,812,812,812,812,812,812,812,812,812,812,812,812,812,829,887,974,1073,1222,1237,1241,1241,1242,1244,1244,1244,1244,1242,1240,1215,1202,1187,1172,1150],"ymouse":[551,551,551,551,551,551,551,551,551,551,551,551,551,551,551,551,551,551,551,551,551,551,551,551,551,551,551,551,551,551,551,551,528,461,374,273,141,127,120,115,109,97,91,85,82,77,74,69,69,69,69,71],"timestamp_mouse":[6,27,45,66,85,105,125,145,165,186,205,225,245,265,285,306,325,345,365,385,405,425,446,465,486,505,525,546,565,585,605,625,646,665,686,705,726,745,765,785,805,826,845,865,885,905,926,945,965,985,1005,1025],"xSR":741.5,"ySR":494.65000000000003,"xT1":424.9,"yT1":0,"xT2":1058.1,"yT2":0,"toosoon":0,"cond_shown":"equaldotanddens","ratio_trial":250,"smaller_num":"1","larger_num":"4","correct_side":2,"subjID":"DylanLeonBedoya18","gender":"0","age":"11","school":"6"},{"start_time":1551794874427,"click_time":1551794875370,"finger_time":1551794875031,"fix_duration":1215.037247560137,"trial":30,"RT":604,"MT":339,"sideResp":1,"stimulus":"img/500/equaldotsize/L/7_Ratio_500_L_10_R_5.png","xmouse":[800,800,800,800,800,800,800,800,800,800,800,800,800,800,800,800,800,800,800,800,800,800,800,800,800,800,800,800,797,786,699,638,595,562,520,505,498,494,490,486,484,483,483,483,493,498,506,514],"ymouse":[554,554,554,554,554,554,554,554,554,554,554,554,554,554,554,554,554,554,554,554,554,554,554,554,554,554,554,554,552,525,374,313,276,254,227,214,204,196,188,175,169,162,152,143,120,112,101,93],"timestamp_mouse":[8,30,43,63,83,103,123,143,163,183,204,223,243,263,283,303,323,343,363,383,403,423,443,463,483,503,523,543,565,584,604,623,643,663,684,703,724,744,763,784,803,823,843,863,883,903,924,943],"xSR":741.5,"ySR":494.65000000000003,"xT1":424.9,"yT1":0,"xT2":1058.1,"yT2":0,"toosoon":0,"cond_shown":"equaldotsize","ratio_trial":500,"smaller_num":"5","larger_num":"10","correct_side":1,"subjID":"DylanLeonBedoya18","gender":"0","age":"11","school":"6"},{"start_time":1551794877200,"click_time":1551794879011,"finger_time":1551794878031,"fix_duration":1048.551994196848,"trial":31,"RT":831,"MT":980,"sideResp":2,"stimulus":"img/900/equaldotsize/L/10_Ratio_900_L_20_R_18.png","xmouse":[819,819,819,819,819,819,819,819,819,819,819,819,819,819,819,819,819,819,819,819,819,819,819,819,819,819,819,819,819,819,819,819,819,819,819,819,819,819,819,819,822,873,899,919,932,943,967,980,995,1009,1032,1036,1040,1044,1046,1050,1050,1050,1051,1052,1053,1054,1055,1055,1056,1057,1058,1059,1060,1061,1061,1061,1061,1061,1061,1062,1062,1063,1064,1064,1065,1065,1065,1066,1067,1070,1071,1072,1073,1074,1076],"ymouse":[535,535,535,535,535,535,535,535,535,535,535,535,535,535,535,535,535,535,535,535,535,535,535,535,535,535,535,535,535,535,535,535,535,535,535,535,535,535,535,535,535,445,409,387,373,361,326,309,287,265,226,217,209,201,193,178,174,170,167,162,157,154,152,152,150,147,145,142,141,140,139,139,139,139,138,137,136,134,133,132,128,126,125,123,119,114,110,108,105,101,95],"timestamp_mouse":[18,30,50,70,90,110,131,150,170,190,210,231,252,270,290,311,330,350,371,390,410,430,451,471,490,511,530,550,570,591,610,630,650,670,691,711,730,750,770,790,810,831,850,871,890,911,930,950,970,990,1010,1030,1050,1070,1090,1111,1130,1151,1170,1191,1210,1230,1250,1272,1290,1312,1330,1350,1371,1390,1411,1431,1450,1470,1490,1511,1530,1550,1570,1591,1611,1630,1650,1671,1691,1711,1730,1750,1770,1791,1811],"xSR":741.5,"ySR":494.65000000000003,"xT1":424.9,"yT1":0,"xT2":1058.1,"yT2":0,"toosoon":0,"cond_shown":"equaldotsize","ratio_trial":900,"smaller_num":"18","larger_num":"20","correct_side":1,"subjID":"DylanLeonBedoya18","gender":"0","age":"11","school":"6"},{"start_time":1551794881764,"click_time":1551794882650,"finger_time":1551794882410,"fix_duration":810.3861752033658,"trial":32,"RT":646,"MT":240,"sideResp":2,"stimulus":"img/500/equaldotsize/R/9_Ratio_500_L_2_R_4.png","xmouse":[763,763,763,763,763,763,763,763,763,762,762,761,761,761,761,761,761,761,761,761,761,761,761,761,761,761,761,761,761,761,761,770,879,970,1064,1131,1157,1164,1164,1165,1165,1165,1164,1160,1153],"ymouse":[532,532,532,532,532,532,532,532,532,533,535,536,536,536,536,536,536,536,536,536,536,536,536,536,536,536,536,536,536,536,536,511,334,239,162,120,108,104,104,103,100,98,90,84,77],"timestamp_mouse":[6,26,47,66,87,106,126,146,166,187,207,226,247,266,287,306,326,346,366,386,406,426,446,466,486,506,526,547,566,586,606,627,646,666,687,707,727,748,767,788,807,826,847,866,886],"xSR":741.5,"ySR":494.65000000000003,"xT1":424.9,"yT1":0,"xT2":1058.1,"yT2":0,"toosoon":0,"cond_shown":"equaldotsize","ratio_trial":500,"smaller_num":"2","larger_num":"4","correct_side":2,"subjID":"DylanLeonBedoya18","gender":"0","age":"11","school":"6"},{"start_time":1551794883702,"click_time":1551794884312,"finger_time":1551794884210,"fix_duration":250,"trial":33,"RT":508,"MT":102,"sideResp":1,"stimulus":"img/750/equaldotsize/L/8_Ratio_750_L_4_R_3.png","xmouse":[822,822,822,822,822,822,822,822,822,822,822,822,822,822,822,822,822,822,822,822,822,822,822,816,807,769,688,639,596,545,468],"ymouse":[508,508,508,508,508,508,508,508,508,508,508,508,508,508,508,508,508,508,508,508,508,508,508,508,508,493,430,369,292,206,70],"timestamp_mouse":[8,28,48,68,88,108,128,149,168,188,208,229,248,269,290,308,328,348,368,388,409,428,448,469,489,508,528,548,568,588,609],"xSR":741.5,"ySR":494.65000000000003,"xT1":424.9,"yT1":0,"xT2":1058.1,"yT2":0,"toosoon":0,"cond_shown":"equaldotsize","ratio_trial":750,"smaller_num":"3","larger_num":"4","correct_side":1,"subjID":"DylanLeonBedoya18","gender":"0","age":"11","school":"6"},{"start_time":1551794887388,"click_time":1551794888250,"finger_time":1551794887871,"fix_duration":896.9731308917342,"trial":34,"RT":483,"MT":379,"sideResp":2,"stimulus":"img/250/equaldotsize/R/6_Ratio_250_L_6_R_24.png","xmouse":[781,781,781,781,781,781,782,782,783,783,783,783,783,783,783,783,783,783,786,788,791,797,802,808,823,847,888,977,1011,1032,1048,1061,1074,1087,1094,1097,1098,1098,1098,1097,1094,1087,1083,1077],"ymouse":[563,563,563,563,561,556,550,549,548,548,548,548,548,548,548,548,548,548,543,538,528,516,504,498,483,460,424,345,313,290,268,240,208,187,173,164,149,143,136,128,119,107,100,92],"timestamp_mouse":[6,35,43,62,83,102,124,142,163,182,203,222,242,262,282,302,323,342,362,382,403,422,444,462,483,502,523,542,562,582,602,622,642,662,682,702,724,742,763,783,802,823,842,862],"xSR":741.5,"ySR":494.65000000000003,"xT1":424.9,"yT1":0,"xT2":1058.1,"yT2":0,"toosoon":0,"cond_shown":"equaldotsize","ratio_trial":250,"smaller_num":"6","larger_num":"24","correct_side":2,"subjID":"DylanLeonBedoya18","gender":"0","age":"11","school":"6"},{"start_time":1551794889710,"click_time":1551794891050,"finger_time":1551794890410,"fix_duration":678.7732275560677,"trial":35,"RT":700,"MT":640,"sideResp":1,"stimulus":"img/900/equaldotsize/R/3_Ratio_900_L_9_R_10.png","xmouse":[828,828,828,828,828,828,827,827,827,827,827,827,827,827,827,827,827,827,827,827,827,827,827,827,827,827,827,827,827,827,827,827,826,824,818,775,749,721,699,679,640,619,600,583,564,555,553,550,548,544,537,535,532,528,527,525,525,525,525,525,525,525,525,525,525,525,525,524],"ymouse":[544,544,544,544,544,544,544,544,544,544,544,544,544,544,544,544,544,544,544,544,544,544,544,544,544,544,544,544,544,544,544,544,541,530,504,412,378,346,321,305,277,262,248,236,223,215,211,203,191,176,150,140,129,114,103,90,90,90,90,90,90,90,90,90,90,90,90,87],"timestamp_mouse":[6,28,40,60,80,101,121,142,160,180,200,220,240,261,280,301,321,341,360,380,400,420,440,461,480,501,520,540,560,580,600,621,641,660,681,700,720,741,762,780,801,820,842,860,880,901,920,940,960,980,1001,1020,1041,1061,1081,1101,1120,1140,1161,1180,1201,1220,1240,1261,1280,1301,1320,1340],"xSR":741.5,"ySR":494.65000000000003,"xT1":424.9,"yT1":0,"xT2":1058.1,"yT2":0,"toosoon":0,"cond_shown":"equaldotsize","ratio_trial":900,"smaller_num":"9","larger_num":"10","correct_side":2,"subjID":"DylanLeonBedoya18","gender":"0","age":"11","school":"6"},{"start_time":1551794892183,"click_time":1551794893311,"finger_time":1551794892850,"fix_duration":250,"trial":36,"RT":667,"MT":461,"sideResp":2,"stimulus":"img/900/randomdotsizeEA/R/9_Ratio_900_L_18_R_20.png","xmouse":[822,822,822,822,822,822,822,822,822,822,822,822,822,822,822,822,822,822,822,822,826,827,827,827,827,827,827,827,827,827,827,827,827,829,836,861,957,998,1008,1014,1017,1021,1029,1032,1036,1039,1042,1044,1044,1044,1044,1044,1044,1044,1047,1053,1071],"ymouse":[555,555,555,555,555,555,555,555,555,555,555,555,555,555,555,555,555,541,525,511,499,498,498,498,498,498,498,498,498,498,498,498,498,493,475,428,247,175,153,138,126,114,96,91,86,82,79,78,78,77,77,77,77,76,75,73,67],"timestamp_mouse":[8,27,48,68,87,107,127,147,167,187,208,227,247,267,287,307,327,347,368,387,408,429,447,467,487,507,527,548,567,587,607,627,647,667,689,707,728,747,768,787,807,827,847,867,888,907,927,948,967,988,1007,1028,1048,1067,1087,1107,1128],"xSR":741.5,"ySR":494.65000000000003,"xT1":424.9,"yT1":0,"xT2":1058.1,"yT2":0,"toosoon":0,"cond_shown":"randomdotsizeEA","ratio_trial":900,"smaller_num":"18","larger_num":"20","correct_side":2,"subjID":"DylanLeonBedoya18","gender":"0","age":"11","school":"6"},{"start_time":1551794894302,"click_time":1551794895590,"finger_time":1551794895090,"fix_duration":250,"trial":37,"RT":788,"MT":500,"sideResp":2,"stimulus":"img/750/randomdotsizeEA/L/1_Ratio_750_L_20_R_15.png","xmouse":[794,794,794,794,794,794,794,794,794,794,794,794,794,794,794,794,794,794,794,794,794,794,794,794,794,794,794,794,794,794,794,794,794,794,794,794,794,794,795,802,809,823,827,833,842,861,898,919,938,956,983,994,1001,1008,1011,1019,1021,1026,1031,1036,1048,1051,1054,1057,1061],"ymouse":[506,506,506,506,506,506,506,506,506,506,506,506,506,506,506,506,506,506,506,506,506,506,506,506,506,506,506,506,506,506,506,506,506,506,506,506,506,505,497,475,451,416,400,381,360,324,265,238,221,205,178,165,155,148,142,131,126,118,106,97,82,79,75,72,71],"timestamp_mouse":[8,28,48,68,90,108,128,148,168,188,208,228,249,268,288,309,328,348,368,388,408,428,448,468,488,508,528,548,568,588,608,628,649,668,688,708,728,749,769,788,809,828,849,868,889,908,929,948,968,988,1009,1028,1048,1068,1088,1109,1128,1148,1168,1189,1209,1228,1248,1268,1288],"xSR":741.5,"ySR":494.65000000000003,"xT1":424.9,"yT1":0,"xT2":1058.1,"yT2":0,"toosoon":0,"cond_shown":"randomdotsizeEA","ratio_trial":750,"smaller_num":"15","larger_num":"20","correct_side":1,"subjID":"DylanLeonBedoya18","gender":"0","age":"11","school":"6"},{"start_time":1551794898957,"click_time":1551794899970,"finger_time":1551794899610,"fix_duration":525.3614541657656,"trial":38,"RT":653,"MT":360,"sideResp":2,"stimulus":"img/500/equaldotanddens/R/2_Ratio_500_L_3_R_6.png","xmouse":[798,798,798,798,798,798,798,798,798,798,798,798,798,798,798,798,798,798,798,798,798,798,798,798,798,798,798,798,798,798,798,798,798,812,839,874,912,949,986,986,986,986,986,986,986,986,986,986,986,986,1121],"ymouse":[554,554,554,554,554,554,554,554,554,554,554,554,554,554,554,554,554,554,554,554,554,554,554,554,554,554,554,554,554,554,554,550,487,413,311,194,105,49,8,8,8,8,8,8,8,8,8,8,8,8,3],"timestamp_mouse":[13,33,54,73,93,113,134,153,173,193,213,234,253,273,293,313,334,353,373,394,413,433,453,474,493,513,533,553,574,593,613,633,653,673,693,714,733,753,773,793,813,833,854,875,893,913,934,954,973,993,1013],"xSR":741.5,"ySR":494.65000000000003,"xT1":424.9,"yT1":0,"xT2":1058.1,"yT2":0,"toosoon":0,"cond_shown":"equaldotanddens","ratio_trial":500,"smaller_num":"3","larger_num":"6","correct_side":2,"subjID":"DylanLeonBedoya18","gender":"0","age":"11","school":"6"},{"start_time":1551794902418,"click_time":1551794903411,"finger_time":1551794902950,"fix_duration":1486.082517596258,"trial":39,"RT":532,"MT":461,"sideResp":2,"stimulus":"img/750/equaldotsize/R/5_Ratio_750_L_15_R_20.png","xmouse":[802,802,802,802,802,802,802,802,802,802,802,802,802,802,802,802,802,802,802,802,802,802,802,802,802,814,825,861,896,953,967,972,977,986,1018,1037,1057,1074,1084,1090,1095,1095,1095,1095,1095,1103,1108,1109,1111,1113],"ymouse":[509,509,509,509,509,509,509,509,509,509,509,509,509,509,509,509,509,509,509,509,509,509,509,509,509,496,482,442,404,377,373,373,371,369,347,327,299,267,244,226,194,189,183,175,161,131,119,111,103,89],"timestamp_mouse":[12,33,52,72,92,114,132,152,172,192,212,232,252,272,292,313,332,353,372,392,412,432,452,472,492,512,532,552,572,593,612,632,652,672,692,712,732,753,772,792,812,832,852,872,893,912,932,952,972,992],"xSR":741.5,"ySR":494.65000000000003,"xT1":424.9,"yT1":0,"xT2":1058.1,"yT2":0,"toosoon":0,"cond_shown":"equaldotsize","ratio_trial":750,"smaller_num":"15","larger_num":"20","correct_side":2,"subjID":"DylanLeonBedoya18","gender":"0","age":"11","school":"6"},{"start_time":1551794906369,"click_time":1551794907410,"finger_time":1551794907010,"fix_duration":837.3799623498023,"trial":40,"RT":641,"MT":400,"sideResp":2,"stimulus":"img/900/equaldotsize/L/2_Ratio_900_L_20_R_18.png","xmouse":[788,788,788,788,788,788,788,788,788,788,788,788,788,788,788,788,788,788,788,788,788,788,788,788,788,788,788,788,788,788,787,789,830,858,883,905,925,955,968,981,992,1001,1015,1019,1024,1026,1029,1035,1039,1044,1050,1056,1060],"ymouse":[536,536,536,536,536,536,536,536,536,536,536,536,536,536,536,536,536,536,536,536,536,536,536,536,536,536,536,536,536,536,533,525,415,353,294,243,197,127,106,90,78,72,63,61,59,59,59,59,59,61,64,66,67],"timestamp_mouse":[7,25,41,61,81,101,121,141,162,181,201,221,241,261,281,301,322,341,361,383,401,421,441,461,481,502,521,541,561,581,601,621,641,661,682,701,721,742,761,783,802,821,841,862,881,902,921,942,961,982,1002,1021,1041],"xSR":741.5,"ySR":494.65000000000003,"xT1":424.9,"yT1":0,"xT2":1058.1,"yT2":0,"toosoon":0,"cond_shown":"equaldotsize","ratio_trial":900,"smaller_num":"18","larger_num":"20","correct_side":1,"subjID":"DylanLeonBedoya18","gender":"0","age":"11","school":"6"},{"start_time":1551794912791,"click_time":1551794913790,"finger_time":1551794913290,"fix_duration":1199.2216854323754,"trial":41,"RT":499,"MT":500,"sideResp":1,"stimulus":"img/500/equaldotsize/L/13_Ratio_500_L_12_R_6.png","xmouse":[811,811,811,811,811,811,811,811,811,811,811,811,811,811,811,811,811,811,811,811,811,808,802,794,786,774,762,736,723,710,696,666,653,642,628,621,612,597,591,586,581,568,562,555,545,536,529,529,528,525,521],"ymouse":[559,559,559,559,559,559,559,559,559,559,559,559,559,559,559,559,559,559,559,559,559,556,542,525,504,481,449,390,356,326,300,243,221,201,183,172,162,143,135,130,125,114,109,103,94,87,82,82,81,80,78],"timestamp_mouse":[1,31,39,59,80,99,119,139,160,180,199,221,239,259,279,299,321,339,359,379,400,419,439,459,479,499,519,539,559,579,599,620,641,659,679,699,720,739,759,779,800,819,839,859,879,899,920,939,960,979,999],"xSR":741.5,"ySR":494.65000000000003,"xT1":424.9,"yT1":0,"xT2":1058.1,"yT2":0,"toosoon":0,"cond_shown":"equaldotsize","ratio_trial":500,"smaller_num":"6","larger_num":"12","correct_side":1,"subjID":"DylanLeonBedoya18","gender":"0","age":"11","school":"6"},{"start_time":1551794917201,"click_time":1551794918270,"finger_time":1551794917870,"fix_duration":1009.6179467292944,"trial":42,"RT":669,"MT":400,"sideResp":2,"stimulus":"img/250/randomdotsizeEA/R/8_Ratio_250_L_1_R_4.png","xmouse":[818,818,818,818,818,818,818,818,818,818,818,818,818,818,818,818,818,818,818,818,818,818,818,818,818,818,818,818,818,818,818,818,820,828,834,846,856,857,857,857,862,866,873,881,893,936,982,1037,1075,1100,1118,1118,1119,1119],"ymouse":[552,552,552,552,552,552,552,552,552,552,552,552,552,552,552,552,552,552,552,552,552,552,552,552,552,552,552,552,552,552,552,552,525,473,418,380,344,339,336,332,299,280,264,248,234,202,176,147,129,118,107,105,101,96],"timestamp_mouse":[10,30,49,69,89,109,129,150,170,189,209,230,250,269,289,310,329,349,369,389,409,430,450,469,489,510,531,549,569,589,609,629,649,669,690,710,729,750,769,789,809,829,849,869,889,910,929,949,969,990,1010,1029,1050,1069],"xSR":741.5,"ySR":494.65000000000003,"xT1":424.9,"yT1":0,"xT2":1058.1,"yT2":0,"toosoon":0,"cond_shown":"randomdotsizeEA","ratio_trial":250,"smaller_num":"1","larger_num":"4","correct_side":2,"subjID":"DylanLeonBedoya18","gender":"0","age":"11","school":"6"},{"start_time":1551794920229,"click_time":1551794921030,"finger_time":1551794920951,"fix_duration":797.4126142369281,"trial":43,"RT":722,"MT":79,"sideResp":1,"stimulus":"img/750/equaldotanddens/L/13_Ratio_750_L_8_R_6.png","xmouse":[781,781,781,781,781,781,781,781,781,781,781,781,781,781,781,781,781,781,781,781,781,781,781,781,781,781,781,781,781,781,781,781,781,781,778,750,703,657,580,472,443],"ymouse":[547,547,547,547,547,547,547,547,547,547,547,547,547,547,547,547,547,547,547,547,547,547,547,547,547,547,547,547,547,547,547,547,547,547,547,510,445,367,229,106,78],"timestamp_mouse":[7,26,42,61,81,101,121,142,162,181,201,222,241,261,281,301,321,341,361,381,401,421,442,461,481,501,521,541,562,582,601,621,641,663,681,702,722,742,761,782,801],"xSR":741.5,"ySR":494.65000000000003,"xT1":424.9,"yT1":0,"xT2":1058.1,"yT2":0,"toosoon":0,"cond_shown":"equaldotanddens","ratio_trial":750,"smaller_num":"6","larger_num":"8","correct_side":1,"subjID":"DylanLeonBedoya18","gender":"0","age":"11","school":"6"},{"start_time":1551794923645,"click_time":1551794924390,"finger_time":1551794924310,"fix_duration":433.09082302821275,"trial":44,"RT":665,"MT":80,"sideResp":2,"stimulus":"img/900/equaldotanddens/R/14_Ratio_900_L_18_R_20.png","xmouse":[810,810,810,810,810,810,810,810,810,810,810,810,810,810,810,810,810,810,810,810,810,810,810,810,810,810,810,810,810,810,810,814,820,845,940,998,1040,1074],"ymouse":[535,535,535,535,535,535,535,535,535,535,535,535,535,535,535,535,535,535,535,535,535,535,535,535,535,535,535,535,535,535,535,523,502,431,218,124,73,54],"timestamp_mouse":[7,29,45,66,85,105,127,145,165,185,205,225,246,265,285,305,325,345,366,385,406,425,445,465,485,505,525,545,565,585,605,626,645,665,685,706,726,745],"xSR":741.5,"ySR":494.65000000000003,"xT1":424.9,"yT1":0,"xT2":1058.1,"yT2":0,"toosoon":0,"cond_shown":"equaldotanddens","ratio_trial":900,"smaller_num":"18","larger_num":"20","correct_side":2,"subjID":"DylanLeonBedoya18","gender":"0","age":"11","school":"6"},{"start_time":1551794925734,"click_time":1551794927370,"finger_time":1551794926411,"fix_duration":522.1552128505077,"trial":45,"RT":677,"MT":959,"sideResp":1,"stimulus":"img/900/randomdotsizeEA/L/8_Ratio_900_L_20_R_18.png","xmouse":[809,809,809,809,809,809,809,809,809,809,808,808,808,808,808,808,808,808,808,808,808,808,808,808,808,808,808,808,808,808,808,808,808,769,710,652,605,574,551,547,544,542,540,538,538,538,538,538,538,537,536,533,529,522,518,516,516,516,516,516,516,516,516,516,516,516,516,516,516,516,516,516,516,516,516,516,516,516,516,514,514,514],"ymouse":[538,538,538,538,538,538,538,538,535,529,527,527,527,527,527,527,527,527,527,527,527,527,527,527,527,527,527,527,527,527,527,527,525,469,394,327,273,238,200,186,170,158,147,133,131,130,129,129,128,124,122,119,117,114,112,111,111,111,111,111,111,111,111,111,111,111,111,111,111,111,111,111,111,111,111,111,111,111,111,106,102,98],"timestamp_mouse":[24,37,57,77,96,116,136,156,177,196,217,237,257,276,297,317,337,357,376,398,417,437,457,476,496,517,537,557,577,597,616,637,656,677,696,717,737,757,777,796,817,837,858,877,897,917,937,956,976,996,1017,1037,1057,1077,1096,1117,1137,1158,1178,1197,1216,1237,1257,1277,1296,1317,1336,1357,1377,1396,1417,1437,1457,1478,1496,1517,1537,1556,1576,1597,1617,1636],"xSR":741.5,"ySR":494.65000000000003,"xT1":424.9,"yT1":0,"xT2":1058.1,"yT2":0,"toosoon":0,"cond_shown":"randomdotsizeEA","ratio_trial":900,"smaller_num":"18","larger_num":"20","correct_side":1,"subjID":"DylanLeonBedoya18","gender":"0","age":"11","school":"6"},{"start_time":1551794929552,"click_time":1551794930611,"finger_time":1551794930331,"fix_duration":1380.1766006388239,"trial":46,"RT":779,"MT":280,"sideResp":2,"stimulus":"img/900/equaldotsize/R/13_Ratio_900_L_18_R_20.png","xmouse":[790,790,790,790,790,790,790,790,790,790,790,790,790,790,790,790,790,790,790,790,790,790,790,790,790,790,790,790,790,790,790,790,790,790,790,790,792,800,810,831,872,886,924,946,948,948,948,948,948,953,960,985,1093],"ymouse":[519,519,519,519,518,518,518,518,518,518,518,518,518,518,518,518,518,518,518,518,518,518,518,518,518,518,518,518,518,518,518,518,518,518,518,518,517,500,478,442,373,349,287,252,249,248,248,248,247,238,220,178,30],"timestamp_mouse":[19,39,59,78,99,119,139,159,179,199,219,240,258,280,299,320,338,358,379,399,419,438,458,479,499,519,540,560,578,598,618,639,658,678,698,719,739,760,779,798,819,838,859,879,899,919,938,960,979,999,1018,1040,1059],"xSR":741.5,"ySR":494.65000000000003,"xT1":424.9,"yT1":0,"xT2":1058.1,"yT2":0,"toosoon":0,"cond_shown":"equaldotsize","ratio_trial":900,"smaller_num":"18","larger_num":"20","correct_side":2,"subjID":"DylanLeonBedoya18","gender":"0","age":"11","school":"6"},{"start_time":1551794932477,"click_time":1551794934071,"finger_time":1551794933611,"fix_duration":965.325251814103,"trial":47,"RT":1134,"MT":460,"sideResp":2,"stimulus":"img/750/randomdotsizeEA/R/4_Ratio_750_L_15_R_20.png","xmouse":[785,785,785,785,785,785,785,785,785,785,785,785,785,785,785,785,785,785,785,785,785,785,785,785,785,785,785,785,785,785,785,785,785,785,785,785,785,785,785,785,785,785,785,785,785,787,790,795,798,798,799,799,800,800,800,800,800,794,782,757,731,689,680,676,675,675,675,678,703,757,834,979,1008,1019,1023,1025,1028,1044,1055,1067],"ymouse":[561,561,561,561,561,561,561,561,561,561,561,561,561,561,561,561,561,561,561,561,561,561,561,561,561,561,561,561,561,561,561,561,561,561,561,561,561,561,561,561,561,561,561,561,560,552,537,522,518,517,516,513,513,513,513,511,479,417,338,256,189,118,106,100,98,98,98,95,86,72,57,35,28,25,23,21,18,11,9,9],"timestamp_mouse":[15,35,54,73,93,115,134,153,175,195,214,234,254,274,294,314,334,354,374,394,414,434,454,474,494,514,534,554,574,594,614,634,654,674,693,713,734,754,774,794,813,833,853,874,894,914,934,954,974,994,1014,1035,1055,1073,1093,1114,1134,1153,1174,1193,1214,1234,1253,1274,1294,1314,1335,1353,1373,1394,1413,1435,1453,1474,1494,1514,1534,1554,1573,1594],"xSR":741.5,"ySR":494.65000000000003,"xT1":424.9,"yT1":0,"xT2":1058.1,"yT2":0,"toosoon":0,"cond_shown":"randomdotsizeEA","ratio_trial":750,"smaller_num":"15","larger_num":"20","correct_side":2,"subjID":"DylanLeonBedoya18","gender":"0","age":"11","school":"6"},{"start_time":1551794936251,"click_time":1551794937630,"finger_time":1551794936871,"fix_duration":799.2905578725513,"trial":48,"RT":620,"MT":759,"sideResp":1,"stimulus":"img/750/equaldotsize/L/10_Ratio_750_L_4_R_3.png","xmouse":[834,834,834,834,834,834,834,834,834,834,834,834,834,834,834,834,834,834,834,834,834,834,834,834,834,834,834,834,834,834,835,847,863,893,900,905,909,910,914,916,917,917,917,917,917,917,917,906,824,756,654,524,419,358,353,353,353,354,370,383,398,415,431,460,474,484,488,491,495,486],"ymouse":[556,556,556,556,556,556,556,556,556,556,556,556,556,556,556,556,556,556,556,556,556,556,556,556,556,556,556,556,556,555,532,488,433,342,319,304,288,285,271,266,263,262,261,259,259,259,259,256,247,247,256,277,290,310,313,313,313,312,293,276,261,245,230,199,185,175,167,159,119,93],"timestamp_mouse":[1,28,40,60,80,100,120,139,159,179,200,220,240,260,279,300,320,339,359,379,399,419,440,460,480,499,520,540,561,580,600,620,640,660,679,699,719,740,760,779,799,820,839,860,880,900,920,941,960,980,999,1019,1040,1060,1079,1099,1120,1140,1160,1179,1199,1220,1240,1259,1281,1300,1320,1340,1360,1379],"xSR":741.5,"ySR":494.65000000000003,"xT1":424.9,"yT1":0,"xT2":1058.1,"yT2":0,"toosoon":0,"cond_shown":"equaldotsize","ratio_trial":750,"smaller_num":"3","larger_num":"4","correct_side":1,"subjID":"DylanLeonBedoya18","gender":"0","age":"11","school":"6"},{"start_time":1551794938862,"click_time":1551794941270,"finger_time":1551794938931,"fix_duration":250,"trial":49,"RT":69,"MT":2339,"sideResp":1,"stimulus":"img/500/randomdotsizeEA/L/10_Ratio_500_L_4_R_2.png","xmouse":[779,779,779,779,779,779,779,779,779,779,779,779,779,779,779,779,779,779,779,779,779,779,779,779,779,779,779,779,779,779,779,779,779,779,779,779,783,820,894,921,939,951,958,976,983,984,984,984,984,984,984,984,984,984,984,984,984,984,984,984,984,984,984,984,984,984,984,984,984,984,984,984,984,984,984,984,984,984,984,984,984,984,984,984,984,984,984,984,984,984,984,984,984,984,985,985,986,987,988,988,984,959,841,756,676,635,635,635,635,635,635,635,635,635,635,635,635,635,529,526,524],"ymouse":[499,499,497,488,483,481,481,479,479,479,479,479,479,479,479,479,479,479,479,479,479,479,479,479,479,479,479,479,479,479,479,479,479,479,479,478,465,411,320,292,277,270,267,261,260,259,259,259,259,259,259,259,259,259,259,259,259,259,259,259,259,259,259,259,259,259,259,259,259,259,259,260,260,260,260,260,260,260,260,260,260,260,260,260,260,260,260,260,260,260,260,260,260,260,262,262,263,263,263,263,261,248,159,96,29,0,0,0,0,0,0,0,0,0,0,0,0,0,12,17,20],"timestamp_mouse":[10,28,50,69,89,109,128,148,170,189,209,229,249,270,289,309,329,350,369,390,408,428,449,469,489,509,529,550,569,589,608,628,649,668,689,709,730,748,768,788,810,829,849,869,888,909,928,949,968,988,1008,1029,1050,1069,1088,1110,1129,1149,1169,1188,1208,1229,1249,1268,1289,1309,1329,1349,1368,1388,1408,1429,1450,1469,1488,1508,1529,1549,1569,1589,1610,1628,1650,1669,1689,1709,1730,1749,1768,1789,1809,1829,1850,1868,1888,1908,1928,1949,1968,1988,2009,2029,2049,2068,2089,2109,2129,2150,2169,2189,2209,2229,2248,2269,2289,2309,2330,2348,2369,2389,2408],"xSR":741.5,"ySR":494.65000000000003,"xT1":424.9,"yT1":0,"xT2":1058.1,"yT2":0,"toosoon":0,"cond_shown":"randomdotsizeEA","ratio_trial":500,"smaller_num":"2","larger_num":"4","correct_side":1,"subjID":"DylanLeonBedoya18","gender":"0","age":"11","school":"6"},{"start_time":1551794942716,"click_time":1551794943530,"finger_time":1551794943131,"fix_duration":384.0930085020577,"trial":50,"RT":415,"MT":399,"sideResp":1,"stimulus":"img/250/randomdotsizeEA/L/1_Ratio_250_L_8_R_2.png","xmouse":[766,766,777,779,793,801,803,805,807,807,808,809,810,810,811,814,818,822,826,835,839,842,846,850,866,869,871,871,871,872,872,869,857,852,787,741,690,639,586,548,511],"ymouse":[541,541,536,535,529,525,524,523,523,523,523,522,521,521,521,518,515,511,508,500,494,490,484,475,448,440,435,432,431,430,424,417,397,387,303,253,213,178,148,127,99],"timestamp_mouse":[27,34,55,75,95,115,135,155,174,195,215,235,254,276,295,314,335,355,374,395,415,435,455,475,495,514,535,555,574,594,614,634,654,674,695,714,734,755,775,795,814],"xSR":741.5,"ySR":494.65000000000003,"xT1":424.9,"yT1":0,"xT2":1058.1,"yT2":0,"toosoon":0,"cond_shown":"randomdotsizeEA","ratio_trial":250,"smaller_num":"2","larger_num":"8","correct_side":1,"subjID":"DylanLeonBedoya18","gender":"0","age":"11","school":"6"},{"start_time":1551794944762,"click_time":1551794945911,"finger_time":1551794945410,"fix_duration":310.4049795836872,"trial":51,"RT":648,"MT":501,"sideResp":2,"stimulus":"img/750/equaldotanddens/R/2_Ratio_750_L_6_R_8.png","xmouse":[833,833,833,833,833,833,833,833,833,833,833,833,833,833,833,833,833,833,833,833,833,833,833,833,833,833,833,833,832,832,836,841,885,915,951,986,1015,1057,1073,1083,1091,1099,1104,1104,1104,1104,1104,1106,1106,1108,1108,1108,1108,1108,1108,1107,1107,1103],"ymouse":[539,539,539,539,539,539,539,539,539,539,539,539,539,539,539,539,539,539,539,539,539,539,539,539,539,539,539,539,537,536,530,525,483,455,421,392,366,331,315,300,286,268,215,197,183,176,170,159,154,148,143,139,126,123,121,115,103,78],"timestamp_mouse":[15,28,49,68,88,108,129,149,169,188,208,228,249,269,290,309,328,348,368,388,409,429,449,469,489,508,528,548,569,588,609,629,648,668,690,708,728,748,769,788,808,829,849,868,888,909,929,949,968,989,1008,1029,1049,1068,1090,1109,1128,1149],"xSR":741.5,"ySR":494.65000000000003,"xT1":424.9,"yT1":0,"xT2":1058.1,"yT2":0,"toosoon":0,"cond_shown":"equaldotanddens","ratio_trial":750,"smaller_num":"6","larger_num":"8","correct_side":2,"subjID":"DylanLeonBedoya18","gender":"0","age":"11","school":"6"},{"start_time":1551794959320,"click_time":1551794960551,"finger_time":1551794960231,"fix_duration":328.3455390749598,"trial":52,"RT":911,"MT":320,"sideResp":1,"stimulus":"img/900/randomdotsizeEA/L/10_Ratio_900_L_20_R_18.png","xmouse":[817,817,817,817,817,817,817,817,817,817,817,817,817,817,817,817,817,817,817,817,817,817,817,817,817,817,817,817,817,817,817,817,817,821,824,835,838,838,838,838,838,838,838,838,836,811,763,696,614,524,418,404,404,404,404,404,404,404,404,404,410,433],"ymouse":[519,519,519,519,519,519,519,519,519,519,519,519,519,519,519,519,519,519,519,519,519,519,519,519,519,519,519,519,519,519,519,519,519,518,516,508,506,506,506,506,506,506,506,506,497,464,393,301,204,115,29,20,19,19,19,19,19,19,19,19,20,29],"timestamp_mouse":[10,38,51,71,91,110,130,150,171,191,211,230,250,270,291,312,330,350,370,390,411,431,450,470,490,511,531,551,571,590,610,630,651,671,690,711,730,751,771,791,810,830,850,870,891,911,930,951,971,991,1010,1031,1051,1070,1091,1110,1131,1151,1171,1192,1210,1231],"xSR":741.5,"ySR":494.65000000000003,"xT1":424.9,"yT1":0,"xT2":1058.1,"yT2":0,"toosoon":0,"cond_shown":"randomdotsizeEA","ratio_trial":900,"smaller_num":"18","larger_num":"20","correct_side":1,"subjID":"DylanLeonBedoya18","gender":"0","age":"11","school":"6"},{"start_time":1551794962000,"click_time":1551794962691,"finger_time":1551794962511,"fix_duration":608.6014587296506,"trial":53,"RT":511,"MT":180,"sideResp":1,"stimulus":"img/500/equaldotsize/L/10_Ratio_500_L_4_R_2.png","xmouse":[756,756,756,756,756,756,756,756,756,756,756,755,755,755,755,755,755,755,755,755,755,755,755,752,744,655,596,547,512,497,487,484,479,470,459],"ymouse":[516,516,516,516,516,516,516,516,516,519,524,525,526,526,526,526,526,526,526,526,526,526,526,517,497,332,258,214,190,179,161,152,136,117,96],"timestamp_mouse":[12,32,51,70,90,110,131,151,171,190,211,230,251,271,290,311,331,351,371,391,410,430,450,471,490,511,530,551,570,592,611,630,650,672,690],"xSR":741.5,"ySR":494.65000000000003,"xT1":424.9,"yT1":0,"xT2":1058.1,"yT2":0,"toosoon":0,"cond_shown":"equaldotsize","ratio_trial":500,"smaller_num":"2","larger_num":"4","correct_side":1,"subjID":"DylanLeonBedoya18","gender":"0","age":"11","school":"6"},{"start_time":1551794964313,"click_time":1551794965251,"finger_time":1551794964930,"fix_duration":680.6620666680168,"trial":54,"RT":617,"MT":321,"sideResp":1,"stimulus":"img/500/equaldotanddens/L/13_Ratio_500_L_12_R_6.png","xmouse":[770,770,770,770,770,770,770,770,770,770,770,770,770,770,770,770,770,770,770,770,770,770,770,770,770,770,770,770,770,761,732,689,642,598,525,517,510,508,506,502,497,493,488,487,487,489,493],"ymouse":[573,573,573,573,573,573,573,573,573,573,573,573,573,573,573,573,573,573,573,573,573,573,573,573,573,573,573,573,565,530,457,383,319,268,197,191,187,185,183,179,172,163,149,140,130,108,97],"timestamp_mouse":[30,37,57,77,97,118,138,158,178,197,218,238,258,279,298,319,337,359,378,397,417,437,457,478,498,518,537,557,578,598,617,638,657,677,699,717,738,758,777,798,817,838,858,877,897,918,938],"xSR":741.5,"ySR":494.65000000000003,"xT1":424.9,"yT1":0,"xT2":1058.1,"yT2":0,"toosoon":0,"cond_shown":"equaldotanddens","ratio_trial":500,"smaller_num":"6","larger_num":"12","correct_side":1,"subjID":"DylanLeonBedoya18","gender":"0","age":"11","school":"6"},{"start_time":1551794966971,"click_time":1551794968111,"finger_time":1551794967531,"fix_duration":859.0168664950606,"trial":55,"RT":560,"MT":580,"sideResp":1,"stimulus":"img/250/equaldotanddens/L/2_Ratio_250_L_16_R_4.png","xmouse":[820,820,820,820,820,820,820,820,820,820,820,820,820,820,820,820,820,820,820,820,820,820,820,820,820,820,817,814,794,774,751,713,672,660,650,644,638,627,619,610,595,578,566,544,541,538,537,533,531,531,530,529,527,525,522,519,516,510],"ymouse":[528,528,528,528,528,528,528,528,528,528,528,528,528,528,528,528,528,528,528,528,528,528,528,528,528,528,516,508,446,403,358,298,253,239,230,224,218,208,201,195,185,174,166,151,147,143,141,133,130,127,126,123,118,114,111,107,104,98],"timestamp_mouse":[1,19,40,60,81,100,120,141,159,179,200,220,240,259,279,300,319,340,359,379,400,420,440,461,480,500,520,540,560,579,601,621,640,660,679,699,719,740,759,779,799,819,840,860,880,899,919,939,959,979,999,1020,1039,1059,1079,1099,1119,1139],"xSR":741.5,"ySR":494.65000000000003,"xT1":424.9,"yT1":0,"xT2":1058.1,"yT2":0,"toosoon":0,"cond_shown":"equaldotanddens","ratio_trial":250,"smaller_num":"4","larger_num":"16","correct_side":1,"subjID":"DylanLeonBedoya18","gender":"0","age":"11","school":"6"},{"start_time":1551794970073,"click_time":1551794971010,"finger_time":1551794970610,"fix_duration":560.3779654993631,"trial":56,"RT":537,"MT":400,"sideResp":2,"stimulus":"img/500/equaldotsize/R/1_Ratio_500_L_9_R_18.png","xmouse":[783,783,783,783,783,783,783,783,783,783,783,783,783,783,783,783,783,783,783,783,783,783,783,783,783,789,849,904,943,966,981,990,991,993,994,996,998,1002,1013,1038,1077,1135,1144,1146,1146,1147,1147],"ymouse":[521,521,521,521,521,521,521,521,521,521,521,521,521,521,521,521,521,521,521,521,521,521,521,521,521,516,429,350,300,274,261,245,240,235,232,227,219,209,196,174,146,113,108,106,104,100,92],"timestamp_mouse":[17,37,57,78,98,118,138,157,177,198,218,238,258,277,297,318,338,359,378,398,419,437,458,478,497,517,537,557,577,597,617,637,657,678,697,718,737,757,778,797,817,837,857,877,897,918,937],"xSR":741.5,"ySR":494.65000000000003,"xT1":424.9,"yT1":0,"xT2":1058.1,"yT2":0,"toosoon":0,"cond_shown":"equaldotsize","ratio_trial":500,"smaller_num":"9","larger_num":"18","correct_side":2,"subjID":"DylanLeonBedoya18","gender":"0","age":"11","school":"6"},{"start_time":1551794972875,"click_time":1551794973650,"finger_time":1551794973511,"fix_duration":1083.0226172196838,"trial":57,"RT":636,"MT":139,"sideResp":2,"stimulus":"img/500/equaldotanddens/R/14_Ratio_500_L_5_R_10.png","xmouse":[813,813,813,813,813,813,813,813,813,813,813,813,813,813,813,813,813,813,813,813,813,813,813,813,813,813,813,813,813,813,815,866,917,975,1030,1078,1117,1146,1156],"ymouse":[548,548,548,548,548,548,548,548,548,548,548,548,548,548,548,548,548,548,548,548,548,548,548,548,548,548,548,548,548,548,548,470,392,313,239,182,138,103,88],"timestamp_mouse":[16,36,55,75,95,115,135,155,176,196,216,235,256,276,295,316,336,355,375,395,416,436,455,476,496,516,536,556,576,595,616,636,655,676,695,717,735,755,775],"xSR":741.5,"ySR":494.65000000000003,"xT1":424.9,"yT1":0,"xT2":1058.1,"yT2":0,"toosoon":0,"cond_shown":"equaldotanddens","ratio_trial":500,"smaller_num":"5","larger_num":"10","correct_side":2,"subjID":"DylanLeonBedoya18","gender":"0","age":"11","school":"6"},{"start_time":1551794975318,"click_time":1551794976790,"finger_time":1551794975991,"fix_duration":745.1140156670905,"trial":58,"RT":673,"MT":799,"sideResp":2,"stimulus":"img/500/randomdotsizeEA/R/6_Ratio_500_L_9_R_18.png","xmouse":[801,801,801,801,801,801,801,801,801,801,801,801,801,801,801,801,801,801,801,801,801,801,801,801,801,801,801,801,801,801,801,793,770,747,710,702,699,696,694,675,664,651,643,636,632,633,640,649,669,747,788,832,868,894,919,931,946,959,977,1005,1013,1019,1021,1023,1030,1034,1037,1040,1042,1047,1050,1055,1059,1063],"ymouse":[556,556,556,556,556,556,556,556,556,556,556,556,556,556,556,556,556,556,556,556,556,556,556,556,556,556,556,556,556,556,549,539,510,484,454,448,446,443,440,412,391,370,349,328,278,265,255,247,238,212,205,198,193,190,177,169,158,150,140,125,121,119,118,117,114,112,110,109,108,105,105,102,100,98],"timestamp_mouse":[12,33,53,72,92,112,133,153,173,193,212,232,252,273,292,313,333,354,372,392,412,433,453,473,493,513,533,553,572,592,612,632,652,673,693,713,732,752,772,793,813,833,852,872,892,912,932,953,972,993,1012,1032,1052,1073,1093,1113,1133,1152,1172,1193,1212,1232,1253,1274,1293,1312,1333,1352,1372,1393,1413,1433,1452,1472],"xSR":741.5,"ySR":494.65000000000003,"xT1":424.9,"yT1":0,"xT2":1058.1,"yT2":0,"toosoon":0,"cond_shown":"randomdotsizeEA","ratio_trial":500,"smaller_num":"9","larger_num":"18","correct_side":2,"subjID":"DylanLeonBedoya18","gender":"0","age":"11","school":"6"},{"start_time":1551794979011,"click_time":1551794979930,"finger_time":1551794979512,"fix_duration":538.011719595584,"trial":59,"RT":501,"MT":418,"sideResp":2,"stimulus":"img/250/equaldotsize/R/12_Ratio_250_L_5_R_20.png","xmouse":[829,829,829,829,829,829,829,829,829,829,829,829,829,829,829,829,829,829,829,829,829,829,829,829,830,850,880,913,951,989,1026,1026,1026,1026,1026,1026,1026,1026,1026,1026,1026,1026,1026,1026,1026,1026,1103],"ymouse":[539,539,539,539,539,539,536,534,532,529,528,528,528,528,528,528,528,528,528,528,528,528,528,528,524,464,381,286,179,95,21,21,21,21,21,21,21,21,21,21,21,21,21,21,21,21,3],"timestamp_mouse":[7,30,41,59,79,99,119,139,159,180,200,220,240,260,279,300,321,340,360,380,399,421,439,459,479,501,519,540,559,579,599,620,640,660,679,701,720,739,759,779,800,820,839,859,879,900,919],"xSR":741.5,"ySR":494.65000000000003,"xT1":424.9,"yT1":0,"xT2":1058.1,"yT2":0,"toosoon":0,"cond_shown":"equaldotsize","ratio_trial":250,"smaller_num":"5","larger_num":"20","correct_side":2,"subjID":"DylanLeonBedoya18","gender":"0","age":"11","school":"6"},{"start_time":1551794982563,"click_time":1551794983351,"finger_time":1551794983170,"fix_duration":250,"trial":60,"RT":607,"MT":181,"sideResp":2,"stimulus":"img/250/equaldotanddens/R/11_Ratio_250_L_3_R_12.png","xmouse":[832,832,832,832,832,832,832,832,832,832,832,832,832,832,832,832,832,832,832,832,832,832,832,832,832,832,832,832,832,837,854,903,988,1022,1034,1038,1038,1041,1048,1061],"ymouse":[537,537,537,537,537,537,537,537,537,537,537,537,537,537,537,537,537,537,537,537,537,537,537,537,537,537,537,537,537,522,486,333,174,130,114,108,105,94,84,71],"timestamp_mouse":[8,28,49,67,87,107,128,149,168,187,207,228,248,268,287,308,327,348,368,387,407,427,448,468,488,509,528,548,567,588,607,627,647,667,687,707,727,749,767,788],"xSR":741.5,"ySR":494.65000000000003,"xT1":424.9,"yT1":0,"xT2":1058.1,"yT2":0,"toosoon":0,"cond_shown":"equaldotanddens","ratio_trial":250,"smaller_num":"3","larger_num":"12","correct_side":2,"subjID":"DylanLeonBedoya18","gender":"0","age":"11","school":"6"},{"start_time":1551794984442,"click_time":1551794984930,"finger_time":1551794984830,"fix_duration":250,"trial":61,"RT":388,"MT":100,"sideResp":2,"stimulus":"img/750/equaldotanddens/L/9_Ratio_750_L_4_R_3.png","xmouse":[769,769,769,769,769,769,769,769,769,769,769,769,769,769,769,769,769,769,774,835,901,969,1031,1101,1110],"ymouse":[500,500,500,500,500,500,500,500,500,500,500,500,500,500,500,500,500,500,496,417,324,234,166,102,94],"timestamp_mouse":[9,31,49,68,90,109,128,148,168,189,209,229,248,269,290,308,329,349,368,388,409,428,448,469,488],"xSR":741.5,"ySR":494.65000000000003,"xT1":424.9,"yT1":0,"xT2":1058.1,"yT2":0,"toosoon":0,"cond_shown":"equaldotanddens","ratio_trial":750,"smaller_num":"3","larger_num":"4","correct_side":1,"subjID":"DylanLeonBedoya18","gender":"0","age":"11","school":"6"},{"start_time":1551794987331,"click_time":1551794988232,"finger_time":1551794987911,"fix_duration":799.2175521699654,"trial":62,"RT":580,"MT":321,"sideResp":1,"stimulus":"img/900/equaldotanddens/L/2_Ratio_900_L_20_R_18.png","xmouse":[831,831,831,831,831,831,827,825,825,825,825,825,825,825,825,825,825,825,825,825,825,825,825,825,825,825,825,825,823,814,800,780,755,731,694,683,670,653,636,615,574,550,531,517,500,494],"ymouse":[506,506,506,506,506,506,511,511,512,512,512,512,512,512,512,512,512,512,512,512,512,512,512,512,512,512,512,512,512,484,447,401,354,314,260,246,237,227,217,206,178,164,150,138,107,91],"timestamp_mouse":[6,27,41,60,80,99,120,140,160,181,200,219,240,259,280,301,321,341,359,380,400,420,440,461,481,499,520,540,560,580,600,620,640,660,679,700,719,740,759,780,799,820,840,859,880,900],"xSR":741.5,"ySR":494.65000000000003,"xT1":424.9,"yT1":0,"xT2":1058.1,"yT2":0,"toosoon":0,"cond_shown":"equaldotanddens","ratio_trial":900,"smaller_num":"18","larger_num":"20","correct_side":1,"subjID":"DylanLeonBedoya18","gender":"0","age":"11","school":"6"},{"start_time":1551794990783,"click_time":1551794991751,"finger_time":1551794991411,"fix_duration":250,"trial":63,"RT":628,"MT":340,"sideResp":2,"stimulus":"img/500/equaldotsize/R/6_Ratio_500_L_9_R_18.png","xmouse":[825,825,825,825,825,825,825,825,825,825,825,825,825,825,825,825,825,825,825,825,825,825,825,825,825,825,825,825,825,827,839,874,948,990,1032,1074,1101,1107,1113,1121,1125,1128,1135,1137,1137,1137,1134,1131,1126],"ymouse":[582,582,582,582,582,582,582,582,582,582,582,582,582,582,582,582,582,582,582,582,582,582,582,582,582,582,582,582,582,578,562,508,404,356,312,266,223,209,194,179,169,161,145,137,129,122,109,100,90],"timestamp_mouse":[12,29,48,68,88,109,128,147,167,188,208,229,247,268,288,308,328,348,368,388,408,428,448,467,487,508,528,548,568,588,608,628,648,668,688,708,728,748,768,788,808,828,848,868,888,908,928,948,968],"xSR":741.5,"ySR":494.65000000000003,"xT1":424.9,"yT1":0,"xT2":1058.1,"yT2":0,"toosoon":0,"cond_shown":"equaldotsize","ratio_trial":500,"smaller_num":"9","larger_num":"18","correct_side":2,"subjID":"DylanLeonBedoya18","gender":"0","age":"11","school":"6"},{"start_time":1551794994597,"click_time":1551794995412,"finger_time":1551794995130,"fix_duration":1445.2839024732311,"trial":64,"RT":533,"MT":282,"sideResp":2,"stimulus":"img/250/equaldotsize/R/6_Ratio_250_L_6_R_24.png","xmouse":[831,831,831,831,831,831,831,831,831,831,831,831,831,831,831,831,831,831,831,831,831,831,831,831,831,831,843,859,897,930,993,1010,1018,1023,1026,1036,1040,1040,1043,1044,1062],"ymouse":[562,562,562,562,562,562,562,562,562,562,562,562,562,562,562,562,562,562,562,562,562,562,562,562,562,562,526,490,409,333,181,141,117,97,80,53,42,36,31,29,21],"timestamp_mouse":[24,34,54,74,93,113,134,154,174,194,213,233,254,274,294,315,334,354,373,394,414,434,454,474,494,514,533,554,573,594,614,634,655,674,693,714,734,754,773,793,815],"xSR":741.5,"ySR":494.65000000000003,"xT1":424.9,"yT1":0,"xT2":1058.1,"yT2":0,"toosoon":0,"cond_shown":"equaldotsize","ratio_trial":250,"smaller_num":"6","larger_num":"24","correct_side":2,"subjID":"DylanLeonBedoya18","gender":"0","age":"11","school":"6"},{"start_time":1551794997517,"click_time":1551794998391,"finger_time":1551794998090,"fix_duration":746.1044628404386,"trial":65,"RT":573,"MT":301,"sideResp":1,"stimulus":"img/250/randomdotsizeEA/L/5_Ratio_250_L_24_R_6.png","xmouse":[782,782,782,782,782,782,782,782,782,782,782,782,782,782,782,782,782,782,782,782,782,782,782,782,782,782,782,782,759,684,620,561,539,539,539,539,539,539,539,539,539,539,539,493],"ymouse":[508,508,508,508,508,508,508,508,508,508,508,508,508,508,508,508,508,508,508,508,508,508,508,508,508,508,508,508,456,272,142,38,5,5,5,5,5,5,5,5,5,5,5,16],"timestamp_mouse":[24,34,54,74,94,115,134,154,174,194,213,234,254,274,294,314,335,354,374,393,415,434,454,473,493,514,535,554,573,594,613,634,654,674,695,714,733,754,775,794,813,833,853,873],"xSR":741.5,"ySR":494.65000000000003,"xT1":424.9,"yT1":0,"xT2":1058.1,"yT2":0,"toosoon":0,"cond_shown":"randomdotsizeEA","ratio_trial":250,"smaller_num":"6","larger_num":"24","correct_side":1,"subjID":"DylanLeonBedoya18","gender":"0","age":"11","school":"6"},{"start_time":1551794999722,"click_time":1551795000691,"finger_time":1551795000291,"fix_duration":250,"trial":66,"RT":569,"MT":400,"sideResp":2,"stimulus":"img/900/equaldotsize/L/4_Ratio_900_L_20_R_18.png","xmouse":[777,777,777,777,777,777,777,777,777,777,777,777,777,777,777,777,777,777,777,777,777,777,777,777,777,777,777,777,777,760,734,701,659,619,563,560,560,560,560,560,561,567,592,643,853,932,995,1041,1072],"ymouse":[502,502,502,502,502,502,502,502,502,502,502,502,502,502,502,502,502,502,502,502,502,502,502,502,502,502,502,502,494,452,385,312,231,159,83,80,79,79,79,79,78,75,66,52,12,12,12,12,11],"timestamp_mouse":[9,36,49,69,89,109,129,148,169,189,209,229,249,269,289,309,329,349,368,388,410,429,449,469,488,509,529,550,569,590,608,629,648,669,689,708,729,749,769,790,809,828,848,869,890,909,929,949,968],"xSR":741.5,"ySR":494.65000000000003,"xT1":424.9,"yT1":0,"xT2":1058.1,"yT2":0,"toosoon":0,"cond_shown":"equaldotsize","ratio_trial":900,"smaller_num":"18","larger_num":"20","correct_side":1,"subjID":"DylanLeonBedoya18","gender":"0","age":"11","school":"6"},{"start_time":1551795002631,"click_time":1551795003591,"finger_time":1551795003231,"fix_duration":278.4534164604382,"trial":67,"RT":600,"MT":360,"sideResp":1,"stimulus":"img/750/randomdotsizeEA/R/5_Ratio_750_L_15_R_20.png","xmouse":[770,770,770,770,770,770,770,770,770,770,770,770,770,770,770,770,770,770,770,770,770,770,770,770,770,770,770,770,769,756,732,707,677,650,606,587,573,564,555,544,542,540,540,540,538,535,531,526,523],"ymouse":[564,564,564,564,564,564,564,564,564,564,564,564,564,564,564,564,564,564,564,564,564,564,564,564,564,564,564,564,560,495,430,383,359,347,327,319,309,297,281,247,232,213,192,170,129,110,95,84,78],"timestamp_mouse":[7,26,39,60,80,100,120,139,159,180,200,220,240,260,279,301,320,340,360,379,399,420,439,459,480,501,520,540,560,579,600,620,639,660,680,699,720,739,760,780,800,819,840,859,880,900,920,940,960],"xSR":741.5,"ySR":494.65000000000003,"xT1":424.9,"yT1":0,"xT2":1058.1,"yT2":0,"toosoon":0,"cond_shown":"randomdotsizeEA","ratio_trial":750,"smaller_num":"15","larger_num":"20","correct_side":2,"subjID":"DylanLeonBedoya18","gender":"0","age":"11","school":"6"},{"start_time":1551795004628,"click_time":1551795005991,"finger_time":1551795005591,"fix_duration":315.99660244301174,"trial":68,"RT":963,"MT":400,"sideResp":2,"stimulus":"img/750/equaldotanddens/R/12_Ratio_750_L_3_R_4.png","xmouse":[836,836,836,836,836,836,836,836,836,836,836,836,836,836,836,836,836,836,836,836,836,836,836,836,836,836,836,836,836,836,836,837,837,837,837,837,837,837,837,837,837,837,837,837,837,837,837,839,844,851,858,860,863,871,898,925,962,998,1030,1069,1077,1082,1086,1089,1096,1098,1103,1107,1112],"ymouse":[518,518,518,518,518,518,518,518,518,518,518,518,518,518,518,518,518,518,518,518,518,518,518,518,518,518,518,518,518,518,518,517,516,516,516,516,516,516,516,516,516,516,516,516,516,516,514,508,494,481,463,459,454,440,397,358,306,256,219,174,163,156,148,143,130,124,112,101,88],"timestamp_mouse":[8,28,43,63,83,103,123,143,163,183,202,222,243,263,283,302,323,343,363,383,403,423,443,462,483,503,523,543,563,582,603,622,643,663,683,704,723,744,762,782,803,822,843,863,883,904,923,942,963,983,1003,1023,1043,1062,1083,1102,1122,1142,1163,1183,1203,1223,1243,1262,1282,1304,1324,1342,1362],"xSR":741.5,"ySR":494.65000000000003,"xT1":424.9,"yT1":0,"xT2":1058.1,"yT2":0,"toosoon":0,"cond_shown":"equaldotanddens","ratio_trial":750,"smaller_num":"3","larger_num":"4","correct_side":2,"subjID":"DylanLeonBedoya18","gender":"0","age":"11","school":"6"},{"start_time":1551795007407,"click_time":1551795008831,"finger_time":1551795008071,"fix_duration":595.7294402762939,"trial":69,"RT":664,"MT":760,"sideResp":2,"stimulus":"img/900/randomdotsizeEA/L/8_Ratio_900_L_20_R_18.png","xmouse":[806,806,806,806,806,806,806,806,806,806,806,806,806,806,806,806,806,806,806,806,807,808,808,808,808,808,808,808,808,808,808,808,810,816,832,871,895,916,942,962,1020,1040,1055,1070,1076,1080,1084,1085,1085,1086,1088,1090,1090,1090,1090,1090,1090,1090,1091,1091,1092,1092,1094,1096,1097,1098,1098,1099,1100,1101,1102,1103],"ymouse":[540,540,540,540,540,540,540,540,540,540,540,540,540,540,540,540,540,540,539,533,524,514,514,514,514,514,514,514,514,514,514,514,504,462,390,269,233,211,190,177,144,135,129,123,120,118,115,115,114,114,112,111,111,111,111,111,111,111,110,110,109,108,107,105,104,103,102,102,101,100,100,98],"timestamp_mouse":[7,34,44,64,84,104,123,144,165,183,204,224,244,264,284,303,324,344,364,383,404,424,444,464,484,503,523,543,563,584,604,624,643,664,683,705,724,744,764,784,804,824,843,864,883,903,923,944,963,984,1004,1023,1043,1064,1084,1104,1124,1144,1163,1183,1204,1224,1244,1264,1284,1305,1324,1344,1363,1384,1404,1423],"xSR":741.5,"ySR":494.65000000000003,"xT1":424.9,"yT1":0,"xT2":1058.1,"yT2":0,"toosoon":0,"cond_shown":"randomdotsizeEA","ratio_trial":900,"smaller_num":"18","larger_num":"20","correct_side":1,"subjID":"DylanLeonBedoya18","gender":"0","age":"11","school":"6"},{"start_time":1551795011588,"click_time":1551795012351,"finger_time":1551795012090,"fix_duration":1035.1107499517889,"trial":70,"RT":502,"MT":261,"sideResp":2,"stimulus":"img/250/equaldotsize/R/9_Ratio_250_L_3_R_12.png","xmouse":[784,784,784,784,784,784,784,784,784,784,784,784,784,784,784,784,784,784,784,784,784,784,784,791,807,863,992,1038,1069,1087,1098,1111,1114,1118,1120,1121,1122,1122,1122],"ymouse":[538,538,538,538,538,538,538,538,538,538,538,538,538,538,538,538,538,538,538,538,538,538,538,531,513,446,308,259,228,209,195,172,163,151,141,128,121,107,98],"timestamp_mouse":[6,35,43,63,83,103,123,143,163,183,202,222,243,263,283,302,323,343,363,382,403,423,443,463,483,502,523,542,563,582,603,623,643,662,682,703,723,742,762],"xSR":741.5,"ySR":494.65000000000003,"xT1":424.9,"yT1":0,"xT2":1058.1,"yT2":0,"toosoon":0,"cond_shown":"equaldotsize","ratio_trial":250,"smaller_num":"3","larger_num":"12","correct_side":2,"subjID":"DylanLeonBedoya18","gender":"0","age":"11","school":"6"},{"start_time":1551795015375,"click_time":1551795016090,"finger_time":1551795015970,"fix_duration":761.1864802338305,"trial":71,"RT":595,"MT":120,"sideResp":2,"stimulus":"img/900/equaldotanddens/L/1_Ratio_900_L_10_R_9.png","xmouse":[798,798,798,798,798,798,798,798,798,798,798,798,798,798,798,798,798,798,798,798,798,798,798,798,798,798,798,799,806,834,866,960,1004,1042,1072,1090],"ymouse":[532,532,532,532,532,532,532,532,532,532,532,532,532,532,532,532,532,532,532,532,532,532,532,532,532,532,532,532,523,468,405,257,201,151,105,80],"timestamp_mouse":[16,36,56,76,95,116,135,156,176,196,217,236,256,276,296,317,336,355,375,397,416,436,457,475,496,516,536,556,576,595,616,636,656,676,695,715],"xSR":741.5,"ySR":494.65000000000003,"xT1":424.9,"yT1":0,"xT2":1058.1,"yT2":0,"toosoon":0,"cond_shown":"equaldotanddens","ratio_trial":900,"smaller_num":"9","larger_num":"10","correct_side":1,"subjID":"DylanLeonBedoya18","gender":"0","age":"11","school":"6"},{"start_time":1551795017969,"click_time":1551795018812,"finger_time":1551795018711,"fix_duration":257.22886993356843,"trial":72,"RT":742,"MT":101,"sideResp":2,"stimulus":"img/500/randomdotsizeEA/R/3_Ratio_500_L_10_R_20.png","xmouse":[793,793,793,793,793,793,793,793,793,793,793,793,793,793,793,793,793,793,793,793,793,793,793,793,793,793,793,795,797,798,798,798,798,798,798,798,800,818,857,908,961,1017,1098],"ymouse":[518,516,516,516,516,516,516,516,516,516,516,516,516,516,516,516,516,516,516,516,516,516,516,516,516,516,516,515,516,516,516,516,516,516,516,516,516,477,406,330,256,187,86],"timestamp_mouse":[2,26,43,62,81,102,122,142,162,182,201,223,241,262,282,302,322,342,362,383,401,423,441,462,482,502,522,542,562,583,601,622,642,661,682,702,722,742,761,781,801,821,842],"xSR":741.5,"ySR":494.65000000000003,"xT1":424.9,"yT1":0,"xT2":1058.1,"yT2":0,"toosoon":0,"cond_shown":"randomdotsizeEA","ratio_trial":500,"smaller_num":"10","larger_num":"20","correct_side":2,"subjID":"DylanLeonBedoya18","gender":"0","age":"11","school":"6"},{"start_time":1551795022073,"click_time":1551795023130,"finger_time":1551795022670,"fix_duration":560.7707441793738,"trial":73,"RT":597,"MT":460,"sideResp":1,"stimulus":"img/500/randomdotsizeEA/L/5_Ratio_500_L_4_R_2.png","xmouse":[786,786,786,786,786,786,786,786,786,786,786,786,786,786,786,786,786,786,786,786,786,786,786,786,786,786,786,784,755,697,603,414,341,314,314,314,314,314,314,314,314,314,322,338,350,360,369,380,390,402,412,421,438],"ymouse":[561,561,561,561,561,561,561,561,561,561,561,561,561,561,561,561,561,561,561,561,561,561,561,561,561,561,561,552,501,409,297,99,33,15,15,15,15,15,15,15,15,15,3,11,17,22,29,35,39,45,49,53,61],"timestamp_mouse":[18,38,58,78,98,118,138,158,178,199,218