[{"start_time":1551793949692,"click_time":1551793952439,"finger_time":1551793951918,"fix_duration":848.2668564756668,"trial":0,"RT":2226,"MT":521,"sideResp":1,"stimulus":[],"xmouse":[815,815,815,815,815,815,815,815,815,815,815,815,815,815,815,815,815,815,815,815,815,815,815,815,815,815,815,815,815,815,815,815,815,815,815,815,815,815,815,815,815,815,815,815,815,815,815,815,815,815,815,815,815,815,815,815,815,815,815,815,815,815,815,815,815,815,815,815,815,815,815,815,815,815,815,815,815,815,815,815,815,815,815,815,815,815,815,815,815,815,815,815,815,815,815,815,815,815,815,815,815,815,815,815,815,815,815,815,810,796,780,737,716,696,680,671,670,666,659,649,623,610,598,588,581,576,573,572,570,569,562,559,553,547,541,521,511,507],"ymouse":[521,521,521,521,521,521,521,521,521,521,521,521,521,521,521,521,521,521,521,521,521,521,521,521,521,521,521,521,521,521,521,521,521,521,521,521,521,521,521,521,521,521,521,521,521,521,521,521,521,521,521,521,521,521,521,521,521,521,521,521,521,521,521,521,521,521,521,521,521,521,521,521,521,521,521,521,521,521,521,521,521,521,521,521,521,521,521,521,521,521,521,521,521,521,521,521,521,521,521,521,521,521,521,521,521,521,521,521,520,511,501,476,465,454,443,436,433,423,408,390,345,323,302,279,260,230,216,207,197,188,171,162,151,142,133,111,102,98],"timestamp_mouse":[6,40,47,67,86,106,126,147,166,187,206,226,247,267,286,306,327,347,366,386,407,427,446,466,487,507,527,546,568,587,607,626,648,667,686,706,726,747,766,786,806,826,847,867,886,906,926,947,966,986,1008,1026,1046,1067,1086,1106,1128,1147,1167,1187,1206,1226,1246,1266,1286,1306,1326,1346,1367,1387,1407,1427,1446,1466,1487,1506,1526,1547,1567,1586,1606,1626,1646,1666,1686,1706,1726,1746,1766,1788,1806,1826,1847,1867,1887,1907,1926,1946,1967,1987,2007,2027,2047,2067,2086,2107,2127,2146,2166,2186,2206,2226,2246,2266,2286,2306,2326,2347,2366,2386,2407,2426,2446,2467,2486,2507,2526,2547,2566,2587,2606,2626,2646,2666,2686,2707,2726,2747],"xSR":741.5,"ySR":494.65000000000003,"xT1":424.9,"yT1":0,"xT2":1058.1,"yT2":0,"toosoon":0,"cond_shown":"Congruent","ratio_trial":100,"L_num":2,"L_den":5,"R_num":6,"R_den":12,"correct_side":2,"subjID":"DylanLeonBedoya18","gender":"0","age":"11","school":"6","test":{"fix_dur":[250,1500],"timestim":1000,"targets_dim":[100,100],"targets_relative_coord":[0.3,0.7],"size_stim":[880,420],"start_dim":[100,100],"size_start":[300,300],"size_fix":60,"samplingrate":20,"img_types":["Congruent","Incongruent"],"ratios":[100,200,300],"rep_conds":19,"nTrials":120,"trials_to_rest":500,"Trials_order":[114,1,20,3,108,104,88,46,75,62,65,27,57,113,22,110,90,92,86,83,60,15,103,100,13,18,64,36,95,89,102,115,21,59,77,16,42,78,117,111,67,79,9,80,99,38,97,49,106,0,101,105,19,109,28,61,53,82,48,24,8,71,74,7,118,87,81,26,12,85,63,32,10,72,25,43,66,39,68,96,70,5,69,116,4,76,51,31,45,91,58,35,98,54,6,34,30,33,2,50,94,107,55,37,73,14,84,17,29,56,41,47,44,40,112,11,52,93,23,119],"cond_shown":["Congruent","Incongruent","Congruent","Incongruent","Congruent","Congruent","Congruent","Congruent","Incongruent","Congruent","Incongruent","Incongruent","Incongruent","Incongruent","Congruent","Congruent","Congruent","Congruent","Congruent","Incongruent","Congruent","Incongruent","Incongruent","Congruent","Incongruent","Congruent","Congruent","Congruent","Incongruent","Incongruent","Congruent","Incongruent","Incongruent","Incongruent","Incongruent","Congruent","Congruent","Congruent","Incongruent","Incongruent","Incongruent","Incongruent","Incongruent","Congruent","Incongruent","Congruent","Incongruent","Incongruent","Congruent","Congruent","Incongruent","Incongruent","Incongruent","Incongruent","Congruent","Incongruent","Incongruent","Congruent","Congruent","Congruent","Congruent","Incongruent","Congruent","Incongruent","Congruent","Incongruent","Incongruent","Congruent","Congruent","Incongruent","Incongruent","Congruent","Congruent","Congruent","Incongruent","Incongruent","Congruent","Incongruent","Congruent","Congruent","Congruent","Incongruent","Incongruent","Congruent","Congruent","Congruent","Incongruent","Incongruent","Incongruent","Incongruent","Congruent","Incongruent","Congruent","Congruent","Congruent","Congruent","Congruent","Incongruent","Congruent","Congruent","Congruent","Incongruent","Incongruent","Incongruent","Incongruent","Congruent","Congruent","Incongruent","Incongruent","Congruent","Incongruent","Incongruent","Congruent","Congruent","Congruent","Incongruent","Congruent","Incongruent","Incongruent","Incongruent"],"ratio_trial":[100,100,200,200,100,200,300,300,200,200,300,200,200,300,300,200,100,200,200,300,100,200,100,300,100,100,300,100,300,300,100,100,200,300,300,300,100,100,200,200,100,100,200,200,200,200,100,100,300,100,300,200,100,100,300,100,300,300,100,100,200,300,200,100,300,200,200,200,100,100,200,200,300,100,100,100,100,200,200,100,300,300,200,200,300,300,200,100,200,100,300,300,200,100,100,300,100,200,200,200,300,300,100,100,100,200,100,300,300,200,300,300,200,300,300,300,300,200,300,300],"left_num":[2,2,7,3,3,3,4,3,4,14,8,7,4,3,4,8,6,3,4,4,6,1,6,20,17,12,5,6,13,8,1,17,4,13,4,1,8,1,6,1,6,8,1,3,7,3,8,9,9,6,7,1,2,6,1,6,4,3,4,4,20,13,4,11,2,7,3,7,9,12,14,6,3,2,11,13,4,1,7,2,1,4,4,21,24,5,6,13,1,3,2,8,11,1,1,20,6,7,5,11,5,1,6,2,3,8,9,13,8,16,4,4,5,18,18,13,20,14,13,13],"right_num":[6,8,18,1,4,14,2,4,14,6,9,6,14,4,1,2,15,9,3,6,15,3,13,13,10,13,6,5,12,9,3,10,6,12,2,3,2,18,3,2,11,1,2,7,4,11,1,13,3,15,8,2,6,13,7,3,2,4,15,15,9,12,3,9,10,6,11,18,8,2,6,7,11,6,9,6,6,2,18,11,3,2,1,2,8,6,3,12,2,11,12,14,3,3,3,8,5,12,14,3,7,3,3,8,8,7,8,12,9,9,2,8,14,9,9,12,8,12,12,12],"left_den":[5,4,15,10,20,10,5,6,6,28,10,15,6,6,10,15,12,12,8,5,12,2,10,25,30,30,25,20,26,10,2,30,5,26,20,5,16,2,20,3,10,20,3,10,15,10,20,15,10,12,10,3,4,10,20,12,20,6,10,10,25,26,8,22,20,15,4,15,15,30,30,12,12,5,22,26,8,3,15,5,5,20,30,30,30,25,20,26,3,5,10,10,22,2,2,25,20,10,10,22,25,2,12,4,5,15,15,26,10,30,20,5,10,20,20,26,25,30,26,26],"right_den":[12,20,27,2,16,28,4,5,30,20,18,9,30,20,10,6,25,20,10,12,25,10,26,26,15,26,12,25,15,18,5,15,10,15,4,6,5,30,6,15,22,2,15,14,6,22,2,26,5,25,20,15,15,26,20,5,4,5,30,30,15,15,10,15,25,9,20,27,16,4,9,10,20,12,15,10,10,15,27,22,6,4,3,4,16,12,6,20,15,22,24,28,10,5,5,16,25,24,20,10,14,15,5,20,16,21,16,15,18,27,4,16,20,15,15,15,16,18,15,15],"correct_side":[2,1,2,2,2,2,1,2,1,1,1,2,1,1,1,1,2,2,1,1,2,1,1,1,2,2,2,1,2,1,2,2,1,2,2,2,1,2,2,1,1,2,1,2,2,2,2,1,1,2,1,1,1,1,2,2,2,2,2,2,1,2,1,2,2,2,1,2,1,2,2,2,2,2,2,2,2,1,2,2,2,2,2,1,1,2,2,2,1,1,2,1,1,2,2,1,1,1,2,1,2,1,2,1,1,1,1,2,1,1,2,1,2,1,1,2,1,2,2,2],"img_shown":["img2/100/Congruent/R/C_Dist_100_LN_2_LD_5_RN_6_RD_12_1.png","img2/100/Incongruent/L/I_Dist_100_LN_2_LD_4_RN_8_RD_20_0.png","img2/200/Congruent/R/C_Dist_200_LN_7_LD_15_RN_18_RD_27_1.png","img2/200/Incongruent/R/I_Dist_200_LN_3_LD_10_RN_1_RD_2_1.png","img2/100/Congruent/R/C_Dist_100_LN_3_LD_20_RN_4_RD_16_1.png","img2/200/Congruent/R/C_Dist_200_LN_3_LD_10_RN_14_RD_28_1.png","img2/300/Congruent/L/C_Dist_300_LN_4_LD_5_RN_2_RD_4_0.png","img2/300/Congruent/R/C_Dist_300_LN_3_LD_6_RN_4_RD_5_1.png","img2/200/Incongruent/L/I_Dist_200_LN_4_LD_6_RN_14_RD_30_0.png","img2/200/Congruent/L/C_Dist_200_LN_14_LD_28_RN_6_RD_20_0.png","img2/300/Incongruent/L/I_Dist_300_LN_8_LD_10_RN_9_RD_18_0.png","img2/200/Incongruent/R/I_Dist_200_LN_7_LD_15_RN_6_RD_9_1.png","img2/200/Incongruent/L/I_Dist_200_LN_4_LD_6_RN_14_RD_30_0.png","img2/300/Incongruent/L/I_Dist_300_LN_3_LD_6_RN_4_RD_20_0.png","img2/300/Congruent/L/C_Dist_300_LN_4_LD_10_RN_1_RD_10_0.png","img2/200/Congruent/L/C_Dist_200_LN_8_LD_15_RN_2_RD_6_0.png","img2/100/Congruent/R/C_Dist_100_LN_6_LD_12_RN_15_RD_25_1.png","img2/200/Congruent/R/C_Dist_200_LN_3_LD_12_RN_9_RD_20_1.png","img2/200/Congruent/L/C_Dist_200_LN_4_LD_8_RN_3_RD_10_0.png","img2/300/Incongruent/L/I_Dist_300_LN_4_LD_5_RN_6_RD_12_0.png","img2/100/Congruent/R/C_Dist_100_LN_6_LD_12_RN_15_RD_25_1.png","img2/200/Incongruent/L/I_Dist_200_LN_1_LD_2_RN_3_RD_10_0.png","img2/100/Incongruent/L/I_Dist_100_LN_6_LD_10_RN_13_RD_26_0.png","img2/300/Congruent/L/C_Dist_300_LN_20_LD_25_RN_13_RD_26_0.png","img2/100/Incongruent/R/I_Dist_100_LN_17_LD_30_RN_10_RD_15_1.png","img2/100/Congruent/R/C_Dist_100_LN_12_LD_30_RN_13_RD_26_1.png","img2/300/Congruent/R/C_Dist_300_LN_5_LD_25_RN_6_RD_12_1.png","img2/100/Congruent/L/C_Dist_100_LN_6_LD_20_RN_5_RD_25_0.png","img2/300/Incongruent/R/I_Dist_300_LN_13_LD_26_RN_12_RD_15_1.png","img2/300/Incongruent/L/I_Dist_300_LN_8_LD_10_RN_9_RD_18_0.png","img2/100/Congruent/R/C_Dist_100_LN_1_LD_2_RN_3_RD_5_1.png","img2/100/Incongruent/R/I_Dist_100_LN_17_LD_30_RN_10_RD_15_1.png","img2/200/Incongruent/L/I_Dist_200_LN_4_LD_5_RN_6_RD_10_0.png","img2/300/Incongruent/R/I_Dist_300_LN_13_LD_26_RN_12_RD_15_1.png","img2/300/Incongruent/R/I_Dist_300_LN_4_LD_20_RN_2_RD_4_1.png","img2/300/Congruent/R/C_Dist_300_LN_1_LD_5_RN_3_RD_6_1.png","img2/100/Congruent/L/C_Dist_100_LN_8_LD_16_RN_2_RD_5_0.png","img2/100/Congruent/R/C_Dist_100_LN_1_LD_2_RN_18_RD_30_1.png","img2/200/Incongruent/R/I_Dist_200_LN_6_LD_20_RN_3_RD_6_1.png","img2/200/Incongruent/L/I_Dist_200_LN_1_LD_3_RN_2_RD_15_0.png","img2/100/Incongruent/L/I_Dist_100_LN_6_LD_10_RN_11_RD_22_0.png","img2/100/Incongruent/R/I_Dist_100_LN_8_LD_20_RN_1_RD_2_1.png","img2/200/Incongruent/L/I_Dist_200_LN_1_LD_3_RN_2_RD_15_0.png","img2/200/Congruent/R/C_Dist_200_LN_3_LD_10_RN_7_RD_14_1.png","img2/200/Incongruent/R/I_Dist_200_LN_7_LD_15_RN_4_RD_6_1.png","img2/200/Congruent/R/C_Dist_200_LN_3_LD_10_RN_11_RD_22_1.png","img2/100/Incongruent/R/I_Dist_100_LN_8_LD_20_RN_1_RD_2_1.png","img2/100/Incongruent/L/I_Dist_100_LN_9_LD_15_RN_13_RD_26_0.png","img2/300/Congruent/L/C_Dist_300_LN_9_LD_10_RN_3_RD_5_0.png","img2/100/Congruent/R/C_Dist_100_LN_6_LD_12_RN_15_RD_25_1.png","img2/300/Incongruent/L/I_Dist_300_LN_7_LD_10_RN_8_RD_20_0.png","img2/200/Incongruent/L/I_Dist_200_LN_1_LD_3_RN_2_RD_15_0.png","img2/100/Incongruent/L/I_Dist_100_LN_2_LD_4_RN_6_RD_15_0.png","img2/100/Incongruent/L/I_Dist_100_LN_6_LD_10_RN_13_RD_26_0.png","img2/300/Congruent/R/C_Dist_300_LN_1_LD_20_RN_7_RD_20_1.png","img2/100/Incongruent/R/I_Dist_100_LN_6_LD_12_RN_3_RD_5_1.png","img2/300/Incongruent/R/I_Dist_300_LN_4_LD_20_RN_2_RD_4_1.png","img2/300/Congruent/R/C_Dist_300_LN_3_LD_6_RN_4_RD_5_1.png","img2/100/Congruent/R/C_Dist_100_LN_4_LD_10_RN_15_RD_30_1.png","img2/100/Congruent/R/C_Dist_100_LN_4_LD_10_RN_15_RD_30_1.png","img2/200/Congruent/L/C_Dist_200_LN_20_LD_25_RN_9_RD_15_0.png","img2/300/Incongruent/R/I_Dist_300_LN_13_LD_26_RN_12_RD_15_1.png","img2/200/Congruent/L/C_Dist_200_LN_4_LD_8_RN_3_RD_10_0.png","img2/100/Incongruent/R/I_Dist_100_LN_11_LD_22_RN_9_RD_15_1.png","img2/300/Congruent/R/C_Dist_300_LN_2_LD_20_RN_10_RD_25_1.png","img2/200/Incongruent/R/I_Dist_200_LN_7_LD_15_RN_6_RD_9_1.png","img2/200/Incongruent/L/I_Dist_200_LN_3_LD_4_RN_11_RD_20_0.png","img2/200/Congruent/R/C_Dist_200_LN_7_LD_15_RN_18_RD_27_1.png","img2/100/Congruent/L/C_Dist_100_LN_9_LD_15_RN_8_RD_16_0.png","img2/100/Incongruent/R/I_Dist_100_LN_12_LD_30_RN_2_RD_4_1.png","img2/200/Incongruent/R/I_Dist_200_LN_14_LD_30_RN_6_RD_9_1.png","img2/200/Congruent/R/C_Dist_200_LN_6_LD_12_RN_7_RD_10_1.png","img2/300/Congruent/R/C_Dist_300_LN_3_LD_12_RN_11_RD_20_1.png","img2/100/Congruent/R/C_Dist_100_LN_2_LD_5_RN_6_RD_12_1.png","img2/100/Incongruent/R/I_Dist_100_LN_11_LD_22_RN_9_RD_15_1.png","img2/100/Incongruent/R/I_Dist_100_LN_13_LD_26_RN_6_RD_10_1.png","img2/100/Congruent/R/C_Dist_100_LN_4_LD_8_RN_6_RD_10_1.png","img2/200/Incongruent/L/I_Dist_200_LN_1_LD_3_RN_2_RD_15_0.png","img2/200/Congruent/R/C_Dist_200_LN_7_LD_15_RN_18_RD_27_1.png","img2/100/Congruent/R/C_Dist_100_LN_2_LD_5_RN_11_RD_22_1.png","img2/300/Congruent/R/C_Dist_300_LN_1_LD_5_RN_3_RD_6_1.png","img2/300/Incongruent/R/I_Dist_300_LN_4_LD_20_RN_2_RD_4_1.png","img2/200/Incongruent/R/I_Dist_200_LN_4_LD_30_RN_1_RD_3_1.png","img2/200/Congruent/L/C_Dist_200_LN_21_LD_30_RN_2_RD_4_0.png","img2/300/Congruent/L/C_Dist_300_LN_24_LD_30_RN_8_RD_16_0.png","img2/300/Congruent/R/C_Dist_300_LN_5_LD_25_RN_6_RD_12_1.png","img2/200/Incongruent/R/I_Dist_200_LN_6_LD_20_RN_3_RD_6_1.png","img2/100/Incongruent/R/I_Dist_100_LN_13_LD_26_RN_12_RD_20_1.png","img2/200/Incongruent/L/I_Dist_200_LN_1_LD_3_RN_2_RD_15_0.png","img2/100/Incongruent/L/I_Dist_100_LN_3_LD_5_RN_11_RD_22_0.png","img2/300/Congruent/R/C_Dist_300_LN_2_LD_10_RN_12_RD_24_1.png","img2/300/Incongruent/L/I_Dist_300_LN_8_LD_10_RN_14_RD_28_0.png","img2/200/Congruent/L/C_Dist_200_LN_11_LD_22_RN_3_RD_10_0.png","img2/100/Congruent/R/C_Dist_100_LN_1_LD_2_RN_3_RD_5_1.png","img2/100/Congruent/R/C_Dist_100_LN_1_LD_2_RN_3_RD_5_1.png","img2/300/Congruent/L/C_Dist_300_LN_20_LD_25_RN_8_RD_16_0.png","img2/100/Congruent/L/C_Dist_100_LN_6_LD_20_RN_5_RD_25_0.png","img2/200/Incongruent/L/I_Dist_200_LN_7_LD_10_RN_12_RD_24_0.png","img2/200/Congruent/R/C_Dist_200_LN_5_LD_10_RN_14_RD_20_1.png","img2/200/Congruent/L/C_Dist_200_LN_11_LD_22_RN_3_RD_10_0.png","img2/300/Congruent/R/C_Dist_300_LN_5_LD_25_RN_7_RD_14_1.png","img2/300/Incongruent/L/I_Dist_300_LN_1_LD_2_RN_3_RD_15_0.png","img2/100/Incongruent/R/I_Dist_100_LN_6_LD_12_RN_3_RD_5_1.png","img2/100/Incongruent/L/I_Dist_100_LN_2_LD_4_RN_8_RD_20_0.png","img2/100/Incongruent/L/I_Dist_100_LN_3_LD_5_RN_8_RD_16_0.png","img2/200/Congruent/L/C_Dist_200_LN_8_LD_15_RN_7_RD_21_0.png","img2/100/Congruent/L/C_Dist_100_LN_9_LD_15_RN_8_RD_16_0.png","img2/300/Incongruent/R/I_Dist_300_LN_13_LD_26_RN_12_RD_15_1.png","img2/300/Incongruent/L/I_Dist_300_LN_8_LD_10_RN_9_RD_18_0.png","img2/200/Congruent/L/C_Dist_200_LN_16_LD_30_RN_9_RD_27_0.png","img2/300/Incongruent/R/I_Dist_300_LN_4_LD_20_RN_2_RD_4_1.png","img2/300/Incongruent/L/I_Dist_300_LN_4_LD_5_RN_8_RD_16_0.png","img2/200/Congruent/R/C_Dist_200_LN_5_LD_10_RN_14_RD_20_1.png","img2/300/Congruent/L/C_Dist_300_LN_18_LD_20_RN_9_RD_15_0.png","img2/300/Congruent/L/C_Dist_300_LN_18_LD_20_RN_9_RD_15_0.png","img2/300/Incongruent/R/I_Dist_300_LN_13_LD_26_RN_12_RD_15_1.png","img2/300/Congruent/L/C_Dist_300_LN_20_LD_25_RN_8_RD_16_0.png","img2/200/Incongruent/R/I_Dist_200_LN_14_LD_30_RN_12_RD_18_1.png","img2/300/Incongruent/R/I_Dist_300_LN_13_LD_26_RN_12_RD_15_1.png","img2/300/Incongruent/R/I_Dist_300_LN_13_LD_26_RN_12_RD_15_1.png"],"dist100_C":[["C_Dist_100_LN_10_LD_25_RN_3_RD_10_0.png","C_Dist_100_LN_11_LD_22_RN_4_RD_10_0.png","C_Dist_100_LN_11_LD_22_RN_6_RD_15_0.png","C_Dist_100_LN_15_LD_25_RN_13_RD_26_0.png","C_Dist_100_LN_3_LD_6_RN_2_RD_5_0.png","C_Dist_100_LN_6_LD_20_RN_5_RD_25_0.png","C_Dist_100_LN_8_LD_16_RN_2_RD_5_0.png","C_Dist_100_LN_9_LD_15_RN_8_RD_16_0.png"],["C_Dist_100_LN_1_LD_2_RN_18_RD_30_1.png","C_Dist_100_LN_1_LD_2_RN_3_RD_5_1.png","C_Dist_100_LN_12_LD_30_RN_13_RD_26_1.png","C_Dist_100_LN_2_LD_5_RN_11_RD_22_1.png","C_Dist_100_LN_2_LD_5_RN_6_RD_12_1.png","C_Dist_100_LN_3_LD_20_RN_4_RD_16_1.png","C_Dist_100_LN_4_LD_10_RN_15_RD_30_1.png","C_Dist_100_LN_4_LD_8_RN_6_RD_10_1.png","C_Dist_100_LN_6_LD_12_RN_15_RD_25_1.png","C_Dist_100_LN_7_LD_14_RN_15_RD_25_1.png","C_Dist_100_LN_7_LD_14_RN_9_RD_15_1.png"]],"dist100_I":[["I_Dist_100_LN_1_LD_2_RN_8_RD_20_0.png","I_Dist_100_LN_2_LD_4_RN_6_RD_15_0.png","I_Dist_100_LN_2_LD_4_RN_8_RD_20_0.png","I_Dist_100_LN_3_LD_5_RN_11_RD_22_0.png","I_Dist_100_LN_3_LD_5_RN_8_RD_16_0.png","I_Dist_100_LN_3_LD_6_RN_4_RD_10_0.png","I_Dist_100_LN_3_LD_9_RN_7_RD_30_0.png","I_Dist_100_LN_4_LD_8_RN_8_RD_20_0.png","I_Dist_100_LN_6_LD_10_RN_11_RD_22_0.png","I_Dist_100_LN_6_LD_10_RN_13_RD_26_0.png","I_Dist_100_LN_6_LD_10_RN_7_RD_14_0.png","I_Dist_100_LN_9_LD_10_RN_20_RD_25_0.png","I_Dist_100_LN_9_LD_15_RN_13_RD_26_0.png","I_Dist_100_LN_9_LD_15_RN_14_RD_28_0.png"],["I_Dist_100_LN_10_LD_25_RN_8_RD_16_1.png","I_Dist_100_LN_10_LD_25_RN_9_RD_18_1.png","I_Dist_100_LN_11_LD_22_RN_9_RD_15_1.png","I_Dist_100_LN_12_LD_24_RN_9_RD_15_1.png","I_Dist_100_LN_12_LD_30_RN_2_RD_4_1.png","I_Dist_100_LN_13_LD_26_RN_12_RD_20_1.png","I_Dist_100_LN_13_LD_26_RN_6_RD_10_1.png","I_Dist_100_LN_17_LD_30_RN_10_RD_15_1.png","I_Dist_100_LN_6_LD_12_RN_3_RD_5_1.png","I_Dist_100_LN_8_LD_16_RN_6_RD_10_1.png","I_Dist_100_LN_8_LD_20_RN_1_RD_2_1.png","I_Dist_100_LN_9_LD_18_RN_6_RD_10_1.png"]],"dist100_S":[["E_Dist_100_LN_2_LD_12_RN_2_RD_30_0.png","E_Dist_100_LN_6_LD_10_RN_6_RD_12_0.png"],["E_Dist_100_LN_6_LD_12_RN_6_RD_10_1.png"]],"dist200_C":[["C_Dist_200_LN_11_LD_22_RN_3_RD_10_0.png","C_Dist_200_LN_12_LD_15_RN_6_RD_10_0.png","C_Dist_200_LN_12_LD_20_RN_6_RD_15_0.png","C_Dist_200_LN_14_LD_28_RN_6_RD_20_0.png","C_Dist_200_LN_15_LD_25_RN_4_RD_10_0.png","C_Dist_200_LN_16_LD_20_RN_12_RD_20_0.png","C_Dist_200_LN_16_LD_30_RN_9_RD_27_0.png","C_Dist_200_LN_20_LD_25_RN_9_RD_15_0.png","C_Dist_200_LN_21_LD_30_RN_2_RD_4_0.png","C_Dist_200_LN_4_LD_10_RN_3_RD_15_0.png","C_Dist_200_LN_4_LD_8_RN_3_RD_10_0.png","C_Dist_200_LN_6_LD_15_RN_3_RD_15_0.png","C_Dist_200_LN_7_LD_21_RN_2_RD_15_0.png","C_Dist_200_LN_8_LD_15_RN_2_RD_6_0.png","C_Dist_200_LN_8_LD_15_RN_3_RD_9_0.png","C_Dist_200_LN_8_LD_15_RN_7_RD_21_0.png","C_Dist_200_LN_9_LD_20_RN_4_RD_16_0.png"],["C_Dist_200_LN_1_LD_2_RN_21_RD_30_1.png","C_Dist_200_LN_13_LD_26_RN_14_RD_20_1.png","C_Dist_200_LN_3_LD_10_RN_11_RD_22_1.png","C_Dist_200_LN_3_LD_10_RN_14_RD_28_1.png","C_Dist_200_LN_3_LD_10_RN_7_RD_14_1.png","C_Dist_200_LN_3_LD_12_RN_9_RD_20_1.png","C_Dist_200_LN_3_LD_6_RN_14_RD_20_1.png","C_Dist_200_LN_5_LD_10_RN_14_RD_20_1.png","C_Dist_200_LN_6_LD_12_RN_7_RD_10_1.png","C_Dist_200_LN_6_LD_20_RN_11_RD_22_1.png","C_Dist_200_LN_7_LD_15_RN_18_RD_27_1.png","C_Dist_200_LN_9_LD_30_RN_13_RD_26_1.png"]],"dist200_I":[["I_Dist_200_LN_1_LD_2_RN_3_RD_10_0.png","I_Dist_200_LN_1_LD_3_RN_2_RD_15_0.png","I_Dist_200_LN_3_LD_4_RN_11_RD_20_0.png","I_Dist_200_LN_4_LD_5_RN_6_RD_10_0.png","I_Dist_200_LN_4_LD_6_RN_14_RD_30_0.png","I_Dist_200_LN_7_LD_10_RN_12_RD_24_0.png","I_Dist_200_LN_7_LD_10_RN_14_RD_28_0.png","I_Dist_200_LN_7_LD_10_RN_8_RD_16_0.png"],["I_Dist_200_LN_11_LD_20_RN_3_RD_4_1.png","I_Dist_200_LN_14_LD_30_RN_12_RD_18_1.png","I_Dist_200_LN_14_LD_30_RN_6_RD_9_1.png","I_Dist_200_LN_3_LD_10_RN_1_RD_2_1.png","I_Dist_200_LN_4_LD_30_RN_1_RD_3_1.png","I_Dist_200_LN_6_LD_20_RN_3_RD_6_1.png","I_Dist_200_LN_7_LD_15_RN_4_RD_6_1.png","I_Dist_200_LN_7_LD_15_RN_6_RD_9_1.png","I_Dist_200_LN_9_LD_15_RN_8_RD_10_1.png"]],"dist200_S":[["E_Dist_200_LN_3_LD_6_RN_3_RD_10_0.png"],["E_Dist_200_LN_3_LD_10_RN_3_RD_6_1.png"]],"dist300_C":[["C_Dist_300_LN_11_LD_22_RN_1_RD_5_0.png","C_Dist_300_LN_11_LD_22_RN_2_RD_10_0.png","C_Dist_300_LN_11_LD_22_RN_4_RD_20_0.png","C_Dist_300_LN_12_LD_24_RN_2_RD_10_0.png","C_Dist_300_LN_18_LD_20_RN_9_RD_15_0.png","C_Dist_300_LN_20_LD_25_RN_13_RD_26_0.png","C_Dist_300_LN_20_LD_25_RN_14_RD_28_0.png","C_Dist_300_LN_20_LD_25_RN_5_RD_10_0.png","C_Dist_300_LN_20_LD_25_RN_8_RD_16_0.png","C_Dist_300_LN_20_LD_25_RN_9_RD_18_0.png","C_Dist_300_LN_24_LD_30_RN_2_RD_4_0.png","C_Dist_300_LN_24_LD_30_RN_8_RD_16_0.png","C_Dist_300_LN_3_LD_6_RN_2_RD_10_0.png","C_Dist_300_LN_4_LD_10_RN_1_RD_10_0.png","C_Dist_300_LN_4_LD_5_RN_2_RD_4_0.png","C_Dist_300_LN_8_LD_16_RN_1_RD_5_0.png","C_Dist_300_LN_9_LD_10_RN_3_RD_5_0.png"],["C_Dist_300_LN_1_LD_20_RN_7_RD_20_1.png","C_Dist_300_LN_1_LD_3_RN_19_RD_30_1.png","C_Dist_300_LN_1_LD_30_RN_8_RD_24_1.png","C_Dist_300_LN_1_LD_5_RN_11_RD_22_1.png","C_Dist_300_LN_1_LD_5_RN_3_RD_6_1.png","C_Dist_300_LN_1_LD_5_RN_6_RD_12_1.png","C_Dist_300_LN_2_LD_10_RN_12_RD_24_1.png","C_Dist_300_LN_2_LD_20_RN_10_RD_25_1.png","C_Dist_300_LN_3_LD_12_RN_11_RD_20_1.png","C_Dist_300_LN_3_LD_6_RN_4_RD_5_1.png","C_Dist_300_LN_4_LD_20_RN_13_RD_26_1.png","C_Dist_300_LN_5_LD_25_RN_6_RD_12_1.png","C_Dist_300_LN_5_LD_25_RN_7_RD_14_1.png","C_Dist_300_LN_7_LD_14_RN_20_RD_25_1.png","C_Dist_300_LN_8_LD_15_RN_10_RD_12_1.png"]],"dist300_I":[["I_Dist_300_LN_1_LD_2_RN_2_RD_10_0.png","I_Dist_300_LN_1_LD_2_RN_3_RD_15_0.png","I_Dist_300_LN_2_LD_4_RN_6_RD_30_0.png","I_Dist_300_LN_3_LD_6_RN_4_RD_20_0.png","I_Dist_300_LN_4_LD_5_RN_6_RD_12_0.png","I_Dist_300_LN_4_LD_5_RN_8_RD_16_0.png","I_Dist_300_LN_7_LD_10_RN_8_RD_20_0.png","I_Dist_300_LN_8_LD_10_RN_14_RD_28_0.png","I_Dist_300_LN_8_LD_10_RN_9_RD_18_0.png"],["I_Dist_300_LN_13_LD_26_RN_12_RD_15_1.png","I_Dist_300_LN_4_LD_20_RN_2_RD_4_1.png"]],"dist300_S":[["E_Dist_300_LN_9_LD_12_RN_9_RD_20_0.png"],["E_Dist_300_LN_18_LD_30_RN_18_RD_20_1.png","E_Dist_300_LN_3_LD_10_RN_3_RD_5_1.png","E_Dist_300_LN_9_LD_20_RN_9_RD_12_1.png"]],"dist500_C":[["C_Dist_500_LN_10_LD_13_RN_7_RD_26_0.png","C_Dist_500_LN_10_LD_15_RN_4_RD_24_0.png","C_Dist_500_LN_12_LD_16_RN_3_RD_12_0.png","C_Dist_500_LN_12_LD_18_RN_4_RD_24_0.png","C_Dist_500_LN_15_LD_18_RN_5_RD_15_0.png","C_Dist_500_LN_15_LD_20_RN_1_RD_4_0.png","C_Dist_500_LN_18_LD_27_RN_1_RD_6_0.png","C_Dist_500_LN_20_LD_24_RN_1_RD_3_0.png","C_Dist_500_LN_20_LD_24_RN_3_RD_9_0.png","C_Dist_500_LN_20_LD_24_RN_7_RD_21_0.png","C_Dist_500_LN_20_LD_28_RN_3_RD_14_0.png","C_Dist_500_LN_21_LD_28_RN_6_RD_24_0.png","C_Dist_500_LN_22_LD_28_RN_2_RD_7_0.png","C_Dist_500_LN_25_LD_30_RN_9_RD_27_0.png","C_Dist_500_LN_4_LD_6_RN_1_RD_6_0.png","C_Dist_500_LN_5_LD_6_RN_2_RD_6_0.png","C_Dist_500_LN_6_LD_9_RN_1_RD_6_0.png","C_Dist_500_LN_7_LD_10_RN_1_RD_5_0.png","C_Dist_500_LN_8_LD_12_RN_1_RD_6_0.png","C_Dist_500_LN_8_LD_12_RN_4_RD_24_0.png"],["C_Dist_500_LN_1_LD_4_RN_12_RD_16_1.png","C_Dist_500_LN_1_LD_4_RN_9_RD_12_1.png","C_Dist_500_LN_1_LD_9_RN_11_RD_18_1.png","C_Dist_500_LN_10_LD_24_RN_22_RD_24_1.png","C_Dist_500_LN_2_LD_12_RN_10_RD_15_1.png","C_Dist_500_LN_2_LD_12_RN_12_RD_18_1.png","C_Dist_500_LN_2_LD_12_RN_4_RD_6_1.png","C_Dist_500_LN_2_LD_24_RN_7_RD_12_1.png","C_Dist_500_LN_2_LD_5_RN_18_RD_20_1.png","C_Dist_500_LN_2_LD_5_RN_9_RD_10_1.png","C_Dist_500_LN_2_LD_8_RN_12_RD_16_1.png","C_Dist_500_LN_2_LD_8_RN_21_RD_28_1.png","C_Dist_500_LN_3_LD_10_RN_4_RD_5_1.png","C_Dist_500_LN_3_LD_12_RN_15_RD_20_1.png","C_Dist_500_LN_3_LD_30_RN_6_RD_10_1.png","C_Dist_500_LN_3_LD_8_RN_14_RD_16_1.png","C_Dist_500_LN_4_LD_16_RN_15_RD_20_1.png","C_Dist_500_LN_4_LD_24_RN_12_RD_18_1.png","C_Dist_500_LN_5_LD_14_RN_6_RD_7_1.png","C_Dist_500_LN_7_LD_21_RN_20_RD_24_1.png","C_Dist_500_LN_7_LD_28_RN_12_RD_16_1.png","C_Dist_500_LN_7_LD_28_RN_9_RD_12_1.png","C_Dist_500_LN_9_LD_27_RN_20_RD_24_1.png"]],"dist500_I":[["I_Dist_500_LN_2_LD_3_RN_4_RD_24_0.png","I_Dist_500_LN_5_LD_6_RN_6_RD_18_0.png","I_Dist_500_LN_7_LD_8_RN_9_RD_24_0.png"],["I_Dist_500_LN_7_LD_21_RN_5_RD_6_1.png"]],"dist500_S":[["E_Dist_500_LN_6_LD_8_RN_6_RD_24_0.png"],["E_Dist_500_LN_2_LD_12_RN_2_RD_3_1.png","E_Dist_500_LN_6_LD_24_RN_6_RD_8_1.png"]]}},{"start_time":1551793954921,"click_time":1551793956999,"finger_time":1551793956519,"fix_duration":1081.1035138011473,"trial":1,"RT":1598,"MT":480,"sideResp":2,"stimulus":[],"xmouse":[786,786,786,786,786,786,786,786,786,786,786,786,786,786,786,786,786,786,786,786,786,786,786,786,786,786,786,786,786,786,786,786,786,786,786,786,786,786,786,786,786,786,786,786,786,786,786,786,786,786,786,786,786,786,786,786,786,786,786,786,786,786,786,786,786,786,786,786,786,786,786,786,786,786,786,786,786,788,795,843,876,909,936,952,979,986,994,1001,1014,1022,1029,1038,1045,1052,1062,1072,1078,1086,1096,1098,1100,1101,1101,1103],"ymouse":[541,541,541,541,541,541,541,541,541,541,541,541,541,541,541,541,541,541,541,541,541,541,541,541,541,541,541,541,541,541,541,541,541,541,541,541,541,541,541,541,541,541,541,541,541,541,541,541,541,541,541,541,541,541,541,541,541,541,541,541,541,541,541,541,541,541,541,541,541,541,541,541,541,541,541,541,541,539,532,474,436,398,370,353,318,309,298,289,270,256,243,226,211,195,170,151,141,130,112,109,104,103,100,96],"timestamp_mouse":[25,37,57,77,97,117,138,157,178,198,217,237,257,278,298,317,338,358,377,397,417,437,457,477,497,517,537,558,578,597,617,637,658,677,697,717,738,758,779,798,817,839,857,877,897,918,937,957,977,997,1018,1038,1057,1077,1097,1118,1138,1157,1177,1197,1217,1239,1258,1277,1297,1318,1337,1359,1377,1397,1417,1437,1457,1477,1497,1519,1538,1557,1577,1598,1618,1638,1658,1678,1698,1717,1737,1757,1778,1798,1818,1837,1857,1877,1897,1917,1938,1957,1978,1998,2017,2038,2058,2078],"xSR":741.5,"ySR":494.65000000000003,"xT1":424.9,"yT1":0,"xT2":1058.1,"yT2":0,"toosoon":0,"cond_shown":"Incongruent","ratio_trial":100,"L_num":2,"L_den":4,"R_num":8,"R_den":20,"correct_side":1,"subjID":"DylanLeonBedoya18","gender":"0","school":"6","age":"11"},{"start_time":1551793959020,"click_time":1551793961120,"finger_time":1551793960238,"fix_duration":900.1163890473124,"trial":2,"RT":1218,"MT":882,"sideResp":1,"stimulus":[],"xmouse":[828,828,828,828,828,828,828,828,828,828,828,828,828,828,828,828,828,828,828,828,828,828,828,828,828,828,828,828,828,828,828,828,828,828,828,828,828,828,828,828,828,828,828,828,828,828,828,828,828,828,828,828,828,828,828,828,828,822,806,797,791,791,791,791,791,791,791,791,791,791,791,786,777,756,751,746,738,731,721,719,714,706,696,677,664,646,626,605,579,575,574,573,572,568,559,555,553,551,546,543,540,539,536,525,522],"ymouse":[508,508,508,508,508,508,508,508,508,508,508,508,508,508,508,508,508,508,508,508,508,508,508,508,508,508,508,508,508,508,508,508,508,508,508,508,508,508,508,508,508,508,508,508,508,508,508,508,508,508,508,508,508,508,508,508,508,508,498,495,492,492,492,492,492,492,492,492,492,492,492,488,475,430,403,362,310,258,196,176,149,125,103,68,52,34,20,9,1,1,1,1,2,5,13,17,20,23,31,34,37,38,40,43,44],"timestamp_mouse":[32,39,58,78,98,118,138,158,179,199,219,239,258,278,298,320,338,358,379,399,418,438,459,478,498,518,538,558,579,600,619,638,658,679,699,719,738,758,780,798,820,838,859,879,898,918,938,958,979,999,1018,1038,1059,1079,1098,1118,1138,1158,1179,1198,1218,1239,1258,1279,1300,1319,1338,1359,1380,1398,1418,1438,1458,1478,1499,1518,1539,1558,1579,1598,1619,1638,1660,1679,1699,1718,1739,1758,1779,1798,1818,1839,1858,1878,1898,1919,1938,1958,1979,2000,2019,2038,2058,2079,2099],"xSR":741.5,"ySR":494.65000000000003,"xT1":424.9,"yT1":0,"xT2":1058.1,"yT2":0,"toosoon":0,"cond_shown":"Congruent","ratio_trial":200,"L_num":7,"L_den":15,"R_num":18,"R_den":27,"correct_side":2,"subjID":"DylanLeonBedoya18","gender":"0","school":"6","age":"11"},{"start_time":1551793963081,"click_time":1551793965059,"finger_time":1551793964639,"fix_duration":662.4157391979619,"trial":3,"RT":1558,"MT":420,"sideResp":1,"stimulus":[],"xmouse":[814,814,814,814,814,814,814,814,814,814,814,814,814,814,814,814,814,814,814,814,814,814,814,814,814,814,814,814,814,814,814,814,814,814,814,814,814,814,814,814,814,814,814,814,814,814,814,814,814,814,814,814,814,814,814,814,814,814,814,814,814,814,814,814,814,814,814,814,814,814,814,814,814,814,814,814,815,798,779,753,697,677,661,652,642,619,600,591,583,580,572,568,562,554,547,534,529,526,522],"ymouse":[501,501,501,501,501,501,501,501,501,501,501,501,501,501,501,501,501,501,501,501,501,501,501,501,501,501,501,501,501,501,501,501,501,501,501,501,501,501,501,501,501,501,501,501,501,501,501,501,501,501,501,501,501,501,501,501,501,501,501,501,501,501,501,501,501,501,501,501,501,501,501,501,501,501,501,501,502,459,418,372,276,240,213,194,180,143,116,103,95,91,85,83,79,76,73,70,70,70,70],"timestamp_mouse":[29,38,58,77,97,117,138,157,177,197,217,237,258,277,297,317,337,357,378,398,419,437,457,477,497,518,538,558,578,597,617,639,657,678,698,717,737,758,777,797,817,837,858,877,897,917,937,957,978,998,1018,1037,1058,1077,1098,1118,1137,1157,1179,1198,1217,1237,1258,1277,1297,1318,1338,1357,1377,1397,1417,1437,1458,1478,1497,1517,1537,1558,1577,1599,1618,1638,1657,1678,1698,1719,1737,1757,1777,1797,1817,1838,1857,1877,1898,1917,1937,1958,1978],"xSR":741.5,"ySR":494.65000000000003,"xT1":424.9,"yT1":0,"xT2":1058.1,"yT2":0,"toosoon":0,"cond_shown":"Incongruent","ratio_trial":200,"L_num":3,"L_den":10,"R_num":1,"R_den":2,"correct_side":2,"subjID":"DylanLeonBedoya18","gender":"0","school":"6","age":"11"},{"start_time":1551793968115,"click_time":1551793970599,"finger_time":1551793969538,"fix_duration":1296.2106245139748,"trial":4,"RT":1423,"MT":1061,"sideResp":2,"stimulus":[],"xmouse":[805,805,805,805,805,805,805,805,805,805,805,805,805,805,805,805,805,805,805,805,805,805,805,805,805,805,805,805,805,805,805,805,805,805,805,805,805,805,805,805,805,805,805,805,805,805,805,805,805,805,805,805,805,805,805,805,805,805,805,805,805,805,805,805,805,805,805,805,805,805,807,818,829,839,858,865,874,879,881,884,886,886,887,888,895,902,909,913,918,922,923,924,925,925,925,927,929,933,936,948,956,961,966,972,981,988,992,999,1006,1020,1025,1030,1035,1038,1041,1043,1044,1044,1045,1045,1046,1047,1050,1055,1065],"ymouse":[514,514,514,514,514,514,514,514,514,514,514,514,514,514,514,514,514,514,514,514,514,514,514,514,514,514,514,514,514,514,514,514,514,514,514,514,514,514,514,514,514,514,514,514,514,514,514,514,514,514,514,514,514,514,514,514,514,514,514,514,514,514,514,514,514,514,514,514,514,514,508,483,459,440,405,388,365,352,344,334,330,327,323,318,301,284,269,258,249,238,236,234,232,231,228,224,216,207,197,170,156,147,140,133,125,121,119,116,114,109,105,103,101,100,97,96,96,95,95,95,94,93,90,87,80],"timestamp_mouse":[9,30,44,63,83,104,124,143,164,183,203,223,243,264,284,304,323,345,364,383,403,423,443,464,484,503,523,544,565,585,603,624,644,664,684,703,723,743,763,783,803,823,844,864,883,904,923,944,965,983,1003,1024,1043,1063,1083,1103,1124,1144,1163,1183,1203,1223,1243,1263,1284,1304,1325,1343,1363,1383,1404,1423,1443,1463,1484,1504,1524,1544,1563,1584,1604,1623,1644,1663,1684,1703,1724,1745,1765,1784,1804,1823,1843,1863,1884,1903,1924,1943,1965,1984,2004,2023,2045,2063,2084,2103,2123,2144,2165,2184,2204,2224,2245,2263,2285,2303,2323,2343,2364,2384,2404,2424,2443,2463,2484],"xSR":741.5,"ySR":494.65000000000003,"xT1":424.9,"yT1":0,"xT2":1058.1,"yT2":0,"toosoon":0,"cond_shown":"Congruent","ratio_trial":100,"L_num":3,"L_den":20,"R_num":4,"R_den":16,"correct_side":2,"subjID":"DylanLeonBedoya18","gender":"0","school":"6","age":"11"},{"start_time":1551793972789,"click_time":1551793975039,"finger_time":1551793973979,"fix_duration":1008.762538512125,"trial":5,"RT":1190,"MT":1060,"sideResp":1,"stimulus":[],"xmouse":[806,806,806,806,806,806,806,806,806,806,806,806,806,806,806,806,806,806,806,806,806,806,806,806,806,806,806,806,806,806,806,806,806,806,806,806,806,806,806,806,806,806,806,806,806,806,806,802,801,800,800,800,800,796,788,771,764,758,755,754,753,751,751,750,750,740,729,715,696,679,644,639,623,617,613,603,597,594,590,587,583,575,572,569,568,562,559,558,557,556,552,548,546,545,545,545,545,545,545,545,545,545,545,545,545,532,524,516,511,510,510,508,508],"ymouse":[548,548,548,548,548,548,548,548,548,548,548,548,548,548,548,548,548,548,548,548,548,548,548,548,548,548,548,548,548,548,548,548,548,548,548,548,548,548,548,548,548,548,548,548,548,548,548,547,545,545,545,545,544,539,530,512,504,498,496,494,493,490,489,489,487,474,458,436,411,392,346,339,317,307,301,283,272,264,255,248,235,211,202,193,186,175,171,170,168,166,160,152,149,148,148,148,148,148,148,148,148,148,148,148,148,138,127,116,108,107,105,100,98],"timestamp_mouse":[10,29,49,70,89,111,129,149,169,190,209,229,249,269,289,309,330,350,369,390,410,430,449,469,489,509,530,550,571,589,609,629,651,670,690,710,729,749,769,790,810,830,849,869,889,909,929,949,970,990,1010,1029,1050,1070,1089,1109,1130,1149,1169,1190,1210,1229,1251,1270,1291,1310,1330,1349,1370,1390,1411,1431,1449,1471,1491,1510,1530,1549,1569,1590,1610,1631,1650,1670,1691,1710,1730,1750,1769,1790,1810,1829,1850,1870,1889,1910,1929,1949,1969,1989,2010,2030,2050,2071,2090,2110,2130,2149,2169,2189,2210,2229,2250],"xSR":741.5,"ySR":494.65000000000003,"xT1":424.9,"yT1":0,"xT2":1058.1,"yT2":0,"toosoon":0,"cond_shown":"Congruent","ratio_trial":200,"L_num":3,"L_den":10,"R_num":14,"R_den":28,"correct_side":2,"subjID":"DylanLeonBedoya18","gender":"0","school":"6","age":"11"},{"start_time":1551793977144,"click_time":1551793978560,"finger_time":1551793977978,"fix_duration":1004.4588184588591,"trial":6,"RT":834,"MT":582,"sideResp":2,"stimulus":[],"xmouse":[795,795,795,795,795,795,795,795,795,795,795,795,795,795,795,795,795,795,795,795,795,795,795,795,795,795,795,795,795,795,795,795,795,795,795,795,795,794,793,791,787,783,774,771,771,771,773,785,792,801,810,820,844,853,863,874,888,926,948,971,987,1003,1031,1046,1051,1054,1057,1067,1074,1085,1095],"ymouse":[525,525,525,525,525,525,525,525,525,525,525,525,525,525,525,525,525,525,525,525,525,525,525,525,525,525,525,525,525,525,525,525,525,525,525,523,523,520,518,514,504,492,453,434,418,402,383,355,342,329,320,311,299,295,287,280,270,241,226,207,194,180,155,138,132,128,125,117,110,101,93],"timestamp_mouse":[15,35,55,75,95,115,134,155,175,195,214,234,254,274,296,315,334,355,375,395,415,434,454,474,494,514,534,554,574,596,615,635,654,674,694,714,734,755,774,794,815,834,856,874,895,916,934,955,975,994,1015,1034,1055,1074,1094,1114,1135,1154,1174,1195,1215,1234,1255,1275,1295,1315,1335,1354,1374,1394,1416],"xSR":741.5,"ySR":494.65000000000003,"xT1":424.9,"yT1":0,"xT2":1058.1,"yT2":0,"toosoon":0,"cond_shown":"Congruent","ratio_trial":300,"L_num":4,"L_den":5,"R_num":2,"R_den":4,"correct_side":1,"subjID":"DylanLeonBedoya18","gender":"0","school":"6","age":"11"},{"start_time":1551793980628,"click_time":1551793981979,"finger_time":1551793980960,"fix_duration":1146.2671939966679,"trial":7,"RT":332,"MT":1019,"sideResp":1,"stimulus":[],"xmouse":[765,765,765,765,765,765,765,765,765,765,765,765,765,765,763,752,741,729,717,695,685,679,673,667,665,665,665,665,667,671,674,676,677,677,677,673,666,656,622,601,571,550,536,522,520,520,520,519,519,519,519,519,519,519,519,519,519,519,519,519,519,519,519,519,519,519,519,519],"ymouse":[528,528,528,528,528,528,528,528,528,528,528,528,528,528,528,521,506,490,472,440,426,417,407,397,392,388,385,383,376,373,371,369,369,368,362,352,341,325,275,244,198,163,139,116,112,111,110,109,107,107,107,106,106,106,106,106,106,106,106,106,106,106,106,106,106,104,100,98],"timestamp_mouse":[12,32,50,70,90,110,132,150,170,192,211,231,252,270,290,311,332,350,370,390,411,432,451,471,491,511,530,551,571,592,610,630,651,671,690,710,730,750,771,792,810,831,850,870,891,911,930,950,971,990,1010,1030,1050,1071,1091,1110,1130,1151,1171,1190,1212,1231,1252,1272,1291,1312,1330,1350],"xSR":741.5,"ySR":494.65000000000003,"xT1":424.9,"yT1":0,"xT2":1058.1,"yT2":0,"toosoon":0,"cond_shown":"Congruent","ratio_trial":300,"L_num":3,"L_den":6,"R_num":4,"R_den":5,"correct_side":2,"subjID":"DylanLeonBedoya18","gender":"0","school":"6","age":"11"},{"start_time":1551793984014,"click_time":1551793985459,"finger_time":1551793984818,"fix_duration":914.6525781843255,"trial":8,"RT":804,"MT":641,"sideResp":2,"stimulus":[],"xmouse":[774,774,774,774,774,774,774,774,774,774,774,774,774,774,774,774,774,774,774,774,774,774,774,774,774,774,774,774,774,775,778,780,781,783,788,791,796,801,811,822,850,865,881,899,938,954,968,981,991,1004,1010,1013,1015,1017,1022,1024,1025,1026,1026,1028,1031,1033,1037,1043,1045,1050,1052,1054,1056,1057,1058,1058,1059],"ymouse":[539,539,539,539,539,539,539,539,539,539,539,539,539,539,539,539,539,539,539,539,539,539,539,539,539,539,539,539,539,539,539,539,539,539,538,537,534,530,524,514,484,465,444,421,372,353,336,321,309,286,271,263,256,248,229,222,215,207,200,194,183,174,166,157,146,115,104,94,86,81,77,76,73],"timestamp_mouse":[7,32,44,65,85,105,124,144,164,184,204,225,245,266,284,304,324,344,365,385,405,425,444,464,484,504,524,545,565,585,604,624,646,666,685,705,725,746,764,784,804,825,845,864,884,905,924,944,964,985,1005,1025,1046,1064,1085,1105,1125,1145,1164,1185,1205,1225,1245,1264,1285,1304,1324,1344,1365,1385,1404,1424,1444],"xSR":741.5,"ySR":494.65000000000003,"xT1":424.9,"yT1":0,"xT2":1058.1,"yT2":0,"toosoon":0,"cond_shown":"Incongruent","ratio_trial":200,"L_num":4,"L_den":6,"R_num":14,"R_den":30,"correct_side":1,"subjID":"DylanLeonBedoya18","gender":"0","school":"6","age":"11"},{"start_time":1551793990266,"click_time":1551793991419,"finger_time":1551793991018,"fix_duration":546.2660801098991,"trial":9,"RT":752,"MT":401,"sideResp":1,"stimulus":[],"xmouse":[805,805,805,805,805,805,805,805,805,805,805,805,805,805,805,805,805,805,805,805,805,805,805,805,805,805,805,805,805,805,805,805,805,805,805,802,786,766,726,699,672,634,623,613,602,594,581,572,569,566,561,550,544,538,534,531,527,522],"ymouse":[550,550,550,550,550,550,550,550,550,550,550,550,550,550,550,550,550,550,550,550,550,550,550,550,550,550,550,550,550,550,550,550,550,550,550,543,513,467,369,307,260,197,177,160,145,135,119,108,105,102,98,91,86,82,80,77,75,71],"timestamp_mouse":[13,36,52,72,92,113,133,153,173,192,212,232,252,272,293,313,334,352,372,392,412,432,453,473,493,512,532,552,573,593,613,632,652,672,693,713,733,752,773,793,813,833,853,873,892,912,933,952,973,994,1014,1033,1053,1073,1092,1112,1132,1152],"xSR":741.5,"ySR":494.65000000000003,"xT1":424.9,"yT1":0,"xT2":1058.1,"yT2":0,"toosoon":0,"cond_shown":"Congruent","ratio_trial":200,"L_num":14,"L_den":28,"R_num":6,"R_den":20,"correct_side":1,"subjID":"DylanLeonBedoya18","gender":"0","school":"6","age":"11"},{"start_time":1551793994059,"click_time":1551793995618,"finger_time":1551793995499,"fix_duration":1457.85806106615,"trial":10,"RT":1440,"MT":119,"sideResp":2,"stimulus":[],"xmouse":[809,809,809,809,809,809,809,809,809,809,809,809,809,809,809,809,809,809,809,809,809,809,809,809,809,809,809,809,809,809,809,809,809,809,809,809,809,809,809,809,809,809,809,809,809,809,809,809,809,809,809,809,809,809,809,809,809,809,809,809,809,809,809,809,809,809,809,809,809,809,814,822,856,897,933,981,1025,1075,1100],"ymouse":[568,568,568,568,568,568,568,568,568,568,568,568,568,568,568,568,568,568,568,568,568,568,568,568,568,568,568,568,568,568,568,568,568,568,568,568,568,568,568,568,568,568,568,568,568,568,568,568,568,568,568,568,568,568,568,568,568,568,568,568,568,568,568,568,568,568,568,568,568,562,547,528,448,371,300,234,186,125,97],"timestamp_mouse":[1,19,39,59,79,101,120,139,161,180,199,219,239,260,280,299,319,339,360,380,400,420,439,459,479,499,519,539,560,580,599,619,639,659,679,701,720,740,759,780,799,819,839,860,880,899,919,939,959,980,999,1019,1039,1060,1080,1099,1119,1140,1161,1179,1199,1219,1239,1259,1281,1300,1319,1339,1359,1380,1400,1420,1440,1460,1479,1500,1519,1540,1559],"xSR":741.5,"ySR":494.65000000000003,"xT1":424.9,"yT1":0,"xT2":1058.1,"yT2":0,"toosoon":0,"cond_shown":"Incongruent","ratio_trial":300,"L_num":8,"L_den":10,"R_num":9,"R_den":18,"correct_side":1,"subjID":"DylanLeonBedoya18","gender":"0","school":"6","age":"11"},{"start_time":1551793997050,"click_time":1551793998018,"finger_time":1551793997699,"fix_duration":250,"trial":11,"RT":649,"MT":319,"sideResp":1,"stimulus":[],"xmouse":[830,830,830,830,830,830,830,830,830,830,830,830,830,830,830,830,830,830,830,830,830,830,830,830,830,830,830,830,830,830,830,827,800,767,734,702,673,647,644,642,642,642,638,635,628,614,592,537,513],"ymouse":[534,534,534,534,534,534,534,534,534,534,534,534,534,534,534,534,534,534,534,534,534,534,534,534,534,534,534,534,534,534,534,518,419,331,255,197,151,114,108,105,105,105,103,102,100,98,90,77,69],"timestamp_mouse":[8,28,49,69,88,109,129,148,168,188,208,228,249,269,289,308,328,348,368,388,408,429,449,468,488,508,528,548,568,588,608,628,649,669,689,709,729,748,768,789,809,829,849,868,889,909,928,948,968],"xSR":741.5,"ySR":494.65000000000003,"xT1":424.9,"yT1":0,"xT2":1058.1,"yT2":0,"toosoon":0,"cond_shown":"Incongruent","ratio_trial":200,"L_num":7,"L_den":15,"R_num":6,"R_den":9,"correct_side":2,"subjID":"DylanLeonBedoya18","gender":"0","school":"6","age":"11"},{"start_time":1551793999192,"click_time":1551793999900,"finger_time":1551793999539,"fix_duration":391.16774795250785,"trial":12,"RT":347,"MT":361,"sideResp":2,"stimulus":[],"xmouse":[833,833,833,833,833,833,833,833,833,833,833,833,833,833,833,834,839,849,864,891,992,1043,1093,1148,1189,1229,1234,1235,1235,1235,1235,1235,1233,1222,1202,1145],"ymouse":[536,536,536,536,536,536,536,536,536,536,536,536,536,536,536,536,525,502,468,410,263,211,172,133,104,73,70,69,69,69,69,69,69,69,71,71],"timestamp_mouse":[7,36,46,66,86,107,126,146,166,186,206,227,247,268,286,307,327,347,368,387,408,426,447,467,486,506,526,547,566,586,607,627,647,667,687,708],"xSR":741.5,"ySR":494.65000000000003,"xT1":424.9,"yT1":0,"xT2":1058.1,"yT2":0,"toosoon":0,"cond_shown":"Incongruent","ratio_trial":200,"L_num":4,"L_den":6,"R_num":14,"R_den":30,"correct_side":1,"subjID":"DylanLeonBedoya18","gender":"0","school":"6","age":"11"},{"start_time":1551794003170,"click_time":1551794007000,"finger_time":1551794003499,"fix_duration":250,"trial":13,"RT":329,"MT":3501,"sideResp":1,"stimulus":[],"xmouse":[778,778,778,778,778,778,778,778,778,778,778,778,778,778,777,774,761,754,748,746,743,737,729,724,721,719,719,719,719,719,719,719,719,721,734,750,777,783,786,787,789,792,795,796,797,797,797,797,797,797,797,797,797,797,797,797,797,797,797,797,797,797,797,797,797,797,797,797,797,797,797,797,797,797,797,797,797,797,797,797,797,797,797,797,794,785,777,770,770,770,770,770,770,770,770,770,770,770,772,775,781,788,790,793,793,793,779,771,767,766,766,766,766,766,766,766,780,787,793,795,796,796,796,796,796,796,796,796,796,796,796,796,796,796,796,796,796,796,797,797,797,797,797,797,797,797,797,797,797,797,797,797,797,797,797,797,797,797,797,797,795,788,780,776,773,769,747,731,713,692,670,621,593,584,576,572,563,559,557,554,551,539,532,528,525,523,519,518,517,515,515,512],"ymouse":[553,553,553,553,553,553,553,553,553,553,553,553,553,553,551,534,464,432,412,400,393,373,357,348,342,339,339,339,339,339,339,339,339,342,365,398,460,476,486,492,500,514,527,535,539,541,541,541,541,541,541,541,541,541,541,541,541,541,541,541,541,541,541,541,541,541,541,541,541,541,541,541,541,541,541,541,541,541,541,541,541,541,541,541,541,533,524,514,513,513,513,513,513,513,513,513,513,513,513,513,515,518,517,499,466,406,296,270,255,249,247,247,247,247,247,250,289,317,344,373,404,451,474,488,497,503,509,509,509,509,509,509,512,516,519,521,521,521,522,522,522,522,522,522,522,522,522,522,522,522,522,522,522,522,522,522,522,522,522,522,522,510,497,492,490,487,478,471,460,441,407,310,249,227,209,195,169,159,153,146,142,131,126,122,119,116,111,107,105,103,102,94],"timestamp_mouse":[8,29,56,68,88,108,129,149,169,189,208,228,248,269,289,309,329,348,369,390,408,428,448,468,490,510,528,549,569,589,609,630,648,668,689,709,728,749,769,789,809,829,849,869,889,909,929,948,969,988,1008,1028,1050,1068,1089,1108,1128,1148,1169,1189,1208,1228,1248,1268,1288,1308,1329,1348,1369,1388,1408,1429,1449,1470,1488,1508,1528,1549,1569,1588,1608,1628,1648,1669,1689,1708,1729,1749,1769,1788,1808,1828,1849,1869,1889,1909,1928,1948,1968,1989,2009,2030,2049,2068,2089,2108,2128,2148,2168,2188,2208,2229,2248,2269,2289,2309,2329,2348,2369,2388,2408,2429,2448,2469,2489,2509,2529,2549,2570,2588,2609,2629,2650,2669,2689,2709,2730,2748,2769,2788,2808,2829,2849,2869,2888,2908,2928,2949,2968,2989,3009,3028,3049,3070,3088,3108,3128,3149,3169,3189,3209,3229,3249,3268,3289,3310,3329,3348,3369,3389,3408,3429,3448,3468,3489,3509,3529,3548,3569,3589,3608,3628,3648,3668,3689,3709,3729,3749,3768,3789,3808,3830],"xSR":741.5,"ySR":494.65000000000003,"xT1":424.9,"yT1":0,"xT2":1058.1,"yT2":0,"toosoon":0,"cond_shown":"Incongruent","ratio_trial":300,"L_num":3,"L_den":6,"R_num":4,"R_den":20,"correct_side":1,"subjID":"DylanLeonBedoya18","gender":"0","school":"6","age":"11"},{"start_time":1551794009080,"click_time":1551794010659,"finger_time":1551794009780,"fix_duration":1439.4272703157146,"trial":14,"RT":700,"MT":879,"sideResp":2,"stimulus":[],"xmouse":[769,769,769,769,769,769,769,769,769,769,769,769,769,769,769,769,769,769,769,769,769,769,769,769,769,769,769,769,769,769,769,769,766,753,736,654,600,539,520,514,513,513,513,513,513,513,513,513,513,513,513,513,513,513,513,516,522,538,566,612,679,804,866,921,960,1008,1008,1008,1008,1008,1008,1008,1008,1008,1008,1008,1008,1008,1088],"ymouse":[575,575,575,575,575,575,575,575,575,575,575,575,575,575,575,575,575,575,575,575,575,575,575,575,575,575,575,575,575,575,575,575,564,549,529,439,386,336,321,315,313,313,313,313,313,313,311,309,307,302,289,282,275,270,266,261,259,254,246,226,197,138,103,62,32,2,2,2,2,2,2,2,2,2,2,2,2,2,4],"timestamp_mouse":[31,38,58,80,99,119,140,159,178,198,218,239,259,279,298,319,339,359,379,399,418,438,459,478,498,519,539,560,579,599,618,639,659,679,700,719,739,759,779,800,820,839,858,878,898,918,939,958,978,998,1018,1038,1058,1079,1099,1120,1138,1159,1178,1200,1219,1238,1260,1280,1298,1319,1339,1358,1378,1398,1419,1440,1459,1478,1498,1518,1539,1560,1579],"xSR":741.5,"ySR":494.65000000000003,"xT1":424.9,"yT1":0,"xT2":1058.1,"yT2":0,"toosoon":0,"cond_shown":"Congruent","ratio_trial":300,"L_num":4,"L_den":10,"R_num":1,"R_den":10,"correct_side":1,"subjID":"DylanLeonBedoya18","gender":"0","school":"6","age":"11"},{"start_time":1551794012718,"click_time":1551794017318,"finger_time":1551794014519,"fix_duration":918.0810675400793,"trial":15,"RT":1801,"MT":2799,"sideResp":2,"stimulus":[],"xmouse":[772,772,772,772,772,772,772,772,772,772,772,772,772,772,772,772,772,772,772,772,772,772,772,772,772,772,772,772,772,772,772,772,772,772,772,772,772,772,772,772,772,772,772,772,772,772,772,772,772,772,772,772,772,772,772,772,772,772,772,772,772,772,772,772,772,772,772,772,772,772,772,772,772,772,772,772,772,772,772,774,775,776,776,776,776,776,776,776,776,776,776,776,776,776,776,776,776,776,776,779,781,784,788,796,809,818,823,827,830,834,835,836,838,838,839,841,843,844,845,849,850,851,852,854,854,854,855,856,856,858,859,859,860,860,860,860,861,862,863,867,870,877,888,905,951,974,1000,1011,1015,1016,1016,1016,1016,1017,1019,1019,1021,1021,1021,1024,1025,1026,1028,1029,1033,1035,1037,1037,1037,1038,1039,1039,1040,1040,1040,1040,1040,1040,1040,1040,1040,1040,1040,1040,1040,1040,1040,1040,1040,1040,1040,1040,1040,1040,1040,1040,1040,1040,1040,1040,1040,1040,1040,1040,1040,1040,1040,1040,1040,1040,1040,1040,1040,1040,1040,1040,1040,1040,1040,1040,1040,1040,1040,1041,1045,1047,1051,1052,1054,1058,1061],"ymouse":[519,519,519,519,519,519,519,519,519,519,519,519,519,519,519,519,519,519,519,519,519,519,519,519,519,519,519,519,519,519,519,519,519,519,519,519,519,519,519,519,519,519,519,519,519,519,519,519,519,519,519,519,519,519,519,519,519,519,519,519,519,519,519,519,519,519,519,519,519,519,519,519,519,519,519,519,519,519,519,513,508,506,504,503,503,503,503,502,500,495,493,488,485,482,476,473,471,469,467,455,442,428,412,386,337,305,287,273,263,250,245,242,237,234,229,226,222,218,215,206,202,199,197,194,192,191,188,187,185,180,179,178,177,177,176,175,174,173,171,165,163,157,148,137,116,109,106,106,105,105,105,105,105,105,103,103,103,103,102,100,99,98,97,95,91,90,88,88,88,87,87,87,86,86,86,86,86,86,86,86,86,86,86,86,86,86,86,86,86,86,86,86,86,86,86,86,86,86,86,86,86,86,86,86,86,86,86,86,86,86,86,86,86,86,86,86,86,86,86,86,86,86,86,86,84,84,83,82,82,80,80],"timestamp_mouse":[6,25,41,60,80,101,120,140,161,180,200,221,241,260,280,300,320,341,360,380,402,421,442,461,481,500,520,540,560,580,601,621,641,660,681,700,721,740,760,781,801,820,842,861,881,900,920,942,960,980,1001,1020,1040,1060,1081,1101,1121,1142,1161,1181,1200,1220,1240,1261,1281,1301,1320,1340,1362,1380,1400,1420,1441,1461,1480,1500,1521,1541,1561,1581,1601,1620,1641,1660,1680,1701,1721,1741,1760,1781,1801,1820,1841,1862,1881,1900,1921,1941,1961,1981,2001,2021,2042,2060,2080,2102,2121,2141,2161,2182,2201,2220,2240,2260,2281,2300,2321,2341,2360,2380,2400,2420,2440,2460,2480,2500,2521,2540,2560,2580,2600,2621,2641,2662,2681,2701,2721,2741,2761,2781,2801,2820,2840,2861,2881,2901,2921,2941,2961,2980,3001,3022,3040,3061,3080,3100,3120,3141,3161,3181,3200,3220,3241,3260,3281,3300,3320,3340,3361,3381,3401,3421,3441,3461,3481,3502,3520,3540,3562,3581,3600,3620,3640,3661,3682,3701,3721,3740,3760,3781,3800,3821,3842,3862,3881,3902,3920,3940,3961,3982,4002,4021,4040,4061,4081,4101,4121,4141,4160,4181,4200,4220,4241,4262,4281,4302,4321,4341,4361,4382,4401,4420,4440,4461,4481,4502,4521,4540,4561,4580,4600],"xSR":741.5,"ySR":494.65000000000003,"xT1":424.9,"yT1":0,"xT2":1058.1,"yT2":0,"toosoon":0,"cond_shown":"Congruent","ratio_trial":200,"L_num":8,"L_den":15,"R_num":2,"R_den":6,"correct_side":1,"subjID":"DylanLeonBedoya18","gender":"0","school":"6","age":"11"},{"start_time":1551794019131,"click_time":1551794020199,"finger_time":1551794019639,"fix_duration":410.6911153542833,"trial":16,"RT":508,"MT":560,"sideResp":1,"stimulus":[],"xmouse":[810,810,810,810,810,810,810,810,810,810,810,810,810,810,810,810,810,810,810,810,809,809,804,800,786,781,778,778,780,786,790,794,794,783,764,744,717,691,650,635,625,617,609,593,576,567,557,548,537,532,528,521,515,508],"ymouse":[528,528,528,528,528,528,528,528,528,528,528,528,528,528,528,528,528,528,528,528,528,528,524,518,501,493,486,480,460,445,429,408,383,327,290,266,238,218,189,180,174,169,164,154,145,142,138,134,129,124,117,109,102,87],"timestamp_mouse":[7,31,47,68,88,108,127,147,168,188,207,228,248,267,287,307,328,347,367,389,408,428,447,467,488,508,528,549,568,588,607,628,648,669,687,707,728,749,768,788,807,828,847,867,887,907,928,947,967,988,1007,1029,1047,1068],"xSR":741.5,"ySR":494.65000000000003,"xT1":424.9,"yT1":0,"xT2":1058.1,"yT2":0,"toosoon":0,"cond_shown":"Congruent","ratio_trial":100,"L_num":6,"L_den":12,"R_num":15,"R_den":25,"correct_side":2,"subjID":"DylanLeonBedoya18","gender":"0","school":"6","age":"11"},{"start_time":1551794022698,"click_time":1551794023758,"finger_time":1551794023319,"fix_duration":1478.6938104527928,"trial":17,"RT":621,"MT":439,"sideResp":2,"stimulus":[],"xmouse":[817,817,817,817,817,817,817,817,817,817,817,817,817,817,817,817,817,817,817,817,817,817,817,817,817,817,817,817,817,817,820,831,846,866,885,924,952,965,975,981,988,1002,1008,1012,1017,1027,1032,1035,1038,1042,1050,1055,1058,1061],"ymouse":[507,507,507,507,507,507,507,507,507,507,507,507,507,507,507,507,507,507,507,507,507,507,507,507,507,507,507,507,507,507,505,486,463,430,400,332,282,252,229,213,200,176,166,154,142,119,107,101,95,89,75,69,64,61],"timestamp_mouse":[6,30,41,61,82,101,120,141,161,181,200,220,240,261,281,300,320,341,361,381,400,420,440,460,481,501,522,540,560,580,601,621,641,661,680,701,720,741,762,781,801,820,840,861,880,900,920,941,961,981,1002,1021,1040,1060],"xSR":741.5,"ySR":494.65000000000003,"xT1":424.9,"yT1":0,"xT2":1058.1,"yT2":0,"toosoon":0,"cond_shown":"Congruent","ratio_trial":200,"L_num":3,"L_den":12,"R_num":9,"R_den":20,"correct_side":2,"subjID":"DylanLeonBedoya18","gender":"0","school":"6","age":"11"},{"start_time":1551794025898,"click_time":1551794026700,"finger_time":1551794026059,"fix_duration":797.772144731021,"trial":18,"RT":161,"MT":641,"sideResp":2,"stimulus":[],"xmouse":[804,804,804,804,804,805,820,829,834,838,848,859,870,880,893,915,928,937,944,950,957,960,963,965,968,975,979,988,995,1000,1013,1020,1034,1050,1059,1065,1067,1067,1067,1067,1068],"ymouse":[559,559,559,559,558,554,520,498,488,479,458,438,415,390,363,310,277,256,239,225,209,205,201,198,195,189,186,179,174,170,161,156,144,132,125,115,109,107,104,101,93],"timestamp_mouse":[6,30,40,60,81,101,120,141,161,180,201,221,241,260,280,301,320,340,360,380,400,421,441,461,481,501,521,541,561,580,601,620,640,661,681,700,721,740,761,780,802],"xSR":741.5,"ySR":494.65000000000003,"xT1":424.9,"yT1":0,"xT2":1058.1,"yT2":0,"toosoon":0,"cond_shown":"Congruent","ratio_trial":200,"L_num":4,"L_den":8,"R_num":3,"R_den":10,"correct_side":1,"subjID":"DylanLeonBedoya18","gender":"0","school":"6","age":"11"},{"start_time":1551794028336,"click_time":1551794030079,"finger_time":1551794029699,"fix_duration":836.4113814758286,"trial":19,"RT":1363,"MT":380,"sideResp":1,"stimulus":[],"xmouse":[752,752,752,752,752,752,752,752,752,752,752,752,752,752,752,752,752,752,752,752,752,752,752,752,752,752,752,752,752,752,752,752,752,752,752,752,752,752,752,752,752,752,752,752,752,752,752,752,752,752,752,752,752,752,752,752,752,752,752,752,752,752,752,752,752,752,750,742,667,624,582,547,524,495,486,481,477,473,469,467,467,467,467,469,471,472,473,474],"ymouse":[571,571,571,571,571,571,571,571,571,571,571,571,571,571,571,571,571,571,571,571,571,571,571,571,571,571,571,571,571,571,571,571,571,571,571,571,571,571,571,571,571,571,571,571,571,571,571,571,571,571,571,571,571,571,571,571,571,571,571,571,571,571,571,571,571,571,570,561,454,380,310,258,221,178,165,159,155,151,142,138,133,128,122,111,106,104,101,99],"timestamp_mouse":[8,25,43,63,82,104,123,142,163,182,202,222,243,263,282,302,323,343,363,384,404,422,442,463,483,503,522,542,563,582,604,623,642,663,683,703,723,742,762,783,803,822,843,863,883,902,922,944,962,982,1002,1023,1043,1063,1084,1104,1122,1144,1162,1182,1202,1223,1242,1264,1283,1303,1323,1343,1363,1382,1403,1423,1443,1462,1482,1503,1523,1543,1563,1583,1602,1622,1642,1663,1682,1702,1722,1742],"xSR":741.5,"ySR":494.65000000000003,"xT1":424.9,"yT1":0,"xT2":1058.1,"yT2":0,"toosoon":0,"cond_shown":"Incongruent","ratio_trial":300,"L_num":4,"L_den":5,"R_num":6,"R_den":12,"correct_side":1,"subjID":"DylanLeonBedoya18","gender":"0","school":"6","age":"11"},{"start_time":1551794031778,"click_time":1551794036618,"finger_time":1551794035619,"fix_duration":518.8581102499654,"trial":20,"RT":3841,"MT":999,"sideResp":2,"stimulus":[],"xmouse":[755,757,758,760,760,760,761,761,761,761,761,761,761,761,761,761,761,761,761,761,761,761,761,761,761,761,761,761,761,761,761,761,761,761,761,761,761,761,761,761,761,761,761,761,761,761,761,761,761,761,761,761,761,761,761,761,761,761,761,761,761,761,761,761,761,761,761,761,761,761,761,761,761,761,761,761,761,761,761,761,761,761,761,761,761,761,761,761,761,761,761,761,761,761,761,761,761,761,761,761,761,761,761,761,761,761,761,761,761,761,761,761,761,761,761,761,761,761,761,761,761,761,761,761,761,761,761,761,761,761,761,761,761,761,761,761,761,761,761,761,761,761,761,761,761,761,761,761,761,761,761,761,761,761,761,763,765,766,767,768,768,768,768,768,768,768,768,768,768,768,768,768,768,769,769,769,769,770,771,771,772,773,773,773,773,773,773,773,773,773,774,780,785,787,788,788,788,788,788,788,788,788,788,788,788,788,788,788,788,788,788,788,788,789,790,792,794,796,798,799,800,800,800,800,800,800,800,800,800,800,800,800,800,800,800,800,800,800,800,822,849,942,1129],"ymouse":[512,512,512,512,512,512,512,512,512,512,512,512,512,512,512,512,512,512,512,512,512,512,512,512,512,512,512,512,512,512,512,512,512,512,512,512,512,512,512,512,512,512,512,512,512,512,512,512,512,512,512,512,512,512,512,512,512,512,512,512,512,512,512,512,512,512,512,512,512,512,512,512,512,512,512,512,512,512,512,512,512,512,512,512,512,512,512,512,512,512,512,512,512,512,512,512,512,512,512,512,512,512,512,512,512,512,512,512,512,512,512,512,512,512,512,512,512,512,512,512,512,512,512,512,512,512,512,512,512,512,512,512,512,512,512,512,512,512,512,512,512,512,512,512,512,512,512,512,512,512,512,512,512,512,512,512,512,512,512,512,512,512,512,512,512,512,512,512,512,512,512,512,512,512,512,512,512,512,512,512,512,512,512,512,512,512,512,512,512,512,512,498,487,483,481,479,479,479,479,479,479,479,479,479,479,479,479,479,479,479,479,479,479,480,486,493,501,518,524,528,530,531,531,531,531,531,531,531,531,531,531,531,531,531,531,531,531,531,531,515,484,376,65],"timestamp_mouse":[2,34,41,60,80,100,120,140,160,180,201,221,242,260,280,300,321,341,361,380,401,421,440,460,480,501,521,541,560,580,601,621,641,660,680,700,721,741,761,781,800,821,842,862,881,900,920,940,960,981,1000,1020,1040,1062,1080,1100,1120,1140,1162,1181,1200,1220,1241,1261,1280,1301,1321,1341,1361,1380,1400,1420,1440,1461,1482,1501,1521,1540,1561,1580,1600,1622,1641,1662,1680,1700,1720,1741,1761,1780,1800,1821,1841,1860,1880,1900,1920,1940,1960,1981,2001,2020,2040,2060,2080,2100,2121,2141,2160,2181,2201,2221,2240,2260,2280,2300,2320,2340,2360,2381,2402,2420,2440,2460,2482,2501,2520,2540,2560,2581,2600,2620,2641,2661,2680,2700,2720,2741,2780,2780,2802,2820,2840,2860,2880,2901,2921,2941,2961,2981,3000,3020,3040,3060,3080,3101,3121,3140,3160,3180,3200,3220,3241,3261,3281,3301,3321,3340,3360,3380,3400,3420,3440,3461,3481,3500,3520,3541,3560,3580,3601,3622,3640,3662,3680,3701,3720,3740,3760,3780,3801,3820,3841,3861,3881,3901,3921,3941,3961,3980,4000,4020,4040,4060,4081,4101,4121,4140,4160,4180,4200,4221,4241,4261,4281,4300,4321,4341,4361,4381,4400,4421,4441,4461,4480,4501,4520,4540,4560,4581,4601,4620,4640,4660,4680,4700,4720,4740,4761,4781,4801,4821,4840],"xSR":741.5,"ySR":494.65000000000003,"xT1":424.9,"yT1":0,"xT2":1058.1,"yT2":0,"toosoon":0,"cond_shown":"Congruent","ratio_trial":100,"L_num":6,"L_den":12,"R_num":15,"R_den":25,"correct_side":2,"subjID":"DylanLeonBedoya18","gender":"0","school":"6","age":"11"},{"start_time":1551794082443,"click_time":1551794083578,"finger_time":1551794083498,"fix_duration":364.1468715567864,"trial":21,"RT":1055,"MT":80,"sideResp":1,"stimulus":[],"xmouse":[815,814,814,814,814,814,814,814,814,814,814,814,814,814,814,814,814,814,814,814,814,814,814,814,814,814,814,814,814,814,814,814,814,814,814,814,814,814,814,814,814,814,814,814,814,814,814,814,814,814,812,789,700,636,572,518,479],"ymouse":[583,582,582,582,582,582,582,582,582,582,582,582,582,582,582,582,582,582,582,582,582,582,582,582,582,582,582,582,582,582,582,582,582,582,582,582,582,582,582,582,582,582,582,582,582,582,582,582,582,582,572,534,391,299,207,138,92],"timestamp_mouse":[16,35,56,75,95,115,136,156,175,195,215,235,255,275,295,315,335,355,375,395,415,435,455,475,495,515,535,555,576,595,615,635,655,675,695,716,735,755,775,795,815,836,856,875,895,915,935,955,975,995,1015,1035,1055,1075,1095,1115,1135],"xSR":741.5,"ySR":494.65000000000003,"xT1":424.9,"yT1":0,"xT2":1058.1,"yT2":0,"toosoon":0,"cond_shown":"Incongruent","ratio_trial":200,"L_num":1,"L_den":2,"R_num":3,"R_den":10,"correct_side":1,"subjID":"DylanLeonBedoya18","gender":"0","school":"6","age":"11"},{"start_time":1551794085200,"click_time":1551794087158,"finger_time":1551794086118,"fix_duration":640.6023586086511,"trial":22,"RT":918,"MT":1040,"sideResp":1,"stimulus":[],"xmouse":[778,778,778,778,778,778,778,778,778,778,778,778,778,778,778,778,778,778,778,778,778,778,778,778,778,778,778,778,778,778,778,778,778,778,778,778,778,778,778,778,778,778,778,778,772,764,751,739,731,729,729,729,729,729,729,729,729,729,729,729,729,729,729,725,717,687,671,657,643,621,612,606,601,596,589,585,582,578,571,559,553,542,537,535,531,530,530,528,527,526,522,521,518,514,505,500,496,492],"ymouse":[537,537,537,537,537,537,537,537,537,537,537,537,537,537,537,537,537,537,537,537,537,537,537,537,537,537,537,537,537,537,537,537,537,537,537,537,537,537,537,537,537,537,537,537,514,474,421,372,344,329,328,328,328,328,328,328,328,328,328,328,328,328,328,323,315,292,282,271,262,249,244,242,238,235,228,223,219,213,204,187,179,168,164,161,153,149,146,142,139,133,126,124,120,117,109,104,100,97],"timestamp_mouse":[27,39,59,78,98,118,138,158,178,198,218,238,258,278,298,319,338,358,378,398,418,438,458,478,498,518,539,558,578,599,619,638,659,678,698,718,738,758,778,799,818,839,859,878,898,918,938,959,978,999,1019,1038,1058,1078,1099,1118,1138,1158,1178,1198,1219,1239,1258,1278,1298,1318,1338,1358,1378,1398,1419,1438,1458,1478,1498,1518,1538,1559,1578,1598,1618,1638,1658,1679,1698,1718,1738,1758,1778,1798,1820,1838,1858,1878,1898,1918,1938,1958],"xSR":741.5,"ySR":494.65000000000003,"xT1":424.9,"yT1":0,"xT2":1058.1,"yT2":0,"toosoon":0,"cond_shown":"Incongruent","ratio_trial":100,"L_num":6,"L_den":10,"R_num":13,"R_den":26,"correct_side":1,"subjID":"DylanLeonBedoya18","gender":"0","school":"6","age":"11"},{"start_time":1551794090641,"click_time":1551794093258,"finger_time":1551794092338,"fix_duration":1042.0364024060168,"trial":23,"RT":1697,"MT":920,"sideResp":1,"stimulus":[],"xmouse":[800,800,800,800,800,800,800,800,800,800,800,800,800,800,800,800,800,800,800,800,800,800,800,800,800,800,800,800,800,800,800,800,800,800,800,800,800,800,800,800,800,800,800,800,800,800,800,800,800,800,800,800,799,799,797,795,791,786,786,786,786,786,786,786,786,786,786,786,786,786,786,786,786,786,786,786,786,786,786,786,786,786,786,779,767,748,733,724,724,724,724,724,724,724,724,724,724,724,724,724,724,724,724,724,724,724,720,703,699,688,678,668,652,643,634,626,617,597,587,584,582,580,573,566,560,556,552,543,534,525,519],"ymouse":[570,570,570,570,570,570,570,570,570,570,570,570,570,570,570,570,570,570,570,570,570,570,570,570,570,570,570,570,570,570,570,570,570,570,570,570,570,570,570,570,570,570,570,570,570,570,570,570,570,570,570,566,559,556,551,544,535,523,521,520,520,520,520,520,520,520,520,520,520,520,520,520,520,520,520,520,520,520,520,520,520,520,520,509,487,459,438,425,425,425,425,425,425,425,425,425,425,425,425,425,425,425,425,425,425,425,421,397,391,375,363,352,331,315,300,285,269,241,225,218,214,209,191,180,171,162,155,139,119,103,94],"timestamp_mouse":[17,37,58,78,98,117,137,157,177,197,217,237,257,277,297,317,337,357,377,398,417,437,457,477,497,517,537,558,578,597,617,637,657,677,698,717,737,757,777,798,817,837,857,877,897,917,938,957,977,997,1017,1037,1057,1077,1097,1117,1137,1157,1177,1197,1217,1237,1257,1278,1297,1317,1337,1357,1378,1397,1417,1437,1457,1477,1497,1517,1537,1557,1577,1597,1617,1637,1657,1677,1697,1717,1737,1758,1777,1797,1817,1839,1859,1878,1897,1917,1938,1958,1978,1997,2018,2037,2058,2077,2097,2117,2137,2158,2177,2197,2217,2237,2257,2277,2297,2317,2337,2357,2377,2397,2417,2437,2458,2477,2497,2517,2537,2557,2578,2597,2617],"xSR":741.5,"ySR":494.65000000000003,"xT1":424.9,"yT1":0,"xT2":1058.1,"yT2":0,"toosoon":0,"cond_shown":"Congruent","ratio_trial":300,"L_num":20,"L_den":25,"R_num":13,"R_den":26,"correct_side":1,"subjID":"DylanLeonBedoya18","gender":"0","school":"6","age":"11"},{"start_time":1551794095507,"click_time":1551794111118,"finger_time":1551794108398,"fix_duration":1447.1585969108344,"trial":24,"RT":12891,"MT":2720,"sideResp":2,"stimulus":[],"xmouse":[837,837,837,837,837,837,837,837,837,837,837,837,837,837,837,837,837,837,837,837,837,837,837,837,838,838,839,840,841,841,841,841,841,841,841,841,841,841,841,841,841,841,841,841,841,841,841,841,841,841,841,841,841,841,841,841,841,841,841,841,841,841,841,841,841,841,841,841,841,841,841,841,841,841,841,841,841,841,841,841,841,841,841,841,841,841,841,841,841,841,841,841,841,841,841,841,841,841,841,841,841,841,841,841,841,841,841,841,841,841,841,841,841,841,841,841,841,841,841,841,841,841,841,841,841,841,841,841,841,841,841,841,841,841,841,841,841,841,841,841,841,841,841,841,841,841,841,841,841,841,841,841,841,841,841,841,841,841,841,841,841,841,841,841,841,841,841,841,841,841,841,841,841,841,841,841,841,841,841,841,841,841,841,841,841,841,841,841,841,841,841,841,841,841,841,841,841,841,841,841,841,841,841,841,841,841,841,841,841,841,841,841,841,841,841,841,841,841,841,841,841,841,841,841,841,841,841,841,841,841,841,841,841,841,841,841,841,841,841,841,841,841,841,841,841,841,841,841,841,841,841,841,841,841,841,841,841,841,841,841,841,841,841,841,841,841,841,841,841,841,841,841,841,841,841,841,841,841,841,841,841,841,841,841,841,841,841,841,841,841,841,841,841,841,841,841,841,841,841,841,841,841,841,841,841,841,841,841,841,841,841,841,841,841,841,841,841,841,841,841,841,841,841,841,841,841,841,841,841,841,841,841,841,841,841,841,841,841,841,841,841,841,841,841,841,841,841,841,841,841,841,841,841,841,841,841,841,841,841,841,841,841,841,841,841,841,841,841,841,841,841,841,841,841,841,841,841,841,841,841,841,841,841,841,841,841,841,841,841,841,841,841,841,841,841,841,841,841,841,841,841,841,841,841,841,841,841,841,841,841,841,841,841,841,841,841,841,841,841,841,841,841,841,841,841,841,841,841,841,841,841,841,841,841,841,841,841,841,841,841,841,841,841,841,841,841,841,841,841,841,841,841,841,841,841,841,841,841,841,841,841,841,841,841,841,841,841,841,841,841,841,841,841,841,841,841,841,841,841,841,841,841,841,841,841,841,841,841,841,841,841,841,841,841,841,841,841,841,841,841,841,841,841,841,841,841,841,841,841,841,841,841,841,841,841,841,841,841,841,841,841,841,841,841,841,841,841,841,841,841,841,841,841,841,841,841,841,841,841,841,841,841,841,841,841,841,841,841,841,841,841,841,841,841,841,841,841,841,841,841,841,841,841,841,841,841,841,841,841,841,841,841,841,841,841,841,841,841,841,841,841,841,841,841,841,841,841,841,841,841,841,841,841,841,841,841,841,841,841,841,841,841,841,841,841,841,841,841,841,841,841,841,841,841,841,841,841,841,841,841,841,841,841,841,841,841,841,841,841,841,841,841,841,841,841,841,841,841,841,841,841,841,841,841,842,842,841,841,841,841,841,841,841,841,841,841,841,841,841,841,841,841,841,837,836,836,839,843,844,844,844,844,844,844,844,843,833,827,820,810,809,809,809,809,809,809,809,809,809,809,809,809,809,809,809,810,812,816,819,820,821,821,821,821,821,821,821,821,821,821,821,821,821,821,821,821,821,821,821,814,802,787,766,747,730,730,730,730,730,739,796,899,1038,1218,1502,1502,1502,1502,1502,1502,1502,1502,1502,1502,1502,1552,1498,1425,1335,1167,1086,1021,976,951,924,912,903,891,875,834,817,808,805,805,831,882,944,1000,1033,1043,1043,1042,1036,1026,1005,998,996,996,1001,1022,1074],"ymouse":[535,535,535,535,535,535,535,535,535,535,535,535,535,535,535,535,535,535,535,535,535,535,535,535,537,537,537,537,537,537,537,537,537,537,537,537,537,537,537,537,537,537,537,537,537,537,537,537,537,537,537,537,537,537,537,537,537,537,537,537,537,537,537,537,537,537,537,537,537,537,537,537,537,537,537,537,537,537,537,537,537,537,537,537,537,537,537,537,537,537,537,537,537,537,537,537,537,537,537,537,537,537,537,537,537,537,537,537,537,537,537,537,537,537,537,537,537,537,537,537,537,537,537,537,537,537,537,537,537,537,537,537,537,537,537,537,537,537,537,537,537,537,537,537,537,537,537,537,537,537,537,537,537,537,537,537,537,537,537,537,537,537,537,537,537,537,537,537,537,537,537,537,537,537,537,537,537,537,537,537,537,537,537,537,537,537,537,537,537,537,537,537,537,537,537,537,537,537,537,537,537,537,537,537,537,537,537,537,537,537,537,537,537,537,537,537,537,537,537,537,537,537,537,537,537,537,537,537,537,537,537,537,537,537,537,537,537,537,537,537,537,537,537,537,537,537,537,537,537,537,537,537,537,537,537,537,537,537,537,537,537,537,537,537,537,537,537,537,537,537,537,537,537,537,537,537,537,537,537,537,537,537,537,537,537,537,537,537,537,537,537,537,537,537,537,537,537,537,537,537,537,537,537,537,537,537,537,537,537,537,537,537,537,537,537,537,537,537,537,537,537,537,537,537,537,537,537,537,537,537,537,537,537,537,537,537,537,537,537,537,537,537,537,537,537,537,537,537,537,537,537,537,537,537,537,537,537,537,537,537,537,537,537,537,537,537,537,537,537,537,537,537,537,537,537,537,537,537,537,537,537,537,537,537,537,537,537,537,537,537,537,537,537,537,537,537,537,537,537,537,537,537,537,537,537,537,537,537,537,537,537,537,537,537,537,537,537,537,537,537,537,537,537,537,537,537,537,537,537,537,537,537,537,537,537,537,537,537,537,537,537,537,537,537,537,537,537,537,537,537,537,537,537,537,537,537,537,537,537,537,537,537,537,537,537,537,537,537,537,537,537,537,537,537,537,537,537,537,537,537,537,537,537,537,537,537,537,537,537,537,537,537,537,537,537,537,537,537,537,537,537,537,537,537,537,537,537,537,537,537,537,537,537,537,537,537,537,537,537,537,537,537,537,537,537,537,537,537,537,537,537,537,537,537,537,537,537,537,537,537,537,537,537,537,537,537,537,537,537,537,537,537,537,537,537,537,537,537,537,537,537,537,537,537,537,537,537,537,537,537,537,537,537,537,537,537,537,537,537,537,537,537,537,537,537,537,537,537,537,537,537,537,537,537,537,537,537,537,537,537,537,537,537,537,537,537,537,537,537,537,537,537,537,537,537,537,537,537,537,537,537,537,537,537,537,537,537,537,537,537,537,537,537,537,537,537,537,537,537,537,537,537,537,537,530,511,494,494,494,494,494,494,494,494,494,494,494,494,494,494,494,494,493,493,508,546,564,574,576,576,576,576,576,576,576,576,563,557,553,548,547,547,547,547,547,547,547,547,547,547,547,547,547,547,547,547,547,547,548,549,549,549,549,549,549,549,549,549,549,549,549,549,549,549,549,549,549,549,549,551,551,549,542,537,532,532,532,532,532,522,487,434,381,336,320,320,320,320,320,320,320,320,320,320,320,365,371,381,394,394,394,394,394,388,381,379,379,382,396,459,484,497,501,501,455,379,299,235,203,196,196,201,216,233,262,265,264,246,205,149,52],"timestamp_mouse":[13,37,51,71,91,111,132,151,171,191,211,231,252,271,291,311,331,351,373,391,411,432,451,471,492,511,531,551,571,591,611,632,651,671,691,711,731,752,771,791,811,831,851,872,891,911,931,951,971,991,1011,1031,1051,1071,1091,1111,1131,1151,1172,1191,1211,1231,1251,1272,1291,1311,1331,1351,1371,1392,1411,1432,1451,1471,1491,1511,1531,1551,1571,1591,1613,1631,1651,1671,1691,1711,1731,1751,1771,1791,1811,1831,1851,1872,1891,1911,1931,1951,1971,1992,2011,2031,2051,2071,2091,2112,2131,2151,2171,2191,2211,2231,2252,2271,2291,2312,2331,2351,2371,2391,2411,2432,2451,2471,2491,2511,2531,2552,2571,2591,2611,2631,2651,2671,2692,2711,2731,2751,2771,2791,2812,2831,2851,2871,2891,2912,2931,2951,2971,2991,3011,3031,3051,3071,3091,3111,3131,3151,3173,3191,3211,3231,3251,3271,3292,3311,3331,3351,3371,3391,3412,3431,3451,3471,3491,3511,3531,3551,3571,3591,3611,3631,3651,3672,3691,3711,3731,3751,3771,3792,3811,3831,3851,3871,3892,3913,3931,3951,3971,3991,4011,4031,4051,4071,4091,4111,4131,4151,4171,4191,4211,4231,4251,4271,4291,4311,4331,4351,4372,4391,4411,4431,4451,4471,4491,4511,4531,4551,4571,4591,4611,4631,4651,4671,4691,4711,4731,4752,4771,4791,4811,4831,4851,4871,4891,4911,4931,4951,4971,4991,5011,5032,5052,5071,5091,5111,5131,5151,5171,5191,5211,5231,5251,5271,5292,5312,5331,5351,5371,5391,5411,5431,5451,5471,5492,5511,5531,5551,5571,5591,5612,5631,5652,5672,5691,5711,5731,5751,5771,5791,5812,5831,5851,5871,5891,5911,5931,5952,5971,5991,6011,6031,6051,6072,6091,6111,6131,6151,6171,6191,6212,6231,6251,6271,6291,6311,6331,6352,6372,6391,6411,6432,6451,6471,6491,6511,6531,6552,6571,6591,6611,6631,6651,6671,6691,6711,6731,6751,6771,6791,6811,6831,6851,6871,6891,6912,6931,6951,6971,6991,7011,7031,7051,7071,7091,7111,7131,7151,7171,7191,7211,7231,7251,7271,7291,7312,7331,7351,7371,7391,7411,7431,7451,7471,7491,7511,7531,7551,7571,7591,7611,7631,7651,7672,7691,7711,7731,7751,7771,7792,7811,7831,7851,7871,7892,7911,7931,7951,7971,7991,8012,8031,8051,8071,8091,8111,8131,8152,8171,8191,8211,8231,8251,8271,8291,8311,8331,8351,8372,8391,8411,8431,8451,8471,8492,8511,8531,8551,8571,8591,8612,8631,8651,8671,8691,8711,8732,8751,8771,8791,8811,8831,8852,8873,8891,8911,8931,8951,8972,8991,9011,9031,9051,9071,9091,9112,9131,9151,9171,9191,9211,9231,9252,9271,9291,9311,9331,9351,9372,9391,9411,9431,9451,9471,9492,9511,9531,9551,9571,9591,9611,9631,9651,9671,9691,9711,9731,9751,9771,9791,9811,9831,9851,9871,9891,9911,9931,9951,9971,9991,10011,10032,10052,10071,10091,10111,10131,10151,10171,10191,10211,10231,10251,10271,10291,10311,10331,10351,10372,10391,10411,10431,10451,10471,10492,10511,10531,10551,10571,10591,10611,10631,10651,10671,10691,10711,10731,10752,10771,10791,10811,10831,10851,10873,10891,10911,10931,10951,10971,10991,11011,11031,11051,11071,11091,11111,11132,11151,11171,11191,11211,11231,11251,11271,11291,11311,11331,11351,11371,11391,11411,11431,11451,11472,11492,11511,11531,11551,11571,11592,11611,11631,11651,11671,11692,11711,11731,11751,11771,11791,11811,11831,11851,11872,11891,11911,11931,11951,11971,11991,12011,12031,12051,12071,12091,12111,12132,12151,12171,12191,12211,12233,12251,12271,12291,12312,12331,12351,12371,12391,12411,12431,12451,12471,12491,12511,12532,12551,12571,12591,12611,12631,12652,12671,12692,12713,12731,12751,12771,12791,12811,12831,12851,12871,12891,12911,12931,12952,12971,12991,13011,13031,13051,13071,13091,13111,13131,13151,13172,13192,13211,13231,13251,13271,13291,13311,13331,13351,13371,13391,13412,13432,13451,13471,13491,13511,13531,13551,13571,13591,13611,13631,13652,13671,13693,13711,13731,13752,13771,13792,13812,13831,13851,13871,13892,13911,13931,13951,13971,13991,14012,14031,14052,14071,14091,14111,14131,14151,14171,14191,14211,14231,14251,14271,14291,14311,14331,14352,14372,14391,14411,14431,14451,14471,14491,14511,14531,14551,14571,14592,14611,14632,14651,14671,14692,14711,14731,14751,14771,14792,14811,14831,14851,14871,14891,14911,14931,14951,14972,14991,15011,15031,15051,15071,15091,15111,15131,15151,15172,15191,15211,15232,15251,15271,15292,15311,15331,15351,15371,15391,15411,15432,15451,15471,15491,15511,15531,15551,15571,15591,15611],"xSR":741.5,"ySR":494.65000000000003,"xT1":424.9,"yT1":0,"xT2":1058.1,"yT2":0,"toosoon":0,"cond_shown":"Incongruent","ratio_trial":100,"L_num":17,"L_den":30,"R_num":10,"R_den":15,"correct_side":2,"subjID":"DylanLeonBedoya18","gender":"0","school":"6","age":"11"},{"start_time":1551794113448,"click_time":1551794114859,"finger_time":1551794114498,"fix_duration":1447.8688874835295,"trial":25,"RT":1050,"MT":361,"sideResp":2,"stimulus":[],"xmouse":[802,802,802,802,802,802,802,802,802,802,802,802,802,802,802,802,802,802,802,802,802,802,802,802,802,802,802,802,802,802,802,802,802,802,802,802,802,802,802,802,802,802,802,802,802,802,802,802,802,802,802,806,851,880,909,937,963,991,1004,1010,1015,1021,1030,1035,1039,1043,1045,1050,1056,1058,1059],"ymouse":[517,517,517,517,517,517,517,517,517,517,517,517,517,517,517,517,517,517,517,517,517,517,517,517,517,517,517,517,517,517,517,517,517,517,517,517,517,517,517,517,517,517,517,517,517,517,517,517,517,517,517,509,430,388,351,315,276,232,202,188,175,165,145,136,127,120,115,104,94,90,87],"timestamp_mouse":[10,30,51,70,90,110,130,150,170,190,211,230,250,270,290,310,330,350,370,391,410,430,450,470,490,510,530,550,570,591,610,630,650,670,690,710,730,750,770,790,810,830,851,870,890,910,930,951,970,990,1010,1030,1050,1070,1090,1110,1130,1150,1170,1190,1210,1230,1250,1270,1290,1310,1330,1350,1371,1390,1410],"xSR":741.5,"ySR":494.65000000000003,"xT1":424.9,"yT1":0,"xT2":1058.1,"yT2":0,"toosoon":0,"cond_shown":"Congruent","ratio_trial":100,"L_num":12,"L_den":30,"R_num":13,"R_den":26,"correct_side":2,"subjID":"DylanLeonBedoya18","gender":"0","school":"6","age":"11"},{"start_time":1551794116250,"click_time":1551794117458,"finger_time":1551794117258,"fix_duration":250,"trial":26,"RT":1008,"MT":200,"sideResp":2,"stimulus":[],"xmouse":[826,826,826,826,826,826,826,826,826,826,826,826,826,826,826,826,826,826,826,826,826,826,826,826,826,826,826,826,826,826,826,826,826,826,826,826,826,826,826,826,826,826,826,826,826,826,828,830,830,831,833,835,860,888,928,976,1029,1112,1130,1144,1150],"ymouse":[541,541,541,541,541,541,541,541,541,541,541,541,541,541,541,541,541,541,541,541,541,541,541,541,541,541,541,541,541,541,541,541,541,541,541,541,541,541,541,541,541,541,541,541,541,539,533,511,502,499,494,483,432,386,331,270,217,132,114,101,91],"timestamp_mouse":[8,34,48,68,88,109,128,148,168,188,208,228,249,268,288,308,328,348,368,388,408,429,449,469,488,508,528,548,568,588,609,628,648,668,688,708,728,748,768,788,808,828,849,868,890,908,929,948,969,988,1008,1028,1048,1068,1088,1109,1129,1149,1168,1188,1208],"xSR":741.5,"ySR":494.65000000000003,"xT1":424.9,"yT1":0,"xT2":1058.1,"yT2":0,"toosoon":0,"cond_shown":"Congruent","ratio_trial":300,"L_num":5,"L_den":25,"R_num":6,"R_den":12,"correct_side":2,"subjID":"DylanLeonBedoya18","gender":"0","school":"6","age":"11"},{"start_time":1551794118453,"click_time":1551794120198,"finger_time":1551794119818,"fix_duration":355.4661578679674,"trial":27,"RT":1365,"MT":380,"sideResp":1,"stimulus":[],"xmouse":[834,834,834,834,834,834,834,834,834,834,834,834,834,834,834,834,834,834,834,834,834,834,834,834,834,834,834,834,834,834,834,834,834,834,834,834,834,834,834,834,834,834,834,834,834,834,834,834,834,834,834,834,834,834,834,834,834,834,834,834,834,834,834,834,834,834,833,808,762,733,703,680,644,637,633,629,624,615,608,604,601,596,582,571,558,546,534,516],"ymouse":[538,538,538,538,538,538,538,538,538,538,538,538,538,538,538,538,538,538,538,538,538,538,538,538,538,538,538,538,538,538,538,538,538,538,538,538,538,538,538,538,538,538,538,538,538,538,538,538,538,538,538,538,538,538,538,538,538,538,538,538,538,538,538,538,538,538,538,509,432,377,324,277,207,189,177,167,155,136,123,119,114,108,98,90,82,73,66,53],"timestamp_mouse":[6,25,46,66,85,105,125,146,165,185,206,225,245,266,285,305,325,346,365,385,407,425,445,465,485,505,525,545,565,585,605,625,646,665,685,705,725,746,765,785,805,825,845,865,885,905,925,945,965,985,1005,1025,1045,1066,1085,1105,1125,1145,1165,1185,1205,1225,1245,1265,1285,1306,1325,1345,1365,1385,1405,1425,1445,1465,1486,1505,1525,1545,1566,1585,1605,1625,1645,1665,1685,1705,1725,1745],"xSR":741.5,"ySR":494.65000000000003,"xT1":424.9,"yT1":0,"xT2":1058.1,"yT2":0,"toosoon":0,"cond_shown":"Congruent","ratio_trial":100,"L_num":6,"L_den":20,"R_num":5,"R_den":25,"correct_side":1,"subjID":"DylanLeonBedoya18","gender":"0","school":"6","age":"11"},{"start_time":1551794121628,"click_time":1551794122738,"finger_time":1551794122398,"fix_duration":569.6107598954792,"trial":28,"RT":770,"MT":340,"sideResp":2,"stimulus":[],"xmouse":[783,783,783,783,783,783,783,783,783,783,783,783,783,783,783,783,783,783,783,783,783,783,783,783,783,783,783,783,783,783,783,783,783,783,783,783,783,784,791,824,860,897,936,989,1002,1010,1016,1021,1028,1034,1039,1042,1046,1054,1058,1059],"ymouse":[510,510,510,510,510,510,510,510,510,510,510,510,510,510,510,510,510,510,510,510,510,510,510,510,510,510,510,510,510,510,510,510,510,510,510,510,510,510,494,436,373,309,249,170,148,132,118,107,94,85,78,74,70,64,62,62],"timestamp_mouse":[10,33,50,70,90,110,130,150,170,190,211,231,250,270,290,310,330,350,370,390,411,431,450,470,490,510,530,550,570,590,611,630,650,670,690,710,730,750,770,790,810,832,851,870,890,910,930,950,970,991,1010,1031,1051,1070,1090,1110],"xSR":741.5,"ySR":494.65000000000003,"xT1":424.9,"yT1":0,"xT2":1058.1,"yT2":0,"toosoon":0,"cond_shown":"Incongruent","ratio_trial":300,"L_num":13,"L_den":26,"R_num":12,"R_den":15,"correct_side":2,"subjID":"DylanLeonBedoya18","gender":"0","school":"6","age":"11"},{"start_time":1551794123796,"click_time":1551794124478,"finger_time":1551794124238,"fix_duration":296.67581937421295,"trial":29,"RT":442,"MT":240,"sideResp":1,"stimulus":[],"xmouse":[785,785,785,785,785,785,785,785,785,785,785,785,785,785,785,785,785,785,785,784,771,750,722,683,641,580,567,560,556,552,542,534,529,525,522],"ymouse":[555,555,555,555,555,555,555,555,555,555,555,555,555,555,555,555,555,555,556,554,530,497,459,407,347,261,238,221,206,192,158,131,114,100,89],"timestamp_mouse":[9,31,42,63,82,102,122,142,162,183,202,222,242,262,282,303,322,342,362,382,402,422,442,462,482,502,522,543,562,582,602,622,642,662,682],"xSR":741.5,"ySR":494.65000000000003,"xT1":424.9,"yT1":0,"xT2":1058.1,"yT2":0,"toosoon":0,"cond_shown":"Incongruent","ratio_trial":300,"L_num":8,"L_den":10,"R_num":9,"R_den":18,"correct_side":1,"subjID":"DylanLeonBedoya18","gender":"0","school":"6","age":"11"},{"start_time":1551794127133,"click_time":1551794134158,"finger_time":1551794128019,"fix_duration":471.1727382045843,"trial":30,"RT":886,"MT":6139,"sideResp":2,"stimulus":[],"xmouse":[787,787,787,787,787,787,787,787,787,787,787,787,787,787,787,787,787,787,787,787,787,787,787,787,787,787,787,787,787,787,787,787,787,787,787,787,787,787,787,787,787,787,786,775,737,691,646,607,537,509,487,467,448,409,384,369,353,337,306,292,281,268,258,241,233,226,219,213,206,194,189,189,189,189,189,189,189,189,189,189,189,189,189,189,189,189,189,189,189,189,189,189,189,189,189,189,189,189,189,189,189,189,189,189,189,189,189,189,189,189,189,189,189,189,189,189,189,189,189,189,189,189,189,189,189,189,189,189,189,189,189,189,189,189,189,189,189,189,189,189,189,189,189,189,189,189,189,189,189,189,189,189,189,189,189,189,189,189,189,189,189,189,189,189,189,189,189,189,189,189,189,189,189,189,189,189,189,189,189,189,189,189,189,189,189,189,189,189,189,189,189,189,189,189,189,189,189,189,189,189,189,189,189,189,189,189,189,189,189,189,189,189,189,232,230,226,215,215,215,215,215,215,215,215,215,215,215,215,215,215,215,215,215,215,215,215,215,215,215,215,215,215,215,215,215,215,215,215,215,215,215,215,215,215,215,215,215,215,215,215,215,215,215,215,127,170,222,280,388,430,459,492,520,563,590,606,618,629,662,680,694,711,723,733,736,741,746,751,757,757,757,757,757,757,757,757,757,757,757,757,757,757,757,757,757,757,757,757,757,757,757,757,761,764,772,773,773,773,776,779,780,781,781,781,781,781,781,781,781,781,781,781,781,781,781,781,781,782,782,783,783,783,783,783,786,802,842,901,966,1061,1085,1093],"ymouse":[511,511,511,511,511,511,511,511,511,511,511,511,511,511,511,511,511,511,511,511,511,511,511,511,511,511,511,511,511,511,511,511,511,511,511,511,511,511,511,511,511,511,509,504,485,458,432,401,335,302,278,259,242,211,194,185,176,166,146,135,126,116,105,80,70,63,54,45,33,11,3,3,3,3,3,3,3,3,3,3,3,3,3,3,3,3,3,3,3,3,3,3,3,3,3,3,3,3,3,3,3,3,3,3,3,3,3,3,3,3,3,3,3,3,3,3,3,3,3,3,3,3,3,3,3,3,3,3,3,3,3,3,3,3,3,3,3,3,3,3,3,3,3,3,3,3,3,3,3,3,3,3,3,3,3,3,3,3,3,3,3,3,3,3,3,3,3,3,3,3,3,3,3,3,3,3,3,3,3,3,3,3,3,3,3,3,3,3,3,3,3,3,3,3,3,3,3,3,3,3,3,3,3,3,3,3,3,3,3,3,3,3,3,3,3,3,1,1,1,1,1,1,1,1,1,1,1,1,1,1,1,1,1,1,1,1,1,1,1,1,1,1,1,1,1,1,1,1,1,1,1,1,1,1,1,1,1,1,1,1,1,1,1,1,30,70,115,159,241,274,299,327,360,411,443,462,474,484,509,519,527,535,539,542,542,542,542,542,542,542,542,542,542,542,542,542,542,542,542,542,542,542,542,542,542,542,542,542,542,542,542,542,542,542,542,542,542,542,542,542,542,542,542,542,542,542,542,542,542,542,542,542,542,542,542,542,542,542,539,537,537,537,537,537,528,505,446,359,276,142,109,97],"timestamp_mouse":[8,27,45,67,85,105,126,145,165,185,205,225,245,265,286,306,325,345,365,385,405,425,445,465,485,506,526,545,565,585,605,625,645,665,685,706,725,745,765,785,807,825,845,865,886,905,926,945,965,985,1005,1025,1045,1065,1086,1105,1125,1145,1165,1185,1205,1225,1246,1265,1285,1305,1325,1345,1365,1386,1406,1425,1445,1466,1485,1505,1526,1546,1565,1585,1606,1626,1646,1666,1685,1705,1725,1745,1765,1786,1806,1825,1846,1865,1885,1905,1925,1946,1965,1986,2005,2025,2045,2067,2085,2105,2125,2146,2165,2185,2206,2226,2246,2265,2285,2305,2325,2345,2366,2386,2405,2425,2445,2466,2486,2507,2525,2547,2566,2585,2606,2625,2645,2665,2685,2705,2726,2746,2766,2787,2806,2825,2845,2866,2886,2905,2925,2945,2966,2986,3007,3026,3046,3066,3086,3106,3125,3146,3166,3187,3206,3225,3245,3265,3285,3305,3325,3346,3365,3385,3405,3425,3446,3466,3485,3506,3526,3545,3565,3585,3606,3626,3645,3665,3685,3705,3727,3747,3766,3785,3805,3826,3846,3866,3885,3905,3926,3945,3965,3986,4006,4025,4045,4066,4086,4105,4125,4146,4166,4185,4205,4225,4245,4266,4285,4305,4326,4346,4365,4385,4405,4425,4445,4465,4486,4505,4526,4546,4565,4586,4605,4625,4645,4665,4685,4706,4725,4746,4765,4785,4806,4825,4846,4867,4885,4905,4925,4945,4966,4985,5006,5025,5045,5065,5086,5107,5127,5146,5165,5185,5205,5226,5246,5265,5286,5305,5327,5345,5366,5385,5405,5425,5445,5465,5485,5505,5525,5546,5565,5585,5606,5626,5645,5665,5686,5705,5725,5745,5766,5785,5805,5825,5845,5865,5885,5905,5925,5945,5966,5986,6005,6025,6045,6067,6085,6105,6125,6145,6166,6185,6205,6225,6245,6265,6286,6305,6325,6345,6365,6385,6405,6425,6445,6466,6485,6505,6525,6545,6565,6585,6606,6625,6645,6665,6685,6707,6725,6745,6765,6785,6805,6825,6846,6866,6885,6905,6925,6945,6965,6985,7005,7025],"xSR":741.5,"ySR":494.65000000000003,"xT1":424.9,"yT1":0,"xT2":1058.1,"yT2":0,"toosoon":0,"cond_shown":"Congruent","ratio_trial":100,"L_num":1,"L_den":2,"R_num":3,"R_den":5,"correct_side":2,"subjID":"DylanLeonBedoya18","gender":"0","school":"6","age":"11"},{"start_time":1551794142940,"click_time":1551794144178,"finger_time":1551794143737,"fix_duration":1320.1189159837559,"trial":31,"RT":797,"MT":441,"sideResp":2,"stimulus":[],"xmouse":[814,814,814,814,814,814,814,814,814,814,814,814,814,814,814,814,813,813,813,813,813,813,813,813,813,813,813,813,813,813,813,813,813,813,813,813,813,822,838,868,912,943,982,1006,1017,1026,1030,1037,1040,1044,1047,1047,1047,1047,1047,1048,1051,1066,1071,1079,1084,1085],"ymouse":[569,569,569,569,569,569,569,565,561,560,559,559,559,558,558,558,557,557,557,557,557,557,557,557,557,557,557,557,557,557,557,557,557,557,557,557,554,534,505,457,392,348,294,261,245,234,227,216,212,207,204,204,204,204,204,203,195,162,145,126,109,97],"timestamp_mouse":[17,37,58,77,97,117,137,157,177,197,217,237,257,277,297,317,337,358,377,397,417,437,457,478,497,517,537,557,577,598,618,638,657,677,697,717,737,757,777,797,817,837,857,878,897,918,938,958,977,997,1017,1037,1057,1077,1097,1117,1138,1158,1177,1197,1218,1238],"xSR":741.5,"ySR":494.65000000000003,"xT1":424.9,"yT1":0,"xT2":1058.1,"yT2":0,"toosoon":0,"cond_shown":"Incongruent","ratio_trial":100,"L_num":17,"L_den":30,"R_num":10,"R_den":15,"correct_side":2,"subjID":"DylanLeonBedoya18","gender":"0","school":"6","age":"11"},{"start_time":1551794147637,"click_time":1551794149157,"finger_time":1551794148797,"fix_duration":1118.654454068454,"trial":32,"RT":1160,"MT":360,"sideResp":1,"stimulus":[],"xmouse":[786,786,786,786,786,786,786,786,786,786,786,786,786,786,786,786,786,786,786,786,786,786,786,786,786,786,786,786,786,786,786,786,786,786,786,786,786,786,786,786,786,786,786,786,786,786,783,779,779,778,778,778,778,778,778,778,778,778,778,763,740,712,687,647,635,627,618,613,613,613,613,613,613,613,613,522,507],"ymouse":[544,544,544,544,544,544,544,544,544,544,544,544,544,544,544,544,544,544,544,544,544,544,544,544,544,544,544,544,544,544,544,544,544,544,544,544,544,544,544,544,544,544,544,544,544,543,538,529,520,518,516,515,515,515,515,515,515,514,485,390,299,225,163,73,46,25,8,1,1,1,1,1,1,1,1,0,9],"timestamp_mouse":[6,25,41,61,80,100,120,140,160,180,200,221,242,260,280,300,320,341,360,380,400,420,440,460,480,500,520,542,561,580,601,620,640,660,681,700,720,741,760,782,800,820,840,860,880,900,920,940,960,980,1000,1021,1040,1060,1080,1100,1120,1140,1160,1180,1200,1220,1240,1260,1280,1300,1320,1341,1360,1380,1401,1422,1441,1461,1480,1500,1520],"xSR":741.5,"ySR":494.65000000000003,"xT1":424.9,"yT1":0,"xT2":1058.1,"yT2":0,"toosoon":0,"cond_shown":"Incongruent","ratio_trial":200,"L_num":4,"L_den":5,"R_num":6,"R_den":10,"correct_side":1,"subjID":"DylanLeonBedoya18","gender":"0","school":"6","age":"11"},{"start_time":1551794151726,"click_time":1551794152577,"finger_time":1551794152457,"fix_duration":1488.3785679932193,"trial":33,"RT":731,"MT":120,"sideResp":2,"stimulus":[],"xmouse":[756,756,756,756,756,756,756,756,756,756,756,756,756,756,756,756,756,756,756,756,756,756,756,756,756,756,756,756,756,756,756,756,756,756,756,756,761,784,880,948,1017,1080,1119],"ymouse":[498,498,498,498,498,498,498,498,498,498,498,498,498,498,498,498,498,498,498,498,498,498,498,498,498,498,498,498,498,498,498,498,498,498,498,498,492,466,342,264,183,110,65],"timestamp_mouse":[12,34,51,71,91,111,131,151,171,191,211,231,251,273,291,312,331,352,371,391,411,431,451,473,493,511,531,551,571,592,611,632,651,671,692,711,731,751,772,791,811,831,851],"xSR":741.5,"ySR":494.65000000000003,"xT1":424.9,"yT1":0,"xT2":1058.1,"yT2":0,"toosoon":0,"cond_shown":"Incongruent","ratio_trial":300,"L_num":13,"L_den":26,"R_num":12,"R_den":15,"correct_side":2,"subjID":"DylanLeonBedoya18","gender":"0","school":"6","age":"11"},{"start_time":1551794155595,"click_time":1551794156598,"finger_time":1551794156177,"fix_duration":656.8699301632967,"trial":34,"RT":582,"MT":421,"sideResp":2,"stimulus":[],"xmouse":[819,819,819,819,819,819,819,819,819,819,819,819,819,819,819,819,819,819,819,819,819,819,819,819,819,819,819,819,824,847,928,993,1029,1048,1058,1062,1062,1062,1062,1062,1062,1062,1062,1062,1062,1062,1062,1062,1064,1068,1071],"ymouse":[509,509,509,509,509,509,509,509,509,509,509,509,509,509,509,509,509,509,509,509,509,509,509,509,509,509,509,507,499,457,319,216,169,145,135,132,132,132,132,132,132,132,132,132,132,132,132,129,125,113,96],"timestamp_mouse":[8,31,43,62,82,102,123,142,162,182,202,222,243,263,283,302,322,342,362,382,402,423,444,462,484,503,522,542,562,582,602,623,642,662,682,703,722,742,762,783,803,822,842,862,882,902,922,942,963,982,1003],"xSR":741.5,"ySR":494.65000000000003,"xT1":424.9,"yT1":0,"xT2":1058.1,"yT2":0,"toosoon":0,"cond_shown":"Incongruent","ratio_trial":300,"L_num":4,"L_den":20,"R_num":2,"R_den":4,"correct_side":2,"subjID":"DylanLeonBedoya18","gender":"0","school":"6","age":"11"},{"start_time":1551794161568,"click_time":1551794163077,"finger_time":1551794162737,"fix_duration":250,"trial":35,"RT":1169,"MT":340,"sideResp":2,"stimulus":[],"xmouse":[791,791,791,791,791,791,790,790,790,790,790,790,790,790,790,790,790,790,790,790,790,790,790,790,790,790,790,790,790,790,790,790,790,790,790,790,790,790,790,790,790,790,790,790,790,790,790,790,790,790,790,790,790,790,790,795,811,824,837,854,875,920,934,941,946,950,968,980,992,1002,1008,1014,1023,1035,1049,1070],"ymouse":[537,537,537,537,537,537,541,541,541,541,541,541,541,541,541,541,541,541,541,541,541,541,541,541,541,541,541,541,541,541,541,541,541,541,541,541,541,541,541,541,541,541,541,541,541,541,541,541,541,541,541,541,541,541,541,538,521,500,470,422,357,254,227,215,206,199,186,179,171,164,158,145,124,102,78,49],"timestamp_mouse":[15,29,49,69,90,109,130,149,169,189,209,229,250,270,290,309,329,349,369,389,409,429,449,469,489,509,529,550,569,589,610,629,649,669,689,709,729,749,770,789,809,829,849,869,889,909,929,950,969,991,1009,1029,1049,1069,1089,1109,1129,1149,1169,1189,1209,1229,1249,1269,1289,1310,1330,1349,1369,1389,1409,1429,1451,1469,1489,1509],"xSR":741.5,"ySR":494.65000000000003,"xT1":424.9,"yT1":0,"xT2":1058.1,"yT2":0,"toosoon":0,"cond_shown":"Congruent","ratio_trial":300,"L_num":1,"L_den":5,"R_num":3,"R_den":6,"correct_side":2,"subjID":"DylanLeonBedoya18","gender":"0","school":"6","age":"11"},{"start_time":1551794164068,"click_time":1551794165838,"finger_time":1551794165077,"fix_duration":250,"trial":36,"RT":1009,"MT":761,"sideResp":1,"stimulus":[],"xmouse":[808,808,808,808,808,808,808,808,808,808,808,808,808,808,808,808,808,808,808,808,808,808,808,808,808,808,808,808,808,808,808,808,808,808,808,808,808,808,808,808,808,808,808,808,808,808,808,808,807,798,783,736,710,693,687,686,680,671,665,661,658,652,643,631,617,605,586,576,567,564,563,563,563,563,563,563,552,548,545,542,540,539,539,538,536,536,533,526,518],"ymouse":[519,519,519,519,519,519,519,520,520,520,520,520,520,520,520,520,520,520,520,520,520,520,520,520,520,520,520,520,520,520,520,520,520,520,520,520,520,520,520,520,520,520,520,520,520,520,520,520,521,507,476,403,367,348,341,339,329,311,302,295,292,284,275,259,237,219,191,177,167,161,161,161,161,161,160,160,144,138,134,129,126,124,124,123,121,119,110,92,80],"timestamp_mouse":[10,29,49,69,89,109,129,149,169,190,209,230,249,269,289,310,329,349,369,389,410,429,449,469,489,509,530,550,569,589,609,630,649,669,690,709,730,750,770,790,809,830,850,869,889,909,929,949,969,989,1009,1029,1049,1069,1089,1109,1130,1151,1169,1189,1210,1229,1249,1270,1290,1309,1329,1349,1370,1389,1410,1429,1449,1469,1489,1509,1529,1549,1569,1591,1611,1630,1649,1670,1689,1711,1729,1749,1770],"xSR":741.5,"ySR":494.65000000000003,"xT1":424.9,"yT1":0,"xT2":1058.1,"yT2":0,"toosoon":0,"cond_shown":"Congruent","ratio_trial":100,"L_num":8,"L_den":16,"R_num":2,"R_den":5,"correct_side":1,"subjID":"DylanLeonBedoya18","gender":"0","school":"6","age":"11"},{"start_time":1551794167052,"click_time":1551794168757,"finger_time":1551794167657,"fix_duration":313.01776330902584,"trial":37,"RT":605,"MT":1100,"sideResp":1,"stimulus":[],"xmouse":[759,759,759,759,759,759,759,759,759,759,759,759,759,759,759,759,759,759,759,759,759,759,759,759,759,759,759,759,759,762,781,811,867,886,899,913,924,934,937,937,937,937,937,937,937,937,937,940,947,960,971,981,997,1002,1003,1004,1005,1006,1008,1013,1020,1028,1039,1039,1039,1039,1039,1039,1022,963,896,841,751,707,663,631,606,577,571,567,562,554,531,521,517,512],"ymouse":[517,517,517,517,517,517,517,517,517,517,517,517,517,517,517,517,517,517,517,517,517,517,517,517,517,517,517,517,517,515,494,463,408,391,380,367,356,343,340,340,340,340,340,340,340,340,339,335,324,305,292,277,252,245,242,240,238,231,224,215,203,188,174,174,174,174,174,174,173,181,186,186,167,154,142,136,133,128,127,126,123,120,110,105,102,99],"timestamp_mouse":[8,25,46,65,86,105,126,146,165,185,206,225,245,265,285,305,325,345,365,385,405,425,445,465,486,507,525,545,565,585,605,625,645,665,685,705,725,745,765,786,805,825,845,865,885,905,925,945,966,985,1005,1025,1045,1065,1085,1105,1125,1145,1166,1185,1205,1225,1245,1266,1285,1305,1325,1345,1366,1386,1406,1427,1446,1466,1485,1505,1526,1545,1565,1585,1605,1627,1646,1665,1685,1705],"xSR":741.5,"ySR":494.65000000000003,"xT1":424.9,"yT1":0,"xT2":1058.1,"yT2":0,"toosoon":0,"cond_shown":"Congruent","ratio_trial":100,"L_num":1,"L_den":2,"R_num":18,"R_den":30,"correct_side":2,"subjID":"DylanLeonBedoya18","gender":"0","school":"6","age":"11"},{"start_time":1551794171500,"click_time":1551794173498,"finger_time":1551794172897,"fix_duration":1481.3484117822418,"trial":38,"RT":1397,"MT":601,"sideResp":1,"stimulus":[],"xmouse":[825,825,825,825,825,825,825,825,825,825,825,825,825,825,825,825,825,825,825,825,825,825,825,825,825,825,825,825,825,825,825,825,825,825,825,825,825,825,825,825,825,825,825,825,825,825,825,825,825,825,825,825,825,825,825,825,819,810,804,792,789,788,788,788,788,787,786,784,780,761,743,717,697,677,641,633,629,627,627,625,624,623,622,621,615,606,599,592,584,565,554,543,536,530,527,525,525,525,525,522],"ymouse":[526,526,526,526,526,526,526,526,526,526,526,526,526,526,526,526,526,526,526,526,526,526,526,526,526,526,526,526,526,526,526,526,526,526,526,526,526,526,526,526,526,526,526,526,526,526,526,526,526,526,526,526,526,526,526,526,526,522,519,517,516,515,515,515,515,515,514,511,508,484,459,416,375,326,216,187,165,153,148,138,134,132,129,127,118,109,102,96,89,80,80,80,80,80,79,79,79,79,79,77],"timestamp_mouse":[30,38,57,78,98,117,137,157,177,198,218,237,257,277,298,317,337,357,377,397,418,438,459,477,498,517,537,557,577,597,618,637,657,677,697,717,737,757,777,798,817,837,857,877,897,917,937,957,977,997,1018,1037,1057,1077,1098,1117,1137,1157,1177,1197,1217,1237,1257,1277,1297,1317,1337,1357,1378,1397,1417,1437,1457,1477,1498,1517,1537,1557,1577,1597,1618,1637,1657,1677,1697,1717,1737,1757,1778,1797,1817,1837,1858,1877,1897,1917,1937,1959,1978,1998],"xSR":741.5,"ySR":494.65000000000003,"xT1":424.9,"yT1":0,"xT2":1058.1,"yT2":0,"toosoon":0,"cond_shown":"Incongruent","ratio_trial":200,"L_num":6,"L_den":20,"R_num":3,"R_den":6,"correct_side":2,"subjID":"DylanLeonBedoya18","gender":"0","school":"6","age":"11"},{"start_time":1551794175166,"click_time":1551794177017,"finger_time":1551794176739,"fix_duration":948.5852851326638,"trial":39,"RT":1573,"MT":278,"sideResp":2,"stimulus":[],"xmouse":[769,769,769,769,769,769,769,769,769,769,769,769,769,769,769,769,769,769,769,769,769,769,769,769,769,769,769,769,769,769,769,769,769,769,769,769,769,769,769,769,769,769,769,769,769,769,769,769,769,769,769,769,769,769,769,769,769,769,769,769,769,769,769,769,769,769,769,769,769,769,769,769,769,769,769,769,769,785,821,858,901,971,981,986,989,991,1001,1012,1024,1036,1046,1054,1069],"ymouse":[553,553,553,553,553,553,553,553,553,553,553,553,553,553,553,553,553,553,553,553,553,553,553,553,553,553,553,553,553,553,553,553,553,553,553,553,553,553,553,553,553,553,553,553,553,553,553,553,553,553,553,553,553,553,553,553,553,553,553,553,553,553,553,553,553,553,553,553,553,553,553,553,553,553,553,553,554,526,448,357,262,120,107,100,97,96,92,86,82,77,72,69,63],"timestamp_mouse":[11,40,51,72,91,112,131,151,171,191,211,231,251,271,291,311,332,351,371,391,411,432,451,472,492,511,531,552,573,591,611,631,652,671,691,711,731,751,771,791,811,831,851,871,891,911,931,952,971,992,1011,1031,1051,1072,1092,1111,1131,1152,1171,1191,1211,1231,1253,1273,1291,1311,1331,1352,1371,1391,1411,1432,1451,1471,1491,1511,1532,1551,1573,1591,1613,1632,1653,1672,1691,1712,1731,1751,1772,1792,1811,1831,1851],"xSR":741.5,"ySR":494.65000000000003,"xT1":424.9,"yT1":0,"xT2":1058.1,"yT2":0,"toosoon":0,"cond_shown":"Incongruent","ratio_trial":200,"L_num":1,"L_den":3,"R_num":2,"R_den":15,"correct_side":1,"subjID":"DylanLeonBedoya18","gender":"0","school":"6","age":"11"},{"start_time":1551794178068,"click_time":1551794179777,"finger_time":1551794179577,"fix_duration":250,"trial":40,"RT":1509,"MT":200,"sideResp":2,"stimulus":[],"xmouse":[795,795,795,795,795,795,795,795,795,795,795,795,795,795,795,795,795,795,795,795,795,795,795,795,795,795,795,795,795,795,795,795,795,795,795,795,795,795,795,795,795,795,795,795,795,795,795,795,795,795,795,795,795,795,795,795,795,795,795,795,795,795,795,795,795,795,795,794,793,793,793,793,793,793,796,809,887,954,982,1002,1017,1036,1043,1052,1062,1073],"ymouse":[540,540,540,540,540,540,540,540,540,540,540,540,540,540,540,540,540,540,540,540,540,540,540,540,540,540,540,540,540,540,540,540,540,540,540,540,540,540,540,540,540,540,540,540,540,540,540,540,540,540,540,540,540,540,540,540,540,540,540,540,540,540,540,540,540,540,538,532,531,531,531,531,531,524,514,487,375,279,240,214,192,161,146,132,115,94],"timestamp_mouse":[9,29,49,69,89,109,129,149,170,190,209,229,249,269,289,309,329,349,370,389,409,429,449,469,489,510,529,549,570,589,609,630,649,669,689,710,730,750,769,789,810,829,849,870,891,910,930,949,969,989,1009,1029,1049,1069,1089,1109,1130,1149,1169,1189,1209,1229,1249,1269,1289,1309,1329,1349,1369,1389,1409,1429,1450,1470,1489,1509,1529,1551,1569,1589,1609,1629,1651,1670,1690,1709],"xSR":741.5,"ySR":494.65000000000003,"xT1":424.9,"yT1":0,"xT2":1058.1,"yT2":0,"toosoon":0,"cond_shown":"Incongruent","ratio_trial":100,"L_num":6,"L_den":10,"R_num":11,"R_den":22,"correct_side":1,"subjID":"DylanLeonBedoya18","gender":"0","school":"6","age":"11"},{"start_time":1551794180923,"click_time":1551794182517,"finger_time":1551794182257,"fix_duration":404.22855400642476,"trial":41,"RT":1334,"MT":260,"sideResp":2,"stimulus":[],"xmouse":[806,806,806,806,806,806,806,806,806,806,806,806,806,806,806,806,806,806,806,806,806,806,806,806,806,806,806,806,806,806,806,806,806,806,806,806,806,806,806,806,806,806,807,818,824,824,825,825,825,825,825,825,825,825,825,825,825,825,825,825,825,825,825,825,825,826,830,835,849,863,882,906,937,994,1025,1037,1043,1049,1058,1063],"ymouse":[562,562,562,562,562,562,562,562,562,562,562,562,562,562,562,562,562,562,562,562,562,562,562,562,562,562,562,562,562,562,562,562,562,562,562,562,562,562,562,562,562,562,559,537,525,522,521,520,519,518,518,518,517,515,514,514,513,513,513,513,513,513,512,511,508,502,493,480,447,423,391,349,291,195,149,129,115,103,82,73],"timestamp_mouse":[14,35,54,74,94,114,134,154,174,195,214,234,254,275,294,314,334,354,374,394,415,434,454,474,494,515,535,554,574,595,614,634,654,674,695,715,735,754,774,794,814,834,854,874,894,914,934,954,974,994,1014,1034,1054,1074,1094,1114,1134,1154,1175,1194,1215,1234,1254,1274,1294,1314,1334,1355,1374,1394,1414,1434,1454,1474,1495,1515,1534,1555,1574,1594],"xSR":741.5,"ySR":494.65000000000003,"xT1":424.9,"yT1":0,"xT2":1058.1,"yT2":0,"toosoon":0,"cond_shown":"Incongruent","ratio_trial":100,"L_num":8,"L_den":20,"R_num":1,"R_den":2,"correct_side":2,"subjID":"DylanLeonBedoya18","gender":"0","school":"6","age":"11"},{"start_time":1551794185767,"click_time":1551794187297,"finger_time":1551794186857,"fix_duration":768.6433035832445,"trial":42,"RT":1090,"MT":440,"sideResp":1,"stimulus":[],"xmouse":[811,811,811,811,811,811,811,811,811,811,811,811,811,811,811,811,811,811,811,811,811,811,811,811,811,811,811,811,811,811,811,811,811,811,811,811,811,811,811,811,811,811,811,811,811,811,811,811,811,811,811,803,788,778,767,756,733,723,713,704,696,681,672,668,665,663,657,653,644,633,621,591,573,565,556,542,520],"ymouse":[577,577,577,577,577,577,577,577,577,577,577,577,577,577,577,577,577,577,577,577,577,577,577,577,577,577,577,577,577,577,577,577,577,577,577,577,577,577,577,577,577,577,577,577,577,577,577,577,577,577,575,556,530,512,491,471,422,397,374,353,333,298,277,268,261,256,241,231,216,197,179,144,126,117,103,90,70],"timestamp_mouse":[11,31,52,71,90,112,130,150,171,190,211,230,250,270,290,310,331,351,370,390,410,431,450,470,490,510,530,550,570,590,611,632,650,672,690,710,730,751,770,790,810,830,851,870,891,910,930,950,970,990,1011,1030,1050,1070,1090,1111,1130,1150,1171,1191,1210,1230,1251,1270,1290,1311,1330,1351,1370,1390,1410,1430,1451,1470,1490,1511,1530],"xSR":741.5,"ySR":494.65000000000003,"xT1":424.9,"yT1":0,"xT2":1058.1,"yT2":0,"toosoon":0,"cond_shown":"Incongruent","ratio_trial":200,"L_num":1,"L_den":3,"R_num":2,"R_den":15,"correct_side":1,"subjID":"DylanLeonBedoya18","gender":"0","school":"6","age":"11"},{"start_time":1551794189918,"click_time":1551794192177,"finger_time":1551794191678,"fix_duration":299.2380680055019,"trial":43,"RT":1760,"MT":499,"sideResp":2,"stimulus":[],"xmouse":[829,829,829,829,829,829,829,829,829,829,829,829,829,829,829,829,829,829,829,829,829,829,829,82