[{"start_time":1551892381843,"click_time":1551892383993,"finger_time":1551892381873,"fix_duration":506.14402429934256,"trial":0,"RT":30,"MT":2120,"sideResp":2,"stimulus":[],"xmouse":[791,791,791,791,791,791,791,791,791,791,791,791,791,791,791,791,791,791,791,791,791,791,791,791,791,791,790,788,785,785,783,783,783,782,782,782,781,781,780,779,779,778,778,777,776,775,774,771,769,768,768,767,767,767,767,767,767,767,767,767,767,770,771,773,776,776,776,779,780,781,782,782,783,783,783,783,784,785,785,785,785,785,785,785,785,786,786,785,785,790,801,817,856,875,892,910,963,988,1025,1048,1070,1111,1128,1135,1139,1140,1140],"ymouse":[512,512,512,512,512,512,512,512,512,512,512,512,512,512,512,512,512,512,512,512,512,512,512,512,512,512,513,519,527,530,533,537,543,545,545,546,549,551,557,561,562,567,568,571,575,580,586,596,601,603,606,608,611,611,611,611,611,611,611,612,613,618,619,620,621,621,621,621,622,623,623,623,623,623,623,624,624,624,624,624,624,624,624,624,624,624,622,611,602,593,582,568,534,518,502,483,438,414,365,334,305,224,186,159,135,113,90],"timestamp_mouse":[29,49,69,90,110,130,151,169,191,211,229,250,269,289,310,331,351,370,389,409,430,450,469,489,510,530,551,571,590,610,629,650,671,689,711,731,751,769,790,810,831,851,869,890,910,930,950,970,991,1011,1029,1050,1071,1090,1110,1130,1149,1169,1189,1211,1230,1251,1270,1289,1310,1331,1349,1370,1390,1409,1431,1450,1471,1489,1510,1529,1550,1570,1590,1609,1630,1649,1670,1691,1710,1729,1749,1770,1790,1811,1830,1851,1871,1889,1909,1929,1950,1969,1990,2010,2029,2050,2069,2090,2110,2130,2150],"xSR":741.5,"ySR":469.95,"xT1":424.9,"yT1":0,"xT2":1058.1,"yT2":0,"toosoon":0,"cond_shown":"Congruent","ratio_trial":200,"L_num":9,"L_den":30,"R_num":13,"R_den":26,"correct_side":2,"subjID":"cristalrojas37","gender":"1","age":"11","school":"6","test":{"fix_dur":[250,1500],"timestim":1000,"targets_dim":[100,100],"targets_relative_coord":[0.3,0.7],"size_stim":[880,420],"start_dim":[100,100],"size_start":[300,300],"size_fix":60,"samplingrate":20,"img_types":["Congruent","Incongruent"],"ratios":[100,200,300],"rep_conds":19,"nTrials":120,"trials_to_rest":500,"Trials_order":[68,6,16,38,1,15,62,57,37,25,70,64,35,30,43,63,110,40,86,97,53,95,90,48,54,55,117,107,96,69,9,85,80,42,93,73,45,60,79,61,13,91,14,32,94,51,98,72,5,115,2,52,92,19,100,24,31,28,23,33,104,113,84,89,12,65,118,41,8,18,82,67,78,114,101,39,74,29,22,10,102,44,119,34,46,21,83,56,75,3,20,47,49,108,11,116,26,76,0,4,111,50,77,17,112,87,105,7,109,99,58,88,71,36,27,103,106,66,81,59],"cond_shown":["Congruent","Congruent","Congruent","Congruent","Incongruent","Incongruent","Congruent","Incongruent","Incongruent","Incongruent","Congruent","Congruent","Incongruent","Congruent","Incongruent","Incongruent","Congruent","Congruent","Congruent","Incongruent","Incongruent","Incongruent","Congruent","Congruent","Congruent","Incongruent","Incongruent","Incongruent","Congruent","Incongruent","Incongruent","Incongruent","Congruent","Congruent","Incongruent","Incongruent","Incongruent","Congruent","Incongruent","Incongruent","Incongruent","Incongruent","Congruent","Congruent","Congruent","Incongruent","Congruent","Congruent","Incongruent","Incongruent","Congruent","Congruent","Congruent","Incongruent","Congruent","Congruent","Incongruent","Congruent","Incongruent","Incongruent","Congruent","Incongruent","Congruent","Incongruent","Congruent","Incongruent","Congruent","Incongruent","Congruent","Congruent","Congruent","Incongruent","Congruent","Congruent","Incongruent","Incongruent","Congruent","Incongruent","Congruent","Congruent","Congruent","Congruent","Incongruent","Congruent","Congruent","Incongruent","Incongruent","Congruent","Incongruent","Incongruent","Congruent","Incongruent","Incongruent","Congruent","Incongruent","Congruent","Congruent","Congruent","Congruent","Congruent","Incongruent","Congruent","Incongruent","Incongruent","Congruent","Incongruent","Incongruent","Incongruent","Incongruent","Incongruent","Congruent","Congruent","Incongruent","Congruent","Incongruent","Incongruent","Congruent","Congruent","Incongruent","Incongruent"],"ratio_trial":[200,100,300,200,100,200,200,200,100,100,300,300,300,100,100,200,200,300,200,100,300,300,100,100,100,100,200,300,100,200,200,100,200,100,200,100,200,100,100,100,100,100,200,200,300,200,200,100,300,100,200,300,200,100,300,100,100,300,300,200,200,300,100,300,100,300,300,300,200,100,300,100,100,100,300,200,200,300,300,300,100,200,300,300,300,200,300,200,200,200,200,300,100,100,300,200,200,300,100,300,200,200,300,300,300,200,200,100,100,200,300,300,300,100,200,100,300,100,200,300],"left_num":[9,9,9,9,3,4,15,7,2,11,20,1,4,6,4,4,6,2,1,8,1,13,7,4,1,10,7,4,2,14,7,12,3,4,9,1,9,4,6,17,17,9,8,8,4,4,4,11,8,12,16,20,3,3,5,2,9,3,8,7,11,13,11,7,3,4,20,4,7,7,11,6,6,11,2,14,6,13,20,24,11,3,13,11,7,7,4,11,7,9,16,1,11,6,13,21,9,20,8,11,6,7,13,3,1,1,3,17,9,4,24,24,1,15,7,6,20,1,7,13],"right_num":[13,8,3,13,11,6,4,8,8,9,9,6,2,15,8,1,11,12,21,1,3,12,15,15,18,9,4,2,11,12,4,2,7,15,8,8,8,6,7,10,10,13,3,2,2,1,3,6,14,2,12,8,7,8,6,11,13,4,14,14,3,12,4,8,2,2,13,2,2,15,1,13,5,6,6,6,7,12,14,8,6,9,12,4,20,8,2,3,6,8,9,2,9,15,12,2,4,8,2,1,3,18,12,4,3,2,11,10,6,1,8,2,2,13,8,7,14,3,6,12],"left_den":[30,15,10,30,5,5,25,10,4,22,25,5,20,12,8,30,20,10,2,20,2,26,14,10,2,25,15,20,5,30,15,30,10,10,15,2,15,8,10,30,30,15,15,15,5,30,10,22,10,30,20,25,10,5,25,5,15,6,10,10,22,26,22,10,6,20,25,20,21,14,22,10,20,22,4,30,12,26,25,30,22,12,26,22,14,10,20,22,15,15,30,2,22,12,26,30,20,25,16,22,20,15,26,6,5,3,4,30,18,30,30,30,2,25,10,10,25,2,15,26],"right_den":[26,16,5,26,22,10,10,16,20,15,18,12,4,25,20,3,22,24,30,2,15,15,25,30,30,18,6,4,22,18,6,4,14,30,10,20,10,10,14,15,15,26,9,6,4,3,15,15,28,4,20,16,14,16,12,22,26,5,28,28,10,15,10,20,5,4,26,4,15,25,5,26,25,15,30,9,10,15,28,16,15,20,15,20,25,16,4,10,9,10,27,10,15,25,15,4,16,16,5,5,6,27,15,20,6,15,20,15,10,3,16,4,10,26,16,14,28,5,9,15],"correct_side":[2,1,1,2,1,1,1,1,1,2,1,2,2,2,1,2,2,2,2,2,1,2,2,2,2,2,2,2,2,2,2,2,2,2,2,1,2,2,1,2,2,1,1,1,1,2,1,1,1,2,1,1,2,1,2,2,1,2,1,1,1,2,1,1,1,2,1,2,1,2,1,1,1,1,1,2,2,2,1,1,1,2,2,1,2,1,2,1,2,2,1,1,2,2,2,1,1,1,1,1,2,2,2,1,2,1,1,2,2,2,1,1,1,1,1,1,1,2,2,2],"img_shown":["img2/200/Congruent/R/C_Dist_200_LN_9_LD_30_RN_13_RD_26_1.png","img2/100/Congruent/L/C_Dist_100_LN_9_LD_15_RN_8_RD_16_0.png","img2/300/Congruent/L/C_Dist_300_LN_9_LD_10_RN_3_RD_5_0.png","img2/200/Congruent/R/C_Dist_200_LN_9_LD_30_RN_13_RD_26_1.png","img2/100/Incongruent/L/I_Dist_100_LN_3_LD_5_RN_11_RD_22_0.png","img2/200/Incongruent/L/I_Dist_200_LN_4_LD_5_RN_6_RD_10_0.png","img2/200/Congruent/L/C_Dist_200_LN_15_LD_25_RN_4_RD_10_0.png","img2/200/Incongruent/L/I_Dist_200_LN_7_LD_10_RN_8_RD_16_0.png","img2/100/Incongruent/L/I_Dist_100_LN_2_LD_4_RN_8_RD_20_0.png","img2/100/Incongruent/R/I_Dist_100_LN_11_LD_22_RN_9_RD_15_1.png","img2/300/Congruent/L/C_Dist_300_LN_20_LD_25_RN_9_RD_18_0.png","img2/300/Congruent/R/C_Dist_300_LN_1_LD_5_RN_6_RD_12_1.png","img2/300/Incongruent/R/I_Dist_300_LN_4_LD_20_RN_2_RD_4_1.png","img2/100/Congruent/R/C_Dist_100_LN_6_LD_12_RN_15_RD_25_1.png","img2/100/Incongruent/L/I_Dist_100_LN_4_LD_8_RN_8_RD_20_0.png","img2/200/Incongruent/R/I_Dist_200_LN_4_LD_30_RN_1_RD_3_1.png","img2/200/Congruent/R/C_Dist_200_LN_6_LD_20_RN_11_RD_22_1.png","img2/300/Congruent/R/C_Dist_300_LN_2_LD_10_RN_12_RD_24_1.png","img2/200/Congruent/R/C_Dist_200_LN_1_LD_2_RN_21_RD_30_1.png","img2/100/Incongruent/R/I_Dist_100_LN_8_LD_20_RN_1_RD_2_1.png","img2/300/Incongruent/L/I_Dist_300_LN_1_LD_2_RN_3_RD_15_0.png","img2/300/Incongruent/R/I_Dist_300_LN_13_LD_26_RN_12_RD_15_1.png","img2/100/Congruent/R/C_Dist_100_LN_7_LD_14_RN_15_RD_25_1.png","img2/100/Congruent/R/C_Dist_100_LN_4_LD_10_RN_15_RD_30_1.png","img2/100/Congruent/R/C_Dist_100_LN_1_LD_2_RN_18_RD_30_1.png","img2/100/Incongruent/R/I_Dist_100_LN_10_LD_25_RN_9_RD_18_1.png","img2/200/Incongruent/R/I_Dist_200_LN_7_LD_15_RN_4_RD_6_1.png","img2/300/Incongruent/R/I_Dist_300_LN_4_LD_20_RN_2_RD_4_1.png","img2/100/Congruent/R/C_Dist_100_LN_2_LD_5_RN_11_RD_22_1.png","img2/200/Incongruent/R/I_Dist_200_LN_14_LD_30_RN_12_RD_18_1.png","img2/200/Incongruent/R/I_Dist_200_LN_7_LD_15_RN_4_RD_6_1.png","img2/100/Incongruent/R/I_Dist_100_LN_12_LD_30_RN_2_RD_4_1.png","img2/200/Congruent/R/C_Dist_200_LN_3_LD_10_RN_7_RD_14_1.png","img2/100/Congruent/R/C_Dist_100_LN_4_LD_10_RN_15_RD_30_1.png","img2/200/Incongruent/R/I_Dist_200_LN_9_LD_15_RN_8_RD_10_1.png","img2/100/Incongruent/L/I_Dist_100_LN_1_LD_2_RN_8_RD_20_0.png","img2/200/Incongruent/R/I_Dist_200_LN_9_LD_15_RN_8_RD_10_1.png","img2/100/Congruent/R/C_Dist_100_LN_4_LD_8_RN_6_RD_10_1.png","img2/100/Incongruent/L/I_Dist_100_LN_6_LD_10_RN_7_RD_14_0.png","img2/100/Incongruent/R/I_Dist_100_LN_17_LD_30_RN_10_RD_15_1.png","img2/100/Incongruent/R/I_Dist_100_LN_17_LD_30_RN_10_RD_15_1.png","img2/100/Incongruent/L/I_Dist_100_LN_9_LD_15_RN_13_RD_26_0.png","img2/200/Congruent/L/C_Dist_200_LN_8_LD_15_RN_3_RD_9_0.png","img2/200/Congruent/L/C_Dist_200_LN_8_LD_15_RN_2_RD_6_0.png","img2/300/Congruent/L/C_Dist_300_LN_4_LD_5_RN_2_RD_4_0.png","img2/200/Incongruent/R/I_Dist_200_LN_4_LD_30_RN_1_RD_3_1.png","img2/200/Congruent/L/C_Dist_200_LN_4_LD_10_RN_3_RD_15_0.png","img2/100/Congruent/L/C_Dist_100_LN_11_LD_22_RN_6_RD_15_0.png","img2/300/Incongruent/L/I_Dist_300_LN_8_LD_10_RN_14_RD_28_0.png","img2/100/Incongruent/R/I_Dist_100_LN_12_LD_30_RN_2_RD_4_1.png","img2/200/Congruent/L/C_Dist_200_LN_16_LD_20_RN_12_RD_20_0.png","img2/300/Congruent/L/C_Dist_300_LN_20_LD_25_RN_8_RD_16_0.png","img2/200/Congruent/R/C_Dist_200_LN_3_LD_10_RN_7_RD_14_1.png","img2/100/Incongruent/L/I_Dist_100_LN_3_LD_5_RN_8_RD_16_0.png","img2/300/Congruent/R/C_Dist_300_LN_5_LD_25_RN_6_RD_12_1.png","img2/100/Congruent/R/C_Dist_100_LN_2_LD_5_RN_11_RD_22_1.png","img2/100/Incongruent/L/I_Dist_100_LN_9_LD_15_RN_13_RD_26_0.png","img2/300/Congruent/R/C_Dist_300_LN_3_LD_6_RN_4_RD_5_1.png","img2/300/Incongruent/L/I_Dist_300_LN_8_LD_10_RN_14_RD_28_0.png","img2/200/Incongruent/L/I_Dist_200_LN_7_LD_10_RN_14_RD_28_0.png","img2/200/Congruent/L/C_Dist_200_LN_11_LD_22_RN_3_RD_10_0.png","img2/300/Incongruent/R/I_Dist_300_LN_13_LD_26_RN_12_RD_15_1.png","img2/100/Congruent/L/C_Dist_100_LN_11_LD_22_RN_4_RD_10_0.png","img2/300/Incongruent/L/I_Dist_300_LN_7_LD_10_RN_8_RD_20_0.png","img2/100/Congruent/L/C_Dist_100_LN_3_LD_6_RN_2_RD_5_0.png","img2/300/Incongruent/R/I_Dist_300_LN_4_LD_20_RN_2_RD_4_1.png","img2/300/Congruent/L/C_Dist_300_LN_20_LD_25_RN_13_RD_26_0.png","img2/300/Incongruent/R/I_Dist_300_LN_4_LD_20_RN_2_RD_4_1.png","img2/200/Congruent/L/C_Dist_200_LN_7_LD_21_RN_2_RD_15_0.png","img2/100/Congruent/R/C_Dist_100_LN_7_LD_14_RN_15_RD_25_1.png","img2/300/Congruent/L/C_Dist_300_LN_11_LD_22_RN_1_RD_5_0.png","img2/100/Incongruent/L/I_Dist_100_LN_6_LD_10_RN_13_RD_26_0.png","img2/100/Congruent/L/C_Dist_100_LN_6_LD_20_RN_5_RD_25_0.png","img2/100/Congruent/L/C_Dist_100_LN_11_LD_22_RN_6_RD_15_0.png","img2/300/Incongruent/L/I_Dist_300_LN_2_LD_4_RN_6_RD_30_0.png","img2/200/Incongruent/R/I_Dist_200_LN_14_LD_30_RN_6_RD_9_1.png","img2/200/Congruent/R/C_Dist_200_LN_6_LD_12_RN_7_RD_10_1.png","img2/300/Incongruent/R/I_Dist_300_LN_13_LD_26_RN_12_RD_15_1.png","img2/300/Congruent/L/C_Dist_300_LN_20_LD_25_RN_14_RD_28_0.png","img2/300/Congruent/L/C_Dist_300_LN_24_LD_30_RN_8_RD_16_0.png","img2/100/Congruent/L/C_Dist_100_LN_11_LD_22_RN_6_RD_15_0.png","img2/200/Congruent/R/C_Dist_200_LN_3_LD_12_RN_9_RD_20_1.png","img2/300/Incongruent/R/I_Dist_300_LN_13_LD_26_RN_12_RD_15_1.png","img2/300/Congruent/L/C_Dist_300_LN_11_LD_22_RN_4_RD_20_0.png","img2/300/Congruent/R/C_Dist_300_LN_7_LD_14_RN_20_RD_25_1.png","img2/200/Incongruent/L/I_Dist_200_LN_7_LD_10_RN_8_RD_16_0.png","img2/300/Incongruent/R/I_Dist_300_LN_4_LD_20_RN_2_RD_4_1.png","img2/200/Congruent/L/C_Dist_200_LN_11_LD_22_RN_3_RD_10_0.png","img2/200/Incongruent/R/I_Dist_200_LN_7_LD_15_RN_6_RD_9_1.png","img2/200/Incongruent/R/I_Dist_200_LN_9_LD_15_RN_8_RD_10_1.png","img2/200/Congruent/L/C_Dist_200_LN_16_LD_30_RN_9_RD_27_0.png","img2/300/Incongruent/L/I_Dist_300_LN_1_LD_2_RN_2_RD_10_0.png","img2/100/Incongruent/R/I_Dist_100_LN_11_LD_22_RN_9_RD_15_1.png","img2/100/Congruent/R/C_Dist_100_LN_6_LD_12_RN_15_RD_25_1.png","img2/300/Incongruent/R/I_Dist_300_LN_13_LD_26_RN_12_RD_15_1.png","img2/200/Congruent/L/C_Dist_200_LN_21_LD_30_RN_2_RD_4_0.png","img2/200/Congruent/L/C_Dist_200_LN_9_LD_20_RN_4_RD_16_0.png","img2/300/Congruent/L/C_Dist_300_LN_20_LD_25_RN_8_RD_16_0.png","img2/100/Congruent/L/C_Dist_100_LN_8_LD_16_RN_2_RD_5_0.png","img2/300/Congruent/L/C_Dist_300_LN_11_LD_22_RN_1_RD_5_0.png","img2/200/Incongruent/R/I_Dist_200_LN_6_LD_20_RN_3_RD_6_1.png","img2/200/Congruent/R/C_Dist_200_LN_7_LD_15_RN_18_RD_27_1.png","img2/300/Incongruent/R/I_Dist_300_LN_13_LD_26_RN_12_RD_15_1.png","img2/300/Incongruent/L/I_Dist_300_LN_3_LD_6_RN_4_RD_20_0.png","img2/300/Congruent/R/C_Dist_300_LN_1_LD_5_RN_3_RD_6_1.png","img2/200/Incongruent/L/I_Dist_200_LN_1_LD_3_RN_2_RD_15_0.png","img2/200/Incongruent/L/I_Dist_200_LN_3_LD_4_RN_11_RD_20_0.png","img2/100/Incongruent/R/I_Dist_100_LN_17_LD_30_RN_10_RD_15_1.png","img2/100/Incongruent/R/I_Dist_100_LN_9_LD_18_RN_6_RD_10_1.png","img2/200/Incongruent/R/I_Dist_200_LN_4_LD_30_RN_1_RD_3_1.png","img2/300/Congruent/L/C_Dist_300_LN_24_LD_30_RN_8_RD_16_0.png","img2/300/Congruent/L/C_Dist_300_LN_24_LD_30_RN_2_RD_4_0.png","img2/300/Incongruent/L/I_Dist_300_LN_1_LD_2_RN_2_RD_10_0.png","img2/100/Congruent/L/C_Dist_100_LN_15_LD_25_RN_13_RD_26_0.png","img2/200/Incongruent/L/I_Dist_200_LN_7_LD_10_RN_8_RD_16_0.png","img2/100/Incongruent/L/I_Dist_100_LN_6_LD_10_RN_7_RD_14_0.png","img2/300/Congruent/L/C_Dist_300_LN_20_LD_25_RN_14_RD_28_0.png","img2/100/Congruent/R/C_Dist_100_LN_1_LD_2_RN_3_RD_5_1.png","img2/200/Incongruent/R/I_Dist_200_LN_7_LD_15_RN_6_RD_9_1.png","img2/300/Incongruent/R/I_Dist_300_LN_13_LD_26_RN_12_RD_15_1.png"],"dist100_C":[["C_Dist_100_LN_10_LD_25_RN_3_RD_10_0.png","C_Dist_100_LN_11_LD_22_RN_4_RD_10_0.png","C_Dist_100_LN_11_LD_22_RN_6_RD_15_0.png","C_Dist_100_LN_15_LD_25_RN_13_RD_26_0.png","C_Dist_100_LN_3_LD_6_RN_2_RD_5_0.png","C_Dist_100_LN_6_LD_20_RN_5_RD_25_0.png","C_Dist_100_LN_8_LD_16_RN_2_RD_5_0.png","C_Dist_100_LN_9_LD_15_RN_8_RD_16_0.png"],["C_Dist_100_LN_1_LD_2_RN_18_RD_30_1.png","C_Dist_100_LN_1_LD_2_RN_3_RD_5_1.png","C_Dist_100_LN_12_LD_30_RN_13_RD_26_1.png","C_Dist_100_LN_2_LD_5_RN_11_RD_22_1.png","C_Dist_100_LN_2_LD_5_RN_6_RD_12_1.png","C_Dist_100_LN_3_LD_20_RN_4_RD_16_1.png","C_Dist_100_LN_4_LD_10_RN_15_RD_30_1.png","C_Dist_100_LN_4_LD_8_RN_6_RD_10_1.png","C_Dist_100_LN_6_LD_12_RN_15_RD_25_1.png","C_Dist_100_LN_7_LD_14_RN_15_RD_25_1.png","C_Dist_100_LN_7_LD_14_RN_9_RD_15_1.png"]],"dist100_I":[["I_Dist_100_LN_1_LD_2_RN_8_RD_20_0.png","I_Dist_100_LN_2_LD_4_RN_6_RD_15_0.png","I_Dist_100_LN_2_LD_4_RN_8_RD_20_0.png","I_Dist_100_LN_3_LD_5_RN_11_RD_22_0.png","I_Dist_100_LN_3_LD_5_RN_8_RD_16_0.png","I_Dist_100_LN_3_LD_6_RN_4_RD_10_0.png","I_Dist_100_LN_3_LD_9_RN_7_RD_30_0.png","I_Dist_100_LN_4_LD_8_RN_8_RD_20_0.png","I_Dist_100_LN_6_LD_10_RN_11_RD_22_0.png","I_Dist_100_LN_6_LD_10_RN_13_RD_26_0.png","I_Dist_100_LN_6_LD_10_RN_7_RD_14_0.png","I_Dist_100_LN_9_LD_10_RN_20_RD_25_0.png","I_Dist_100_LN_9_LD_15_RN_13_RD_26_0.png","I_Dist_100_LN_9_LD_15_RN_14_RD_28_0.png"],["I_Dist_100_LN_10_LD_25_RN_8_RD_16_1.png","I_Dist_100_LN_10_LD_25_RN_9_RD_18_1.png","I_Dist_100_LN_11_LD_22_RN_9_RD_15_1.png","I_Dist_100_LN_12_LD_24_RN_9_RD_15_1.png","I_Dist_100_LN_12_LD_30_RN_2_RD_4_1.png","I_Dist_100_LN_13_LD_26_RN_12_RD_20_1.png","I_Dist_100_LN_13_LD_26_RN_6_RD_10_1.png","I_Dist_100_LN_17_LD_30_RN_10_RD_15_1.png","I_Dist_100_LN_6_LD_12_RN_3_RD_5_1.png","I_Dist_100_LN_8_LD_16_RN_6_RD_10_1.png","I_Dist_100_LN_8_LD_20_RN_1_RD_2_1.png","I_Dist_100_LN_9_LD_18_RN_6_RD_10_1.png"]],"dist100_S":[["E_Dist_100_LN_2_LD_12_RN_2_RD_30_0.png","E_Dist_100_LN_6_LD_10_RN_6_RD_12_0.png"],["E_Dist_100_LN_6_LD_12_RN_6_RD_10_1.png"]],"dist200_C":[["C_Dist_200_LN_11_LD_22_RN_3_RD_10_0.png","C_Dist_200_LN_12_LD_15_RN_6_RD_10_0.png","C_Dist_200_LN_12_LD_20_RN_6_RD_15_0.png","C_Dist_200_LN_14_LD_28_RN_6_RD_20_0.png","C_Dist_200_LN_15_LD_25_RN_4_RD_10_0.png","C_Dist_200_LN_16_LD_20_RN_12_RD_20_0.png","C_Dist_200_LN_16_LD_30_RN_9_RD_27_0.png","C_Dist_200_LN_20_LD_25_RN_9_RD_15_0.png","C_Dist_200_LN_21_LD_30_RN_2_RD_4_0.png","C_Dist_200_LN_4_LD_10_RN_3_RD_15_0.png","C_Dist_200_LN_4_LD_8_RN_3_RD_10_0.png","C_Dist_200_LN_6_LD_15_RN_3_RD_15_0.png","C_Dist_200_LN_7_LD_21_RN_2_RD_15_0.png","C_Dist_200_LN_8_LD_15_RN_2_RD_6_0.png","C_Dist_200_LN_8_LD_15_RN_3_RD_9_0.png","C_Dist_200_LN_8_LD_15_RN_7_RD_21_0.png","C_Dist_200_LN_9_LD_20_RN_4_RD_16_0.png"],["C_Dist_200_LN_1_LD_2_RN_21_RD_30_1.png","C_Dist_200_LN_13_LD_26_RN_14_RD_20_1.png","C_Dist_200_LN_3_LD_10_RN_11_RD_22_1.png","C_Dist_200_LN_3_LD_10_RN_14_RD_28_1.png","C_Dist_200_LN_3_LD_10_RN_7_RD_14_1.png","C_Dist_200_LN_3_LD_12_RN_9_RD_20_1.png","C_Dist_200_LN_3_LD_6_RN_14_RD_20_1.png","C_Dist_200_LN_5_LD_10_RN_14_RD_20_1.png","C_Dist_200_LN_6_LD_12_RN_7_RD_10_1.png","C_Dist_200_LN_6_LD_20_RN_11_RD_22_1.png","C_Dist_200_LN_7_LD_15_RN_18_RD_27_1.png","C_Dist_200_LN_9_LD_30_RN_13_RD_26_1.png"]],"dist200_I":[["I_Dist_200_LN_1_LD_2_RN_3_RD_10_0.png","I_Dist_200_LN_1_LD_3_RN_2_RD_15_0.png","I_Dist_200_LN_3_LD_4_RN_11_RD_20_0.png","I_Dist_200_LN_4_LD_5_RN_6_RD_10_0.png","I_Dist_200_LN_4_LD_6_RN_14_RD_30_0.png","I_Dist_200_LN_7_LD_10_RN_12_RD_24_0.png","I_Dist_200_LN_7_LD_10_RN_14_RD_28_0.png","I_Dist_200_LN_7_LD_10_RN_8_RD_16_0.png"],["I_Dist_200_LN_11_LD_20_RN_3_RD_4_1.png","I_Dist_200_LN_14_LD_30_RN_12_RD_18_1.png","I_Dist_200_LN_14_LD_30_RN_6_RD_9_1.png","I_Dist_200_LN_3_LD_10_RN_1_RD_2_1.png","I_Dist_200_LN_4_LD_30_RN_1_RD_3_1.png","I_Dist_200_LN_6_LD_20_RN_3_RD_6_1.png","I_Dist_200_LN_7_LD_15_RN_4_RD_6_1.png","I_Dist_200_LN_7_LD_15_RN_6_RD_9_1.png","I_Dist_200_LN_9_LD_15_RN_8_RD_10_1.png"]],"dist200_S":[["E_Dist_200_LN_3_LD_6_RN_3_RD_10_0.png"],["E_Dist_200_LN_3_LD_10_RN_3_RD_6_1.png"]],"dist300_C":[["C_Dist_300_LN_11_LD_22_RN_1_RD_5_0.png","C_Dist_300_LN_11_LD_22_RN_2_RD_10_0.png","C_Dist_300_LN_11_LD_22_RN_4_RD_20_0.png","C_Dist_300_LN_12_LD_24_RN_2_RD_10_0.png","C_Dist_300_LN_18_LD_20_RN_9_RD_15_0.png","C_Dist_300_LN_20_LD_25_RN_13_RD_26_0.png","C_Dist_300_LN_20_LD_25_RN_14_RD_28_0.png","C_Dist_300_LN_20_LD_25_RN_5_RD_10_0.png","C_Dist_300_LN_20_LD_25_RN_8_RD_16_0.png","C_Dist_300_LN_20_LD_25_RN_9_RD_18_0.png","C_Dist_300_LN_24_LD_30_RN_2_RD_4_0.png","C_Dist_300_LN_24_LD_30_RN_8_RD_16_0.png","C_Dist_300_LN_3_LD_6_RN_2_RD_10_0.png","C_Dist_300_LN_4_LD_10_RN_1_RD_10_0.png","C_Dist_300_LN_4_LD_5_RN_2_RD_4_0.png","C_Dist_300_LN_8_LD_16_RN_1_RD_5_0.png","C_Dist_300_LN_9_LD_10_RN_3_RD_5_0.png"],["C_Dist_300_LN_1_LD_20_RN_7_RD_20_1.png","C_Dist_300_LN_1_LD_3_RN_19_RD_30_1.png","C_Dist_300_LN_1_LD_30_RN_8_RD_24_1.png","C_Dist_300_LN_1_LD_5_RN_11_RD_22_1.png","C_Dist_300_LN_1_LD_5_RN_3_RD_6_1.png","C_Dist_300_LN_1_LD_5_RN_6_RD_12_1.png","C_Dist_300_LN_2_LD_10_RN_12_RD_24_1.png","C_Dist_300_LN_2_LD_20_RN_10_RD_25_1.png","C_Dist_300_LN_3_LD_12_RN_11_RD_20_1.png","C_Dist_300_LN_3_LD_6_RN_4_RD_5_1.png","C_Dist_300_LN_4_LD_20_RN_13_RD_26_1.png","C_Dist_300_LN_5_LD_25_RN_6_RD_12_1.png","C_Dist_300_LN_5_LD_25_RN_7_RD_14_1.png","C_Dist_300_LN_7_LD_14_RN_20_RD_25_1.png","C_Dist_300_LN_8_LD_15_RN_10_RD_12_1.png"]],"dist300_I":[["I_Dist_300_LN_1_LD_2_RN_2_RD_10_0.png","I_Dist_300_LN_1_LD_2_RN_3_RD_15_0.png","I_Dist_300_LN_2_LD_4_RN_6_RD_30_0.png","I_Dist_300_LN_3_LD_6_RN_4_RD_20_0.png","I_Dist_300_LN_4_LD_5_RN_6_RD_12_0.png","I_Dist_300_LN_4_LD_5_RN_8_RD_16_0.png","I_Dist_300_LN_7_LD_10_RN_8_RD_20_0.png","I_Dist_300_LN_8_LD_10_RN_14_RD_28_0.png","I_Dist_300_LN_8_LD_10_RN_9_RD_18_0.png"],["I_Dist_300_LN_13_LD_26_RN_12_RD_15_1.png","I_Dist_300_LN_4_LD_20_RN_2_RD_4_1.png"]],"dist300_S":[["E_Dist_300_LN_9_LD_12_RN_9_RD_20_0.png"],["E_Dist_300_LN_18_LD_30_RN_18_RD_20_1.png","E_Dist_300_LN_3_LD_10_RN_3_RD_5_1.png","E_Dist_300_LN_9_LD_20_RN_9_RD_12_1.png"]],"dist500_C":[["C_Dist_500_LN_10_LD_13_RN_7_RD_26_0.png","C_Dist_500_LN_10_LD_15_RN_4_RD_24_0.png","C_Dist_500_LN_12_LD_16_RN_3_RD_12_0.png","C_Dist_500_LN_12_LD_18_RN_4_RD_24_0.png","C_Dist_500_LN_15_LD_18_RN_5_RD_15_0.png","C_Dist_500_LN_15_LD_20_RN_1_RD_4_0.png","C_Dist_500_LN_18_LD_27_RN_1_RD_6_0.png","C_Dist_500_LN_20_LD_24_RN_1_RD_3_0.png","C_Dist_500_LN_20_LD_24_RN_3_RD_9_0.png","C_Dist_500_LN_20_LD_24_RN_7_RD_21_0.png","C_Dist_500_LN_20_LD_28_RN_3_RD_14_0.png","C_Dist_500_LN_21_LD_28_RN_6_RD_24_0.png","C_Dist_500_LN_22_LD_28_RN_2_RD_7_0.png","C_Dist_500_LN_25_LD_30_RN_9_RD_27_0.png","C_Dist_500_LN_4_LD_6_RN_1_RD_6_0.png","C_Dist_500_LN_5_LD_6_RN_2_RD_6_0.png","C_Dist_500_LN_6_LD_9_RN_1_RD_6_0.png","C_Dist_500_LN_7_LD_10_RN_1_RD_5_0.png","C_Dist_500_LN_8_LD_12_RN_1_RD_6_0.png","C_Dist_500_LN_8_LD_12_RN_4_RD_24_0.png"],["C_Dist_500_LN_1_LD_4_RN_12_RD_16_1.png","C_Dist_500_LN_1_LD_4_RN_9_RD_12_1.png","C_Dist_500_LN_1_LD_9_RN_11_RD_18_1.png","C_Dist_500_LN_10_LD_24_RN_22_RD_24_1.png","C_Dist_500_LN_2_LD_12_RN_10_RD_15_1.png","C_Dist_500_LN_2_LD_12_RN_12_RD_18_1.png","C_Dist_500_LN_2_LD_12_RN_4_RD_6_1.png","C_Dist_500_LN_2_LD_24_RN_7_RD_12_1.png","C_Dist_500_LN_2_LD_5_RN_18_RD_20_1.png","C_Dist_500_LN_2_LD_5_RN_9_RD_10_1.png","C_Dist_500_LN_2_LD_8_RN_12_RD_16_1.png","C_Dist_500_LN_2_LD_8_RN_21_RD_28_1.png","C_Dist_500_LN_3_LD_10_RN_4_RD_5_1.png","C_Dist_500_LN_3_LD_12_RN_15_RD_20_1.png","C_Dist_500_LN_3_LD_30_RN_6_RD_10_1.png","C_Dist_500_LN_3_LD_8_RN_14_RD_16_1.png","C_Dist_500_LN_4_LD_16_RN_15_RD_20_1.png","C_Dist_500_LN_4_LD_24_RN_12_RD_18_1.png","C_Dist_500_LN_5_LD_14_RN_6_RD_7_1.png","C_Dist_500_LN_7_LD_21_RN_20_RD_24_1.png","C_Dist_500_LN_7_LD_28_RN_12_RD_16_1.png","C_Dist_500_LN_7_LD_28_RN_9_RD_12_1.png","C_Dist_500_LN_9_LD_27_RN_20_RD_24_1.png"]],"dist500_I":[["I_Dist_500_LN_2_LD_3_RN_4_RD_24_0.png","I_Dist_500_LN_5_LD_6_RN_6_RD_18_0.png","I_Dist_500_LN_7_LD_8_RN_9_RD_24_0.png"],["I_Dist_500_LN_7_LD_21_RN_5_RD_6_1.png"]],"dist500_S":[["E_Dist_500_LN_6_LD_8_RN_6_RD_24_0.png"],["E_Dist_500_LN_2_LD_12_RN_2_RD_3_1.png","E_Dist_500_LN_6_LD_24_RN_6_RD_8_1.png"]]}},{"start_time":1551892386074,"click_time":1551892388373,"finger_time":1551892387994,"fix_duration":879.2749793689703,"trial":1,"RT":1920,"MT":379,"sideResp":1,"stimulus":[],"xmouse":[770,770,770,770,770,770,770,770,770,770,770,770,770,770,770,771,772,772,772,772,772,772,772,772,772,772,772,772,772,772,772,772,772,772,772,772,772,772,772,772,772,772,772,772,772,772,772,772,772,772,772,772,772,772,772,772,772,772,772,772,772,772,772,772,772,772,772,772,772,772,772,772,772,772,772,772,772,772,772,772,772,772,772,772,772,772,772,772,772,772,772,772,764,759,753,745,713,695,665,646,617,585,581,576,573,568,564,549,541,539,537,534,531,529,526,522],"ymouse":[628,628,628,628,628,628,628,628,628,628,628,628,628,628,628,628,628,628,628,628,628,628,628,628,628,628,628,628,628,628,628,628,628,628,628,628,628,628,628,628,628,628,628,628,628,628,628,628,628,628,628,628,628,628,628,628,628,628,628,628,628,628,628,628,628,628,628,628,628,628,628,628,628,628,628,628,628,628,628,628,628,628,628,628,628,628,628,628,628,628,628,627,613,605,595,586,549,526,491,461,415,333,306,278,248,221,197,160,137,126,119,115,109,105,100,95],"timestamp_mouse":[2,19,40,59,78,99,119,139,159,178,200,220,239,259,279,300,318,339,359,379,398,420,440,459,480,498,519,539,559,580,598,619,640,660,679,700,719,738,758,778,798,818,838,859,878,899,919,939,960,978,998,1019,1039,1060,1080,1099,1119,1138,1160,1178,1200,1220,1239,1259,1280,1298,1319,1339,1358,1379,1399,1418,1439,1460,1478,1499,1519,1539,1559,1579,1600,1618,1639,1660,1679,1700,1719,1739,1759,1778,1798,1819,1838,1860,1879,1898,1920,1938,1958,1979,1999,2019,2038,2058,2078,2099,2120,2140,2160,2178,2199,2220,2240,2259,2278,2298],"xSR":741.5,"ySR":573.95,"xT1":424.9,"yT1":0,"xT2":1058.1,"yT2":0,"toosoon":0,"cond_shown":"Congruent","ratio_trial":100,"L_num":9,"L_den":15,"R_num":8,"R_den":16,"correct_side":1,"subjID":"cristalrojas37","gender":"1","school":"6","age":"11"},{"start_time":1551892390136,"click_time":1551892391492,"finger_time":1551892391033,"fix_duration":822.451167862131,"trial":2,"RT":897,"MT":459,"sideResp":1,"stimulus":[],"xmouse":[823,823,823,823,823,823,823,823,823,823,823,823,823,823,823,823,823,823,823,823,823,823,823,823,823,823,823,823,822,820,818,817,816,816,816,816,816,816,816,816,815,815,811,807,792,748,708,629,599,574,560,549,546,542,541,541,541,541,541,541,541,541,541,541,537,531,526,517],"ymouse":[651,651,651,651,651,651,651,651,651,651,651,651,651,651,651,651,651,651,651,651,651,651,651,651,651,651,651,651,651,645,640,635,632,631,631,631,631,631,631,631,630,628,600,577,539,452,383,257,201,154,131,112,107,99,98,98,98,98,98,98,98,98,98,98,95,87,83,75],"timestamp_mouse":[17,36,58,78,96,118,136,157,177,197,217,236,256,277,298,316,336,357,378,398,416,438,456,476,497,518,537,557,576,597,617,636,656,676,696,718,737,757,777,797,816,837,857,876,897,917,937,957,976,997,1017,1036,1057,1077,1097,1116,1138,1157,1177,1196,1216,1238,1256,1276,1297,1317,1338,1356],"xSR":741.5,"ySR":573.95,"xT1":424.9,"yT1":0,"xT2":1058.1,"yT2":0,"toosoon":0,"cond_shown":"Congruent","ratio_trial":300,"L_num":9,"L_den":10,"R_num":3,"R_den":5,"correct_side":1,"subjID":"cristalrojas37","gender":"1","school":"6","age":"11"},{"start_time":1551892393488,"click_time":1551892395132,"finger_time":1551892394734,"fix_duration":553.4375786485756,"trial":3,"RT":1246,"MT":398,"sideResp":2,"stimulus":[],"xmouse":[818,818,818,818,818,818,818,818,818,818,818,818,818,818,818,818,818,818,818,818,818,818,818,818,818,818,818,818,818,818,818,818,818,818,818,818,818,818,818,818,818,818,818,818,818,818,818,818,818,818,818,818,818,818,818,818,818,818,818,818,820,827,843,872,908,980,1011,1038,1050,1060,1065,1072,1075,1076,1078,1082,1083,1086,1087,1090,1098,1100,1102],"ymouse":[617,617,617,617,617,617,617,617,617,617,617,617,617,617,617,617,617,617,617,617,617,617,617,617,617,617,617,617,617,617,617,617,617,617,617,617,617,617,617,617,617,617,617,617,617,617,617,617,617,617,617,617,617,617,617,617,617,617,617,617,612,599,576,534,487,383,328,273,246,223,205,182,174,168,163,154,151,143,137,127,108,100,92],"timestamp_mouse":[9,34,45,64,85,104,124,145,164,186,206,224,246,266,284,304,326,344,365,385,406,424,445,465,486,504,525,545,564,585,606,625,644,665,685,705,724,746,764,785,806,825,845,866,884,904,925,944,964,986,1005,1024,1044,1066,1085,1105,1124,1146,1164,1185,1205,1226,1246,1265,1284,1306,1324,1345,1366,1384,1405,1425,1444,1465,1485,1506,1524,1545,1564,1585,1605,1624,1644],"xSR":741.5,"ySR":573.95,"xT1":424.9,"yT1":0,"xT2":1058.1,"yT2":0,"toosoon":0,"cond_shown":"Congruent","ratio_trial":200,"L_num":9,"L_den":30,"R_num":13,"R_den":26,"correct_side":2,"subjID":"cristalrojas37","gender":"1","school":"6","age":"11"},{"start_time":1551892398478,"click_time":1551892399793,"finger_time":1551892399193,"fix_duration":883.0479862751118,"trial":4,"RT":715,"MT":600,"sideResp":2,"stimulus":[],"xmouse":[777,777,777,777,777,777,777,777,777,777,777,777,777,777,777,777,777,777,777,777,777,777,777,777,777,777,777,777,777,777,777,777,781,788,803,833,842,842,842,842,842,842,842,842,843,844,860,878,913,935,960,970,978,987,996,1011,1015,1019,1023,1028,1040,1045,1051,1057,1065,1075],"ymouse":[602,602,602,602,602,602,602,602,602,602,602,602,602,602,602,602,602,602,602,602,602,602,602,602,602,602,602,602,602,602,602,602,600,594,583,562,557,557,557,557,557,557,557,557,555,552,529,505,455,424,378,352,325,295,273,241,233,224,219,210,189,177,168,155,136,94],"timestamp_mouse":[14,35,55,75,95,116,134,156,176,195,216,234,254,276,294,314,336,356,374,394,415,436,455,475,495,514,535,554,576,595,615,634,656,675,694,715,734,755,775,795,815,836,854,875,894,915,936,954,975,995,1016,1034,1055,1075,1096,1115,1134,1155,1175,1196,1215,1234,1255,1275,1295,1314],"xSR":741.5,"ySR":573.95,"xT1":424.9,"yT1":0,"xT2":1058.1,"yT2":0,"toosoon":0,"cond_shown":"Incongruent","ratio_trial":100,"L_num":3,"L_den":5,"R_num":11,"R_den":22,"correct_side":1,"subjID":"cristalrojas37","gender":"1","school":"6","age":"11"},{"start_time":1551892401747,"click_time":1551892403213,"finger_time":1551892403074,"fix_duration":592.6635287903866,"trial":5,"RT":1327,"MT":139,"sideResp":2,"stimulus":[],"xmouse":[821,821,821,821,821,821,821,821,821,821,821,821,821,821,821,821,821,821,821,821,821,821,821,821,821,821,821,821,821,821,821,821,821,821,821,821,821,821,821,821,821,821,821,821,821,821,821,821,821,821,821,821,821,821,821,821,821,821,821,821,821,821,821,821,822,832,847,898,933,965,1002,1032,1074,1082],"ymouse":[602,602,602,602,602,602,602,602,602,602,602,602,602,602,602,602,602,602,602,602,602,602,602,602,602,602,602,602,602,602,602,602,602,602,602,602,602,602,602,602,602,602,602,602,602,602,602,602,602,602,602,602,602,602,602,602,602,602,602,602,602,602,602,602,601,592,580,535,485,424,353,268,119,96],"timestamp_mouse":[8,32,46,65,86,107,126,145,166,185,206,225,246,265,285,305,326,347,365,386,405,426,447,465,486,506,526,546,565,586,606,626,646,667,686,705,727,747,765,787,807,826,846,865,886,907,926,946,965,986,1006,1026,1046,1066,1086,1105,1127,1147,1166,1187,1205,1227,1246,1266,1286,1307,1327,1346,1366,1386,1406,1426,1445,1466],"xSR":741.5,"ySR":573.95,"xT1":424.9,"yT1":0,"xT2":1058.1,"yT2":0,"toosoon":0,"cond_shown":"Incongruent","ratio_trial":200,"L_num":4,"L_den":5,"R_num":6,"R_den":10,"correct_side":1,"subjID":"cristalrojas37","gender":"1","school":"6","age":"11"},{"start_time":1551892404586,"click_time":1551892406512,"finger_time":1551892405974,"fix_duration":250,"trial":6,"RT":1388,"MT":538,"sideResp":1,"stimulus":[],"xmouse":[821,821,821,821,821,821,821,821,821,821,821,821,821,821,821,821,821,821,821,821,821,821,821,821,821,821,821,821,821,820,820,820,820,820,820,820,820,820,820,820,820,820,820,820,820,820,820,820,820,820,820,820,820,820,820,820,820,820,820,820,820,820,820,820,820,820,820,820,820,820,817,813,798,784,754,695,676,664,654,645,633,628,621,611,608,604,603,602,601,598,590,584,581,570,558,532,522],"ymouse":[582,582,582,582,582,582,582,582,582,582,582,582,582,582,582,582,582,582,582,582,582,582,582,582,582,582,582,582,582,582,581,579,578,577,577,576,576,576,576,576,576,576,576,576,576,576,576,576,576,576,576,576,576,576,576,576,576,576,576,576,576,576,576,576,576,576,576,576,574,571,548,522,448,394,344,265,238,219,197,172,127,112,99,83,77,69,65,63,62,60,57,56,56,56,56,58,58],"timestamp_mouse":[7,36,47,67,87,107,127,147,166,187,207,227,246,267,288,306,328,347,367,387,407,426,447,467,486,508,527,548,566,586,606,627,648,667,688,707,726,748,768,786,807,828,846,867,888,908,927,948,968,987,1007,1026,1047,1067,1088,1107,1127,1148,1167,1187,1208,1227,1246,1267,1287,1308,1327,1347,1366,1388,1407,1428,1446,1466,1488,1507,1526,1546,1568,1587,1606,1626,1647,1667,1687,1706,1726,1746,1767,1786,1806,1826,1847,1866,1887,1907,1926],"xSR":741.5,"ySR":573.95,"xT1":424.9,"yT1":0,"xT2":1058.1,"yT2":0,"toosoon":0,"cond_shown":"Congruent","ratio_trial":200,"L_num":15,"L_den":25,"R_num":4,"R_den":10,"correct_side":1,"subjID":"cristalrojas37","gender":"1","school":"6","age":"11"},{"start_time":1551892408195,"click_time":1551892410533,"finger_time":1551892409514,"fix_duration":381.44412113434964,"trial":7,"RT":1319,"MT":1019,"sideResp":1,"stimulus":[],"xmouse":[792,792,792,792,792,792,792,792,792,792,792,792,792,792,792,792,792,792,792,792,792,792,792,792,792,792,792,792,792,792,792,792,792,792,792,792,792,792,792,792,792,792,792,792,792,792,792,792,792,792,792,792,792,792,792,792,792,792,792,792,792,792,792,793,825,845,856,864,868,870,870,870,870,871,875,878,883,888,895,911,918,927,946,960,987,996,1001,1004,1005,1005,1005,1005,1001,989,965,899,873,854,843,836,829,822,814,805,801,789,779,765,747,706,685,650,628,605,558,536,516],"ymouse":[608,608,608,608,608,608,608,608,608,608,608,608,608,608,608,608,608,608,608,608,608,608,608,608,608,608,608,608,608,608,608,608,608,608,608,608,608,608,608,608,608,608,608,608,608,608,608,608,608,608,608,608,608,608,608,608,608,608,608,608,608,608,608,608,576,548,527,508,487,447,423,398,383,368,342,331,316,304,288,258,245,231,209,194,169,160,154,151,148,145,145,144,140,136,133,131,131,129,128,127,126,126,126,126,126,123,120,116,109,98,92,82,76,73,66,66,66],"timestamp_mouse":[17,41,57,77,99,119,138,157,178,198,218,237,258,278,298,318,338,358,379,399,417,439,459,478,498,517,537,558,579,598,618,637,659,677,697,717,737,759,777,798,817,837,858,878,898,919,938,958,977,998,1018,1037,1058,1077,1098,1118,1138,1158,1178,1198,1219,1238,1258,1278,1298,1319,1338,1359,1378,1398,1417,1437,1457,1478,1498,1517,1538,1558,1578,1598,1617,1638,1659,1677,1697,1717,1738,1759,1778,1798,1819,1839,1858,1878,1898,1918,1938,1958,1978,1998,2017,2037,2057,2077,2097,2118,2138,2157,2178,2198,2217,2238,2258,2277,2297,2317,2338],"xSR":741.5,"ySR":573.95,"xT1":424.9,"yT1":0,"xT2":1058.1,"yT2":0,"toosoon":0,"cond_shown":"Incongruent","ratio_trial":200,"L_num":7,"L_den":10,"R_num":8,"R_den":16,"correct_side":1,"subjID":"cristalrojas37","gender":"1","school":"6","age":"11"},{"start_time":1551892412582,"click_time":1551892414092,"finger_time":1551892413892,"fix_duration":987.9008409864629,"trial":8,"RT":1310,"MT":200,"sideResp":2,"stimulus":[],"xmouse":[808,808,808,808,808,808,808,808,808,808,808,808,808,808,808,808,808,808,808,808,808,808,808,808,808,808,808,808,808,808,808,808,808,808,808,808,808,808,808,808,808,808,808,808,808,808,808,808,808,808,808,808,808,808,808,808,808,808,808,808,808,808,808,814,828,844,887,904,921,941,965,1013,1030,1042,1049,1062],"ymouse":[602,602,602,602,602,602,602,602,602,602,602,602,602,602,602,602,602,602,602,602,602,602,602,602,602,602,602,602,602,602,602,602,602,602,602,602,602,602,602,602,602,602,602,602,602,602,602,602,602,602,602,602,602,602,602,602,602,602,602,602,602,602,602,595,575,553,477,429,379,331,272,159,119,76,51,15],"timestamp_mouse":[11,36,52,70,92,111,130,152,170,191,212,230,251,272,291,310,331,352,372,390,411,430,451,471,490,512,531,550,571,590,611,630,651,670,690,711,730,751,771,790,811,831,852,872,891,910,931,952,970,991,1010,1031,1050,1071,1091,1111,1131,1150,1171,1191,1210,1230,1252,1272,1290,1310,1332,1351,1372,1391,1411,1431,1451,1470,1490,1510],"xSR":741.5,"ySR":573.95,"xT1":424.9,"yT1":0,"xT2":1058.1,"yT2":0,"toosoon":0,"cond_shown":"Incongruent","ratio_trial":100,"L_num":2,"L_den":4,"R_num":8,"R_den":20,"correct_side":1,"subjID":"cristalrojas37","gender":"1","school":"6","age":"11"},{"start_time":1551892416499,"click_time":1551892418114,"finger_time":1551892417894,"fix_duration":1105.6003569636257,"trial":9,"RT":1395,"MT":220,"sideResp":2,"stimulus":[],"xmouse":[798,798,798,798,798,798,798,798,798,798,798,798,798,798,798,798,798,798,798,798,798,798,798,798,798,798,798,798,798,798,798,798,798,798,798,798,798,798,798,798,798,798,798,798,798,798,798,798,798,798,798,798,798,798,798,798,798,798,798,798,798,798,798,798,798,798,798,798,819,848,899,920,934,940,943,965,978,996,1016,1038,1073],"ymouse":[603,603,603,603,603,604,604,604,604,604,604,604,604,604,604,604,604,604,604,604,604,604,604,604,604,604,604,604,604,604,604,604,604,604,604,604,604,604,604,604,604,604,604,604,604,604,604,604,604,604,604,604,604,604,604,604,604,604,604,604,604,604,604,604,604,604,604,601,588,576,540,518,496,479,462,381,339,294,236,177,87],"timestamp_mouse":[14,34,56,73,93,113,135,155,173,193,215,233,255,275,294,315,334,354,373,394,415,433,453,475,494,514,533,553,575,595,613,633,654,674,695,714,734,754,774,794,814,834,855,875,893,914,933,955,974,993,1013,1033,1054,1073,1093,1114,1133,1155,1175,1193,1213,1234,1254,1274,1293,1313,1334,1354,1373,1395,1415,1434,1454,1474,1493,1513,1534,1554,1574,1594,1615],"xSR":741.5,"ySR":573.95,"xT1":424.9,"yT1":0,"xT2":1058.1,"yT2":0,"toosoon":0,"cond_shown":"Incongruent","ratio_trial":100,"L_num":11,"L_den":22,"R_num":9,"R_den":15,"correct_side":2,"subjID":"cristalrojas37","gender":"1","school":"6","age":"11"},{"start_time":1551892420781,"click_time":1551892422393,"finger_time":1551892421714,"fix_duration":1388.981218325832,"trial":10,"RT":933,"MT":679,"sideResp":1,"stimulus":[],"xmouse":[822,820,816,814,812,812,812,812,812,812,812,812,812,812,812,812,812,812,812,812,812,812,812,812,812,812,812,812,812,812,812,812,812,812,812,812,812,812,812,812,812,812,812,812,812,812,807,803,797,793,788,775,772,769,766,760,746,741,735,725,711,679,661,644,632,605,597,592,586,581,574,557,550,546,541,531,512,504,501,498,491],"ymouse":[642,642,642,638,630,608,603,602,602,602,602,602,602,602,602,602,602,602,602,602,602,602,602,602,602,602,602,602,602,602,602,602,602,602,602,602,602,602,602,602,602,602,602,602,595,589,560,544,526,514,502,480,471,456,441,426,404,396,388,375,362,324,293,263,241,193,174,163,152,143,136,129,127,126,123,119,111,108,106,104,98],"timestamp_mouse":[12,42,53,71,92,113,133,151,172,192,211,233,252,272,293,313,332,352,371,393,411,431,451,471,492,511,532,551,572,591,612,632,652,673,691,711,733,751,771,792,811,833,853,871,891,912,933,951,971,992,1012,1031,1051,1071,1091,1112,1133,1151,1172,1192,1212,1233,1252,1271,1293,1312,1331,1352,1371,1392,1412,1431,1451,1472,1492,1512,1533,1551,1572,1593,1612],"xSR":741.5,"ySR":573.95,"xT1":424.9,"yT1":0,"xT2":1058.1,"yT2":0,"toosoon":0,"cond_shown":"Congruent","ratio_trial":300,"L_num":20,"L_den":25,"R_num":9,"R_den":18,"correct_side":1,"subjID":"cristalrojas37","gender":"1","school":"6","age":"11"},{"start_time":1551892424527,"click_time":1551892426113,"finger_time":1551892425953,"fix_duration":1053.9364607910052,"trial":11,"RT":1426,"MT":160,"sideResp":2,"stimulus":[],"xmouse":[778,778,778,778,778,778,778,778,778,778,778,778,778,778,778,778,778,778,778,778,778,778,778,778,778,778,778,778,778,778,778,778,778,778,778,778,778,778,778,778,778,778,778,778,778,778,778,778,778,778,778,778,778,778,778,778,778,778,778,778,778,778,778,778,778,778,778,778,778,792,806,819,838,856,892,932,961,995,1055,1080],"ymouse":[633,633,633,632,631,628,627,627,626,626,626,626,626,626,626,626,626,626,626,626,626,626,626,626,626,626,626,626,626,626,626,626,626,626,626,626,626,626,626,626,626,626,626,626,626,626,626,626,626,626,626,626,626,626,626,626,626,626,626,626,626,626,626,626,626,626,626,626,617,603,588,566,533,495,404,308,241,173,78,42],"timestamp_mouse":[7,36,45,65,86,106,127,145,167,185,207,226,245,265,285,306,327,345,365,386,405,426,446,466,486,507,525,545,565,586,605,625,645,667,687,705,726,746,765,786,806,826,846,865,885,906,925,945,965,986,1005,1026,1045,1067,1086,1105,1126,1145,1167,1186,1205,1225,1247,1266,1286,1306,1325,1345,1366,1385,1406,1426,1445,1465,1486,1506,1525,1545,1566,1586],"xSR":741.5,"ySR":573.95,"xT1":424.9,"yT1":0,"xT2":1058.1,"yT2":0,"toosoon":0,"cond_shown":"Congruent","ratio_trial":300,"L_num":1,"L_den":5,"R_num":6,"R_den":12,"correct_side":2,"subjID":"cristalrojas37","gender":"1","school":"6","age":"11"},{"start_time":1551892427684,"click_time":1551892429992,"finger_time":1551892429513,"fix_duration":250,"trial":12,"RT":1829,"MT":479,"sideResp":2,"stimulus":[],"xmouse":[798,798,798,798,798,798,798,798,798,798,798,798,798,798,798,798,798,798,798,798,798,798,799,800,800,800,800,802,803,804,804,804,804,804,804,804,804,804,804,804,804,804,804,804,804,804,804,804,804,804,804,804,804,804,804,804,804,804,804,804,804,804,804,804,804,804,804,804,804,804,804,804,804,804,804,804,804,804,804,804,804,804,804,804,804,804,804,804,804,804,814,836,851,868,891,932,953,961,966,969,978,985,991,994,995,997,1010,1018,1023,1025,1031,1033,1039,1046,1056,1061],"ymouse":[607,607,607,607,607,607,607,607,607,607,607,607,607,607,607,607,607,607,607,607,607,607,608,608,608,608,608,608,608,608,608,608,608,608,608,608,608,608,608,608,608,608,608,608,608,608,608,608,608,608,608,608,608,608,608,608,608,608,608,608,608,608,608,608,608,608,608,608,608,608,608,608,608,608,608,608,608,608,608,608,608,608,608,608,608,608,608,608,608,608,593,563,546,523,495,439,400,376,353,334,299,281,267,259,256,248,214,195,174,155,118,101,86,73,59,52],"timestamp_mouse":[9,38,48,68,90,110,128,148,170,189,210,229,248,269,288,309,329,348,369,388,409,428,448,468,489,509,530,550,568,588,610,629,650,668,688,709,728,749,769,790,808,828,849,870,889,909,928,950,968,989,1009,1030,1049,1070,1090,1109,1130,1149,1170,1189,1209,1229,1249,1269,1290,1309,1328,1350,1370,1389,1410,1430,1448,1469,1490,1509,1530,1549,1569,1588,1610,1628,1648,1669,1690,1710,1729,1748,1769,1790,1808,1829,1849,1870,1888,1909,1930,1948,1968,1988,2009,2028,2049,2069,2089,2108,2128,2148,2168,2189,2209,2228,2249,2268,2288,2308],"xSR":741.5,"ySR":573.95,"xT1":424.9,"yT1":0,"xT2":1058.1,"yT2":0,"toosoon":0,"cond_shown":"Incongruent","ratio_trial":300,"L_num":4,"L_den":20,"R_num":2,"R_den":4,"correct_side":2,"subjID":"cristalrojas37","gender":"1","school":"6","age":"11"},{"start_time":1551892432407,"click_time":1551892433834,"finger_time":1551892433412,"fix_duration":1373.7084162830151,"trial":13,"RT":1005,"MT":422,"sideResp":2,"stimulus":[],"xmouse":[793,793,793,793,793,793,793,793,793,793,793,793,793,793,793,793,793,793,793,793,794,794,794,795,795,795,795,795,795,795,795,795,795,795,795,795,795,795,795,795,795,795,795,795,795,795,799,803,816,831,897,920,934,948,967,976,984,991,994,1001,1005,1007,1008,1008,1008,1013,1021,1032,1044,1062,1113,1137],"ymouse":[633,633,633,633,633,633,633,633,633,633,633,633,633,633,633,633,633,633,633,633,634,634,634,634,634,634,634,634,634,634,634,634,634,634,634,634,634,634,634,634,634,634,634,634,634,634,629,623,608,590,514,483,459,433,393,372,353,337,326,306,297,288,287,287,287,277,265,248,224,190,100,62],"timestamp_mouse":[7,33,45,67,86,105,125,147,167,186,206,226,245,265,285,307,325,345,367,385,406,427,446,465,487,506,526,545,566,586,606,625,645,666,686,706,725,746,766,787,806,825,847,866,887,905,925,945,967,985,1005,1025,1046,1067,1086,1106,1125,1145,1166,1186,1205,1226,1246,1265,1285,1305,1325,1346,1365,1385,1405,1426],"xSR":741.5,"ySR":573.95,"xT1":424.9,"yT1":0,"xT2":1058.1,"yT2":0,"toosoon":0,"cond_shown":"Congruent","ratio_trial":100,"L_num":6,"L_den":12,"R_num":15,"R_den":25,"correct_side":2,"subjID":"cristalrojas37","gender":"1","school":"6","age":"11"},{"start_time":1551892436647,"click_time":1551892438032,"finger_time":1551892437433,"fix_duration":1134.648478907721,"trial":14,"RT":786,"MT":599,"sideResp":2,"stimulus":[],"xmouse":[777,778,778,778,779,780,780,781,783,783,783,783,783,783,783,783,783,783,784,784,784,784,784,784,784,784,784,784,787,789,792,794,798,801,803,806,809,814,823,835,841,851,867,877,887,894,898,901,904,906,911,915,923,927,935,944,962,996,1008,1011,1014,1014,1019,1022,1026,1031,1037,1048,1056,1066],"ymouse":[651,650,650,650,649,645,643,639,630,629,629,629,628,628,628,628,628,628,628,626,626,626,626,626,626,626,626,626,621,617,615,612,607,604,600,596,592,587,578,565,554,540,510,494,477,468,461,455,448,440,429,419,391,379,360,335,294,220,193,182,177,173,165,160,152,141,128,95,70,51],"timestamp_mouse":[8,25,46,65,85,106,127,145,166,186,206,226,246,266,285,306,325,345,366,387,405,425,445,466,485,505,526,545,565,585,606,625,646,666,685,705,726,745,766,786,805,825,845,865,885,905,925,946,966,985,1006,1025,1045,1065,1085,1105,1126,1145,1166,1186,1206,1225,1245,1266,1285,1305,1325,1345,1367,1385],"xSR":741.5,"ySR":573.95,"xT1":424.9,"yT1":0,"xT2":1058.1,"yT2":0,"toosoon":0,"cond_shown":"Incongruent","ratio_trial":100,"L_num":4,"L_den":8,"R_num":8,"R_den":20,"correct_side":1,"subjID":"cristalrojas37","gender":"1","school":"6","age":"11"},{"start_time":1551892439466,"click_time":1551892441292,"finger_time":1551892440852,"fix_duration":332.5499429527784,"trial":15,"RT":1386,"MT":440,"sideResp":2,"stimulus":[],"xmouse":[789,789,789,789,789,789,789,789,789,789,789,789,789,789,789,789,789,789,789,789,789,789,789,790,790,790,790,790,790,790,790,790,790,790,790,790,790,790,790,790,790,790,790,790,790,790,790,790,790,790,790,790,790,790,790,790,790,790,790,790,790,790,790,790,790,790,790,799,808,846,888,930,967,977,987,1006,1043,1065,1076,1082,1084,1084,1084,1084,1084,1089,1096,1103,1106,1110,1113,1115],"ymouse":[622,622,622,622,622,622,622,622,622,622,622,622,622,622,622,622,622,622,622,622,622,622,622,616,608,606,606,606,606,606,606,606,606,606,606,606,606,606,606,606,606,606,606,606,606,606,606,606,606,606,606,606,606,606,606,606,606,606,606,606,606,606,606,606,606,606,606,597,588,549,499,441,374,354,331,299,245,211,197,185,180,180,180,179,176,167,156,138,127,117,107,96],"timestamp_mouse":[9,38,46,68,86,106,127,146,167,188,207,227,246,281,287,307,326,348,366,387,406,428,446,466,486,506,526,546,567,586,606,627,646,667,686,706,726,746,766,787,807,826,848,867,886,906,926,946,967,987,1008,1026,1047,1067,1088,1106,1126,1146,1166,1187,1206,1226,1246,1267,1286,1307,1326,1346,1367,1386,1407,1426,1446,1467,1487,1506,1527,1547,1566,1587,1606,1627,1646,1667,1687,1706,1726,1746,1766,1786,1806,1826],"xSR":741.5,"ySR":573.95,"xT1":424.9,"yT1":0,"xT2":1058.1,"yT2":0,"toosoon":0,"cond_shown":"Incongruent","ratio_trial":200,"L_num":4,"L_den":30,"R_num":1,"R_den":3,"correct_side":2,"subjID":"cristalrojas37","gender":"1","school":"6","age":"11"},{"start_time":1551892442650,"click_time":1551892444093,"finger_time":1551892443833,"fix_duration":376.36090352266825,"trial":16,"RT":1183,"MT":260,"sideResp":2,"stimulus":[],"xmouse":[807,807,807,807,807,807,807,807,807,807,807,807,807,807,807,807,807,807,807,807,807,807,807,807,807,807,807,807,807,807,807,807,807,807,807,807,807,807,807,807,807,807,807,807,807,807,807,807,807,807,807,807,807,807,807,807,807,811,821,836,851,870,890,940,965,991,1015,1047,1055,1058,1059,1060,1063],"ymouse":[596,596,596,596,596,596,596,596,596,596,596,596,596,596,596,596,596,596,596,596,596,596,596,596,596,596,596,596,596,596,596,596,596,596,596,596,596,596,596,596,596,596,596,596,596,596,596,596,596,596,596,596,596,596,596,596,596,591,583,571,561,545,529,475,438,385,324,210,159,139,123,113,99],"timestamp_mouse":[8,23,42,62,82,102,124,142,162,182,203,222,242,262,283,303,322,343,362,383,402,422,443,464,482,503,522,542,562,583,603,622,642,663,682,704,722,742,763,784,802,823,844,862,882,904,923,942,962,982,1003,1022,1042,1062,1084,1103,1122,1142,1162,1183,1204,1222,1242,1263,1282,1302,1322,1342,1362,1383,1402,1423,1443],"xSR":741.5,"ySR":573.95,"xT1":424.9,"yT1":0,"xT2":1058.1,"yT2":0,"toosoon":0,"cond_shown":"Congruent","ratio_trial":200,"L_num":6,"L_den":20,"R_num":11,"R_den":22,"correct_side":2,"subjID":"cristalrojas37","gender":"1","school":"6","age":"11"},{"start_time":1551892448246,"click_time":1551892449972,"finger_time":1551892449793,"fix_duration":451.9198096782366,"trial":17,"RT":1547,"MT":179,"sideResp":2,"stimulus":[],"xmouse":[790,790,790,790,790,790,790,790,790,790,790,790,790,790,790,790,790,790,790,790,790,790,790,790,790,790,790,790,790,790,790,790,790,790,790,790,790,790,790,790,790,790,790,790,790,790,790,790,790,790,790,790,790,790,790,790,790,790,790,790,790,790,790,790,790,790,790,790,790,790,790,790,790,790,790,799,812,877,912,923,938,955,975,1020,1044,1060,1078],"ymouse":[629,629,629,629,629,629,629,629,629,629,629,629,629,629,629,629,629,629,629,629,629,629,629,629,629,629,629,629,629,629,629,629,629,629,629,629,629,629,629,629,629,629,629,629,629,629,629,629,629,629,629,629,629,629,629,629,629,629,629,629,629,629,629,629,629,629,629,629,629,629,629,629,629,629,629,617,598,516,468,444,405,346,288,183,143,114,78],"timestamp_mouse":[9,26,46,67,86,107,127,147,166,187,206,227,247,266,286,306,327,347,368,387,407,427,447,468,486,507,527,546,566,587,607,628,647,666,686,708,726,746,766,787,806,826,846,866,887,908,928,946,966,986,1006,1026,1046,1066,1086,1107,1126,1146,1166,1187,1207,1227,1247,1266,1286,1306,1327,1347,1366,1387,1406,1426,1446,1466,1486,1506,1526,1547,1566,1587,1608,1626,1647,1666,1686,1706,1726],"xSR":741.5,"ySR":573.95,"xT1":424.9,"yT1":0,"xT2":1058.1,"yT2":0,"toosoon":0,"cond_shown":"Congruent","ratio_trial":300,"L_num":2,"L_den":10,"R_num":12,"R_den":24,"correct_side":2,"subjID":"cristalrojas37","gender":"1","school":"6","age":"11"},{"start_time":1551892453062,"click_time":1551892453972,"finger_time":1551892453672,"fix_duration":568.2266929927102,"trial":18,"RT":610,"MT":300,"sideResp":2,"stimulus":[],"xmouse":[784,784,784,784,784,784,784,784,784,784,784,784,784,784,784,784,784,784,784,784,784,784,784,785,785,785,786,793,803,816,831,869,888,911,933,951,995,1019,1035,1045,1054,1059,1066,1070,1075,1077],"ymouse":[648,648,648,648,648,648,648,648,648,648,648,648,648,648,648,648,648,648,648,648,648,648,647,644,643,642,640,627,612,589,551,460,416,372,333,292,220,180,159,144,132,125,113,108,102,99],"timestamp_mouse":[10,30,51,72,90,110,131,151,171,190,210,230,250,271,291,310,330,351,370,390,410,430,450,471,490,510,530,550,571,592,610,631,650,671,691,710,731,750,770,790,811,830,850,870,891,910],"xSR":741.5,"ySR":573.95,"xT1":424.9,"yT1":0,"xT2":1058.1,"yT2":0,"toosoon":0,"cond_shown":"Congruent","ratio_trial":200,"L_num":1,"L_den":2,"R_num":21,"R_den":30,"correct_side":2,"subjID":"cristalrojas37","gender":"1","school":"6","age":"11"},{"start_time":1551892455386,"click_time":1551892457113,"finger_time":1551892456752,"fix_duration":471.7884704429496,"trial":19,"RT":1366,"MT":361,"sideResp":1,"stimulus":[],"xmouse":[816,816,816,816,816,816,816,816,816,816,816,816,816,816,816,816,816,816,816,816,816,816,816,816,816,816,816,816,816,816,816,816,816,816,816,816,816,816,816,816,816,816,816,816,816,816,816,816,816,816,816,816,816,816,816,816,816,816,816,816,816,816,816,816,816,816,816,810,799,788,734,717,692,677,662,644,637,627,615,601,573,559,547,542,538,533,520],"ymouse":[639,639,639,639,639,639,639,639,639,639,639,639,639,639,639,639,639,639,639,639,639,639,639,639,639,639,639,639,639,639,639,639,639,639,639,639,639,639,639,639,639,639,639,639,639,639,639,639,639,639,639,639,639,639,639,639,639,639,639,639,639,639,639,639,639,639,639,618,573,489,300,240,173,148,132,115,112,108,102,95,82,76,72,70,68,65,59],"timestamp_mouse":[8,39,47,66,88,107,126,146,166,186,206,228,246,266,286,307,326,347,366,386,407,426,446,466,486,506,526,546,566,587,608,626,647,666,686,706,726,746,766,786,807,826,846,868,887,906,926,948,966,986,1007,1027,1046,1066,1086,1107,1126,1146,1166,1187,1206,1227,1246,1266,1287,1306,1326,1346,1366,1386,1407,1426,1446,1466,1486,1506,1526,1546,1566,1586,1607,1626,1647,1667,1687,1706,1727],"xSR":741.5,"ySR":573.95,"xT1":424.9,"yT1":0,"xT2":1058.1,"yT2":0,"toosoon":0,"cond_shown":"Incongruent","ratio_trial":100,"L_num":8,"L_den":20,"R_num":1,"R_den":2,"correct_side":2,"subjID":"cristalrojas37","gender":"1","school":"6","age":"11"},{"start_time":1551892458444,"click_time":1551892460272,"finger_time":1551892459852,"fix_duration":250,"trial":20,"RT":1408,"MT":420,"sideResp":1,"stimulus":[],"xmouse":[790,790,790,790,790,790,790,790,790,790,790,790,790,790,790,790,790,790,790,790,790,790,790,790,790,790,790,790,790,790,790,790,790,790,790,790,790,790,790,790,790,790,790,790,790,790,790,790,790,790,790,790,790,790,790,790,790,790,790,790,790,790,790,782,775,772,772,771,769,760,755,743,719,708,698,686,676,664,634,611,597,581,564,533,522,516,511,497,489,482,476,473],"ymouse":[624,624,624,624,624,624,624,624,624,624,624,624,624,624,624,624,624,624,624,624,624,624,624,624,624,624,624,624,624,624,624,624,624,624,624,624,624,624,624,624,624,624,624,624,624,624,624,624,624,624,624,624,624,624,624,624,624,624,624,624,624,624,624,624,623,622,622,621,617,594,572,537,465,438,413,388,367,349,318,300,289,277,261,229,210,194,178,149,134,117,102,93],"timestamp_mouse":[8,31,49,68,88,109,128,148,168,190,209,228,248,268,288,309,329,348,370,389,408,428,450,469,488,508,529,549,569,589,608,628,648,668,688,709,729,748,769,788,808,828,848,869,889,909,928,949,968,990,1008,1029,1049,1068,1088,1108,1128,1148,1168,1190,1209,1229,1249,1268,1288,1309,1329,1348,1369,1388,1408,1429,1448,1468,1489,1508,1528,1549,1568,1588,1608,1628,1648,1668,1688,1708,1729,1748,1768,1789,1808,1828],"xSR":741.5,"ySR":573.95,"xT1":424.9,"yT1":0,"xT2":1058.1,"yT2":0,"toosoon":0,"cond_shown":"Incongruent","ratio_trial":300,"L_num":1,"L_den":2,"R_num":3,"R_den":15,"correct_side":1,"subjID":"cristalrojas37","gender":"1","school":"6","age":"11"},{"start_time":1551892462060,"click_time":1551892463292,"finger_time":1551892463192,"fix_duration":705.5492063637488,"trial":21,"RT":1132,"MT":100,"sideResp":2,"stimulus":[],"xmouse":[765,765,765,765,765,765,765,765,765,765,765,765,765,765,765,765,765,765,765,765,765,765,765,765,765,765,765,765,765,765,765,765,765,765,765,765,765,765,765,765,765,765,765,765,765,765,765,765,765,765,765,765,771,783,798,814,850,906,930,1011,1067,1156],"ymouse":[619,619,619,619,619,619,619,619,619,619,619,619,619,619,619,619,619,619,619,619,619,619,619,619,619,619,619,619,619,619,619,619,619,619,619,619,619,619,619,619,619,619,619,619,619,619,619,619,619,619,619,619,616,607,593,576,532,453,417,298,217,62],"timestamp_mouse":[12,34,53,73,92,113,132,152,172,193,212,233,253,272,292,313,332,352,372,394,412,432,452,472,492,512,533,552,572,593,613,633,653,672,692,714,734,753,772,793,812,832,853,873,893,913,932,952,972,993,1014,1033,1053,1072,1093,1112,1132,1152,1173,1192,1213,1232],"xSR":741.5,"ySR":573.95,"xT1":424.9,"yT1":0,"xT2":1058.1,"yT2":0,"toosoon":0,"cond_shown":"Incongruent","ratio_trial":300,"L_num":13,"L_den":26,"R_num":12,"R_den":15,"correct_side":2,"subjID":"cristalrojas37","gender":"1","school":"6","age":"11"},{"start_time":1551892465550,"click_time":1551892467332,"finger_time":1551892466913,"fix_duration":1236.654755583346,"trial":22,"RT":1363,"MT":419,"sideResp":2,"stimulus":[],"xmouse":[817,817,817,817,817,817,817,817,817,817,817,817,817,817,817,817,817,817,817,817,817,817,817,817,817,817,817,817,817,817,817,817,817,817,817,817,817,817,817,817,817,817,817,817,817,817,817,817,817,817,817,817,817,817,817,817,817,817,817,817,817,817,817,817,817,817,817,823,841,849,855,860,865,877,889,906,922,941,975,989,1004,1017,1023,1038,1042,1046,1051,1060,1067,1073],"ymouse":[617,617,617,617,617,617,617,617,617,617,617,617,617,617,617,617,617,617,617,617,617,617,617,617,617,617,617,617,617,617,617,617,617,617,617,617,617,617,617,617,617,617,617,617,617,617,617,617,617,617,617,617,617,617,617,617,617,617,617,617,617,617,617,617,617,615,609,593,555,536,522,502,466,439,418,397,374,349,305,284,264,246,236,200,182,166,150,118,101,86],"timestamp_mouse":[8,22,42,63,82,102,124,142,162,183,203,224,243,262,282,302,322,343,362,384,402,423,443,462,482,503,523,543,564,583,603,623,643,663,682,703,724,743,763,783,803,823,842,862,884,903,922,943,962,982,1003,1023,1042,1063,1082,1103,1122,1143,1163,1183,1202,1222,1242,1262,1283,1302,1322,1343,1363,1382,1403,1422,1443,1462,1482,1502,1523,1542,1563,1582,1602,1622,1642,1662,1683,1702,1723,1743,1762,1782],"xSR":741.5,"ySR":573.95,"xT1":424.9,"yT1":0,"xT2":1058.1,"yT2":0,"toosoon":0,"cond_shown":"Congruent","ratio_trial":100,"L_num":7,"L_den":14,"R_num":15,"R_den":25,"correct_side":2,"subjID":"cristalrojas37","gender":"1","school":"6","age":"11"},{"start_time":1551892469003,"click_time":1551892470072,"finger_time":1551892469913,"fix_duration":668.4897868723693,"trial":23,"RT":910,"MT":159,"sideResp":2,"stimulus":[],"xmouse":[825,825,825,825,825,825,825,825,825,825,825,825,825,825,825,825,825,825,825,825,825,825,825,825,825,825,825,825,825,825,825,825,825,825,825,825,825,825,825,825,821,820,819,819,819,819,826,837,858,927,962,1014,1044,1068],"ymouse":[613,613,613,613,613,613,613,613,613,613,613,613,613,613,613,613,613,613,613,613,613,613,613,613,613,613,613,613,613,613,613,613,613,613,613,613,613,613,613,613,606,599,593,588,579,570,555,534,500,404,337,228,143,79],"timestamp_mouse":[9,36,49,69,90,111,130,149,169,190,209,229,249,270,290,309,330,349,370,389,410,429,449,470,489,510,531,549,570,590,609,629,649,670,689,709,729,749,770,790,810,830,850,871,890,910,929,950,969,990,1009,1030,1050,1069],"xSR":741.5,"ySR":573.95,"xT1":424.9,"yT1":0,"xT2":1058.1,"yT2":0,"toosoon":0,"cond_shown":"Congruent","ratio_trial":100,"L_num":4,"L_den":10,"R_num":15,"R_den":30,"correct_side":2,"subjID":"cristalrojas37","gender":"1","school":"6","age":"11"},{"start_time":1551892472333,"click_time":1551892473512,"finger_time":1551892472913,"fix_duration":1039.6075959741354,"trial":24,"RT":580,"MT":599,"sideResp":2,"stimulus":[],"xmouse":[769,769,769,769,769,769,769,769,769,769,769,769,769,769,769,769,769,772,776,780,782,783,783,783,783,783,784,790,806,814,825,836,845,842,834,827,825,830,834,839,843,848,871,900,922,945,965,982,1001,1004,1005,1009,1019,1025,1039,1044,1048,1052,1059],"ymouse":[625,625,625,625,625,625,625,625,625,625,625,625,625,625,625,625,625,616,609,602,596,594,593,593,593,591,586,576,555,538,519,496,436,373,344,314,292,261,252,244,240,236,225,216,212,207,204,200,194,192,191,187,173,158,125,106,91,78,57],"timestamp_mouse":[20,39,60,80,99,121,140,159,180,199,219,240,259,280,300,320,339,360,380,400,419,440,460,480,499,519,539,559,580,599,620,640,659,679,699,720,739,760,779,799,820,841,859,879,899,919,940,959,980,1000,1019,1039,1060,1079,1100,1119,1139,1160,1179],"xSR":741.5,"ySR":573.95,"xT1":424.9,"yT1":0,"xT2":1058.1,"yT2":0,"toosoon":0,"cond_shown":"Congruent","ratio_trial":100,"L_num":1,"L_den":2,"R_num":18,"R_den":30,"correct_side":2,"subjID":"cristalrojas37","gender":"1","school":"6","age":"11"},{"start_time":1551892475629,"click_time":1551892479412,"finger_time":1551892478933,"fix_duration":634.2695983589978,"trial":25,"RT":3304,"MT":479,"sideResp":2,"stimulus":[],"xmouse":[775,775,775,775,775,775,775,775,775,775,775,775,775,775,775,775,775,775,775,775,775,775,775,775,775,775,775,775,775,775,775,775,775,775,775,775,775,775,775,775,775,775,775,775,775,775,775,775,775,775,775,775,775,775,775,775,775,775,775,775,775,775,775,775,775,775,775,775,775,775,775,775,775,775,775,775,775,775,775,775,775,775,775,775,775,775,775,775,775,775,775,775,775,775,775,775,775,775,775,775,775,775,775,775,775,775,775,775,775,775,775,775,775,775,775,775,775,775,775,775,775,775,775,775,775,775,775,775,775,775,775,775,775,775,775,775,775,775,775,775,775,775,775,775,775,775,775,775,775,775,775,775,775,775,775,775,775,775,775,775,775,775,775,775,775,787,807,828,850,889,915,931,943,952,970,976,982,983,984,984,985,987,990,1001,1008,1016,1023,1039,1058,1107],"ymouse":[581,581,581,581,581,581,581,581,581,581,581,581,581,581,581,581,581,581,581,581,581,581,581,581,581,581,581,581,581,581,581,581,581,581,581,581,581,581,581,581,581,581,581,581,581,581,581,581,581,581,581,581,581,581,581,581,581,581,581,581,581,581,581,581,581,581,581,581,581,581,581,581,581,581,581,581,581,581,581,581,581,581,581,581,581,581,581,581,581,581,581,581,581,581,581,581,581,581,581,581,581,581,581,581,581,581,581,581,581,581,581,581,581,581,581,581,581,581,581,581,581,581,581,581,581,581,581,581,581,581,581,581,581,581,581,581,581,581,581,581,581,581,581,581,581,581,581,581,581,581,581,581,581,581,581,581,581,581,581,581,581,581,581,581,581,570,555,542,525,477,440,419,400,382,342,319,293,273,259,234,211,197,188,167,159,150,144,133,123,95],"timestamp_mouse":[7,23,43,63,84,103,124,143,164,184,204,225,243,263,283,303,323,344,363,383,403,424,443,463,484,504,524,543,563,583,604,623,644,663,683,704,723,743,764,784,804,824,845,863,884,904,924,944,963,984,1004,1023,1044,1064,1084,1103,1123,1143,1164,1183,1203,1224,1244,1265,1284,1304,1324,1343,1364,1384,1405,1424,1444,1464,1483,1503,1523,1544,1564,1583,1604,1623,1644,1663,1683,1703,1724,1744,1764,1783,1803,1824,1843,1864,1883,1904,1923,1944,1964,1983,2004,2025,2043,2064,2084,2104,2125,2143,2163,2185,2203,2225,2244,2263,2284,2304,2323,2343,2364,2384,2404,2425,2443,2464,2483,2503,2523,2545,2564,2583,2604,2624,2644,2664,2683,2704,2723,2743,2763,2783,2805,2824,2844,2864,2885,2905,2924,2943,2963,2983,3004,3024,3044,3064,3083,3105,3124,3144,3163,3185,3204,3223,3244,3263,3284,3304,3324,3344,3363,3384,3404,3423,3444,3464,3484,3503,3523,3543,3563,3583,3603,3623,3643,3664,3683,3703,3723,3744,3764,3783],"xSR":741.5,"ySR":573.95,"xT1":424.9,"yT1":0,"xT2":1058.1,"yT2":0,"toosoon":0,"cond_shown":"Incongruent","ratio_trial":100,"L_num":10,"L_den":25,"R_num":9,"R_den":18,"correct_side":2,"subjID":"cristalrojas37","gender":"1","school":"6","age":"11"},{"start_time":1551892481497,"click_time":1551892483412,"finger_time":1551892482832,"fix_duration":962.8596555006143,"trial":26,"RT":1335,"MT":580,"sideResp":2,"stimulus":[],"xmouse":[813,813,813,813,813,813,813,813,813,813,813,813,813,813,813,813,813,813,813,813,813,813,813,813,813,813,813,813,813,813,813,813,813,813,813,813,813,813,813,813,813,813,813,813,813,813,813,813,813,813,813,813,813,813,813,813,813,813,813,813,813,813,813,814,827,840,863,876,890,925,943,962,984,997,1011,1016,1018,1030,1041,1051,1075,1084,1089,1090,1092,1093,1095,1096,1096,1096,1096,1096,1096,1097,1100,1104],"ymouse":[632,632,632,632,632,632,632,632,632,632,632,632,632,632,632,632,632,632,632,632,632,632,632,632,632,632,632,632,632,632,632,632,632,632,632,632,632,632,632,632,632,632,632,632,632,632,632,632,632,632,632,632,632,632,632,632,632,632,632,632,632,632,632,628,609,587,546,521,486,419,386,356,326,305,279,272,266,252,239,226,195,181,172,169,162,158,148,144,143,143,140,135,130,125,109,99],"timestamp_mouse":[27,35,56,76,95,115,135,156,176,196,215,236,255,275,296,315,335,355,375,396,416,437,456,475,496,515,536,557,576,595,616,636,657,675,696,715,736,756,777,795,815,836,856,876,896,915,935,955,975,995,1016,1035,1055,1075,1095,1115,1135,1155,1176,1196,1216,1235,1255,1275,1296,1316,1335,1355,1375,1395,1415,1436,1455,1476,1496,1515,1535,1555,1577,1595,1616,1636,1655,1676,1695,1715,1735,1756,1776,1796,1816,1835,1857,1876,1895,1915],"xSR":741.5,"ySR":573.95,"xT1":424.9,"yT1":0,"xT2":1058.1,"yT2":0,"toosoon":0,"cond_shown":"Incongruent","ratio_trial":200,"L_num":7,"L_den":15,"R_num":4,"R_den":6,"correct_side":2,"subjID":"cristalrojas37","gender":"1","school":"6","age":"11"},{"start_time":1551892486112,"click_time":1551892488892,"finger_time":1551892488633,"fix_duration":1497.913101537682,"trial":27,"RT":2521,"MT":259,"sideResp":2,"stimulus":[],"xmouse":[834,834,834,834,834,834,834,834,834,834,834,834,834,834,834,834,834,834,834,834,834,834,834,834,834,834,834,834,834,834,834,834,834,834,834,834,834,834,834,834,834,834,834,834,834,834,834,834,834,834,834,834,834,834,834,834,834,834,834,834,834,834,834,834,834,834,834,834,834,834,834,834,834,834,834,834,834,834,834,834,834,834,834,834,834,834,834,834,834,834,834,834,834,834,834,834,834,834,834,834,834,834,834,834,834,834,834,834,834,834,834,834,834,834,834,834,834,834,834,834,834,834,834,834,834,836,850,865,892,957,984,1005,1020,1029,1039,1046,1048,1056,1058,1061],"ymouse":[624,624,624,624,624,624,624,624,624,624,624,624,624,624,624,624,624,624,624,624,624,624,624,624,624,624,624,624,624,624,624,624,624,624,624,624,624,624,624,624,624,624,624,624,624,624,624,624,624,624,624,624,624,624,624,624,624,624,624,624,624,624,624,624,624,624,624,624,624,624,624,624,624,624,624,624,624,624,624,624,624,624,624,624,624,624,624,624,624,624,624,624,624,624,624,624,624,624,624,624,624,624,624,624,624,624,624,624,624,624,624,624,624,624,624,624,624,624,624,624,624,624,624,624,622,604,569,531,474,345,300,259,221,195,153,123,112,84,67,52],"timestamp_mouse":[7,26,40,61,81,100,121,141,161,180,200,221,240,260,280,301,320,340,360,380,400,422,441,460,481,500,521,541,561,581,600,620,640,661,681,700,721,741,760,781,801,821,840,860,880,900,921,941,961,981,1000,1021,1040,1060,1081,1100,1122,1141,1161,1180,1200,1221,1240,1260,1281,1300,1321,1340,1360,1381,1402,1421,1441,1460,1481,1501,1521,1540,1562,1582,1600,1622,1641,1662,1680,1700,1720,1741,1760,1780,1800,1821,1842,1860,1880,1900,1922,1940,1961,1980,2000,2020,2041,2061,2080,2100,2120,2140,2160,2180,2200,2221,2240,2260,2280,2300,2320,2340,2361,2380,2400,2420,2441,2460,2481,2502,2521,2541,2560,2580,2601,2620,2640,2660,2680,2700,2720,2740,2760,2780],"xSR":741.5,"ySR":573.95,"xT1":424.9,"yT1":0,"xT2":1058.1,"yT2":0,"toosoon":0,"cond_shown":"Incongruent","ratio_trial":300,"L_num":4,"L_den":20,"R_num":2,"R_den":4,"correct_side":2,"subjID":"cristalrojas37","gender":"1","school":"6","age":"11"},{"start_time":1551892490830,"click_time":1551892491633,"finger_time":1551892491192,"fix_duration":937.401968089121,"trial":28,"RT":362,"MT":441,"sideResp":1,"stimulus":[],"xmouse":[774,774,774,774,774,774,774,774,774,774,774,774,774,774,774,774,774,773,711,640,550,476,452,447,447,447,447,447,447,447,447,447,447,447,447,447,447,447,447,447,472],"ymouse":[601,601,601,601,601,601,601,601,601,601,601,601,601,601,601,601,601,591,312,64,0,0,0,0,0,0,0,0,0,0,0,0,0,0,0,0,0,0,0,0,9],"timestamp_mouse":[9,23,43,69,84,102,123,142,163,183,202,223,242,263,282,302,322,342,362,382,403,423,443,463,483,503,523,542,563,582,602,622,642,663,683,704,722,742,763,782,803],"xSR":741.5,"ySR":573.95,"xT1":424.9,"yT1":0,"xT2":1058.1,"yT2":0,"toosoon":0,"cond_shown":"Congruent","ratio_trial":100,"L_num":2,"L_den":5,"R_num":11,"R_den":22,"correct_side":2,"subjID":"cristalrojas37","gender":"1","school":"6","age":"11"},{"start_time":1551892498192,"click_time":1551892501273,"finger_time":1551892500913,"fix_duration":857.593049770735,"trial":29,"RT":2721,"MT":360,"sideResp":1,"stimulus":[],"xmouse":[819,819,819,819,819,819,819,819,819,819,819,819,819,819,819,819,819,819,819,819,819,819,819,819,819,819,819,819,819,819,819,819,819,819,819,819,819,819,819,819,819,819,819,819,819,819,819,819,819,819,819,819,819,819,819,819,819,819,819,819,819,819,819,819,819,819,819,819,819,819,819,819,819,819,819,819,819,819,819,819,819,819,819,819,819,819,819,819,819,819,819,819,819,819,819,819,819,819,819,819,819,819,819,819,819,819,819,819,819,819,819,819,819,819,819,819,819,819,819,821,821,821,821,821,821,821,821,821,821,821,821,821,821,822,824,831,857,861,861,851,836,797,779,762,743,715,652,624,603,585,545,520,504,492,488],"ymouse":[659,659,659,659,659,659,659,659,659,659,659,659,659,659,659,659,659,659,659,659,659,659,659,659,659,659,659,659,659,659,659,659,659,659,659,659,659,659,659,659,659,659,659,659,659,659,659,659,659,659,659,659,659,659,659,659,659,659,659,659,659,659,659,659,659,659,659,659,659,659,659,659,659,659,659,659,659,659,659,659,659,659,659,659,659,659,659,659,659,659,659,659,659,659,659,659,659,659,659,659,659,659,659,659,659,659,659,659,659,659,659,659,659,659,659,659,659,659,659,657,656,656,656,656,656,656,656,656,656,656,656,656,656,656,655,649,613,595,586,578,567,538,523,509,491,462,371,321,275,232,163,132,115,100,90],"timestamp_mouse":[8,21,42,62,82,101,122,142,163,181,201,222,242,262,281,302,321,341,361,381,403,421,441,462,483,501,521,542,561,582,601,622,642,661,682,701,722,741,767,782,802,821,841,862,882,902,922,942,961,983,1002,1021,1041,1061,1082,1102,1121,1143,1161,1181,1201,1221,1243,1262,1282,1301,1321,1342,1361,1382,1402,1422,1441,1461,1483,1502,1522,1542,1562,1582,1602,1621,1641,1662,1681,1701,1721,1743,1761,1782,1802,1821,1842,1863,1881,1902,1921,1942,1961,1981,2001,2021,2042,2063,2082,2102,2121,2142,2162,2182,2201,2221,2242,2263,2283,2302,2321,2341,2362,2382,2402,2423,2442,2462,2482,2502,2521,2543,2561,2582,2602,2621,2641,2662,2682,2701,2721,2741,2761,2782,2802,2821,2841,2861,2882,2901,2922,2943,2962,2983,3002,3022,3041,3061,3081],"xSR":741.5,"ySR":573.95,"xT1":424.9,"yT1":0,"xT2":1058.1,"yT2":0,"toosoon":0,"cond_shown":"Incongruent","ratio_trial":200,"L_num":14,"L_den":30,"R_num":12,"R_den":18,"correct_side":2,"subjID":"cristalrojas37","gender":"1","school":"6","age":"11"},{"start_time":1551892504118,"click_time":1551892506233,"finger_time":1551892505294,"fix_duration":423.4997814597704,"trial":30,"RT":1176,"MT":939,"sideResp":2,"stimulus":[],"xmouse":[812,812,810,809,809,809,809,809,809,809,809,809,809,809,809,809,809,809,809,809,809,809,809,809,809,809,809,809,809,809,809,809,809,809,809,809,809,809,809,809,809,809,809,809,809,809,809,809,809,809,809,809,810,810,812,812,812,812,819,836,862,900,951,1079,1170,1222,1267,1302,1339,1350,1360,1366,1371,1371,1367,1365,1365,1364,1357,1328,1311,1304,1302,1302,1302,1301,1296,1289,1285,1269,1258,1244,1228,1211,1193,1190,1188,1185,1185,1185,1185,1185,1184,1184,1161,1131],"ymouse":[590,590,590,590,590,590,590,590,590,590,590,590,590,590,590,590,590,590,590,590,590,590,590,590,590,590,590,590,590,590,590,590,590,590,590,590,590,590,590,590,590,590,590,590,590,590,590,590,590,590,590,585,583,582,578,578,578,578,567,540,494,425,347,165,37,0,0,0,0,0,0,0,0,0,0,0,0,0,6,38,54,60,62,62,62,62,63,67,67,70,71,73,73,73,73,72,72,71,71,71,71,71,71,71,70,70],"timestamp_mouse":[28,36,56,76,96,115,135,155,176,195,215,235,256,275,296,316,335,355,375,395,417,436,455,475,496,516,535,556,575,596,615,635,656,675,695,715,735,757,775,795,816,836,857,876,895,916,937,955,977,996,1017,1036,1055,1075,1095,1115,1137,1156,1176,1195,1215,1236,1257,1276,1296,1316,1336,1355,1376,1395,1415,1436,1457,1477,1495,1515,1535,1556,1576,1595,1616,1635,1656,1675,1696,1716,1735,1755,1775,1796,1816,1835,1856,1876,1896,1915,1935,1955,1977,1996,2016,2035,2056,2076,2095,2115],"xSR":741.5,"ySR":573.95,"xT1":424.9,"yT1":0,"xT2":1058.1,"yT2":0,"toosoon":0,"cond_shown":"Incongruent","ratio_trial":200,"L_num":7,"L_den":15,"R_num":4,"R_den":6,"correct_side":2,"subjID":"cristalrojas37","gender":"1","school":"6","age":"11"},{"start_time":1551892507305,"click_time":1551892508613,"finger_time":1551892508034,"fix_duration":250,"trial":31,"RT":729,"MT":579,"sideResp":1,"stimulus":[],"xmouse":[755,755,755,755,755,757,760,761,762,764,767,769,769,769,769,769,769,772,774,788,793,797,799,800,801,801,801,801,801,801,801,801,801,801,801,799,796,791,785,770,762,754,749,744,738,733,729,723,717,710,691,675,657,640,611,601,598,597,597,595,589,583,572,556,523,500],"ymouse":[627,627,627,627,627,627,627,627,627,626,625,624,623,623,623,623,623,623,621,614,610,603,601,598,593,592,592,592,592,592,592,592,592,591,586,574,561,543,524,478,453,429,406,384,358,348,336,328,319,311,293,279,267,259,250,248,245,245,245,242,229,211,190,164,113,79],"timestamp_mouse":[8,37,49,70,89,109,128,149,169,189,208,229,248,269,288,309,328,348,369,389,409,428,449,469,489,509,528,550,568,589,608,629,650,669,689,709,729,749,770,789,808,828,849,869,889,908,928,948,969,988,1008,1028,1050,1068,1089,1108,1128,1148,1168,1189,1208,1228,1248,1268,1289,1308],"xSR":741.5,"ySR":573.95,"xT1":424.9,"yT1":0,"xT2":1058.1,"yT2":0,"toosoon":0,"cond_shown":"Incongruent","ratio_trial":100,"L_num":12,"L_den":30,"R_num":2,"R_den":4,"correct_side":2,"subjID":"cristalrojas37","gender":"1","school":"6","age":"11"},{"start_time":1551892510147,"click_time":1551892511733,"finger_time":1551892510775,"fix_duration":250,"trial":32,"RT":628,"MT":958,"sideResp":2,"stimulus":[],"xmouse":[771,771,771,771,771,771,771,771,771,771,771,771,771,771,771,771,771,771,771,771,771,772,774,774,776,776,776,777,782,793,806,818,841,843,844,844,844,844,844,844,844,845,858,868,884,894,908,922,946,953,957,959,959,957,955,955,955,955,957,961,964,967,969,971,974,975,981,1000,1012,1020,1027,1028,1029,1031,1034,1037,1040,1044,1055,1061],"ymouse":[638,638,638,638,638,638,638,638,638,638,638,638,638,638,638,638,638,638,638,638,638,638,638,638,638,638,638,638,633,616,594,573,536,527,524,524,524,524,524,523,521,514,492,478,451,434,414,394,359,346,335,326,322,311,305,299,293,285,268,257,250,243,239,237,232,229,220,187,168,153,143,140,138,134,129,126,121,116,101,92],"timestamp_mouse":[7,35,47,67,87,106,126,147,167,187,208,226,246,268,288,306,326,348,367,387,406,427,446,468,486,508,526,547,567,587,607,628,647,666,686,706,727,746,766,786,808,827,847,866,887,907,927,946,967,987,1008,1027,1046,1067,1086,1106,1126,1146,1167,1186,1206,1226,1247,1266,1286,1306,1326,1347,1366,1386,1406,1427,1447,1466,1486,1506,1526,1547,1567,1586],"xSR":741.5,"ySR":573.95,"xT1":424.9,"yT1":0,"xT2":1058.1,"yT2":0,"toosoon":0,"cond_shown":"Congruent","ratio_trial":200,"L_num":3,"L_den":10,"R_num":7,"R_den":14,"correct_side":2,"subjID":"cristalrojas37","gender":"1","school":"6","age":"11"},{"start_time":1551892514239,"click_time":1551892515954,"finger_time":1551892515033,"fix_duration":1202.3286002208024,"trial":33,"RT":794,"MT":921,"sideResp":1,"stimulus":[],"xmouse":[790,790,790,790,790,790,790,790,790,790,787,786,786,786,784,780,779,779,779,779,779,779,779,779,779,779,779,779,779,779,779,779,779,779,779,779,783,795,810,818,827,836,851,857,867,873,880,893,910,923,933,943,951,964,969,975,979,982,982,973,965,955,943,908,885,866,849,837,823,814,809,803,786,775,760,743,723,687,668,655,637,614,566,549,532,522],"ymouse":[609,609,609,609,609,609,611,614,615,615,616,616,616,616,616,615,614,614,614,614,614,614,614,614,614,614,614,614,614,614,614,614,614,614,614,612,610,600,583,573,562,550,529,520,508,498,489,470,447,429,417,405,394,376,366,355,345,317,302,282,268,254,241,212,198,183,168,158,146,140,136,132,129,129,129,133,139,147,148,148,146,139,124,116,106,99],"timestamp_mouse":[14,35,54,74,95,114,134,155,174,194,214,235,255,275,294,315,334,355,374,394,414,434,455,474,494,514,534,555,575,596,614,634,655,675,694,714,736,755,774,794,815,834,855,874,894,915,934,954,974,994,1014,1034,1054,1075,1094,1115,1136,1155,1174,1194,1215,1234,1254,1275,1295,1314,1335,1354,1374,1394,1416,1435,1455,1475,1494,1515,1535,1555,1574,1595,1615,1635,1655,1674,1694,1715],"xSR":741.5,"ySR":573.95,"xT1":424.9,"yT1":0,"xT2":1058.1,"yT2":0,"toosoon":0,"cond_shown":"Congruent","ratio_trial":100,"L_num":4,"L_den":10,"R_num":15,"R_den":30,"correct_side":2,"subjID":"cristalrojas37","gender":"1","school":"6","age":"11"},{"start_time":1551892517488,"click_time":1551892518873,"finger_time":1551892518414,"fix_duration":692.4517241084453,"trial":34,"RT":926,"MT":459,"sideResp":2,"stimulus":[],"xmouse":[799,799,799,799,799,799,800,803,808,814,819,824,824,824,824,824,826,827,827,827,827,827,827,827,827,827,827,827,827,827,827,827,827,827,827,827,827,827,827,827,828,829,829,829,829,834,853,878,887,889,889,889,889,889,889,889,890,894,900,913,944,957,962,967,975,990,1026,1058,1068,1077],"ymouse":[625,625,625,625,625,625,625,625,626,629,630,632,632,632,632,632,632,631,631,631,631,631,631,631,631,631,631,631,631,631,631,631,631,631,631,631,631,631,631,631,631,629,628,628,628,628,628,628,627,626,626,626,626,626,626,626,625,617,603,576,474,426,387,349,309,267,195,138,114,95],"timestamp_mouse":[7,26,45,68,86,105,125,146,167,185,205,225,247,266,286,307,325,345,365,386,407,425,446,465,487,506,527,547,565,587,605,625,647,665,686,707,725,746,766,787,807,826,846,865,886,905,926,945,965,986,1006,1025,1046,1065,1086,1105,1125,1145,1166,1185,1205,1226,1245,1265,1287,1306,1326,1345,1365,1385],"xSR":741.5,"ySR":573.95,"xT1":424.9,"yT1":0,"xT2":1058.1,"yT2":0,"toosoon":0,"cond_shown":"Incongruent","ratio_trial":200,"L_num":9,"L_den":15,"R_num":8,"R_den":10,"correct_side":2,"subjID":"cristalrojas37","gender":"1","school":"6","age":"11"},{"start_time":1551892519845,"click_time":1551892521193,"finger_time":1551892520213,"fix_duration":250,"trial":35,"RT":368,"MT":980,"sideResp":1,"stimulus":[],"xmouse":[833,833,833,833,833,833,833,833,833,833,833,833,833,833,833,833,835,840,844,846,847,847,847,847,847,847,847,847,847,847,847,847,847,847,847,847,847,847,847,847,847,847,847,847,847,847,847,847,847,857,863,866,867,867,867,861,851,822,799,762,736,713,690,649,632,618,589,522],"ymouse":[668,668,668,668,668,668,668,668,668,668,668,668,668,668,668,668,666,655,646,643,641,641,641,641,641,641,641,641,641,641,641,641,641,641,641,641,641,641,641,641,641,641,641,641,641,641,641,641,641,626,619,613,608,598,590,573,551,497,457,393,350,313,279,219,197,179,148,89],"timestamp_mouse":[10,31,49,68,89,110,129,149,168,189,208,228,250,269,288,309,330,348,368,389,410,429,448,469,488,510,528,549,568,589,609,630,649,669,688,708,730,749,769,788,809,830,848,869,889,910,928,949,968,989,1009,1029,1048,1068,1088,1110,1129,1148,1168,1189,1208,1229,1248,1268,1290,1309,1330,1348],"xSR":741.5,"ySR":573.95,"xT1":424.9,"yT1":0,"xT2":1058.1,"yT2":0,"toosoon":0,"cond_shown":"Incongruent","ratio_trial":100,"L_num":1,"L_den":2,"R_num":8,"R_den":20,"correct_side":1,"subjID":"cristalrojas37","gender":"1","school":"6","age":"11"},{"start_time":1551892524426,"click_time":1551892526195,"finger_time":1551892525533,"fix_duration":930.0881514303088,"trial":36,"RT":1107,"MT":662,"sideResp":2,"stimulus":[],"xmouse":[794,794,794,794,794,794,794,794,794,794,794,794,794,794,794,794,794,794,794,794,794,794,794,794,794,794,794,794,794,794,794,794,794,794,794,794,794,794,794,794,794,794,794,794,794,794,794,794,794,794,794,794,794,809,823,844,867,898,990,1046,1130,1177,1215,1243,1272,1275,1276,1276,1275,1275,1275,1275,1275,1265,1250,1231,1214,1200,1186,1185,1185,1185,1185,1185,1185,1185,1184,1180,1149],"ymouse":[626,626,626,626,626,626,626,626,626,626,626,626,626,626,626,626,626,626,626,626,626,626,626,626,626,626,626,626,626,626,626,626,626,626,626,626,626,626,626,626,626,626,626,626,626,626,626,626,626,626,626,626,626,604,583,553,520,478,362,302,224,176,129,83,21,4,0,0,0,0,0,0,0,4,13,23,33,41,48,48,48,48,48,48,48,48,49,52,67],"timestamp_mouse":[9,28,48,67,87,107,127,147,167,187,208,227,247,267,287,307,327,348,367,387,409,427,449,467,487,507,527,549,567,589,607,627,648,667,687,708,729,747,767,788,807,828,848,868,887,907,927,948,969,987,1009,1027,1048,1068,1087,1107,1128,1148,1168,1189,1208,1227,1247,1268,1287,1308,1327,1348,1368,1387,1408,1427,1448,1469,1487,1508,1528,1548,1567,1587,1609,1629,1649,1668,1687,1707,1727,1748,1768],"xSR":741.5,"ySR":573.95,"xT1":424.9,"yT1":0,"xT2":1058.1,"yT2":0,"toosoon":0,"cond_shown":"Incongruent","ratio_trial":200,"L_num":9,"L_den":15,"R_num":8,"R_den":10,"correct_side":2,"subjID":"cristalrojas37","gender":"1","school":"6","age":"11"},{"start_time":1551892527545,"click_time":1551892529354,"finger_time":1551892528594,"fix_duration":250,"trial":37,"RT":1049,"MT":760,"sideResp":2,"stimulus":[],"xmouse":[775,775,775,775,775,775,775,775,775,775,775,775,775,775,775,775,775,775,775,775,775,775,775,775,775,775,775,775,775,776,777,777,777,777,777,777,777,777,777,777,777,777,777,777,777,777,777,777,787,801,804,809,821,830,845,856,873,886,915,924,933,940,947,966,973,982,989,1004,1008,1011,1012,1013,1014,1017,1024,1028,1031,1037,1042,1053,1063,1073,1084,1087,1089,1090,1092,1104,1110,1113,1114],"ymouse":[623,623,623,623,623,623,623,623,623,623,623,623,623,623,623,623,623,623,623,623,623,623,623,623,623,623,623,623,623,625,626,626,626,626,626,626,626,626,626,626,626,626,626,626,626,626,626,626,624,609,595,587,568,555,534,519,503,491,463,450,436,424,414,384,370,356,344,319,310,306,303,301,298,286,272,263,254,235,223,205,192,178,163,158,155,149,143,120,108,101,95],"timestamp_mouse":[9,29,49,68,88,108,130,148,169,188,208,229,248,268,289,308,330,348,368,390,408,429,448,469,488,510,529,548,568,589,608,628,650,668,690,708,729,749,769,789,809,828,849,868,888,910,928,948,969,988,1010,1029,1049,1068,1089,1108,1129,1148,1169,1188,1208,1230,1248,1268,1288,1309,1328,1348,1368,1389,1408,1428,1449,1469,1488,1510,1530,1549,1569,1588,1608,1629,1648,1668,1688,1708,1728,1749,1769,1788,1809],"xSR":741.5,"ySR":573.95,"xT1":424.9,"yT1":0,"xT2":1058.1,"yT2":0,"toosoon":0,"cond_shown":"Congruent","ratio_trial":100,"L_num":4,"L_den":8,"R_num":6,"R_den":10,"correct_side":2,"subjID":"cristalrojas37","gender":"1","school":"6","age":"11"},{"start_time":1551892531837,"click_time":1551892533713,"finger_time":1551892532914,"fix_duration":1283.7199691548071,"trial":38,"RT":1077,"MT":799,"sideResp":2,"stimulus":[],"xmouse":[781,781,781,781,781,781,781,781,781,781,781,781,781,781,781,781,781,781,781,781,781,781,781,781,783,783,783,783,783,783,784,784,784,784,784,784,784,784,784,784,785,786,786,787,787,787,787,788,789,790,791,793,796,807,814,825,833,859,877,888,899,910,929,938,948,956,962,969,975,978,980,984,994,1002,1013,1022,1030,1038,1048,1052,1052,1053,1054,1055,1056,1057,1058,1060,1065,1067,1067,1068,1076,1083],"ymouse":[629,629,629,629,629,629,629,629,629,629,629,629,629,629,629,629,629,629,629,629,629,629,629,628,627,627,627,627,627,627,626,626,626,626,626,626,626,626,626,626,624,622,621,620,620,620,619,617,614,612,608,604,597,572,556,538,523,484,458,439,422,403,368,353,338,326,315,303,295,291,289,284,264,251,235,218,205,189,168,159,155,154,150,148,144,139,138,131,124,121,120,118,106,95],"timestamp_mouse":[17,36,57,76,98,116,136,156,177,197,216,238,256,278,298,316,337,357,376,396,416,436,457,476,496,517,538,556,576,597,616,637,657,677,697,717,737,757,776,797,816,837,858,876,896,916,937,957,976,997,1017,1037,1056,1077,1097,1116,1138,1157,1176,1196,1216,1237,1256,1276,1297,1317,1336,1356,1376,1396,1417,1438,1456,1476,1496,1517,1537,1557,1576,1596,1617,1637,1657,1676,1696,1716,1737,1756,1776,1797,1817,1837,1856,1876],"xSR":741.5,"ySR":573.95,"xT1":424.9,"yT1":0,"xT2":1058.1,"yT2":0,"toosoon":0,"cond_shown":"Incongruent","ratio_trial":100,"L_num":6,"L_den":10,"R_num":7,"R_den":14,"correct_side":1,"subjID":"cristalrojas37","gender":"1","school":"6","age":"11"},{"start_time":1551892536652,"click_time":1551892539074,"finger_time":1551892537953,"fix_duration":1437.2486563798298,"trial":39,"RT":1301,"MT":1121,"sideResp":1,"stimulus":[],"xmouse":[788,788,788,788,788,788,788,788,788,788,788,788,788,788,789,791,794,797,797,797,797,797,797,797,797,797,797,797,797,797,797,797,797,797,797,797,797,797,797,797,797,797,797,797,797,797,797,797,797,797,797,797,797,797,797,799,799,801,803,806,806,807,809,809,811,814,814,810,804,794,782,762,717,692,670,650,638,620,615,610,606,601,584,581,579,579,579,579,579,575,570,564,557,556,556,556,556,556,556,556,556,556,556,556,556,555,555,550,545,537,528,527,527,527,527,527,527,527,527,527,526,523],"ymouse":[589,589,589,589,589,589,589,589,589,589,589,589,589,589,596,609,619,628,630,630,630,630,630,630,630,630,630,630,630,630,630,630,630,630,630,630,630,630,630,630,630,630,630,630,630,630,630,630,630,630,630,630,630,630,630,630,628,617,610,606,603,601,592,587,578,567,555,528,507,468,431,386,302,254,215,178,149,99,84,73,65,54,28,22,20,20,20,20,20,20,21,22,24,25,25,25,25,25,25,25,25,25,25,25,25,26,26,28,33,37,41,41,41,41,41,41,41,41,41,41,42,44],"timestamp_mouse":[7,21,43,62,81,101,123,141,161,182,202,221,243,261,281,301,321,342,362,381,401,421,441,462,481,502,521,542,562,583,603,623,641,661,683,701,721,741,761,782,801,822,841,861,882,901,922,942,961,982,1001,1021,1041,1061,1081,1102,1121,1141,1163,1181,1202,1221,1241,1262,1283,1301,1322,1341,1362,1382,1401,1423,1441,1461,1481,1502,1521,1542,1561,1581,1602,1622,1642,1662,1682,1702,1721,1742,1761,1782,1802,1822,1841,1861,1881,1903,1922,1942,1962,1983,2001,2022,2042,2063,2081,2101,2121,2141,2161,2181,2202,2222,2242,2261,2283,2303,2323,2342,2362,2381,2401,2422],"xSR":741.5,"ySR":573.95,"xT1":424.9,"yT1":0,"xT2":1058.1,"yT2":0,"toosoon":0,"cond_shown":"Incongruent","ratio_trial":100,"L_num":17,"L_den":30,"R_num":10,"R_den":15,"correct_side":2,"subjID":"cristalrojas37","gender":"1","school":"6","age":"11"},{"start_time":1551892541460,"click_time":1551892542954,"finger_time":1551892542793,"fix_duration":745.5411525786393,"trial":40,"RT":1333,"MT":161,"sideResp":1,"stimulus":[],"xmouse":[786,786,786,786,786,786,786,786,786,786,786,786,786,786,786,786,786,786,784,779,776,775,775,775,775,775,775,775,775,775,775,775,775,775,775,775,775,775,775,775,775,772,768,766,765,765,765,765,765,765,765,765,765,765,765,765,765,765,765,765,765,765,765,765,765,765,765,757,747,723,687,596,556,528,511],"ymouse":[621,621,621,621,621,621,621,621,621,621,621,621,621,621,621,621,621,621,612,597,588,584,584,584,584,584,584,584,584,584,584,584,584,584,584,584,584,584,584,584,584,584,587,589,590,590,590,590,590,590,590,590,590,590,590,590,590,590,590,590,590,590,590,590,590,587,570,536,501,445,376,201,117,58,20],"timestamp_mouse":[14,34,53,73,94,113,133,153,174,193,213,233,254,273,293,313,333,353,374,393,414,434,454,475,493,514,534,554,573,593,614,634,653,673,694,713,733,753,774,794,814,834,853,874,895,914,933,953,974,993,1014,1034,1053,1073,1095,1115,1133,1154,1173,1193,1213,1233,1254,1274,1294,1315,1333,1353,1374,1394,1415,1433,1454,1473,1494],"xSR":741.5,"ySR":573.95,"xT1":424.9,"yT1":0,"xT2":1058.1,"yT2":0,"toosoon":0,"cond_shown":"Incongruent","ratio_trial":100,"L_num":17,"L_den":30,"R_num":10,"R_den":15,"correct_side":2,"subjID":"cristalrojas37","gender":"1","school":"6","age":"11"},{"start_time":1551892545437,"click_time":1551892547054,"finger_time":1551892546354,"fix_duration":1302.799045236574,"trial":41,"RT":917,"MT":700,"sideResp":2,"stimulus":[],"xmouse":[762,762,762,762,762,762,762,762,762,762,762,762,762,762,762,762,762,762,762,762,762,762,762,762,762,762,762,762,762,762,762,762,762,762,762,762,762,762,762,762,764,769,777,805,828,865,907,989,1038,1057,1073,1082,1101,1109,1118,1124,1130,1136,1141,1148,1154,1157,1160,1160,1160,1160,1160,1161,1168,1168,1168,1168,1168,1168,1168,1168,1168,1168,1168,1165,1158],"ymouse":[609,609,609,609,609,609,609,609,609,609,609,609,609,609,609,609,609,609,609,609,609,609,609,609,609,609,609,609,609,609,609,609,609,609,609,609,609,609,609,609,609,609,609,604,594,576,552,496,450,429,409,394,370,361,352,345,339,328,318,298,280,261,208,184,166,147,123,98,72,71,71,71,71,71,71,71,71,71,71,70,70],"timestamp_mouse":[17,36,58,76,96,118,137,156,176,198,216,237,257,276,297,318,336,357,378,396,416,436,458,476,496,518,536,556,577,596,616,638,657,677,698,717,737,757,776,797,818,837,857,877,897,917,937,957,976,996,1016,1036,1056,1076,1097,1117,1136,1157,1176,1196,1217,1236,1256,1276,1296,1316,1338,1357,1377,1397,1416,1437,1457,1476,1496,1517,1536,1558,1576,1597,1617],"xSR":741.5,"ySR":573.95,"xT1":424.9,"yT1":0,"xT2":1058.1,"yT2":0,"toosoon":0,"cond_shown":"Incongruent","ratio_trial":100,"L_num":9,"L_den":15,"R_num":13,"R_den":26,"correct_side":1,"subjID":"cristalrojas37","gender":"1","school":"6","age":"11"},{"start_time":1551892550007,"click_time":1551892551594,"finger_time":1551892551034,"fix_duration":373.1400342250393,"trial":42,"RT":1027,"MT":560,"sideResp":2,"stimulus":[],"xmouse":[828,828,828,828,828,828,828,828,828,828,828,828,828,827,823,822,821,820,820,820,820,819,817,817,817,816,815,815,815,815,815,815,815,815,815,815,815,815,815,815,815,815,815,815,815,815,815,815,815,823,835,850,861,869,882,890,898,908,922,954,973,997,1013,1022,1029,1043,1048,1050,1050,1051,1051,1051,1051,1054,1066,1073,1078,1082,1085,1088],"ymouse":[630,630,630,630,630,630,630,630,630,630,630,630,630,630,630,630,630,630,630,630,630,630,630,630,630,630,630,630,630,630,630,630,630,630,630,630,630,630,630,630,630,630,630,630,630,630,630,630,628,618,608,595,588,582,566,554,545,533,518,466,435,381,344,321,301,269,255,246,241,237,234,230,223,210,164,139,121,109,101,91],"timestamp_mouse":[8,33,46,67,86,106,126,146,167,187,206,226,246,267,287,307,326,346,366,388,407,426,446,467,487,507,528,547,566,586,608,627,646,668,686,706,727,746,767,786,806,826,846,867,887,906,927,948,967,987,1007,1027,1048,1066,1087,1106,1127,1148,1167,1187,1206,1226,1247,1266,1287,1307,1326,1347,1367,1386,1406,1427,1446,1467,1486,1506,1527,1547,1567,1587],"xSR":741.5,"ySR":573.95,"xT1":424.9,"yT1":0,"xT2":1058.1,"yT2":0,"toosoon":0,"cond_shown":"Congruent","ratio_trial":200,"L_num":8,"L_den":15,"R_num":3,"R_den":9,"correct_side":1,"subjID":"cristalrojas37","gender":"1","school":"6","age":"11"},{"start_time":1551892552986,"click_time":1551892554154,"finger_time":1551892553793,"fix_duration":250,"trial":43,"RT":807,"MT":361,"sideResp":1,"stimulus":[],"xmouse":[770,770,770,770,770,770,770,770,770,770,770,770,770,770,770,770,770,770,770,770,770,770,771,773,774,774,774,774,774,774,774,774,774,774,774,774,774,774,774,774,774,771,755,741,724,689,675,662,648,636,622,613,597,581,566,536,527,520,514],"ymouse":[666,663,662,662,662,662,662,662,662,662,662,662,662,662,662,662,662,662,662,662,662,662,661,659,658,657,657,657,657,657,657,657,657,657,657,657,657,654,648,628,567,527,463,423,385,304,272,244,222,206,189,181,167,159,148,125,114,102,89],"timestamp_mouse":[7,36,47,68,88,107,129,147,167,187,207,227,249,267,287,307,329,347,367,387,408,428,447,468,489,507,527,549,567,588,607,629,648,667,689,708,728,747,769,787,807,829,848,867,888,907,927,948,969,988,1008,1027,1047,1068,1089,1108,1128,1149,1168],"xSR":741.5,"ySR":573.95,"xT1":424.9,"yT1":0,"xT2":1058.1,"yT2":0,"toosoon":0,"cond_shown":"Congruent","ratio_trial":200,"L_num":8,"L_den":15,"R_num":2,"R_den":6,"correct_side":1,"subjID":"cristalrojas37","gender":"1","school":"6","age":"11"},{"start_time":1551892556444,"click_time":1551892558094,"finger_time":1551892557415,"fix_duration":1209.9902408563194,"trial":44,"RT":971,"MT":679,"sideResp":1,"stimulus":[],"xmouse":[773,773,774,775,775,776,776,776,776,776,776,776,776,776,776,776,776,776,776,776,776,776,776,776,776,776,776,776,776,776,776,776,776,776,776,776,776,776,776,776,776,776,776,776,776,776,776,772,759,750,742,734,722,712,700,681,661,631,618,609,609,609,609,605,598,589,580,564,558,554,550,546,546,546,545,544,544,542,540,535,529,525,516],"ymouse":[612,612,612,613,615,616,616,616,616,616,616,616,616,616,616,616,616,616,616,616,616,616,616,616,616,616,616,616,616,616,616,616,616,616,616,616,616,616,616,616,616,616,616,616,616,616,616,604,573,552,533,516,486,464,436,401,365,317,302,292,292,292,288,275,254,233,213,182,161,146,131,115,94,88,83,78,76,69,66,58,54,52,47],"timestamp_mouse":[9,29,50,70,89,109,131,149,169,190,211,229,250,269,290,309,329,350,370,389,410,430,449,471,490,509,529,551,569,589,610,629,649,670,689,709,729,750,769,790,810,831,850,869,890,910,930,950,971,989,1009,1030,1050,1069,1090,1110,1129,1149,1170,1190,1209,1229,1249,1269,1290,1309,1330,1349,1369,1389,1410,1431,1450,1470,1489,1510,1530,1550,1570,1589,1609,1629,1650],"xSR":741.5,"ySR":573.95,"xT1":424.9,"yT1":0,"xT2":1058.1,"yT2":0,"toosoon":0,"cond_shown":"Congruent","ratio_trial":300,"L_num":4,"L_den":5,"R_num":2,"R_den":4,"correct_side":1,"subjID":"cristalrojas37","gender":"1","school":"6","age":"11"},{"start_time":1551892560965,"click_time":1551892562634,"finger_time":1551892562294,"fix_duration":250,"trial":45,"RT":1329,"MT":340,"sideResp":2,"stimulus":[],"xmouse":[809,809,809,809,809,809,809,809,809,809,809,809,809,809,809,809,809,809,809,809,809,809,809,809,809,809,809,809,809,809,809,809,809,809,809,809,809,809,809,809,809,809,809,809,809,809,809,809,809,809,809,809,809,809,809,809,809,809,809,809,809,809,809,809,812,819,857,877,899,921,943,975,984,989,998,1011,1038,1055,1073,1085,1094,1106,1111,1114],"ymouse":[645,645,645,645,645,645,645,645,645,645,645,645,645,645,645,645,645,645,645,645,645,645,645,645,645,645,645,645,645,645,645,645,645,645,645,645,645,645,645,645,645,645,645,645,645,645,645,645,645,645,645,645,645,645,645,645,645,645,645,645,645,645,645,645,642,633,595,572,545,517,488,431,411,398,382,361,318,289,253,223,197,153,132,89],"timestamp_mouse":[9,28,48,70,89,109,129,149,169,190,208,228,250,268,290,308,328,349,368,388,408,428,449,469,488,509,530,549,568,588,610,629,648,669,689,708,728,749,769,790,809,828,849,868,890,908,928,948,968,988,1010,1029,1050,1068,1088,1109,1129,1149,1169,1189,1208,1228,1249,1268,1289,1309,1329,1348,1370,1389,1410,1428,1448,1469,1489,1510,1529,1548,1568,1589,1608,1629,1648,1668],"xSR":741.5,"ySR":573.95,"xT1":424.9,"yT1":0,"xT2":1058.1,"yT2":0,"toosoon":0,"cond_shown":"Incongruent","ratio_trial":200,"L_num":4,"L_den":30,"R_num":1,"R_den":3,"correct_side":2,"subjID":"cristalrojas37","gender":"1","school":"6","age":"11"},{"start_time":1551892565445,"click_time":1551892570114,"finger_time":1551892569094,"fix_duration":250,"trial":46,"RT":3649,"MT":1020,"sideResp":1,"stimulus":[],"xmouse":[824,824,824,824,824,824,824,824,824,824,824,824,824,824,824,824,824,824,824,824,824,824,824,824,824,824,824,824,824,824,824,824,824,824,824,824,824,824,824,824,824,824,824,824,824,824,824,824,824,824,824,824,824,824,824,824,824,824,824,824,824,824,824,824,824,824,824,824,824,824,824,824,824,824,824,824,824,824,824,824,824,824,824,824,824,824,824,824,824,824,824,824,824,824,824,824,824,824,824,824,824,824,824,824,824,824,824,824,824,824,824,824,824,823,821,819,818,818,818,818,818,818,818,818,818,818,818,818,818,818,818,818,818,818,818,818,818,818,818,818,817,817,817,816,816,816,816,815,814,814,814,813,813,813,813,813,813,813,813,813,813,813,813,813,813,813,813,813,813,813,813,813,813,813,813,813,813,812,810,808,808,804,793,781,768,754,741,717,709,700,696,692,685,666,654,642,628,610,604,597,593,589,586,586,586,586,586,586,586,586,586,586,586,586,586,586,586,586,583,576,566,556,549,545,545,545,545,545,545,545,543,541,527,515],"ymouse":[601,601,601,601,601,601,601,601,601,601,601,601,601,601,601,601,601,601,601,601,601,601,601,601,601,601,601,601,601,601,601,601,601,601,601,601,601,601,601,601,601,601,601,601,601,601,601,601,601,601,601,601,601,601,601,601,601,601,601,601,601,601,601,601,601,601,601,601,601,601,601,601,601,601,601,601,601,601,601,601,601,601,601,601,601,601,601,601,601,601,601,601,601,601,601,601,601,601,601,601,601,601,601,601,601,601,601,601,601,601,601,601,601,602,612,625,638,648,648,648,648,648,648,648,648,648,648,648,648,648,648,648,648,648,648,648,648,648,648,648,647,646,645,644,644,644,644,643,641,641,641,641,641,641,641,641,641,641,641,641,641,641,641,641,641,641,641,641,641,641,641,641,641,641,641,641,639,635,629,619,606,584,513,467,433,409,391,356,341,323,313,302,285,241,217,196,174,142,131,120,114,109,106,106,106,106,106,106,110,122,138,149,154,154,154,154,154,152,132,94,68,48,38,34,34,34,34,34,34,34,34,34,34,34],"timestamp_mouse":[8,28,48,69,89,108,130,148,169,188,210,228,248,269,289,309,328,348,369,389,408,429,448,469,488,509,528,549,569,588,609,629,650,668,688,708,730,749,768,790,808,828,849,870,888,908,929,950,968,988,1009,1029,1048,1068,1090,1108,1129,1148,1170,1190,1208,1228,1248,1270,1288,1309,1329,1350,1370,1389,1408,1428,1449,1470,1489,1509,1530,1550,1570,1589,1609,1628,1650,1668,1688,1708,1730,1749,1768,1789,1810,1828,1849,1870,1889,1908,1929,1950,1970,1989,2009,2029,2049,2070,2088,2108,2129,2148,2170,2189,2208,2229,2249,2269,2288,2308,2330,2349,2368,2388,2409,2428,2448,2468,2488,2510,2529,2549,2568,2588,2609,2628,2650,2670,2689,2708,2730,2750,2768,2788,2809,2829,2848,2868,2889,2910,2928,2949,2970,2989,3009,3028,3049,3069,3088,3110,3128,3149,3169,3189,3209,3229,3249,3269,3289,3308,3329,3350,3368,3388,3410,3429,3449,3468,3489,3509,3529,3548,3568,3589,3610,3630,3649,3669,3688,3709,3730,3749,3768,3789,3809,3829,3849,3868,3889,3910,3930,3949,3970,3988,4009,4030,4049,4068,4089,4109,4130,4149,4169,4188,4208,4228,4248,4268,4289,4309,4328,4349,4368,4388,4409,4429,4449,4469,4488,4508,4528,4549,4569,4590,4609,4628,4648,4669],"xSR":741.5,"ySR":573.95,"xT1":424.9,"yT1":0,"xT2":1058.1,"yT2":0,"toosoon":0,"cond_shown":"Congruent","ratio_trial":200,"L_num":4,"L_den":10,"R_num":3,"R_den":15,"correct_side":1,"subjID":"cristalrojas37","gender":"1","school":"6","age":"11"},{"start_time":1551892571679,"click_time":1551892572713,"finger_time":1551892572073,"fix_duration":544.5397733171147,"trial":47,"RT":394,"MT":640,"sideResp":1,"stimulus":[],"xmouse":[790,790,790,790,790,790,790,790,790,790,790,790,790,790,790,790,790,789,789,789,788,788,788,788,788,788,787,787,787,787,786,784,783,781,779,769,761,730,699,665,598,573,559,549,543,541,540,540,539,539,538,524],"ymouse":[609,609,609,609,609,609,609,609,609,609,609,609,609,609,608,602,598,584,577,571,566,566,566,566,566,566,565,564,559,554,543,536,528,514,497,448,420,322,249,173,63,36,15,0,0,0,0,0,0,0,0,9],"timestamp_mouse":[14,34,54,74,96,115,134,155,174,195,216,234,254,275,296,315,335,354,375,394,414,434,454,476,496,515,534,555,575,595,615,634,654,675,695,715,736,755,774,795,814,835,854,875,895,914,934,955,976,994,1015,1034],"xSR":741.5,"ySR":573.95,"xT1":424.9,"yT1":0,"xT2":1058.1,"yT2":0,"toosoon":0,"cond_shown":"Congruent","ratio_trial":100,"L_num":11,"L_den":22,"R_num":6,"R_den":15,"correct_side":1,"subjID":"cristalrojas37","gender":"1","school":"6","age":"11"},{"start_time":1551892575090,"click_time":1551892576494,"finger_time":1551892576294,"fix_duration":1074.3244830270946,"trial":48,"RT":1204,"MT":200,"sideResp":1,"stimulus":[],"xmouse":[803,803,803,803,803,803,803,803,803,803,803,803,803,803,803,803,803,803,803,803,803,803,803,803,803,803,803,803,803,803,803,803,803,803,803,803,803,803,803,803,803,803,803,803,803,803,803,803,803,803,803,803,803,803,803,803,803,803,801,799,782,761,735,705,678,626,587,558,539,525,517],"ymouse":[618,618,618,618,618,618,618,618,618,618,618,618,618,618,618,618,618,618,618,618,618,618,618,618,618,618,618,618,618,618,618,618,618,618,618,618,618,618,618,618,618,618,618,618,618,618,618,618,618,618,618,618,618,618,618,618,618,618,616,605,549,496,432,376,328,214,129,81,47,23,8],"timestamp_mouse":[4,35,44,63,85,104,123,144,163,184,203,223,244,264,284,304,325,344,364,383,403,424,444,464,484,503,524,543,563,583,603,623,644,665,683,703,724,743,764,783,803,824,843,864,883,904,923,943,964,983,1003,1023,1043,1063,1083,1104,1123,1144,1164,1184,1204,1224,1243,1263,1285,1304,1323,1344,1364,1385,1403],"xSR":741.5,"ySR":573.95,"xT1":424.9,"yT1":0,"xT2":1058.1,"yT2":0,"toosoon":0,"cond_shown":"Incongruent","ratio_trial":300,"L_num":8,"L_den":10,"R_num":14,"R_den":28,"correct_side":1,"subjID":"cristalrojas37","gender":"1","school":"6","age":"11"},{"start_time":1551892579625,"click_time":1551892581153,"finger_time":1551892580173,"fix_duration":250,"trial":49,"RT":548,"MT":980,"sideResp":1,"stimulus":[],"xmouse":[794,794,794,794,794,794,794,794,794,794,794,794,794,794,794,794,794,794,794,794,794,794,794,794,793,792,791,789,788,784,784,783,781,773,765,754,741,727,712,685,664,650,636,620,592,583,576,571,563,560,559,558,555,550,547,545,544,544,543,543,543,543,543,545,547,548,548,548,547,545,544,544,542,536,530,525,519],"ymouse":[599,599,599,599,599,599,599,599,599,599,599,599,599,599,599,599,599,599,599,599,599,599,599,595,590,585,578,571,564,548,543,537,526,495,476,456,436,416,399,363,329,306,282,255,218,208,201,195,185,182,181,177,172,161,154,150,147,146,144,142,137,133,129,117,106,92,79,67,58,49,48,47,44,41,40,39,37],"timestamp_mouse":[18,32,49,70,89,109,129,148,168,189,209,230,248,269,289,308,328,350,369,390,408,428,450,469,489,509,528,548,569,589,609,628,650,669,689,708,729,748,769,789,809,829,849,868,888,908,929,949,969,988,1009,1029,1048,1068,1089,1108,1129,1149,1168,1190,1209,1229,1250,1269,1289,1309,1329,1348,1369,1389,1408,1429,1449,1469,1488,1508,1528],"xSR":741.5,"ySR":573.95,"xT1":424.9,"yT1":0,"xT2":1058.1,"yT2":0,"toosoon":0,"cond_shown":"Incongruent","ratio_trial":100,"L_num":12,"L_den":30,"R_num":2,"R_den":4,"correct_side":2,"subjID":"cristalrojas37","gender":"1","school":"6","age":"11"},{"start_time":1551892586601,"click_time":1551892587993,"finger_time":1551892587514,"fix_duration":1385.4396481516897,"trial":50,"RT":913,"MT":479,"sideResp":2,"stimulus":[],"xmouse":[787,787,787,787,787,787,787,787,787,787,787,787,787,787,787,787,787,787,787,787,787,787,787,787,787,787,787,787,787,787,787,787,787,787,787,787,787,787,787,787,787,787,786,789,812,840,862,892,920,983,1000,1015,1020,1024,1031,1033,1035,1037,1037,1037,1037,1037,1037,1039,1043,1046,1049,1055,1066,1091],"ymouse":[607,607,607,607,607,607,607,607,607,607,607,607,607,607,607,607,607,607,607,607,607,607,607,607,607,607,607,607,607,607,607,607,607,607,607,607,607,607,607,607,607,607,608,605,582,562,542,511,479,388,363,331,310,289,247,232,218,203,188,163,156,147,142,136,130,126,120,112,101,84],"timestamp_mouse":[12,33,52,74,92,113,132,153,172,192,212,234,253,272,294,313,333,353,372,393,412,432,452,474,492,512,533,553,572,593,613,633,652,674,693,713,733,754,774,792,813,833,853,872,893,913,933,953,972,992,1012,1033,1054,1072,1093,1113,1133,1156,1172,1193,1213,1233,1252,1272,1292,1313,1333,1353,1372,1392],"xSR":741.5,"ySR":573.95,"xT1":424.9,"yT1":0,"xT2":1058.1,"yT2":0,"toosoon":0,"cond_shown":"Congruent","ratio_trial":200,"L_num":16,"L_den":20,"R_num":12,"R_den":20,"correct_side":1,"subjID":"cristalrojas37","gender":"1","school":"6","age":"11"},{"start_time":1551892589986,"click_time":1551892591554,"finger_time":1551892590813,"fix_duration":250,"trial":51,"RT":827,"MT":741,"sideResp":1,"stimulus":[],"xmouse":[769,769,769,769,769,769,769,769,769,769,769,769,769,769,769,769,769,769,769,769,769,769,769,769,769,769,769,769,769,769,769,769,769,769,769,769,769,769,769,769,769,764,759,756,753,750,747,746,743,740,732,727,724,719,715,704,696,684,661,631,583,569,568,563,561,554,551,549,548,548,548,548,547,547,544,537,532,528,522],"ymouse":[631,631,631,631,631,631,631,631,631,631,631,631,631,631,631,631,631,631,631,631,631,631,631,631,631,631,631,631,631,631,631,631,631,631,631,631,631,631,631,626,594,573,565,561,557,550,540,528,513,501,477,465,453,434,420,384,359,331,272,207,130,112,109,100,91,64,53,46,44,44,44,44,43,43,43,42,42,43,45],"timestamp_mouse":[8,28,48,68,