[{"start_time":1551893308445,"click_time":1551893314034,"finger_time":1551893308454,"fix_duration":386.49837519796847,"trial":0,"RT":9,"MT":5580,"sideResp":1,"stimulus":"img/750/equaldotsize/R/15_Ratio_750_L_9_R_12.png","xmouse":[803,803,803,803,803,803,803,803,803,803,803,803,803,803,803,803,803,803,803,803,803,803,803,803,803,803,803,803,803,803,802,799,793,791,790,789,787,783,782,782,782,782,782,782,782,782,783,785,787,789,792,793,794,794,794,794,794,794,794,794,794,794,794,794,794,794,794,794,794,794,794,794,794,794,794,794,794,794,794,794,794,794,794,794,794,794,794,794,794,794,794,793,793,793,793,793,793,793,792,792,792,792,792,792,792,792,792,792,792,792,792,792,792,792,792,791,790,790,790,790,790,790,790,790,790,790,790,790,790,790,790,790,790,790,790,790,790,790,790,790,790,790,790,790,790,790,790,790,790,790,790,790,790,790,790,790,790,790,790,790,790,790,790,790,790,790,790,790,790,790,790,790,790,790,790,790,790,790,790,790,790,790,790,796,801,804,805,805,805,805,805,805,805,798,794,787,783,780,780,780,780,780,786,797,809,817,824,824,824,824,824,824,824,824,822,822,822,822,822,822,822,822,822,822,822,822,822,822,822,822,822,822,822,822,822,822,822,822,822,822,822,822,822,822,822,822,822,822,822,822,822,822,822,822,822,819,817,810,809,807,801,777,760,741,723,703,657,639,615,599,589,570,558,544,523,504,488,460,453,447],"ymouse":[488,488,488,488,488,488,488,488,488,488,488,488,488,488,488,488,488,488,488,488,488,488,488,488,488,488,488,488,488,488,490,501,522,529,534,544,553,579,590,600,605,608,610,610,610,610,611,613,614,615,616,616,617,617,617,617,617,617,617,617,617,617,617,617,617,617,617,617,617,617,617,617,617,617,617,617,617,617,617,617,617,617,617,617,617,617,617,617,617,618,619,621,622,622,622,622,622,623,624,624,624,624,624,624,625,625,625,625,625,625,625,625,625,625,625,626,626,626,626,626,626,626,626,626,626,626,626,626,626,626,626,626,626,626,626,626,626,626,626,626,626,626,626,626,626,626,626,626,626,626,626,626,626,626,626,626,626,626,626,626,626,626,626,626,626,626,626,626,626,626,626,626,626,626,626,626,626,626,626,626,626,626,626,618,613,609,606,603,603,603,603,603,603,613,618,628,635,641,641,641,642,642,642,637,630,624,620,620,620,620,620,620,621,626,631,635,638,638,638,638,638,638,638,638,638,638,637,636,636,636,636,636,636,636,636,636,636,636,636,636,636,636,636,636,636,636,636,636,636,636,636,636,636,633,632,628,624,616,613,610,603,579,566,553,536,516,456,431,396,374,356,314,288,261,230,203,180,127,106,83],"timestamp_mouse":[9,30,49,69,88,110,130,149,169,189,209,229,250,268,290,309,330,348,369,389,408,429,449,470,489,509,528,550,569,590,608,628,649,669,690,709,730,749,769,789,810,829,849,869,889,909,929,949,969,990,1009,1029,1050,1069,1088,1109,1129,1149,1168,1190,1210,1229,1249,1269,1289,1309,1328,1350,1370,1388,1409,1428,1450,1468,1489,1510,1530,1550,1569,1589,1610,1630,1650,1670,1689,1708,1730,1749,1770,1790,1809,1829,1850,1869,1889,1910,1930,1949,1969,1990,2010,2030,2050,2070,2089,2109,2129,2149,2169,2190,2208,2230,2250,2270,2290,2310,2329,2349,2369,2389,2410,2430,2449,2469,2490,2509,2530,2549,2568,2590,2610,2628,2650,2670,2690,2710,2729,2749,2768,2789,2809,2830,2849,2870,2888,2909,2930,2950,2969,2989,3008,3030,3050,3069,3088,3108,3129,3150,3170,3190,3210,3229,3249,3269,3290,3309,3330,3349,3369,3390,3410,3430,3449,3469,3490,3509,3530,3550,3569,3590,3609,3630,3650,3670,3690,3709,3729,3749,3769,3790,3810,3828,3850,3869,3889,3909,3930,3949,3969,3989,4010,4030,4049,4069,4090,4109,4130,4150,4169,4189,4209,4228,4249,4269,4289,4309,4330,4349,4369,4389,4409,4430,4449,4468,4490,4508,4529,4549,4569,4589,4610,4629,4649,4669,4688,4710,4729,4749,4769,4789,4809,4830,4849,4869,4888,4910,4930,4948,4969,4990,5009,5029,5048,5070,5090,5109,5128,5149,5170,5189,5210,5230,5249,5269,5289,5309,5330,5349,5369,5390,5409,5430,5449,5469,5490,5509,5529,5550,5570,5589],"xSR":741.5,"ySR":469.95,"xT1":424.9,"yT1":0,"xT2":1058.1,"yT2":0,"toosoon":0,"cond_shown":"equaldotsize","ratio_trial":750,"smaller_num":"9","larger_num":"12","correct_side":2,"subjID":"cristalrojas37","gender":"1","age":"11","school":"6","test":{"fix_dur":[250,1500],"timestim":300,"targets_dim":[100,100],"targets_relative_coord":[0.3,0.7],"size_stim":[880,420],"start_dim":[100,100],"size_start":[300,300],"size_fix":60,"samplingrate":20,"img_types":["equaldotsize","equaldotanddens","randomdotsizeEA"],"ratios":[250,500,750,900],"rep_conds":9,"nTrials":120,"trials_to_rest":500,"Trials_order":[42,102,23,108,34,31,62,110,85,11,106,37,0,10,98,35,48,5,30,33,117,84,99,91,118,41,9,97,38,3,4,52,25,69,15,58,28,57,79,115,16,75,18,89,13,68,81,67,63,46,7,113,101,96,90,47,114,54,76,26,55,65,24,66,112,27,78,59,109,77,32,8,44,21,116,20,45,100,17,95,82,80,49,14,83,43,74,92,72,71,12,2,61,36,22,40,105,86,64,103,51,119,60,6,93,19,111,87,50,104,94,88,70,1,73,29,39,107,56,53],"cond_shown":["equaldotsize","equaldotsize","randomdotsizeEA","equaldotsize","equaldotanddens","equaldotanddens","randomdotsizeEA","randomdotsizeEA","equaldotanddens","randomdotsizeEA","equaldotanddens","equaldotanddens","equaldotsize","equaldotanddens","randomdotsizeEA","randomdotsizeEA","equaldotsize","randomdotsizeEA","equaldotsize","equaldotsize","equaldotsize","equaldotsize","equaldotsize","equaldotanddens","equaldotanddens","randomdotsizeEA","equaldotsize","equaldotanddens","randomdotsizeEA","equaldotsize","equaldotanddens","equaldotanddens","equaldotanddens","equaldotsize","equaldotsize","equaldotanddens","equaldotanddens","equaldotsize","equaldotanddens","equaldotanddens","equaldotanddens","equaldotsize","equaldotsize","randomdotsizeEA","equaldotanddens","randomdotsizeEA","equaldotsize","equaldotanddens","equaldotsize","equaldotanddens","equaldotanddens","randomdotsizeEA","randomdotsizeEA","equaldotsize","equaldotsize","randomdotsizeEA","equaldotsize","equaldotsize","equaldotanddens","randomdotsizeEA","equaldotanddens","randomdotsizeEA","equaldotsize","equaldotsize","equaldotanddens","equaldotsize","equaldotsize","randomdotsizeEA","equaldotanddens","randomdotsizeEA","randomdotsizeEA","randomdotsizeEA","randomdotsizeEA","equaldotsize","randomdotsizeEA","randomdotsizeEA","equaldotsize","equaldotanddens","randomdotsizeEA","randomdotsizeEA","equaldotanddens","randomdotsizeEA","equaldotanddens","randomdotsizeEA","randomdotsizeEA","equaldotanddens","randomdotsizeEA","randomdotsizeEA","equaldotsize","randomdotsizeEA","equaldotsize","randomdotsizeEA","equaldotanddens","equaldotsize","equaldotanddens","equaldotanddens","equaldotsize","randomdotsizeEA","equaldotanddens","equaldotanddens","equaldotsize","randomdotsizeEA","equaldotsize","equaldotsize","equaldotsize","equaldotanddens","equaldotsize","equaldotsize","randomdotsizeEA","randomdotsizeEA","equaldotanddens","equaldotanddens","equaldotanddens","equaldotanddens","equaldotanddens","randomdotsizeEA","equaldotsize","randomdotsizeEA","randomdotsizeEA","randomdotsizeEA"],"ratio_trial":[750,750,900,250,900,750,250,250,250,900,900,250,250,900,250,900,250,500,750,900,900,250,500,750,900,500,900,250,250,500,500,500,250,900,500,900,500,900,750,750,500,500,750,500,250,750,900,750,500,900,750,500,500,250,750,900,750,750,500,250,750,500,250,750,500,500,750,900,250,500,750,750,750,900,750,750,900,500,500,900,900,750,250,250,900,750,250,750,250,900,250,250,250,250,900,500,900,250,500,750,500,900,250,750,900,750,500,500,250,750,900,500,900,250,250,500,500,900,750,500],"smaller_num":["9","18","18","2","18","3","4","2","3","18","9","3","2","18","3","18","2","9","6","18","18","3","6","9","18","6","9","1","3","5","1","10","1","9","10","18","4","9","3","6","9","10","12","9","6","6","18","3","9","18","9","1","6","2","3","9","3","3","9","3","6","1","1","3","9","10","3","9","3","2","3","3","3","9","15","6","18","9","3","9","9","15","3","3","18","3","4","15","3","18","1","3","2","3","9","3","18","3","1","6","6","18","5","3","18","15","6","5","2","15","9","1","18","6","3","9","4","18","12","4"],"larger_num":["12","24","20","8","20","4","16","8","12","20","10","12","8","20","12","20","8","18","8","20","20","12","12","12","20","12","10","4","12","10","2","20","4","10","20","20","8","10","4","8","18","20","16","18","24","8","20","4","18","20","12","2","12","8","4","10","4","4","18","12","8","2","4","4","18","20","4","10","12","4","4","4","4","10","20","8","20","18","6","10","10","20","12","12","20","4","16","20","12","20","4","12","8","12","10","6","20","12","2","8","12","20","20","4","20","20","12","10","8","20","10","2","20","24","12","18","8","20","16","8"],"correct_side":[2,1,1,1,2,1,2,1,2,1,2,1,1,2,2,1,1,2,1,1,1,2,1,2,2,1,2,2,2,1,2,2,2,1,2,1,1,1,2,1,2,2,2,1,1,1,1,1,2,1,2,2,1,2,1,2,1,1,2,2,1,2,2,1,2,2,1,1,2,1,2,1,1,1,2,1,1,2,2,2,2,2,1,2,1,2,1,2,1,2,2,2,1,2,2,2,2,1,2,2,1,1,2,2,1,1,1,2,1,2,2,2,1,1,2,2,1,1,2,1],"img_shown":["img/750/equaldotsize/R/15_Ratio_750_L_9_R_12.png","img/750/equaldotsize/L/6_Ratio_750_L_24_R_18.png","img/900/randomdotsizeEA/L/8_Ratio_900_L_20_R_18.png","img/250/equaldotsize/L/1_Ratio_250_L_8_R_2.png","img/900/equaldotanddens/R/14_Ratio_900_L_18_R_20.png","img/750/equaldotanddens/L/9_Ratio_750_L_4_R_3.png","img/250/randomdotsizeEA/R/10_Ratio_250_L_4_R_16.png","img/250/randomdotsizeEA/L/1_Ratio_250_L_8_R_2.png","img/250/equaldotanddens/R/9_Ratio_250_L_3_R_12.png","img/900/randomdotsizeEA/L/4_Ratio_900_L_20_R_18.png","img/900/equaldotanddens/R/7_Ratio_900_L_9_R_10.png","img/250/equaldotanddens/L/15_Ratio_250_L_12_R_3.png","img/250/equaldotsize/L/1_Ratio_250_L_8_R_2.png","img/900/equaldotanddens/R/11_Ratio_900_L_18_R_20.png","img/250/randomdotsizeEA/R/11_Ratio_250_L_3_R_12.png","img/900/randomdotsizeEA/L/8_Ratio_900_L_20_R_18.png","img/250/equaldotsize/L/1_Ratio_250_L_8_R_2.png","img/500/randomdotsizeEA/R/1_Ratio_500_L_9_R_18.png","img/750/equaldotsize/L/14_Ratio_750_L_8_R_6.png","img/900/equaldotsize/L/4_Ratio_900_L_20_R_18.png","img/900/equaldotsize/L/10_Ratio_900_L_20_R_18.png","img/250/equaldotsize/R/9_Ratio_250_L_3_R_12.png","img/500/equaldotsize/L/11_Ratio_500_L_12_R_6.png","img/750/equaldotanddens/R/15_Ratio_750_L_9_R_12.png","img/900/equaldotanddens/R/13_Ratio_900_L_18_R_20.png","img/500/randomdotsizeEA/L/13_Ratio_500_L_12_R_6.png","img/900/equaldotsize/R/5_Ratio_900_L_9_R_10.png","img/250/equaldotanddens/R/8_Ratio_250_L_1_R_4.png","img/250/randomdotsizeEA/R/9_Ratio_250_L_3_R_12.png","img/500/equaldotsize/L/7_Ratio_500_L_10_R_5.png","img/500/equaldotanddens/R/12_Ratio_500_L_1_R_2.png","img/500/equaldotanddens/R/3_Ratio_500_L_10_R_20.png","img/250/equaldotanddens/R/8_Ratio_250_L_1_R_4.png","img/900/equaldotsize/L/1_Ratio_900_L_10_R_9.png","img/500/equaldotsize/R/3_Ratio_500_L_10_R_20.png","img/900/equaldotanddens/L/8_Ratio_900_L_20_R_18.png","img/500/equaldotanddens/L/8_Ratio_500_L_8_R_4.png","img/900/equaldotsize/L/1_Ratio_900_L_10_R_9.png","img/750/equaldotanddens/R/12_Ratio_750_L_3_R_4.png","img/750/equaldotanddens/L/14_Ratio_750_L_8_R_6.png","img/500/equaldotanddens/R/6_Ratio_500_L_9_R_18.png","img/500/equaldotsize/R/3_Ratio_500_L_10_R_20.png","img/750/equaldotsize/R/11_Ratio_750_L_12_R_16.png","img/500/randomdotsizeEA/L/4_Ratio_500_L_18_R_9.png","img/250/equaldotanddens/L/5_Ratio_250_L_24_R_6.png","img/750/randomdotsizeEA/L/13_Ratio_750_L_8_R_6.png","img/900/equaldotsize/L/4_Ratio_900_L_20_R_18.png","img/750/equaldotanddens/L/9_Ratio_750_L_4_R_3.png","img/500/equaldotsize/R/1_Ratio_500_L_9_R_18.png","img/900/equaldotanddens/L/4_Ratio_900_L_20_R_18.png","img/750/equaldotanddens/R/15_Ratio_750_L_9_R_12.png","img/500/randomdotsizeEA/R/15_Ratio_500_L_1_R_2.png","img/500/randomdotsizeEA/L/13_Ratio_500_L_12_R_6.png","img/250/equaldotsize/R/13_Ratio_250_L_2_R_8.png","img/750/equaldotsize/L/9_Ratio_750_L_4_R_3.png","img/900/randomdotsizeEA/R/5_Ratio_900_L_9_R_10.png","img/750/equaldotsize/L/8_Ratio_750_L_4_R_3.png","img/750/equaldotsize/L/10_Ratio_750_L_4_R_3.png","img/500/equaldotanddens/R/6_Ratio_500_L_9_R_18.png","img/250/randomdotsizeEA/R/9_Ratio_250_L_3_R_12.png","img/750/equaldotanddens/L/14_Ratio_750_L_8_R_6.png","img/500/randomdotsizeEA/R/12_Ratio_500_L_1_R_2.png","img/250/equaldotsize/R/8_Ratio_250_L_1_R_4.png","img/750/equaldotsize/L/10_Ratio_750_L_4_R_3.png","img/500/equaldotanddens/R/6_Ratio_500_L_9_R_18.png","img/500/equaldotsize/R/3_Ratio_500_L_10_R_20.png","img/750/equaldotsize/L/10_Ratio_750_L_4_R_3.png","img/900/randomdotsizeEA/L/1_Ratio_900_L_10_R_9.png","img/250/equaldotanddens/R/4_Ratio_250_L_3_R_12.png","img/500/randomdotsizeEA/L/10_Ratio_500_L_4_R_2.png","img/750/randomdotsizeEA/R/12_Ratio_750_L_3_R_4.png","img/750/randomdotsizeEA/L/9_Ratio_750_L_4_R_3.png","img/750/randomdotsizeEA/L/10_Ratio_750_L_4_R_3.png","img/900/equaldotsize/L/1_Ratio_900_L_10_R_9.png","img/750/randomdotsizeEA/R/5_Ratio_750_L_15_R_20.png","img/750/randomdotsizeEA/L/14_Ratio_750_L_8_R_6.png","img/900/equaldotsize/L/10_Ratio_900_L_20_R_18.png","img/500/equaldotanddens/R/6_Ratio_500_L_9_R_18.png","img/500/randomdotsizeEA/R/2_Ratio_500_L_3_R_6.png","img/900/randomdotsizeEA/R/3_Ratio_900_L_9_R_10.png","img/900/equaldotanddens/R/5_Ratio_900_L_9_R_10.png","img/750/randomdotsizeEA/R/4_Ratio_750_L_15_R_20.png","img/250/equaldotanddens/L/15_Ratio_250_L_12_R_3.png","img/250/randomdotsizeEA/R/11_Ratio_250_L_3_R_12.png","img/900/randomdotsizeEA/L/10_Ratio_900_L_20_R_18.png","img/750/equaldotanddens/R/7_Ratio_750_L_3_R_4.png","img/250/randomdotsizeEA/L/2_Ratio_250_L_16_R_4.png","img/750/randomdotsizeEA/R/5_Ratio_750_L_15_R_20.png","img/250/equaldotsize/L/14_Ratio_250_L_12_R_3.png","img/900/randomdotsizeEA/R/11_Ratio_900_L_18_R_20.png","img/250/equaldotsize/R/8_Ratio_250_L_1_R_4.png","img/250/randomdotsizeEA/R/11_Ratio_250_L_3_R_12.png","img/250/equaldotanddens/L/3_Ratio_250_L_8_R_2.png","img/250/equaldotsize/R/4_Ratio_250_L_3_R_12.png","img/900/equaldotanddens/R/3_Ratio_900_L_9_R_10.png","img/500/equaldotanddens/R/2_Ratio_500_L_3_R_6.png","img/900/equaldotsize/R/11_Ratio_900_L_18_R_20.png","img/250/randomdotsizeEA/L/15_Ratio_250_L_12_R_3.png","img/500/equaldotanddens/R/12_Ratio_500_L_1_R_2.png","img/750/equaldotanddens/R/2_Ratio_750_L_6_R_8.png","img/500/equaldotsize/L/11_Ratio_500_L_12_R_6.png","img/900/randomdotsizeEA/L/10_Ratio_900_L_20_R_18.png","img/250/equaldotsize/R/12_Ratio_250_L_5_R_20.png","img/750/equaldotsize/R/12_Ratio_750_L_3_R_4.png","img/900/equaldotsize/L/4_Ratio_900_L_20_R_18.png","img/750/equaldotanddens/L/1_Ratio_750_L_20_R_15.png","img/500/equaldotsize/L/11_Ratio_500_L_12_R_6.png","img/500/equaldotsize/R/14_Ratio_500_L_5_R_10.png","img/250/randomdotsizeEA/L/3_Ratio_250_L_8_R_2.png","img/750/randomdotsizeEA/R/4_Ratio_750_L_15_R_20.png","img/900/equaldotanddens/R/6_Ratio_900_L_9_R_10.png","img/500/equaldotanddens/R/15_Ratio_500_L_1_R_2.png","img/900/equaldotanddens/L/4_Ratio_900_L_20_R_18.png","img/250/equaldotanddens/L/5_Ratio_250_L_24_R_6.png","img/250/equaldotanddens/R/4_Ratio_250_L_3_R_12.png","img/500/randomdotsizeEA/R/1_Ratio_500_L_9_R_18.png","img/500/equaldotsize/L/8_Ratio_500_L_8_R_4.png","img/900/randomdotsizeEA/L/2_Ratio_900_L_20_R_18.png","img/750/randomdotsizeEA/R/11_Ratio_750_L_12_R_16.png","img/500/randomdotsizeEA/L/8_Ratio_500_L_8_R_4.png"],"Rat0":[["12_Ratio_0_L_9_R_0.png","13_Ratio_0_L_6_R_0.png","5_Ratio_0_L_2_R_0.png","6_Ratio_0_L_4_R_0.png","8_Ratio_0_L_6_R_0.png"],["1_Ratio_0_L_0_R_17.png","10_Ratio_0_L_0_R_22.png","11_Ratio_0_L_0_R_1.png","14_Ratio_0_L_0_R_24.png","15_Ratio_0_L_0_R_4.png","2_Ratio_0_L_0_R_5.png","3_Ratio_0_L_0_R_17.png","4_Ratio_0_L_0_R_7.png","7_Ratio_0_L_0_R_19.png","9_Ratio_0_L_0_R_15.png"]],"Rat250":[["1_Ratio_250_L_8_R_2.png","14_Ratio_250_L_12_R_3.png","15_Ratio_250_L_12_R_3.png","2_Ratio_250_L_16_R_4.png","3_Ratio_250_L_8_R_2.png","5_Ratio_250_L_24_R_6.png","7_Ratio_250_L_8_R_2.png"],["10_Ratio_250_L_4_R_16.png","11_Ratio_250_L_3_R_12.png","12_Ratio_250_L_5_R_20.png","13_Ratio_250_L_2_R_8.png","4_Ratio_250_L_3_R_12.png","6_Ratio_250_L_6_R_24.png","8_Ratio_250_L_1_R_4.png","9_Ratio_250_L_3_R_12.png"]],"Rat500":[["10_Ratio_500_L_4_R_2.png","11_Ratio_500_L_12_R_6.png","13_Ratio_500_L_12_R_6.png","4_Ratio_500_L_18_R_9.png","5_Ratio_500_L_4_R_2.png","7_Ratio_500_L_10_R_5.png","8_Ratio_500_L_8_R_4.png"],["1_Ratio_500_L_9_R_18.png","12_Ratio_500_L_1_R_2.png","14_Ratio_500_L_5_R_10.png","15_Ratio_500_L_1_R_2.png","2_Ratio_500_L_3_R_6.png","3_Ratio_500_L_10_R_20.png","6_Ratio_500_L_9_R_18.png","9_Ratio_500_L_2_R_4.png"]],"Rat750":[["1_Ratio_750_L_20_R_15.png","10_Ratio_750_L_4_R_3.png","13_Ratio_750_L_8_R_6.png","14_Ratio_750_L_8_R_6.png","6_Ratio_750_L_24_R_18.png","8_Ratio_750_L_4_R_3.png","9_Ratio_750_L_4_R_3.png"],["11_Ratio_750_L_12_R_16.png","12_Ratio_750_L_3_R_4.png","15_Ratio_750_L_9_R_12.png","2_Ratio_750_L_6_R_8.png","3_Ratio_750_L_15_R_20.png","4_Ratio_750_L_15_R_20.png","5_Ratio_750_L_15_R_20.png","7_Ratio_750_L_3_R_4.png"]],"Rat900":[["1_Ratio_900_L_10_R_9.png","10_Ratio_900_L_20_R_18.png","2_Ratio_900_L_20_R_18.png","4_Ratio_900_L_20_R_18.png","8_Ratio_900_L_20_R_18.png"],["11_Ratio_900_L_18_R_20.png","12_Ratio_900_L_18_R_20.png","13_Ratio_900_L_18_R_20.png","14_Ratio_900_L_18_R_20.png","15_Ratio_900_L_9_R_10.png","3_Ratio_900_L_9_R_10.png","5_Ratio_900_L_9_R_10.png","6_Ratio_900_L_9_R_10.png","7_Ratio_900_L_9_R_10.png","9_Ratio_900_L_18_R_20.png"]],"Rat1000":[["10_Ratio_1000_L_16_R_16.png","11_Ratio_1000_L_6_R_6.png","12_Ratio_1000_L_14_R_14.png","13_Ratio_1000_L_20_R_20.png","15_Ratio_1000_L_15_R_15.png","2_Ratio_1000_L_17_R_17.png","4_Ratio_1000_L_9_R_9.png","5_Ratio_1000_L_6_R_6.png","6_Ratio_1000_L_19_R_19.png","8_Ratio_1000_L_14_R_14.png","9_Ratio_1000_L_25_R_25.png"],["1_Ratio_1000_L_1_R_1.png","14_Ratio_1000_L_17_R_17.png","3_Ratio_1000_L_17_R_17.png","7_Ratio_1000_L_6_R_6.png"]]}},{"start_time":1551893316259,"click_time":1551893317775,"finger_time":1551893317435,"fix_duration":1082.1433151309736,"trial":1,"RT":1176,"MT":340,"sideResp":1,"stimulus":"img/750/equaldotsize/L/6_Ratio_750_L_24_R_18.png","xmouse":[774,774,774,774,774,774,774,774,774,774,774,774,774,774,774,774,773,773,773,774,774,774,774,774,774,774,774,774,774,774,774,775,776,777,778,778,778,778,778,778,778,778,778,778,778,778,778,778,778,778,778,778,778,778,776,775,759,743,724,710,697,689,675,659,646,638,618,598,585,571,531,513,502,490,478,451],"ymouse":[633,633,633,633,633,633,633,633,633,633,633,633,633,633,633,633,633,632,632,632,632,632,632,632,632,632,632,632,632,632,632,631,631,630,630,630,629,629,629,628,627,626,626,625,624,624,624,624,624,622,620,620,620,620,618,617,596,574,548,523,481,452,415,375,343,324,293,268,251,229,176,154,141,130,120,97],"timestamp_mouse":[15,42,55,75,95,116,135,155,175,194,216,234,256,274,295,315,335,355,375,396,415,436,455,475,496,515,536,556,575,596,615,635,655,676,695,714,735,756,776,796,814,834,855,875,894,916,936,956,976,995,1016,1036,1054,1075,1096,1116,1135,1155,1176,1196,1215,1235,1256,1276,1295,1315,1336,1355,1375,1396,1415,1435,1454,1475,1495,1516],"xSR":741.5,"ySR":573.95,"xT1":424.9,"yT1":0,"xT2":1058.1,"yT2":0,"toosoon":0,"cond_shown":"equaldotsize","ratio_trial":750,"smaller_num":"18","larger_num":"24","correct_side":1,"subjID":"cristalrojas37","gender":"1","age":"11","school":"6"},{"start_time":1551893320147,"click_time":1551893321274,"finger_time":1551893320895,"fix_duration":1251.4965847195883,"trial":2,"RT":748,"MT":379,"sideResp":2,"stimulus":"img/900/randomdotsizeEA/L/8_Ratio_900_L_20_R_18.png","xmouse":[829,829,829,829,829,829,829,829,829,829,829,829,829,829,829,829,829,829,829,829,829,829,829,829,829,829,829,829,829,829,829,829,829,829,828,829,835,838,839,840,840,841,846,854,868,884,928,962,992,1015,1032,1053,1064,1070,1075,1078,1079],"ymouse":[600,600,600,600,600,600,600,600,600,600,600,600,600,600,600,600,600,600,600,600,600,600,600,600,600,600,600,600,600,600,600,600,600,600,597,591,577,572,568,566,565,563,555,545,529,508,429,366,301,244,204,153,134,123,110,103,94],"timestamp_mouse":[7,27,56,67,88,108,128,147,166,188,207,228,247,266,288,307,328,348,367,387,407,427,447,467,487,507,528,547,568,587,606,627,647,666,687,708,728,748,767,788,807,827,846,868,888,908,927,947,968,987,1007,1027,1047,1067,1087,1108,1127],"xSR":741.5,"ySR":573.95,"xT1":424.9,"yT1":0,"xT2":1058.1,"yT2":0,"toosoon":0,"cond_shown":"randomdotsizeEA","ratio_trial":900,"smaller_num":"18","larger_num":"20","correct_side":1,"subjID":"cristalrojas37","gender":"1","age":"11","school":"6"},{"start_time":1551893322445,"click_time":1551893323775,"finger_time":1551893323235,"fix_duration":250,"trial":3,"RT":790,"MT":540,"sideResp":1,"stimulus":"img/250/equaldotsize/L/1_Ratio_250_L_8_R_2.png","xmouse":[797,797,797,797,797,797,797,797,797,797,797,797,797,797,797,797,797,797,797,797,797,797,797,797,797,797,797,797,797,797,797,797,797,797,797,797,791,779,760,745,733,715,712,705,695,675,650,647,644,643,642,629,621,611,597,582,544,526,504,500,500,500,500,496,489,483,473],"ymouse":[599,599,599,599,599,599,599,599,599,599,599,599,599,599,599,599,599,599,599,599,599,599,599,599,599,599,599,599,599,599,599,599,599,599,599,599,594,586,576,565,549,496,472,446,417,382,330,313,292,283,277,260,250,240,225,208,167,153,140,140,140,140,140,135,123,111,84],"timestamp_mouse":[9,28,50,70,88,109,130,148,170,189,209,229,249,269,289,309,330,349,369,389,409,429,449,470,489,509,530,548,569,589,609,629,649,669,689,709,728,750,769,790,809,829,848,870,889,908,930,949,969,990,1008,1029,1049,1068,1089,1110,1129,1148,1169,1189,1210,1230,1249,1270,1290,1310,1330],"xSR":741.5,"ySR":573.95,"xT1":424.9,"yT1":0,"xT2":1058.1,"yT2":0,"toosoon":0,"cond_shown":"equaldotsize","ratio_trial":250,"smaller_num":"2","larger_num":"8","correct_side":1,"subjID":"cristalrojas37","gender":"1","age":"11","school":"6"},{"start_time":1551893325291,"click_time":1551893326114,"finger_time":1551893325995,"fix_duration":835.9287272831772,"trial":4,"RT":704,"MT":119,"sideResp":2,"stimulus":"img/900/equaldotanddens/R/14_Ratio_900_L_18_R_20.png","xmouse":[822,822,822,822,822,822,822,822,822,822,822,822,822,822,822,822,822,822,822,822,822,822,822,822,822,822,822,822,822,822,822,822,822,822,823,831,849,905,951,1059,1094,1117],"ymouse":[589,589,589,589,589,589,589,589,589,589,589,589,589,589,589,589,589,589,589,589,589,589,589,589,589,589,589,589,589,589,589,589,589,589,589,572,535,429,349,187,116,57],"timestamp_mouse":[8,23,44,63,83,104,122,144,164,184,203,223,244,263,283,303,324,343,364,383,403,423,443,464,484,503,523,543,564,583,603,623,644,664,683,704,723,743,762,783,803,823],"xSR":741.5,"ySR":573.95,"xT1":424.9,"yT1":0,"xT2":1058.1,"yT2":0,"toosoon":0,"cond_shown":"equaldotanddens","ratio_trial":900,"smaller_num":"18","larger_num":"20","correct_side":2,"subjID":"cristalrojas37","gender":"1","age":"11","school":"6"},{"start_time":1551893327724,"click_time":1551893328674,"finger_time":1551893328554,"fix_duration":529.256485001319,"trial":5,"RT":830,"MT":120,"sideResp":1,"stimulus":"img/750/equaldotanddens/L/9_Ratio_750_L_4_R_3.png","xmouse":[823,823,823,823,823,823,823,823,823,823,823,823,823,823,823,823,823,823,823,823,823,823,823,823,823,823,823,823,823,823,823,823,823,823,823,823,823,823,813,801,784,759,699,661,595,550,510,479],"ymouse":[649,649,649,649,649,649,649,649,649,649,649,649,649,649,649,649,649,649,649,649,649,649,649,649,649,649,649,649,649,649,649,649,649,649,649,649,649,649,637,618,593,555,447,378,260,185,128,90],"timestamp_mouse":[10,41,50,71,91,110,131,151,170,191,211,231,250,270,291,310,330,350,371,390,410,430,451,470,490,510,530,550,571,590,610,629,650,670,690,711,730,751,769,790,811,830,851,870,890,911,930,950],"xSR":741.5,"ySR":573.95,"xT1":424.9,"yT1":0,"xT2":1058.1,"yT2":0,"toosoon":0,"cond_shown":"equaldotanddens","ratio_trial":750,"smaller_num":"3","larger_num":"4","correct_side":1,"subjID":"cristalrojas37","gender":"1","age":"11","school":"6"},{"start_time":1551893330727,"click_time":1551893331674,"finger_time":1551893331414,"fix_duration":1431.6408862421267,"trial":6,"RT":687,"MT":260,"sideResp":2,"stimulus":"img/250/randomdotsizeEA/R/10_Ratio_250_L_4_R_16.png","xmouse":[811,811,811,811,811,811,811,811,811,811,811,811,811,811,811,811,811,811,811,811,811,811,811,811,811,811,811,811,811,811,811,811,811,819,826,836,846,860,906,934,967,996,1018,1044,1053,1055,1057,1059],"ymouse":[622,622,622,622,622,622,622,622,622,622,622,622,622,622,622,622,622,622,622,622,622,622,622,622,622,622,622,622,622,622,622,622,620,579,555,531,507,474,363,296,223,156,105,53,38,32,27,21],"timestamp_mouse":[8,30,48,67,87,106,128,148,166,187,208,228,247,267,287,307,327,348,368,388,407,427,448,467,487,507,528,547,568,588,607,626,647,667,687,707,726,747,767,787,808,828,848,867,888,908,928,947],"xSR":741.5,"ySR":573.95,"xT1":424.9,"yT1":0,"xT2":1058.1,"yT2":0,"toosoon":0,"cond_shown":"randomdotsizeEA","ratio_trial":250,"smaller_num":"4","larger_num":"16","correct_side":2,"subjID":"cristalrojas37","gender":"1","age":"11","school":"6"},{"start_time":1551893333219,"click_time":1551893334135,"finger_time":1551893333754,"fix_duration":542.5355936635337,"trial":7,"RT":535,"MT":381,"sideResp":1,"stimulus":"img/250/randomdotsizeEA/L/1_Ratio_250_L_8_R_2.png","xmouse":[821,821,821,821,821,821,821,821,821,821,821,821,821,821,821,821,821,821,821,821,821,821,819,811,803,796,785,760,740,716,680,642,607,562,551,539,533,529,529,529,529,529,529,511,496,487],"ymouse":[600,600,600,600,600,600,600,600,600,600,600,600,600,600,600,600,600,600,600,600,600,600,601,593,585,576,565,541,513,472,408,339,281,197,174,151,135,127,127,127,127,127,127,110,100,92],"timestamp_mouse":[16,36,55,76,96,116,136,155,175,195,216,236,255,276,295,314,336,356,375,395,416,436,456,475,494,516,535,556,574,596,616,635,655,676,696,715,736,756,775,795,816,836,855,875,895,916],"xSR":741.5,"ySR":573.95,"xT1":424.9,"yT1":0,"xT2":1058.1,"yT2":0,"toosoon":0,"cond_shown":"randomdotsizeEA","ratio_trial":250,"smaller_num":"2","larger_num":"8","correct_side":1,"subjID":"cristalrojas37","gender":"1","age":"11","school":"6"},{"start_time":1551893336311,"click_time":1551893336916,"finger_time":1551893336793,"fix_duration":1136.9300038519477,"trial":8,"RT":482,"MT":123,"sideResp":2,"stimulus":"img/250/equaldotanddens/R/9_Ratio_250_L_3_R_12.png","xmouse":[804,804,804,804,804,804,804,804,804,804,804,804,804,804,804,804,804,804,804,804,804,804,812,818,856,913,954,1000,1041,1097,1117],"ymouse":[642,642,642,642,642,642,642,642,642,642,642,642,642,642,642,642,642,642,642,642,642,642,626,617,554,455,378,298,226,107,61],"timestamp_mouse":[8,27,43,64,84,104,123,143,162,183,202,223,243,264,283,303,324,342,364,384,403,423,443,464,482,504,523,543,563,584,604],"xSR":741.5,"ySR":573.95,"xT1":424.9,"yT1":0,"xT2":1058.1,"yT2":0,"toosoon":0,"cond_shown":"equaldotanddens","ratio_trial":250,"smaller_num":"3","larger_num":"12","correct_side":2,"subjID":"cristalrojas37","gender":"1","age":"11","school":"6"},{"start_time":1551893339305,"click_time":1551893340315,"finger_time":1551893339995,"fix_duration":1469.3889126729882,"trial":9,"RT":690,"MT":320,"sideResp":2,"stimulus":"img/900/randomdotsizeEA/L/4_Ratio_900_L_20_R_18.png","xmouse":[802,802,802,802,802,802,802,802,802,802,802,802,802,802,802,802,802,802,802,802,802,802,802,802,802,802,802,802,802,802,801,799,797,797,800,810,837,876,927,1037,1084,1112,1122,1123,1117,1110,1108,1108,1106,1103,1102],"ymouse":[642,641,641,641,641,641,640,639,635,633,633,633,633,633,633,633,633,633,633,633,633,633,633,633,633,633,633,633,633,633,623,610,597,587,561,542,509,469,423,321,265,228,206,189,157,133,122,114,108,100,96],"timestamp_mouse":[9,29,51,69,89,109,129,149,170,190,209,229,248,268,289,310,329,349,369,388,410,429,449,470,489,508,529,548,569,590,610,630,649,668,690,710,730,749,769,789,809,829,850,870,890,908,929,949,969,989,1010],"xSR":741.5,"ySR":573.95,"xT1":424.9,"yT1":0,"xT2":1058.1,"yT2":0,"toosoon":0,"cond_shown":"randomdotsizeEA","ratio_trial":900,"smaller_num":"18","larger_num":"20","correct_side":1,"subjID":"cristalrojas37","gender":"1","age":"11","school":"6"},{"start_time":1551893341366,"click_time":1551893342454,"finger_time":1551893342054,"fix_duration":250,"trial":10,"RT":688,"MT":400,"sideResp":1,"stimulus":"img/900/equaldotanddens/R/7_Ratio_900_L_9_R_10.png","xmouse":[836,836,836,836,836,836,836,836,836,836,836,836,836,836,836,836,836,836,836,836,836,836,836,836,836,836,836,836,836,836,836,836,836,821,799,742,718,697,679,663,645,626,617,609,602,597,579,565,551,535,520,499,491,483,475],"ymouse":[615,615,615,615,615,615,615,615,615,615,615,615,615,615,615,615,615,615,615,615,615,615,615,615,615,615,615,615,615,615,615,615,615,600,571,493,458,427,402,379,350,314,302,293,284,276,252,238,223,208,188,144,126,109,96],"timestamp_mouse":[8,37,49,68,88,108,128,149,169,189,209,229,249,268,289,308,328,349,367,388,407,428,449,469,487,509,528,549,568,587,609,629,648,668,688,709,727,747,768,788,808,829,848,868,888,909,927,947,968,989,1008,1029,1048,1068,1088],"xSR":741.5,"ySR":573.95,"xT1":424.9,"yT1":0,"xT2":1058.1,"yT2":0,"toosoon":0,"cond_shown":"equaldotanddens","ratio_trial":900,"smaller_num":"9","larger_num":"10","correct_side":2,"subjID":"cristalrojas37","gender":"1","age":"11","school":"6"},{"start_time":1551893343984,"click_time":1551893344775,"finger_time":1551893344535,"fix_duration":669.9574453645354,"trial":11,"RT":551,"MT":240,"sideResp":1,"stimulus":"img/250/equaldotanddens/L/15_Ratio_250_L_12_R_3.png","xmouse":[764,764,764,764,764,764,764,764,764,764,764,764,764,764,764,764,764,764,764,764,764,764,764,764,764,761,754,745,725,700,612,577,556,544,532,530,529,527,526,524],"ymouse":[625,625,625,625,625,625,625,625,625,625,625,625,625,625,625,625,625,625,625,625,625,625,625,622,612,598,578,551,507,448,267,208,169,148,125,121,115,110,101,82],"timestamp_mouse":[9,37,50,71,90,110,131,150,171,191,211,231,250,270,291,311,331,349,371,390,410,430,449,471,491,511,529,551,570,590,611,630,650,671,691,710,730,751,770,790],"xSR":741.5,"ySR":573.95,"xT1":424.9,"yT1":0,"xT2":1058.1,"yT2":0,"toosoon":0,"cond_shown":"equaldotanddens","ratio_trial":250,"smaller_num":"3","larger_num":"12","correct_side":1,"subjID":"cristalrojas37","gender":"1","age":"11","school":"6"},{"start_time":1551893345825,"click_time":1551893347074,"finger_time":1551893346434,"fix_duration":250,"trial":12,"RT":609,"MT":640,"sideResp":1,"stimulus":"img/250/equaldotsize/L/1_Ratio_250_L_8_R_2.png","xmouse":[756,756,756,756,756,756,756,756,756,756,756,756,756,756,756,756,756,756,756,756,756,756,756,756,756,756,756,756,752,748,740,725,708,664,644,626,612,599,580,572,568,563,561,557,555,554,551,547,544,543,543,543,543,543,542,541,539,538,536,534,531,527,520],"ymouse":[625,625,625,625,625,625,625,625,625,625,625,625,625,625,625,625,625,625,625,625,625,625,625,625,625,625,624,621,605,588,565,529,486,393,354,318,295,277,249,229,214,195,177,155,148,142,135,118,111,109,108,108,108,108,106,101,98,95,91,88,85,79,72],"timestamp_mouse":[9,29,49,70,89,109,129,150,170,189,209,229,250,270,290,309,329,348,370,389,408,429,449,468,490,510,530,550,569,589,609,629,649,668,688,709,730,750,769,789,810,830,849,869,890,909,930,950,969,989,1008,1029,1050,1069,1089,1108,1129,1149,1169,1190,1209,1229,1249],"xSR":741.5,"ySR":573.95,"xT1":424.9,"yT1":0,"xT2":1058.1,"yT2":0,"toosoon":0,"cond_shown":"equaldotsize","ratio_trial":250,"smaller_num":"2","larger_num":"8","correct_side":1,"subjID":"cristalrojas37","gender":"1","age":"11","school":"6"},{"start_time":1551893348085,"click_time":1551893349074,"finger_time":1551893348795,"fix_duration":250,"trial":13,"RT":710,"MT":279,"sideResp":1,"stimulus":"img/900/equaldotanddens/R/11_Ratio_900_L_18_R_20.png","xmouse":[788,788,788,788,788,788,788,788,788,788,788,788,788,788,788,788,788,788,788,788,788,788,788,788,788,788,788,788,788,788,788,788,788,788,779,728,691,656,622,575,559,545,536,521,506,499,495,492,487,485],"ymouse":[635,635,635,635,635,635,635,635,635,635,635,635,635,635,635,635,635,635,635,635,635,635,635,635,635,635,635,635,635,635,635,635,635,635,617,524,460,408,361,291,262,234,213,186,149,133,124,116,106,95],"timestamp_mouse":[8,41,49,70,88,109,130,148,170,190,210,228,248,270,290,308,330,349,369,389,410,428,449,470,488,510,530,550,569,590,609,630,650,669,690,710,729,749,770,790,809,830,850,869,889,908,930,950,970,989],"xSR":741.5,"ySR":573.95,"xT1":424.9,"yT1":0,"xT2":1058.1,"yT2":0,"toosoon":0,"cond_shown":"equaldotanddens","ratio_trial":900,"smaller_num":"18","larger_num":"20","correct_side":2,"subjID":"cristalrojas37","gender":"1","age":"11","school":"6"},{"start_time":1551893350523,"click_time":1551893351915,"finger_time":1551893351694,"fix_duration":545.347173361397,"trial":14,"RT":1171,"MT":221,"sideResp":1,"stimulus":"img/250/randomdotsizeEA/R/11_Ratio_250_L_3_R_12.png","xmouse":[800,800,800,800,800,800,800,800,800,800,800,800,800,800,800,800,800,800,800,800,800,800,800,800,800,800,800,800,800,800,800,800,800,800,800,800,800,800,800,800,800,800,800,800,800,800,800,800,800,800,800,800,800,800,800,800,800,798,769,748,723,700,681,623,579,555,537,514,505,493],"ymouse":[631,631,631,631,631,631,631,631,631,631,631,631,631,631,631,631,631,631,631,631,631,631,631,631,631,631,631,631,631,631,631,631,631,631,631,631,631,631,631,631,631,631,631,631,631,631,631,631,631,631,631,631,631,631,631,631,628,619,568,524,477,435,391,288,227,194,169,132,111,83],"timestamp_mouse":[12,31,51,72,91,111,132,151,171,192,211,232,252,272,291,311,332,351,371,391,411,432,451,472,490,511,532,551,571,592,610,632,652,671,690,712,731,750,771,792,810,832,850,871,891,912,931,950,971,991,1012,1030,1051,1071,1091,1111,1132,1151,1171,1191,1212,1230,1251,1271,1291,1310,1331,1351,1371,1392],"xSR":741.5,"ySR":573.95,"xT1":424.9,"yT1":0,"xT2":1058.1,"yT2":0,"toosoon":0,"cond_shown":"randomdotsizeEA","ratio_trial":250,"smaller_num":"3","larger_num":"12","correct_side":2,"subjID":"cristalrojas37","gender":"1","age":"11","school":"6"},{"start_time":1551893353609,"click_time":1551893354474,"finger_time":1551893354315,"fix_duration":832.3128728811663,"trial":15,"RT":706,"MT":159,"sideResp":2,"stimulus":"img/900/randomdotsizeEA/L/8_Ratio_900_L_20_R_18.png","xmouse":[778,778,778,778,778,778,778,778,778,778,778,778,778,778,778,778,779,781,791,793,793,793,793,793,793,793,793,793,793,793,793,793,795,799,830,860,898,935,977,1058,1078,1089,1095,1101],"ymouse":[636,636,636,636,636,636,636,636,636,636,636,636,636,636,636,636,636,636,632,631,631,631,631,631,631,631,631,631,631,631,631,631,628,624,593,557,509,457,388,215,169,138,116,97],"timestamp_mouse":[9,30,46,65,86,105,126,146,165,185,206,226,245,266,286,306,324,345,366,386,405,426,446,464,485,505,525,546,565,585,605,625,645,665,686,706,725,745,765,785,806,825,845,865],"xSR":741.5,"ySR":573.95,"xT1":424.9,"yT1":0,"xT2":1058.1,"yT2":0,"toosoon":0,"cond_shown":"randomdotsizeEA","ratio_trial":900,"smaller_num":"18","larger_num":"20","correct_side":1,"subjID":"cristalrojas37","gender":"1","age":"11","school":"6"},{"start_time":1551893356249,"click_time":1551893357194,"finger_time":1551893356794,"fix_duration":893.8476375110038,"trial":16,"RT":545,"MT":400,"sideResp":1,"stimulus":"img/250/equaldotsize/L/1_Ratio_250_L_8_R_2.png","xmouse":[804,804,804,804,804,804,804,804,804,804,804,804,804,804,804,804,804,804,804,804,804,804,804,804,804,804,801,778,746,729,716,708,690,681,671,661,640,626,615,601,580,559,531,529,528,527,527,524],"ymouse":[588,588,588,588,588,588,588,588,588,588,588,588,588,588,588,588,588,588,588,588,588,588,588,588,588,588,582,554,485,425,369,327,256,231,209,191,164,151,145,137,126,115,102,100,100,100,100,99],"timestamp_mouse":[9,25,45,65,86,106,125,146,165,185,205,225,245,265,286,305,326,346,365,385,404,424,445,464,484,506,526,545,565,584,606,624,644,666,685,705,725,744,766,786,806,825,846,864,885,905,926,945],"xSR":741.5,"ySR":573.95,"xT1":424.9,"yT1":0,"xT2":1058.1,"yT2":0,"toosoon":0,"cond_shown":"equaldotsize","ratio_trial":250,"smaller_num":"2","larger_num":"8","correct_side":1,"subjID":"cristalrojas37","gender":"1","age":"11","school":"6"},{"start_time":1551893359247,"click_time":1551893360375,"finger_time":1551893360054,"fix_duration":1071.4778828181506,"trial":17,"RT":807,"MT":321,"sideResp":2,"stimulus":"img/500/randomdotsizeEA/R/1_Ratio_500_L_9_R_18.png","xmouse":[788,788,788,788,788,788,788,788,788,788,788,788,788,788,788,788,788,788,788,788,788,788,788,786,786,786,786,786,786,786,786,786,786,786,786,786,786,786,785,782,776,766,765,765,766,775,788,839,900,944,992,1042,1057,1069,1080,1091,1106],"ymouse":[617,617,617,617,617,617,617,617,617,617,617,617,617,617,617,617,617,617,617,617,617,617,613,610,609,608,608,608,608,608,608,608,608,608,608,608,608,608,602,592,573,536,520,505,489,474,454,396,324,276,236,193,175,157,133,111,75],"timestamp_mouse":[7,36,47,68,87,108,127,148,168,188,207,227,246,266,288,307,326,348,368,387,407,428,448,467,487,507,528,548,568,588,606,628,647,668,688,707,728,746,767,787,807,828,847,867,888,907,926,947,967,988,1008,1028,1047,1066,1087,1107,1128],"xSR":741.5,"ySR":573.95,"xT1":424.9,"yT1":0,"xT2":1058.1,"yT2":0,"toosoon":0,"cond_shown":"randomdotsizeEA","ratio_trial":500,"smaller_num":"9","larger_num":"18","correct_side":2,"subjID":"cristalrojas37","gender":"1","age":"11","school":"6"},{"start_time":1551893391963,"click_time":1551893393354,"finger_time":1551893392494,"fix_duration":1447.9676214829742,"trial":18,"RT":531,"MT":860,"sideResp":1,"stimulus":"img/750/equaldotsize/L/14_Ratio_750_L_8_R_6.png","xmouse":[796,796,796,796,796,796,796,796,796,796,796,796,796,800,802,804,805,805,805,805,805,805,805,801,795,775,762,745,712,661,505,425,347,322,304,270,257,248,240,234,228,230,230,232,243,260,305,320,328,331,332,332,332,332,333,340,359,375,396,406,407,407,408,415,418,419,420,421,424,430],"ymouse":[645,645,645,645,645,645,645,645,645,645,645,645,641,635,633,626,625,625,625,625,625,625,620,610,598,575,561,540,495,434,306,256,208,186,161,90,58,36,19,0,0,0,0,0,1,8,30,39,44,45,45,45,45,45,45,45,45,45,45,45,44,44,44,44,44,44,45,45,46,47],"timestamp_mouse":[12,38,52,71,92,111,131,152,171,191,212,232,251,272,291,313,332,351,371,391,411,432,451,472,491,511,531,551,571,591,611,632,651,672,691,711,731,751,771,791,812,831,851,871,891,911,931,951,972,991,1011,1031,1051,1071,1091,1111,1131,1151,1171,1191,1211,1231,1251,1272,1292,1311,1331,1351,1371,1391],"xSR":741.5,"ySR":573.95,"xT1":424.9,"yT1":0,"xT2":1058.1,"yT2":0,"toosoon":0,"cond_shown":"equaldotsize","ratio_trial":750,"smaller_num":"6","larger_num":"8","correct_side":1,"subjID":"cristalrojas37","gender":"1","age":"11","school":"6"},{"start_time":1551893479754,"click_time":1551893480796,"finger_time":1551893480295,"fix_duration":756.080443209494,"trial":19,"RT":541,"MT":501,"sideResp":1,"stimulus":"img/900/equaldotsize/L/4_Ratio_900_L_20_R_18.png","xmouse":[751,751,751,751,751,751,751,751,751,751,751,751,751,751,751,751,751,751,751,751,750,749,746,746,746,745,743,740,737,733,728,702,687,667,646,617,518,481,463,447,434,412,403,403,403,403,403,403,403,403,403,409,443],"ymouse":[629,629,629,629,629,629,629,629,629,629,629,629,629,629,629,629,629,629,629,629,629,629,629,629,629,628,624,620,614,602,582,514,477,433,394,346,219,185,170,158,148,122,107,102,102,102,102,102,102,101,100,93,67],"timestamp_mouse":[8,21,41,60,80,100,121,140,161,182,201,220,240,262,280,301,321,341,362,381,401,421,440,461,480,500,521,541,561,581,600,622,640,661,681,700,721,740,761,781,802,821,841,860,881,902,921,940,960,981,1001,1020,1042],"xSR":741.5,"ySR":573.95,"xT1":424.9,"yT1":0,"xT2":1058.1,"yT2":0,"toosoon":0,"cond_shown":"equaldotsize","ratio_trial":900,"smaller_num":"18","larger_num":"20","correct_side":1,"subjID":"cristalrojas37","gender":"1","age":"11","school":"6"},{"start_time":1551893484490,"click_time":1551893485575,"finger_time":1551893485234,"fix_duration":793.334348816573,"trial":20,"RT":744,"MT":341,"sideResp":1,"stimulus":"img/900/equaldotsize/L/10_Ratio_900_L_20_R_18.png","xmouse":[789,789,789,789,789,789,789,789,789,789,789,789,789,789,789,789,789,789,789,789,789,789,789,789,789,789,789,789,789,789,789,789,789,789,786,764,752,741,733,711,701,689,672,646,590,562,548,532,512,475,460,454,450,447,444],"ymouse":[637,637,637,637,637,637,637,637,637,637,637,637,637,637,637,637,637,637,637,637,637,637,637,637,637,637,637,637,637,637,637,637,637,637,633,603,586,566,547,493,460,429,397,361,292,259,244,229,215,186,168,149,129,110,86],"timestamp_mouse":[7,34,45,64,85,105,126,144,165,186,205,224,245,266,286,305,325,345,366,385,404,426,444,465,484,504,524,545,565,585,604,625,645,664,685,704,725,744,764,785,804,824,844,865,885,904,924,945,965,985,1004,1025,1046,1066,1085],"xSR":741.5,"ySR":573.95,"xT1":424.9,"yT1":0,"xT2":1058.1,"yT2":0,"toosoon":0,"cond_shown":"equaldotsize","ratio_trial":900,"smaller_num":"18","larger_num":"20","correct_side":1,"subjID":"cristalrojas37","gender":"1","age":"11","school":"6"},{"start_time":1551893487461,"click_time":1551893488535,"finger_time":1551893488194,"fix_duration":905.4856757155586,"trial":21,"RT":733,"MT":341,"sideResp":2,"stimulus":"img/250/equaldotsize/R/9_Ratio_250_L_3_R_12.png","xmouse":[791,791,791,791,791,791,791,791,791,791,791,791,791,791,791,791,791,791,791,791,791,791,791,791,791,791,791,791,791,791,791,791,791,792,794,812,869,908,926,942,976,982,983,983,983,983,983,983,983,987,1018,1039,1057,1073],"ymouse":[597,597,597,597,597,597,597,597,597,597,597,597,597,597,597,597,597,597,597,597,597,597,597,597,597,597,597,597,597,597,597,597,597,597,597,576,494,443,419,396,334,305,286,273,258,225,206,199,193,180,136,110,88,72],"timestamp_mouse":[28,34,54,74,95,114,133,154,173,195,214,233,255,273,295,315,333,355,375,394,413,434,455,474,493,515,533,553,574,593,613,634,653,673,694,713,733,753,775,795,814,833,854,874,894,913,933,953,974,994,1013,1033,1054,1074],"xSR":741.5,"ySR":573.95,"xT1":424.9,"yT1":0,"xT2":1058.1,"yT2":0,"toosoon":0,"cond_shown":"equaldotsize","ratio_trial":250,"smaller_num":"3","larger_num":"12","correct_side":2,"subjID":"cristalrojas37","gender":"1","age":"11","school":"6"},{"start_time":1551893490924,"click_time":1551893491875,"finger_time":1551893491495,"fix_duration":1467.6944848072058,"trial":22,"RT":571,"MT":380,"sideResp":1,"stimulus":"img/500/equaldotsize/L/11_Ratio_500_L_12_R_6.png","xmouse":[798,798,798,798,798,798,798,798,798,798,798,798,798,798,798,798,798,798,798,798,798,798,798,798,798,798,784,775,739,726,712,696,651,628,605,589,574,545,533,522,510,498,469,463,462,462,462,459],"ymouse":[632,632,632,632,632,632,632,632,632,632,632,632,632,632,632,632,632,632,632,632,632,632,632,632,632,632,613,599,549,532,512,489,419,391,354,333,314,279,261,245,225,201,139,116,111,111,108,98],"timestamp_mouse":[11,31,52,71,90,112,130,151,171,190,210,231,250,270,290,310,332,351,371,391,410,430,452,472,490,510,531,550,571,591,611,631,651,672,690,711,730,751,771,791,812,830,851,870,890,911,932,951],"xSR":741.5,"ySR":573.95,"xT1":424.9,"yT1":0,"xT2":1058.1,"yT2":0,"toosoon":0,"cond_shown":"equaldotsize","ratio_trial":500,"smaller_num":"6","larger_num":"12","correct_side":1,"subjID":"cristalrojas37","gender":"1","age":"11","school":"6"},{"start_time":1551893493414,"click_time":1551893494055,"finger_time":1551893493874,"fix_duration":658.755552439757,"trial":23,"RT":460,"MT":181,"sideResp":2,"stimulus":"img/750/equaldotanddens/R/15_Ratio_750_L_9_R_12.png","xmouse":[763,763,763,763,763,763,763,763,763,763,763,763,763,763,763,765,769,784,804,809,813,816,824,835,865,884,914,943,1000,1026,1054,1065,1074],"ymouse":[626,626,626,626,626,626,626,626,626,626,626,626,626,626,626,626,622,612,598,595,592,588,582,572,533,501,448,385,249,182,120,103,91],"timestamp_mouse":[7,21,41,60,82,101,122,140,160,182,200,220,242,261,280,301,321,342,361,380,401,422,441,460,481,500,521,541,560,580,600,621,641],"xSR":741.5,"ySR":573.95,"xT1":424.9,"yT1":0,"xT2":1058.1,"yT2":0,"toosoon":0,"cond_shown":"equaldotanddens","ratio_trial":750,"smaller_num":"9","larger_num":"12","correct_side":2,"subjID":"cristalrojas37","gender":"1","age":"11","school":"6"},{"start_time":1551893495914,"click_time":1551893496995,"finger_time":1551893496474,"fix_duration":817.1648392957547,"trial":24,"RT":560,"MT":521,"sideResp":1,"stimulus":"img/900/equaldotanddens/R/13_Ratio_900_L_18_R_20.png","xmouse":[791,791,791,791,791,791,791,791,791,791,791,791,791,791,791,791,791,791,791,791,791,791,791,790,787,784,778,772,753,739,724,705,693,673,667,658,649,636,615,610,606,602,596,587,585,582,579,573,563,557,550,544,537,527,524],"ymouse":[607,607,607,607,607,607,607,607,607,607,607,607,607,607,607,607,607,607,607,607,607,607,607,607,605,599,588,577,548,523,497,465,443,399,385,370,359,343,309,294,279,264,247,211,194,169,150,132,109,98,90,82,74,66,64],"timestamp_mouse":[8,28,41,60,80,101,122,141,161,180,200,221,240,262,282,301,321,340,361,380,402,420,441,461,480,501,521,541,560,580,600,620,641,661,681,701,722,742,760,780,801,822,841,861,882,900,921,940,960,981,1002,1022,1041,1060,1081],"xSR":741.5,"ySR":573.95,"xT1":424.9,"yT1":0,"xT2":1058.1,"yT2":0,"toosoon":0,"cond_shown":"equaldotanddens","ratio_trial":900,"smaller_num":"18","larger_num":"20","correct_side":2,"subjID":"cristalrojas37","gender":"1","age":"11","school":"6"},{"start_time":1551893498360,"click_time":1551893498895,"finger_time":1551893498715,"fix_duration":444.0101428383113,"trial":25,"RT":355,"MT":180,"sideResp":2,"stimulus":"img/500/randomdotsizeEA/L/13_Ratio_500_L_12_R_6.png","xmouse":[800,800,800,800,800,800,800,800,800,800,800,800,800,800,800,801,809,825,837,850,877,909,936,969,1002,1058,1082],"ymouse":[610,610,610,610,610,610,610,610,610,610,610,610,610,610,610,610,590,564,544,525,478,420,373,312,244,114,60],"timestamp_mouse":[27,35,54,76,95,114,134,154,175,195,215,235,255,274,296,315,335,355,375,395,414,434,455,475,495,514,535],"xSR":741.5,"ySR":573.95,"xT1":424.9,"yT1":0,"xT2":1058.1,"yT2":0,"toosoon":0,"cond_shown":"randomdotsizeEA","ratio_trial":500,"smaller_num":"6","larger_num":"12","correct_side":1,"subjID":"cristalrojas37","gender":"1","age":"11","school":"6"},{"start_time":1551893502344,"click_time":1551893503475,"finger_time":1551893503075,"fix_duration":1146.2098258375795,"trial":26,"RT":731,"MT":400,"sideResp":1,"stimulus":"img/900/equaldotsize/R/5_Ratio_900_L_9_R_10.png","xmouse":[788,788,788,788,788,788,788,788,788,788,788,788,788,788,788,788,788,788,788,788,788,788,788,788,788,788,788,788,788,788,788,788,788,788,788,788,770,747,724,703,687,660,635,618,602,589,571,566,562,554,544,515,510,507,503,499,481],"ymouse":[590,590,590,590,590,590,590,590,590,590,590,590,590,590,590,590,590,590,590,590,590,590,590,590,590,590,590,590,590,590,590,590,590,590,590,589,563,532,498,470,447,408,372,347,326,307,275,259,244,226,202,143,130,121,113,103,76],"timestamp_mouse":[11,32,52,71,91,112,130,150,172,192,211,231,251,271,292,311,330,350,371,390,412,431,450,471,490,511,531,550,571,590,611,630,650,670,692,711,731,751,770,791,811,831,850,871,890,910,931,950,971,992,1010,1032,1050,1071,1091,1111,1131],"xSR":741.5,"ySR":573.95,"xT1":424.9,"yT1":0,"xT2":1058.1,"yT2":0,"toosoon":0,"cond_shown":"equaldotsize","ratio_trial":900,"smaller_num":"9","larger_num":"10","correct_side":2,"subjID":"cristalrojas37","gender":"1","age":"11","school":"6"},{"start_time":1551893507747,"click_time":1551893508514,"finger_time":1551893508034,"fix_duration":250,"trial":27,"RT":287,"MT":480,"sideResp":2,"stimulus":"img/250/equaldotanddens/R/8_Ratio_250_L_1_R_4.png","xmouse":[833,833,833,833,833,833,833,833,833,833,833,833,833,833,837,843,872,886,903,918,929,956,974,983,989,991,991,991,991,991,991,991,991,991,995,1005,1042,1054,1063],"ymouse":[616,616,616,616,616,616,616,616,616,616,616,616,596,575,545,514,430,395,350,303,260,172,129,108,91,80,75,75,75,75,75,75,75,75,74,74,67,64,61],"timestamp_mouse":[7,32,47,67,89,108,127,149,168,187,208,228,248,267,287,308,328,348,367,388,409,428,447,468,487,508,528,547,568,587,607,627,649,667,688,708,728,748,767],"xSR":741.5,"ySR":573.95,"xT1":424.9,"yT1":0,"xT2":1058.1,"yT2":0,"toosoon":0,"cond_shown":"equaldotanddens","ratio_trial":250,"smaller_num":"1","larger_num":"4","correct_side":2,"subjID":"cristalrojas37","gender":"1","age":"11","school":"6"},{"start_time":1551893509566,"click_time":1551893509975,"finger_time":1551893509794,"fix_duration":269.6220769109463,"trial":28,"RT":228,"MT":181,"sideResp":2,"stimulus":"img/250/randomdotsizeEA/R/9_Ratio_250_L_3_R_12.png","xmouse":[810,810,810,810,810,810,810,810,810,815,820,856,892,909,926,964,979,997,1015,1034,1064],"ymouse":[647,647,647,647,647,647,647,647,647,638,631,564,491,447,382,249,204,161,125,89,42],"timestamp_mouse":[8,31,49,69,88,108,130,150,168,190,208,228,249,268,289,309,329,348,370,389,409],"xSR":741.5,"ySR":573.95,"xT1":424.9,"yT1":0,"xT2":1058.1,"yT2":0,"toosoon":0,"cond_shown":"randomdotsizeEA","ratio_trial":250,"smaller_num":"3","larger_num":"12","correct_side":2,"subjID":"cristalrojas37","gender":"1","age":"11","school":"6"},{"start_time":1551893514086,"click_time":1551893514915,"finger_time":1551893514494,"fix_duration":1368.5434387183652,"trial":29,"RT":408,"MT":421,"sideResp":1,"stimulus":"img/500/equaldotsize/L/7_Ratio_500_L_10_R_5.png","xmouse":[784,784,784,784,784,784,784,784,784,784,784,784,784,784,784,784,784,784,784,784,780,769,749,729,704,639,607,588,572,549,540,531,520,512,510,510,510,510,509,499,493,487],"ymouse":[614,614,614,614,614,614,614,614,614,614,614,614,614,614,614,614,614,614,614,578,546,512,478,443,401,310,263,239,219,190,181,167,152,142,140,140,140,140,137,120,109,96],"timestamp_mouse":[8,35,49,68,89,109,128,148,169,189,208,230,249,269,290,310,328,348,369,389,408,428,449,470,489,508,529,550,569,589,608,629,650,668,689,709,729,748,769,789,809,829],"xSR":741.5,"ySR":573.95,"xT1":424.9,"yT1":0,"xT2":1058.1,"yT2":0,"toosoon":0,"cond_shown":"equaldotsize","ratio_trial":500,"smaller_num":"5","larger_num":"10","correct_side":1,"subjID":"cristalrojas37","gender":"1","age":"11","school":"6"},{"start_time":1551893517195,"click_time":1551893518215,"finger_time":1551893517835,"fix_duration":1400.4395090662476,"trial":30,"RT":640,"MT":380,"sideResp":2,"stimulus":"img/500/equaldotanddens/R/12_Ratio_500_L_1_R_2.png","xmouse":[781,781,781,781,781,781,781,781,781,781,781,781,781,781,781,781,781,781,781,781,781,781,781,781,781,781,781,781,781,782,793,809,832,891,913,928,939,946,961,973,979,987,998,1024,1034,1039,1042,1046,1060,1068,1071],"ymouse":[608,608,608,608,608,608,608,608,608,608,608,608,608,608,608,608,608,608,608,608,608,608,608,608,608,608,608,608,608,608,590,561,524,449,423,400,381,364,332,308,291,273,254,218,202,191,180,168,139,113,94],"timestamp_mouse":[28,39,61,80,100,119,140,161,180,200,220,240,261,281,301,320,339,361,379,399,420,441,459,480,500,519,541,559,581,599,620,640,661,679,700,720,741,760,780,800,820,839,860,880,900,920,940,959,979,999,1019],"xSR":741.5,"ySR":573.95,"xT1":424.9,"yT1":0,"xT2":1058.1,"yT2":0,"toosoon":0,"cond_shown":"equaldotanddens","ratio_trial":500,"smaller_num":"1","larger_num":"2","correct_side":2,"subjID":"cristalrojas37","gender":"1","age":"11","school":"6"},{"start_time":1551893521185,"click_time":1551893522155,"finger_time":1551893521755,"fix_duration":589.8631245287721,"trial":31,"RT":570,"MT":400,"sideResp":2,"stimulus":"img/500/equaldotanddens/R/3_Ratio_500_L_10_R_20.png","xmouse":[780,780,780,780,780,780,780,780,780,780,780,780,780,780,780,780,780,780,780,780,780,780,780,780,779,782,792,805,824,883,920,931,933,934,952,963,970,977,987,1009,1021,1021,1023,1024,1031,1068,1090,1110,1124],"ymouse":[639,639,639,639,639,639,639,639,639,639,639,639,639,639,639,639,639,639,639,639,639,639,639,639,637,624,607,586,553,440,353,308,276,252,217,205,194,185,172,154,149,148,148,147,145,133,121,107,95],"timestamp_mouse":[9,37,59,70,89,109,129,151,170,190,210,230,250,269,291,310,330,351,371,391,410,429,449,471,491,510,530,549,570,590,609,630,649,669,690,709,730,751,770,790,810,830,851,870,890,910,930,950,970],"xSR":741.5,"ySR":573.95,"xT1":424.9,"yT1":0,"xT2":1058.1,"yT2":0,"toosoon":0,"cond_shown":"equaldotanddens","ratio_trial":500,"smaller_num":"10","larger_num":"20","correct_side":2,"subjID":"cristalrojas37","gender":"1","age":"11","school":"6"},{"start_time":1551893523293,"click_time":1551893524275,"finger_time":1551893523655,"fix_duration":297.1035451372873,"trial":32,"RT":362,"MT":620,"sideResp":2,"stimulus":"img/250/equaldotanddens/R/8_Ratio_250_L_1_R_4.png","xmouse":[758,758,758,758,758,758,758,758,758,758,758,758,758,758,758,761,776,799,835,920,954,996,1034,1064,1099,1120,1126,1130,1130,1128,1126,1125,1124,1122,1118,1112,1106,1102,1099,1094,1092,1091,1091,1091,1091,1091,1091,1091,1091,1091],"ymouse":[623,623,623,623,623,623,623,623,623,623,623,623,623,623,623,618,601,578,552,504,479,448,412,369,306,268,254,244,239,233,228,224,220,216,209,194,180,167,157,136,126,119,113,108,105,104,104,102,101,91],"timestamp_mouse":[8,27,41,62,81,101,123,141,163,181,201,222,242,261,283,302,322,342,362,381,401,422,441,462,482,502,521,541,562,581,601,621,642,662,682,701,721,741,761,782,801,822,842,861,882,901,922,943,961,982],"xSR":741.5,"ySR":573.95,"xT1":424.9,"yT1":0,"xT2":1058.1,"yT2":0,"toosoon":0,"cond_shown":"equaldotanddens","ratio_trial":250,"smaller_num":"1","larger_num":"4","correct_side":2,"subjID":"cristalrojas37","gender":"1","age":"11","school":"6"},{"start_time":1551893530252,"click_time":1551893531014,"finger_time":1551893530595,"fix_duration":1457.7304273898178,"trial":33,"RT":343,"MT":419,"sideResp":2,"stimulus":"img/900/equaldotsize/L/1_Ratio_900_L_10_R_9.png","xmouse":[780,780,780,780,780,780,780,780,780,780,780,780,780,780,780,783,789,826,837,849,858,885,899,918,939,956,976,982,986,990,997,1011,1015,1022,1028,1040,1070,1081,1092],"ymouse":[613,613,613,613,613,613,613,613,613,613,613,613,613,613,613,605,593,538,523,509,498,461,436,401,367,335,289,270,256,243,227,204,198,190,180,164,127,107,83],"timestamp_mouse":[9,35,43,63,82,102,124,142,163,183,204,223,242,263,282,302,322,343,363,383,404,423,442,462,483,504,523,542,563,583,604,623,642,663,683,703,723,742,762],"xSR":741.5,"ySR":573.95,"xT1":424.9,"yT1":0,"xT2":1058.1,"yT2":0,"toosoon":0,"cond_shown":"equaldotsize","ratio_trial":900,"smaller_num":"9","larger_num":"10","correct_side":1,"subjID":"cristalrojas37","gender":"1","age":"11","school":"6"},{"start_time":1551893532250,"click_time":1551893533094,"finger_time":1551893532555,"fix_duration":474.8705600967178,"trial":34,"RT":305,"MT":539,"sideResp":2,"stimulus":"img/500/equaldotsize/R/3_Ratio_500_L_10_R_20.png","xmouse":[790,790,790,790,790,790,790,790,790,790,790,790,790,795,805,818,828,828,824,820,814,798,792,791,791,791,830,886,920,942,957,989,1002,1015,1021,1026,1036,1046,1050,1053,1053,1065,1074],"ymouse":[625,625,625,625,625,625,625,625,625,625,625,625,625,618,595,570,539,533,528,524,519,503,497,492,484,472,405,332,294,266,244,209,198,187,180,175,162,148,137,132,129,110,95],"timestamp_mouse":[5,31,44,64,84,105,124,145,166,184,206,225,245,266,285,305,325,344,364,385,405,425,444,465,486,506,525,545,564,585,604,625,644,665,685,704,724,745,764,786,805,824,844],"xSR":741.5,"ySR":573.95,"xT1":424.9,"yT1":0,"xT2":1058.1,"yT2":0,"toosoon":0,"cond_shown":"equaldotsize","ratio_trial":500,"smaller_num":"10","larger_num":"20","correct_side":2,"subjID":"cristalrojas37","gender":"1","age":"11","school":"6"},{"start_time":1551893534266,"click_time":1551893535094,"finger_time":1551893534575,"fix_duration":250,"trial":35,"RT":309,"MT":519,"sideResp":2,"stimulus":"img/900/equaldotanddens/L/8_Ratio_900_L_20_R_18.png","xmouse":[795,795,795,795,795,795,795,795,795,795,795,795,795,795,796,798,814,837,856,869,904,915,923,929,936,945,962,970,978,989,1011,1014,1015,1015,1015,1015,1015,1016,1021,1028,1050,1063],"ymouse":[579,579,579,579,579,579,579,579,579,579,579,579,579,579,578,573,530,491,457,431,353,322,295,275,254,236,209,196,186,172,144,139,138,138,138,138,138,137,127,115,84,71],"timestamp_mouse":[10,38,48,69,89,108,128,149,169,188,210,230,248,269,290,309,329,349,370,390,409,428,448,470,489,509,529,549,568,590,609,629,648,669,689,709,729,748,769,790,808,828],"xSR":741.5,"ySR":573.95,"xT1":424.9,"yT1":0,"xT2":1058.1,"yT2":0,"toosoon":0,"cond_shown":"equaldotanddens","ratio_trial":900,"smaller_num":"18","larger_num":"20","correct_side":1,"subjID":"cristalrojas37","gender":"1","age":"11","school":"6"},{"start_time":1551893536599,"click_time":1551893537575,"finger_time":1551893536935,"fix_duration":583.6338537717769,"trial":36,"RT":336,"MT":640,"sideResp":1,"stimulus":"img/500/equaldotanddens/L/8_Ratio_500_L_8_R_4.png","xmouse":[785,785,785,785,785,785,785,785,785,785,785,785,785,785,785,782,766,745,722,696,681,669,658,633,618,607,600,595,590,573,555,544,535,533,533,533,533,533,533,533,533,533,533,533,533,533,533,533,494],"ymouse":[637,637,637,637,637,637,637,637,637,637,637,637,637,637,620,580,528,475,433,393,363,330,292,214,176,156,140,127,115,85,64,54,47,46,46,46,46,46,46,46,46,46,46,46,46,46,46,46,46],"timestamp_mouse":[17,38,55,76,97,116,136,156,176,197,216,235,257,275,296,316,336,356,376,396,415,435,457,476,496,515,536,557,576,595,615,636,656,676,697,717,737,756,776,796,817,836,856,877,896,916,935,956,976],"xSR":741.5,"ySR":573.95,"xT1":424.9,"yT1":0,"xT2":1058.1,"yT2":0,"toosoon":0,"cond_shown":"equaldotanddens","ratio_trial":500,"smaller_num":"4","larger_num":"8","correct_side":1,"subjID":"cristalrojas37","gender":"1","age":"11","school":"6"},{"start_time":1551893538987,"click_time":1551893539696,"finger_time":1551893539194,"fix_duration":250,"trial":37,"RT":207,"MT":502,"sideResp":2,"stimulus":"img/900/equaldotsize/L/1_Ratio_900_L_10_R_9.png","xmouse":[807,807,807,807,807,807,807,807,808,817,826,844,854,864,873,901,915,926,935,952,957,960,961,962,966,970,976,985,997,1017,1025,1033,1035,1035,1048,1069],"ymouse":[617,617,617,617,617,617,617,618,613,587,562,521,490,456,424,323,275,239,214,171,159,151,146,141,131,126,118,109,95,74,69,65,63,63,55,45],"timestamp_mouse":[18,35,47,68,88,108,128,148,169,188,207,227,249,269,288,308,328,347,368,388,409,427,448,468,488,508,528,548,567,587,608,628,648,668,688,708],"xSR":741.5,"ySR":573.95,"xT1":424.9,"yT1":0,"xT2":1058.1,"yT2":0,"toosoon":0,"cond_shown":"equaldotsize","ratio_trial":900,"smaller_num":"9","larger_num":"10","correct_side":1,"subjID":"cristalrojas37","gender":"1","age":"11","school":"6"},{"start_time":1551893544059,"click_time":1551893545056,"finger_time":1551893544415,"fix_duration":703.1977298642095,"trial":38,"RT":356,"MT":641,"sideResp":2,"stimulus":"img/750/equaldotanddens/R/12_Ratio_750_L_3_R_4.png","xmouse":[764,764,764,764,764,764,764,763,760,758,756,756,756,756,756,756,754,753,753,753,753,758,764,772,787,914,1018,1158,1196,1200,1195,1190,1186,1182,1180,1178,1177,1176,1174,1174,1173,1173,1173,1173,1173,1173,1173,1172,1165,1155],"ymouse":[611,611,611,611,611,611,611,608,598,588,580,580,580,580,580,580,577,568,551,533,505,491,480,469,456,381,324,237,200,178,156,151,147,142,136,113,100,92,79,74,70,70,70,70,70,70,70,70,70,72],"timestamp_mouse":[16,37,57,76,95,117,137,156,176,196,216,237,257,276,296,317,337,356,376,395,416,436,456,476,497,516,537,556,576,597,616,636,656,676,696,716,737,755,775,796,816,837,856,876,897,917,936,956,977,997],"xSR":741.5,"ySR":573.95,"xT1":424.9,"yT1":0,"xT2":1058.1,"yT2":0,"toosoon":0,"cond_shown":"equaldotanddens","ratio_trial":750,"smaller_num":"3","larger_num":"4","correct_side":2,"subjID":"cristalrojas37","gender":"1","age":"11","school":"6"},{"start_time":1551893546233,"click_time":1551893547075,"finger_time":1551893546635,"fix_duration":257.02548774335554,"trial":39,"RT":402,"MT":440,"sideResp":1,"stimulus":"img/750/equaldotanddens/L/14_Ratio_750_L_8_R_6.png","xmouse":[818,818,818,818,818,818,818,818,818,818,818,818,818,818,818,818,818,818,822,834,848,865,877,874,864,846,811,683,588,565,517,492,477,474,473,470,467,461,461,460,460,462,474],"ymouse":[651,651,651,651,651,651,651,651,651,651,651,651,651,651,651,651,651,651,637,616,596,572,523,510,498,483,465,390,316,294,233,195,155,148,143,139,134,123,120,117,115,110,96],"timestamp_mouse":[9,21,41,62,83,102,123,141,162,183,201,223,242,262,282,301,322,342,363,382,402,422,442,463,482,502,522,541,562,581,603,623,642,662,683,702,723,742,763,782,802,822,842],"xSR":741.5,"ySR":573.95,"xT1":424.9,"yT1":0,"xT2":1058.1,"yT2":0,"toosoon":0,"cond_shown":"equaldotanddens","ratio_trial":750,"smaller_num":"6","larger_num":"8","correct_side":1,"subjID":"cristalrojas37","gender":"1","age":"11","school":"6"},{"start_time":1551893549374,"click_time":1551893549837,"finger_time":1551893549675,"fix_duration":1457.2618012884316,"trial":40,"RT":301,"MT":162,"sideResp":2,"stimulus":"img/500/equaldotanddens/R/6_Ratio_500_L_9_R_18.png","xmouse":[797,797,797,797,797,797,797,797,797,797,797,797,797,797,797,816,825,835,846,873,1000,1066,1108,1140],"ymouse":[610,611,612,612,612,612,612,612,612,612,612,612,612,612,603,554,530,508,489,451,288,213,146,67],"timestamp_mouse":[8,21,45,61,81,101,121,141,161,181,201,221,241,261,282,301,321,341,362,382,401,422,441,462],"xSR":741.5,"ySR":573.95,"xT1":424.9,"yT1":0,"xT2":1058.1,"yT2":0,"toosoon":0,"cond_shown":"equaldotanddens","ratio_trial":500,"smaller_num":"9","larger_num":"18","correct_side":2,"subjID":"cristalrojas37","gender":"1","age":"11","school":"6"},{"start_time":1551893552367,"click_time":1551893552996,"finger_time":1551893552875,"fix_duration":250,"trial":41,"RT":508,"MT":121,"sideResp":2,"stimulus":"img/500/equaldotsize/R/3_Ratio_500_L_10_R_20.png","xmouse":[804,804,804,804,804,804,804,804,804,804,804,804,804,804,804,804,804,804,804,804,804,804,804,803,810,846,879,920,968,1011,1051,1059],"ymouse":[610,610,610,610,610,610,610,610,610,610,610,610,610,610,610,610,610,610,610,610,610,610,610,603,584,475,402,325,230,151,61,40],"timestamp_mouse":[8,28,48,69,88,108,129,148,169,188,209,227,248,268,288,309,328,348,368,388,409,429,448,469,488,508,528,548,568,587,609,629],"xSR":741.5,"ySR":573.95,"xT1":424.9,"yT1":0,"xT2":1058.1,"yT2":0,"toosoon":0,"cond_shown":"equaldotsize","ratio_trial":500,"smaller_num":"10","larger_num":"20","correct_side":2,"subjID":"cristalrojas37","gender":"1","age":"11","school":"6"},{"start_time":1551893555728,"click_time":1551893556275,"finger_time":1551893556136,"fix_duration":530.6482761932862,"trial":42,"RT":408,"MT":139,"sideResp":2,"stimulus":"img/750/equaldotsize/R/11_Ratio_750_L_12_R_16.png","xmouse":[790,790,790,790,790,790,790,790,790,790,790,790,790,790,790,790,790,790,796,805,818,831,881,944,995,1052,1098,1131],"ymouse":[637,637,637,637,637,637,637,637,637,637,637,637,637,637,637,637,637,627,610,593,572,549,463,352,266,189,121,73],"timestamp_mouse":[8,31,48,68,87,108,127,147,168,187,208,228,246,267,288,308,327,348,367,388,408,427,448,467,487,507,527,547],"xSR":741.5,"ySR":573.95,"xT1":424.9,"yT1":0,"xT2":1058.1,"yT2":0,"toosoon":0,"cond_shown":"equaldotsize","ratio_trial":750,"smaller_num":"12","larger_num":"16","correct_side":2,"subjID":"cristalrojas37","gender":"1","age":"11","school":"6"},{"start_time":1551893557388,"click_time":1551893558055,"finger_time":1551893557595,"fix_duration":250,"trial":43,"RT":207,"MT":460,"sideResp":2,"stimulus":"img/500/randomdotsizeEA/L/4_Ratio_500_L_18_R_9.png","xmouse":[833,833,833,833,833,833,833,833,833,833,836,841,850,865,919,956,987,1004,1014,1024,1027,1027,1028,1028,1030,1031,1033,1036,1041,1055,1060,1063,1066,1069],"ymouse":[587,587,587,587,587,587,587,587,587,583,571,559,542,519,455,412,368,339,315,276,263,257,250,244,226,215,201,187,169,135,122,113,104,98],"timestamp_mouse":[7,35,48,68,87,107,127,148,167,187,207,227,247,267,288,307,327,346,367,387,407,427,446,467,487,507,528,548,567,587,606,627,647,667],"xSR":741.5,"ySR":573.95,"xT1":424.9,"yT1":0,"xT2":1058.1,"yT2":0,"toosoon":0,"cond_shown":"randomdotsizeEA","ratio_trial":500,"smaller_num":"9","larger_num":"18","correct_side":1,"subjID":"cristalrojas37","gender":"1","age":"11","school":"6"},{"start_time":1551893559674,"click_time":1551893559996,"finger_time":1551893559875,"fix_duration":877.6906402033652,"trial":44,"RT":201,"MT":121,"sideResp":2,"stimulus":"img/250/equaldotanddens/L/5_Ratio_250_L_24_R_6.png","xmouse":[791,791,791,791,791,791,791,791,791,792,830,856,885,916,959,1067,1133],"ymouse":[581,581,581,581,581,581,581,581,583,581,541,511,470,419,344,185,80],"timestamp_mouse":[5,32,41,61,80,102,121,141,161,181,201,221,241,262,281,302,322],"xSR":741.5,"ySR":573.95,"xT1":424.9,"yT1":0,"xT2":1058.1,"yT2":0,"toosoon":0,"cond_shown":"equaldotanddens","ratio_trial":250,"smaller_num":"6","larger_num":"24","correct_side":1,"subjID":"cristalrojas37","gender":"1","age":"11","school":"6"},{"start_time":1551893562174,"click_time":1551893562736,"finger_time":1551893562495,"fix_duration":997.5502129554253,"trial":45,"RT":321,"MT":241,"sideResp":1,"stimulus":"img/750/randomdotsizeEA/L/13_Ratio_750_L_8_R_6.png","xmouse":[797,797,797,797,797,797,797,797,797,797,797,797,797,797,797,795,790,785,777,768,738,715,680,635,593,529,511,499,491],"ymouse":[593,593,593,593,593,593,593,593,593,593,593,593,593,593,593,591,567,549,529,508,451,414,362,299,241,151,125,106,89],"timestamp_mouse":[8,22,40,62,82,102,122,141,161,182,201,222,241,261,281,301,321,341,361,381,402,420,441,461,480,501,520,541,562],"xSR":741.5,"ySR":573.95,"xT1":424.9,"yT1":0,"xT2":1058.1,"yT2":0,"toosoon":0,"cond_shown":"randomdotsizeEA","ratio_trial":750,"smaller_num":"6","larger_num":"8","correct_side":1,"subjID":"cristalrojas37","gender":"1","age":"11","school":"6"},{"start_time":1551893567584,"click_time":1551893568075,"finger_time":1551893567916,"fix_duration":1147.5582025885346,"trial":46,"RT":332,"MT":159,"sideResp":2,"stimulus":"img/900/equaldotsize/L/4_Ratio_900_L_20_R_18.png","xmouse":[811,811,810,810,809,809,809,809,808,808,808,808,808,808,812,819,830,850,880,953,1000,1026,1050,1071,1091],"ymouse":[645,645,642,640,638,632,629,626,625,624,624,624,623,621,605,590,571,537,486,353,261,212,167,132,98],"timestamp_mouse":[27,32,51,72,91,111,130,151,171,192,211,231,251,272,291,310,332,351,371,391,411,431,451,472,491],"xSR":741.5,"ySR":573.95,"xT1":424.9,"yT1":0,"xT2":1058.1,"yT2":0,"toosoon":0,"cond_shown":"equaldotsize","ratio_trial":900,"smaller_num":"18","larger_num":"20","correct_side":1,"subjID":"cristalrojas37","gender":"1","age":"11","school":"6"},{"start_time":1551893569206,"click_time":1551893569875,"finger_time":1551893569495,"fix_duration":250,"trial":47,"RT":289,"MT":380,"sideResp":1,"stimulus":"img/750/equaldotanddens/L/9_Ratio_750_L_4_R_3.png","xmouse":[789,789,789,789,789,789,789,789,789,789,789,789,789,788,777,764,750,737,711,696,666,645,624,595,581,568,557,547,525,510,491,486,484,482],"ymouse":[586,586,586,586,586,586,586,586,586,586,586,586,586,586,573,551,525,497,449,430,388,358,330,285,267,247,227,210,172,146,119,111,107,98],"timestamp_mouse":[11,33,50,69,88,110,130,149,169,188,209,229,248,270,289,308,329,349,369,389,409,430,449,469,488,509,530,549,569,590,609,629,649,669],"xSR":741.5,"ySR":573.95,"xT1":424.9,"yT1":0,"xT2":1058.1,"yT2":0,"toosoon":0,"cond_shown":"equaldotanddens","ratio_trial":750,"smaller_num":"3","larger_num":"4","correct_side":1,"subjID":"cristalrojas37","gender":"1","age":"11","school":"6"},{"start_time":1551893572091,"click_time":1551893572875,"finger_time":1551893572375,"fix_duration":1194.0148774001548,"trial":48,"RT":284,"MT":500,"sideResp":2,"stimulus":"img/500/equaldotsize/R/1_Ratio_500_L_9_R_18.png","xmouse":[776,776,776,776,776,776,776,776,776,776,776,776,776,785,805,832,861,895,935,1013,1035,1053,1068,1080,1096,1102,1107,1110,1113,1126,1128,1128,1128,1128,1128,1128,1128,1128,1128,1124],"ymouse":[591,591,591,591,591,591,591,591,591,591,591,591,591,586,571,549,524,487,439,325,292,267,245,226,192,177,168,162,154,120,114,112,112,112,112,112,111,111,111,96],"timestamp_mouse":[8,24,46,65,85,104,123,144,164,184,205,224,244,265,284,304,324,344,364,384,404,424,445,464,483,504,524,544,565,584,604,624,645,665,684,705,725,744,764,784],"xSR":741.5,"ySR":573.95,"xT1":424.9,"yT1":0,"xT2":1058.1,"yT2":0,"toosoon":0,"cond_shown":"equaldotsize","ratio_trial":500,"smaller_num":"9","larger_num":"18","correct_side":2,"subjID":"cristalrojas37","gender":"1","age":"11","school":"6"},{"start_time":1551893579348,"click_time":1551893580074,"finger_time":1551893579674,"fix_duration":1072.2698429555587,"trial":49,"RT":326,"MT":400,"sideResp":1,"stimulus":"img/900/equaldotanddens/L/4_Ratio_900_L_20_R_18.png","xmouse":[793,793,793,793,793,793,793,793,793,793,793,793,793,792,784,766,701,660,615,560,513,440,414,369,353,348,340,340,340,340,340,341,357,373,395,415,449],"ymouse":[639,639,639,639,639,639,639,639,639,639,639,639,639,639,616,576,471,416,353,291,237,135,90,33,12,5,0,0,0,0,0,0,6,14,26,37,53],"timestamp_mouse":[8,27,47,68,87,107,127,147,167,188,208,226,247,267,287,307,326,347,367,387,408,427,447,467,487,507,528,547,567,587,607,627,647,667,688,706,726],"xSR":741.5,"ySR":573.95,"xT1":424.9,"yT1":0,"xT2":1058.1,"yT2":0,"toosoon":0,"cond_shown":"equaldotanddens","ratio_trial":900,"smaller_num":"18","larger_num":"20","correct_side":1,"subjID":"cristalrojas37","gender":"1","age":"11","school":"6"},{"start_time":1551893585465,"click_time":1551893586316,"finger_time":1551893585995,"fix_duration":1009.6848485321633,"trial":50,"RT":530,"MT":321,"sideResp":2,"stimulus":"img/750/equaldotanddens/R/15_Ratio_750_L_9_R_12.png","xmouse":[793,793,793,793,793,793,793,793,793,793,793,793,793,793,793,793,793,793,793,793,793,793,793,800,806,822,899,949,997,1045,1077,1109,1115,1116,1117,1117,1118,1118,1118,1118,1118,1116,1115],"ymouse":[629,629,629,629,629,629,629,629,629,629,629,629,629,629,629,629,629,629,629,629,629,629,629,620,610,587,468,399,329,263,210,160,150,146,144,141,135,129,125,123,119,103,95],"timestamp_mouse":[10,30,50,70,91,110,130,151,171,190,210,230,251,270,290,310,331,350,370,391,410,430,451,470,491,510,530,550,570,591,611,630,651,670,691,710,731,750,771,790,810,830,851],"xSR":741.5,"ySR":573.95,"xT1":424.9,"yT1":0,"xT2":1058.1,"yT2":0,"toosoon":0,"cond_shown":"equaldotanddens","ratio_trial":750,"smaller_num":"9","larger_num":"12","correct_side":2,"subjID":"cristalrojas37","gender":"1","age":"11","school":"6"},{"start_time":1551893588129,"click_time":1551893588955,"finger_time":1551893588435,"fix_duration":672.8298370318081,"trial":51,"RT":306,"MT":520,"sideResp":2,"stimulus":"img/500/randomdotsizeEA/R/15_Ratio_500_L_1_R_2.png","xmouse":[825,825,825,825,825,825,825,825,825,825,825,825,830,834,837,842,847,864,878,893,920,947,993,1015,1024,1030,1031,1033,1035,1037,1039,1040,1040,1040,1040,1040,1042,1046,1049,1053,1056,1062],"ymouse":[628,628,628,628,628,628,628,628,628,628,628,627,612,605,598,588,576,537,505,474,429,381,299,257,238,224,214,194,182,168,154,142,130,129,129,126,122,107,98,91,83,70],"timestamp_mouse":[7,37,46,66,87,106,126,146,166,186,206,226,247,266,286,306,326,346,366,386,406,427,445,466,486,506,526,546,566,586,606,626,646,667,686,706,727,746,766,786,807,826],"xSR":741.5,"ySR":573.95,"xT1":424.9,"yT1":0,"xT2":1058.1,"yT2":0,"toosoon":0,"cond_shown":"randomdotsizeEA","ratio_trial":500,"smaller_num":"1","larger_num":"2","correct_side":2,"subjID":"cristalrojas37","gender":"1","age":"11","school":"6"},{"start_time":1551893590022,"click_time":1551893590894,"finger_time":1551893590535,"fix_duration":445.5751012248392,"trial":52,"RT":513,"MT":359,"sideResp":1,"stimulus":"img/500/randomdotsizeEA/L/13_Ratio_500_L_12_R_6.png","xmouse":[778,778,778,778,778,778,778,778,778,778,778,778,778,778,778,778,778,778,778,778,778,778,774,766,756,744,730,693,674,641,620,598,564,553,547,543,537,530,510,504,499,495,486,481],"ymouse":[630,630,630,630,630,630,630,630,630,630,630,630,630,630,630,630,630,630,630,630,630,630,624,604,582,558,533,469,437,386,355,325,277,259,250,241,232,220,183,169,156,142,109,94],"timestamp_mouse":[14,33,53,73,94,113,133,153,174,193,214,233,254,273,293,313,333,353,373,394,414,433,453,473,493,513,534,553,573,593,613,634,653,673,694,713,734,753,773,793,813,833,852,872],"xSR":741.5,"ySR":573.95,"xT1":424.9,"yT1":0,"xT2":1058.1,"yT2":0,"toosoon":0,"cond_shown":"randomdotsizeEA","ratio_trial":500,"smaller_num":"6","larger_num":"12","correct_side":1,"subjID":"cristalrojas37","gender":"1","age":"11","school":"6"},{"start_time":1551893592931,"click_time":1551893593775,"finger_time":1551893593395,"fix_duration":1014.5887573936586,"trial":53,"RT":464,"MT":380,"sideResp":2,"stimulus":"img/250/equaldotsize/R/13_Ratio_250_L_2_R_8.png","xmouse":[768,768,768,768,768,768,768,768,768,768,768,768,768,768,768,768,768,768,768,768,773,777,805,828,867,899,936,1015,1051,1083,1110,1129,1142,1145,1146,1147,1150,1155,1155,1155,1155,1153,1149],"ymouse":[634,634,634,634,634,634,634,634,634,634,634,634,634,634,634,634,634,634,634,634,632,624,585,547,488,439,387,295,255,219,195,178,168,162,158,154,144,123,116,111,106,100,82],"timestamp_mouse":[4,25,44,65,84,104,123,144,165,185,204,225,245,265,283,304,324,345,363,385,404,424,444,464,484,505,525,544,564,584,605,625,644,664,684,705,724,744,763,784,804,824,844],"xSR":741.5,"ySR":573.95,"xT1":424.9,"yT1":0,"xT2":1058.1,"yT2":0,"toosoon":0,"cond_shown":"equaldotsize","ratio_trial":250,"smaller_num":"2","larger_num":"8","correct_side":2,"subjID":"cristalrojas37","gender":"1","age":"11","school":"6"},{"start_time":1551893594927,"click_time":1551893595836,"finger_time":1551893595694,"fix_duration":250,"trial":54,"RT":767,"MT":142,"sideResp":1,"stimulus":"img/750/equaldotsize/L/9_Ratio_750_L_4_R_3.png","xmouse":[822,822,822,822,822,822,822,822,822,822,822,822,822,822,822,822,822,822,822,822,822,822,822,822,822,822,822,822,822,822,822,822,822,822,822,822,815,806,795,778,752,709,610,560,536,518],"ymouse":[624,624,624,624,624,624,624,624,624,624,624,624,624,624,624,624,624,624,624,624,624,624,624,624,624,624,624,624,624,624,624,624,624,624,624,624,615,592,567,517,453,376,222,144,111,79],"timestamp_mouse":[9,32,48,68,88,107,128,148,168,189,208,228,248,268,289,308,328,349,368,389,409,428,449,468,488,509,528,548,568,588,608,628,647,669,688,708,728,748,767,788,809,828,848,868,888,909],"xSR":741.5,"ySR":573.95,"xT1":424.9,"yT1":0,"xT2":1058.1,"yT2":0,"toosoon":0,"cond_shown":"equaldotsize","ratio_trial":750,"smaller_num":"3","larger_num":"4","correct_side":1,"subjID":"cristalrojas37","gender":"1","age":"11","school":"6"},{"start_time":1551893597792,"click_time":1551893599174,"finger_time":1551893598534,"fix_duration":1035.6846260014577,"trial":55,"RT":742,"MT":640,"sideResp":2,"stimulus":"img/900/randomdotsizeEA/R/5_Ratio_900_L_9_R_10.png","xmouse":[788,788,788,788,788,788,789,789,789,789,789,789,789,789,790,794,797,799,799,799,799,799,799,799,799,799,799,799,799,799,799,799,806,812,819,824,827,832,835,840,856,864,872,877,892,900,906,910,914,918,920,922,925,931,949,959,972,984,997,1014,1034,1037,1041,1044,1045,1046,1049,1050,1055,1067],"ymouse":[592,592,592,592,592,591,587,587,587,587,587,587,587,587,586,592,596,598,598,598,598,598,598,598,598,598,598,598,598,598,598,598,592,587,581,578,575,572,570,566,556,551,546,542,533,528,523,520,518,513,511,508,503,496,468,451,430,405,370,325,244,219,198,174,133,122,112,103,91,64],"timestamp_mouse":[7,24,42,63,83,102,123,142,162,182,202,223,243,262,283,302,322,343,362,382,402,422,443,463,483,502,523,542,563,583,603,622,642,662,683,702,722,742,763,783,802,822,844,862,882,902,923,943,963,982,1002,1022,1043,1063,1082,1102,1123,1142,1163,1182,1203,1222,1242,1263,1282,1302,1323,1342,1363,1382],"xSR":741.5,"ySR":573.95,"xT1":424.9,"yT1":0,"xT2":1058.1,"yT2":0,"toosoon":0,"cond_shown":"randomdotsizeEA","ratio_trial":900,"smaller_num":"9","larger_num":"10","correct_side":2,"subjID":"cristalrojas37","gender":"1","age":"11","school":"6"},{"start_time":1551893601345,"click_time":1551893603635,"finger_time":1551893603054,"fix_duration":1268.0862485204168,"trial":56,"RT":1709,"MT":581,"sideResp":2,"stimulus":"img/750/equaldotsize/L/8_Ratio_750_L_4_R_3.png","xmouse":[810,810,810,810,810,810,810,810,810,810,810,810,810,810,810,810,810,810,810,810,810,810,810,810,810,810,810,810,810,810,810,810,810,810,810,810,810,810,810,810,810,810,810,810,810,810,810,810,810,810,810,810,810,810,810,810,810,810,810,810,810,810,810,810,810,810,810,810,810,810,810,810,810,810,810,810,810,810,810,810,810,810,810,810,810,817,833,849,869,885,895,905,929,936,944,949,969,989,1006,1019,1028,1040,1044,1044,1044,1045,1047,1047,1047,1048,1050,1053,1056,1057,1059],"ymouse":[587,587,587,587,587,587,587,587,587,587,587,587,587,587,587,587,587,587,587,587,587,587,587,587,587,587,587,587,587,587,587,587,587,587,587,587,587,587,587,587,587,587,587,587,587,587,587,587,587,587,587,587,587,587,587,587,587,587,587,587,587,587,587,587,587,587,587,587,587,587,587,587,587,587,587,587,587,587,587,587,587,587,587,587,587,569,532,495,449,406,382,359,286,263,242,225,175,129,88,62,47,28,22,22,22,22,22,22,22,22,23,27,31,34,34],"timestamp_mouse":[9,29,49,69,90,109,129,149,170,189,209,229,249,269,290,309,330,350,369,389,410,430,449,470,490,509,529,549,569,590,609,630,649,670,689,711,730,749,770,791,810,829,851,871,890,910,930,949,969,991,1009,1031,1049,1069,1090,1109,1129,1150,1171,1190,1209,1231,1249,1270,1289,1311,1331,1349,1371,1390,1411,1430,1450,1470,1490,1510,1529,1550,1569,1590,1609,1629,1650,1669,1689,1709,1730,1749,1770,1790,1810,1829,1849,1869,1891,1909,1929,1949,1970,1990,2009,2029,2050,2069,2090,2109,2129,2149,2170,2189,2211,2229,2249,2270,2290],"xSR":741.5,"ySR":573.95,"xT1":424.9,"yT1":0,"xT2":1058.1,"yT2":0,"toosoon":0,"cond_shown":"equaldotsize","ratio_trial":750,"smaller_num":"3","larger_num":"4","correct_side":1,"subjID":"cristalrojas37","gender":"1","age":"11","school":"6"},{"start_time":1551893605146,"click_time":1551893605855,"finger_time":1551893605595,"fix_duration":250,"trial":57,"RT":449,"MT":260,"sideResp":1,"stimulus":"img/750/equaldotsize/L/10_Ratio_750_L_4_R_3.png","xmouse":[829,829,829,829,829,829,829,829,829,829,829,829,829,829,829,829,829,829,829,829,827,807,779,759,744,729,697,675,652,621,594,573,547,541,533,520],"ymouse":[650,650,650,650,650,650,650,650,650,650,650,650,650,650,650,650,650,650,650,649,646,598,535,489,454,416,322,266,219,175,143,122,95,84,72,57],"timestamp_mouse":[9,28,48,70,90,108,129,148,168,188,208,228,249,270,288,309,328,348,368,388,409,428,449,468,489,508,528,548,568,589,608,628,648,668,688,709],"xSR":741.5,"ySR":573.95,"xT1":424.9,"yT1":0,"xT2":1058.1,"yT2":0,"toosoon":0,"cond_shown":"equaldotsize","ratio_trial":750,"smaller_num":"3","larger_num":"4","correct_side":1,"subjID":"cristalrojas37","gender":"1","age":"11","school":"6"},{"start_time":1551893608194,"click_time":1551893608955,"finger_time":1551893608676,"fix_duration":1218.0623163132504,"trial":58,"RT":482,"MT":279,"sideResp":2,"stimulus":"img/500/equaldotanddens/R/6_Ratio_500_L_9_R_18.png","xmouse":[825,825,825,825,825,825,825,825,825,825,825,825,825,825,825,825,825,825,825,825,825,825,825,826,846,868,901,937,962,999,1013,1020,1025,1029,1044,1056,1069,1081,1093],"ymouse":[598,598,598,598,598,598,598,598,598,598,598,598,598,598,598,598,598,598,598,598,598,598,598,598,565,528,477,429,391,312,263,242,224,210,171,153,133,113,90],"timestamp_mouse":[8,27,40,61,82,100,121,141,161,180,200,221,240,260,280,301,320,341,361,380,400,422,441,460,482,500,520,540,561,580,601,620,640,660,680,700,720,740,761],"xSR":741.5,"ySR":573.95,"xT1":424.9,"yT1":0,"xT2":1058.1,"yT2":0,"toosoon":0,"cond_shown":"equaldotanddens","ratio_trial":500,"smaller_num":"9","larger_num":"18","correct_side":2,"subjID":"cristalrojas37","gender":"1","age":"11","school":"6"},{"start_time":1551893610981,"click_time":1551893611874,"finger_time":1551893611455,"fix_duration":1405.3899092501695,"trial":59,"RT":474,"MT":419,"sideResp":2,"stimulus":"img/250/randomdotsizeEA/R/9_Ratio_250_L_3_R_12.png","xmouse":[763,763,763,763,763,763,763,763,763,763,763,763,763,763,763,763,763,763,763,768,777,787,799,815,861,886,902,923,943,967,973,978,981,987,1010,1023,1037,1048,1055,1069,1079,1085,1091,1096,1101],"ymouse":[621,621,621,621,621,621,621,621,621,621,621,621,621,621,621,621,621,621,621,617,607,596,586,573,525,490,465,430,398,355,342,332,327,317,287,267,248,228,210,177,156,139,124,109,94],"timestamp_mouse":[14,39,55,73,93,114,133,153,173,193,213,233,253,273,294,314,334,354,374,393,413,433,454,474,493,513,533,554,573,593,614,633,653,674,693,713,733,753,774,793,815,833,853,874,893],"xSR":741.5,"ySR":573.95,"xT1":424.9,"yT1":0,"xT2":1058.1,"yT2":0,"toosoon":0,"cond_shown":"randomdotsizeEA","ratio_trial":250,"smaller_num":"3","larger_num":"12","correct_side":2,"subjID":"cristalrojas37","gender":"1","age":"11","school":"6"},{"start_time":1551893615809,"click_time":1551893617314,"finger_time":1551893616234,"fix_duration":492.02082814729096,"trial":60,"RT":425,"MT":1080,"sideResp":1,"stimulus":"img/750/equaldotanddens/L/14_Ratio_750_L_8_R_6.png","xmouse":[798,798,798,798,798,798,798,798,798,798,798,798,798,798,798,798,798,798,800,804,807,809,804,781,762,731,681,616,450,384,336,325,322,321,321,321,321,321,321,321,321,327,334,345,374,385,390,391,391,391,391,391,391,391,391,391,394,397,402,406,407,409,411,413,413,413,413,413,414,414,414,415,418,420,423,425],"ymouse":[654,654,654,654,654,654,654,654,654,654,654,654,654,654,654,654,654,654,654,631,602,563,542,498,469,425,356,276,102,38,0,0,0,0,0,0,0,0,0,0,0,4,8,15,32,37,39,40,40,40,40,40,40,40,40,40,44,47,49,50,50,51,51,51,51,51,51,51,51,51,51,51,51,51,51,52],"timestamp_mouse":[8,27,45,65,86,105,126,146,165,186,205,226,245,265,285,305,325,346,365,385,406,425,446,465,485,505,525,546,565,585,605,625,645,665,686,706,726,745,766,786,805,826,846,865,885,905,926,946,967,986,1006,1025,1045,1066,1085,1105,1126,1146,1165,1185,1205,1225,1245,1267,1285,1305,1325,1346,1365,1385,1405,1425,1446,1465,1485,1505],"xSR":741.5,"ySR":573.95,"xT1":424.9,"yT1":0,"xT2":1058.1,"yT2":0,"toosoon":0,"cond_shown":"equaldotanddens","ratio_trial":750,"smaller_num":"6","larger_num":"8","correct_side":1,"subjID":"cristalrojas37","gender":"1","age":"11","school":"6"},{"start_time":1551893618826,"click_time":1551893619755,"finger_time":1551893619274,"fix_duration":569.0643332282799,"trial":61,"RT":448,"MT":481,"sideResp":2,"stimulus":"img/500/randomdotsizeEA/R/12_Ratio_500_L_1_R_2.png","xmouse":[802,802,802,802,802,802,802,802,802,802,802,802,802,802,802,802,802,802,802,804,812,824,865,890,918,952,981,1036,1062,1072,1079,1085,1097,1100,1100,1102,1103,1108,1110,1111,1111,1111,1111,1111,1111,1111,1111],"ymouse":[614,614,614,614,614,614,614,614,614,614,614,614,614,614,614,614,614,614,614,614,611,604,579,558,533,499,462,385,338,313,291,276,251,246,242,238,233,214,200,192,184,173,145,130,119,107,97],"timestamp_mouse":[10,37,48,68,88,108,128,149,170,188,209,228,248,268,290,309,328,348,369,388,409,429,448,468,488,509,528,548,568,588,609,628,648,668,689,708,729,748,768,788,808,828,849,868,888,908,929],"xSR":741.5,"ySR":573.95,"xT1":424.9,"yT1":0,"xT2":1058.1,"yT2":0,"toosoon":0,"cond_shown":"randomdotsizeEA","ratio_trial":500,"smaller_num":"1","larger_num":"2","correct_side":2,"subjID":"cristalrojas37","gender":"1","age":"11","school":"6"},{"start_time":1551893622187,"click_time":1551893623074,"finger_time":1551893622875,"fix_duration":250,"trial":62,"RT":688,"MT":199,"sideResp":2,"stimulus":"img/250/equaldotsize/R/8_Ratio_250_L_1_R_4.png","xmouse":[799,799,799,799,799,799,799,799,799,799,799,799,799,799,799,799,799,799,799,799,799,799,799,799,799,799,799,799,799,799,799,799,800,809,844,866,885,905,924,975,1014,1034,1050,1064,1097],"ymouse":[607,607,607,607,607,607,607,607,607,607,607,607,607,607,607,607,607,607,607,607,607,607,607,607,607,607,607,607,607,607,607,607,606,585,525,500,480,449,408,299,239,211,188,165,85],"timestamp_mouse":[7,32,48,68,88,108,127,148,169,187,207,227,247,267,287,307,327,348,368,387,408,428,448,468,487,508,527,547,568,589,607,627,647,668,688,707,727,748,767,787,808,827,847,867,887],"xSR":741.5,"ySR":573.95,"xT1":424.9,"yT1":0,"xT2":1058.1,"yT2":0,"toosoon":0,"cond_shown":"equaldotsize","ratio_trial":250,"smaller_num":"1","larger_num":"4","correct_side":2,"subjID":"cristalrojas37","gender":"1","age":"11","school":"6"},{"start_time":1551893624579,"click_time":1551893625455,"finger_time":1551893625214,"fix_duration":884.1331431773498,"trial":63,"RT":635,"MT":241,"sideResp":1,"stimulus":"img/750/equaldotsize/L/10_Ratio_750_L_4_R_3.png","xmouse":[771,771,771,771,771,771,771,771,771,771,771,771,771,771,771,771,771,771,771,771,771,771,771,771,771,769,768,766,765,760,751,742,730,708,644,610,583,560,547,527,515,505,493,483],"ymouse":[642,642,642,642,642,642,642,642,642,642,642,642,642,642,642,642,642,642,642,642,642,642,642,642,642,636,630,622,618,606,586,564,538,489,358,299,252,214,191,158,141,128,111,95],"timestamp_mouse":[28,37,56,76,95,115,135,157,175,195,216,235,255,276,296,315,337,355,376,397,415,435,457,476,497,515,536,555,575,596,616,635,655,676,695,715,735,755,776,795,816,835,856,876],"xSR":741.5,"ySR":573.95,"xT1":424.9,"yT1":0,"xT2":1058.1,"yT2":0,"toosoon":0,"cond_shown":"equaldotsize","ratio_trial":750,"smaller_num":"3","larger_num":"4","correct_side":1,"subjID":"cristalrojas37","gender":"1","age":"11","school":"6"},{"start_time":1551893626526,"click_time":1551893629494,"finger_time":1551893629076,"fix_duration":250,"trial":64,"RT":2550,"MT":418,"sideResp":2,"stimulus":"img/500/equaldotanddens/R/6_Ratio_500_L_9_R_18.png","xmouse":[774,774,774,774,774,774,774,774,774,774,774,775,775,775,775,775,775,775,775,775,775,775,775,775,775,775,775,775,775,775,775,775,775,775,775,775,775,775,775,775,775,775,775,775,775,775,775,775,775,775,775,775,775,775,775,775,775,775,775,775,775,775,775,775,775,775,775,775,775,775,775,775,775,775,775,775,775,775,775,775,775,775,775,775,775,775,775,775,775,775,775,775,775,775,776,778,778,778,778,778,778,778,778,778,778,780,784,788,788,788,788,789,791,791,791,791,791,792,792,793,793,794,795,797,798,801,808,829,849,874,905,941,1011,1038,1072,1080,1084,1088,1088,1091,1094,1098,1105,1107,1108,1108,1108,1108,1108],"ymouse":[633,633,633,633,633,633,633,633,633,633,633,633,634,634,634,634,634,634,634,634,634,634,634,634,634,634,634,634,634,634,634,634,634,634,634,634,634,634,634,634,634,634,634,634,634,634,634,634,634,634,634,634,634,634,634,634,634,634,634,634,634,634,634,634,634,634,634,634,634,634,634,634,634,634,634,634,634,634,634,634,634,634,634,634,634,634,634,634,634,634,634,634,634,635,635,635,635,635,635,635,635,635,635,635,635,635,635,635,635,635,635,635,634,633,633,633,633,633,633,629,628,627,624,622,619,615,606,572,540,502,458,411,326,291,249,232,221,207,204,196,187,176,145,139,132,128,120,105,86],"timestamp_mouse":[9,28,48,69,89,109,128,150,168,188,210,229,249,269,288,309,328,348,368,388,409,428,448,468,488,508,528,548,568,588,608,629,649,669,688,709,728,748,769,788,808,829,849,868,888,909,929,948,968,988,1008,1028,1048,1068,1090,1108,1128,1148,1168,1188,1208,1228,1248,1269,1288,1309,1329,1348,1369,1389,1409,1428,1448,1469,1488,1509,1528,1548,1569,1588,1609,1628,1648,1668,1689,1709,1730,1748,1768,1790,1809,1828,1848,1868,1888,1908,1929,1948,1969,1989,2009,2028,2048,2069,2088,2108,2128,2149,2169,2188,2208,2229,2248,2268,2288,2310,2330,2349,2368,2388,2409,2429,2448,2468,2488,2508,2528,2550,2568,2589,2608,2629,2648,2669,2688,2708,2728,2748,2768,2789,2809,2828,2848,2869,2888,2908,2929,2948,2968],"xSR":741.5,"ySR":573.95,"xT1":424.9,"yT1":0,"xT2":1058.1,"yT2":0,"toosoon":0,"cond_shown":"equaldotanddens","ratio_trial":500,"smaller_num":"9","larger_num":"18","correct_side":2,"subjID":"cristalrojas37","gender":"1","age":"11","school":"6"},{"start_time":1551893631561,"click_time":1551893632314,"finger_time":1551893631915,"fix_duration":1206.7662961897279,"trial":65,"RT":354,"MT":399,"sideResp":2,"stimulus":"img/500/equaldotsize/R/3_Ratio_500_L_10_R_20.png","xmouse":[775,775,775,775,775,775,775,775,775,775,775,775,775,775,775,781,794,809,824,840,875,918,953,978,992,1011,1021,1031,1044,1052,1064,1068,1071,1074,1076,1076,1077,1082],"ymouse":[600,600,600,600,600,600,600,600,600,600,600,600,600,600,600,599,585,573,560,546,508,446,394,353,333,308,292,275,251,237,215,207,200,191,179,163,109,78],"timestamp_mouse":[13,34,53,75,94,113,133,153,175,194,214,233,253,273,293,313,333,354,374,394,413,435,453,473,493,513,533,553,573,593,613,634,653,673,693,713,733,753],"xSR":741.5,"ySR":573.95,"xT1":424.9,"yT1":0,"xT2":1058.1,"yT2":0,"toosoon":0,"cond_shown":"equaldotsize","ratio_trial":500,"smaller_num":"10","larger_num":"20","correct_side":2,"subjID":"cristalrojas37","gender":"1","age":"11","school":"6"},{"start_time":1551893633395,"click_time":1551893634175,"finger_time":1551893633674,"fix_duration":318.45311487046814,"trial":66,"RT":279,"MT":501,"sideResp":2,"stimulus":"img/750/equaldotsize/L/10_Ratio_750_L_4_R_3.png","xmouse":[771,771,771,771,771,771,771,771,771,771,779,792,806,823,864,887,916,951,990,1032,1049,1061,1070,1079,1092,1094,1095,1097,1097,1098,1098,1098,1098,1098,1098,1099,1099,1100,1104,1108],"ymouse":[597,597,597,597,597,597,597,597,597,597,596,591,584,576,543,516,474,423,368,292,254,232,211,192,167,160,156,150,145,137,135,134,134,134,133,130,126,120,109,91],"timestamp_mouse":[1,24,39,59,80,100,120,139,160,180,201,219,240,260,279,299,319,339,359,379,399,419,439,460,479,499,519,539,559,580,600,619,639,659,679,699,719,740,760,780],"xSR":741.5,"ySR":573.95,"xT1":424.9,"yT1":0,"xT2":1058.1,"yT2":0,"toosoon":0,"cond_shown":"equaldotsize","ratio_trial":750,"smaller_num":"3","larger_num":"4","correct_side":1,"subjID":"cristalrojas37","gender":"1","age":"11","school":"6"},{"start_time":1551893663715,"click_time":1551893664775,"finger_time":1551893664075,"fix_duration":1477.5218420088681,"trial":67,"RT":360,"MT":700,"sideResp":1,"stimulus":"img/900/randomdotsizeEA/L/1_Ratio_900_L_10_R_9.png","xmouse":[816,816,816,816,816,816,816,816,816,816,816,816,816,816,816,816,815,807,785,749,699,627,531,318,202,153,131,118,112,112,112,114,114,114,114,114,116,131,208,266,320,367,397,399,399,399,399,399,399,399,401,407,414,435],"ymouse":[617,617,617,617,617,617,617,617,617,617,617,617,617,617,617,617,617,605,560,510,453,392,315,154,59,16,0,0,0,0,0,0,0,0,0,0,0,2,9,9,9,9,9,9,9,9,9,9,9,9,11,14,19,37],"timestamp_mouse":[7,20,40,60,81,100,121,141,161,180,200,221,241,261,281,301,321,341,360,380,400,420,441,460,482,500,520,541,560,580,600,620,640,661,680,700,721,740,760,780,801,820,841,861,881,900,920,941,961,980,1000,1020,1040,1060],"xSR":741.5,"ySR":573.95,"xT1":424.9,"yT1":0,"xT2":1058.1,"yT2":0,"toosoon":0,"cond_shown":"randomdotsizeEA","ratio_trial":900,"smaller_num":"9","larger_num":"10","correct_side":1,"subjID":"cristalrojas37","gender":"1","age":"11","school":"6"},{"start_time":1551893667514,"click_time":1551893668396,"finger_time":1551893667875,"fix_duration":1336.2862196514548,"trial":68,"RT":361,"MT":521,"sideResp":2,"stimulus":"img/250/equaldotanddens/R/4_Ratio_250_L_3_R_12.png","xmouse":[767,768,768,768,768,768,768,768,768,768,768,768,769,770,771,771,774,778,787,795,810,835,880,1068,1132,1180,1203,1212,1213,1215,1220,1230,1239,1244,1244,1244,1244,1242,1210,1186,1160,1146,1139,1133,1126],"ymouse":[652,651,651,651,649,648,648,648,648,648,648,648,648,644,632,617,602,590,573,564,547,520,481,352,301,250,212,181,166,142,128,111,97,87,87,87,87,86,97,102,105,105,105,102,97],"timestamp_mouse":[1,22,41,61,82,101,122,141,161,182,202,221,241,261,281,301,321,342,361,381,401,421,442,461,481,501,521,541,561,581,601,621,643,661,682,701,722,741,761,781,801,821,842,861,882],"xSR":741.5,"ySR":573.95,"xT1":424.9,"yT1":0,"xT2":1058.1,"yT2":0,"toosoon":0,"cond_shown":"equaldotanddens","ratio_trial":250,"smaller_num":"3","larger_num":"12","correct_side":2,"subjID":"cristalrojas37","gender":"1","age":"11","school":"6"},{"start_time":1551893670578,"click_time":1551893671315,"finger_time":1551893670775,"fix_duration":1260.6507197500237,"trial":69,"RT":197,"MT":540,"sideResp":1,"stimulus":"img/500/randomdotsizeEA/L/10_Ratio_500_L_4_R_2.png","xmouse":[768,768,765,764,762,762,761,760,760,757,755,755,755,751,747,737,730,724,715,698,692,685,672,658,632,612,593,581,575,573,573,573,573,573,556,539,520],"ymouse":[594,594,592,587,582,582,581,578,577,561,553,542,527,507,481,430,409,389,368,314,294,272,248,226,178,142,105,87,79,78,78,78,78,77,74,69,64],"timestamp_mouse":[28,37,58,78,97,117,137,157,177,197,218,237,258,277,297,317,338,357,378,398,417,437,458,478,498,517,537,558,577,597,618,638,657,678,697,717,737],"xSR":741.5,"ySR":573.95,"xT1":424.9,"yT1":0,"xT2":1058.1,"yT2":0,"toosoon":0,"cond_shown":"randomdotsizeEA","ratio_trial":500,"smaller_num":"2","larger_num":"4","correct_side":1,"subjID":"cristalrojas37","gender":"1","age":"11","school":"6"},{"start_time":1551893673249,"click_time":1551893677135,"finger_time":1551893675215,"fix_duration":711.3630098566858,"trial":70,"RT":1966,"MT":1920,"sideResp":2,"stimulus":"img/750/randomdotsizeEA/R/12_Ratio_750_L_3_R_4.png","xmouse":[832,831,833,835,836,838,839,839,839,840,840,839,839,839,839,839,839,839,839,839,839,839,839,839,839,839,839,839,839,839,839,839,839,839,839,839,839,839,839,839,839,839,839,839,839,839,839,839,839,839,839,839,839,839,839,839,839,839,839,839,839,839,839,839,839,839,839,839,839,839,839,839,839,839,839,839,839,839,839,839,839,839,839,839,839,839,839,839,839,839,839,839,839,839,839,839,839,827,762,703,663,657,657,656,656,657,663,663,664,670,682,719,740,764,783,796,806,814,814,814,814,814,814,814,814,813,813,813,813,813,813,813,813,813,813,813,813,813,813,813,813,813,813,813,813,813,813,813,813,813,813,813,813,813,813,813,813,813,813,813,813,813,813,813,813,813,813,813,813,813,813,813,813,813,813,812,811,811,812,817,824,839,850,866,888,908,954,990,1009,1024,1035,1059,1070,1076,1080],"ymouse":[614,611,608,606,605,604,604,604,604,604,608,610,612,612,612,612,612,612,612,612,612,612,612,612,612,612,612,612,612,612,612,612,612,612,612,612,612,612,612,612,612,612,612,612,612,612,612,612,612,612,612,612,612,612,612,612,612,612,612,612,612,612,612,612,612,612,612,612,612,612,612,612,612,612,612,612,612,612,612,612,612,612,612,612,612,612,612,612,612,612,612,612,612,612,612,612,612,605,561,525,503,499,499,500,512,524,539,541,542,548,554,570,579,589,597,604,614,629,630,630,630,630,630,630,630,629,629,629,629,629,629,629,629,629,629,629,629,629,629,629,629,629,629,629,629,629,629,629,629,629,629,629,629,629,629,629,629,629,629,629,629,629,629,629,629,629,629,629,629,629,629,629,629,629,629,627,627,620,607,595,578,505,467,434,401,379,319,260,217,186,170,141,127,114,90],"timestamp_mouse":[8,37,46,67,88,106,126,146,167,187,206,226,246,266,287,306,326,346,366,386,407,426,446,467,486,506,527,546,566,586,606,626,646,666,687,706,727,746,766,787,807,827,846,866,886,907,927,946,966,986,1006,1028,1046,1067,1087,1108,1126,1147,1166,1186,1206,1226,1246,1266,1287,1306,1326,1346,1366,1387,1406,1426,1446,1466,1487,1506,1527,1546,1566,1586,1606,1626,1647,1666,1686,1706,1726,1746,1766,1787,1807,1828,1846,1867,1886,1907,1926,1947,1966,1986,2007,2027,2046,2066,2086,2106,2126,2147,2166,2186,2207,2226,2246,2267,2286,2306,2326,2346,2366,2386,2406,2428,2446,2466,2486,2506,2526,2547,2567,2586,2606,2626,2646,2667,2686,2706,2726,2746,2767,2786,2807,2827,2846,2866,2887,2906,2926,2946,2966,2987,3007,3028,3047,3067,3086,3107,3126,3146,3166,3187,3206,3227,3247,3268,3286,3307,3326,3346,3366,3387,3406,3426,3446,3466,3486,3506,3526,3546,3566,3586,3606,3626,3646,3666,3687,3706,3726,3746,3766,3786,3806,3826,3846,3866,3886],"xSR":741.5,"ySR":573.95,"xT1":424.9,"yT1":0,"xT2":1058.1,"yT2":0,"toosoon":0,"cond_shown":"randomdotsizeEA","ratio_trial":750,"smaller_num":"3","larger_num":"4","correct_side":2,"subjID":"cristalrojas37","gender":"1","age":"11","school":"6"},{"start_time":1551893678436,"click_time":1551893679195,"finger_time":1551893678776,"fix_duration":620.3620390286433,"trial":71,"RT":340,"MT":419,"sideResp":2,"stimulus":"img/750/randomdotsizeEA/L/9_Ratio_750_L_4_R_3.png","xmouse":[766,766,766,766,766,766,766,766,766,766,766,766,766,770,775,788,821,835,853,879,928,1049,1091,1117,1133,1146,1165,1169,1175,1179,1181,1181,1181,1181,1181,1181,1178,1152],"ymouse":[605,605,605,605,605,605,605,605,605,605,605,605,605,603,597,580,534,511,480,437,376,247,199,171,149,127,93,84,72,65,62,62,62,62,62,62,63,67],"timestamp_mouse":[19,39,60,79,100,120,140,159,179,199,220,239,259,280,300,319,340,359,379,399,419,439,459,479,499,520,539,559,579,599,620,639,660,679,699,719,739,759],"xSR":741.5,"ySR":573.95,"xT1":424.9,"yT1":0,"xT2":1058.1,"yT2":0,"toosoon":0,"cond_shown":"randomdotsizeEA","ratio_trial":750,"smaller_num":"3","larger_num":"4","correct_side":1,"subjID":"cristalrojas37","gender":"1","age":"11","school":"6"},{"start_time":1551893681088,"click_time":1551893681875,"finger_time":1551893681495,"fix_duration":1112.7400880499927,"trial":72,"RT":407,"MT":380,"sideResp":1,"stimulus":"img/750/randomdotsizeEA/L/10_Ratio_750_L_4_R_3.png","xmouse":[785,785,785,785,785,785,785,785,785,785,785,785,785,785,784,784,782,779,769,752,741,728,714,695,656,631,617,606,598,579,572,567,567,564,551,540,534,530,527,520],"ymouse":[639,639,639,639,639,639,639,639,639,639,639,639,639,639,639,639,639,639,632,591,560,535,509,475,388,323,276,226,181,117,101,94,92,87,63,52,48,47,47,44],"timestamp_mouse":[10,32,47,68,87,107,128,147,168,189,207,228,247,267,287,308,327,347,368,388,407,427,447,468,488,507,527,548,567,587,607,627,647,667,687,707,727,748,769,787],"xSR":741.5,"ySR":573.95,"xT1":424.9,"yT1":0,"xT2":1058.1,"yT2":0,"toosoon":0,"cond_shown":"randomdotsizeEA","ratio_trial":750,"smaller_num":"3","larger_num":"4","correct_side":1,"subjID":"cristalrojas37","gender":"1","age":"11","school":"6"},{"start_time":1551893683026,"click_time":1551893683795,"finger_time":1551893683675,"fix_duration":250,"trial":73,"RT":649,"MT":120,"sideResp":1,"stimulus":"img/900/equaldotsize/L/1_Ratio_900_L_10_R_9.png","xmouse":[820,820,820,820,820,820,820,820,820,820,820,820,820,820,820,820,820,820,820,820,820,820,820,820,820,820,820,820,820,820,820,818,803,784,755,719,673,558,498],"ymouse":[618,618,618,618,618,618,618,618,618,618,618,618,618,618,618,618,618,618,618,618,618,618,618,618,616,615,615,615,615,615,614,609,573,532,470,401,321,158,90],"timestamp_mouse":[9,30,49,70,91,109,130,149,171,190,209,229,249,269,291,309,330,349,369,390,409,429,450,469,490,509,529,551,569,589,610,630,649,669,689,709,729,749,769],"xSR":741.5,"ySR":573.95,"xT1":424.9,"yT1":0,"xT2":1058.1,"yT2":0,"toosoon":0,"cond_shown":"equaldotsize","ratio_trial":900,"smaller_num":"9","larger_num":"10","correct_side":1,"subjID":"cristalrojas37","gender":"1","age":"11","school":"6"},{"start_time":1551893685469,"click_time":1551893686336,"finger_time":1551893685895,"fix_duration":892.5713923735589,"trial":74,"RT":426,"MT":441,"sideResp":1,"stimulus":"img/750/randomdotsizeEA/R/5_Ratio_750_L_15_R_20.png","xmouse":[794,794,794,794,794,794,794,794,794,794,794,794,794,794,794,794,794,794,794,794,794,794,791,784,776,755,712,686,661,636,591,576,568,564,562,558,554,551,551,548,541,533,525,518],"ymouse":[620,620,620,620,620,620,620,620,620,620,620,620,620,620,620,620,620,620,621,609,585,567,549,531,507,458,356,297,240,193,120,100,89,84,83,81,80,79,79,77,73,70,66,63],"timestamp_mouse":[11,34,47,66,86,106,126,146,168,186,206,227,246,266,286,307,326,346,366,386,406,426,446,466,487,506,526,546,567,586,606,626,646,666,687,706,726,746,767,787,807,826,846,867],"xSR":741.5,"ySR":573.95,"xT1":424.9,"yT1":0,"xT2":1058.1,"yT2":0,"toosoon":0,"cond_shown":"randomdotsizeEA","ratio_trial":750,"smaller_num":"15","larger_num":"20","correct_side":2,"subjID":"cristalrojas37","gender":"1","age":"11","school":"6"},{"start_time":1551893688692,"click_time":1551893689755,"finger_time":1551893689075,"fix_duration":914.332711776715,"trial":75,"RT":383,"MT":680,"sideResp":1,"stimulus":"img/750/randomdotsizeEA/L/14_Ratio_750_L_8_R_6.png","xmouse":[811,811,811,811,811,811,811,811,811,811,811,811,811,811,811,814,818,823,833,846,883,901,915,923,929,932,935,936,939,952,962,974,979,981,983,986,992,1002,1012,1022,1024,1025,1025,1025,1025,1025,1021,1002,966,845,753,650,546,452],"ymouse":[637,637,637,637,637,637,637,637,637,637,637,636,635,634,629,621,612,600,583,562,494,451,418,400,381,371,364,358,352,323,298,273,255,245,240,235,224,207,189,167,162,162,162,162,162,162,162,168,175,178,170,140,100,59],"timestamp_mouse":[7,30,43,64,83,103,124,144,164,183,203,223,244,263,283,303,323,343,364,383,403,424,444,463,483,503,523,543,563,583,603,623,643,665,683,703,723,743,763,783,803,823,845,863,883,903,923,943,963,983,1005,1023,1043,1063],"xSR":741.5,"ySR":573.95,"xT1":424.9,"yT1":0,"xT2":1058.1,"yT2":0,"toosoon":0,"cond_shown":"randomdotsizeEA","ratio_trial":750,"smaller_num":"6","larger_num":"8","correct_side":1,"subjID":"cristalrojas37","gender":"1","age":"11","school":"6"},{"start_time":1551893691364,"click_time":1551893692575,"finger