[{"start_time":1551793936377,"click_time":1551793940482,"finger_time":1551793936387,"fix_duration":550.9650353947502,"trial":0,"RT":10,"MT":4095,"sideResp":2,"stimulus":[],"xmouse":[795,795,795,788,785,785,785,785,785,785,785,785,785,785,785,785,785,785,782,781,781,781,781,781,781,781,781,781,779,777,775,774,773,774,774,775,775,777,778,778,778,778,778,778,778,778,778,778,778,778,778,778,778,778,778,778,778,778,778,778,778,778,778,778,778,778,778,778,778,778,778,778,778,778,778,778,778,778,778,778,778,778,778,778,778,778,778,778,778,778,778,778,778,778,778,778,778,778,778,778,778,778,778,778,778,778,777,776,776,776,776,776,776,776,776,776,776,776,776,776,776,776,776,776,776,776,776,776,776,776,776,776,776,776,776,776,776,776,776,776,776,776,776,776,776,776,776,776,776,776,776,776,776,776,776,776,776,780,785,792,803,810,815,816,816,816,816,816,810,805,801,796,793,793,793,793,793,793,793,793,793,793,793,793,793,793,793,793,793,793,793,793,792,780,773,770,768,768,788,815,832,858,926,973,1032,1101],"ymouse":[541,541,542,543,545,545,545,545,545,545,545,545,545,545,545,545,545,545,545,546,546,546,546,546,546,546,546,546,547,556,565,572,577,588,595,604,615,623,626,626,626,626,626,626,626,626,626,626,626,626,626,626,626,626,626,626,626,626,626,626,626,625,625,625,625,625,625,625,624,624,624,624,624,624,624,624,624,624,624,624,624,624,624,624,624,624,624,624,624,624,624,624,624,624,624,624,624,624,624,624,624,624,624,624,624,625,626,626,626,626,626,626,626,626,626,626,626,626,626,626,626,626,626,626,626,626,626,626,626,626,626,626,626,626,626,626,626,626,626,626,626,626,626,626,626,626,626,626,626,626,626,626,626,626,626,626,626,626,626,626,629,631,633,633,633,633,633,633,633,633,633,634,635,635,635,635,635,635,636,637,637,637,637,637,637,637,637,637,637,637,633,627,608,557,531,506,480,452,387,321,281,231,135,91,45,5],"timestamp_mouse":[9,25,45,64,86,106,126,146,164,185,206,225,245,266,285,305,326,345,366,385,406,426,445,466,486,504,526,546,565,586,605,626,644,664,686,705,725,745,765,785,805,826,845,864,884,905,925,945,965,985,1005,1026,1045,1064,1084,1105,1125,1145,1165,1185,1205,1226,1246,1265,1285,1304,1324,1345,1365,1384,1404,1425,1445,1465,1485,1505,1524,1546,1564,1584,1605,1625,1645,1665,1684,1704,1725,1745,1765,1784,1804,1825,1845,1866,1885,1906,1924,1944,1965,1986,2006,2026,2046,2065,2084,2105,2125,2146,2165,2185,2205,2226,2245,2264,2286,2304,2326,2344,2364,2385,2405,2425,2445,2465,2485,2504,2525,2546,2564,2585,2604,2624,2645,2665,2685,2705,2724,2744,2765,2785,2804,2826,2844,2865,2885,2905,2924,2945,2964,2984,3005,3024,3045,3064,3086,3104,3124,3146,3165,3184,3205,3224,3245,3266,3284,3304,3325,3345,3365,3386,3406,3425,3444,3465,3484,3505,3524,3546,3564,3584,3605,3624,3646,3664,3684,3705,3725,3745,3766,3786,3804,3825,3845,3865,3885,3905,3925,3945,3965,3985,4006,4025,4046,4064,4085,4104],"xSR":741.5,"ySR":501.8,"xT1":424.9,"yT1":0,"xT2":1058.1,"yT2":0,"toosoon":0,"cond_shown":"Incongruent","ratio_trial":300,"L_num":4,"L_den":20,"R_num":2,"R_den":4,"correct_side":2,"subjID":"ElenaAponteEspitia38","gender":"1","age":"11","school":"6","test":{"fix_dur":[250,1500],"timestim":1000,"targets_dim":[100,100],"targets_relative_coord":[0.3,0.7],"size_stim":[880,420],"start_dim":[100,100],"size_start":[300,300],"size_fix":60,"samplingrate":20,"img_types":["Congruent","Incongruent"],"ratios":[100,200,300],"rep_conds":19,"nTrials":120,"trials_to_rest":500,"Trials_order":[23,119,82,61,91,83,59,107,117,64,112,65,44,87,113,57,48,43,84,2,78,58,8,30,75,81,10,76,72,42,94,11,14,53,21,68,35,110,85,6,25,20,114,108,41,28,77,86,33,52,32,13,1,22,92,54,69,27,62,15,100,39,50,99,104,51,31,47,79,95,19,9,80,63,56,89,24,105,40,60,74,17,55,101,118,29,12,4,37,70,26,34,111,103,67,102,0,109,116,16,93,3,106,5,46,36,115,71,96,7,97,45,38,66,90,98,18,88,73,49],"cond_shown":["Incongruent","Incongruent","Congruent","Incongruent","Incongruent","Incongruent","Incongruent","Incongruent","Incongruent","Congruent","Congruent","Incongruent","Congruent","Incongruent","Incongruent","Incongruent","Congruent","Incongruent","Congruent","Congruent","Congruent","Congruent","Congruent","Congruent","Incongruent","Incongruent","Congruent","Congruent","Congruent","Congruent","Congruent","Incongruent","Congruent","Incongruent","Incongruent","Congruent","Incongruent","Congruent","Incongruent","Congruent","Incongruent","Congruent","Congruent","Congruent","Incongruent","Congruent","Incongruent","Congruent","Incongruent","Congruent","Congruent","Incongruent","Incongruent","Congruent","Congruent","Congruent","Incongruent","Incongruent","Congruent","Incongruent","Congruent","Incongruent","Congruent","Incongruent","Congruent","Incongruent","Incongruent","Incongruent","Incongruent","Incongruent","Incongruent","Incongruent","Congruent","Incongruent","Congruent","Incongruent","Congruent","Incongruent","Congruent","Congruent","Congruent","Incongruent","Incongruent","Incongruent","Congruent","Incongruent","Congruent","Congruent","Incongruent","Congruent","Congruent","Congruent","Incongruent","Incongruent","Incongruent","Congruent","Congruent","Incongruent","Congruent","Congruent","Incongruent","Incongruent","Congruent","Incongruent","Congruent","Congruent","Incongruent","Incongruent","Congruent","Incongruent","Incongruent","Incongruent","Congruent","Congruent","Congruent","Congruent","Congruent","Congruent","Incongruent","Incongruent"],"ratio_trial":[300,300,300,100,100,300,300,300,200,300,300,300,200,200,300,200,100,100,100,200,100,300,200,100,200,200,300,300,100,100,300,300,200,300,200,200,300,200,100,100,100,200,100,100,300,300,300,200,200,300,200,100,100,300,200,100,200,200,200,200,300,200,200,200,200,200,100,300,100,300,100,200,200,200,200,300,100,200,300,100,200,300,100,300,300,300,100,300,100,300,200,300,200,100,100,100,100,100,200,300,200,200,300,300,300,100,100,300,100,100,100,200,200,100,100,200,100,300,100,100],"left_num":[4,3,5,10,6,8,13,4,6,1,11,13,3,11,4,14,4,10,11,6,1,1,11,3,7,1,2,20,11,7,11,4,3,4,4,6,13,9,9,10,10,9,1,11,13,20,4,5,1,9,3,4,6,5,7,8,9,4,8,1,5,1,8,7,5,1,11,4,12,4,12,1,12,3,5,13,11,1,12,2,3,13,6,13,11,4,11,1,9,5,21,20,4,6,13,2,11,1,1,11,1,7,1,13,18,7,9,4,2,1,3,4,3,7,6,5,11,1,3,13],"right_num":[2,4,6,9,11,9,12,2,3,8,4,12,9,3,2,12,6,9,4,7,3,19,3,2,14,3,12,9,6,15,2,2,11,2,14,11,12,13,14,3,9,13,18,6,12,9,2,14,3,3,14,8,3,7,18,2,8,6,3,3,7,3,3,6,14,3,9,2,9,2,9,3,6,11,14,12,6,3,2,11,14,12,11,12,4,2,6,3,13,7,2,13,1,7,6,11,4,8,21,4,2,4,8,12,9,9,20,6,11,8,4,1,14,9,5,14,6,11,4,12],"left_den":[20,6,25,25,10,10,26,20,20,30,22,26,12,20,20,30,8,25,22,12,2,3,22,6,10,2,10,25,22,14,22,20,10,20,6,20,26,30,15,25,25,30,2,22,26,25,20,10,2,10,6,8,12,25,15,16,15,5,15,2,25,2,15,15,10,2,22,20,24,20,24,2,15,4,10,26,22,2,24,5,6,26,10,26,22,20,22,5,15,25,30,25,30,10,26,5,22,2,2,22,3,15,30,26,20,14,10,5,5,2,6,30,10,14,20,10,22,5,6,26],"right_den":[4,20,12,18,22,18,15,4,6,24,20,15,20,4,4,18,10,18,10,10,5,30,10,5,28,10,24,18,15,25,10,4,22,4,30,22,15,26,28,10,18,26,30,15,15,18,4,20,10,5,20,20,5,14,27,5,10,10,9,10,14,10,9,9,20,10,15,4,15,4,15,10,10,20,20,15,15,10,10,22,20,15,22,15,20,4,15,6,26,14,4,26,3,14,10,22,10,20,30,20,15,6,24,15,15,15,25,12,22,20,10,3,28,15,25,20,15,22,10,20],"correct_side":[2,1,2,2,1,1,2,2,2,2,1,2,2,2,2,2,2,2,1,2,2,2,1,1,1,1,2,1,1,2,1,2,2,2,1,2,2,2,1,1,2,2,2,1,2,1,2,2,1,1,2,1,2,2,2,1,2,1,1,1,2,1,1,2,2,1,2,2,2,2,2,1,1,1,2,2,1,1,1,2,2,2,1,2,1,2,1,2,1,2,1,1,2,1,2,2,1,1,2,1,1,2,2,2,1,2,1,1,2,1,1,2,2,2,1,2,1,2,1,2],"img_shown":["img2/300/Incongruent/R/I_Dist_300_LN_4_LD_20_RN_2_RD_4_1.png","img2/300/Incongruent/L/I_Dist_300_LN_3_LD_6_RN_4_RD_20_0.png","img2/300/Congruent/R/C_Dist_300_LN_5_LD_25_RN_6_RD_12_1.png","img2/100/Incongruent/R/I_Dist_100_LN_10_LD_25_RN_9_RD_18_1.png","img2/100/Incongruent/L/I_Dist_100_LN_6_LD_10_RN_11_RD_22_0.png","img2/300/Incongruent/L/I_Dist_300_LN_8_LD_10_RN_9_RD_18_0.png","img2/300/Incongruent/R/I_Dist_300_LN_13_LD_26_RN_12_RD_15_1.png","img2/300/Incongruent/R/I_Dist_300_LN_4_LD_20_RN_2_RD_4_1.png","img2/200/Incongruent/R/I_Dist_200_LN_6_LD_20_RN_3_RD_6_1.png","img2/300/Congruent/R/C_Dist_300_LN_1_LD_30_RN_8_RD_24_1.png","img2/300/Congruent/L/C_Dist_300_LN_11_LD_22_RN_4_RD_20_0.png","img2/300/Incongruent/R/I_Dist_300_LN_13_LD_26_RN_12_RD_15_1.png","img2/200/Congruent/R/C_Dist_200_LN_3_LD_12_RN_9_RD_20_1.png","img2/200/Incongruent/R/I_Dist_200_LN_11_LD_20_RN_3_RD_4_1.png","img2/300/Incongruent/R/I_Dist_300_LN_4_LD_20_RN_2_RD_4_1.png","img2/200/Incongruent/R/I_Dist_200_LN_14_LD_30_RN_12_RD_18_1.png","img2/100/Congruent/R/C_Dist_100_LN_4_LD_8_RN_6_RD_10_1.png","img2/100/Incongruent/R/I_Dist_100_LN_10_LD_25_RN_9_RD_18_1.png","img2/100/Congruent/L/C_Dist_100_LN_11_LD_22_RN_4_RD_10_0.png","img2/200/Congruent/R/C_Dist_200_LN_6_LD_12_RN_7_RD_10_1.png","img2/100/Congruent/R/C_Dist_100_LN_1_LD_2_RN_3_RD_5_1.png","img2/300/Congruent/R/C_Dist_300_LN_1_LD_3_RN_19_RD_30_1.png","img2/200/Congruent/L/C_Dist_200_LN_11_LD_22_RN_3_RD_10_0.png","img2/100/Congruent/L/C_Dist_100_LN_3_LD_6_RN_2_RD_5_0.png","img2/200/Incongruent/L/I_Dist_200_LN_7_LD_10_RN_14_RD_28_0.png","img2/200/Incongruent/L/I_Dist_200_LN_1_LD_2_RN_3_RD_10_0.png","img2/300/Congruent/R/C_Dist_300_LN_2_LD_10_RN_12_RD_24_1.png","img2/300/Congruent/L/C_Dist_300_LN_20_LD_25_RN_9_RD_18_0.png","img2/100/Congruent/L/C_Dist_100_LN_11_LD_22_RN_6_RD_15_0.png","img2/100/Congruent/R/C_Dist_100_LN_7_LD_14_RN_15_RD_25_1.png","img2/300/Congruent/L/C_Dist_300_LN_11_LD_22_RN_2_RD_10_0.png","img2/300/Incongruent/R/I_Dist_300_LN_4_LD_20_RN_2_RD_4_1.png","img2/200/Congruent/R/C_Dist_200_LN_3_LD_10_RN_11_RD_22_1.png","img2/300/Incongruent/R/I_Dist_300_LN_4_LD_20_RN_2_RD_4_1.png","img2/200/Incongruent/L/I_Dist_200_LN_4_LD_6_RN_14_RD_30_0.png","img2/200/Congruent/R/C_Dist_200_LN_6_LD_20_RN_11_RD_22_1.png","img2/300/Incongruent/R/I_Dist_300_LN_13_LD_26_RN_12_RD_15_1.png","img2/200/Congruent/R/C_Dist_200_LN_9_LD_30_RN_13_RD_26_1.png","img2/100/Incongruent/L/I_Dist_100_LN_9_LD_15_RN_14_RD_28_0.png","img2/100/Congruent/L/C_Dist_100_LN_10_LD_25_RN_3_RD_10_0.png","img2/100/Incongruent/R/I_Dist_100_LN_10_LD_25_RN_9_RD_18_1.png","img2/200/Congruent/R/C_Dist_200_LN_9_LD_30_RN_13_RD_26_1.png","img2/100/Congruent/R/C_Dist_100_LN_1_LD_2_RN_18_RD_30_1.png","img2/100/Congruent/L/C_Dist_100_LN_11_LD_22_RN_6_RD_15_0.png","img2/300/Incongruent/R/I_Dist_300_LN_13_LD_26_RN_12_RD_15_1.png","img2/300/Congruent/L/C_Dist_300_LN_20_LD_25_RN_9_RD_18_0.png","img2/300/Incongruent/R/I_Dist_300_LN_4_LD_20_RN_2_RD_4_1.png","img2/200/Congruent/R/C_Dist_200_LN_5_LD_10_RN_14_RD_20_1.png","img2/200/Incongruent/L/I_Dist_200_LN_1_LD_2_RN_3_RD_10_0.png","img2/300/Congruent/L/C_Dist_300_LN_9_LD_10_RN_3_RD_5_0.png","img2/200/Congruent/R/C_Dist_200_LN_3_LD_6_RN_14_RD_20_1.png","img2/100/Incongruent/L/I_Dist_100_LN_4_LD_8_RN_8_RD_20_0.png","img2/100/Incongruent/R/I_Dist_100_LN_6_LD_12_RN_3_RD_5_1.png","img2/300/Congruent/R/C_Dist_300_LN_5_LD_25_RN_7_RD_14_1.png","img2/200/Congruent/R/C_Dist_200_LN_7_LD_15_RN_18_RD_27_1.png","img2/100/Congruent/L/C_Dist_100_LN_8_LD_16_RN_2_RD_5_0.png","img2/200/Incongruent/R/I_Dist_200_LN_9_LD_15_RN_8_RD_10_1.png","img2/200/Incongruent/L/I_Dist_200_LN_4_LD_5_RN_6_RD_10_0.png","img2/200/Congruent/L/C_Dist_200_LN_8_LD_15_RN_3_RD_9_0.png","img2/200/Incongruent/L/I_Dist_200_LN_1_LD_2_RN_3_RD_10_0.png","img2/300/Congruent/R/C_Dist_300_LN_5_LD_25_RN_7_RD_14_1.png","img2/200/Incongruent/L/I_Dist_200_LN_1_LD_2_RN_3_RD_10_0.png","img2/200/Congruent/L/C_Dist_200_LN_8_LD_15_RN_3_RD_9_0.png","img2/200/Incongruent/R/I_Dist_200_LN_7_LD_15_RN_6_RD_9_1.png","img2/200/Congruent/R/C_Dist_200_LN_5_LD_10_RN_14_RD_20_1.png","img2/200/Incongruent/L/I_Dist_200_LN_1_LD_2_RN_3_RD_10_0.png","img2/100/Incongruent/R/I_Dist_100_LN_11_LD_22_RN_9_RD_15_1.png","img2/300/Incongruent/R/I_Dist_300_LN_4_LD_20_RN_2_RD_4_1.png","img2/100/Incongruent/R/I_Dist_100_LN_12_LD_24_RN_9_RD_15_1.png","img2/300/Incongruent/R/I_Dist_300_LN_4_LD_20_RN_2_RD_4_1.png","img2/100/Incongruent/R/I_Dist_100_LN_12_LD_24_RN_9_RD_15_1.png","img2/200/Incongruent/L/I_Dist_200_LN_1_LD_2_RN_3_RD_10_0.png","img2/200/Congruent/L/C_Dist_200_LN_12_LD_15_RN_6_RD_10_0.png","img2/200/Incongruent/L/I_Dist_200_LN_3_LD_4_RN_11_RD_20_0.png","img2/200/Congruent/R/C_Dist_200_LN_5_LD_10_RN_14_RD_20_1.png","img2/300/Incongruent/R/I_Dist_300_LN_13_LD_26_RN_12_RD_15_1.png","img2/100/Congruent/L/C_Dist_100_LN_11_LD_22_RN_6_RD_15_0.png","img2/200/Incongruent/L/I_Dist_200_LN_1_LD_2_RN_3_RD_10_0.png","img2/300/Congruent/L/C_Dist_300_LN_12_LD_24_RN_2_RD_10_0.png","img2/100/Congruent/R/C_Dist_100_LN_2_LD_5_RN_11_RD_22_1.png","img2/200/Congruent/R/C_Dist_200_LN_3_LD_6_RN_14_RD_20_1.png","img2/300/Incongruent/R/I_Dist_300_LN_13_LD_26_RN_12_RD_15_1.png","img2/100/Incongruent/L/I_Dist_100_LN_6_LD_10_RN_11_RD_22_0.png","img2/300/Incongruent/R/I_Dist_300_LN_13_LD_26_RN_12_RD_15_1.png","img2/300/Congruent/L/C_Dist_300_LN_11_LD_22_RN_4_RD_20_0.png","img2/300/Incongruent/R/I_Dist_300_LN_4_LD_20_RN_2_RD_4_1.png","img2/100/Congruent/L/C_Dist_100_LN_11_LD_22_RN_6_RD_15_0.png","img2/300/Congruent/R/C_Dist_300_LN_1_LD_5_RN_3_RD_6_1.png","img2/100/Incongruent/L/I_Dist_100_LN_9_LD_15_RN_13_RD_26_0.png","img2/300/Congruent/R/C_Dist_300_LN_5_LD_25_RN_7_RD_14_1.png","img2/200/Congruent/L/C_Dist_200_LN_21_LD_30_RN_2_RD_4_0.png","img2/300/Congruent/L/C_Dist_300_LN_20_LD_25_RN_13_RD_26_0.png","img2/200/Incongruent/R/I_Dist_200_LN_4_LD_30_RN_1_RD_3_1.png","img2/100/Incongruent/L/I_Dist_100_LN_6_LD_10_RN_7_RD_14_0.png","img2/100/Incongruent/R/I_Dist_100_LN_13_LD_26_RN_6_RD_10_1.png","img2/100/Congruent/R/C_Dist_100_LN_2_LD_5_RN_11_RD_22_1.png","img2/100/Congruent/L/C_Dist_100_LN_11_LD_22_RN_4_RD_10_0.png","img2/100/Incongruent/L/I_Dist_100_LN_1_LD_2_RN_8_RD_20_0.png","img2/200/Congruent/R/C_Dist_200_LN_1_LD_2_RN_21_RD_30_1.png","img2/300/Congruent/L/C_Dist_300_LN_11_LD_22_RN_4_RD_20_0.png","img2/200/Incongruent/L/I_Dist_200_LN_1_LD_3_RN_2_RD_15_0.png","img2/200/Incongruent/R/I_Dist_200_LN_7_LD_15_RN_4_RD_6_1.png","img2/300/Congruent/R/C_Dist_300_LN_1_LD_30_RN_8_RD_24_1.png","img2/300/Incongruent/R/I_Dist_300_LN_13_LD_26_RN_12_RD_15_1.png","img2/300/Congruent/L/C_Dist_300_LN_18_LD_20_RN_9_RD_15_0.png","img2/100/Congruent/R/C_Dist_100_LN_7_LD_14_RN_9_RD_15_1.png","img2/100/Incongruent/L/I_Dist_100_LN_9_LD_10_RN_20_RD_25_0.png","img2/300/Incongruent/L/I_Dist_300_LN_4_LD_5_RN_6_RD_12_0.png","img2/100/Congruent/R/C_Dist_100_LN_2_LD_5_RN_11_RD_22_1.png","img2/100/Incongruent/L/I_Dist_100_LN_1_LD_2_RN_8_RD_20_0.png","img2/100/Incongruent/L/I_Dist_100_LN_3_LD_6_RN_4_RD_10_0.png","img2/200/Incongruent/R/I_Dist_200_LN_4_LD_30_RN_1_RD_3_1.png","img2/200/Congruent/R/C_Dist_200_LN_3_LD_10_RN_14_RD_28_1.png","img2/100/Congruent/R/C_Dist_100_LN_7_LD_14_RN_9_RD_15_1.png","img2/100/Congruent/L/C_Dist_100_LN_6_LD_20_RN_5_RD_25_0.png","img2/200/Congruent/R/C_Dist_200_LN_5_LD_10_RN_14_RD_20_1.png","img2/100/Congruent/L/C_Dist_100_LN_11_LD_22_RN_6_RD_15_0.png","img2/300/Congruent/R/C_Dist_300_LN_1_LD_5_RN_11_RD_22_1.png","img2/100/Incongruent/L/I_Dist_100_LN_3_LD_6_RN_4_RD_10_0.png","img2/100/Incongruent/R/I_Dist_100_LN_13_LD_26_RN_12_RD_20_1.png"],"dist100_C":[["C_Dist_100_LN_10_LD_25_RN_3_RD_10_0.png","C_Dist_100_LN_11_LD_22_RN_4_RD_10_0.png","C_Dist_100_LN_11_LD_22_RN_6_RD_15_0.png","C_Dist_100_LN_15_LD_25_RN_13_RD_26_0.png","C_Dist_100_LN_3_LD_6_RN_2_RD_5_0.png","C_Dist_100_LN_6_LD_20_RN_5_RD_25_0.png","C_Dist_100_LN_8_LD_16_RN_2_RD_5_0.png","C_Dist_100_LN_9_LD_15_RN_8_RD_16_0.png"],["C_Dist_100_LN_1_LD_2_RN_18_RD_30_1.png","C_Dist_100_LN_1_LD_2_RN_3_RD_5_1.png","C_Dist_100_LN_12_LD_30_RN_13_RD_26_1.png","C_Dist_100_LN_2_LD_5_RN_11_RD_22_1.png","C_Dist_100_LN_2_LD_5_RN_6_RD_12_1.png","C_Dist_100_LN_3_LD_20_RN_4_RD_16_1.png","C_Dist_100_LN_4_LD_10_RN_15_RD_30_1.png","C_Dist_100_LN_4_LD_8_RN_6_RD_10_1.png","C_Dist_100_LN_6_LD_12_RN_15_RD_25_1.png","C_Dist_100_LN_7_LD_14_RN_15_RD_25_1.png","C_Dist_100_LN_7_LD_14_RN_9_RD_15_1.png"]],"dist100_I":[["I_Dist_100_LN_1_LD_2_RN_8_RD_20_0.png","I_Dist_100_LN_2_LD_4_RN_6_RD_15_0.png","I_Dist_100_LN_2_LD_4_RN_8_RD_20_0.png","I_Dist_100_LN_3_LD_5_RN_11_RD_22_0.png","I_Dist_100_LN_3_LD_5_RN_8_RD_16_0.png","I_Dist_100_LN_3_LD_6_RN_4_RD_10_0.png","I_Dist_100_LN_3_LD_9_RN_7_RD_30_0.png","I_Dist_100_LN_4_LD_8_RN_8_RD_20_0.png","I_Dist_100_LN_6_LD_10_RN_11_RD_22_0.png","I_Dist_100_LN_6_LD_10_RN_13_RD_26_0.png","I_Dist_100_LN_6_LD_10_RN_7_RD_14_0.png","I_Dist_100_LN_9_LD_10_RN_20_RD_25_0.png","I_Dist_100_LN_9_LD_15_RN_13_RD_26_0.png","I_Dist_100_LN_9_LD_15_RN_14_RD_28_0.png"],["I_Dist_100_LN_10_LD_25_RN_8_RD_16_1.png","I_Dist_100_LN_10_LD_25_RN_9_RD_18_1.png","I_Dist_100_LN_11_LD_22_RN_9_RD_15_1.png","I_Dist_100_LN_12_LD_24_RN_9_RD_15_1.png","I_Dist_100_LN_12_LD_30_RN_2_RD_4_1.png","I_Dist_100_LN_13_LD_26_RN_12_RD_20_1.png","I_Dist_100_LN_13_LD_26_RN_6_RD_10_1.png","I_Dist_100_LN_17_LD_30_RN_10_RD_15_1.png","I_Dist_100_LN_6_LD_12_RN_3_RD_5_1.png","I_Dist_100_LN_8_LD_16_RN_6_RD_10_1.png","I_Dist_100_LN_8_LD_20_RN_1_RD_2_1.png","I_Dist_100_LN_9_LD_18_RN_6_RD_10_1.png"]],"dist100_S":[["E_Dist_100_LN_2_LD_12_RN_2_RD_30_0.png","E_Dist_100_LN_6_LD_10_RN_6_RD_12_0.png"],["E_Dist_100_LN_6_LD_12_RN_6_RD_10_1.png"]],"dist200_C":[["C_Dist_200_LN_11_LD_22_RN_3_RD_10_0.png","C_Dist_200_LN_12_LD_15_RN_6_RD_10_0.png","C_Dist_200_LN_12_LD_20_RN_6_RD_15_0.png","C_Dist_200_LN_14_LD_28_RN_6_RD_20_0.png","C_Dist_200_LN_15_LD_25_RN_4_RD_10_0.png","C_Dist_200_LN_16_LD_20_RN_12_RD_20_0.png","C_Dist_200_LN_16_LD_30_RN_9_RD_27_0.png","C_Dist_200_LN_20_LD_25_RN_9_RD_15_0.png","C_Dist_200_LN_21_LD_30_RN_2_RD_4_0.png","C_Dist_200_LN_4_LD_10_RN_3_RD_15_0.png","C_Dist_200_LN_4_LD_8_RN_3_RD_10_0.png","C_Dist_200_LN_6_LD_15_RN_3_RD_15_0.png","C_Dist_200_LN_7_LD_21_RN_2_RD_15_0.png","C_Dist_200_LN_8_LD_15_RN_2_RD_6_0.png","C_Dist_200_LN_8_LD_15_RN_3_RD_9_0.png","C_Dist_200_LN_8_LD_15_RN_7_RD_21_0.png","C_Dist_200_LN_9_LD_20_RN_4_RD_16_0.png"],["C_Dist_200_LN_1_LD_2_RN_21_RD_30_1.png","C_Dist_200_LN_13_LD_26_RN_14_RD_20_1.png","C_Dist_200_LN_3_LD_10_RN_11_RD_22_1.png","C_Dist_200_LN_3_LD_10_RN_14_RD_28_1.png","C_Dist_200_LN_3_LD_10_RN_7_RD_14_1.png","C_Dist_200_LN_3_LD_12_RN_9_RD_20_1.png","C_Dist_200_LN_3_LD_6_RN_14_RD_20_1.png","C_Dist_200_LN_5_LD_10_RN_14_RD_20_1.png","C_Dist_200_LN_6_LD_12_RN_7_RD_10_1.png","C_Dist_200_LN_6_LD_20_RN_11_RD_22_1.png","C_Dist_200_LN_7_LD_15_RN_18_RD_27_1.png","C_Dist_200_LN_9_LD_30_RN_13_RD_26_1.png"]],"dist200_I":[["I_Dist_200_LN_1_LD_2_RN_3_RD_10_0.png","I_Dist_200_LN_1_LD_3_RN_2_RD_15_0.png","I_Dist_200_LN_3_LD_4_RN_11_RD_20_0.png","I_Dist_200_LN_4_LD_5_RN_6_RD_10_0.png","I_Dist_200_LN_4_LD_6_RN_14_RD_30_0.png","I_Dist_200_LN_7_LD_10_RN_12_RD_24_0.png","I_Dist_200_LN_7_LD_10_RN_14_RD_28_0.png","I_Dist_200_LN_7_LD_10_RN_8_RD_16_0.png"],["I_Dist_200_LN_11_LD_20_RN_3_RD_4_1.png","I_Dist_200_LN_14_LD_30_RN_12_RD_18_1.png","I_Dist_200_LN_14_LD_30_RN_6_RD_9_1.png","I_Dist_200_LN_3_LD_10_RN_1_RD_2_1.png","I_Dist_200_LN_4_LD_30_RN_1_RD_3_1.png","I_Dist_200_LN_6_LD_20_RN_3_RD_6_1.png","I_Dist_200_LN_7_LD_15_RN_4_RD_6_1.png","I_Dist_200_LN_7_LD_15_RN_6_RD_9_1.png","I_Dist_200_LN_9_LD_15_RN_8_RD_10_1.png"]],"dist200_S":[["E_Dist_200_LN_3_LD_6_RN_3_RD_10_0.png"],["E_Dist_200_LN_3_LD_10_RN_3_RD_6_1.png"]],"dist300_C":[["C_Dist_300_LN_11_LD_22_RN_1_RD_5_0.png","C_Dist_300_LN_11_LD_22_RN_2_RD_10_0.png","C_Dist_300_LN_11_LD_22_RN_4_RD_20_0.png","C_Dist_300_LN_12_LD_24_RN_2_RD_10_0.png","C_Dist_300_LN_18_LD_20_RN_9_RD_15_0.png","C_Dist_300_LN_20_LD_25_RN_13_RD_26_0.png","C_Dist_300_LN_20_LD_25_RN_14_RD_28_0.png","C_Dist_300_LN_20_LD_25_RN_5_RD_10_0.png","C_Dist_300_LN_20_LD_25_RN_8_RD_16_0.png","C_Dist_300_LN_20_LD_25_RN_9_RD_18_0.png","C_Dist_300_LN_24_LD_30_RN_2_RD_4_0.png","C_Dist_300_LN_24_LD_30_RN_8_RD_16_0.png","C_Dist_300_LN_3_LD_6_RN_2_RD_10_0.png","C_Dist_300_LN_4_LD_10_RN_1_RD_10_0.png","C_Dist_300_LN_4_LD_5_RN_2_RD_4_0.png","C_Dist_300_LN_8_LD_16_RN_1_RD_5_0.png","C_Dist_300_LN_9_LD_10_RN_3_RD_5_0.png"],["C_Dist_300_LN_1_LD_20_RN_7_RD_20_1.png","C_Dist_300_LN_1_LD_3_RN_19_RD_30_1.png","C_Dist_300_LN_1_LD_30_RN_8_RD_24_1.png","C_Dist_300_LN_1_LD_5_RN_11_RD_22_1.png","C_Dist_300_LN_1_LD_5_RN_3_RD_6_1.png","C_Dist_300_LN_1_LD_5_RN_6_RD_12_1.png","C_Dist_300_LN_2_LD_10_RN_12_RD_24_1.png","C_Dist_300_LN_2_LD_20_RN_10_RD_25_1.png","C_Dist_300_LN_3_LD_12_RN_11_RD_20_1.png","C_Dist_300_LN_3_LD_6_RN_4_RD_5_1.png","C_Dist_300_LN_4_LD_20_RN_13_RD_26_1.png","C_Dist_300_LN_5_LD_25_RN_6_RD_12_1.png","C_Dist_300_LN_5_LD_25_RN_7_RD_14_1.png","C_Dist_300_LN_7_LD_14_RN_20_RD_25_1.png","C_Dist_300_LN_8_LD_15_RN_10_RD_12_1.png"]],"dist300_I":[["I_Dist_300_LN_1_LD_2_RN_2_RD_10_0.png","I_Dist_300_LN_1_LD_2_RN_3_RD_15_0.png","I_Dist_300_LN_2_LD_4_RN_6_RD_30_0.png","I_Dist_300_LN_3_LD_6_RN_4_RD_20_0.png","I_Dist_300_LN_4_LD_5_RN_6_RD_12_0.png","I_Dist_300_LN_4_LD_5_RN_8_RD_16_0.png","I_Dist_300_LN_7_LD_10_RN_8_RD_20_0.png","I_Dist_300_LN_8_LD_10_RN_14_RD_28_0.png","I_Dist_300_LN_8_LD_10_RN_9_RD_18_0.png"],["I_Dist_300_LN_13_LD_26_RN_12_RD_15_1.png","I_Dist_300_LN_4_LD_20_RN_2_RD_4_1.png"]],"dist300_S":[["E_Dist_300_LN_9_LD_12_RN_9_RD_20_0.png"],["E_Dist_300_LN_18_LD_30_RN_18_RD_20_1.png","E_Dist_300_LN_3_LD_10_RN_3_RD_5_1.png","E_Dist_300_LN_9_LD_20_RN_9_RD_12_1.png"]],"dist500_C":[["C_Dist_500_LN_10_LD_13_RN_7_RD_26_0.png","C_Dist_500_LN_10_LD_15_RN_4_RD_24_0.png","C_Dist_500_LN_12_LD_16_RN_3_RD_12_0.png","C_Dist_500_LN_12_LD_18_RN_4_RD_24_0.png","C_Dist_500_LN_15_LD_18_RN_5_RD_15_0.png","C_Dist_500_LN_15_LD_20_RN_1_RD_4_0.png","C_Dist_500_LN_18_LD_27_RN_1_RD_6_0.png","C_Dist_500_LN_20_LD_24_RN_1_RD_3_0.png","C_Dist_500_LN_20_LD_24_RN_3_RD_9_0.png","C_Dist_500_LN_20_LD_24_RN_7_RD_21_0.png","C_Dist_500_LN_20_LD_28_RN_3_RD_14_0.png","C_Dist_500_LN_21_LD_28_RN_6_RD_24_0.png","C_Dist_500_LN_22_LD_28_RN_2_RD_7_0.png","C_Dist_500_LN_25_LD_30_RN_9_RD_27_0.png","C_Dist_500_LN_4_LD_6_RN_1_RD_6_0.png","C_Dist_500_LN_5_LD_6_RN_2_RD_6_0.png","C_Dist_500_LN_6_LD_9_RN_1_RD_6_0.png","C_Dist_500_LN_7_LD_10_RN_1_RD_5_0.png","C_Dist_500_LN_8_LD_12_RN_1_RD_6_0.png","C_Dist_500_LN_8_LD_12_RN_4_RD_24_0.png"],["C_Dist_500_LN_1_LD_4_RN_12_RD_16_1.png","C_Dist_500_LN_1_LD_4_RN_9_RD_12_1.png","C_Dist_500_LN_1_LD_9_RN_11_RD_18_1.png","C_Dist_500_LN_10_LD_24_RN_22_RD_24_1.png","C_Dist_500_LN_2_LD_12_RN_10_RD_15_1.png","C_Dist_500_LN_2_LD_12_RN_12_RD_18_1.png","C_Dist_500_LN_2_LD_12_RN_4_RD_6_1.png","C_Dist_500_LN_2_LD_24_RN_7_RD_12_1.png","C_Dist_500_LN_2_LD_5_RN_18_RD_20_1.png","C_Dist_500_LN_2_LD_5_RN_9_RD_10_1.png","C_Dist_500_LN_2_LD_8_RN_12_RD_16_1.png","C_Dist_500_LN_2_LD_8_RN_21_RD_28_1.png","C_Dist_500_LN_3_LD_10_RN_4_RD_5_1.png","C_Dist_500_LN_3_LD_12_RN_15_RD_20_1.png","C_Dist_500_LN_3_LD_30_RN_6_RD_10_1.png","C_Dist_500_LN_3_LD_8_RN_14_RD_16_1.png","C_Dist_500_LN_4_LD_16_RN_15_RD_20_1.png","C_Dist_500_LN_4_LD_24_RN_12_RD_18_1.png","C_Dist_500_LN_5_LD_14_RN_6_RD_7_1.png","C_Dist_500_LN_7_LD_21_RN_20_RD_24_1.png","C_Dist_500_LN_7_LD_28_RN_12_RD_16_1.png","C_Dist_500_LN_7_LD_28_RN_9_RD_12_1.png","C_Dist_500_LN_9_LD_27_RN_20_RD_24_1.png"]],"dist500_I":[["I_Dist_500_LN_2_LD_3_RN_4_RD_24_0.png","I_Dist_500_LN_5_LD_6_RN_6_RD_18_0.png","I_Dist_500_LN_7_LD_8_RN_9_RD_24_0.png"],["I_Dist_500_LN_7_LD_21_RN_5_RD_6_1.png"]],"dist500_S":[["E_Dist_500_LN_6_LD_8_RN_6_RD_24_0.png"],["E_Dist_500_LN_2_LD_12_RN_2_RD_3_1.png","E_Dist_500_LN_6_LD_24_RN_6_RD_8_1.png"]]}},{"start_time":1551793945284,"click_time":1551793955443,"finger_time":1551793945302,"fix_duration":1442.3159195727965,"trial":1,"RT":18,"MT":10141,"sideResp":2,"stimulus":[],"xmouse":[767,767,767,767,767,767,767,767,767,767,767,767,767,767,767,767,767,767,767,767,767,767,767,767,769,769,771,772,773,775,775,775,776,776,776,776,776,782,791,793,793,793,793,793,793,793,793,793,793,793,793,793,793,793,793,793,793,793,793,793,793,793,793,793,793,793,793,793,793,793,793,793,793,793,793,793,793,793,793,793,793,793,793,793,793,793,793,793,793,793,793,793,793,793,793,793,793,793,793,793,793,793,793,793,793,793,793,795,798,802,808,812,819,819,819,819,819,815,806,795,787,784,791,801,810,825,844,876,890,896,900,901,896,880,864,840,819,788,777,770,766,766,766,766,766,766,766,766,766,766,766,766,764,762,761,760,760,760,760,760,760,760,760,760,760,760,760,760,760,760,760,760,760,760,760,760,760,760,760,760,760,760,760,760,760,760,760,760,760,760,760,760,760,760,760,760,760,760,760,760,760,760,760,760,760,760,760,760,760,760,760,760,760,760,760,760,760,760,760,760,760,760,760,760,760,760,760,760,760,760,760,760,760,759,759,759,759,759,759,759,759,759,759,759,759,759,759,758,757,757,756,756,755,755,755,755,755,755,755,754,751,747,742,742,742,742,742,742,742,742,742,742,742,742,742,742,742,742,742,742,742,742,742,742,742,742,742,742,742,742,742,742,748,749,755,757,758,758,758,758,755,753,750,750,750,750,752,752,752,752,752,752,751,751,751,751,751,751,751,752,754,769,773,773,773,774,775,777,777,777,777,777,778,780,782,783,783,783,783,783,783,783,783,783,783,783,783,783,783,786,788,792,794,790,789,788,784,762,755,751,749,749,749,752,759,772,784,811,816,819,818,802,763,752,741,732,730,759,797,852,893,924,951,949,936,909,877,830,818,813,813,820,872,894,909,915,916,917,917,910,896,883,867,861,858,858,856,851,843,831,821,813,809,809,808,808,807,806,803,799,792,786,764,759,758,758,758,758,758,758,761,763,774,776,776,776,776,776,776,776,777,778,784,792,802,806,807,805,803,795,792,791,791,791,791,791,791,791,791,791,793,796,845,912,934,948,954,953,956,976,1020,1065,1115,1117,1117,1117,1117,1117,1117,1117,1118,1154,1162,1164,1165,1165,1165,1165,1165,1166,1171,1172,1172,1172,1171,1159,1145,1128,1126,1123,1120,1117,1112,1112,1112,1112,1112,1114],"ymouse":[598,598,598,598,598,598,598,598,598,598,598,598,598,598,598,598,598,598,598,598,598,598,598,598,597,595,590,579,574,570,569,568,564,562,560,558,557,547,529,521,518,516,516,516,516,516,516,516,516,516,516,516,516,516,516,516,516,516,516,516,517,517,517,517,517,517,517,517,517,517,517,517,517,517,517,517,517,517,517,517,517,517,517,517,517,517,517,517,517,517,517,517,517,517,517,517,517,517,517,517,517,517,517,517,517,517,517,515,511,502,490,480,459,456,453,452,452,452,459,475,496,519,564,575,581,583,583,572,562,551,537,521,498,489,489,489,489,499,508,516,522,526,527,527,527,527,527,527,527,527,527,527,528,526,524,523,523,523,523,523,523,523,523,523,523,523,523,523,523,523,523,523,523,523,523,523,523,523,523,523,523,523,523,523,523,523,523,523,523,523,523,523,523,523,523,523,523,523,523,523,523,523,523,523,523,523,523,523,523,523,523,523,523,523,523,523,523,523,523,523,523,523,523,523,523,523,523,523,523,523,523,523,523,522,522,522,522,522,522,522,522,522,522,522,522,522,522,522,523,523,523,523,520,501,480,466,464,464,465,470,481,493,500,500,500,500,500,500,500,500,500,500,502,503,505,505,505,505,505,505,505,505,505,505,506,506,506,506,506,506,506,506,498,495,482,477,475,475,478,482,493,508,525,525,525,525,514,504,504,504,504,504,504,504,504,504,504,504,504,504,502,496,496,496,496,495,494,490,490,490,490,490,489,483,479,477,477,477,477,479,482,490,504,510,511,511,511,511,511,512,510,503,485,479,478,478,478,502,519,535,550,559,559,559,555,545,533,507,494,482,468,453,443,453,467,488,506,537,546,553,553,551,523,510,495,484,476,478,485,494,507,522,554,561,565,565,565,564,559,552,547,545,547,548,550,550,550,551,552,552,552,552,552,552,552,552,552,552,552,552,552,552,552,552,552,552,552,552,552,552,551,551,548,546,546,546,546,546,546,546,546,546,546,550,552,552,552,562,571,597,610,613,613,613,613,613,613,613,613,614,617,617,590,546,532,516,499,474,449,420,382,355,342,342,342,342,342,342,342,342,342,342,342,342,340,339,339,320,304,289,267,247,223,203,187,168,153,136,131,126,122,120,112,111,109,105,102,96],"timestamp_mouse":[17,38,58,79,98,118,137,158,178,198,219,238,258,278,298,318,339,358,378,398,418,438,458,479,498,519,538,558,578,599,619,638,657,677,698,718,738,758,778,798,818,839,859,878,899,918,937,958,978,998,1019,1038,1058,1079,1097,1117,1138,1158,1177,1199,1218,1238,1257,1278,1299,1317,1338,1359,1378,1399,1419,1437,1458,1478,1498,1518,1538,1559,1578,1598,1619,1638,1658,1678,1697,1718,1739,1757,1778,1798,1818,1838,1859,1879,1898,1917,1939,1958,1977,1998,2018,2037,2058,2078,2099,2118,2137,2159,2179,2199,2219,2237,2258,2278,2298,2317,2339,2357,2379,2398,2419,2437,2458,2478,2499,2518,2538,2558,2578,2598,2619,2638,2658,2679,2697,2718,2738,2757,2777,2799,2818,2837,2858,2878,2897,2917,2939,2957,2978,2997,3017,3038,3058,3078,3098,3118,3138,3158,3178,3199,3218,3238,3258,3278,3297,3318,3339,3358,3378,3399,3418,3438,3458,3477,3498,3518,3538,3559,3577,3597,3619,3638,3658,3677,3699,3718,3738,3757,3778,3799,3819,3838,3859,3878,3898,3919,3939,3957,3979,3998,4019,4037,4057,4078,4097,4119,4138,4159,4178,4199,4219,4239,4258,4278,4297,4319,4339,4359,4377,4399,4419,4438,4459,4477,4499,4517,4538,4558,4578,4598,4617,4638,4659,4677,4699,4718,4738,4757,4779,4797,4818,4837,4859,4877,4897,4919,4937,4959,4978,4997,5018,5037,5058,5079,5097,5119,5138,5158,5178,5198,5219,5238,5257,5278,5299,5319,5337,5358,5378,5398,5418,5437,5457,5478,5498,5519,5538,5558,5579,5598,5618,5637,5658,5678,5698,5719,5737,5758,5778,5797,5818,5837,5857,5878,5899,5919,5937,5958,5978,5997,6018,6038,6057,6079,6097,6119,6138,6157,6178,6197,6219,6238,6258,6279,6297,6318,6338,6358,6378,6398,6418,6439,6457,6478,6497,6518,6538,6558,6578,6597,6619,6637,6658,6678,6699,6719,6737,6759,6778,6798,6817,6838,6858,6878,6897,6918,6938,6957,6978,6999,7018,7038,7057,7077,7097,7117,7137,7159,7178,7199,7218,7239,7258,7277,7298,7319,7337,7358,7378,7398,7419,7439,7458,7479,7497,7517,7538,7558,7579,7598,7619,7637,7658,7679,7699,7718,7738,7757,7777,7798,7818,7838,7858,7878,7898,7918,7937,7957,7979,7998,8018,8038,8057,8078,8099,8118,8139,8159,8178,8198,8218,8238,8258,8279,8297,8319,8338,8357,8379,8398,8418,8437,8458,8479,8499,8517,8538,8557,8577,8597,8619,8639,8658,8678,8697,8717,8738,8758,8778,8798,8818,8838,8858,8878,8898,8918,8937,8957,8978,8997,9017,9037,9057,9078,9099,9118,9138,9158,9179,9198,9219,9239,9259,9277,9297,9318,9339,9358,9378,9398,9419,9438,9459,9478,9498,9517,9538,9559,9578,9598,9619,9639,9658,9677,9697,9719,9738,9759,9778,9798,9818,9838,9857,9878,9897,9919,9938,9959,9978,9999,10019,10037,10058,10079,10097,10119,10139,10159],"xSR":741.5,"ySR":573.95,"xT1":424.9,"yT1":0,"xT2":1058.1,"yT2":0,"toosoon":0,"cond_shown":"Incongruent","ratio_trial":300,"L_num":3,"L_den":6,"R_num":4,"R_den":20,"correct_side":1,"subjID":"ElenaAponteEspitia38","gender":"1","school":"6","age":"11"},{"start_time":1551793957981,"click_time":1551793961042,"finger_time":1551793959682,"fix_duration":1116.4996977012,"trial":2,"RT":1701,"MT":1360,"sideResp":1,"stimulus":[],"xmouse":[804,804,804,804,804,804,804,804,804,804,804,804,804,804,804,804,804,804,804,804,804,804,804,804,804,804,804,804,804,804,804,804,804,804,804,804,804,804,804,804,804,804,804,804,804,804,804,804,804,804,804,804,804,804,804,804,804,804,804,804,804,804,804,804,804,804,804,804,804,804,804,804,804,804,804,804,804,805,806,806,806,806,810,813,813,813,813,813,813,813,813,813,813,813,814,819,830,833,837,838,839,837,836,835,832,827,820,813,809,807,804,794,791,791,791,791,791,790,789,789,789,789,789,789,789,789,789,789,789,789,789,789,789,789,786,778,750,734,715,701,687,671,669,669,664,652,610,588,570,557,540,500],"ymouse":[490,490,490,490,490,490,490,490,490,490,490,490,490,490,490,490,490,490,490,490,490,490,490,490,490,490,490,490,490,490,490,490,490,490,490,490,490,490,490,490,490,490,490,490,490,490,490,490,490,490,490,490,490,490,490,490,490,490,490,490,490,490,490,490,490,490,490,490,490,490,490,490,490,490,490,490,490,488,486,486,486,520,569,590,592,592,592,592,592,592,592,592,592,592,593,584,537,515,500,488,479,472,471,471,471,471,476,481,484,485,488,500,506,507,508,511,521,525,528,530,530,530,530,530,530,530,530,530,531,531,531,531,509,474,423,371,236,181,133,92,61,36,33,33,33,36,57,65,68,69,69,64],"timestamp_mouse":[9,22,83,100,120,140,161,181,201,221,241,260,282,301,322,341,362,380,401,421,440,462,480,501,520,541,561,581,602,622,641,661,682,700,722,740,761,780,801,820,841,861,882,902,920,941,962,981,1001,1021,1042,1061,1081,1102,1122,1140,1161,1182,1201,1222,1241,1261,1280,1302,1321,1341,1362,1382,1400,1420,1441,1460,1480,1502,1520,1541,1561,1581,1602,1621,1641,1661,1681,1701,1721,1740,1761,1782,1801,1822,1840,1861,1881,1901,1921,1940,1960,1981,2001,2021,2042,2060,2081,2100,2122,2142,2161,2180,2201,2221,2240,2261,2281,2301,2320,2341,2361,2382,2401,2421,2440,2462,2481,2500,2522,2542,2560,2582,2601,2621,2642,2661,2681,2702,2722,2740,2762,2781,2801,2820,2840,2860,2880,2901,2921,2940,2962,2981,3001,3021,3040,3061],"xSR":741.5,"ySR":469.95,"xT1":424.9,"yT1":0,"xT2":1058.1,"yT2":0,"toosoon":0,"cond_shown":"Congruent","ratio_trial":300,"L_num":5,"L_den":25,"R_num":6,"R_den":12,"correct_side":2,"subjID":"ElenaAponteEspitia38","gender":"1","school":"6","age":"11"},{"start_time":1551793962618,"click_time":1551793964642,"finger_time":1551793964142,"fix_duration":353.9189916135468,"trial":3,"RT":1524,"MT":500,"sideResp":2,"stimulus":[],"xmouse":[799,799,799,799,799,799,799,799,799,799,799,799,799,799,799,799,799,799,799,799,799,799,799,799,799,799,799,799,799,799,799,799,799,799,799,799,799,799,799,799,799,799,799,799,799,799,799,799,799,799,799,799,799,799,799,799,799,799,799,799,799,799,799,799,799,799,799,799,799,799,799,799,800,803,808,816,848,869,897,925,951,1012,1038,1066,1092,1114,1170,1186,1192,1192,1192,1192,1192,1192,1192,1192,1192,1192,1173,1169,1164,1158],"ymouse":[530,530,530,530,530,530,530,530,530,530,530,530,530,530,530,530,530,530,530,530,530,530,530,530,530,530,530,530,530,530,530,530,530,530,530,530,530,530,530,530,530,530,530,530,530,530,530,530,530,530,530,530,530,530,530,530,530,530,530,530,530,530,530,530,530,530,530,530,530,530,530,530,529,526,521,514,487,472,452,432,411,354,322,281,238,187,70,28,9,9,9,9,9,9,9,9,9,9,8,24,40,66],"timestamp_mouse":[10,37,43,64,84,103,124,143,163,184,203,224,245,263,284,304,325,344,365,383,404,425,443,465,485,504,523,543,564,584,604,625,644,665,683,704,723,743,763,783,803,823,843,863,883,903,923,943,964,983,1003,1023,1043,1064,1085,1104,1124,1144,1164,1184,1205,1224,1245,1264,1284,1304,1325,1343,1364,1385,1404,1425,1444,1464,1484,1504,1524,1544,1563,1584,1605,1624,1644,1664,1684,1704,1725,1745,1765,1784,1804,1823,1843,1864,1884,1905,1925,1944,1964,1985,2004,2024],"xSR":741.5,"ySR":469.95,"xT1":424.9,"yT1":0,"xT2":1058.1,"yT2":0,"toosoon":0,"cond_shown":"Incongruent","ratio_trial":100,"L_num":10,"L_den":25,"R_num":9,"R_den":18,"correct_side":2,"subjID":"ElenaAponteEspitia38","gender":"1","school":"6","age":"11"},{"start_time":1551793969297,"click_time":1551793970982,"finger_time":1551793970662,"fix_duration":993.0183625801773,"trial":4,"RT":1365,"MT":320,"sideResp":2,"stimulus":[],"xmouse":[818,818,818,818,818,818,818,818,818,818,818,818,818,818,818,818,818,818,818,818,818,818,818,818,818,818,818,818,818,818,818,818,818,818,818,818,818,818,818,818,818,818,818,818,818,818,818,818,818,818,818,818,818,818,818,818,818,818,818,818,818,818,818,818,818,818,818,832,855,893,938,972,1063,1081,1098,1109,1117,1121,1121,1121,1119,1117,1111,1111,1110],"ymouse":[514,514,514,514,514,514,514,514,514,514,514,514,514,514,514,514,514,514,514,514,514,514,514,514,514,514,514,514,514,514,514,514,514,514,514,514,514,514,514,514,514,514,514,514,514,514,514,514,514,514,514,514,514,514,514,514,514,514,514,514,514,514,514,514,514,514,514,504,490,464,428,394,286,256,228,211,195,174,161,149,139,128,108,102,96],"timestamp_mouse":[8,24,44,65,86,105,125,145,165,186,204,224,244,265,286,304,325,345,364,385,405,426,446,466,485,506,525,546,566,585,605,625,644,665,686,705,725,745,766,786,805,825,845,865,886,904,925,945,965,986,1005,1026,1045,1065,1084,1106,1126,1146,1166,1185,1205,1225,1245,1265,1286,1305,1325,1344,1365,1385,1406,1426,1445,1465,1485,1504,1525,1545,1564,1584,1605,1624,1645,1665,1685],"xSR":741.5,"ySR":469.95,"xT1":424.9,"yT1":0,"xT2":1058.1,"yT2":0,"toosoon":0,"cond_shown":"Incongruent","ratio_trial":100,"L_num":6,"L_den":10,"R_num":11,"R_den":22,"correct_side":1,"subjID":"ElenaAponteEspitia38","gender":"1","school":"6","age":"11"},{"start_time":1551793972374,"click_time":1551793975241,"finger_time":1551793974922,"fix_duration":250,"trial":5,"RT":2548,"MT":319,"sideResp":2,"stimulus":[],"xmouse":[811,811,811,811,811,811,811,811,811,811,811,811,811,811,811,811,811,811,811,811,811,811,811,811,811,811,811,811,811,811,811,811,811,811,811,811,811,811,811,811,811,811,811,811,811,811,811,811,811,811,811,811,811,811,811,811,811,811,811,811,811,811,811,811,811,811,811,811,811,811,811,811,811,811,811,811,811,811,811,811,811,811,811,811,811,811,811,811,811,811,811,811,811,811,811,811,811,811,811,811,811,811,811,811,811,811,811,811,811,811,811,811,811,811,811,811,811,811,811,811,811,811,811,811,811,819,824,855,981,1009,1033,1050,1062,1082,1084,1084,1084,1084,1084,1084,1081,1079,1077,1075],"ymouse":[508,508,508,508,508,508,508,508,508,508,508,508,508,508,508,508,508,508,508,508,508,508,508,508,508,508,508,508,508,508,508,508,508,508,508,508,508,508,508,508,508,508,508,508,508,508,508,508,508,508,508,508,508,508,508,508,508,508,508,508,508,508,508,508,508,508,508,508,508,508,508,508,508,508,508,508,508,508,508,508,508,508,508,508,508,508,508,508,508,508,508,508,508,508,508,508,508,508,508,508,508,508,508,508,508,508,508,508,508,508,508,508,508,508,508,508,508,508,508,508,508,508,508,508,508,501,496,473,386,361,329,291,253,183,162,149,142,142,141,137,128,116,100,71],"timestamp_mouse":[10,31,48,68,89,108,129,148,168,188,207,228,249,268,289,308,328,348,368,388,408,429,448,468,489,509,528,548,567,588,608,629,648,668,689,708,727,749,767,788,809,828,848,869,888,909,927,949,968,989,1007,1028,1049,1067,1088,1109,1127,1148,1169,1188,1209,1228,1248,1268,1289,1308,1327,1349,1367,1387,1408,1427,1448,1469,1488,1509,1528,1547,1568,1588,1608,1629,1647,1667,1688,1707,1729,1747,1768,1788,1809,1828,1847,1868,1887,1908,1928,1947,1967,1988,2009,2029,2047,2068,2087,2108,2128,2148,2168,2188,2208,2229,2247,2268,2287,2309,2327,2347,2368,2387,2409,2429,2447,2468,2487,2509,2528,2548,2567,2588,2607,2628,2647,2668,2688,2707,2727,2748,2767,2788,2808,2828,2848,2867],"xSR":741.5,"ySR":469.95,"xT1":424.9,"yT1":0,"xT2":1058.1,"yT2":0,"toosoon":0,"cond_shown":"Incongruent","ratio_trial":300,"L_num":8,"L_den":10,"R_num":9,"R_den":18,"correct_side":1,"subjID":"ElenaAponteEspitia38","gender":"1","school":"6","age":"11"},{"start_time":1551793978587,"click_time":1551793980282,"finger_time":1551793980022,"fix_duration":344.53751315059924,"trial":6,"RT":1435,"MT":260,"sideResp":2,"stimulus":[],"xmouse":[785,785,785,785,785,785,785,785,785,785,785,785,785,785,785,785,785,785,785,785,785,785,785,785,785,785,785,785,785,785,785,785,785,785,785,785,785,785,785,785,785,785,785,785,785,785,785,785,785,785,785,785,785,785,785,785,785,785,785,785,785,785,785,785,785,785,785,790,800,809,810,827,897,943,976,1004,1023,1048,1064,1077,1091,1108,1131,1134,1135],"ymouse":[498,498,498,498,498,498,498,498,498,498,498,498,498,498,498,498,498,498,498,498,498,498,498,498,498,498,498,498,498,498,498,498,498,498,498,498,498,498,498,498,498,498,498,498,498,498,498,498,498,498,498,498,498,498,498,498,498,498,498,498,498,498,498,498,498,498,498,495,488,480,479,468,427,399,375,352,330,286,254,230,204,171,123,109,96],"timestamp_mouse":[15,38,55,74,94,115,135,155,176,194,216,235,256,274,294,315,336,356,375,394,414,436,454,474,496,515,534,555,575,595,616,634,656,675,695,715,734,754,776,796,815,836,854,875,896,916,934,955,976,996,1015,1036,1056,1074,1095,1116,1134,1154,1175,1195,1215,1235,1256,1274,1295,1315,1334,1355,1375,1394,1415,1435,1454,1476,1495,1514,1536,1555,1575,1595,1616,1635,1655,1676,1695],"xSR":741.5,"ySR":469.95,"xT1":424.9,"yT1":0,"xT2":1058.1,"yT2":0,"toosoon":0,"cond_shown":"Incongruent","ratio_trial":300,"L_num":13,"L_den":26,"R_num":12,"R_den":15,"correct_side":2,"subjID":"ElenaAponteEspitia38","gender":"1","school":"6","age":"11"},{"start_time":1551793981372,"click_time":1551793988121,"finger_time":1551793987762,"fix_duration":329.6796595233064,"trial":7,"RT":6390,"MT":359,"sideResp":2,"stimulus":[],"xmouse":[819,819,819,819,819,819,819,819,819,819,819,819,819,819,819,819,819,819,819,819,819,819,819,819,819,819,819,819,819,819,819,819,819,819,819,819,819,819,819,819,819,819,819,819,819,819,819,819,819,819,819,819,819,819,819,819,819,819,819,819,819,819,819,819,819,819,819,819,819,819,819,819,819,819,819,819,819,819,819,819,819,819,819,819,819,819,819,819,819,819,819,819,819,819,819,819,819,819,819,819,819,819,819,819,819,819,819,819,819,819,819,819,819,819,819,819,819,819,819,819,819,819,819,819,819,819,819,819,819,819,819,819,819,819,819,819,819,819,819,819,819,819,819,819,819,819,819,819,819,819,819,819,819,819,819,819,819,819,819,819,819,819,819,819,819,819,819,819,819,819,819,819,819,819,819,819,819,819,819,819,819,819,819,819,819,819,819,819,819,819,819,819,819,819,819,819,819,819,819,819,819,819,819,819,819,819,819,819,819,819,819,819,819,819,819,819,819,819,819,819,819,819,819,819,819,819,819,819,819,819,819,819,819,819,819,819,819,819,819,819,819,819,819,819,819,819,819,819,819,819,819,819,819,819,819,819,819,819,819,819,819,819,819,819,819,819,819,819,819,819,819,819,819,819,819,819,819,819,819,819,819,819,819,819,819,819,819,819,819,819,819,819,819,819,819,819,819,819,819,819,819,819,819,819,819,819,819,819,819,819,819,819,819,819,819,819,819,824,838,851,860,863,878,913,928,943,958,976,1015,1044,1062,1075,1081,1088,1090,1091,1093,1095],"ymouse":[515,515,515,515,515,515,515,515,515,515,515,515,515,515,515,515,515,515,515,515,515,515,515,515,515,515,515,515,515,515,515,515,515,515,515,515,515,515,515,515,515,515,515,515,515,515,515,515,515,515,515,515,515,515,515,515,515,515,515,515,515,515,515,515,515,515,515,515,515,515,515,515,515,515,515,515,515,515,515,515,515,515,515,515,515,515,515,515,515,515,515,515,515,515,515,515,515,515,515,515,515,515,515,515,515,515,515,515,515,515,515,515,515,515,515,515,515,515,515,515,515,515,515,515,515,515,515,515,515,515,515,515,515,515,515,515,515,515,515,515,515,515,515,515,515,515,515,515,515,515,515,515,515,515,515,515,515,515,515,515,515,515,515,515,515,515,515,515,515,515,515,515,515,515,515,515,515,515,515,515,515,515,515,515,515,515,515,515,515,515,515,515,515,515,515,515,515,515,515,515,515,515,515,515,515,515,515,515,515,515,515,515,515,515,515,515,515,515,515,515,515,515,515,515,515,515,515,515,515,515,515,515,515,515,515,515,515,515,515,515,515,515,515,515,515,515,515,515,515,515,515,515,515,515,515,515,515,515,515,515,515,515,515,515,515,515,515,515,515,515,515,515,515,515,515,515,515,515,515,515,515,515,515,515,515,515,515,515,515,515,515,515,515,515,515,515,515,515,515,515,515,515,515,515,515,515,515,515,515,515,515,515,515,515,515,515,514,509,499,487,479,477,467,445,435,424,411,392,349,303,270,233,205,162,146,127,111,94],"timestamp_mouse":[13,34,50,70,90,109,131,150,169,190,211,230,250,270,289,310,330,349,370,390,409,431,451,471,491,511,530,549,569,590,611,629,651,670,690,710,731,749,771,790,809,830,849,871,890,910,931,951,969,991,1012,1030,1049,1069,1089,1109,1130,1149,1169,1191,1211,1231,1250,1271,1290,1309,1330,1351,1369,1391,1410,1430,1450,1470,1490,1510,1529,1549,1570,1589,1609,1630,1649,1670,1690,1710,1730,1750,1769,1791,1810,1829,1850,1869,1890,1910,1929,1949,1970,1990,2011,2029,2050,2071,2089,2110,2129,2149,2170,2191,2211,2230,2250,2269,2290,2310,2330,2350,2371,2390,2410,2429,2450,2469,2491,2511,2531,2549,2570,2590,2611,2630,2649,2670,2689,2711,2729,2750,2770,2791,2811,2829,2849,2870,2890,2911,2931,2951,2971,2990,3011,3029,3050,3070,3090,3110,3130,3149,3170,3189,3210,3230,3251,3270,3290,3311,3330,3350,3370,3390,3409,3430,3449,3470,3490,3510,3529,3549,3570,3589,3610,3631,3650,3670,3690,3711,3731,3751,3770,3790,3809,3831,3849,3869,3891,3911,3930,3950,3970,3989,4011,4030,4050,4069,4090,4110,4130,4150,4170,4191,4209,4231,4250,4269,4289,4310,4330,4350,4370,4390,4410,4429,4449,4470,4491,4509,4531,4550,4571,4590,4610,4631,4650,4669,4690,4710,4729,4751,4771,4789,4810,4830,4851,4869,4890,4911,4930,4950,4971,4990,5009,5029,5050,5070,5091,5109,5130,5151,5171,5190,5210,5231,5250,5270,5290,5309,5330,5349,5369,5391,5409,5430,5450,5470,5489,5511,5530,5550,5570,5590,5611,5629,5650,5670,5689,5711,5729,5749,5770,5790,5809,5829,5850,5869,5891,5909,5930,5951,5970,5990,6011,6031,6049,6070,6090,6109,6131,6151,6170,6190,6209,6230,6250,6269,6290,6310,6330,6351,6370,6390,6410,6431,6450,6470,6490,6509,6530,6550,6570,6589,6609,6630,6651,6670,6689,6710,6729,6749],"xSR":741.5,"ySR":469.95,"xT1":424.9,"yT1":0,"xT2":1058.1,"yT2":0,"toosoon":0,"cond_shown":"Incongruent","ratio_trial":300,"L_num":4,"L_den":20,"R_num":2,"R_den":4,"correct_side":2,"subjID":"ElenaAponteEspitia38","gender":"1","school":"6","age":"11"},{"start_time":1551793989795,"click_time":1551793992142,"finger_time":1551793991503,"fix_duration":831.2778281885978,"trial":8,"RT":1708,"MT":639,"sideResp":1,"stimulus":[],"xmouse":[791,791,791,791,791,791,791,791,791,791,791,791,791,791,791,791,791,791,791,791,791,791,791,791,791,791,791,791,791,791,791,791,791,791,791,791,791,791,791,791,791,791,791,791,791,791,791,791,791,791,791,791,791,791,791,791,791,791,791,791,791,791,791,791,791,792,792,792,792,792,792,792,792,792,792,792,792,792,792,792,792,792,790,786,777,761,745,705,693,682,674,664,644,632,622,614,610,595,577,568,562,557,548,546,545,544,544,543,543,540,538,534,525,523,520,519,518,515],"ymouse":[537,537,537,537,537,537,537,537,537,537,537,537,537,537,537,537,537,537,537,537,537,537,537,537,537,537,537,537,537,537,537,537,537,537,537,537,537,537,537,537,537,537,537,537,537,537,537,537,537,537,537,537,537,537,537,537,537,537,537,537,537,537,537,537,537,538,539,540,540,540,540,540,540,540,540,540,540,540,540,539,538,535,527,513,491,462,436,374,351,333,319,304,277,263,252,244,239,222,201,189,179,169,149,144,143,140,137,135,135,132,127,123,109,106,103,101,100,95],"timestamp_mouse":[10,34,47,68,86,108,126,147,167,187,207,227,247,267,287,308,326,346,367,386,407,427,446,468,487,508,526,548,566,588,606,627,647,666,688,707,728,747,767,787,807,827,847,867,888,907,928,947,966,986,1008,1027,1048,1068,1086,1108,1146,1148,1167,1187,1206,1227,1248,1268,1288,1308,1326,1347,1367,1388,1407,1427,1447,1467,1486,1506,1527,1547,1568,1587,1606,1628,1647,1666,1687,1708,1728,1746,1766,1787,1807,1828,1847,1866,1887,1907,1928,1948,1968,1986,2006,2028,2047,2067,2086,2107,2127,2146,2168,2188,2207,2227,2248,2266,2287,2307,2327,2347],"xSR":741.5,"ySR":469.95,"xT1":424.9,"yT1":0,"xT2":1058.1,"yT2":0,"toosoon":0,"cond_shown":"Incongruent","ratio_trial":200,"L_num":6,"L_den":20,"R_num":3,"R_den":6,"correct_side":2,"subjID":"ElenaAponteEspitia38","gender":"1","school":"6","age":"11"},{"start_time":1551793997573,"click_time":1551793999442,"finger_time":1551793999002,"fix_duration":829.9457255288438,"trial":9,"RT":1429,"MT":440,"sideResp":2,"stimulus":[],"xmouse":[819,819,819,821,821,821,821,821,821,821,821,821,821,821,821,821,821,821,821,821,821,821,821,821,821,821,821,821,821,821,821,821,821,821,821,821,821,821,821,821,821,821,821,821,821,821,821,821,821,821,821,821,821,821,821,821,821,821,821,821,821,821,821,821,821,821,821,821,821,829,840,857,876,915,936,951,961,973,1004,1024,1034,1041,1047,1055,1058,1063,1068,1073,1106,1121,1132,1140,1145,1146],"ymouse":[551,552,552,557,557,557,557,557,557,557,557,557,557,557,557,557,557,557,557,557,557,557,557,557,557,557,557,557,557,557,557,557,557,557,557,557,557,557,557,557,557,557,557,557,557,557,557,557,557,557,557,557,557,557,557,557,557,557,557,557,557,557,557,557,557,557,557,557,557,544,525,502,467,390,346,317,291,266,225,197,183,168,159,146,144,140,136,134,127,122,116,109,101,87],"timestamp_mouse":[10,32,48,68,88,108,128,149,169,188,209,229,248,268,289,308,329,348,369,388,409,430,448,470,488,508,528,549,568,588,610,628,649,668,688,708,728,748,768,788,809,829,848,868,889,908,930,948,969,988,1008,1029,1048,1068,1089,1109,1128,1148,1170,1188,1208,1229,1248,1269,1288,1308,1329,1348,1368,1388,1410,1429,1448,1469,1489,1508,1529,1548,1569,1588,1608,1628,1649,1668,1689,1708,1729,1748,1769,1789,1808,1828,1849,1869],"xSR":741.5,"ySR":469.95,"xT1":424.9,"yT1":0,"xT2":1058.1,"yT2":0,"toosoon":0,"cond_shown":"Congruent","ratio_trial":300,"L_num":1,"L_den":30,"R_num":8,"R_den":24,"correct_side":2,"subjID":"ElenaAponteEspitia38","gender":"1","school":"6","age":"11"},{"start_time":1551794000499,"click_time":1551794003723,"finger_time":1551794002582,"fix_duration":297.2633869320781,"trial":10,"RT":2083,"MT":1141,"sideResp":1,"stimulus":[],"xmouse":[787,787,787,787,787,787,787,787,787,787,787,787,787,787,787,787,787,787,787,787,787,787,787,787,787,787,787,787,787,787,787,787,787,788,790,791,792,792,792,792,792,792,792,792,792,792,792,792,792,792,792,792,792,792,792,792,792,792,792,792,792,792,792,792,792,792,792,792,792,792,792,792,792,792,792,792,792,792,792,792,792,792,792,791,792,794,795,796,796,796,797,799,807,809,814,818,820,821,821,821,821,821,821,821,821,823,826,828,829,829,829,829,829,829,829,829,829,829,829,829,829,829,829,829,829,829,829,829,829,829,829,829,829,829,829,829,829,829,829,829,829,829,827,820,814,808,799,772,752,732,718,705,686,667,654,639,626,600,590,580,568,519],"ymouse":[508,508,508,508,508,508,508,508,508,508,508,508,508,508,508,508,508,508,508,508,508,508,508,508,508,508,508,508,508,508,508,508,508,509,509,508,508,508,508,508,508,508,508,508,508,508,508,508,508,508,508,508,508,508,508,508,508,508,508,508,508,508,508,508,508,508,508,508,508,508,508,508,508,508,508,508,508,508,508,508,508,508,508,508,505,503,501,498,498,498,497,495,487,484,481,478,475,474,474,474,474,474,473,470,467,463,459,456,455,455,455,455,455,455,454,454,452,451,451,451,451,451,451,451,451,451,451,451,451,451,451,451,451,451,451,451,451,451,451,451,451,451,446,426,406,389,368,305,263,227,194,164,124,96,78,61,46,25,20,18,18,28],"timestamp_mouse":[2,23,44,62,83,103,122,142,162,184,202,224,242,263,282,302,322,342,362,383,404,422,442,463,482,503,522,542,563,582,602,623,644,663,683,703,723,742,762,783,803,822,843,862,882,902,924,942,963,982,1002,1023,1042,1063,1083,1103,1123,1142,1163,1182,1203,1222,1242,1262,1283,1303,1323,1342,1363,1382,1403,1422,1442,1462,1483,1504,1522,1543,1562,1583,1603,1623,1643,1663,1683,1702,1722,1744,1762,1782,1803,1822,1842,1862,1883,1902,1924,1942,1962,1983,2003,2022,2043,2062,2083,2102,2122,2142,2163,2182,2202,2223,2243,2263,2282,2302,2322,2342,2363,2383,2402,2423,2442,2463,2482,2502,2523,2542,2562,2582,2602,2622,2643,2662,2682,2703,2724,2743,2763,2783,2803,2824,2843,2864,2882,2902,2923,2942,2964,2982,3002,3024,3042,3063,3083,3102,3124,3142,3163,3182,3203,3224],"xSR":741.5,"ySR":469.95,"xT1":424.9,"yT1":0,"xT2":1058.1,"yT2":0,"toosoon":0,"cond_shown":"Congruent","ratio_trial":300,"L_num":11,"L_den":22,"R_num":4,"R_den":20,"correct_side":1,"subjID":"ElenaAponteEspitia38","gender":"1","school":"6","age":"11"},{"start_time":1551794005242,"click_time":1551794006541,"finger_time":1551794006323,"fix_duration":858.9048703685971,"trial":11,"RT":1081,"MT":218,"sideResp":2,"stimulus":[],"xmouse":[789,789,789,789,789,789,789,789,789,789,789,789,789,791,791,792,793,794,795,795,795,797,797,797,797,797,797,797,797,797,797,797,797,797,797,797,797,797,797,797,797,797,797,797,797,797,797,797,797,801,813,820,829,839,850,883,907,947,986,1012,1058,1070,1073,1076,1079,1088],"ymouse":[542,541,541,541,541,541,541,541,541,541,541,541,541,540,540,539,539,539,539,539,539,539,540,540,540,540,540,540,540,540,540,540,540,540,540,540,540,540,540,540,540,540,540,540,540,540,540,540,540,539,532,527,521,513,503,467,436,388,335,292,201,167,141,121,106,75],"timestamp_mouse":[1,30,39,60,79,99,120,141,159,179,199,220,240,260,279,299,319,339,360,379,400,419,440,460,479,500,519,540,561,579,601,620,640,660,679,701,719,740,759,779,799,820,839,860,880,901,920,939,959,979,1001,1020,1040,1059,1081,1100,1119,1139,1159,1180,1199,1219,1240,1259,1279,1299],"xSR":741.5,"ySR":469.95,"xT1":424.9,"yT1":0,"xT2":1058.1,"yT2":0,"toosoon":0,"cond_shown":"Incongruent","ratio_trial":300,"L_num":13,"L_den":26,"R_num":12,"R_den":15,"correct_side":2,"subjID":"ElenaAponteEspitia38","gender":"1","school":"6","age":"11"},{"start_time":1551794008633,"click_time":1551794010241,"finger_time":1551794009642,"fix_duration":1330.9607974095138,"trial":12,"RT":1009,"MT":599,"sideResp":1,"stimulus":[],"xmouse":[785,785,785,785,785,785,785,785,785,785,785,785,785,785,785,785,785,785,785,785,785,785,785,785,785,785,785,785,785,785,785,785,784,782,782,782,782,782,782,782,782,782,782,782,782,782,782,782,776,771,754,744,729,716,689,621,608,601,599,597,596,596,594,583,562,524,489,481,480,480,480,481,481,483,484,488,489,490,493,503,505],"ymouse":[528,528,528,528,528,528,528,528,528,528,528,528,528,528,528,528,528,528,528,528,528,528,528,528,528,528,528,528,528,528,528,525,522,521,521,521,521,521,521,521,521,521,521,521,521,521,521,518,509,499,468,444,418,394,362,300,290,284,282,281,280,280,278,268,251,219,181,168,163,159,156,155,153,151,148,140,136,131,125,106,95],"timestamp_mouse":[11,40,48,68,90,108,128,148,168,188,210,229,249,269,290,308,330,350,368,389,409,429,448,468,489,508,529,549,568,588,608,629,648,670,689,708,730,748,768,790,808,829,850,868,888,908,928,948,969,989,1009,1028,1049,1069,1088,1108,1128,1148,1168,1188,1208,1228,1248,1268,1288,1308,1328,1349,1368,1388,1408,1428,1448,1468,1489,1509,1528,1548,1568,1590,1608],"xSR":741.5,"ySR":469.95,"xT1":424.9,"yT1":0,"xT2":1058.1,"yT2":0,"toosoon":0,"cond_shown":"Congruent","ratio_trial":200,"L_num":3,"L_den":12,"R_num":9,"R_den":20,"correct_side":2,"subjID":"ElenaAponteEspitia38","gender":"1","school":"6","age":"11"},{"start_time":1551794012086,"click_time":1551794015502,"finger_time":1551794014862,"fix_duration":1004.0856340864742,"trial":13,"RT":2776,"MT":640,"sideResp":1,"stimulus":[],"xmouse":[777,777,777,777,777,777,777,777,777,777,777,777,777,777,776,776,776,777,779,781,781,781,783,783,784,784,784,784,784,784,784,784,784,784,784,784,784,784,784,784,784,784,784,784,784,784,784,784,784,784,784,784,784,784,784,784,784,784,784,784,784,784,784,784,784,784,784,784,784,784,784,784,784,784,784,784,784,784,784,784,784,784,784,784,784,784,784,784,784,784,784,784,784,784,784,784,784,784,784,784,784,784,784,784,784,784,784,784,784,784,784,784,784,784,784,784,784,784,784,784,784,784,784,784,784,784,784,784,784,784,784,784,784,783,781,778,775,768,759,744,724,698,642,619,599,585,581,578,574,568,563,559,556,553,550,543,536,529,526,523,522,518,510,508,505,504,503,503,501,499,496],"ymouse":[507,507,507,507,507,507,507,507,507,507,507,507,507,507,507,507,507,508,508,508,508,508,510,511,512,512,512,512,512,512,512,512,512,512,512,512,512,512,512,512,512,512,512,512,512,512,512,512,512,512,512,512,512,512,512,512,512,512,512,512,512,512,512,512,512,512,512,512,512,512,512,512,512,512,512,512,512,512,512,512,512,512,512,512,512,512,512,512,512,512,512,512,512,512,512,512,512,512,512,512,512,512,512,512,512,512,512,512,512,512,512,512,512,512,512,512,512,512,512,512,512,512,512,512,512,512,512,512,512,512,512,512,512,509,506,502,498,487,466,443,415,369,283,252,230,215,209,203,199,192,187,181,177,174,168,159,149,138,134,129,126,119,111,109,107,106,106,104,102,100,97],"timestamp_mouse":[15,35,55,76,95,117,136,156,176,197,216,235,255,276,295,316,336,355,375,395,415,436,455,476,495,515,535,555,576,596,617,635,656,676,696,715,735,756,775,796,815,835,855,876,897,916,935,955,976,995,1016,1036,1057,1075,1096,1115,1135,1155,1175,1195,1215,1237,1256,1275,1297,1316,1337,1357,1376,1395,1417,1436,1456,1477,1496,1516,1535,1557,1575,1596,1615,1636,1656,1676,1695,1716,1736,1755,1776,1796,1815,1835,1856,1875,1897,1915,1935,1957,1975,1996,2016,2035,2056,2077,2095,2116,2136,2155,2175,2195,2217,2235,2256,2276,2295,2316,2335,2355,2375,2395,2415,2436,2455,2475,2495,2516,2535,2556,2575,2595,2616,2635,2655,2676,2697,2716,2735,2755,2776,2795,2815,2837,2856,2877,2895,2915,2935,2955,2975,2995,3017,3037,3056,3076,3095,3116,3136,3155,3175,3195,3215,3237,3255,3275,3295,3317,3335,3356,3375,3395,3415],"xSR":741.5,"ySR":469.95,"xT1":424.9,"yT1":0,"xT2":1058.1,"yT2":0,"toosoon":0,"cond_shown":"Incongruent","ratio_trial":200,"L_num":11,"L_den":20,"R_num":3,"R_den":4,"correct_side":2,"subjID":"ElenaAponteEspitia38","gender":"1","school":"6","age":"11"},{"start_time":1551794016913,"click_time":1551794019761,"finger_time":1551794018461,"fix_duration":250,"trial":14,"RT":1548,"MT":1300,"sideResp":1,"stimulus":[],"xmouse":[809,810,810,811,811,811,811,811,811,811,811,811,811,811,811,811,811,811,811,811,811,811,811,811,811,811,811,811,811,811,811,811,811,811,811,811,811,811,811,811,811,811,811,811,811,811,811,811,811,811,811,811,811,811,811,811,811,811,811,811,811,811,811,811,811,811,811,811,811,811,811,811,809,804,797,789,770,757,737,713,675,590,582,579,576,575,563,550,535,533,533,533,533,533,533,533,533,533,533,533,533,533,533,533,533,533,533,533,533,533,533,533,533,533,533,533,533,533,533,533,533,533,533,533,533,533,533,533,533,533,533,533,533,533,533,533,533,533,533,533,530,512,501],"ymouse":[539,539,539,540,540,540,540,540,540,540,540,540,540,540,540,540,540,540,540,540,540,540,540,540,540,540,540,540,540,540,540,540,540,540,540,540,540,540,540,540,540,540,540,540,540,540,540,540,540,540,540,540,540,540,540,540,540,540,540,540,540,540,540,540,540,540,540,540,540,540,540,540,537,529,519,509,478,448,412,369,312,210,201,195,192,191,181,170,156,154,154,154,154,154,154,154,154,154,154,154,154,154,154,154,154,154,154,154,154,154,154,154,154,154,154,154,154,154,154,154,154,154,154,154,154,154,154,154,154,154,154,154,154,154,154,154,154,154,153,152,137,105,89],"timestamp_mouse":[11,44,49,69,88,108,128,149,168,189,209,229,249,268,289,309,328,348,368,389,409,428,448,469,490,509,529,549,569,589,610,629,649,668,689,708,730,749,768,789,808,830,848,869,890,910,928,949,969,989,1009,1030,1048,1069,1088,1108,1129,1149,1168,1188,1209,1228,1250,1268,1290,1308,1328,1348,1368,1390,1408,1429,1448,1469,1488,1508,1529,1548,1568,1589,1610,1629,1648,1668,1690,1708,1728,1748,1769,1788,1809,1828,1849,1868,1888,1908,1928,1949,1968,1988,2010,2028,2048,2069,2089,2109,2128,2149,2168,2189,2208,2228,2248,2269,2290,2308,2328,2349,2368,2388,2408,2428,2449,2468,2488,2509,2528,2550,2568,2588,2608,2628,2648,2669,2688,2708,2728,2749,2769,2789,2809,2828,2848],"xSR":741.5,"ySR":469.95,"xT1":424.9,"yT1":0,"xT2":1058.1,"yT2":0,"toosoon":0,"cond_shown":"Incongruent","ratio_trial":300,"L_num":4,"L_den":20,"R_num":2,"R_den":4,"correct_side":2,"subjID":"ElenaAponteEspitia38","gender":"1","school":"6","age":"11"},{"start_time":1551794025021,"click_time":1551794028481,"finger_time":1551794027821,"fix_duration":797.3278496983562,"trial":15,"RT":2800,"MT":660,"sideResp":1,"stimulus":[],"xmouse":[794,795,796,796,798,798,799,799,801,801,801,801,801,801,801,801,801,801,801,801,801,801,801,801,801,801,801,801,801,801,801,801,801,801,801,801,801,801,801,801,801,801,801,801,801,801,801,801,801,801,801,801,801,801,801,801,801,801,801,801,801,801,801,801,801,801,801,801,801,801,801,801,801,801,801,801,801,801,801,801,801,801,801,801,801,801,801,801,801,801,801,801,801,801,801,801,801,801,801,801,801,801,801,801,801,801,801,801,801,801,801,801,801,801,801,801,801,801,801,801,801,801,801,801,801,801,801,801,801,801,801,801,801,801,801,801,801,801,803,806,807,807,805,801,796,785,770,761,752,745,740,731,729,728,723,715,684,670,655,634,606,556,543,528,523,522,521,521,521,521,520,519,517,513],"ymouse":[509,509,509,509,509,509,509,509,508,508,508,508,508,508,508,508,508,508,508,508,508,508,508,508,508,508,508,508,508,508,508,508,508,508,508,508,508,508,508,508,508,508,508,508,508,508,508,508,508,508,508,508,508,508,508,508,508,508,508,508,508,508,508,508,508,508,508,508,508,508,508,508,508,508,508,508,508,508,508,508,508,508,508,508,508,508,508,508,508,508,508,508,508,508,508,508,508,508,508,508,508,508,508,508,508,508,508,508,508,508,508,508,508,508,508,508,508,508,508,508,508,508,508,508,508,508,508,508,508,508,508,508,508,508,508,507,504,496,491,480,469,453,445,434,424,406,382,370,356,347,336,320,317,311,300,287,250,234,219,200,178,145,135,123,118,115,112,111,111,111,110,106,103,96],"timestamp_mouse":[1,34,42,61,80,100,120,140,161,182,200,221,241,262,280,300,321,340,360,380,401,420,440,461,480,500,520,540,560,582,600,621,641,660,680,700,720,740,761,782,800,820,840,860,880,900,920,940,961,980,1001,1020,1041,1061,1081,1100,1122,1140,1160,1181,1201,1220,1241,1261,1280,1301,1320,1341,1361,1380,1400,1422,1440,1461,1481,1501,1520,1540,1560,1580,1601,1622,1640,1661,1681,1702,1722,1741,1760,1781,1800,1822,1840,1860,1881,1900,1922,1940,1961,1980,2000,2020,2040,2060,2081,2100,2121,2142,2160,2181,2200,2220,2240,2260,2280,2301,2320,2342,2360,2381,2400,2420,2440,2461,2480,2502,2520,2540,2560,2581,2600,2621,2640,2660,2681,2700,2720,2741,2761,2781,2800,2820,2841,2867,2880,2901,2920,2941,2962,2980,3001,3020,3041,3060,3080,3102,3121,3140,3160,3180,3200,3220,3241,3262,3280,3300,3320,3340,3360,3380,3401,3421,3440,3460],"xSR":741.5,"ySR":469.95,"xT1":424.9,"yT1":0,"xT2":1058.1,"yT2":0,"toosoon":0,"cond_shown":"Incongruent","ratio_trial":200,"L_num":14,"L_den":30,"R_num":12,"R_den":18,"correct_side":2,"subjID":"ElenaAponteEspitia38","gender":"1","school":"6","age":"11"},{"start_time":1551794032398,"click_time":1551794034342,"finger_time":1551794033701,"fix_duration":1035.0388832188296,"trial":16,"RT":1303,"MT":641,"sideResp":2,"stimulus":[],"xmouse":[815,815,815,815,815,815,815,815,815,815,815,815,815,815,815,815,815,814,814,814,814,814,814,813,813,813,813,813,813,813,813,813,813,813,813,813,813,813,813,813,813,813,813,813,813,813,813,813,813,813,813,813,813,813,813,813,813,813,813,813,813,813,813,824,838,861,898,999,1046,1088,1132,1177,1209,1209,1209,1209,1209,1209,1209,1209,1209,1209,1038,995,971,958,954,951,951,951,952,955,976,999,1026,1055,1078,1108],"ymouse":[525,525,525,525,525,525,525,525,525,525,525,525,525,525,525,525,525,527,527,527,527,527,527,528,528,528,529,529,529,529,529,529,529,529,529,529,529,529,529,529,529,529,529,529,529,529,529,529,529,529,529,529,529,529,529,529,529,529,529,529,529,529,529,526,521,512,496,434,389,332,244,137,29,29,29,29,29,29,29,29,29,29,22,49,68,84,96,112,113,114,115,116,116,112,109,104,101,95],"timestamp_mouse":[10,23,44,63,84,103,123,143,164,183,204,224,243,263,285,303,324,343,363,384,404,424,443,464,484,504,525,544,563,584,605,624,643,664,684,704,725,744,764,785,803,825,843,864,883,904,925,943,965,984,1003,1024,1043,1065,1083,1105,1123,1143,1163,1183,1203,1224,1243,1264,1283,1303,1323,1343,1364,1384,1403,1423,1443,1464,1483,1503,1523,1544,1563,1584,1603,1624,1643,1663,1684,1704,1724,1743,1764,1783,1803,1823,1844,1863,1883,1903,1924,1944],"xSR":741.5,"ySR":469.95,"xT1":424.9,"yT1":0,"xT2":1058.1,"yT2":0,"toosoon":0,"cond_shown":"Congruent","ratio_trial":100,"L_num":4,"L_den":8,"R_num":6,"R_den":10,"correct_side":2,"subjID":"ElenaAponteEspitia38","gender":"1","school":"6","age":"11"},{"start_time":1551794035593,"click_time":1551794037561,"finger_time":1551794037141,"fix_duration":250,"trial":17,"RT":1548,"MT":420,"sideResp":2,"stimulus":[],"xmouse":[827,826,821,818,813,806,797,791,789,789,789,789,789,789,789,789,789,789,789,789,789,789,789,789,789,789,789,789,789,789,789,789,789,789,789,789,789,789,789,789,789,789,789,789,789,789,789,789,789,789,789,789,789,789,789,789,789,789,789,789,789,789,789,789,789,789,789,789,789,789,789,789,789,789,789,789,790,809,829,854,879,909,949,971,990,1007,1020,1034,1042,1044,1044,1044,1044,1044,1044,1046,1046,1054,1066],"ymouse":[501,502,506,510,515,521,529,537,539,539,539,539,539,539,539,539,539,539,539,539,539,539,539,537,536,533,531,526,526,526,526,526,526,526,526,526,526,526,526,526,526,526,526,526,526,526,526,526,526,526,526,526,526,526,526,526,526,526,526,526,526,526,526,526,526,526,526,526,526,526,526,526,526,526,519,515,503,441,402,358,317,274,202,163,131,100,73,38,24,20,20,20,20,20,20,20,26,43,57],"timestamp_mouse":[10,33,48,69,88,108,128,148,169,188,209,229,249,269,290,308,328,349,368,389,409,430,448,468,489,509,528,548,569,589,609,629,648,669,689,710,728,748,769,789,808,829,849,870,889,908,929,948,968,989,1008,1029,1050,1069,1089,1108,1129,1149,1168,1189,1210,1230,1248,1269,1288,1308,1328,1348,1369,1388,1410,1428,1448,1468,1488,1509,1529,1548,1568,1588,1608,1629,1648,1668,1688,1709,1729,1749,1768,1788,1809,1828,1848,1868,1888,1908,1930,1948,1968],"xSR":741.5,"ySR":469.95,"xT1":424.9,"yT1":0,"xT2":1058.1,"yT2":0,"toosoon":0,"cond_shown":"Incongruent","ratio_trial":100,"L_num":10,"L_den":25,"R_num":9,"R_den":18,"correct_side":2,"subjID":"ElenaAponteEspitia38","gender":"1","school":"6","age":"11"},{"start_time":1551794039094,"click_time":1551794043241,"finger_time":1551794040483,"fix_duration":652.0319177946251,"trial":18,"RT":1389,"MT":2758,"sideResp":1,"stimulus":[],"xmouse":[759,759,759,759,759,759,759,759,759,759,759,759,759,760,761,761,761,762,764,765,766,768,769,769,769,769,769,769,769,769,769,769,769,769,769,769,769,769,769,769,769,769,769,769,769,769,769,769,769,769,769,769,769,771,776,781,785,791,792,792,792,792,792,792,792,792,793,809,827,846,864,876,887,887,888,888,888,888,888,888,888,888,888,888,886,886,886,886,886,886,886,886,885,885,885,885,885,885,885,885,885,885,885,885,885,885,885,885,885,885,885,885,885,885,885,885,885,885,885,885,885,885,885,885,885,885,885,885,885,885,885,885,885,885,885,885,885,885,885,885,885,885,885,885,885,885,885,885,885,885,885,885,885,885,885,885,885,885,885,885,885,885,885,885,885,885,885,885,875,861,848,828,786,748,744,744,738,698,691,687,686,686,686,688,688,686,681,656,625,614,575,565,544,544,543,543,543,543,543,543,543,543,541,539,537,533,525,523],"ymouse":[513,513,513,513,513,513,513,513,513,513,513,513,513,513,513,513,513,513,512,511,511,511,511,511,511,511,511,511,511,511,511,511,511,511,511,511,511,511,511,511,511,511,511,511,511,511,511,511,511,511,511,511,511,511,507,503,500,495,494,494,494,494,494,494,494,494,492,484,477,467,456,448,437,435,434,434,434,434,434,434,434,434,434,433,433,433,433,433,433,433,433,433,432,432,432,432,432,432,432,432,432,432,432,432,432,432,432,432,432,432,432,432,432,432,432,432,432,432,432,432,432,432,432,432,431,431,431,431,431,431,431,431,431,431,431,431,431,431,431,431,431,431,431,431,431,431,431,431,431,431,431,431,431,431,431,431,431,431,431,431,431,431,431,431,431,431,431,430,420,406,394,377,342,317,315,315,310,276,266,261,261,261,258,250,248,241,226,188,161,154,132,125,107,106,106,106,106,106,106,106,106,106,102,100,96,92,80,76],"timestamp_mouse":[10,35,47,68,87,107,128,147,167,188,207,228,247,268,287,307,328,347,367,388,407,428,447,467,487,507,528,547,567,587,609,627,647,667,687,707,728,747,767,788,807,827,847,867,889,909,928,948,968,987,1008,1027,1047,1067,1088,1107,1128,1148,1169,1187,1207,1227,1248,1267,1288,1307,1328,1347,1368,1388,1408,1427,1447,1467,1487,1508,1527,1547,1568,1587,1607,1628,1647,1667,1688,1709,1728,1747,1768,1788,1808,1827,1848,1867,1888,1907,1927,1947,1969,1988,2007,2028,2047,2068,2088,2108,2128,2148,2167,2187,2207,2228,2248,2267,2287,2307,2327,2348,2369,2388,2408,2428,2447,2467,2488,2508,2539,2547,2568,2588,2608,2628,2647,2667,2689,2708,2729,2748,2767,2788,2808,2828,2848,2868,2887,2907,2928,2948,2968,2987,3007,3028,3048,3068,3087,3107,3129,3148,3168,3187,3209,3229,3248,3267,3289,3307,3328,3347,3367,3387,3408,3427,3447,3468,3488,3509,3528,3548,3567,3588,3607,3629,3647,3667,3688,3709,3728,3748,3767,3788,3807,3828,3848,3867,3889,3908,3928,3947,3967,3987,4007,4027,4049,4068,4089,4108,4127,4147],"xSR":741.5,"ySR":469.95,"xT1":424.9,"yT1":0,"xT2":1058.1,"yT2":0,"toosoon":0,"cond_shown":"Congruent","ratio_trial":100,"L_num":11,"L_den":22,"R_num":4,"R_den":10,"correct_side":1,"subjID":"ElenaAponteEspitia38","gender":"1","school":"6","age":"11"},{"start_time":1551794044422,"click_time":1551794047242,"finger_time":1551794046623,"fix_duration":259.68385120786587,"trial":19,"RT":2201,"MT":619,"sideResp":2,"stimulus":[],"xmouse":[785,785,785,785,785,785,785,785,785,785,785,785,785,785,785,785,785,785,785,785,785,785,785,785,785,785,785,785,785,785,785,785,785,785,785,785,785,785,785,785,785,785,785,785,785,783,783,783,783,783,783,783,783,783,783,783,783,783,783,783,783,783,783,783,783,783,783,783,783,783,783,783,783,783,783,783,783,783,783,783,783,783,783,783,783,783,783,783,783,783,783,783,783,783,783,783,783,783,783,783,783,783,783,783,783,787,791,796,808,851,869,886,895,903,918,930,937,941,943,950,959,961,961,970,977,992,992,992,992,999,1015,1022,1028,1030,1030,1030,1030,1030,1032,1037,1060],"ymouse":[538,538,538,538,538,538,538,538,538,538,538,538,538,538,538,538,538,538,538,538,538,538,538,538,538,538,538,538,538,538,538,538,538,538,538,538,538,538,538,538,538,538,538,537,535,532,532,532,532,532,532,532,532,532,532,532,532,532,532,532,532,532,532,532,532,532,532,532,532,532,532,532,532,532,532,532,532,532,532,532,532,532,532,532,532,532,532,532,532,532,532,532,532,532,532,532,532,532,532,532,532,532,532,532,532,523,517,508,487,413,381,345,321,296,248,215,200,189,183,172,152,146,146,137,131,117,117,117,117,112,104,98,92,89,87,87,87,87,87,87,87],"timestamp_mouse":[35,40,59,79,100,121,139,160,180,199,220,240,260,279,299,319,341,359,380,400,419,439,460,480,499,520,540,560,579,601,621,639,660,680,700,719,739,759,779,799,821,839,859,880,900,919,940,960,979,999,1020,1040,1060,1081,1099,1119,1139,1160,1181,1199,1219,1239,1259,1280,1299,1319,1340,1361,1379,1400,1421,1439,1459,1479,1501,1520,1539,1559,1579,1599,1619,1639,1661,1679,1699,1719,1739,1760,1779,1799,1819,1839,1861,1879,1899,1921,1939,1959,1980,2000,2019,2041,2059,2079,2100,2119,2140,2159,2179,2201,2219,2239,2259,2279,2301,2319,2339,2360,2381,2400,2419,2439,2460,2480,2500,2519,2539,2559,2579,2599,2620,2640,2659,2679,2699,2719,2739,2759,2779,2800,2820],"xSR":741.5,"ySR":469.95,"xT1":424.9,"yT1":0,"xT2":1058.1,"yT2":0,"toosoon":0,"cond_shown":"Congruent","ratio_trial":200,"L_num":6,"L_den":12,"R_num":7,"R_den":10,"correct_side":2,"subjID":"ElenaAponteEspitia38","gender":"1","school":"6","age":"11"},{"start_time":1551794048672,"click_time":1551794051541,"finger_time":1551794050482,"fix_duration":528.4513410757355,"trial":20,"RT":1810,"MT":1059,"sideResp":2,"stimulus":[],"xmouse":[800,800,799,798,798,797,797,797,797,797,797,797,797,796,796,795,795,795,795,795,795,795,795,795,795,795,795,795,795,795,795,795,795,793,793,793,793,792,792,792,792,792,792,792,792,792,792,792,792,792,792,792,792,792,792,792,792,792,792,792,792,792,792,792,792,792,792,792,792,792,792,792,792,792,792,792,792,792,792,793,794,797,798,803,805,807,810,818,821,823,824,824,824,822,822,822,822,822,822,822,822,822,822,822,822,822,822,822,822,822,822,822,822,822,822,822,822,822,822,822,822,822,822,822,822,822,827,838,870,888,895,896,902,909,916,920,922,933,939,956,974,999,1018,1088],"ymouse":[534,535,537,539,542,543,545,545,545,545,545,545,545,548,549,550,551,552,552,552,552,552,552,552,552,552,552,552,552,552,552,553,553,556,556,556,556,556,556,556,556,556,556,556,556,556,556,556,556,556,556,556,556,556,556,556,556,556,558,560,561,561,561,561,561,561,561,561,561,561,561,561,559,557,557,557,557,557,556,559,561,561,559,553,549,546,538,509,496,478,462,448,438,428,428,428,428,428,428,428,428,428,428,428,428,428,428,428,428,428,428,428,428,428,428,428,428,428,428,428,428,428,428,428,428,424,415,398,363,342,332,329,317,291,266,256,250,230,221,201,181,157,136,39],"timestamp_mouse":[9,29,51,69,90,110,129,150,171,189,210,231,249,269,290,309,329,350,370,389,409,429,450,469,490,509,530,550,569,590,609,629,649,670,690,709,729,750,769,790,809,830,849,869,889,910,929,950,969,990,1009,1031,1050,1069,1091,1110,1131,1149,1169,1189,1211,1229,1249,1271,1290,1310,1330,1351,1369,1389,1410,1430,1449,1469,1490,1510,1529,1551,1569,1590,1609,1629,1650,1671,1689,1710,1729,1751,1771,1789,1810,1830,1851,1869,1889,1909,1930,1950,1970,1990,2009,2029,2051,2069,2089,2111,2130,2150,2169,2189,2210,2230,2249,2269,2289,2309,2329,2349,2369,2390,2409,2429,2449,2469,2489,2509,2529,2550,2569,2589,2609,2629,2650,2670,2690,2709,2729,2751,2769,2790,2809,2829,2849,2869],"xSR":741.5,"ySR":469.95,"xT1":424.9,"yT1":0,"xT2":1058.1,"yT2":0,"toosoon":0,"cond_shown":"Congruent","ratio_trial":100,"L_num":1,"L_den":2,"R_num":3,"R_den":5,"correct_side":2,"subjID":"ElenaAponteEspitia38","gender":"1","school":"6","age":"11"},{"start_time":1551794055424,"click_time":1551794058141,"finger_time":1551794057642,"fix_duration":1179.2207426102198,"trial":21,"RT":2218,"MT":499,"sideResp":1,"stimulus":[],"xmouse":[805,805,805,805,805,805,805,805,805,805,805,805,805,805,805,805,805,806,806,806,806,806,806,806,806,806,806,806,806,806,806,806,806,806,806,806,806,806,806,806,806,806,806,806,806,806,806,806,806,806,806,806,806,806,806,806,806,806,806,806,806,806,806,806,806,806,806,806,806,806,806,806,806,806,806,806,806,806,806,806,806,806,806,806,806,806,806,806,806,806,806,806,806,806,806,806,806,806,806,806,806,806,806,806,806,806,805,802,799,794,780,766,744,714,687,628,602,595,592,587,574,571,570,568,567,561,560,557,555,552,544,539,532,530,528,522],"ymouse":[518,518,518,518,518,518,518,518,518,518,518,518,518,518,518,518,518,518,518,518,518,518,518,518,518,518,518,516,514,514,514,514,514,514,514,514,514,514,514,514,514,514,514,514,514,514,514,514,514,514,514,514,514,514,514,514,514,514,514,514,514,514,514,514,514,514,514,514,514,514,514,514,514,514,514,514,514,514,514,514,514,514,514,514,514,514,514,514,514,514,514,514,514,514,514,514,514,514,514,514,514,514,514,514,514,510,503,498,491,485,455,432,397,341,294,199,155,135,116,104,89,86,85,84,82,77,76,74,73,71,64,60,55,54,52,47],"timestamp_mouse":[22,38,57,78,98,117,137,157,178,199,217,237,257,278,297,317,338,358,377,398,419,437,458,478,497,519,538,557,577,597,618,638,658,677,697,717,738,757,777,797,818,838,858,879,898,917,938,957,977,997,1017,1037,1057,1078,1097,1118,1137,1157,1177,1197,1217,1237,1257,1278,1297,1317,1337,1357,1378,1397,1417,1437,1458,1477,1497,1518,1537,1557,1577,1597,1618,1637,1657,1678,1698,1718,1737,1757,1777,1797,1818,1837,1857,1877,1897,1917,1937,1957,1977,1997,2017,2036,2058,2078,2097,2117,2138,2158,2178,2198,2218,2237,2258,2277,2298,2317,2337,2357,2377,2398,2418,2437,2457,2477,2497,2517,2537,2557,2577,2597,2617,2637,2657,2677,2697,2717],"xSR":741.5,"ySR":469.95,"xT1":424.9,"yT1":0,"xT2":1058.1,"yT2":0,"toosoon":0,"cond_shown":"Congruent","ratio_trial":300,"L_num":1,"L_den":3,"R_num":19,"R_den":30,"correct_side":2,"subjID":"ElenaAponteEspitia38","gender":"1","school":"6","age":"11"},{"start_time":1551794062613,"click_time":1551794064881,"finger_time":1551794064441,"fix_duration":250,"trial":22,"RT":1828,"MT":440,"sideResp":2,"stimulus":[],"xmouse":[812,812,812,812,812,812,812,812,811,810,806,800,798,798,798,798,798,798,798,798,798,798,798,798,798,798,798,798,798,798,798,798,798,798,798,798,798,798,798,798,798,798,798,798,798,798,798,798,798,798,798,796,796,796,796,796,796,796,796,796,796,796,796,796,796,796,796,796,796,796,796,796,796,796,796,796,796,796,796,796,796,797,799,800,801,804,815,820,825,829,833,842,850,859,871,884,921,935,954,973,993,1028,1049,1066,1083,1104,1150,1161,1166,1171,1173,1172,1161,1147],"ymouse":[503,503,503,503,503,503,503,503,503,503,503,503,504,504,504,504,504,504,504,504,504,504,504,504,504,504,504,504,504,504,504,504,504,504,504,504,504,504,504,504,504,504,504,504,504,504,504,504,504,504,504,504,504,504,504,504,504,504,504,504,504,504,504,504,504,504,504,504,504,504,504,504,504,504,504,504,504,504,504,504,503,502,501,500,499,498,494,491,489,488,486,480,476,468,459,447,412,395,371,344,316,267,238,218,204,191,157,142,127,112,99,77,64,53],"timestamp_mouse":[9,44,48,68,89,108,128,148,169,188,208,229,249,268,288,309,328,349,368,388,408,428,449,468,488,509,528,548,568,588,608,629,648,669,688,709,728,748,768,789,809,828,849,868,888,908,928,948,968,988,1009,1028,1048,1068,1088,1108,1128,1148,1168,1189,1209,1228,1248,1269,1289,1309,1329,1348,1369,1388,1408,1428,1449,1468,1488,1508,1528,1549,1568,1589,1609,1628,1648,1667,1688,1708,1728,1748,1769,1788,1808,1828,1848,1868,1888,1909,1928,1948,1969,1989,2008,2027,2049,2068,2089,2109,2128,2148,2168,2189,2208,2229,2248,2268],"xSR":741.5,"ySR":469.95,"xT1":424.9,"yT1":0,"xT2":1058.1,"yT2":0,"toosoon":0,"cond_shown":"Congruent","ratio_trial":200,"L_num":11,"L_den":22,"R_num":3,"R_den":10,"correct_side":1,"subjID":"ElenaAponteEspitia38","gender":"1","school":"6","age":"11"},{"start_time":1551794066466,"click_time":1551794073441,"finger_time":1551794073121,"fix_duration":604.2470077042915,"trial":23,"RT":6655,"MT":320,"sideResp":1,"stimulus":[],"xmouse":[772,772,772,771,767,762,759,758,756,756,756,756,756,756,756,756,756,756,756,756,756,756,756,756,756,756,755,755,755,755,755,755,755,755,755,755,755,755,755,755,755,755,755,755,755,755,755,756,756,756,757,757,758,758,759,759,759,759,759,759,760,760,760,761,762,763,764,766,767,769,770,771,773,775,776,777,779,780,782,782,783,783,783,783,783,783,783,783,783,783,783,783,783,783,783,783,783,783,783,783,783,783,783,783,783,783,783,783,783,783,783,783,783,783,783,783,783,783,786,789,792,796,798,801,802,807,810,810,810,810,810,810,810,810,810,810,810,810,810,810,810,810,810,810,810,810,810,810,810,810,810,810,810,810,810,810,810,810,810,810,810,810,810,810,810,810,810,810,810,810,810,810,810,810,810,810,810,810,810,810,810,810,810,810,810,810,810,810,810,810,810,810,810,810,810,810,810,810,810,810,810,810,810,810,810,810,810,810,810,810,810,810,810,810,810,810,810,810,810,810,810,810,810,810,810,810,810,810,810,810,810,810,810,810,810,810,810,810,810,810,810,810,810,810,810,810,810,810,810,810,810,810,810,810,810,810,810,810,810,810,810,810,810,810,810,810,810,810,810,810,810,810,810,810,810,810,810,810,810,810,810,810,810,810,810,810,810,810,810,810,810,810,810,810,810,810,810,810,810,810,810,810,810,810,810,810,810,810,810,810,810,810,810,810,810,810,810,810,810,810,810,810,810,810,810,810,810,810,810,810,808,803,793,771,763,759,758,757,755,755,754,752,744,715,680,642,602,563,524],"ymouse":[512,512,512,511,511,511,510,510,510,510,510,510,510,510,510,510,510,510,510,510,510,510,510,510,510,510,510,510,509,508,508,508,508,508,508,508,508,508,508,508,508,508,508,508,508,508,508,507,507,507,507,507,507,507,507,507,507,507,507,507,507,507,507,507,507,507,507,506,506,506,506,506,506,505,505,505,505,505,505,505,505,505,505,505,505,505,505,505,505,505,505,505,505,505,505,505,505,505,505,505,505,505,505,505,505,505,505,505,505,504,503,502,500,500,500,500,500,499,495,492,488,487,486,485,485,485,485,485,485,485,485,485,485,485,485,485,485,485,485,485,485,485,485,485,485,485,485,485,485,485,485,485,485,485,485,485,485,485,485,485,485,485,485,485,485,485,485,485,485,485,485,485,485,485,485,485,485,485,485,485,485,485,485,485,485,485,485,485,485,485,485,485,485,485,485,485,485,485,485,485,485,485,485,485,485,485,485,485,485,485,485,485,485,485,485,485,485,485,485,485,485,485,485,485,485,485,485,485,485,485,485,485,485,485,485,485,485,485,485,485,485,485,485,485,485,485,485,485,485,485,485,485,485,485,485,485,485,485,485,485,485,485,485,485,485,485,485,485,485,485,485,485,485,485,485,485,485,485,485,485,485,485,485,485,485,485,485,485,485,485,485,485,485,485,485,485,485,485,485,485,485,485,485,485,485,485,485,485,485,485,485,485,485,485,485,485,485,485,485,485,485,485,485,485,485,485,485,485,485,485,482,479,469,442,424,415,409,404,399,399,396,392,378,334,285,228,173,120,47],"timestamp_mouse":[16,37,56,75,96,116,135,155,176,195,215,235,255,275,295,315,336,355,375,396,415,435,455,475,496,515,535,555,575,595,615,636,655,675,695,715,735,755,776,795,815,835,856,875,896,915,935,954,975,996,1016,1035,1055,1075,1095,1116,1135,1155,1175,1195,1215,1235,1255,1276,1296,1315,1335,1356,1375,1395,1415,1436,1455,1474,1495,1516,1535,1556,1575,1595,1615,1636,1655,1675,1696,1715,1735,1755,1776,1796,1815,1835,1855,1875,1895,1915,1935,1955,1975,1994,2015,2035,2054,2075,2096,2115,2135,2155,2175,2195,2215,2236,2255,2276,2296,2315,2336,2356,2375,2396,2415,2435,2456,2475,2495,2515,2535,2555,2575,2596,2615,2635,2655,2675,2695,2715,2735,2755,2775,2795,2815,2835,2855,2876,2895,2915,2935,2955,2975,2995,3016,3035,3055,3075,3095,3115,3136,3155,3176,3195,3215,3236,3255,3275,3295,3315,3335,3355,3376,3395,3415,3435,3456,3475,3495,3516,3535,3555,3575,3595,3615,3635,3656,3675,3695,3715,3735,3755,3776,3796,3815,3836,3856,3875,3896,3915,3936,3955,3975,3995,4016,4036,4055,4075,4095,4116,4135,4155,4175,4196,4216,4235,4255,4275,4295,4315,4335,4355,4375,4396,4415,4435,4456,4475,4495,4515,4535,4555,4575,4595,4616,4635,4655,4676,4696,4715,4736,4755,4775,4795,4815,4835,4856,4875,4895,4916,4935,4955,4975,4995,5015,5035,5055,5075,5095,5115,5136,5155,5175,5195,5214,5236,5255,5276,5295,5316,5336,5356,5376,5395,5416,5436,5456,5476,5495,5516,5536,5555,5574,5595,5615,5635,5655,5675,5696,5715,5736,5755,5775,5795,5815,5835,5856,5875,5895,5916,5935,5956,5975,5996,6016,6035,6055,6076,6096,6115,6136,6155,6175,6195,6215,6235,6256,6275,6295,6316,6335,6355,6374,6396,6415,6435,6456,6475,6496,6516,6535,6555,6576,6596,6615,6635,6655,6675,6695,6715,6735,6755,6775,6795,6816,6836,6855,6876,6895,6915,6935,6956,6975],"xSR":741.5,"ySR":469.95,"xT1":424.9,"yT1":0,"xT2":1058.1,"yT2":0,"toosoon":0,"cond_shown":"Congruent","ratio_trial":100,"L_num":3,"L_den":6,"R_num":2,"R_den":5,"correct_side":1,"subjID":"ElenaAponteEspitia38","gender":"1","school":"6","age":"11"},{"start_time":1551794076612,"click_time":1551794077762,"finger_time":1551794077341,"fix_duration":328.9946931437906,"trial":24,"RT":729,"MT":421,"sideResp":2,"stimulus":[],"xmouse":[750,750,750,750,750,750,750,750,750,750,750,750,750,750,750,750,750,750,750,750,750,750,750,750,752,752,755,757,757,757,758,763,766,773,782,798,846,871,909,964,1029,1142,1179,1209,1229,1242,1247,1247,1246,1241,1237,1227,1219,1207,1197,1187,1156,1143],"ymouse":[525,525,525,525,525,525,525,525,525,525,525,525,525,525,525,525,525,525,525,525,525,525,525,525,524,523,522,521,521,521,521,520,519,516,511,505,476,459,434,404,372,306,282,263,248,235,221,217,214,212,209,196,187,172,158,145,111,99],"timestamp_mouse":[14,44,49,69,89,109,130,149,168,189,209,230,249,269,289,310,329,349,369,390,410,430,450,469,489,509,529,549,570,589,609,630,649,670,689,709,729,749,769,790,810,829,849,869,889,910,929,950,970,989,1009,1029,1049,1069,1089,1109,1130,1149],"xSR":741.5,"ySR":469.95,"xT1":424.9,"yT1":0,"xT2":1058.1,"yT2":0,"toosoon":0,"cond_shown":"Incongruent","ratio_trial":200,"L_num":7,"L_den":10,"R_num":14,"R_den":28,"correct_side":1,"subjID":"ElenaAponteEspitia38","gender":"1","school":"6","age":"11"},{"start_time":1551794078954,"click_time":1551794081141,"finger_time":1551794079141,"fix_duration":250,"trial":25,"RT":187,"MT":2000,"sideResp":2,"stimulus":[],"xmouse":[807,807,808,808,806,802,793,779,746,718,704,703,703,703,703,705,709,716,727,765,781,793,804,814,823,824,824,824,824,823,820,818,815,814,811,811,810,810,810,809,809,809,809,808,808,807,806,805,803,800,799,798,795,793,788,787,787,787,787,786,786,786,785,785,784,784,784,783,782,781,781,781,785,790,800,803,803,803,803,803,803,805,806,808,810,811,811,812,812,812,812,812,812,812,812,812,812,819,823,861,883,907,941,973,1031,1051,1061,1066,1068,1070],"ymouse":[540,540,540,538,533,527,516,503,481,465,456,456,456,456,456,457,458,463,469,498,509,519,528,537,547,551,554,559,561,569,572,575,579,583,591,594,594,594,594,593,590,588,586,584,575,569,560,553,547,538,536,533,528,523,514,513,513,513,513,512,512,512,512,512,512,512,513,513,513,513,513,508,502,495,485,484,484,484,484,483,483,483,487,492,503,510,517,521,526,531,531,531,531,531,531,531,531,520,512,447,407,367,320,274,194,161,139,121,108,97],"timestamp_mouse":[10,33,47,66,87,108,127,147,168,187,208,228,247,267,287,307,328,347,367,387,407,428,447,467,487,507,528,547,568,588,607,627,647,668,688,707,727,748,767,787,807,827,848,868,887,908,927,947,967,987,1007,1027,1047,1068,1087,1108,1127,1147,1167,1188,1208,1228,1248,1267,1288,1308,1327,1348,1367,1387,1407,1427,1448,1468,1487,1507,1528,1547,1567,1587,1607,1628,1647,1667,1687,1707,1727,1747,1767,1787,1807,1828,1848,1868,1887,1907,1928,1948,1967,1987,2007,2027,2047,2067,2087,2108,2127,2148,2167,2187],"xSR":741.5,"ySR":469.95,"xT1":424.9,"yT1":0,"xT2":1058.1,"yT2":0,"toosoon":0,"cond_shown":"Incongruent","ratio_trial":200,"L_num":1,"L_den":2,"R_num":3,"R_den":10,"correct_side":1,"subjID":"ElenaAponteEspitia38","gender":"1","school":"6","age":"11"},{"start_time":1551794082321,"click_time":1551794084281,"finger_time":1551794083762,"fix_duration":258.4835971928673,"trial":26,"RT":1441,"MT":519,"sideResp":2,"stimulus":[],"xmouse":[788,789,789,789,790,791,791,792,792,792,792,792,792,792,792,791,790,790,789,789,789,789,789,789,787,787,787,787,787,787,787,787,787,787,786,786,786,786,786,786,786,786,787,787,787,787,787,787,787,787,787,791,793,794,794,796,798,799,801,804,807,813,814,814,814,814,815,817,820,821,824,840,852,863,873,884,904,915,927,944,956,956,957,960,960,968,976,987,998,1006,1010,1011,1015,1025,1042,1084,1104,1117,1126],"ymouse":[522,522,522,522,522,522,522,522,521,520,520,520,520,520,519,519,520,520,520,520,520,520,520,520,520,520,520,520,520,520,520,520,520,520,520,520,520,520,520,520,520,518,518,518,518,518,518,518,518,518,518,514,513,511,511,511,511,510,508,505,502,494,493,493,493,493,492,490,490,490,488,475,463,449,433,413,365,340,315,282,212,171,161,159,159,159,159,159,159,158,158,158,158,156,151,130,116,104,96],"timestamp_mouse":[1,20,51,61,80,100,121,140,160,180,201,221,240,261,280,301,321,340,360,380,400,421,440,461,480,500,520,540,559,581,600,620,640,660,680,700,721,740,760,781,800,820,841,860,881,901,920,941,960,981,1001,1020,1041,1061,1080,1101,1120,1140,1160,1181,1200,1221,1240,1261,1281,1300,1321,1340,1361,1381,1401,1421,1441,1460,1481,1501,1521,1539,1560,1580,1601,1619,1641,1660,1681,1702,1719,1741,1760,1780,1801,1820,1840,1860,1880,1901,1920,1940,1960],"xSR":741.5,"ySR":469.95,"xT1":424.9,"yT1":0,"xT2":1058.1,"yT2":0,"toosoon":0,"cond_shown":"Congruent","ratio_trial":300,"L_num":2,"L_den":10,"R_num":12,"R_den":24,"correct_side":2,"subjID":"ElenaAponteEspitia38","gender":"1","school":"6","age":"11"},{"start_time":1551794090008,"click_time":1551794092823,"finger_time":1551794091561,"fix_duration":965.9559607564033,"trial":27,"RT":1553,"MT":1262,"sideResp":2,"stimulus":[],"xmouse":[813,813,813,813,813,813,813,813,813,813,813,813,813,813,813,813,813,813,813,813,813,813,813,813,813,813,813,813,813,813,813,813,813,813,813,813,813,813,813,813,813,813,813,813,813,813,813,813,813,813,813,813,813,813,813,813,813,813,813,813,813,813,813,813,813,813,813,813,813,813,813,814,821,828,834,838,841,842,842,842,842,842,842,842,842,842,842,842,842,842,842,842,842,842,842,840,824,816,812,809,808,808,808,808,808,808,808,808,808,808,808,808,808,805,801,788,767,761,758,754,750,745,755,777,810,840,875,875,875,875,875,875,875,875,875,875,875,875,875,875,1088],"ymouse":[543,543,543,543,543,543,543,543,543,543,543,543,543,543,543,543,543,543,543,543,543,543,543,543,543,543,543,543,543,543,543,543,543,543,543,543,543,543,543,543,543,543,543,543,543,543,543,543,543,543,543,543,543,543,543,543,543,543,543,543,543,543,543,543,543,543,543,543,543,543,543,542,534,521,510,496,487,487,487,487,487,487,487,487,487,487,487,487,487,487,487,487,487,486,486,487,495,499,502,504,504,504,504,504,504,504,504,504,504,504,504,504,504,504,504,498,485,469,442,423,409,363,320,256,183,113,2,2,2,2,2,2,2,2,2,2,2,2,2,2,18],"timestamp_mouse":[14,36,53,73,94,113,134,153,173,194,214,233,253,274,293,313,334,354,373,393,413,433,453,474,494,513,534,554,573,594,613,634,653,673,693,713,734,753,773,794,813,834,853,873,894,914,934,954,974,994,1013,1033,1054,1074,1094,1114,1133,1154,1173,1194,1213,1233,1253,1274,1294,1313,1334,1354,1374,1393,1413,1433,1453,1473,1494,1513,1534,1553,1574,1593,1614,1633,1654,1673,1693,1713,1733,1753,1774,1793,1814,1833,1853,1873,1894,1913,1933,1953,1973,1993,2013,2033,2053,2073,2093,2113,2133,2154,2173,2193,2213,2233,2253,2273,2293,2313,2333,2353,2373,2393,2413,2433,2453,2473,2493,2514,2533,2553,2574,2592,2614,2634,2653,2674,2694,2714,2733,2753,2774,2794,2814],"xSR":741.5,"ySR":469.95,"xT1":424.9,"yT1":0,"xT2":1058.1,"yT2":0,"toosoon":0,"cond_shown":"Congruent","ratio_trial":300,"L_num":20,"L_den":25,"R_num":9,"R_den":18,"correct_side":1,"subjID":"ElenaAponteEspitia38","gender":"1","school":"6","age":"11"},{"start_time":1551794097164,"click_time":1551794100462,"finger_time":1551794099542,"fix_duration":1240.6076977843754,"trial":28,"RT":2378,"MT":920,"sideResp":1,"stimulus":[],"xmouse":[797,797,797,797,797,797,797,797,797,797,797,797,797,797,797,797,797,797,797,797,797,797,797,797,797,797,797,797,797,797,797,797,797,797,797,797,797,797,797,797,797,797,797,797,797,797,797,797,797,797,797,797,797,797,797,797,797,797,797,797,797,797,797,797,797,797,797,797,797,797,797,797,797,797,797,797,797,797,797,797,797,797,797,797,797,797,797,797,797,797,797,797,797,797,797,797,797,797,797,797,797,797,797,797,797,797,797,797,797,797,797,797,797,797,797,797,797,797,910,981,1006,1006,1006,1006,1006,1006,1006,1006,1006,1006,1006,1006,1006,1006,1006,1006,1006,1006,1006,1006,1006,1006,1006,1006,1006,1006,1006,1006,1006,1006,214,240,269,286,290,290,290,290,294,294,295,300,315,390,448],"ymouse":[493,493,493,493,493,493,493,493,493,493,493,493,493,493,493,493,493,493,493,493,493,493,493,493,493,493,493,493,493,493,493,493,493,493,493,493,493,493,493,493,493,493,493,493,493,493,493,493,493,493,493,493,493,493,493,493,493,493,493,493,493,493,493,493,493,493,493,493,493,493,493,493,493,493,493,493,493,493,493,493,493,493,493,493,493,493,493,493,493,493,493,493,493,493,493,493,493,493,493,493,493,493,493,493,493,493,493,493,493,493,493,493,493,493,493,493,493,493,270,101,38,38,38,38,38,38,38,38,38,38,38,38,38,38,38,38,38,38,38,38,38,38,38,38,38,38,38,38,38,38,2,10,22,29,29,29,29,29,26,26,24,24,24,32,41],"timestamp_mouse":[17,42,57,77,98,117,137,158,177,198,218,237,258,277,297,317,337,357,377,397,417,437,457,478,497,517,538,557,577,598,617,637,657,677,697,717,737,758,777,797,817,837,857,877,897,918,938,957,978,997,1017,1038,1057,1077,1098,1118,1137,1157,1177,1198,1218,1237,1258,1278,1297,1317,1338,1357,1378,1397,1417,1437,1457,1478,1497,1518,1537,1557,1577,1597,1617,1637,1657,1677,1697,1717,1737,1758,1777,1797,1817,1838,1857,1877,1897,1917,1937,1957,1977,1998,2017,2038,2057,2078,2098,2117,2137,2157,2177,2198,2217,2237,2257,2277,2297,2317,2337,2358,2378,2397,2417,2438,2457,2478,2496,2517,2537,2558,2577,2597,2617,2637,2658,2678,2697,2718,2737,2758,2777,2797,2817,2837,2858,2877,2897,2918,2938,2958,2977,2997,3016,3037,3058,3077,3098,3117,3137,3159,3177,3198,3217,3237,3257,3277,3298],"xSR":741.5,"ySR":469.95,"xT1":424.9,"yT1":0,"xT2":1058.1,"yT2":0,"toosoon":0,"cond_shown":"Congruent","ratio_trial":100,"L_num":11,"L_den":22,"R_num":6,"R_den":15,"correct_side":1,"subjID":"ElenaAponteEspitia38","gender":"1","school":"6","age":"11"},{"start_time":1551794102814,"click_time":1551794105462,"finger_time":1551794104681,"fix_duration":250,"trial":29,"RT":1867,"MT":781,"sideResp":1,"stimulus":[],"xmouse":[767,767,767,767,767,767,767,767,767,767,767,767,767,767,767,767,767,767,767,767,767,767,767,767,767,767,767,767,767,767,767,767,767,767,767,767,767,767,767,767,767,767,767,767,767,767,767,767,767,767,767,767,767,767,767,767,767,767,767,767,767,767,767,767,767,767,767,767,767,767,767,767,767,767,767,767,767,767,767,767,767,767,767,767,767,767,767,767,767,768,768,758,744,731,718,713,730,733,738,741,741,744,746,746,748,748,744,744,747,751,754,759,760,761,765,775,797,799,802,802,802,798,793,787,782,775,751,747,743,740,731,617,519],"ymouse":[502,502,502,502,502,502,502,502,502,502,502,502,502,502,502,502,502,502,502,502,502,502,502,502,502,502,502,502,502,502,502,502,502,502,502,502,502,502,502,502,502,502,502,502,502,502,502,502,502,502,502,502,502,502,502,502,502,502,502,502,502,502,502,502,502,502,502,502,502,502,502,502,502,502,502,502,502,502,502,502,502,502,502,502,502,502,502,502,502,503,509,540,554,563,578,599,627,625,622,620,620,618,617,614,611,606,583,579,574,571,567,563,562,561,560,556,537,531,523,519,515,502,493,483,475,469,435,418,399,374,341,179,66],"timestamp_mouse":[10,39,47,68,88,108,127,147,168,188,207,227,248,268,286,307,327,347,368,388,406,428,448,467,487,507,528,547,567,588,608,627,647,668,687,707,728,747,768,788,807,827,847,867,887,908,928,948,968,987,1008,1027,1047,1068,1087,1107,1128,1147,1168,1188,1207,1228,1247,1267,1287,1308,1327,1347,1368,1388,1408,1427,1447,1468,1488,1508,1528,1548,1568,1587,1606,1627,1647,1668,1688,1708,1727,1747,1767,1787,1807,1827,1847,1867,1888,1908,1927,1947,1967,1987,2007,2028,2047,2067,2088,2108,2127,2147,2168,2187,2208,2227,2247,2267,2288,2307,2327,2347,2368,2387,2408,2428,2448,2467,2488,2508,2527,2547,2567,2587,2607,2627,2647],"xSR":741.5,"ySR":469.95,"xT1":424.9,"yT1":0,"xT2":1058.1,"yT2":0,"toosoon":0,"cond_shown":"Congruent","ratio_trial":100,"L_num":7,"L_den":14,"R_num":15,"R_den":25,"correct_side":2,"subjID":"ElenaAponteEspitia38","gender":"1","school":"6","age":"11"},{"start_time":1551794109244,"click_time":1551794111582,"finger_time":1551794110581,"fix_duration":320.8953185935931,"trial":30,"RT":1337,"MT":1001,"sideResp":1,"stimulus":[],"xmouse":[775,775,775,776,776,776,776,776,776,776,776,776,776,776,776,776,776,776,776,776,776,776,776,776,776,777,777,778,780,780,780,780,780,781,782,782,782,782,782,782,782,782,782,782,782,782,782,782,782,782,782,782,782,782,782,782,782,783,784,784,785,785,785,786,796,818,838,874,908,927,931,932,933,933,933,933,933,941,957,973,973,973,973,973,973,972,965,955,940,893,868,840,799,761,711,698,684,674,670,668,666,660,651,641,613,602,594,574,529,507,496,493,493,493,492,491,491],"ymouse":[523,523,523,523,523,523,523,523,523,523,523,523,523,523,523,523,523,523,523,523,523,523,523,523,523,523,523,523,523,523,523,523,523,523,523,523,523,523,523,523,523,523,523,523,523,523,523,523,523,523,523,523,523,523,523,523,523,523,523,523,522,522,522,521,510,485,469,443,416,381,369,364,362,362,362,362,360,356,353,348,348,348,348,348,348,348,348,350,352,353,353,353,353,331,293,278,261,243,231,214,208,196,183,171,152,148,146,146,138,132,127,125,125,125,115,101,91],"timestamp_mouse":[17,46,57,78,98,117,137,157,177,197,217,238,257,277,297,317,338,357,377,398,417,437,457,478,498,517,537,557,577,597,617,638,657,677,698,717,738,757,777,797,817,838,858,877,898,916,937,958,978,998,1018,1037,1057,1077,1097,1118,1137,1158,1178,1198,1217,1238,1258,1277,1297,1317,1337,1357,1377,1397,1417,1437,1458,1477,1497,1518,1537,1557,1577,1597,1617,1637,1657,1678,1697,1717,1737,1758,1777,1797,1817,1837,1857,1877,1897,1917,1937,1958,1977,1998,2017,2038,2057,2078,2097,2117,2137,2158,2179,2197,2218,2238,2258,2278,2298,2318,2338],"xSR":741.5,"ySR":469.95,"xT1":424.9,"yT1":0,"xT2":1058.1,"yT2":0,"toosoon":0,"cond_shown":"Congruent","ratio_trial":300,"L_num":11,"L_den":22,"R_num":2,"R_den":10,"correct_side":1,"subjID":"ElenaAponteEspitia38","gender":"1","school":"6","age":"11"},{"start_time":1551794115710,"click_time":1551794117101,"finger_time":1551794116922,"fix_duration":1368.6781344975584,"trial":31,"RT":1212,"MT":179,"sideResp":1,"stimulus":[],"xmouse":[822,822,822,822,822,822,823,826,828,828,828,828,828,829,829,829,829,829,829,829,829,829,829,829,829,829,829,829,829,829,829,829,829,829,829,829,829,829,829,829,829,829,829,829,829,829,829,829,829,829,829,829,829,829,829,829,829,823,814,784,748,676,658,651,645,632,566,519,488,470],"ymouse":[522,522,522,522,522,522,522,522,522,522,522,522,522,522,522,522,522,522,522,522,522,522,522,522,522,522,522,522,522,522,522,522,522,522,522,522,522,522,522,522,522,522,522,522,522,522,522,522,522,522,522,522,522,522,522,522,522,517,509,479,438,363,340,328,315,294,204,157,120,98],"timestamp_mouse":[11,31,52,71,91,111,131,151,172,191,211,231,252,271,291,312,332,352,372,390,411,431,451,471,491,512,531,551,571,591,612,631,651,671,691,711,731,752,771,792,812,831,850,870,892,910,932,950,970,991,1010,1031,1052,1072,1090,1110,1131,1150,1172,1190,1212,1231,1252,1270,1292,1311,1331,1351,1370,1391],"xSR":741.5,"ySR":469.95,"xT1":424.9,"yT1":0,"xT2":1058.1,"yT2":0,"toosoon":0,"cond_shown":"Incongruent","ratio_trial":300,"L_num":4,"L_den":20,"R_num":2,"R_den":4,"correct_side":2,"subjID":"ElenaAponteEspitia38","gender":"1","school":"6","age":"11"},{"start_time":1551794118497,"click_time":1551794120201,"finger_time":1551794118921,"fix_duration":554.8254053630162,"trial":32,"RT":424,"MT":1280,"sideResp":2,"stimulus":[],"xmouse":[813,813,813,813,813,813,813,813,813,813,813,813,813,813,813,813,815,821,825,830,838,845,854,855,855,856,856,856,854,852,849,846,843,843,843,843,843,840,839,837,837,836,835,835,834,830,827,823,821,820,820,820,820,820,819,817,815,810,809,807,806,806,806,806,806,806,806,806,807,816,850,939,971,979,983,986,990,1001,1007,1012,1017,1022,1052,1064,1069,1070],"ymouse":[536,536,536,536,536,536,536,536,536,536,536,536,536,536,536,536,535,533,532,530,526,525,523,523,523,523,523,522,520,520,518,516,513,513,512,512,511,507,505,504,503,502,500,500,499,497,496,494,493,492,492,492,492,492,492,492,494,497,498,500,500,500,500,500,500,500,500,500,500,493,471,398,349,326,309,298,286,265,254,241,224,207,164,146,121,92],"timestamp_mouse":[11,23,52,63,84,103,125,144,164,184,205,223,244,264,284,305,324,345,364,384,404,424,444,464,484,503,524,543,565,584,604,624,643,664,685,705,724,745,765,784,803,823,843,864,885,903,923,944,965,983,1004,1024,1044,1063,1084,1104,1124,1143,1164,1184,1204,1225,1244,1263,1285,1304,1323,1345,1364,1384,1404,1425,1443,1463,1483,1505,1524,1545,1564,1583,1604,1623,1643,1664,1684,1704],"xSR":741.5,"ySR":469.95,"xT1":424.9,"yT1":0,"xT2":1058.1,"yT2":0,"toosoon":0,"cond_shown":"Congruent","ratio_trial":200,"L_num":3,"L_den":10,"R_num":11,"R_den":22,"correct_side":2,"subjID":"ElenaAponteEspitia38","gender":"1","school":"6","age":"11"},{"start_time":1551794121779,"click_time":1551794123841,"finger_time":1551794123422,"fix_duration":735.669456424568,"trial":33,"RT":1643,"MT":419,"sideResp":1,"stimulus":[],"xmouse":[791,794,798,805,807,807,807,807,807,807,807,807,807,807,807,807,807,807,807,807,807,807,807,807,807,807,807,807,807,807,807,807,807,807,807,807,807,807,807,807,807,807,807,807,807,807,807,807,807,807,807,807,807,807,807,807,807,807,807,807,807,807,807,807,807,807,807,807,807,807,807,807,807,807,807,807,807,807,806,802,792,775,754,717,704,686,659,614,481,424,376,341,341,341,341,341,341,341,341,341,341,341,341,433],"ymouse":[531,530,529,527,526,526,526,526,526,526,526,526,526,526,526,526,526,526,526,526,526,526,526,526,526,526,526,526,526,526,526,526,526,526,526,526,526,526,526,526,526,526,526,526,526,526,526,526,526,526,526,526,526,526,526,526,526,526,526,526,526,526,526,526,526,526,526,526,526,526,526,526,526,526,526,526,526,524,518,506,491,472,449,407,384,358,314,263,130,76,35,4,4,4,4,4,4,4,4,4,4,4,4,56],"timestamp_mouse":[3,23,43,61,82,102,122,142,162,182,201,223,241,261,282,303,321,342,361,381,401,423,442,462,482,501,523,542,561,582,601,621,642,662,682,703,721,742,762,783,802,821,843,861,882,903,922,942,961,982,1002,1023,1042,1061,1082,1101,1122,1142,1161,1182,1201,1223,1243,1261,1282,1303,1321,1341,1363,1383,1401,1422,1443,1461,1482,1502,1521,1541,1562,1582,1602,1621,1643,1662,1682,1702,1722,1742,1762,1781,1801,1823,1842,1861,1881,1902,1922,1943,1963,1982,2002,2022,2042,2062],"xSR":741.5,"ySR":469.95,"xT1":424.9,"yT1":0,"xT2":1058.1,"yT2":0,"toosoon":0,"cond_shown":"Incongruent","ratio_trial":300,"L_num":4,"L_den":20,"R_num":2,"R_den":4,"correct_side":2,"subjID":"ElenaAponteEspitia38","gender":"1","school":"6","age":"11"},{"start_time":1551794125393,"click_time":1551794127181,"finger_time":1551794126421,"fix_duration":250,"trial":34,"RT":1028,"MT":760,"sideResp":1,"stimulus":[],"xmouse":[798,798,798,798,798,798,798,798,797,797,797,797,797,797,797,797,797,797,797,797,797,797,797,797,797,797,797,797,797,797,797,797,797,797,797,797,797,797,797,797,797,797,797,797,797,797,797,797,797,809,838,870,895,895,895,895,895,896,896,896,896,896,896,896,896,897,898,898,898,898,898,898,898,898,898,898,898,898,898,880,851,820,770,722,574,527,477],"ymouse":[525,525,525,525,525,525,525,525,525,525,525,525,525,525,525,525,525,525,525,525,525,525,525,525,525,525,525,525,525,525,525,525,525,525,525,525,525,525,525,525,525,525,525,525,525,525,525,525,525,510,493,480,474,474,474,474,474,476,482,485,486,486,486,486,486,486,485,485,485,485,485,485,485,485,485,485,485,477,477,459,434,412,384,357,235,165,82],"timestamp_mouse":[10,32,48,69,88,107,127,149,169,188,208,227,248,267,287,309,327,347,368,388,409,428,449,469,487,507,529,547,567,5