[{"start_time":1551794561357,"click_time":1551794563211,"finger_time":1551794562790,"fix_duration":1162.3658553338971,"trial":0,"RT":1433,"MT":421,"sideResp":2,"stimulus":"img/900/equaldotanddens/R/14_Ratio_900_L_18_R_20.png","xmouse":[799,799,799,799,799,799,799,799,799,799,799,799,799,799,799,799,799,799,799,799,799,799,799,799,799,799,799,799,799,799,799,799,799,799,799,799,800,801,803,805,807,808,808,808,808,808,808,808,808,808,808,808,808,808,808,808,808,808,808,808,808,808,808,808,808,808,808,808,808,811,830,844,862,880,906,952,970,980,987,997,1007,1012,1020,1022,1022,1022,1022,1022,1022,1022,1022,1022,1130],"ymouse":[528,528,528,528,528,528,528,528,528,528,528,528,528,528,528,528,528,528,528,528,528,528,528,528,528,528,528,528,528,528,528,528,528,528,528,528,527,526,523,522,519,518,518,518,518,518,518,518,518,518,518,518,518,518,518,518,518,518,518,518,518,518,518,518,518,518,518,518,517,511,493,482,470,456,434,390,361,342,326,303,262,212,152,35,35,35,35,35,35,35,35,35,22],"timestamp_mouse":[14,43,55,73,95,113,135,154,175,194,214,234,255,273,293,314,334,354,374,393,414,433,454,473,493,514,534,554,574,593,613,633,654,674,694,713,734,753,773,793,815,834,855,874,894,913,935,953,974,993,1015,1034,1053,1075,1094,1113,1134,1154,1174,1195,1213,1234,1254,1274,1295,1314,1333,1355,1375,1393,1414,1433,1455,1474,1494,1513,1534,1554,1574,1594,1614,1633,1655,1674,1695,1714,1734,1754,1774,1793,1814,1834,1854],"xSR":741.5,"ySR":501.8,"xT1":424.9,"yT1":0,"xT2":1058.1,"yT2":0,"toosoon":0,"cond_shown":"equaldotanddens","ratio_trial":900,"smaller_num":"18","larger_num":"20","correct_side":2,"subjID":"ElenaAponteEspitia38","gender":"1","age":"11","school":"6","test":{"fix_dur":[250,1500],"timestim":300,"targets_dim":[100,100],"targets_relative_coord":[0.3,0.7],"size_stim":[880,420],"start_dim":[100,100],"size_start":[300,300],"size_fix":60,"samplingrate":20,"img_types":["equaldotsize","equaldotanddens","randomdotsizeEA"],"ratios":[250,500,750,900],"rep_conds":9,"nTrials":120,"trials_to_rest":500,"Trials_order":[22,115,92,55,34,35,61,38,69,19,21,118,73,117,83,91,15,2,24,11,23,28,56,39,37,72,79,103,110,109,111,114,0,48,46,14,101,68,45,57,54,8,100,116,77,53,76,112,86,52,59,74,41,25,106,62,66,27,104,63,105,64,51,80,50,12,78,70,6,108,85,43,96,93,47,94,4,60,42,10,95,5,89,20,82,44,81,84,49,1,99,107,32,98,119,7,26,16,17,113,102,36,13,87,97,3,31,33,65,18,9,71,67,40,58,75,30,88,90,29],"cond_shown":["equaldotanddens","equaldotanddens","randomdotsizeEA","equaldotanddens","equaldotanddens","randomdotsizeEA","equaldotanddens","randomdotsizeEA","equaldotsize","equaldotanddens","equaldotsize","equaldotanddens","equaldotanddens","equaldotsize","randomdotsizeEA","equaldotanddens","equaldotsize","randomdotsizeEA","equaldotsize","randomdotsizeEA","randomdotsizeEA","equaldotanddens","randomdotsizeEA","equaldotsize","equaldotanddens","equaldotsize","equaldotanddens","equaldotanddens","randomdotsizeEA","equaldotanddens","equaldotsize","equaldotsize","equaldotsize","equaldotsize","equaldotanddens","randomdotsizeEA","randomdotsizeEA","randomdotsizeEA","equaldotsize","equaldotsize","equaldotsize","randomdotsizeEA","equaldotanddens","randomdotsizeEA","randomdotsizeEA","randomdotsizeEA","equaldotanddens","equaldotanddens","randomdotsizeEA","equaldotanddens","randomdotsizeEA","randomdotsizeEA","randomdotsizeEA","equaldotanddens","equaldotanddens","randomdotsizeEA","equaldotsize","equaldotsize","randomdotsizeEA","equaldotsize","equaldotsize","equaldotanddens","equaldotsize","randomdotsizeEA","randomdotsizeEA","equaldotsize","equaldotsize","equaldotanddens","equaldotsize","equaldotsize","equaldotanddens","equaldotanddens","equaldotsize","equaldotsize","randomdotsizeEA","equaldotanddens","equaldotanddens","equaldotsize","equaldotsize","equaldotanddens","randomdotsizeEA","randomdotsizeEA","randomdotsizeEA","randomdotsizeEA","equaldotanddens","randomdotsizeEA","equaldotsize","equaldotsize","equaldotanddens","equaldotanddens","equaldotsize","randomdotsizeEA","randomdotsizeEA","randomdotsizeEA","randomdotsizeEA","equaldotanddens","randomdotsizeEA","equaldotanddens","randomdotsizeEA","randomdotsizeEA","equaldotsize","equaldotsize","equaldotanddens","equaldotsize","equaldotanddens","equaldotsize","equaldotanddens","equaldotsize","randomdotsizeEA","equaldotsize","equaldotsize","randomdotsizeEA","equaldotanddens","equaldotanddens","equaldotanddens","equaldotsize","equaldotsize","equaldotanddens","equaldotsize","randomdotsizeEA"],"ratio_trial":[900,750,750,750,900,900,250,250,900,750,900,900,250,900,900,750,500,250,250,900,900,500,750,500,250,250,750,750,250,250,500,750,250,250,900,250,500,750,900,900,750,750,500,750,500,500,500,500,250,500,900,250,500,250,900,250,750,500,750,500,900,500,500,750,250,250,750,900,750,250,250,750,250,900,900,900,500,250,750,900,900,500,500,750,900,750,900,250,250,250,500,900,750,250,900,750,250,500,500,500,750,250,250,500,250,500,750,900,500,750,900,900,750,500,900,500,750,500,750,500],"smaller_num":["18","6","6","6","18","18","5","6","18","6","18","18","5","18","18","3","6","4","3","18","9","1","6","5","2","3","9","15","2","2","3","6","2","1","18","3","3","6","18","9","6","15","2","3","2","5","1","1","2","10","18","3","6","2","9","4","18","9","3","2","18","5","6","6","5","3","18","9","6","1","3","3","1","18","18","9","5","4","15","9","9","3","5","15","9","3","18","2","6","6","9","18","3","2","18","15","3","9","4","3","6","3","4","1","6","10","6","9","2","18","18","9","6","6","9","2","15","9","9","5"],"larger_num":["20","8","8","8","20","20","20","24","20","8","20","20","20","20","20","4","12","16","12","20","10","2","8","10","8","12","12","20","8","8","6","8","8","4","20","12","6","8","20","10","8","20","4","4","4","10","2","2","8","20","20","12","12","8","10","16","24","18","4","4","20","10","12","8","20","12","24","10","8","4","12","4","4","20","20","10","10","16","20","10","10","6","10","20","10","4","20","8","24","24","18","20","4","8","20","20","12","18","8","6","8","12","16","2","24","20","8","10","4","24","20","10","8","12","10","4","20","18","12","10"],"correct_side":[2,2,1,1,1,1,2,2,1,1,2,1,2,1,2,2,1,1,2,2,1,2,1,1,1,1,2,1,1,1,2,1,2,2,1,1,2,2,1,2,1,2,2,2,2,2,2,2,1,2,1,2,1,1,1,1,1,2,1,1,1,1,1,1,2,1,1,1,2,2,2,1,2,2,1,1,1,2,2,2,2,2,1,1,2,1,2,1,1,2,1,2,2,1,1,2,2,2,1,2,2,2,2,2,2,2,1,2,1,1,1,1,2,1,1,1,1,2,2,2],"img_shown":["img/900/equaldotanddens/R/14_Ratio_900_L_18_R_20.png","img/750/equaldotanddens/R/2_Ratio_750_L_6_R_8.png","img/750/randomdotsizeEA/L/13_Ratio_750_L_8_R_6.png","img/750/equaldotanddens/L/13_Ratio_750_L_8_R_6.png","img/900/equaldotanddens/L/10_Ratio_900_L_20_R_18.png","img/900/randomdotsizeEA/L/4_Ratio_900_L_20_R_18.png","img/250/equaldotanddens/R/12_Ratio_250_L_5_R_20.png","img/250/randomdotsizeEA/R/6_Ratio_250_L_6_R_24.png","img/900/equaldotsize/L/10_Ratio_900_L_20_R_18.png","img/750/equaldotanddens/L/14_Ratio_750_L_8_R_6.png","img/900/equaldotsize/R/13_Ratio_900_L_18_R_20.png","img/900/equaldotanddens/L/4_Ratio_900_L_20_R_18.png","img/250/equaldotanddens/R/12_Ratio_250_L_5_R_20.png","img/900/equaldotsize/L/2_Ratio_900_L_20_R_18.png","img/900/randomdotsizeEA/R/11_Ratio_900_L_18_R_20.png","img/750/equaldotanddens/R/7_Ratio_750_L_3_R_4.png","img/500/equaldotsize/L/13_Ratio_500_L_12_R_6.png","img/250/randomdotsizeEA/L/2_Ratio_250_L_16_R_4.png","img/250/equaldotsize/R/4_Ratio_250_L_3_R_12.png","img/900/randomdotsizeEA/R/12_Ratio_900_L_18_R_20.png","img/900/randomdotsizeEA/L/1_Ratio_900_L_10_R_9.png","img/500/equaldotanddens/R/12_Ratio_500_L_1_R_2.png","img/750/randomdotsizeEA/L/14_Ratio_750_L_8_R_6.png","img/500/equaldotsize/L/7_Ratio_500_L_10_R_5.png","img/250/equaldotanddens/L/1_Ratio_250_L_8_R_2.png","img/250/equaldotsize/L/15_Ratio_250_L_12_R_3.png","img/750/equaldotanddens/R/15_Ratio_750_L_9_R_12.png","img/750/equaldotanddens/L/1_Ratio_750_L_20_R_15.png","img/250/randomdotsizeEA/L/7_Ratio_250_L_8_R_2.png","img/250/equaldotanddens/L/7_Ratio_250_L_8_R_2.png","img/500/equaldotsize/R/2_Ratio_500_L_3_R_6.png","img/750/equaldotsize/L/14_Ratio_750_L_8_R_6.png","img/250/equaldotsize/R/13_Ratio_250_L_2_R_8.png","img/250/equaldotsize/R/8_Ratio_250_L_1_R_4.png","img/900/equaldotanddens/L/10_Ratio_900_L_20_R_18.png","img/250/randomdotsizeEA/L/15_Ratio_250_L_12_R_3.png","img/500/randomdotsizeEA/R/2_Ratio_500_L_3_R_6.png","img/750/randomdotsizeEA/R/2_Ratio_750_L_6_R_8.png","img/900/equaldotsize/L/8_Ratio_900_L_20_R_18.png","img/900/equaldotsize/R/3_Ratio_900_L_9_R_10.png","img/750/equaldotsize/L/14_Ratio_750_L_8_R_6.png","img/750/randomdotsizeEA/R/4_Ratio_750_L_15_R_20.png","img/500/equaldotanddens/R/9_Ratio_500_L_2_R_4.png","img/750/randomdotsizeEA/R/12_Ratio_750_L_3_R_4.png","img/500/randomdotsizeEA/R/9_Ratio_500_L_2_R_4.png","img/500/randomdotsizeEA/R/14_Ratio_500_L_5_R_10.png","img/500/equaldotanddens/R/15_Ratio_500_L_1_R_2.png","img/500/equaldotanddens/R/15_Ratio_500_L_1_R_2.png","img/250/randomdotsizeEA/L/1_Ratio_250_L_8_R_2.png","img/500/equaldotanddens/R/3_Ratio_500_L_10_R_20.png","img/900/randomdotsizeEA/L/10_Ratio_900_L_20_R_18.png","img/250/randomdotsizeEA/R/9_Ratio_250_L_3_R_12.png","img/500/randomdotsizeEA/L/11_Ratio_500_L_12_R_6.png","img/250/equaldotanddens/L/1_Ratio_250_L_8_R_2.png","img/900/equaldotanddens/L/1_Ratio_900_L_10_R_9.png","img/250/randomdotsizeEA/L/2_Ratio_250_L_16_R_4.png","img/750/equaldotsize/L/6_Ratio_750_L_24_R_18.png","img/500/equaldotsize/R/6_Ratio_500_L_9_R_18.png","img/750/randomdotsizeEA/L/8_Ratio_750_L_4_R_3.png","img/500/equaldotsize/L/10_Ratio_500_L_4_R_2.png","img/900/equaldotsize/L/4_Ratio_900_L_20_R_18.png","img/500/equaldotanddens/L/7_Ratio_500_L_10_R_5.png","img/500/equaldotsize/L/11_Ratio_500_L_12_R_6.png","img/750/randomdotsizeEA/L/14_Ratio_750_L_8_R_6.png","img/250/randomdotsizeEA/R/12_Ratio_250_L_5_R_20.png","img/250/equaldotsize/L/15_Ratio_250_L_12_R_3.png","img/750/equaldotsize/L/6_Ratio_750_L_24_R_18.png","img/900/equaldotanddens/L/1_Ratio_900_L_10_R_9.png","img/750/equaldotsize/R/2_Ratio_750_L_6_R_8.png","img/250/equaldotsize/R/8_Ratio_250_L_1_R_4.png","img/250/equaldotanddens/R/4_Ratio_250_L_3_R_12.png","img/750/equaldotanddens/L/8_Ratio_750_L_4_R_3.png","img/250/equaldotsize/R/8_Ratio_250_L_1_R_4.png","img/900/equaldotsize/R/9_Ratio_900_L_18_R_20.png","img/900/randomdotsizeEA/L/10_Ratio_900_L_20_R_18.png","img/900/equaldotanddens/L/1_Ratio_900_L_10_R_9.png","img/500/equaldotanddens/L/7_Ratio_500_L_10_R_5.png","img/250/equaldotsize/R/10_Ratio_250_L_4_R_16.png","img/750/equaldotsize/R/4_Ratio_750_L_15_R_20.png","img/900/equaldotanddens/R/6_Ratio_900_L_9_R_10.png","img/900/randomdotsizeEA/R/6_Ratio_900_L_9_R_10.png","img/500/randomdotsizeEA/R/2_Ratio_500_L_3_R_6.png","img/500/randomdotsizeEA/L/7_Ratio_500_L_10_R_5.png","img/750/randomdotsizeEA/L/1_Ratio_750_L_20_R_15.png","img/900/equaldotanddens/R/7_Ratio_900_L_9_R_10.png","img/750/randomdotsizeEA/L/8_Ratio_750_L_4_R_3.png","img/900/equaldotsize/R/13_Ratio_900_L_18_R_20.png","img/250/equaldotsize/L/1_Ratio_250_L_8_R_2.png","img/250/equaldotanddens/L/5_Ratio_250_L_24_R_6.png","img/250/equaldotanddens/R/6_Ratio_250_L_6_R_24.png","img/500/equaldotsize/L/4_Ratio_500_L_18_R_9.png","img/900/randomdotsizeEA/R/13_Ratio_900_L_18_R_20.png","img/750/randomdotsizeEA/R/12_Ratio_750_L_3_R_4.png","img/250/randomdotsizeEA/L/1_Ratio_250_L_8_R_2.png","img/900/randomdotsizeEA/L/10_Ratio_900_L_20_R_18.png","img/750/equaldotanddens/R/3_Ratio_750_L_15_R_20.png","img/250/randomdotsizeEA/R/9_Ratio_250_L_3_R_12.png","img/500/equaldotanddens/R/6_Ratio_500_L_9_R_18.png","img/500/randomdotsizeEA/L/8_Ratio_500_L_8_R_4.png","img/500/randomdotsizeEA/R/2_Ratio_500_L_3_R_6.png","img/750/equaldotsize/R/2_Ratio_750_L_6_R_8.png","img/250/equaldotsize/R/11_Ratio_250_L_3_R_12.png","img/250/equaldotanddens/R/10_Ratio_250_L_4_R_16.png","img/500/equaldotsize/R/12_Ratio_500_L_1_R_2.png","img/250/equaldotanddens/R/6_Ratio_250_L_6_R_24.png","img/500/equaldotsize/R/3_Ratio_500_L_10_R_20.png","img/750/equaldotanddens/L/14_Ratio_750_L_8_R_6.png","img/900/equaldotsize/R/5_Ratio_900_L_9_R_10.png","img/500/randomdotsizeEA/L/10_Ratio_500_L_4_R_2.png","img/750/equaldotsize/L/6_Ratio_750_L_24_R_18.png","img/900/equaldotsize/L/4_Ratio_900_L_20_R_18.png","img/900/randomdotsizeEA/L/1_Ratio_900_L_10_R_9.png","img/750/equaldotanddens/R/2_Ratio_750_L_6_R_8.png","img/500/equaldotanddens/L/11_Ratio_500_L_12_R_6.png","img/900/equaldotanddens/L/1_Ratio_900_L_10_R_9.png","img/500/equaldotsize/L/5_Ratio_500_L_4_R_2.png","img/750/equaldotsize/L/1_Ratio_750_L_20_R_15.png","img/500/equaldotanddens/R/6_Ratio_500_L_9_R_18.png","img/750/equaldotsize/R/15_Ratio_750_L_9_R_12.png","img/500/randomdotsizeEA/R/14_Ratio_500_L_5_R_10.png"],"Rat0":[["12_Ratio_0_L_9_R_0.png","13_Ratio_0_L_6_R_0.png","5_Ratio_0_L_2_R_0.png","6_Ratio_0_L_4_R_0.png","8_Ratio_0_L_6_R_0.png"],["1_Ratio_0_L_0_R_17.png","10_Ratio_0_L_0_R_22.png","11_Ratio_0_L_0_R_1.png","14_Ratio_0_L_0_R_24.png","15_Ratio_0_L_0_R_4.png","2_Ratio_0_L_0_R_5.png","3_Ratio_0_L_0_R_17.png","4_Ratio_0_L_0_R_7.png","7_Ratio_0_L_0_R_19.png","9_Ratio_0_L_0_R_15.png"]],"Rat250":[["1_Ratio_250_L_8_R_2.png","14_Ratio_250_L_12_R_3.png","15_Ratio_250_L_12_R_3.png","2_Ratio_250_L_16_R_4.png","3_Ratio_250_L_8_R_2.png","5_Ratio_250_L_24_R_6.png","7_Ratio_250_L_8_R_2.png"],["10_Ratio_250_L_4_R_16.png","11_Ratio_250_L_3_R_12.png","12_Ratio_250_L_5_R_20.png","13_Ratio_250_L_2_R_8.png","4_Ratio_250_L_3_R_12.png","6_Ratio_250_L_6_R_24.png","8_Ratio_250_L_1_R_4.png","9_Ratio_250_L_3_R_12.png"]],"Rat500":[["10_Ratio_500_L_4_R_2.png","11_Ratio_500_L_12_R_6.png","13_Ratio_500_L_12_R_6.png","4_Ratio_500_L_18_R_9.png","5_Ratio_500_L_4_R_2.png","7_Ratio_500_L_10_R_5.png","8_Ratio_500_L_8_R_4.png"],["1_Ratio_500_L_9_R_18.png","12_Ratio_500_L_1_R_2.png","14_Ratio_500_L_5_R_10.png","15_Ratio_500_L_1_R_2.png","2_Ratio_500_L_3_R_6.png","3_Ratio_500_L_10_R_20.png","6_Ratio_500_L_9_R_18.png","9_Ratio_500_L_2_R_4.png"]],"Rat750":[["1_Ratio_750_L_20_R_15.png","10_Ratio_750_L_4_R_3.png","13_Ratio_750_L_8_R_6.png","14_Ratio_750_L_8_R_6.png","6_Ratio_750_L_24_R_18.png","8_Ratio_750_L_4_R_3.png","9_Ratio_750_L_4_R_3.png"],["11_Ratio_750_L_12_R_16.png","12_Ratio_750_L_3_R_4.png","15_Ratio_750_L_9_R_12.png","2_Ratio_750_L_6_R_8.png","3_Ratio_750_L_15_R_20.png","4_Ratio_750_L_15_R_20.png","5_Ratio_750_L_15_R_20.png","7_Ratio_750_L_3_R_4.png"]],"Rat900":[["1_Ratio_900_L_10_R_9.png","10_Ratio_900_L_20_R_18.png","2_Ratio_900_L_20_R_18.png","4_Ratio_900_L_20_R_18.png","8_Ratio_900_L_20_R_18.png"],["11_Ratio_900_L_18_R_20.png","12_Ratio_900_L_18_R_20.png","13_Ratio_900_L_18_R_20.png","14_Ratio_900_L_18_R_20.png","15_Ratio_900_L_9_R_10.png","3_Ratio_900_L_9_R_10.png","5_Ratio_900_L_9_R_10.png","6_Ratio_900_L_9_R_10.png","7_Ratio_900_L_9_R_10.png","9_Ratio_900_L_18_R_20.png"]],"Rat1000":[["10_Ratio_1000_L_16_R_16.png","11_Ratio_1000_L_6_R_6.png","12_Ratio_1000_L_14_R_14.png","13_Ratio_1000_L_20_R_20.png","15_Ratio_1000_L_15_R_15.png","2_Ratio_1000_L_17_R_17.png","4_Ratio_1000_L_9_R_9.png","5_Ratio_1000_L_6_R_6.png","6_Ratio_1000_L_19_R_19.png","8_Ratio_1000_L_14_R_14.png","9_Ratio_1000_L_25_R_25.png"],["1_Ratio_1000_L_1_R_1.png","14_Ratio_1000_L_17_R_17.png","3_Ratio_1000_L_17_R_17.png","7_Ratio_1000_L_6_R_6.png"]]}},{"start_time":1551794564570,"click_time":1551794565612,"finger_time":1551794565430,"fix_duration":456.1029882227107,"trial":1,"RT":860,"MT":182,"sideResp":2,"stimulus":"img/750/equaldotanddens/R/2_Ratio_750_L_6_R_8.png","xmouse":[812,810,810,805,803,803,802,802,802,802,802,802,802,802,802,802,802,802,802,802,802,802,802,802,802,802,802,802,802,803,803,803,803,803,803,803,803,803,803,803,809,822,839,868,931,957,977,995,1007,1023,1043,1051,1062],"ymouse":[545,545,545,545,545,545,545,545,545,544,543,543,543,543,543,543,542,542,542,542,542,542,542,542,542,542,542,542,542,542,542,542,541,541,541,541,541,541,541,541,534,517,497,463,375,325,277,234,195,147,105,87,67],"timestamp_mouse":[1,36,42,61,80,102,121,141,161,180,202,221,240,261,282,300,321,340,360,380,402,421,440,462,480,500,521,541,560,582,602,621,642,662,682,700,721,742,761,780,802,820,841,860,882,901,922,941,960,980,1000,1020,1042],"xSR":741.5,"ySR":469.95,"xT1":424.9,"yT1":0,"xT2":1058.1,"yT2":0,"toosoon":0,"cond_shown":"equaldotanddens","ratio_trial":750,"smaller_num":"6","larger_num":"8","correct_side":2,"subjID":"ElenaAponteEspitia38","gender":"1","age":"11","school":"6"},{"start_time":1551794567387,"click_time":1551794568690,"finger_time":1551794568351,"fix_duration":1076.2228193507838,"trial":2,"RT":964,"MT":339,"sideResp":2,"stimulus":"img/750/randomdotsizeEA/L/13_Ratio_750_L_8_R_6.png","xmouse":[780,780,780,781,781,781,781,781,781,781,781,781,781,781,781,781,781,781,781,781,781,781,781,781,781,781,781,781,781,781,781,781,781,781,781,781,781,781,781,781,781,781,781,781,781,782,784,796,820,838,840,840,840,840,844,851,862,873,901,949,966,980,1000,1051,1069,1077],"ymouse":[505,505,505,505,505,505,505,505,505,505,505,505,505,505,505,505,505,505,505,505,505,505,505,505,505,505,505,505,505,505,505,505,505,505,505,505,505,505,505,505,505,505,505,505,505,504,500,484,466,458,458,458,458,458,456,453,446,438,411,340,311,277,231,136,100,78],"timestamp_mouse":[12,39,44,63,84,103,124,144,165,183,204,224,243,264,284,304,325,343,365,384,403,425,444,463,484,504,525,544,563,584,603,625,643,665,684,703,725,743,764,785,804,823,844,864,883,905,924,943,964,984,1004,1023,1044,1065,1083,1104,1124,1144,1165,1184,1204,1225,1244,1265,1284,1303],"xSR":741.5,"ySR":469.95,"xT1":424.9,"yT1":0,"xT2":1058.1,"yT2":0,"toosoon":0,"cond_shown":"randomdotsizeEA","ratio_trial":750,"smaller_num":"6","larger_num":"8","correct_side":1,"subjID":"ElenaAponteEspitia38","gender":"1","age":"11","school":"6"},{"start_time":1551794571012,"click_time":1551794571971,"finger_time":1551794571811,"fix_duration":1458.762647505107,"trial":3,"RT":799,"MT":160,"sideResp":1,"stimulus":"img/750/equaldotanddens/L/13_Ratio_750_L_8_R_6.png","xmouse":[821,821,821,824,824,825,825,826,827,827,827,827,827,827,827,827,827,827,827,827,827,827,827,827,827,827,826,824,818,817,817,817,817,817,817,817,817,815,795,775,746,712,683,602,564,535,507,497,488],"ymouse":[545,544,544,541,541,540,540,539,536,535,535,535,535,535,535,535,535,535,535,535,535,535,535,535,535,535,534,534,535,535,535,535,535,535,535,535,535,535,511,475,434,389,345,258,210,169,121,102,82],"timestamp_mouse":[1,28,40,58,79,100,118,139,160,180,200,218,240,258,279,299,318,339,360,378,398,420,439,458,479,498,519,539,559,579,600,618,639,659,679,700,719,738,759,778,799,819,840,858,879,899,920,939,959],"xSR":741.5,"ySR":469.95,"xT1":424.9,"yT1":0,"xT2":1058.1,"yT2":0,"toosoon":0,"cond_shown":"equaldotanddens","ratio_trial":750,"smaller_num":"6","larger_num":"8","correct_side":1,"subjID":"ElenaAponteEspitia38","gender":"1","age":"11","school":"6"},{"start_time":1551794575008,"click_time":1551794576611,"finger_time":1551794575770,"fix_duration":776.7542104126179,"trial":4,"RT":762,"MT":841,"sideResp":2,"stimulus":"img/900/equaldotanddens/L/10_Ratio_900_L_20_R_18.png","xmouse":[807,807,807,807,807,807,807,807,807,807,807,807,807,807,807,807,807,807,807,807,807,807,807,807,807,807,807,807,805,804,804,804,804,804,804,805,817,829,879,911,949,992,1022,1059,1073,1084,1092,1105,1108,1108,1107,1106,1106,1106,1106,1106,1106,1106,1106,1106,1106,1106,1106,1102,1095,1088,1078,1059,1046,1045,1045,1045,1045,1051,1057,1063,1072,1079,1090,1099,1107],"ymouse":[536,536,536,536,536,536,536,536,536,536,536,536,536,536,536,536,536,536,536,536,536,536,536,536,536,536,536,536,539,540,540,540,540,540,538,535,522,507,465,437,405,369,340,291,268,247,227,182,169,155,146,140,127,121,114,106,105,101,100,100,100,100,100,100,105,114,127,153,172,173,173,173,173,168,161,153,138,128,112,102,89],"timestamp_mouse":[14,23,44,62,83,102,122,143,162,182,204,224,242,262,283,302,323,342,364,383,402,422,443,462,482,502,522,543,564,583,603,623,642,662,683,702,723,742,762,784,802,822,844,863,882,902,923,944,962,982,1004,1023,1043,1063,1083,1102,1123,1142,1163,1183,1203,1222,1243,1262,1282,1303,1322,1343,1362,1383,1404,1423,1443,1462,1483,1502,1522,1543,1562,1582,1602],"xSR":741.5,"ySR":469.95,"xT1":424.9,"yT1":0,"xT2":1058.1,"yT2":0,"toosoon":0,"cond_shown":"equaldotanddens","ratio_trial":900,"smaller_num":"18","larger_num":"20","correct_side":1,"subjID":"ElenaAponteEspitia38","gender":"1","age":"11","school":"6"},{"start_time":1551794578051,"click_time":1551794582810,"finger_time":1551794582171,"fix_duration":639.2696433303239,"trial":5,"RT":4120,"MT":639,"sideResp":1,"stimulus":"img/900/randomdotsizeEA/L/4_Ratio_900_L_20_R_18.png","xmouse":[794,794,794,794,794,794,794,794,794,794,793,793,793,792,792,791,791,791,791,791,791,791,791,791,791,791,791,791,791,791,791,791,791,791,791,791,791,791,791,791,791,791,791,791,791,791,791,791,791,791,791,791,791,791,791,791,791,791,792,792,793,793,793,793,793,793,793,794,794,794,794,794,794,795,795,796,796,796,796,797,797,797,798,798,798,798,798,798,798,798,798,798,798,800,800,800,800,800,800,800,800,800,800,800,800,800,800,800,800,800,800,800,800,800,800,800,800,800,800,785,774,769,766,765,765,765,765,765,765,765,765,765,765,765,765,765,765,765,765,765,765,765,765,765,765,765,765,765,765,765,765,765,765,765,765,765,766,766,766,767,767,767,767,767,767,767,767,767,767,767,767,767,767,767,767,767,767,767,767,767,767,767,767,767,767,767,767,767,767,767,767,767,767,767,767,767,767,767,767,767,767,767,767,767,767,767,767,761,755,753,752,752,752,752,752,752,752,752,752,750,744,735,725,716,705,692,685,676,666,634,618,604,589,566,547,510,498,489],"ymouse":[524,524,524,524,524,524,524,524,524,524,524,524,524,525,525,525,525,525,525,526,526,526,526,526,526,526,526,526,526,526,526,526,526,526,526,526,526,526,526,526,526,526,526,526,526,526,526,526,526,526,526,526,526,526,526,526,525,525,525,525,524,524,524,524,524,524,524,522,522,522,522,522,522,521,521,521,521,521,520,519,518,518,518,517,517,517,517,517,517,517,517,517,517,516,516,516,516,516,516,515,515,515,515,515,515,515,515,515,515,515,515,515,515,515,515,515,515,515,513,506,501,499,498,496,496,496,496,496,496,496,496,496,496,496,496,496,496,496,496,496,496,496,496,496,496,496,496,496,496,496,496,496,496,495,495,495,494,494,494,492,490,489,488,487,487,487,487,487,487,487,487,487,487,487,487,487,487,487,487,487,487,487,487,487,487,487,487,485,483,483,483,483,483,483,483,483,483,483,483,483,483,483,483,483,482,468,451,435,421,414,412,412,412,412,412,412,412,412,412,405,394,381,370,361,350,336,327,314,301,266,247,229,207,176,154,117,105,96],"timestamp_mouse":[31,39,59,79,99,119,140,160,179,199,220,240,260,280,299,319,340,359,379,400,419,440,460,480,501,520,540,559,579,600,619,640,660,681,699,720,740,760,779,799,820,839,859,880,901,920,939,960,980,1000,1019,1040,1060,1080,1101,1119,1139,1160,1180,1199,1220,1239,1261,1279,1300,1320,1339,1360,1379,1400,1419,1439,1459,1479,1499,1520,1539,1560,1579,1600,1620,1640,1660,1679,1699,1720,1739,1759,1779,1799,1819,1839,1859,1879,1899,1919,1939,1960,1979,2000,2020,2039,2060,2079,2099,2120,2140,2160,2181,2200,2220,2239,2260,2280,2299,2319,2340,2359,2379,2400,2419,2439,2459,2481,2500,2520,2539,2561,2580,2600,2620,2640,2660,2679,2699,2721,2740,2759,2779,2799,2820,2839,2859,2880,2899,2919,2939,2959,2980,3000,3020,3040,3059,3079,3101,3120,3140,3159,3180,3200,3219,3239,3260,3280,3299,3320,3339,3360,3380,3399,3420,3439,3459,3480,3500,3521,3539,3559,3579,3599,3621,3639,3660,3680,3699,3719,3739,3759,3780,3799,3819,3840,3860,3880,3899,3919,3940,3959,3980,4000,4019,4039,4060,4079,4100,4120,4139,4159,4180,4199,4219,4241,4259,4280,4300,4319,4340,4360,4379,4400,4419,4439,4459,4480,4499,4521,4539,4559,4579,4600,4619,4639,4659,4680,4699,4719,4739,4759],"xSR":741.5,"ySR":469.95,"xT1":424.9,"yT1":0,"xT2":1058.1,"yT2":0,"toosoon":0,"cond_shown":"randomdotsizeEA","ratio_trial":900,"smaller_num":"18","larger_num":"20","correct_side":1,"subjID":"ElenaAponteEspitia38","gender":"1","age":"11","school":"6"},{"start_time":1551794585638,"click_time":1551794586711,"finger_time":1551794586431,"fix_duration":607.4694713793956,"trial":6,"RT":793,"MT":280,"sideResp":2,"stimulus":"img/250/equaldotanddens/R/12_Ratio_250_L_5_R_20.png","xmouse":[776,776,778,778,778,778,778,778,778,778,778,778,778,778,778,778,778,778,778,778,779,780,780,780,780,780,780,780,780,780,780,780,780,778,778,778,778,783,822,892,971,1079,1106,1115,1118,1129,1144,1152,1156,1158,1158,1155,1153,1150],"ymouse":[516,511,503,501,500,500,500,500,500,500,500,500,500,500,500,500,500,500,500,500,501,502,503,503,503,503,503,503,503,503,503,506,508,511,511,511,511,509,478,430,378,294,258,240,234,205,173,158,144,132,114,108,104,98],"timestamp_mouse":[12,37,53,72,93,112,133,152,172,192,213,234,253,272,292,313,333,353,372,392,412,432,453,472,492,512,533,553,574,592,613,633,653,674,692,713,732,752,773,793,812,832,853,872,893,914,932,953,972,993,1013,1032,1053,1073],"xSR":741.5,"ySR":469.95,"xT1":424.9,"yT1":0,"xT2":1058.1,"yT2":0,"toosoon":0,"cond_shown":"equaldotanddens","ratio_trial":250,"smaller_num":"5","larger_num":"20","correct_side":2,"subjID":"ElenaAponteEspitia38","gender":"1","age":"11","school":"6"},{"start_time":1551794589032,"click_time":1551794590471,"finger_time":1551794590171,"fix_duration":1479.7046320023956,"trial":7,"RT":1139,"MT":300,"sideResp":1,"stimulus":"img/250/randomdotsizeEA/R/6_Ratio_250_L_6_R_24.png","xmouse":[803,803,803,803,803,803,803,803,803,803,803,803,803,803,803,803,803,803,803,803,803,803,803,803,803,803,803,803,803,803,803,803,803,803,803,803,803,803,803,803,803,803,803,803,803,803,803,803,803,803,803,803,803,803,803,803,798,767,741,723,706,688,665,659,649,633,612,585,575,570,563,551,504],"ymouse":[527,527,527,527,527,527,527,527,527,527,527,527,527,527,527,527,527,527,527,527,527,527,527,527,527,527,527,527,527,527,527,527,527,527,527,527,527,527,527,527,527,527,527,527,527,527,527,527,527,527,527,527,527,527,527,527,519,438,376,333,293,259,218,205,188,163,142,118,109,105,101,96,84],"timestamp_mouse":[1,33,38,59,79,99,119,138,158,179,199,218,239,259,278,299,319,340,358,379,400,419,439,458,478,500,518,538,559,578,598,619,640,659,679,699,718,740,759,779,798,819,839,858,879,900,919,939,959,979,1000,1018,1039,1058,1078,1100,1118,1139,1158,1178,1198,1218,1238,1259,1278,1299,1318,1339,1358,1378,1398,1418,1439],"xSR":741.5,"ySR":469.95,"xT1":424.9,"yT1":0,"xT2":1058.1,"yT2":0,"toosoon":0,"cond_shown":"randomdotsizeEA","ratio_trial":250,"smaller_num":"6","larger_num":"24","correct_side":2,"subjID":"ElenaAponteEspitia38","gender":"1","age":"11","school":"6"},{"start_time":1551794592412,"click_time":1551794593910,"finger_time":1551794593251,"fix_duration":1220.8414605088872,"trial":8,"RT":839,"MT":659,"sideResp":1,"stimulus":"img/900/equaldotsize/L/10_Ratio_900_L_20_R_18.png","xmouse":[806,806,806,806,806,806,806,806,806,806,806,806,806,806,806,806,806,806,806,806,806,806,806,806,806,806,806,806,806,806,806,806,806,806,806,806,806,806,809,820,840,880,899,911,918,919,919,919,919,919,919,919,919,917,912,905,897,889,888,888,888,888,888,888,886,878,849,716,646,582,557,543,524,517,507],"ymouse":[523,523,523,523,523,523,523,523,523,523,523,523,523,523,523,523,523,523,523,523,523,523,523,523,523,523,523,523,523,523,523,523,523,523,523,523,523,523,523,520,511,492,479,468,459,454,450,448,448,448,448,448,448,448,449,451,453,454,454,454,454,454,454,454,453,448,425,313,255,204,180,161,130,115,91],"timestamp_mouse":[18,38,72,79,98,119,138,158,178,198,218,238,259,278,298,318,340,358,378,398,418,438,458,479,498,520,538,558,578,599,618,638,658,679,699,719,738,758,778,799,818,839,858,878,898,918,939,958,978,998,1019,1039,1058,1078,1098,1118,1138,1159,1179,1198,1219,1239,1259,1279,1298,1319,1338,1358,1378,1399,1419,1439,1458,1478,1498],"xSR":741.5,"ySR":469.95,"xT1":424.9,"yT1":0,"xT2":1058.1,"yT2":0,"toosoon":0,"cond_shown":"equaldotsize","ratio_trial":900,"smaller_num":"18","larger_num":"20","correct_side":1,"subjID":"ElenaAponteEspitia38","gender":"1","age":"11","school":"6"},{"start_time":1551794596247,"click_time":1551794597450,"finger_time":1551794597070,"fix_duration":1495.9144282309035,"trial":9,"RT":823,"MT":380,"sideResp":1,"stimulus":"img/750/equaldotanddens/L/14_Ratio_750_L_8_R_6.png","xmouse":[806,806,806,806,806,806,806,806,806,806,806,806,806,806,806,806,806,806,806,806,806,806,806,806,806,806,806,806,806,806,806,806,806,806,806,806,806,806,806,800,793,758,749,735,732,710,699,686,670,647,623,582,570,556,547,536,515,506,501,497,492],"ymouse":[525,525,525,525,525,525,525,525,525,525,525,525,525,525,525,525,525,525,525,525,525,525,525,525,525,525,525,525,525,525,525,525,525,525,525,525,525,525,525,511,498,440,418,386,378,327,308,290,270,248,230,198,186,172,163,152,130,120,112,101,88],"timestamp_mouse":[10,35,44,63,85,103,123,144,163,183,203,223,244,264,283,303,324,345,363,383,404,425,443,463,483,503,523,543,565,584,603,623,643,663,684,703,723,743,764,783,803,823,844,864,884,904,923,945,963,984,1005,1023,1044,1063,1083,1103,1123,1144,1163,1184,1203],"xSR":741.5,"ySR":469.95,"xT1":424.9,"yT1":0,"xT2":1058.1,"yT2":0,"toosoon":0,"cond_shown":"equaldotanddens","ratio_trial":750,"smaller_num":"6","larger_num":"8","correct_side":1,"subjID":"ElenaAponteEspitia38","gender":"1","age":"11","school":"6"},{"start_time":1551794599107,"click_time":1551794600810,"finger_time":1551794600550,"fix_duration":916.8174328033332,"trial":10,"RT":1443,"MT":260,"sideResp":1,"stimulus":"img/900/equaldotsize/R/13_Ratio_900_L_18_R_20.png","xmouse":[780,780,780,780,780,780,780,780,780,780,780,780,780,780,780,780,780,780,780,780,780,780,780,780,780,780,780,780,780,780,780,780,780,780,780,780,780,780,780,780,780,781,781,781,781,781,781,781,781,781,781,781,781,781,781,781,781,781,781,781,781,781,781,781,781,781,781,781,781,781,780,778,767,755,744,730,714,697,675,666,658,639,612,524,486,455],"ymouse":[525,525,525,525,525,525,525,525,525,525,525,525,525,525,525,525,525,525,525,525,525,525,525,525,525,525,525,525,525,525,525,525,525,525,525,525,525,525,525,526,526,526,526,526,525,525,525,525,525,525,525,525,525,525,525,525,525,525,525,525,525,525,525,525,525,525,525,525,525,515,496,476,440,395,367,334,308,281,250,239,228,211,194,141,116,93],"timestamp_mouse":[10,23,44,64,84,103,124,144,164,183,204,223,243,263,284,303,323,343,365,384,403,424,443,463,483,503,524,544,564,584,603,623,645,664,684,704,723,745,763,784,803,823,843,864,884,904,923,943,965,983,1003,1023,1045,1063,1083,1103,1123,1144,1163,1183,1203,1224,1243,1263,1284,1303,1323,1343,1363,1383,1404,1424,1443,1465,1483,1503,1523,1543,1563,1584,1603,1623,1643,1663,1683,1703],"xSR":741.5,"ySR":469.95,"xT1":424.9,"yT1":0,"xT2":1058.1,"yT2":0,"toosoon":0,"cond_shown":"equaldotsize","ratio_trial":900,"smaller_num":"18","larger_num":"20","correct_side":2,"subjID":"ElenaAponteEspitia38","gender":"1","age":"11","school":"6"},{"start_time":1551794602998,"click_time":1551794604170,"finger_time":1551794603771,"fix_duration":1225.8585146723826,"trial":11,"RT":773,"MT":399,"sideResp":1,"stimulus":"img/900/equaldotanddens/L/4_Ratio_900_L_20_R_18.png","xmouse":[810,810,810,810,810,810,810,810,810,810,810,810,810,810,810,810,810,810,810,810,810,810,810,810,810,810,810,810,810,810,810,810,810,810,810,810,810,808,798,790,776,756,701,676,654,637,620,597,581,559,533,505,475,469,466,464,463,463,472],"ymouse":[516,516,516,516,516,516,516,516,516,516,516,516,516,516,516,516,516,516,516,516,516,516,516,516,516,516,516,516,516,516,516,516,516,516,511,502,495,471,430,409,383,354,287,263,247,234,222,207,198,187,175,164,146,141,134,127,115,105,78],"timestamp_mouse":[13,34,52,73,93,112,133,153,173,194,213,233,253,273,292,312,333,353,373,393,412,432,453,473,492,512,534,553,573,592,612,634,652,673,692,713,732,752,773,792,813,832,853,872,892,912,932,954,972,992,1013,1032,1054,1072,1093,1112,1132,1153,1172],"xSR":741.5,"ySR":469.95,"xT1":424.9,"yT1":0,"xT2":1058.1,"yT2":0,"toosoon":0,"cond_shown":"equaldotanddens","ratio_trial":900,"smaller_num":"18","larger_num":"20","correct_side":1,"subjID":"ElenaAponteEspitia38","gender":"1","age":"11","school":"6"},{"start_time":1551794606373,"click_time":1551794607310,"finger_time":1551794606890,"fix_duration":1420.4016470884387,"trial":12,"RT":517,"MT":420,"sideResp":2,"stimulus":"img/250/equaldotanddens/R/12_Ratio_250_L_5_R_20.png","xmouse":[787,787,787,787,787,787,787,787,787,787,787,787,787,787,787,787,787,787,787,787,795,800,811,822,841,850,860,887,954,991,1024,1047,1068,1080,1093,1095,1096,1096,1096,1089,1086,1083,1081,1079,1078,1079,1082],"ymouse":[507,507,507,507,507,507,507,507,507,507,507,507,507,507,507,507,507,507,507,507,507,507,507,507,503,499,493,470,419,387,349,322,298,282,256,246,229,223,205,177,165,155,146,138,118,107,95],"timestamp_mouse":[33,38,58,79,98,117,138,159,178,198,218,237,258,277,297,318,338,359,378,398,417,438,458,477,497,517,537,558,578,597,619,637,657,678,697,717,737,757,777,797,817,838,857,879,897,918,937],"xSR":741.5,"ySR":469.95,"xT1":424.9,"yT1":0,"xT2":1058.1,"yT2":0,"toosoon":0,"cond_shown":"equaldotanddens","ratio_trial":250,"smaller_num":"5","larger_num":"20","correct_side":2,"subjID":"ElenaAponteEspitia38","gender":"1","age":"11","school":"6"},{"start_time":1551794609778,"click_time":1551794610852,"finger_time":1551794610550,"fix_duration":1107.7538642483448,"trial":13,"RT":772,"MT":302,"sideResp":1,"stimulus":"img/900/equaldotsize/L/2_Ratio_900_L_20_R_18.png","xmouse":[811,811,811,811,811,811,811,811,811,811,811,811,811,811,811,811,811,811,811,811,811,811,811,811,811,811,811,811,811,811,811,811,811,811,811,811,808,789,762,717,697,684,673,641,628,614,598,583,568,554,549,540,531,497],"ymouse":[536,536,536,536,536,536,536,536,536,536,536,536,536,536,536,536,536,536,536,536,536,536,536,536,536,536,536,536,536,536,536,536,536,536,536,536,520,479,421,344,310,285,264,209,185,164,142,125,106,88,83,76,69,48],"timestamp_mouse":[14,37,52,72,92,112,132,152,173,193,213,232,252,273,293,313,333,353,373,392,413,432,452,473,493,512,532,553,573,592,612,632,652,673,693,713,732,753,772,792,812,832,852,873,892,912,932,952,972,992,1012,1033,1052,1073],"xSR":741.5,"ySR":469.95,"xT1":424.9,"yT1":0,"xT2":1058.1,"yT2":0,"toosoon":0,"cond_shown":"equaldotsize","ratio_trial":900,"smaller_num":"18","larger_num":"20","correct_side":1,"subjID":"ElenaAponteEspitia38","gender":"1","age":"11","school":"6"},{"start_time":1551794612998,"click_time":1551794614330,"finger_time":1551794614070,"fix_duration":1345.049977477535,"trial":14,"RT":1072,"MT":260,"sideResp":1,"stimulus":"img/900/randomdotsizeEA/R/11_Ratio_900_L_18_R_20.png","xmouse":[796,796,796,796,796,796,796,796,796,796,796,796,796,796,796,796,796,796,796,796,796,796,796,796,796,796,796,796,796,796,796,796,796,796,796,796,796,796,796,796,796,796,796,796,796,796,796,796,796,796,796,794,790,747,714,679,643,589,526,505,495,487,482,481,481,481,481],"ymouse":[520,520,520,520,520,520,520,520,520,520,520,520,520,520,520,520,520,520,520,520,520,520,520,520,520,520,520,520,520,520,520,520,520,520,520,520,520,520,520,520,520,520,520,520,520,520,520,520,520,520,520,508,494,420,371,319,278,220,162,142,130,118,110,107,105,101,99],"timestamp_mouse":[13,42,52,73,93,112,133,152,172,194,213,232,254,272,293,313,332,353,372,392,413,433,453,474,493,513,533,553,574,592,613,633,653,673,692,712,732,753,773,792,813,832,853,874,893,912,934,952,973,992,1012,1032,1052,1072,1093,1113,1132,1152,1172,1192,1213,1233,1253,1272,1292,1312,1332],"xSR":741.5,"ySR":469.95,"xT1":424.9,"yT1":0,"xT2":1058.1,"yT2":0,"toosoon":0,"cond_shown":"randomdotsizeEA","ratio_trial":900,"smaller_num":"18","larger_num":"20","correct_side":2,"subjID":"ElenaAponteEspitia38","gender":"1","age":"11","school":"6"},{"start_time":1551794615525,"click_time":1551794616651,"finger_time":1551794616412,"fix_duration":471.18259099106297,"trial":15,"RT":887,"MT":239,"sideResp":2,"stimulus":"img/750/equaldotanddens/R/7_Ratio_750_L_3_R_4.png","xmouse":[801,801,801,801,801,801,801,801,801,801,801,801,801,801,801,801,801,801,801,801,801,801,801,801,801,801,801,801,801,801,801,801,801,801,801,801,801,802,802,802,802,802,808,818,863,946,1024,1139,1148,1151,1152,1152,1153,1155,1159,1159,1158],"ymouse":[528,528,528,528,528,528,528,528,528,528,528,528,528,528,528,528,528,528,528,528,528,528,528,528,528,528,528,528,528,528,528,528,528,528,528,528,528,528,528,528,528,528,528,526,507,471,428,351,325,295,264,220,169,148,129,113,98],"timestamp_mouse":[8,39,46,66,85,106,125,145,165,185,205,227,245,265,285,305,325,346,366,385,407,425,445,465,487,505,525,546,566,586,606,626,645,665,685,706,726,745,765,785,805,826,846,865,887,906,926,945,965,985,1006,1025,1045,1065,1086,1105,1125],"xSR":741.5,"ySR":469.95,"xT1":424.9,"yT1":0,"xT2":1058.1,"yT2":0,"toosoon":0,"cond_shown":"equaldotanddens","ratio_trial":750,"smaller_num":"3","larger_num":"4","correct_side":2,"subjID":"ElenaAponteEspitia38","gender":"1","age":"11","school":"6"},{"start_time":1551794618826,"click_time":1551794619810,"finger_time":1551794619731,"fix_duration":1314.436435948647,"trial":16,"RT":905,"MT":79,"sideResp":1,"stimulus":"img/500/equaldotsize/L/13_Ratio_500_L_12_R_6.png","xmouse":[790,790,790,790,790,790,790,790,790,790,790,790,790,790,790,790,790,790,790,790,790,790,790,792,792,792,792,792,792,792,792,792,792,792,792,792,792,792,792,792,792,792,792,793,793,784,742,631,565,495],"ymouse":[518,518,518,518,518,518,518,518,518,518,518,518,518,518,518,518,518,518,518,518,518,518,518,515,514,514,514,514,514,514,514,514,514,514,514,514,514,514,514,514,514,514,514,505,497,464,378,228,159,97],"timestamp_mouse":[11,41,45,64,84,104,125,144,165,185,204,225,244,264,284,306,325,345,364,384,406,424,444,464,484,504,524,544,564,585,605,625,644,664,686,705,725,744,764,784,804,825,845,864,885,905,924,944,964,984],"xSR":741.5,"ySR":469.95,"xT1":424.9,"yT1":0,"xT2":1058.1,"yT2":0,"toosoon":0,"cond_shown":"equaldotsize","ratio_trial":500,"smaller_num":"6","larger_num":"12","correct_side":1,"subjID":"ElenaAponteEspitia38","gender":"1","age":"11","school":"6"},{"start_time":1551794621428,"click_time":1551794622572,"finger_time":1551794622351,"fix_duration":636.4077082642274,"trial":17,"RT":923,"MT":221,"sideResp":1,"stimulus":"img/250/randomdotsizeEA/L/2_Ratio_250_L_16_R_4.png","xmouse":[815,815,815,815,815,815,815,815,815,815,815,815,815,815,815,815,815,815,815,815,815,815,815,815,815,815,815,815,815,815,815,815,815,815,815,815,815,815,815,815,815,815,815,812,806,795,783,773,773,773,773,772,751,733,702,658,598,524],"ymouse":[491,491,491,491,491,491,491,491,491,491,491,491,491,491,491,491,491,491,491,491,491,491,491,491,491,491,491,491,491,491,491,491,491,491,491,491,491,491,491,491,491,491,489,485,480,472,465,458,458,458,458,456,427,402,360,300,208,84],"timestamp_mouse":[9,22,42,62,82,102,122,142,162,182,202,223,242,262,282,302,323,344,362,383,403,422,442,463,483,503,523,543,562,582,602,623,642,663,682,702,722,742,762,782,802,822,843,864,882,902,923,942,962,983,1002,1023,1042,1062,1083,1103,1122,1144],"xSR":741.5,"ySR":469.95,"xT1":424.9,"yT1":0,"xT2":1058.1,"yT2":0,"toosoon":0,"cond_shown":"randomdotsizeEA","ratio_trial":250,"smaller_num":"4","larger_num":"16","correct_side":1,"subjID":"ElenaAponteEspitia38","gender":"1","age":"11","school":"6"},{"start_time":1551794624336,"click_time":1551794625311,"finger_time":1551794624970,"fix_duration":1005.5299676028943,"trial":18,"RT":634,"MT":341,"sideResp":2,"stimulus":"img/250/equaldotsize/R/4_Ratio_250_L_3_R_12.png","xmouse":[803,803,803,803,803,803,803,803,803,803,803,803,803,803,803,803,803,803,803,803,803,803,803,803,803,804,805,806,808,820,834,866,892,923,955,983,1013,1024,1027,1031,1033,1042,1044,1046,1047,1047,1048,1051,1063],"ymouse":[528,528,528,528,528,528,528,528,528,528,528,528,528,528,528,528,528,528,528,528,528,528,528,528,528,528,527,526,524,504,479,402,333,265,192,142,78,52,45,37,32,24,21,19,18,18,18,22,40],"timestamp_mouse":[18,34,64,74,94,114,134,154,174,194,214,235,254,276,295,315,334,354,374,394,414,434,455,474,494,515,534,554,574,595,615,634,654,674,695,715,734,754,774,795,814,834,854,876,896,915,934,955,974],"xSR":741.5,"ySR":469.95,"xT1":424.9,"yT1":0,"xT2":1058.1,"yT2":0,"toosoon":0,"cond_shown":"equaldotsize","ratio_trial":250,"smaller_num":"3","larger_num":"12","correct_side":2,"subjID":"ElenaAponteEspitia38","gender":"1","age":"11","school":"6"},{"start_time":1551794626567,"click_time":1551794627770,"finger_time":1551794627410,"fix_duration":356.4943642149351,"trial":19,"RT":843,"MT":360,"sideResp":1,"stimulus":"img/900/randomdotsizeEA/R/12_Ratio_900_L_18_R_20.png","xmouse":[782,782,782,782,782,782,782,782,782,782,782,782,782,782,782,782,782,782,782,782,782,782,782,782,782,782,782,782,782,782,782,782,782,782,782,782,782,782,782,779,770,757,740,722,684,669,653,639,616,603,587,581,573,563,526,507,495,487,479,477,468],"ymouse":[526,526,526,526,526,526,526,526,526,526,526,526,526,526,526,526,526,526,526,526,526,526,526,526,526,526,526,526,526,526,526,526,526,526,526,526,526,526,526,523,504,483,455,423,368,350,332,312,282,263,237,226,215,204,171,150,136,125,110,102,86],"timestamp_mouse":[9,33,44,63,83,104,123,143,164,185,203,223,244,263,283,303,324,344,363,384,404,423,444,464,484,503,524,543,564,585,604,624,645,664,683,703,724,743,764,784,804,823,843,863,884,903,923,943,965,983,1003,1023,1043,1064,1084,1103,1124,1143,1165,1183,1203],"xSR":741.5,"ySR":469.95,"xT1":424.9,"yT1":0,"xT2":1058.1,"yT2":0,"toosoon":0,"cond_shown":"randomdotsizeEA","ratio_trial":900,"smaller_num":"18","larger_num":"20","correct_side":2,"subjID":"ElenaAponteEspitia38","gender":"1","age":"11","school":"6"},{"start_time":1551794628997,"click_time":1551794630171,"finger_time":1551794629810,"fix_duration":306.29765455481083,"trial":20,"RT":813,"MT":361,"sideResp":2,"stimulus":"img/900/randomdotsizeEA/L/1_Ratio_900_L_10_R_9.png","xmouse":[805,805,805,805,805,805,804,803,803,803,803,803,803,803,803,803,803,803,803,802,802,802,802,802,802,802,802,802,802,802,802,802,802,802,802,802,802,802,811,829,845,865,883,943,968,985,1003,1014,1020,1023,1025,1025,1027,1029,1033,1039,1056,1085,1098],"ymouse":[536,536,536,536,536,536,536,537,537,537,537,537,537,537,537,537,537,537,538,541,542,542,542,542,542,542,542,542,542,542,542,542,542,542,542,542,542,542,529,511,493,474,455,392,369,349,318,279,262,248,236,226,215,198,185,171,146,116,98],"timestamp_mouse":[13,37,55,73,94,113,134,155,174,195,213,233,254,273,295,313,334,353,373,393,414,434,454,473,493,513,534,554,574,593,613,634,653,674,694,714,733,754,773,793,813,833,853,873,893,913,933,954,973,994,1013,1034,1054,1074,1093,1113,1133,1154,1173],"xSR":741.5,"ySR":469.95,"xT1":424.9,"yT1":0,"xT2":1058.1,"yT2":0,"toosoon":0,"cond_shown":"randomdotsizeEA","ratio_trial":900,"smaller_num":"9","larger_num":"10","correct_side":1,"subjID":"ElenaAponteEspitia38","gender":"1","age":"11","school":"6"},{"start_time":1551794632332,"click_time":1551794633590,"finger_time":1551794633171,"fix_duration":1359.9412196321869,"trial":21,"RT":839,"MT":419,"sideResp":2,"stimulus":"img/500/equaldotanddens/R/12_Ratio_500_L_1_R_2.png","xmouse":[782,782,782,782,782,782,782,782,782,782,782,782,782,782,782,782,782,782,782,782,782,782,782,782,782,782,782,782,782,782,782,782,782,782,782,782,782,782,782,783,803,834,851,866,880,895,943,963,977,991,998,1013,1019,1026,1033,1043,1047,1049,1051,1054,1055,1063,1071],"ymouse":[531,531,531,531,531,531,531,531,531,531,531,531,531,531,531,531,531,531,531,531,531,531,531,531,531,531,531,531,531,531,531,531,531,531,531,531,531,531,531,531,504,463,435,411,385,361,300,279,262,237,225,203,192,180,167,145,135,127,123,116,112,102,94],"timestamp_mouse":[18,39,58,80,99,118,138,159,179,198,219,238,258,278,298,319,339,358,378,399,419,438,460,479,499,518,539,559,578,599,618,638,659,678,698,718,738,758,778,798,818,839,858,879,898,918,938,959,978,998,1018,1039,1058,1079,1098,1120,1138,1158,1178,1198,1219,1239,1258],"xSR":741.5,"ySR":469.95,"xT1":424.9,"yT1":0,"xT2":1058.1,"yT2":0,"toosoon":0,"cond_shown":"equaldotanddens","ratio_trial":500,"smaller_num":"1","larger_num":"2","correct_side":2,"subjID":"ElenaAponteEspitia38","gender":"1","age":"11","school":"6"},{"start_time":1551794635006,"click_time":1551794636370,"finger_time":1551794636030,"fix_duration":575.0378850402856,"trial":22,"RT":1024,"MT":340,"sideResp":1,"stimulus":"img/750/randomdotsizeEA/L/14_Ratio_750_L_8_R_6.png","xmouse":[774,774,774,774,774,774,774,774,774,774,774,774,774,774,774,774,774,774,774,774,774,774,774,774,774,774,774,774,774,774,774,774,774,774,774,774,774,774,774,774,774,774,774,774,774,774,774,779,782,783,783,781,758,736,710,684,641,567,482,460,447,441,436,434,432,432,432,437,456],"ymouse":[530,530,530,530,530,530,530,530,530,530,530,530,530,530,530,530,530,530,530,530,530,530,530,530,530,530,530,530,530,530,530,530,530,530,530,530,530,530,530,530,530,530,530,530,530,530,525,514,496,489,482,468,431,406,378,356,321,268,212,195,181,171,158,150,140,128,111,100,75],"timestamp_mouse":[5,34,45,64,84,104,125,144,164,184,204,224,245,264,283,303,325,344,363,384,404,424,445,464,483,505,524,544,565,584,604,624,645,664,684,704,725,745,764,784,805,824,844,864,883,904,924,944,965,984,1004,1024,1045,1064,1084,1103,1123,1144,1164,1184,1203,1224,1245,1264,1284,1304,1324,1344,1364],"xSR":741.5,"ySR":469.95,"xT1":424.9,"yT1":0,"xT2":1058.1,"yT2":0,"toosoon":0,"cond_shown":"randomdotsizeEA","ratio_trial":750,"smaller_num":"6","larger_num":"8","correct_side":1,"subjID":"ElenaAponteEspitia38","gender":"1","age":"11","school":"6"},{"start_time":1551794638165,"click_time":1551794639052,"finger_time":1551794638810,"fix_duration":993.5878764346195,"trial":23,"RT":645,"MT":242,"sideResp":1,"stimulus":"img/500/equaldotsize/L/7_Ratio_500_L_10_R_5.png","xmouse":[835,835,835,835,835,835,835,835,835,835,835,835,835,835,835,835,835,835,835,835,835,835,835,835,835,835,835,835,835,835,826,816,794,759,678,647,625,610,596,558,541,525,514,501,491],"ymouse":[513,513,513,513,513,513,513,513,513,513,513,513,513,513,513,513,513,513,513,513,513,513,513,513,513,513,513,513,513,514,494,472,430,369,270,235,212,190,172,139,129,118,109,103,98],"timestamp_mouse":[12,37,45,66,84,104,126,145,164,185,205,226,245,264,285,305,324,345,365,386,406,426,445,465,484,505,525,545,565,585,605,624,645,665,686,705,725,745,764,786,805,825,846,865,886],"xSR":741.5,"ySR":469.95,"xT1":424.9,"yT1":0,"xT2":1058.1,"yT2":0,"toosoon":0,"cond_shown":"equaldotsize","ratio_trial":500,"smaller_num":"5","larger_num":"10","correct_side":1,"subjID":"ElenaAponteEspitia38","gender":"1","age":"11","school":"6"},{"start_time":1551794641408,"click_time":1551794642491,"finger_time":1551794642150,"fix_duration":1497.4419242673634,"trial":24,"RT":742,"MT":341,"sideResp":1,"stimulus":"img/250/equaldotanddens/L/1_Ratio_250_L_8_R_2.png","xmouse":[830,830,830,830,830,830,830,830,830,830,830,830,830,830,830,830,830,830,830,830,830,830,830,830,830,830,830,830,830,830,830,830,830,830,828,821,803,751,670,629,595,569,550,519,508,496,494,492,492,492,492,492,492,492,492],"ymouse":[521,521,521,521,521,521,521,521,521,521,521,521,521,521,521,521,521,521,521,521,521,521,521,521,521,521,521,521,521,521,521,521,521,521,519,508,481,416,339,301,267,239,217,181,166,150,145,141,133,128,124,119,114,102,95],"timestamp_mouse":[8,22,42,62,82,102,123,143,163,181,201,223,241,263,283,302,322,342,362,383,402,422,442,463,482,501,523,542,562,582,602,622,643,661,682,701,723,742,762,782,802,822,842,863,882,902,923,942,963,982,1002,1022,1042,1063,1083],"xSR":741.5,"ySR":469.95,"xT1":424.9,"yT1":0,"xT2":1058.1,"yT2":0,"toosoon":0,"cond_shown":"equaldotanddens","ratio_trial":250,"smaller_num":"2","larger_num":"8","correct_side":1,"subjID":"ElenaAponteEspitia38","gender":"1","age":"11","school":"6"},{"start_time":1551794645745,"click_time":1551794646669,"finger_time":1551794646371,"fix_duration":674.0490349950211,"trial":25,"RT":626,"MT":298,"sideResp":1,"stimulus":"img/250/equaldotsize/L/15_Ratio_250_L_12_R_3.png","xmouse":[785,785,785,785,785,785,785,785,785,785,785,785,785,785,785,785,785,785,785,785,785,785,785,785,785,785,785,785,785,785,785,763,743,712,687,655,601,573,564,544,528,500,493,490,487,485,480],"ymouse":[517,517,517,517,517,517,517,517,517,517,517,517,517,517,517,517,517,517,517,517,517,517,517,517,517,517,517,517,517,516,501,453,426,388,354,315,258,232,222,197,179,152,143,134,126,116,97],"timestamp_mouse":[11,37,44,64,85,106,124,145,165,184,206,224,244,266,285,305,326,345,364,385,405,426,446,465,484,505,526,546,566,586,605,626,645,665,685,704,724,745,765,786,805,825,845,866,886,905,924],"xSR":741.5,"ySR":469.95,"xT1":424.9,"yT1":0,"xT2":1058.1,"yT2":0,"toosoon":0,"cond_shown":"equaldotsize","ratio_trial":250,"smaller_num":"3","larger_num":"12","correct_side":1,"subjID":"ElenaAponteEspitia38","gender":"1","age":"11","school":"6"},{"start_time":1551794649585,"click_time":1551794650630,"finger_time":1551794650251,"fix_duration":714.6531160913172,"trial":26,"RT":666,"MT":379,"sideResp":2,"stimulus":"img/750/equaldotanddens/R/15_Ratio_750_L_9_R_12.png","xmouse":[784,784,784,784,784,784,784,784,784,784,784,784,784,784,784,784,784,784,784,784,784,784,784,784,784,784,784,784,784,784,784,784,795,839,872,892,906,919,930,941,946,951,958,970,974,981,989,1002,1016,1046,1059,1071,1083],"ymouse":[525,525,525,525,525,525,525,525,525,525,525,525,525,525,525,525,525,525,525,525,525,525,525,525,525,525,525,525,525,525,525,525,506,460,432,414,397,379,356,333,322,310,296,263,247,229,213,192,178,149,131,113,93],"timestamp_mouse":[9,39,45,66,84,105,125,144,166,184,206,225,245,266,286,305,326,346,366,386,406,425,445,465,485,505,525,545,565,586,605,626,645,666,685,706,725,745,765,785,805,825,845,866,885,905,925,945,965,985,1005,1025,1045],"xSR":741.5,"ySR":469.95,"xT1":424.9,"yT1":0,"xT2":1058.1,"yT2":0,"toosoon":0,"cond_shown":"equaldotanddens","ratio_trial":750,"smaller_num":"9","larger_num":"12","correct_side":2,"subjID":"ElenaAponteEspitia38","gender":"1","age":"11","school":"6"},{"start_time":1551794652109,"click_time":1551794653230,"finger_time":1551794652870,"fix_duration":657.5217071614805,"trial":27,"RT":761,"MT":360,"sideResp":1,"stimulus":"img/750/equaldotanddens/L/1_Ratio_750_L_20_R_15.png","xmouse":[786,786,786,786,786,786,786,786,786,786,786,786,786,786,786,786,786,786,786,786,786,786,786,786,786,786,786,786,786,786,786,786,786,786,786,783,772,754,690,655,630,608,582,556,547,539,533,527,520,516,515,512,507,505,503,501,500],"ymouse":[530,530,530,530,530,530,530,530,530,530,530,530,530,530,530,530,530,530,530,530,530,530,530,530,530,530,530,530,530,530,530,530,530,530,530,521,502,471,383,347,315,287,252,221,206,195,185,173,154,141,136,128,114,109,105,101,96],"timestamp_mouse":[12,22,40,62,81,100,121,142,161,181,201,222,241,261,281,302,321,342,361,381,401,421,441,462,481,501,521,541,561,581,601,621,642,660,681,702,721,742,761,781,801,821,840,861,880,901,921,940,961,982,1001,1022,1042,1061,1080,1100,1121],"xSR":741.5,"ySR":469.95,"xT1":424.9,"yT1":0,"xT2":1058.1,"yT2":0,"toosoon":0,"cond_shown":"equaldotanddens","ratio_trial":750,"smaller_num":"15","larger_num":"20","correct_side":1,"subjID":"ElenaAponteEspitia38","gender":"1","age":"11","school":"6"},{"start_time":1551794655392,"click_time":1551794656450,"finger_time":1551794656091,"fix_duration":1340.2865995834977,"trial":28,"RT":699,"MT":359,"sideResp":1,"stimulus":"img/250/randomdotsizeEA/L/7_Ratio_250_L_8_R_2.png","xmouse":[790,790,790,790,790,790,790,790,790,790,790,790,790,790,790,790,790,790,790,790,790,790,790,790,790,790,790,790,790,790,790,790,790,777,767,756,724,697,645,624,604,588,577,564,559,556,551,546,539,535,529,524,517],"ymouse":[520,520,520,520,520,520,520,520,520,520,520,520,520,520,520,520,520,520,520,520,520,520,520,520,520,520,520,520,520,520,520,518,514,478,454,429,375,330,262,233,211,192,180,161,153,146,138,130,120,113,107,102,95],"timestamp_mouse":[19,42,59,78,97,119,139,158,178,198,218,237,259,279,299,318,337,359,379,397,418,437,458,478,498,518,539,558,579,598,618,638,657,678,699,718,739,758,778,798,818,838,859,878,898,918,938,957,977,998,1018,1038,1058],"xSR":741.5,"ySR":469.95,"xT1":424.9,"yT1":0,"xT2":1058.1,"yT2":0,"toosoon":0,"cond_shown":"randomdotsizeEA","ratio_trial":250,"smaller_num":"2","larger_num":"8","correct_side":1,"subjID":"ElenaAponteEspitia38","gender":"1","age":"11","school":"6"},{"start_time":1551794658116,"click_time":1551794659370,"finger_time":1551794658990,"fix_duration":845.50148581889,"trial":29,"RT":874,"MT":380,"sideResp":1,"stimulus":"img/250/equaldotanddens/L/7_Ratio_250_L_8_R_2.png","xmouse":[792,792,792,792,792,792,792,792,792,792,792,792,792,792,792,792,792,792,792,792,792,792,792,792,792,792,792,792,792,792,792,792,792,792,792,792,792,792,792,792,792,793,774,747,710,675,644,601,586,583,576,562,530,513,503,496,492,491,489,489,485,482,482],"ymouse":[529,529,529,529,529,529,529,529,529,529,529,529,529,529,529,529,529,529,529,529,529,529,529,529,529,529,529,529,529,529,529,529,529,529,529,529,529,529,529,529,529,528,496,459,416,374,343,298,285,282,273,254,217,200,185,173,156,149,142,136,126,106,94],"timestamp_mouse":[15,34,55,73,94,115,135,153,173,194,214,242,254,274,294,314,334,354,374,394,414,434,454,473,494,515,534,555,573,594,613,634,654,674,694,714,734,753,774,795,814,834,853,874,895,914,935,954,974,994,1014,1034,1054,1074,1094,1114,1135,1154,1174,1194,1214,1235,1254],"xSR":741.5,"ySR":469.95,"xT1":424.9,"yT1":0,"xT2":1058.1,"yT2":0,"toosoon":0,"cond_shown":"equaldotanddens","ratio_trial":250,"smaller_num":"2","larger_num":"8","correct_side":1,"subjID":"ElenaAponteEspitia38","gender":"1","age":"11","school":"6"},{"start_time":1551794661056,"click_time":1551794662290,"finger_time":1551794661890,"fix_duration":1065.0200405120247,"trial":30,"RT":834,"MT":400,"sideResp":2,"stimulus":"img/500/equaldotsize/R/2_Ratio_500_L_3_R_6.png","xmouse":[801,801,801,801,801,801,801,801,801,801,801,801,801,801,801,801,801,801,801,801,801,801,801,801,801,801,801,801,801,799,799,799,799,799,799,799,799,799,799,802,824,848,877,915,966,1029,1065,1094,1115,1126,1131,1131,1130,1128,1125,1109,1104,1099,1096,1092,1092,1092],"ymouse":[511,511,511,511,511,511,511,511,511,511,511,511,511,511,511,511,511,511,511,511,511,511,511,511,511,511,511,511,514,516,516,516,516,516,516,516,516,516,516,513,490,469,443,410,362,299,265,239,219,203,177,166,156,145,129,110,107,104,104,101,100,97],"timestamp_mouse":[13,35,53,75,94,114,134,154,175,193,213,234,253,275,294,314,333,355,374,393,415,434,454,474,494,513,534,554,574,595,614,634,655,674,695,715,733,755,775,793,813,834,854,874,894,914,934,955,973,994,1013,1034,1054,1075,1094,1114,1134,1155,1174,1194,1214,1234],"xSR":741.5,"ySR":469.95,"xT1":424.9,"yT1":0,"xT2":1058.1,"yT2":0,"toosoon":0,"cond_shown":"equaldotsize","ratio_trial":500,"smaller_num":"3","larger_num":"6","correct_side":2,"subjID":"ElenaAponteEspitia38","gender":"1","age":"11","school":"6"},{"start_time":1551794663923,"click_time":1551794664830,"finger_time":1551794664430,"fix_duration":691.426156712116,"trial":31,"RT":507,"MT":400,"sideResp":1,"stimulus":"img/750/equaldotsize/L/14_Ratio_750_L_8_R_6.png","xmouse":[803,803,803,803,803,803,803,803,803,803,803,803,803,803,803,803,803,803,803,803,803,803,795,777,757,732,692,681,675,668,654,646,623,605,591,580,563,560,556,551,547,535,525,522,519,515],"ymouse":[530,530,530,530,530,530,530,530,530,530,530,530,530,530,530,530,530,530,530,530,530,530,521,504,489,472,442,432,425,411,386,374,336,308,289,270,235,221,208,194,176,152,124,111,101,88],"timestamp_mouse":[8,33,47,68,87,107,126,148,167,187,208,226,247,268,286,307,328,347,366,388,408,427,447,467,486,507,528,547,568,586,607,627,648,667,688,707,728,747,767,787,807,827,847,867,887,907],"xSR":741.5,"ySR":469.95,"xT1":424.9,"yT1":0,"xT2":1058.1,"yT2":0,"toosoon":0,"cond_shown":"equaldotsize","ratio_trial":750,"smaller_num":"6","larger_num":"8","correct_side":1,"subjID":"ElenaAponteEspitia38","gender":"1","age":"11","school":"6"},{"start_time":1551794666257,"click_time":1551794667330,"finger_time":1551794666910,"fix_duration":765.3587321024454,"trial":32,"RT":653,"MT":420,"sideResp":2,"stimulus":"img/250/equaldotsize/R/13_Ratio_250_L_2_R_8.png","xmouse":[765,765,765,765,765,765,765,765,765,765,765,765,765,765,765,765,765,765,765,765,765,765,765,765,765,765,765,765,765,765,783,818,862,931,956,989,1003,1019,1033,1044,1060,1070,1076,1079,1079,1079,1079,1079,1078,1078,1078,1077,1077,1077],"ymouse":[510,510,510,511,511,511,511,512,512,512,512,512,512,512,512,512,512,512,512,512,512,512,512,512,512,512,512,512,512,512,499,480,457,418,402,360,340,320,304,288,259,240,224,202,192,184,182,181,177,171,147,132,114,91],"timestamp_mouse":[20,43,53,74,93,112,134,153,174,193,213,233,254,274,294,312,333,353,373,394,414,432,453,473,494,512,533,553,573,594,613,633,653,673,693,712,732,753,773,793,812,833,852,873,893,912,933,953,973,993,1012,1033,1053,1073],"xSR":741.5,"ySR":469.95,"xT1":424.9,"yT1":0,"xT2":1058.1,"yT2":0,"toosoon":0,"cond_shown":"equaldotsize","ratio_trial":250,"smaller_num":"2","larger_num":"8","correct_side":2,"subjID":"ElenaAponteEspitia38","gender":"1","age":"11","school":"6"},{"start_time":1551794669378,"click_time":1551794670651,"finger_time":1551794670371,"fix_duration":1206.8397803742907,"trial":33,"RT":993,"MT":280,"sideResp":2,"stimulus":"img/250/equaldotsize/R/8_Ratio_250_L_1_R_4.png","xmouse":[805,805,805,805,805,805,805,805,805,805,805,805,805,805,805,805,805,805,805,805,805,805,805,805,805,805,805,805,805,805,805,805,805,805,805,805,805,805,805,805,805,805,805,805,805,805,805,805,814,864,894,920,944,977,1033,1057,1067,1077,1082,1087,1088,1089,1089,1091],"ymouse":[537,537,540,541,542,542,542,542,542,543,543,544,544,544,544,544,544,544,544,544,544,544,544,544,544,544,544,544,544,544,544,544,544,544,544,544,544,544,544,544,544,544,544,544,544,544,544,542,524,457,424,398,369,327,258,225,206,183,169,150,137,124,108,92],"timestamp_mouse":[28,33,52,72,92,113,132,152,173,193,212,233,253,271,291,312,332,353,371,393,412,431,453,471,493,513,532,553,573,591,613,633,652,672,693,712,733,752,773,793,812,832,853,873,893,912,933,953,972,993,1012,1032,1052,1071,1091,1113,1132,1152,1172,1192,1211,1232,1252,1273],"xSR":741.5,"ySR":469.95,"xT1":424.9,"yT1":0,"xT2":1058.1,"yT2":0,"toosoon":0,"cond_shown":"equaldotsize","ratio_trial":250,"smaller_num":"1","larger_num":"4","correct_side":2,"subjID":"ElenaAponteEspitia38","gender":"1","age":"11","school":"6"},{"start_time":1551794671702,"click_time":1551794672931,"finger_time":1551794672610,"fix_duration":250,"trial":34,"RT":908,"MT":321,"sideResp":1,"stimulus":"img/900/equaldotanddens/L/10_Ratio_900_L_20_R_18.png","xmouse":[771,771,771,771,771,771,771,771,771,771,771,771,771,771,771,771,771,771,771,771,771,771,771,771,771,771,771,771,771,771,771,771,771,771,771,771,771,771,771,771,771,771,771,762,750,724,695,669,635,625,619,610,593,570,564,556,551,545,541,534,526,521],"ymouse":[529,529,529,529,529,529,529,529,529,529,529,529,529,529,529,529,529,529,529,529,529,529,529,529,529,529,529,529,529,529,529,529,529,529,529,529,529,529,529,529,529,529,529,515,495,459,415,379,325,307,291,272,237,199,181,163,147,123,108,95,79,73],"timestamp_mouse":[10,34,47,69,89,107,128,149,168,189,208,228,248,268,288,308,328,348,369,389,407,428,448,468,488,508,529,548,568,588,608,629,649,667,688,708,727,749,769,788,809,829,848,868,888,908,928,948,967,988,1008,1028,1048,1068,1088,1109,1128,1149,1168,1188,1208,1229],"xSR":741.5,"ySR":469.95,"xT1":424.9,"yT1":0,"xT2":1058.1,"yT2":0,"toosoon":0,"cond_shown":"equaldotanddens","ratio_trial":900,"smaller_num":"18","larger_num":"20","correct_side":1,"subjID":"ElenaAponteEspitia38","gender":"1","age":"11","school":"6"},{"start_time":1551794675052,"click_time":1551794678010,"finger_time":1551794675230,"fix_duration":1239.1784351279337,"trial":35,"RT":178,"MT":2780,"sideResp":1,"stimulus":"img/250/randomdotsizeEA/L/15_Ratio_250_L_12_R_3.png","xmouse":[807,807,807,807,807,807,807,807,807,807,807,807,808,808,808,808,808,808,808,808,808,808,808,807,804,798,798,797,796,796,796,796,796,796,796,796,796,795,795,795,795,795,795,795,784,722,678,662,657,645,639,631,629,625,622,619,614,610,608,605,597,589,579,567,519,516,511,511,511,511,511,511,511,511,511,511,511,511,511,511,511,511,511,511,511,511,511,511,511,511,511,511,511,511,511,511,511,511,511,511,511,511,511,511,511,511,511,511,511,511,511,511,511,511,511,511,511,511,511,511,511,511,511,511,511,511,511,511,511,511,511,511,511,511,511,511,511,511,511,511,511,511,511,511,511,511,487,466],"ymouse":[534,534,536,537,540,549,557,568,578,586,598,599,601,601,601,601,601,601,600,596,594,592,587,567,552,532,529,527,525,524,522,521,520,520,520,520,519,518,517,517,517,517,517,513,484,394,343,326,314,293,280,266,261,256,252,247,242,236,231,222,210,202,195,188,152,152,144,144,144,144,144,144,144,144,144,144,144,144,144,144,144,144,144,144,144,144,144,144,144,144,144,144,144,144,144,144,144,144,144,144,144,144,144,144,144,144,144,144,144,144,144,144,144,144,144,144,144,144,144,144,144,144,144,144,144,144,144,144,144,144,144,144,144,144,144,144,144,144,144,144,144,144,144,144,144,144,116,88],"timestamp_mouse":[30,38,58,78,98,119,138,158,178,199,217,238,258,279,298,318,337,357,378,399,417,438,458,479,498,519,538,558,578,597,618,638,657,677,699,719,738,759,779,799,819,837,858,878,898,918,938,958,978,999,1018,1039,1058,1078,1098,1118,1138,1158,1178,1198,1217,1238,1258,1277,1299,1318,1338,1358,1379,1398,1418,1438,1459,1478,1499,1517,1538,1557,1579,1598,1618,1638,1658,1678,1698,1718,1739,1759,1778,1799,1818,1839,1858,1877,1898,1918,1939,1958,1978,1998,2017,2038,2058,2078,2098,2118,2138,2159,2179,2197,2219,2239,2259,2278,2298,2317,2339,2358,2378,2399,2417,2438,2458,2478,2499,2518,2538,2558,2579,2599,2619,2637,2658,2678,2699,2717,2738,2759,2778,2798,2819,2838,2858,2878,2899,2919,2938,2958],"xSR":741.5,"ySR":469.95,"xT1":424.9,"yT1":0,"xT2":1058.1,"yT2":0,"toosoon":0,"cond_shown":"randomdotsizeEA","ratio_trial":250,"smaller_num":"3","larger_num":"12","correct_side":1,"subjID":"ElenaAponteEspitia38","gender":"1","age":"11","school":"6"},{"start_time":1551794679684,"click_time":1551794680570,"finger_time":1551794680371,"fix_duration":631.4854665165207,"trial":36,"RT":687,"MT":199,"sideResp":2,"stimulus":"img/500/randomdotsizeEA/R/2_Ratio_500_L_3_R_6.png","xmouse":[775,775,775,775,775,775,775,777,782,784,785,787,790,791,792,792,793,793,793,794,794,794,794,794,794,794,794,794,794,794,794,794,794,798,825,851,883,917,965,983,1000,1014,1030,1041,1059],"ymouse":[487,487,487,487,487,486,486,490,494,496,497,498,499,499,499,499,499,499,499,499,499,499,499,499,499,499,499,497,496,496,496,495,494,486,452,423,389,352,276,231,193,163,131,111,88],"timestamp_mouse":[8,36,46,67,85,106,127,146,167,186,205,226,246,265,287,306,325,346,366,387,407,425,447,466,487,507,526,546,566,587,606,626,647,666,687,705,727,746,767,786,807,826,846,866,886],"xSR":741.5,"ySR":469.95,"xT1":424.9,"yT1":0,"xT2":1058.1,"yT2":0,"toosoon":0,"cond_shown":"randomdotsizeEA","ratio_trial":500,"smaller_num":"3","larger_num":"6","correct_side":2,"subjID":"ElenaAponteEspitia38","gender":"1","age":"11","school":"6"},{"start_time":1551794681622,"click_time":1551794682350,"finger_time":1551794682130,"fix_duration":250,"trial":37,"RT":508,"MT":220,"sideResp":1,"stimulus":"img/750/randomdotsizeEA/R/2_Ratio_750_L_6_R_8.png","xmouse":[812,812,812,812,812,811,811,810,809,809,809,809,806,805,804,803,800,793,788,781,772,757,751,747,743,736,733,719,711,700,690,679,644,614,585,540,507],"ymouse":[497,497,497,497,497,497,498,499,499,499,500,500,501,502,502,502,502,502,502,502,500,491,488,485,482,476,473,450,438,423,405,385,303,242,189,119,75],"timestamp_mouse":[8,33,48,68,89,109,128,147,168,189,208,229,248,269,289,307,327,348,368,388,408,429,448,468,488,508,529,548,568,588,607,628,647,668,687,709,728],"xSR":741.5,"ySR":469.95,"xT1":424.9,"yT1":0,"xT2":1058.1,"yT2":0,"toosoon":0,"cond_shown":"randomdotsizeEA","ratio_trial":750,"smaller_num":"6","larger_num":"8","correct_side":2,"subjID":"ElenaAponteEspitia38","gender":"1","age":"11","school":"6"},{"start_time":1551794684708,"click_time":1551794685630,"finger_time":1551794685350,"fix_duration":1276.2232278502943,"trial":38,"RT":642,"MT":280,"sideResp":2,"stimulus":"img/900/equaldotsize/L/8_Ratio_900_L_20_R_18.png","xmouse":[812,812,812,812,812,812,812,812,812,812,812,812,812,812,812,812,812,812,812,812,812,812,812,812,812,812,812,812,812,812,820,835,854,909,941,968,991,1023,1032,1041,1048,1053,1056,1065,1069,1072,1073],"ymouse":[519,519,519,519,519,519,519,519,519,519,521,522,522,522,522,522,522,522,522,522,522,522,522,522,522,522,522,522,522,523,517,503,484,404,358,310,265,205,188,170,157,143,136,119,109,103,97],"timestamp_mouse":[8,22,50,63,83,102,122,143,162,182,202,221,243,262,282,301,323,342,362,382,402,422,442,462,481,503,523,543,562,583,602,622,642,661,682,702,722,743,762,781,802,822,842,862,881,902,922],"xSR":741.5,"ySR":469.95,"xT1":424.9,"yT1":0,"xT2":1058.1,"yT2":0,"toosoon":0,"cond_shown":"equaldotsize","ratio_trial":900,"smaller_num":"18","larger_num":"20","correct_side":1,"subjID":"ElenaAponteEspitia38","gender":"1","age":"11","school":"6"},{"start_time":1551794687051,"click_time":1551794688050,"finger_time":1551794687730,"fix_duration":639.1102491154386,"trial":39,"RT":679,"MT":320,"sideResp":1,"stimulus":"img/900/equaldotsize/R/3_Ratio_900_L_9_R_10.png","xmouse":[792,792,792,792,792,792,792,792,792,792,792,792,792,792,792,792,792,792,792,792,792,792,792,792,792,792,792,792,792,792,792,786,779,757,692,625,513,461,413,381,359,339,337,337,339,346,372,390,407,423,439],"ymouse":[520,520,520,520,520,520,520,520,520,520,520,520,520,520,520,520,520,520,520,520,520,520,520,520,520,520,520,520,520,520,520,510,499,475,412,356,259,214,175,146,126,100,83,72,61,46,26,18,14,11,11],"timestamp_mouse":[2,31,40,60,79,99,120,139,160,179,199,220,239,259,279,299,319,339,359,380,398,420,439,460,479,499,519,539,559,578,599,618,640,660,679,699,719,739,759,780,799,819,840,859,879,899,919,939,959,979,999],"xSR":741.5,"ySR":469.95,"xT1":424.9,"yT1":0,"xT2":1058.1,"yT2":0,"toosoon":0,"cond_shown":"equaldotsize","ratio_trial":900,"smaller_num":"9","larger_num":"10","correct_side":2,"subjID":"ElenaAponteEspitia38","gender":"1","age":"11","school":"6"},{"start_time":1551794689502,"click_time":1551794690651,"finger_time":1551794690371,"fix_duration":550.271256740661,"trial":40,"RT":869,"MT":280,"sideResp":1,"stimulus":"img/750/equaldotsize/L/14_Ratio_750_L_8_R_6.png","xmouse":[767,767,767,767,767,767,767,767,767,767,767,767,767,767,767,767,767,767,767,767,767,767,767,767,767,767,767,767,767,767,767,767,767,767,767,767,767,767,767,767,767,767,768,738,710,670,636,607,559,546,539,532,524,495,475,462,457,455],"ymouse":[542,542,542,542,542,542,542,542,542,542,542,542,542,542,542,542,541,541,541,541,541,541,541,541,541,541,541,541,541,541,541,541,541,541,541,541,541,541,541,541,541,541,537,483,442,392,352,310,252,237,225,213,201,168,147,131,117,95],"timestamp_mouse":[8,37,48,68,89,109,129,149,168,188,209,228,248,269,288,308,328,349,369,388,408,429,447,469,487,508,528,547,569,589,608,627,649,668,688,708,729,748,768,789,808,829,848,869,888,908,928,948,967,989,1008,1028,1047,1068,1088,1108,1128,1149],"xSR":741.5,"ySR":469.95,"xT1":424.9,"yT1":0,"xT2":1058.1,"yT2":0,"toosoon":0,"cond_shown":"equaldotsize","ratio_trial":750,"smaller_num":"6","larger_num":"8","correct_side":1,"subjID":"ElenaAponteEspitia38","gender":"1","age":"11","school":"6"},{"start_time":1551794691703,"click_time":1551794692770,"finger_time":1551794692430,"fix_duration":250,"trial":41,"RT":727,"MT":340,"sideResp":2,"stimulus":"img/750/randomdotsizeEA/R/4_Ratio_750_L_15_R_20.png","xmouse":[789,789,789,789,789,789,789,789,789,789,789,789,789,789,789,789,789,789,789,789,789,789,789,789,789,789,789,789,789,789,789,789,791,799,811,833,866,900,941,956,970,986,995,1009,1016,1021,1024,1028,1033,1038,1044,1051,1058,1070],"ymouse":[529,529,529,529,529,529,529,529,529,529,529,529,529,529,529,529,529,529,529,529,529,529,529,529,529,529,529,529,529,529,529,529,529,521,506,476,434,391,311,269,239,199,179,151,140,129,122,113,97,89,83,77,72,61],"timestamp_mouse":[8,39,48,68,86,108,128,147,167,187,207,227,247,267,286,307,328,348,367,386,408,427,447,467,488,508,527,548,568,588,607,627,647,668,687,708,727,746,766,787,807,827,847,867,886,907,927,947,967,987,1007,1026,1047,1066],"xSR":741.5,"ySR":469.95,"xT1":424.9,"yT1":0,"xT2":1058.1,"yT2":0,"toosoon":0,"cond_shown":"randomdotsizeEA","ratio_trial":750,"smaller_num":"15","larger_num":"20","correct_side":2,"subjID":"ElenaAponteEspitia38","gender":"1","age":"11","school":"6"},{"start_time":1551794694368,"click_time":1551794695268,"finger_time":1551794694969,"fix_duration":897.7587592090548,"trial":42,"RT":601,"MT":299,"sideResp":2,"stimulus":"img/500/equaldotanddens/R/9_Ratio_500_L_2_R_4.png","xmouse":[787,787,787,787,787,787,787,787,787,787,787,787,787,787,787,787,787,787,787,787,787,787,787,787,787,787,787,788,799,814,855,887,914,941,975,984,995,997,1006,1012,1020,1025,1033,1040,1050,1069],"ymouse":[517,517,517,517,517,517,517,517,517,517,517,517,517,517,517,517,517,517,517,517,517,517,517,517,518,520,520,520,517,504,459,414,364,319,231,203,166,156,134,123,104,95,85,74,65,52],"timestamp_mouse":[10,33,40,60,80,102,120,141,161,181,201,221,241,261,280,301,321,341,362,380,401,422,441,461,480,501,521,541,561,580,601,620,641,661,682,701,720,741,761,781,801,821,840,860,881,900],"xSR":741.5,"ySR":469.95,"xT1":424.9,"yT1":0,"xT2":1058.1,"yT2":0,"toosoon":0,"cond_shown":"equaldotanddens","ratio_trial":500,"smaller_num":"2","larger_num":"4","correct_side":2,"subjID":"ElenaAponteEspitia38","gender":"1","age":"11","school":"6"},{"start_time":1551794696965,"click_time":1551794697950,"finger_time":1551794697769,"fix_duration":1016.5019960181207,"trial":43,"RT":804,"MT":181,"sideResp":1,"stimulus":"img/750/randomdotsizeEA/R/12_Ratio_750_L_3_R_4.png","xmouse":[777,777,777,779,781,782,782,782,782,782,782,782,782,782,782,782,782,782,782,782,782,782,782,782,782,782,782,782,782,782,782,782,782,782,782,782,782,782,775,762,712,684,645,596,552,487,476,471,470,467],"ymouse":[513,513,513,514,514,514,514,514,514,514,514,514,514,514,514,514,514,514,514,514,514,514,514,514,514,514,514,514,514,514,514,514,514,514,514,514,514,513,500,482,412,373,321,266,218,142,121,110,101,81],"timestamp_mouse":[9,23,44,65,83,104,125,143,164,184,203,224,244,263,285,304,323,345,363,385,404,425,444,465,485,504,523,545,563,584,604,623,644,665,683,705,725,743,765,784,804,824,844,864,884,903,925,944,965,985],"xSR":741.5,"ySR":469.95,"xT1":424.9,"yT1":0,"xT2":1058.1,"yT2":0,"toosoon":0,"cond_shown":"randomdotsizeEA","ratio_trial":750,"smaller_num":"3","larger_num":"4","correct_side":2,"subjID":"ElenaAponteEspitia38","gender":"1","age":"11","school":"6"},{"start_time":1551794699843,"click_time":1551794700748,"finger_time":1551794700570,"fix_duration":1173.2638453415382,"trial":44,"RT":727,"MT":178,"sideResp":2,"stimulus":"img/500/randomdotsizeEA/R/9_Ratio_500_L_2_R_4.png","xmouse":[796,796,796,796,796,796,796,796,796,796,796,796,796,796,796,796,797,798,798,799,799,799,799,799,799,799,799,799,799,799,799,799,799,803,804,826,896,942,982,1013,1056,1070,1081,1088,1093,1102],"ymouse":[539,539,539,539,539,539,539,539,539,539,539,539,539,539,539,539,539,539,539,539,539,539,539,539,539,539,539,539,539,539,539,539,539,537,536,519,453,404,353,305,228,196,167,144,122,96],"timestamp_mouse":[8,39,46,66,87,106,125,146,167,187,206,226,246,265,287,306,325,346,365,385,405,427,445,467,485,505,526,546,566,585,607,626,646,666,686,706,727,746,766,786,807,825,847,866,887,905],"xSR":741.5,"ySR":469.95,"xT1":424.9,"yT1":0,"xT2":1058.1,"yT2":0,"toosoon":0,"cond_shown":"randomdotsizeEA","ratio_trial":500,"smaller_num":"2","larger_num":"4","correct_side":2,"subjID":"ElenaAponteEspitia38","gender":"1","age":"11","school":"6"},{"start_time":1551794702195,"click_time":1551794703289,"finger_time":1551794702969,"fix_duration":864.5188744168186,"trial":45,"RT":774,"MT":320,"sideResp":2,"stimulus":"img/500/randomdotsizeEA/R/14_Ratio_500_L_5_R_10.png","xmouse":[811,811,811,811,811,811,811,811,811,811,811,811,811,811,811,811,811,811,811,811,811,811,811,811,811,811,811,811,811,811,811,811,811,811,811,811,811,822,866,895,924,949,987,1000,1011,1019,1027,1033,1044,1048,1051,1055,1058,1065,1073],"ymouse":[538,538,538,538,538,538,538,538,538,538,538,538,538,538,538,538,538,538,538,538,538,538,538,538,538,538,538,538,538,538,538,538,538,538,538,538,537,520,459,420,378,331,262,241,222,206,188,179,158,147,140,132,126,111,95],"timestamp_mouse":[13,35,53,73,94,113,134,153,175,193,214,234,253,274,294,314,334,354,375,394,415,434,453,475,493,513,534,554,575,594,614,633,653,673,694,714,735,754,774,793,814,834,855,873,894,913,934,953,974,994,1015,1033,1055,1074,1093],"xSR":741.5,"ySR":469.95,"xT1":424.9,"yT1":0,"xT2":1058.1,"yT2":0,"toosoon":0,"cond_shown":"randomdotsizeEA","ratio_trial":500,"smaller_num":"5","larger_num":"10","correct_side":2,"subjID":"ElenaAponteEspitia38","gender":"1","age":"11","school":"6"},{"start_time":1551794705638,"click_time":1551794706709,"finger_time":1551794706309,"fix_duration":1467.2601757587172,"trial":46,"RT":671,"MT":400,"sideResp":2,"stimulus":"img/500/equaldotanddens/R/15_Ratio_500_L_1_R_2.png","xmouse":[774,774,774,774,774,774,774,774,774,774,774,774,774,774,774,774,774,774,774,774,774,774,774,774,774,774,774,774,774,775,782,797,819,875,917,945,975,983,992,1000,1008,1014,1015,1015,1018,1021,1027,1029,1033,1039,1047,1064,1069,1072],"ymouse":[519,520,521,522,523,524,524,524,524,524,524,524,524,524,524,524,524,526,527,528,528,528,528,528,528,528,528,528,528,529,522,502,472,390,342,305,246,219,195,176,159,142,137,137,133,130,122,120,118,115,112,104,102,99],"timestamp_mouse":[10,33,51,72,91,111,131,151,172,191,211,231,251,270,291,312,331,351,372,392,411,430,451,470,491,511,531,550,572,591,612,630,651,671,690,711,731,751,770,791,812,831,850,870,890,911,931,951,971,991,1010,1030,1051,1070],"xSR":741.5,"ySR":469.95,"xT1":424.9,"yT1":0,"xT2":1058.1,"yT2":0,"toosoon":0,"cond_shown":"equaldotanddens","ratio_trial":500,"smaller_num":"1","larger_num":"2","correct_side":2,"subjID":"ElenaAponteEspitia38","gender":"1","age":"11","school":"6"},{"start_time":1551794708264,"click_time":1551794709009,"finger_time":1551794708890,"fix_duration":653.2115982377079,"trial":47,"RT":626,"MT":119,"sideResp":2,"stimulus":"img/500/equaldotanddens/R/15_Ratio_500_L_1_R_2.png","xmouse":[799,799,799,799,799,799,799,799,799,799,799,799,799,799,799,799,799,799,799,799,799,799,799,799,799,799,799,799,799,799,817,860,909,979,1015,1057,1068,1076],"ymouse":[495,495,495,495,495,495,495,495,495,495,495,495,495,495,495,495,495,495,495,495,495,495,495,495,495,495,495,495,495,495,470,429,375,281,227,142,118,99],"timestamp_mouse":[10,24,46,65,84,106,124,144,165,184,206,225,245,264,286,305,326,345,364,386,405,425,444,465,486,506,525,546,564,584,605,626,645,664,685,706,726,745],"xSR":741.5,"ySR":469.95,"xT1":424.9,"yT1":0,"xT2":1058.1,"yT2":0,"toosoon":0,"cond_shown":"equaldotanddens","ratio_trial":500,"smaller_num":"1","larger_num":"2","correct_side":2,"subjID":"ElenaAponteEspitia38","gender":"1","age":"11","school":"6"},{"start_time":1551794710576,"click_time":1551794711469,"finger_time":1551794711329,"fix_duration":907.681178289761,"trial":48,"RT":753,"MT":140,"sideResp":1,"stimulus":"img/250/randomdotsizeEA/L/1_Ratio_250_L_8_R_2.png","xmouse":[769,769,769,769,769,769,769,769,769,769,769,769,769,769,769,769,769,769,769,769,769,769,769,769,769,769,769,769,769,769,769,769,769,769,769,765,760,737,711,630,597,570,548,522,514],"ymouse":[504,504,504,504,504,504,504,504,504,504,504,504,504,504,504,504,504,504,504,504,504,504,504,504,504,504,504,504,504,504,504,504,504,504,504,504,495,464,426,294,243,195,158,113,95],"timestamp_mouse":[12,37,54,73,93,113,133,153,172,193,213,234,253,272,293,313,333,353,372,393,412,432,453,473,494,512,532,554,572,594,614,633,653,673,693,713,732,753,772,794,813,833,852,874,893],"xSR":741.5,"ySR":469.95,"xT1":424.9,"yT1":0,"xT2":1058.1,"yT2":0,"toosoon":0,"cond_shown":"randomdotsizeEA","ratio_trial":250,"smaller_num":"2","larger_num":"8","correct_side":1,"subjID":"ElenaAponteEspitia38","gender":"1","age":"11","school":"6"},{"start_time":1551794716050,"click_time":1551794716729,"finger_time":1551794716609,"fix_duration":1059.8793598464256,"trial":49,"RT":559,"MT":120,"sideResp":2,"stimulus":"img/500/equaldotanddens/R/3_Ratio_500_L_10_R_20.png","xmouse":[793,793,793,793,793,792,791,791,791,791,791,791,791,791,791,791,791,791,791,791,791,791,791,791,791,793,804,819,847,881,918,988,1023,1048,1067],"ymouse":[505,505,505,505,505,505,509,511,512,512,512,512,512,512,512,512,512,512,512,512,512,512,512,512,512,510,501,484,451,404,352,237,176,131,91],"timestamp_mouse":[1,37,39,58,79,98,120,139,158,179,199,218,240,260,279,300,320,338,359,379,398,420,440,458,479,498,520,539,559,579,599,619,639,659,679],"xSR":741.5,"ySR":469.95,"xT1":424.9,"yT1":0,"xT2":1058.1,"yT2":0,"toosoon":0,"cond_shown":"equaldotanddens","ratio_trial":500,"smaller_num":"10","larger_num":"20","correct_side":2,"subjID":"ElenaAponteEspitia38","gender":"1","age":"11","school":"6"},{"start_time":1551794719505,"click_time":1551794720450,"finger_time":1551794720249,"fix_duration":653.7313430840801,"trial":50,"RT":744,"MT":201,"sideResp":1,"stimulus":"img/900/randomdotsizeEA/L/10_Ratio_900_L_20_R_18.png","xmouse":[799,799,799,799,799,799,799,799,799,799,799,799,799,799,799,799,799,799,799,799,799,799,799,799,799,799,799,799,799,799,799,799,799,799,794,788,755,698,552,501,475,462,456,454,453,453,456,470],"ymouse":[543,543,543,543,543,543,543,543,543,543,543,543,543,543,543,543,543,543,543,543,543,543,543,543,543,543,543,543,543,543,543,543,543,543,538,531,497,448,311,252,209,180,153,128,121,115,105,89],"timestamp_mouse":[10,31,45,63,84,105,124,143,165,184,205,224,243,265,284,305,324,344,364,385,404,424,444,465,485,504,524,544,563,584,604,623,643,665,683,704,724,744,764,784,804,824,844,864,884,904,924,945],"xSR":741.5,"ySR":469.95,"xT1":424.9,"yT1":0,"xT2":1058.1,"yT2":0,"toosoon":0,"cond_shown":"randomdotsizeEA","ratio_trial":900,"smaller_num":"18","larger_num":"20","correct_side":1,"subjID":"ElenaAponteEspitia38","gender":"1","age":"11","school":"6"},{"start_time":1551794722653,"click_time":1551794723668,"finger_time":1551794723268,"fix_duration":1282.8286496892463,"trial":51,"RT":615,"MT":400,"sideResp":2,"stimulus":"img/250/randomdotsizeEA/R/9_Ratio_250_L_3_R_12.png","xmouse":[776,776,776,779,779,779,779,779,779,779,779,779,779,779,779,779,779,779,779,780,780,780,780,780,780,780,784,790,804,821,873,896,913,944,975,980,983,985,986,989,992,998,1005,1013,1015,1015,1016,1025,1039,1053,1086],"ymouse":[537,534,534,530,529,529,529,529,529,529,529,529,529,529,529,529,529,527,523,522,522,522,522,522,522,522,520,515,505,491,452,431,401,327,242,212,188,170,159,146,138,129,118,107,105,105,105,105,102,98,85],"timestamp_mouse":[22,47,55,76,96,116,135,155,176,196,217,236,255,276,297,315,336,357,376,396,417,435,455,477,497,515,536,556,577,595,615,637,656,677,697,715,736,756,775,797,815,836,855,876,896,917,935,956,975,995,1015],"xSR":741.5,"ySR":469.95,"xT1":424.9,"yT1":0,"xT2":1058.1,"yT2":0,"toosoon":0,"cond_shown":"randomdotsizeEA","ratio_trial":250,"smaller_num":"3","larger_num":"12","correct_side":2,"subjID":"ElenaAponteEspitia38","gender":"1","age":"11","school":"6"},{"start_time":1551794726340,"click_time":1551794727029,"finger_time":1551794726948,"fix_duration":250,"trial":52,"RT":608,"MT":81,"sideResp":1,"stimulus":"img/500/randomdotsizeEA/L/11_Ratio_500_L_12_R_6.png","xmouse":[775,775,775,775,775,775,775,775,775,775,775,775,775,775,775,775,775,775,775,775,775,775,775,775,775,775,776,779,780,780,752,657,593,535,489],"ymouse":[550,550,550,550,550,550,550,550,550,550,550,550,550,550,550,550,550,550,550,550,550,550,550,550,549,547,540,530,503,490,414,273,195,126,77],"timestamp_mouse":[8,38,50,68,89,108,130,149,168,189,209,228,249,268,290,309,330,349,370,389,408,430,450,469,489,509,528,549,569,588,608,629,648,670,689],"xSR":741.5,"ySR":469.95,"xT1":424.9,"yT1":0,"xT2":1058.1,"yT2":0,"toosoon":0,"cond_shown":"randomdotsizeEA","ratio_trial":500,"smaller_num":"6","larger_num":"12","correct_side":1,"subjID":"ElenaAponteEspitia38","gender":"1","age":"11","school":"6"},{"start_time":1551794732850,"click_time":1551794733788,"finger_time":1551794733409,"fix_duration":1199.1203831553323,"trial":53,"RT":559,"MT":379,"sideResp":1,"stimulus":"img/250/equaldotanddens/L/1_Ratio_250_L_8_R_2.png","xmouse":[791,791,791,791,791,791,791,791,791,791,791,791,791,791,791,791,791,791,791,791,791,791,790,788,785,768,751,724,695,660,652,647,638,628,622,619,618,617,615,610,606,600,594,583,552,525,500],"ymouse":[516,516,516,516,517,534,544,555,562,565,567,567,567,567,567,567,567,567,567,567,567,567,566,564,559,544,532,507,469,376,318,283,245,195,165,120,104,96,92,89,89,89,89,89,92,95,99],"timestamp_mouse":[33,39,58,78,98,119,138,159,179,199,219,238,259,279,299,319,339,359,379,399,419,438,458,480,499,520,539,559,578,599,618,639,658,678,699,718,739,759,779,801,818,838,859,878,899,918,938],"xSR":741.5,"ySR":469.95,"xT1":424.9,"yT1":0,"xT2":1058.1,"yT2":0,"toosoon":0,"cond_shown":"equaldotanddens","ratio_trial":250,"smaller_num":"2","larger_num":"8","correct_side":1,"subjID":"ElenaAponteEspitia38","gender":"1","age":"11","school":"6"},{"start_time":1551794736743,"click_time":1551794737709,"finger_time":1551794737490,"fix_duration":371.6923072865311,"trial":54,"RT":747,"MT":219,"sideResp":1,"stimulus":"img/900/equaldotanddens/L/1_Ratio_900_L_10_R_9.png","xmouse":[767,767,767,767,767,767,767,767,767,767,767,767,767,767,767,767,767,767,767,767,767,767,767,767,767,768,768,768,768,768,768,768,767,767,766,765,763,746,735,704,627,569,550,542,538,534,531,526,523],"ymouse":[515,515,515,515,515,515,515,515,515,515,515,515,515,515,515,515,515,515,515,515,515,515,515,515,515,515,515,516,516,516,517,518,518,518,518,516,505,460,434,364,258,168,137,118,108,89,77,66,59],"timestamp_mouse":[9,36,46,66,85,107,127,147,166,185,207,227,245,267,285,306,325,347,365,385,406,426,446,465,487,507,526,546,567,585,605,627,647,667,687,707,725,747,766,786,805,826,845,867,886,907,926,946,966],"xSR":741.5,"ySR":469.95,"xT1":424.9,"yT1":0,"xT2":1058.1,"yT2":0,"toosoon":0,"cond_shown":"equaldotanddens","ratio_trial":900,"smaller_num":"9","larger_num":"10","correct_side":1,"subjID":"ElenaAponteEspitia38","gender":"1","age":"11","school":"6"},{"start_time":1551794738720,"click_time":1551794739529,"finger_time":1551794739188,"fix_duration":250,"trial":55,"RT":468,"MT":341,"sideResp":1,"stimulus":"img/250/randomdotsizeEA/L/2_Ratio_250_L_16_R_4.png","xmouse":[808,808,808,807,807,806,806,806,806,806,806,806,806,806,806,806,806,806,806,806,805,801,774,752,719,684,623,603,595,590,588,581,572,555,539,526,518,517,516,516,506],"ymouse":[513,513,513,514,515,515,516,516,516,516,516,516,516,516,516,516,516,516,516,516,516,514,492,466,424,370,268,232,215,205,200,182,167,150,134,122,108,107,106,105,92],"timestamp_mouse":[9,29,49,68,90,109,130,150,169,189,209,228,250,268,289,310,330,348,369,388,410,429,448,468,489,509,530,548,568,589,608,629,648,669,689,709,730,749,769,788,809],"xSR":741.5,"ySR":469.95,"xT1":424.9,"yT1":0,"xT2":1058.1,"yT2":0,"toosoon":0,"cond_shown":"randomdotsizeEA","ratio_trial":250,"smaller_num":"4","larger_num":"16","correct_side":1,"subjID":"ElenaAponteEspitia38","gender":"1","age":"11","school":"6"},{"start_time":1551794740541,"click_time":1551794741709,"finger_time":1551794741028,"fix_duration":250,"trial":56,"RT":487,"MT":681,"sideResp":1,"stimulus":"img/750/equaldotsize/L/6_Ratio_750_L_24_R_18.png","xmouse":[807,807,807,807,807,807,807,807,807,807,807,807,807,807,807,807,807,807,807,806,816,822,825,826,827,827,827,827,827,827,826,826,831,846,863,894,900,904,905,903,903,892,877,862,851,831,821,805,797,776,767,760,757,749,730,693,584,545,516],"ymouse":[505,505,505,505,505,505,505,505,505,505,505,505,505,505,505,505,505,505,505,505,494,485,479,474,468,464,464,462,462,462,461,456,445,425,402,346,324,305,291,285,284,289,302,316,327,347,358,376,384,395,397,397,390,370,324,262,143,104,69],"timestamp_mouse":[8,28,56,69,89,108,129,149,167,188,208,229,249,268,287,308,328,349,369,389,409,429,448,468,487,508,529,548,569,588,607,627,647,668,687,709,728,747,768,788,808,827,848,868,888,909,928,947,967,987,1007,1029,1047,1067,1088,1107,1127,1148,1168],"xSR":741.5,"ySR":469.95,"xT1":424.9,"yT1":0,"xT2":1058.1,"yT2":0,"toosoon":0,"cond_shown":"equaldotsize","ratio_trial":750,"smaller_num":"18","larger_num":"24","correct_side":1,"subjID":"ElenaAponteEspitia38","gender":"1","age":"11","school":"6"},{"start_time":1551794743454,"click_time":1551794744169,"finger_time":1551794743949,"fix_duration":1064.2777705563512,"trial":57,"RT":495,"MT":220,"sideResp":2,"stimulus":"img/500/equaldotsize/R/6_Ratio_500_L_9_R_18.png","xmouse":[784,784,784,784,784,784,784,784,784,784,784,784,784,784,784,784,784,784,784,785,793,801,808,824,851,865,879,894,907,928,975,993,1011,1036,1049,1059],"ymouse":[525,525,525,525,525,525,525,525,525,525,525,525,525,525,525,525,525,525,526,526,520,514,503,471,398,347,290,243,204,160,91,71,58,44,38,32],"timestamp_mouse":[18,46,54,76,95,115,134,155,175,195,215,235,255,274,294,314,334,356,375,395,415,436,454,476,495,514,534,555,575,596,615,634,655,675,694,714],"xSR":741.5,"ySR":469.95,"xT1":424.9,"yT1":0,"xT2":1058.1,"yT2":0,"toosoon":0,"cond_shown":"equaldotsize","ratio_trial":500,"smaller_num":"9","larger_num":"18","correct_side":2,"subjID":"ElenaAponteEspitia38","gender":"1","age":"11","school":"6"},{"start_time":1551794745885,"click_time":1551794746469,"finger_time":1551794746330,"fix_duration":875.3514637345374,"trial":58,"RT":445,"MT":139,"sideResp":1,"stimulus":"img/750/randomdotsizeEA/L/8_Ratio_750_L_4_R_3.png","xmouse":[794,794,794,794,794,794,794,794,794,794,793,792,792,792,792,792,792,792,792,791,788,781,752,715,617,577,554,539,527,523],"ymouse":[537,537,537,537,537,537,537,537,537,537,539,539,539,539,539,539,539,539,539,538,530,506,441,380,246,186,139,106,69,56],"timestamp_mouse":[8,36,44,65,84,104,124,145,164,185,203,223,243,263,284,303,325,343,365,384,403,423,445,465,484,503,524,544,565,584],"xSR":741.5,"ySR":469.95,"xT1":424.9,"yT1":0,"xT2":1058.1,"yT2":0,"toosoon":0,"cond_shown":"randomdotsizeEA","ratio_trial":750,"smaller_num":"3","larger_num":"4","correct_side":1,"subjID":"ElenaAponteEspitia38","gender":"1","age":"11","school":"6"},{"start_time":1551794748012,"click_time":1551794748809,"finger_time":1551794748449,"fix_duration":862.1726100480355,"trial":59,"RT":437,"MT":360,"sideResp":1,"stimulus":"img/500/equaldotsize/L/10_Ratio_500_L_4_R_2.png","xmouse":[813,813,813,811,810,807,806,803,802,802,802,802,802,802,802,802,801,799,790,774,743,698,582,529,451,403,360,295,271,254,254,254,254,254,254,254,327,362,401,428],"ymouse":[508,508,508,509,512,516,518,526,528,528,528,528,528,528,528,528,529,529,526,518,498,473,403,358,285,234,180,76,33,4,4,4,4,4,4,4,4,27,55,74],"timestamp_mouse":[17,37,56,77,97,116,136,158,177,196,216,238,256,277,296,316,337,357,377,397,417,437,457,477,497,517,536,557,577,597,618,637,657,676,697,718,738,756,776,797],"xSR":741.5,"ySR":469.95,"xT1":424.9,"yT1":0,"xT2":1058.1,"yT2":0,"toosoon":0,"cond_shown":"equaldotsize","ratio_trial":500,"smaller_num":"2","larger_num":"4","correct_side":1,"subjID":"ElenaAponteEspitia38","gender":"1","age":"11","school":"6"},{"start_time":1551794751266,"click_time":1551794751868,"finger_time":1551794751610,"fix_duration":1214.8663018034208,"trial":60,"RT":344,"MT":258,"sideResp":1,"stimulus":"img/900/equaldotsize/L/4_Ratio_900_L_20_R_18.png","xmouse":[793,793,793,793,793,793,793,793,793,793,793,793,793,793,792,782,768,748,730,719,704,697,686,664,635,625,614,600,581,550,506],"ymouse":[512,512,512,512,512,512,512,512,512,512,512,512,512,512,511,495,478,457,438,422,402,392,378,351,309,288,264,228,184,136,66],"timestamp_mouse":[10,31,44,62,83,102,123,143,163,183,202,224,243,262,283,303,323,344,363,383,402,423,443,462,484,503,522,543,562,582,602],"xSR":741.5,"ySR":469.95,"xT1":424.9,"yT1":0,"xT2":1058.1,"yT2":0,"toosoon":0,"cond_shown":"equaldotsize","ratio_trial":900,"smaller_num":"18","larger_num":"20","correct_side":1,"subjID":"ElenaAponteEspitia38","gender":"1","age":"11","school":"6"},{"start_time":1551794752720,"click_time":1551794753488,"finger_time":1551794753209,"fix_duration":250,"trial":61,"RT":489,"MT":279,"sideResp":1,"stimulus":"img/500/equaldotanddens/L/7_Ratio_500_L_10_R_5.png","xmouse":[778,778,778,778,778,779,779,779,779,779,779,779,779,779,779,779,779,779,779,779,779,778,767,751,729,699,641,624,612,603,589,579,562,558,556,554,546,537,512],"ymouse":[525,525,525,525,525,526,526,526,526,526,526,526,526,526,526,526,526,526,526,526,526,523,513,501,482,457,398,372,350,329,294,271,225,206,187,172,138,118,83],"timestamp_mouse":[9,34,49,68,88,110,128,148,170,189,210,230,249,269,288,310,330,349,368,388,408,429,449,469,489,508,530,548,569,588,609,628,648,668,688,709,730,748,768],"xSR":741.5,"ySR":469.95,"xT1":424.9,"yT1":0,"xT2":1058.1,"yT2":0,"toosoon":0,"cond_shown":"equaldotanddens","ratio_trial":500,"smaller_num":"5","larger_num":"10","correct_side":1,"subjID":"ElenaAponteEspitia38","gender":"1","age":"11","school":"6"},{"start_time":1551794754452,"click_time":1551794755068,"finger_time":1551794754929,"fix_duration":382.8616640359795,"trial":62,"RT":477,"MT":139,"sideResp":1,"stimulus":"img/500/equaldotsize/L/11_Ratio_500_L_12_R_6.png","xmouse":[813,813,813,813,813,813,813,813,813,813,812,812,811,811,811,810,810,810,810,810,800,790,771,731,662,631,604,584,565,526,503],"ymouse":[562,562,562,562,562,562,562,562,562,562,561,558,556,553,552,551,551,551,550,548,531,513,487,425,315,264,218,177,145,81,50],"timestamp_mouse":[35,36,57,76,96,116,136,156,176,197,216,236,256,276,296,316,337,357,376,396,417,436,456,477,497,516,536,556,576,597,616],"xSR":741.5,"ySR":469.95,"xT1":424.9,"yT1":0,"xT2":1058.1,"yT2":0,"toosoon":0,"cond_shown":"equaldotsize","ratio_trial":500,"smaller_num":"6","larger_num":"12","correct_side":1,"subjID":"ElenaAponteEspitia38","gender":"1","age":"11","school":"6"},{"start_time":1551794755980,"click_time":1551794756949,"finger_time":1551794756369,"fix_duration":250,"trial":63,"RT":389,"MT":580,"sideResp":1,"stimulus":"img/750/randomdotsizeEA/L/14_Ratio_750_L_8_R_6.png","xmouse":[795,795,795,795,795,795,795,795,795,795,795,795,795,795,795,795,795,795,791,770,752,730,705,677,675,675,675,675,675,675,675,675,675,675,675,675,675,675,675,675,675,675,675,671,634,601,558,526,518],"ymouse":[515,515,515,515,515,515,515,515,515,515,515,515,515,515,515,515,510,506,493,458,438,417,399,379,378,378,378,378,378,379,379,379,379,379,379,379,379,379,379,379,379,371,348,316,211,157,106,70,60],"timestamp_mouse":[9,36,49,70,88,108,128,148,169,190,208,228,248,269,288,309,328,348,368,389,409,428,448,469,488,508,528,548,570,589,608,628,648,669,688,709,728,748,770,788,808,828,848,869,888,908,928,948,969],"xSR":741.5,"ySR":469.95,"xT1":424.9,"yT1":0,"xT2":1058.1,"yT2":0,"toosoon":0,"cond_shown":"randomdotsizeEA","ratio_trial":750,"smaller_num":"6","larger_num":"8","correct_side":1,"subjID":"ElenaAponteEspitia38","gender":"1","age":"11","school":"6"},{"start_time":1551794758581,"click_time":1551794759468,"finger_time":1551794758988,"fix_duration":952.4985106869208,"trial":64,"RT":407,"MT":480,"sideResp":2,"stimulus":"img/250/randomdotsizeEA/R/12_Ratio_250_L_5_R_20.png","xmouse":[788,788,788,788,788,788,788,788,788,788,788,788,788,788,788,788,788,788,784,768,756,738,718,703,695,695,695,695,700,710,727,744,764,780,802,817,833,862,916,943,966,990,1016,1045,1105],"ymouse":[508,508,508,508,508,508,508,508,508,508,508,508,508,508,508,508,508,508,504,481,465,443,419,400,388,388,388,388,394,402,413,423,430,433,423,404,383,349,287,253,222,186,150,115,67],"timestamp_mouse":[8,34,47,68,87,107,127,147,168,187,207,228,247,267,287,307,327,347,367,387,407,428,449,467,487,507,528,549,568,587,607,628,647,667,687,707,727,747,769,787,807,828,847,867,887],"xSR":741.5,"ySR":469.95,"xT1":424.9,"yT1":0,"xT2":1058.1,"yT2":0,"toosoon":0,"cond_shown":"randomdotsizeEA","ratio_trial":250,"smaller_num":"5","larger_num":"20","correct_side":2,"subjID":"ElenaAponteEspitia38","gender":"1","age":"11","school":"6"},{"start_time":1551794761416,"click_time":1551794762208,"finger_time":1551794762109,"fix_duration":1164.4807362176473,"trial":65,"RT":693,"MT":99,"sideResp":1,"stimulus":"img/250/equaldotsize/L/15_Ratio_250_L_12_R_3.png","xmouse":[787,786,786,786,786,786,786,786,786,786,786,786,786,786,786,786,786,786,786,786,786,786,786,786,786,786,786,786,786,786,786,786,780,766,713,668,613,516,486,466],"ymouse":[524,523,523,523,523,523,523,523,523,523,523,523,523,523,523,523,523,523,523,523,523,523,523,523,523,523,523,523,523,523,523,523,506,480,399,336,269,149,100,74],"timestamp_mouse":[12,39,52,72,92,113,133,153,172,192,212,233,254,272,293,312,332,352,373,392,412,432,452,472,492,513,533,552,573,592,614,633,652,672,693,712,732,752,772,792],"xSR":741.5,"ySR":469.95,"xT1":424.9,"yT1":0,"xT2":1058.1,"yT2":0,"toosoon":0,"cond_shown":"equaldotsize","ratio_trial":250,"smaller_num":"3","larger_num":"12","correct_side":1,"subjID":"ElenaAponteEspitia38","gender":"1","age":"11","school":"6"},{"start_time":1551794763304,"click_time":1551794764449,"finger_time":1551794764108,"fix_duration":314.3324229793354,"trial":66,"RT":804,"MT":341,"sideResp":1,"stimulus":"img/750/equaldotsize/L/6_Ratio_750_L_24_R_18.png","xmouse":[785,785,785,785,785,785,785,785,785,785,785,785,785,785,785,785,785,785,785,785,785,785,785,785,785,785,785,785,785,785,785,785,785,785,785,785,785,785,777,755,709,630,587,534,525,523,523,523,524,526,529,533,536,543,545,545,540,499],"ymouse":[505,505,505,505,505,505,505,505,505,505,505,505,505,505,505,505,505,505,505,505,505,505,505,505,505,505,505,505,505,505,505,505,505,505,505,505,505,505,491,470,433,379,339,289,273,264,257,246,241,235,230,225,220,201,182,160,134,70],"timestamp_mouse":[6,26,44,64,84,104,124,145,164,184,205,224,244,264,286,304,325,345,364,385,406,424,445,464,485,505,525,545,565,585,605,625,644,665,685,704,724,745,765,784,804,825,846,866,884,905,924,945,964,985,1004,1024,1044,1064,1084,1104,1124,1145],"xSR":741.5,"ySR":469.95,"xT1":424.9,"yT1":0,"xT2":1058.1,"yT2":0,"toosoon":0,"cond_shown":"equaldotsize","ratio_trial":750,"smaller_num":"18","larger_num":"24","correct_side":1,"subjID":"ElenaAponteEspitia38","gender":"1","age":"11","school":"6"},{"start_time":1551794766304,"click_time":1551794767409,"finger_time":1551794767028,"fix_duration":1073.5445498814022,"trial":67,"RT":724,"MT":381,"sideResp":2,"stimulus":"img/900/equaldotanddens/L/1_Ratio_900_L_10_R_9.png","xmouse":[781,781,781,781,781,781,781,781,781,781,781,781,781,781,781,781,781,781,781,781,781,780,780,780,780,780,780,780,780,780,780,780,780,786,794,803,816,848,868,889,906,918,925,941,945,949,954,960,982,993,1004,1019,1032,1050,1058,1061],"ymouse":[517,517,517,517,517,517,517,517,517,517,517,517,517,517,517,517,517,517,516,515,514,512,512,512,512,512,512,512,512,512,512,512,511,503,493,481,462,418,386,355,320,278,255,216,203,194,183,174,147,138,129,120,114,105,101,99],"timestamp_mouse":[19,24,45,64,86,104,124,144,164,184,204,225,245,265,284,304,325,344,364,384,404,424,445,464,485,505,526,545,565,584,604,624,644,664,684,704,724,745,764,785,804,824,844,864,885,904,924,945,964,984,1004,1024,1044,1064,1085,1105],"xSR":741.5,"ySR":469.95,"xT1":424.9,"yT1":0,"xT2":1058.1,"yT2":0,"toosoon":0,"cond_shown":"equaldotanddens","ratio_trial":900,"smaller_num":"9","larger_num":"10","correct_side":1,"subjID":"ElenaAponteEspitia38","gender":"1","age":"11","school":"6"},{"start_time":1551794769161,"click_time":1551794770008,"finger_time":1551794769850,"fix_duration":789.282742061622,"trial":68,"RT":689,"MT":158,"sideResp":2,"stimulus":"img/750/equaldotsize/R/2_Ratio_750_L_6_R_8.png","xmouse":[763,763,763,760,753,751,751,751,751,751,751,751,751,751,751,751,751,751,751,751,751,751,751,751,751,751,751,751,751,751,751,751,751,751,762,775,794,814,850,886,978,1025,1064],"ymouse":[526,523,511,500,484,480,480,480,480,480,480,480,480,480,480,480,480,480,480,480,480,480,480,480,480,480,480,480,480,480,480,480,480,479,456,433,398,349,274,218,115,83,54],"timestamp_mouse":[9,36,47,67,88,107,127,148,167,188,208,228,247,268,288,307,327,347,368,388,409,427,447,468,488,507,527,547,567,588,608,627,648,667,689,707,727,748,768,787,807,827,847],"xSR":741.5,"ySR":469.95,"xT1":424.9,"yT1":0,"xT2":1058.1,"yT2":0,"toosoon":0,"cond_shown":"equaldotsize","ratio_trial":750,"smaller_num":"6","larger_num":"8","correct_side":2,"subjID":"ElenaAponteEspitia38","gender":"1","age":"11","school":"6"},{"start_time":1551794771768,"click_time":1551794772950,"finger_time":1551794772568,"fix_duration":917.3556582872836,"trial":69,"RT":800,"MT":382,"sideResp":2,"stimulus":"img/250/equaldotsize/R/8_Ratio_250_L_1_R_4.png","xmouse":[771,771,771,771,771,771,771,771,771,771,771,771,771,771,771,771,771,771,771,771,771,771,771,771,771,771,771,771,771,771,771,771,771,771,771,771,771,776,785,814,875,897,911,927,938,953,962,966,969,970,973,976,980,983,990,1006,1015,1026,1038,1062],"ymouse":[523,523,523,523,523,523,523,523,523,523,523,523,523,523,523,523,523,523,523,523,523,523,523,523,523,523,523,523,523,523,523,523,523,523,523,523,523,517,508,484,420,388,355,313,274,221,200,186,172,167,159,153,148,144,139,130,124,119,112,96],"timestamp_mouse":[8,32,41,61,80,101,120,141,161,181,201,220,242,261,281,301,320,340,360,380,400,420,441,461,480,500,520,541,560,580,601,622,642,660,682,700,722,740,761,780,800,820,840,860,881,900,921,940,960,980,1000,1021,1041,1060,1080,1100,1120,1140,1160,1182],"xSR":741.5,"ySR":469.95,"xT1":424.9,"yT1":0,"xT2":1058.1,"yT2":0,"toosoon":0,"cond_shown":"equaldotsize","ratio_trial":250,"smaller_num":"1","larger_num":"4","correct_side":2,"subjID":"ElenaAponteEspitia38","gender":"1","age":"11","school":"6"},{"start_time":1551794773879,"click_time":1551794774709,"finger_time":1551794774488,"fix_duration":250,"trial":70,"RT":609,"MT":221,"sideResp":2,"stimulus":"img/250/equaldotanddens/R/4_Ratio_250_L_3_R_12.png","xmouse":[813,809,808,806,806,806,806,806,806,806,806,806,806,806,806,806,806,806,806,806,806,806,806,806,806,806,806,806,806,811,824,844,853,918,946,970,991,1008,1021,1046,1058,1073],"ymouse":[533,534,535,535,535,535,535,535,535,535,535,535,535,535,535,535,535,535,535,535,535,535,535,535,535,535,535,535,535,507,466,395,368,227,184,153,131,118,109,92,85,77],"timestamp_mouse":[9,29,50,71,90,109,129,149,171,190,210,230,251,269,291,309,329,350,369,389,409,430,450,470,489,509,530,550,569,589,609,629,649,670,689,709,730,749,769,789,809,829],"xSR":741.5,"ySR":469.95,"xT1":424.9,"yT1":0,"xT2":1058.1,"yT2":0,"toosoon":0,"cond_shown":"equaldotanddens","ratio_trial":250,"smaller_num":"3","larger_num":"12","correct_side":2,"subjID":"ElenaAponteEspitia38","gender":"1","age":"11","school":"6"},{"start_time":1551794776533,"click_time":1551794777250,"finger_time":1551794776988,"fix_duration":1143.1675502303237,"trial":71,"RT":455,"MT":262,"sideResp":1,"stimulus":"img/750/equaldotanddens/L/8_Ratio_750_L_4_R_3.png","xmouse":[788,788,788,788,788,788,788,788,788,788,788,788,788,788,788,788,788,788,788,787,786,765,739,706,672,625,611,601,593,583,577,556,535,516,501,479],"ymouse":[541,541,541,541,541,541,541,541,541,541,541,541,541,541,541,541,541,541,541,541,537,494,458,420,384,334,316,303,296,284,274,236,200,166,131,62],"timestamp_mouse":[15,35,56,75,96,115,136,155,176,195,216,235,255,275,295,316,335,356,376,395,415,435,455,475,495,516,535,555,575,595,615,635,656,676,695,716],"xSR":741.5,"ySR":469.95,"xT1":424.9,"yT1":0,"xT2":1058.1,"yT2":0,"toosoon":0,"cond_shown":"equaldotanddens","ratio_trial":750,"smaller_num":"3","larger_num":"4","correct_side":1,"subjID":"ElenaAponteEspitia38","gender":"1","age":"11","school":"6"},{"start_time":1551794778930,"click_time":1551794779970,"finger_time":1551794779569,"fix_duration":460.30883958754123,"trial":72,"RT":639,"MT":401,"sideResp":2,"stimulus":"img/250/equaldotsize/R/8_Ratio_250_L_1_R_4.png","xmouse":[798,798,798,798,798,798,798,798,798,798,798,798,798,798,798,798,798,798,798,798,798,806,812,818,821,822,822,822,822,823,832,860,881,901,921,938,965,973,981,988,1001,1018,1024,1030,1032,1032,1033,1034,1042,1050,1056,1074],"ymouse":[520,520,520,520,520,520,520,520,520,520,520,520,520,520,520,520,520,520,520,520,520,514,508,503,497,495,495,495,495,494,482,431,388,339,293,231,136,109,87,73,55,41,38,38,38,