[{"start_time":1551881861037,"click_time":1551881861947,"finger_time":1551881861608,"fix_duration":1306.8395976911802,"trial":0,"RT":571,"MT":339,"sideResp":2,"stimulus":[],"xmouse":[781,781,781,781,781,781,781,781,781,781,781,781,781,781,781,781,781,781,781,781,781,781,781,781,785,790,796,807,865,906,948,964,989,994,994,994,994,995,998,999,999,1007,1017,1051,1072],"ymouse":[539,539,539,539,539,539,539,539,539,539,539,539,539,539,539,539,539,539,539,539,539,538,536,534,520,508,487,450,330,268,219,192,159,147,146,146,146,144,141,139,133,108,91,60,51],"timestamp_mouse":[15,52,71,90,110,130,149,170,191,210,230,249,269,291,310,331,350,369,390,410,430,450,471,490,510,530,550,571,590,609,630,651,669,691,709,730,751,770,790,810,831,849,870,891,910],"xSR":741.5,"ySR":500.5,"xT1":424.9,"yT1":0,"xT2":1058.1,"yT2":0,"toosoon":0,"cond_shown":"Incongruent","ratio_trial":300,"L_num":2,"L_den":4,"R_num":6,"R_den":30,"correct_side":1,"subjID":null,"gender":null,"age":null,"school":null,"test":{"fix_dur":[250,1500],"timestim":1000,"targets_dim":[100,100],"targets_relative_coord":[0.3,0.7],"size_stim":[880,420],"start_dim":[100,100],"size_start":[300,300],"size_fix":60,"samplingrate":20,"img_types":["Congruent","Incongruent"],"ratios":[100,200,300],"rep_conds":19,"nTrials":120,"trials_to_rest":500,"Trials_order":[23,30,113,3,18,21,101,65,97,68,41,61,118,98,51,53,78,0,47,89,76,48,4,32,102,81,93,55,7,54,84,74,77,116,105,17,2,63,83,110,107,99,6,46,91,9,13,44,70,59,79,92,109,58,69,85,73,115,96,82,33,117,71,43,28,108,26,14,104,72,114,60,103,52,56,66,111,10,45,87,35,27,106,42,38,39,50,88,64,57,62,100,20,49,8,40,22,36,16,31,5,119,34,90,15,11,1,29,95,37,75,80,86,19,12,67,24,112,25,94],"cond_shown":["Incongruent","Congruent","Incongruent","Incongruent","Congruent","Incongruent","Incongruent","Incongruent","Incongruent","Congruent","Incongruent","Incongruent","Congruent","Congruent","Incongruent","Incongruent","Congruent","Congruent","Incongruent","Incongruent","Congruent","Congruent","Congruent","Congruent","Congruent","Incongruent","Incongruent","Incongruent","Incongruent","Congruent","Congruent","Congruent","Incongruent","Congruent","Incongruent","Incongruent","Congruent","Incongruent","Incongruent","Congruent","Incongruent","Incongruent","Congruent","Congruent","Incongruent","Incongruent","Incongruent","Congruent","Congruent","Incongruent","Incongruent","Congruent","Incongruent","Congruent","Incongruent","Incongruent","Incongruent","Incongruent","Congruent","Congruent","Incongruent","Incongruent","Incongruent","Incongruent","Congruent","Congruent","Congruent","Congruent","Congruent","Congruent","Congruent","Congruent","Incongruent","Congruent","Congruent","Congruent","Incongruent","Congruent","Incongruent","Incongruent","Incongruent","Incongruent","Congruent","Congruent","Congruent","Incongruent","Congruent","Congruent","Congruent","Incongruent","Congruent","Congruent","Congruent","Incongruent","Congruent","Congruent","Congruent","Congruent","Congruent","Incongruent","Incongruent","Incongruent","Congruent","Congruent","Incongruent","Incongruent","Incongruent","Incongruent","Incongruent","Incongruent","Incongruent","Congruent","Congruent","Incongruent","Congruent","Incongruent","Congruent","Congruent","Incongruent","Congruent"],"ratio_trial":[300,100,300,200,100,200,300,300,100,200,300,100,300,200,200,300,100,100,300,300,300,100,300,200,100,200,200,100,100,100,100,200,300,200,200,300,200,200,300,200,300,200,100,300,100,200,100,200,300,300,100,200,100,300,200,100,100,100,100,300,200,200,300,100,300,100,200,200,200,100,100,100,100,300,200,100,200,300,200,200,300,200,300,100,200,200,200,300,300,200,200,300,200,100,200,300,300,100,300,100,300,300,300,100,200,300,100,300,300,100,200,200,200,100,100,100,100,300,100,300],"left_num":[2,9,7,3,11,11,3,1,3,8,13,8,8,3,3,3,8,9,13,13,24,11,3,1,11,7,7,2,17,6,12,6,8,9,7,4,20,4,4,5,4,14,6,12,3,4,3,3,1,4,10,6,10,20,14,6,1,13,3,3,7,9,8,6,18,8,3,8,1,12,10,6,11,4,8,7,14,3,11,3,2,7,5,7,1,7,3,20,3,4,3,9,15,3,15,5,3,4,20,3,4,8,1,2,4,13,13,4,4,9,7,9,4,2,4,9,9,4,9,5],"right_num":[6,8,8,11,4,3,4,2,11,3,12,1,1,14,1,4,2,8,12,12,2,6,4,21,6,4,8,8,10,5,13,7,9,4,8,8,9,14,2,14,2,6,5,2,4,14,8,7,6,6,8,11,8,14,12,13,8,12,2,4,12,8,14,3,9,2,7,7,21,13,3,5,9,2,2,9,6,2,3,11,6,4,6,15,21,6,14,8,4,6,7,3,4,11,4,6,2,15,8,4,8,9,6,11,14,12,6,2,2,13,6,4,3,6,15,20,8,2,6,7],"left_den":[4,15,10,4,22,20,6,2,5,15,26,20,16,6,10,6,16,15,26,26,30,22,6,2,22,15,10,4,30,20,30,12,10,20,10,5,25,6,20,10,20,30,20,24,6,6,5,10,5,5,25,20,25,25,30,10,2,26,6,6,10,15,10,12,20,16,10,15,2,30,25,20,22,5,15,14,30,6,20,4,4,15,25,14,2,15,6,25,6,5,10,10,25,5,25,25,6,10,25,6,5,10,5,5,6,26,26,20,20,15,15,20,10,4,10,10,15,5,18,25],"right_den":[30,16,20,20,10,4,20,10,22,9,15,2,5,20,2,20,5,16,15,15,4,15,5,30,15,6,16,20,15,25,26,10,18,16,16,16,15,30,4,20,4,9,25,10,10,30,16,14,12,12,16,22,16,28,18,26,20,20,5,5,24,10,28,5,15,5,14,21,30,26,10,25,15,4,6,15,9,10,4,20,30,6,12,25,30,9,20,16,5,10,14,5,10,22,10,12,10,30,16,10,16,18,12,22,30,15,10,4,4,26,9,16,15,15,30,25,16,4,10,14],"correct_side":[1,1,1,1,1,2,1,1,1,1,2,2,1,2,2,1,1,1,2,2,1,1,2,2,1,2,1,1,2,1,2,2,1,1,1,1,1,1,2,2,2,2,1,1,1,1,1,2,2,1,2,2,2,1,2,1,1,2,1,2,1,2,1,2,1,1,2,1,2,2,1,1,2,1,1,2,2,1,2,1,1,2,2,2,2,2,2,1,2,1,2,1,1,1,1,2,1,2,1,1,1,1,2,2,1,2,2,2,2,1,2,1,1,1,2,1,1,1,2,2],"img_shown":["img2/300/Incongruent/L/I_Dist_300_LN_2_LD_4_RN_6_RD_30_0.png","img2/100/Congruent/L/C_Dist_100_LN_9_LD_15_RN_8_RD_16_0.png","img2/300/Incongruent/L/I_Dist_300_LN_7_LD_10_RN_8_RD_20_0.png","img2/200/Incongruent/L/I_Dist_200_LN_3_LD_4_RN_11_RD_20_0.png","img2/100/Congruent/L/C_Dist_100_LN_11_LD_22_RN_4_RD_10_0.png","img2/200/Incongruent/R/I_Dist_200_LN_11_LD_20_RN_3_RD_4_1.png","img2/300/Incongruent/L/I_Dist_300_LN_3_LD_6_RN_4_RD_20_0.png","img2/300/Incongruent/L/I_Dist_300_LN_1_LD_2_RN_2_RD_10_0.png","img2/100/Incongruent/L/I_Dist_100_LN_3_LD_5_RN_11_RD_22_0.png","img2/200/Congruent/L/C_Dist_200_LN_8_LD_15_RN_3_RD_9_0.png","img2/300/Incongruent/R/I_Dist_300_LN_13_LD_26_RN_12_RD_15_1.png","img2/100/Incongruent/R/I_Dist_100_LN_8_LD_20_RN_1_RD_2_1.png","img2/300/Congruent/L/C_Dist_300_LN_8_LD_16_RN_1_RD_5_0.png","img2/200/Congruent/R/C_Dist_200_LN_3_LD_6_RN_14_RD_20_1.png","img2/200/Incongruent/R/I_Dist_200_LN_3_LD_10_RN_1_RD_2_1.png","img2/300/Incongruent/L/I_Dist_300_LN_3_LD_6_RN_4_RD_20_0.png","img2/100/Congruent/L/C_Dist_100_LN_8_LD_16_RN_2_RD_5_0.png","img2/100/Congruent/L/C_Dist_100_LN_9_LD_15_RN_8_RD_16_0.png","img2/300/Incongruent/R/I_Dist_300_LN_13_LD_26_RN_12_RD_15_1.png","img2/300/Incongruent/R/I_Dist_300_LN_13_LD_26_RN_12_RD_15_1.png","img2/300/Congruent/L/C_Dist_300_LN_24_LD_30_RN_2_RD_4_0.png","img2/100/Congruent/L/C_Dist_100_LN_11_LD_22_RN_6_RD_15_0.png","img2/300/Congruent/R/C_Dist_300_LN_3_LD_6_RN_4_RD_5_1.png","img2/200/Congruent/R/C_Dist_200_LN_1_LD_2_RN_21_RD_30_1.png","img2/100/Congruent/L/C_Dist_100_LN_11_LD_22_RN_6_RD_15_0.png","img2/200/Incongruent/R/I_Dist_200_LN_7_LD_15_RN_4_RD_6_1.png","img2/200/Incongruent/L/I_Dist_200_LN_7_LD_10_RN_8_RD_16_0.png","img2/100/Incongruent/L/I_Dist_100_LN_2_LD_4_RN_8_RD_20_0.png","img2/100/Incongruent/R/I_Dist_100_LN_17_LD_30_RN_10_RD_15_1.png","img2/100/Congruent/L/C_Dist_100_LN_6_LD_20_RN_5_RD_25_0.png","img2/100/Congruent/R/C_Dist_100_LN_12_LD_30_RN_13_RD_26_1.png","img2/200/Congruent/R/C_Dist_200_LN_6_LD_12_RN_7_RD_10_1.png","img2/300/Incongruent/L/I_Dist_300_LN_8_LD_10_RN_9_RD_18_0.png","img2/200/Congruent/L/C_Dist_200_LN_9_LD_20_RN_4_RD_16_0.png","img2/200/Incongruent/L/I_Dist_200_LN_7_LD_10_RN_8_RD_16_0.png","img2/300/Incongruent/L/I_Dist_300_LN_4_LD_5_RN_8_RD_16_0.png","img2/200/Congruent/L/C_Dist_200_LN_20_LD_25_RN_9_RD_15_0.png","img2/200/Incongruent/L/I_Dist_200_LN_4_LD_6_RN_14_RD_30_0.png","img2/300/Incongruent/R/I_Dist_300_LN_4_LD_20_RN_2_RD_4_1.png","img2/200/Congruent/R/C_Dist_200_LN_5_LD_10_RN_14_RD_20_1.png","img2/300/Incongruent/R/I_Dist_300_LN_4_LD_20_RN_2_RD_4_1.png","img2/200/Incongruent/R/I_Dist_200_LN_14_LD_30_RN_6_RD_9_1.png","img2/100/Congruent/L/C_Dist_100_LN_6_LD_20_RN_5_RD_25_0.png","img2/300/Congruent/L/C_Dist_300_LN_12_LD_24_RN_2_RD_10_0.png","img2/100/Incongruent/L/I_Dist_100_LN_3_LD_6_RN_4_RD_10_0.png","img2/200/Incongruent/L/I_Dist_200_LN_4_LD_6_RN_14_RD_30_0.png","img2/100/Incongruent/L/I_Dist_100_LN_3_LD_5_RN_8_RD_16_0.png","img2/200/Congruent/R/C_Dist_200_LN_3_LD_10_RN_7_RD_14_1.png","img2/300/Congruent/R/C_Dist_300_LN_1_LD_5_RN_6_RD_12_1.png","img2/300/Incongruent/L/I_Dist_300_LN_4_LD_5_RN_6_RD_12_0.png","img2/100/Incongruent/R/I_Dist_100_LN_10_LD_25_RN_8_RD_16_1.png","img2/200/Congruent/R/C_Dist_200_LN_6_LD_20_RN_11_RD_22_1.png","img2/100/Incongruent/R/I_Dist_100_LN_10_LD_25_RN_8_RD_16_1.png","img2/300/Congruent/L/C_Dist_300_LN_20_LD_25_RN_14_RD_28_0.png","img2/200/Incongruent/R/I_Dist_200_LN_14_LD_30_RN_12_RD_18_1.png","img2/100/Incongruent/L/I_Dist_100_LN_6_LD_10_RN_13_RD_26_0.png","img2/100/Incongruent/L/I_Dist_100_LN_1_LD_2_RN_8_RD_20_0.png","img2/100/Incongruent/R/I_Dist_100_LN_13_LD_26_RN_12_RD_20_1.png","img2/100/Congruent/L/C_Dist_100_LN_3_LD_6_RN_2_RD_5_0.png","img2/300/Congruent/R/C_Dist_300_LN_3_LD_6_RN_4_RD_5_1.png","img2/200/Incongruent/L/I_Dist_200_LN_7_LD_10_RN_12_RD_24_0.png","img2/200/Incongruent/R/I_Dist_200_LN_9_LD_15_RN_8_RD_10_1.png","img2/300/Incongruent/L/I_Dist_300_LN_8_LD_10_RN_14_RD_28_0.png","img2/100/Incongruent/R/I_Dist_100_LN_6_LD_12_RN_3_RD_5_1.png","img2/300/Congruent/L/C_Dist_300_LN_18_LD_20_RN_9_RD_15_0.png","img2/100/Congruent/L/C_Dist_100_LN_8_LD_16_RN_2_RD_5_0.png","img2/200/Congruent/R/C_Dist_200_LN_3_LD_10_RN_7_RD_14_1.png","img2/200/Congruent/L/C_Dist_200_LN_8_LD_15_RN_7_RD_21_0.png","img2/200/Congruent/R/C_Dist_200_LN_1_LD_2_RN_21_RD_30_1.png","img2/100/Congruent/R/C_Dist_100_LN_12_LD_30_RN_13_RD_26_1.png","img2/100/Congruent/L/C_Dist_100_LN_10_LD_25_RN_3_RD_10_0.png","img2/100/Congruent/L/C_Dist_100_LN_6_LD_20_RN_5_RD_25_0.png","img2/100/Incongruent/R/I_Dist_100_LN_11_LD_22_RN_9_RD_15_1.png","img2/300/Congruent/L/C_Dist_300_LN_4_LD_5_RN_2_RD_4_0.png","img2/200/Congruent/L/C_Dist_200_LN_8_LD_15_RN_2_RD_6_0.png","img2/100/Congruent/R/C_Dist_100_LN_7_LD_14_RN_9_RD_15_1.png","img2/200/Incongruent/R/I_Dist_200_LN_14_LD_30_RN_6_RD_9_1.png","img2/300/Congruent/L/C_Dist_300_LN_3_LD_6_RN_2_RD_10_0.png","img2/200/Incongruent/R/I_Dist_200_LN_11_LD_20_RN_3_RD_4_1.png","img2/200/Incongruent/L/I_Dist_200_LN_3_LD_4_RN_11_RD_20_0.png","img2/300/Incongruent/L/I_Dist_300_LN_2_LD_4_RN_6_RD_30_0.png","img2/200/Incongruent/R/I_Dist_200_LN_7_LD_15_RN_4_RD_6_1.png","img2/300/Congruent/R/C_Dist_300_LN_5_LD_25_RN_6_RD_12_1.png","img2/100/Congruent/R/C_Dist_100_LN_7_LD_14_RN_15_RD_25_1.png","img2/200/Congruent/R/C_Dist_200_LN_1_LD_2_RN_21_RD_30_1.png","img2/200/Incongruent/R/I_Dist_200_LN_7_LD_15_RN_6_RD_9_1.png","img2/200/Congruent/R/C_Dist_200_LN_3_LD_6_RN_14_RD_20_1.png","img2/300/Congruent/L/C_Dist_300_LN_20_LD_25_RN_8_RD_16_0.png","img2/300/Congruent/R/C_Dist_300_LN_3_LD_6_RN_4_RD_5_1.png","img2/200/Incongruent/L/I_Dist_200_LN_4_LD_5_RN_6_RD_10_0.png","img2/200/Congruent/R/C_Dist_200_LN_3_LD_10_RN_7_RD_14_1.png","img2/300/Congruent/L/C_Dist_300_LN_9_LD_10_RN_3_RD_5_0.png","img2/200/Congruent/L/C_Dist_200_LN_15_LD_25_RN_4_RD_10_0.png","img2/100/Incongruent/L/I_Dist_100_LN_3_LD_5_RN_11_RD_22_0.png","img2/200/Congruent/L/C_Dist_200_LN_15_LD_25_RN_4_RD_10_0.png","img2/300/Congruent/R/C_Dist_300_LN_5_LD_25_RN_6_RD_12_1.png","img2/300/Congruent/L/C_Dist_300_LN_3_LD_6_RN_2_RD_10_0.png","img2/100/Congruent/R/C_Dist_100_LN_4_LD_10_RN_15_RD_30_1.png","img2/300/Congruent/L/C_Dist_300_LN_20_LD_25_RN_8_RD_16_0.png","img2/100/Incongruent/L/I_Dist_100_LN_3_LD_6_RN_4_RD_10_0.png","img2/300/Incongruent/L/I_Dist_300_LN_4_LD_5_RN_8_RD_16_0.png","img2/300/Incongruent/L/I_Dist_300_LN_8_LD_10_RN_9_RD_18_0.png","img2/300/Congruent/R/C_Dist_300_LN_1_LD_5_RN_6_RD_12_1.png","img2/100/Congruent/R/C_Dist_100_LN_2_LD_5_RN_11_RD_22_1.png","img2/200/Incongruent/L/I_Dist_200_LN_4_LD_6_RN_14_RD_30_0.png","img2/300/Incongruent/R/I_Dist_300_LN_13_LD_26_RN_12_RD_15_1.png","img2/100/Incongruent/R/I_Dist_100_LN_13_LD_26_RN_6_RD_10_1.png","img2/300/Incongruent/R/I_Dist_300_LN_4_LD_20_RN_2_RD_4_1.png","img2/300/Incongruent/R/I_Dist_300_LN_4_LD_20_RN_2_RD_4_1.png","img2/100/Incongruent/L/I_Dist_100_LN_9_LD_15_RN_13_RD_26_0.png","img2/200/Incongruent/R/I_Dist_200_LN_7_LD_15_RN_6_RD_9_1.png","img2/200/Congruent/L/C_Dist_200_LN_9_LD_20_RN_4_RD_16_0.png","img2/200/Congruent/L/C_Dist_200_LN_4_LD_10_RN_3_RD_15_0.png","img2/100/Incongruent/L/I_Dist_100_LN_2_LD_4_RN_6_RD_15_0.png","img2/100/Congruent/R/C_Dist_100_LN_4_LD_10_RN_15_RD_30_1.png","img2/100/Incongruent/L/I_Dist_100_LN_9_LD_10_RN_20_RD_25_0.png","img2/100/Congruent/L/C_Dist_100_LN_9_LD_15_RN_8_RD_16_0.png","img2/300/Congruent/L/C_Dist_300_LN_4_LD_5_RN_2_RD_4_0.png","img2/100/Incongruent/R/I_Dist_100_LN_9_LD_18_RN_6_RD_10_1.png","img2/300/Congruent/R/C_Dist_300_LN_5_LD_25_RN_7_RD_14_1.png"],"dist100_C":[["C_Dist_100_LN_10_LD_25_RN_3_RD_10_0.png","C_Dist_100_LN_11_LD_22_RN_4_RD_10_0.png","C_Dist_100_LN_11_LD_22_RN_6_RD_15_0.png","C_Dist_100_LN_15_LD_25_RN_13_RD_26_0.png","C_Dist_100_LN_3_LD_6_RN_2_RD_5_0.png","C_Dist_100_LN_6_LD_20_RN_5_RD_25_0.png","C_Dist_100_LN_8_LD_16_RN_2_RD_5_0.png","C_Dist_100_LN_9_LD_15_RN_8_RD_16_0.png"],["C_Dist_100_LN_1_LD_2_RN_18_RD_30_1.png","C_Dist_100_LN_1_LD_2_RN_3_RD_5_1.png","C_Dist_100_LN_12_LD_30_RN_13_RD_26_1.png","C_Dist_100_LN_2_LD_5_RN_11_RD_22_1.png","C_Dist_100_LN_2_LD_5_RN_6_RD_12_1.png","C_Dist_100_LN_3_LD_20_RN_4_RD_16_1.png","C_Dist_100_LN_4_LD_10_RN_15_RD_30_1.png","C_Dist_100_LN_4_LD_8_RN_6_RD_10_1.png","C_Dist_100_LN_6_LD_12_RN_15_RD_25_1.png","C_Dist_100_LN_7_LD_14_RN_15_RD_25_1.png","C_Dist_100_LN_7_LD_14_RN_9_RD_15_1.png"]],"dist100_I":[["I_Dist_100_LN_1_LD_2_RN_8_RD_20_0.png","I_Dist_100_LN_2_LD_4_RN_6_RD_15_0.png","I_Dist_100_LN_2_LD_4_RN_8_RD_20_0.png","I_Dist_100_LN_3_LD_5_RN_11_RD_22_0.png","I_Dist_100_LN_3_LD_5_RN_8_RD_16_0.png","I_Dist_100_LN_3_LD_6_RN_4_RD_10_0.png","I_Dist_100_LN_3_LD_9_RN_7_RD_30_0.png","I_Dist_100_LN_4_LD_8_RN_8_RD_20_0.png","I_Dist_100_LN_6_LD_10_RN_11_RD_22_0.png","I_Dist_100_LN_6_LD_10_RN_13_RD_26_0.png","I_Dist_100_LN_6_LD_10_RN_7_RD_14_0.png","I_Dist_100_LN_9_LD_10_RN_20_RD_25_0.png","I_Dist_100_LN_9_LD_15_RN_13_RD_26_0.png","I_Dist_100_LN_9_LD_15_RN_14_RD_28_0.png"],["I_Dist_100_LN_10_LD_25_RN_8_RD_16_1.png","I_Dist_100_LN_10_LD_25_RN_9_RD_18_1.png","I_Dist_100_LN_11_LD_22_RN_9_RD_15_1.png","I_Dist_100_LN_12_LD_24_RN_9_RD_15_1.png","I_Dist_100_LN_12_LD_30_RN_2_RD_4_1.png","I_Dist_100_LN_13_LD_26_RN_12_RD_20_1.png","I_Dist_100_LN_13_LD_26_RN_6_RD_10_1.png","I_Dist_100_LN_17_LD_30_RN_10_RD_15_1.png","I_Dist_100_LN_6_LD_12_RN_3_RD_5_1.png","I_Dist_100_LN_8_LD_16_RN_6_RD_10_1.png","I_Dist_100_LN_8_LD_20_RN_1_RD_2_1.png","I_Dist_100_LN_9_LD_18_RN_6_RD_10_1.png"]],"dist100_S":[["E_Dist_100_LN_2_LD_12_RN_2_RD_30_0.png","E_Dist_100_LN_6_LD_10_RN_6_RD_12_0.png"],["E_Dist_100_LN_6_LD_12_RN_6_RD_10_1.png"]],"dist200_C":[["C_Dist_200_LN_11_LD_22_RN_3_RD_10_0.png","C_Dist_200_LN_12_LD_15_RN_6_RD_10_0.png","C_Dist_200_LN_12_LD_20_RN_6_RD_15_0.png","C_Dist_200_LN_14_LD_28_RN_6_RD_20_0.png","C_Dist_200_LN_15_LD_25_RN_4_RD_10_0.png","C_Dist_200_LN_16_LD_20_RN_12_RD_20_0.png","C_Dist_200_LN_16_LD_30_RN_9_RD_27_0.png","C_Dist_200_LN_20_LD_25_RN_9_RD_15_0.png","C_Dist_200_LN_21_LD_30_RN_2_RD_4_0.png","C_Dist_200_LN_4_LD_10_RN_3_RD_15_0.png","C_Dist_200_LN_4_LD_8_RN_3_RD_10_0.png","C_Dist_200_LN_6_LD_15_RN_3_RD_15_0.png","C_Dist_200_LN_7_LD_21_RN_2_RD_15_0.png","C_Dist_200_LN_8_LD_15_RN_2_RD_6_0.png","C_Dist_200_LN_8_LD_15_RN_3_RD_9_0.png","C_Dist_200_LN_8_LD_15_RN_7_RD_21_0.png","C_Dist_200_LN_9_LD_20_RN_4_RD_16_0.png"],["C_Dist_200_LN_1_LD_2_RN_21_RD_30_1.png","C_Dist_200_LN_13_LD_26_RN_14_RD_20_1.png","C_Dist_200_LN_3_LD_10_RN_11_RD_22_1.png","C_Dist_200_LN_3_LD_10_RN_14_RD_28_1.png","C_Dist_200_LN_3_LD_10_RN_7_RD_14_1.png","C_Dist_200_LN_3_LD_12_RN_9_RD_20_1.png","C_Dist_200_LN_3_LD_6_RN_14_RD_20_1.png","C_Dist_200_LN_5_LD_10_RN_14_RD_20_1.png","C_Dist_200_LN_6_LD_12_RN_7_RD_10_1.png","C_Dist_200_LN_6_LD_20_RN_11_RD_22_1.png","C_Dist_200_LN_7_LD_15_RN_18_RD_27_1.png","C_Dist_200_LN_9_LD_30_RN_13_RD_26_1.png"]],"dist200_I":[["I_Dist_200_LN_1_LD_2_RN_3_RD_10_0.png","I_Dist_200_LN_1_LD_3_RN_2_RD_15_0.png","I_Dist_200_LN_3_LD_4_RN_11_RD_20_0.png","I_Dist_200_LN_4_LD_5_RN_6_RD_10_0.png","I_Dist_200_LN_4_LD_6_RN_14_RD_30_0.png","I_Dist_200_LN_7_LD_10_RN_12_RD_24_0.png","I_Dist_200_LN_7_LD_10_RN_14_RD_28_0.png","I_Dist_200_LN_7_LD_10_RN_8_RD_16_0.png"],["I_Dist_200_LN_11_LD_20_RN_3_RD_4_1.png","I_Dist_200_LN_14_LD_30_RN_12_RD_18_1.png","I_Dist_200_LN_14_LD_30_RN_6_RD_9_1.png","I_Dist_200_LN_3_LD_10_RN_1_RD_2_1.png","I_Dist_200_LN_4_LD_30_RN_1_RD_3_1.png","I_Dist_200_LN_6_LD_20_RN_3_RD_6_1.png","I_Dist_200_LN_7_LD_15_RN_4_RD_6_1.png","I_Dist_200_LN_7_LD_15_RN_6_RD_9_1.png","I_Dist_200_LN_9_LD_15_RN_8_RD_10_1.png"]],"dist200_S":[["E_Dist_200_LN_3_LD_6_RN_3_RD_10_0.png"],["E_Dist_200_LN_3_LD_10_RN_3_RD_6_1.png"]],"dist300_C":[["C_Dist_300_LN_11_LD_22_RN_1_RD_5_0.png","C_Dist_300_LN_11_LD_22_RN_2_RD_10_0.png","C_Dist_300_LN_11_LD_22_RN_4_RD_20_0.png","C_Dist_300_LN_12_LD_24_RN_2_RD_10_0.png","C_Dist_300_LN_18_LD_20_RN_9_RD_15_0.png","C_Dist_300_LN_20_LD_25_RN_13_RD_26_0.png","C_Dist_300_LN_20_LD_25_RN_14_RD_28_0.png","C_Dist_300_LN_20_LD_25_RN_5_RD_10_0.png","C_Dist_300_LN_20_LD_25_RN_8_RD_16_0.png","C_Dist_300_LN_20_LD_25_RN_9_RD_18_0.png","C_Dist_300_LN_24_LD_30_RN_2_RD_4_0.png","C_Dist_300_LN_24_LD_30_RN_8_RD_16_0.png","C_Dist_300_LN_3_LD_6_RN_2_RD_10_0.png","C_Dist_300_LN_4_LD_10_RN_1_RD_10_0.png","C_Dist_300_LN_4_LD_5_RN_2_RD_4_0.png","C_Dist_300_LN_8_LD_16_RN_1_RD_5_0.png","C_Dist_300_LN_9_LD_10_RN_3_RD_5_0.png"],["C_Dist_300_LN_1_LD_20_RN_7_RD_20_1.png","C_Dist_300_LN_1_LD_3_RN_19_RD_30_1.png","C_Dist_300_LN_1_LD_30_RN_8_RD_24_1.png","C_Dist_300_LN_1_LD_5_RN_11_RD_22_1.png","C_Dist_300_LN_1_LD_5_RN_3_RD_6_1.png","C_Dist_300_LN_1_LD_5_RN_6_RD_12_1.png","C_Dist_300_LN_2_LD_10_RN_12_RD_24_1.png","C_Dist_300_LN_2_LD_20_RN_10_RD_25_1.png","C_Dist_300_LN_3_LD_12_RN_11_RD_20_1.png","C_Dist_300_LN_3_LD_6_RN_4_RD_5_1.png","C_Dist_300_LN_4_LD_20_RN_13_RD_26_1.png","C_Dist_300_LN_5_LD_25_RN_6_RD_12_1.png","C_Dist_300_LN_5_LD_25_RN_7_RD_14_1.png","C_Dist_300_LN_7_LD_14_RN_20_RD_25_1.png","C_Dist_300_LN_8_LD_15_RN_10_RD_12_1.png"]],"dist300_I":[["I_Dist_300_LN_1_LD_2_RN_2_RD_10_0.png","I_Dist_300_LN_1_LD_2_RN_3_RD_15_0.png","I_Dist_300_LN_2_LD_4_RN_6_RD_30_0.png","I_Dist_300_LN_3_LD_6_RN_4_RD_20_0.png","I_Dist_300_LN_4_LD_5_RN_6_RD_12_0.png","I_Dist_300_LN_4_LD_5_RN_8_RD_16_0.png","I_Dist_300_LN_7_LD_10_RN_8_RD_20_0.png","I_Dist_300_LN_8_LD_10_RN_14_RD_28_0.png","I_Dist_300_LN_8_LD_10_RN_9_RD_18_0.png"],["I_Dist_300_LN_13_LD_26_RN_12_RD_15_1.png","I_Dist_300_LN_4_LD_20_RN_2_RD_4_1.png"]],"dist300_S":[["E_Dist_300_LN_9_LD_12_RN_9_RD_20_0.png"],["E_Dist_300_LN_18_LD_30_RN_18_RD_20_1.png","E_Dist_300_LN_3_LD_10_RN_3_RD_5_1.png","E_Dist_300_LN_9_LD_20_RN_9_RD_12_1.png"]],"dist500_C":[["C_Dist_500_LN_10_LD_13_RN_7_RD_26_0.png","C_Dist_500_LN_10_LD_15_RN_4_RD_24_0.png","C_Dist_500_LN_12_LD_16_RN_3_RD_12_0.png","C_Dist_500_LN_12_LD_18_RN_4_RD_24_0.png","C_Dist_500_LN_15_LD_18_RN_5_RD_15_0.png","C_Dist_500_LN_15_LD_20_RN_1_RD_4_0.png","C_Dist_500_LN_18_LD_27_RN_1_RD_6_0.png","C_Dist_500_LN_20_LD_24_RN_1_RD_3_0.png","C_Dist_500_LN_20_LD_24_RN_3_RD_9_0.png","C_Dist_500_LN_20_LD_24_RN_7_RD_21_0.png","C_Dist_500_LN_20_LD_28_RN_3_RD_14_0.png","C_Dist_500_LN_21_LD_28_RN_6_RD_24_0.png","C_Dist_500_LN_22_LD_28_RN_2_RD_7_0.png","C_Dist_500_LN_25_LD_30_RN_9_RD_27_0.png","C_Dist_500_LN_4_LD_6_RN_1_RD_6_0.png","C_Dist_500_LN_5_LD_6_RN_2_RD_6_0.png","C_Dist_500_LN_6_LD_9_RN_1_RD_6_0.png","C_Dist_500_LN_7_LD_10_RN_1_RD_5_0.png","C_Dist_500_LN_8_LD_12_RN_1_RD_6_0.png","C_Dist_500_LN_8_LD_12_RN_4_RD_24_0.png"],["C_Dist_500_LN_1_LD_4_RN_12_RD_16_1.png","C_Dist_500_LN_1_LD_4_RN_9_RD_12_1.png","C_Dist_500_LN_1_LD_9_RN_11_RD_18_1.png","C_Dist_500_LN_10_LD_24_RN_22_RD_24_1.png","C_Dist_500_LN_2_LD_12_RN_10_RD_15_1.png","C_Dist_500_LN_2_LD_12_RN_12_RD_18_1.png","C_Dist_500_LN_2_LD_12_RN_4_RD_6_1.png","C_Dist_500_LN_2_LD_24_RN_7_RD_12_1.png","C_Dist_500_LN_2_LD_5_RN_18_RD_20_1.png","C_Dist_500_LN_2_LD_5_RN_9_RD_10_1.png","C_Dist_500_LN_2_LD_8_RN_12_RD_16_1.png","C_Dist_500_LN_2_LD_8_RN_21_RD_28_1.png","C_Dist_500_LN_3_LD_10_RN_4_RD_5_1.png","C_Dist_500_LN_3_LD_12_RN_15_RD_20_1.png","C_Dist_500_LN_3_LD_30_RN_6_RD_10_1.png","C_Dist_500_LN_3_LD_8_RN_14_RD_16_1.png","C_Dist_500_LN_4_LD_16_RN_15_RD_20_1.png","C_Dist_500_LN_4_LD_24_RN_12_RD_18_1.png","C_Dist_500_LN_5_LD_14_RN_6_RD_7_1.png","C_Dist_500_LN_7_LD_21_RN_20_RD_24_1.png","C_Dist_500_LN_7_LD_28_RN_12_RD_16_1.png","C_Dist_500_LN_7_LD_28_RN_9_RD_12_1.png","C_Dist_500_LN_9_LD_27_RN_20_RD_24_1.png"]],"dist500_I":[["I_Dist_500_LN_2_LD_3_RN_4_RD_24_0.png","I_Dist_500_LN_5_LD_6_RN_6_RD_18_0.png","I_Dist_500_LN_7_LD_8_RN_9_RD_24_0.png"],["I_Dist_500_LN_7_LD_21_RN_5_RD_6_1.png"]],"dist500_S":[["E_Dist_500_LN_6_LD_8_RN_6_RD_24_0.png"],["E_Dist_500_LN_2_LD_12_RN_2_RD_3_1.png","E_Dist_500_LN_6_LD_24_RN_6_RD_8_1.png"]]}},{"start_time":1551881865264,"click_time":1551881866747,"finger_time":1551881866527,"fix_duration":1415.4961916661337,"trial":1,"RT":1263,"MT":220,"sideResp":1,"stimulus":[],"xmouse":[808,807,807,807,807,807,807,807,807,807,807,807,807,807,807,807,807,807,807,803,800,786,776,767,750,747,745,744,744,744,744,744,744,744,744,744,744,744,744,744,744,744,744,744,744,744,744,744,744,744,744,744,744,744,744,744,744,744,744,744,744,744,744,736,724,706,682,645,569,538,518,498,481,480,486],"ymouse":[530,530,530,530,530,530,530,530,530,530,530,530,530,530,530,530,530,530,530,529,528,524,520,516,510,508,506,506,506,506,506,506,506,506,506,506,506,506,506,506,506,506,506,506,506,506,506,506,506,506,506,506,506,506,506,506,506,506,506,506,506,506,506,500,489,473,452,421,338,289,243,197,135,108,74],"timestamp_mouse":[2,24,55,64,83,104,123,143,163,182,203,224,242,263,283,304,323,343,364,382,404,424,444,463,483,504,522,543,564,584,603,623,644,663,684,703,723,744,762,784,802,824,843,862,883,904,922,944,964,982,1002,1023,1043,1064,1084,1104,1122,1144,1163,1184,1204,1222,1244,1263,1282,1304,1323,1344,1363,1383,1404,1423,1444,1463,1483],"xSR":741.5,"ySR":469.95,"xT1":424.9,"yT1":0,"xT2":1058.1,"yT2":0,"toosoon":0,"cond_shown":"Congruent","ratio_trial":100,"L_num":9,"L_den":15,"R_num":8,"R_den":16,"correct_side":1,"subjID":null,"gender":null,"school":null,"age":null},{"start_time":1551881869793,"click_time":1551881870588,"finger_time":1551881870108,"fix_duration":544.2338789435229,"trial":2,"RT":315,"MT":480,"sideResp":1,"stimulus":[],"xmouse":[786,786,786,786,786,786,785,784,784,784,784,783,779,770,745,716,659,502,438,389,364,353,350,350,350,350,350,350,350,350,350,350,350,350,350,350,350,350,422,428],"ymouse":[523,523,523,523,523,523,524,524,524,524,524,524,524,521,507,489,439,278,203,137,83,15,3,3,3,3,3,3,3,3,3,3,3,3,3,3,3,3,9,19],"timestamp_mouse":[20,50,55,74,94,113,135,154,174,194,214,235,254,274,294,315,334,354,374,395,415,434,453,474,495,515,534,555,574,594,615,635,655,674,694,715,735,755,774,795],"xSR":741.5,"ySR":469.95,"xT1":424.9,"yT1":0,"xT2":1058.1,"yT2":0,"toosoon":0,"cond_shown":"Incongruent","ratio_trial":300,"L_num":7,"L_den":10,"R_num":8,"R_den":20,"correct_side":1,"subjID":null,"gender":null,"school":null,"age":null},{"start_time":1551881874343,"click_time":1551881875127,"finger_time":1551881875048,"fix_duration":653.8134110418337,"trial":3,"RT":705,"MT":79,"sideResp":2,"stimulus":[],"xmouse":[784,784,784,784,784,784,784,784,784,784,784,784,784,784,784,784,784,784,784,784,784,783,782,781,781,781,781,781,781,781,781,781,782,785,791,825,853,927,1006,1152],"ymouse":[539,539,539,539,539,539,539,539,539,539,539,539,539,539,539,539,539,539,538,534,531,529,526,525,524,522,521,520,520,518,518,517,515,512,502,437,389,290,199,18],"timestamp_mouse":[4,25,54,64,84,103,125,144,165,184,205,225,243,265,285,305,323,345,364,385,404,425,445,465,483,504,524,543,565,584,604,624,645,664,683,705,724,745,765,784],"xSR":741.5,"ySR":469.95,"xT1":424.9,"yT1":0,"xT2":1058.1,"yT2":0,"toosoon":0,"cond_shown":"Incongruent","ratio_trial":200,"L_num":3,"L_den":4,"R_num":11,"R_den":20,"correct_side":1,"subjID":null,"gender":null,"school":null,"age":null},{"start_time":1551881879835,"click_time":1551881880347,"finger_time":1551881880287,"fix_duration":1326.6915805533129,"trial":4,"RT":452,"MT":60,"sideResp":1,"stimulus":[],"xmouse":[804,804,804,804,804,804,804,804,804,804,804,804,804,804,804,804,804,804,802,796,791,780,754,694,559,522],"ymouse":[509,509,509,509,509,509,509,509,509,509,509,509,509,509,509,509,509,509,509,507,502,487,450,346,100,34],"timestamp_mouse":[12,43,51,73,91,113,132,151,173,192,213,232,252,273,291,311,332,353,373,392,411,432,452,473,493,512],"xSR":741.5,"ySR":469.95,"xT1":424.9,"yT1":0,"xT2":1058.1,"yT2":0,"toosoon":0,"cond_shown":"Congruent","ratio_trial":100,"L_num":11,"L_den":22,"R_num":4,"R_den":10,"correct_side":1,"subjID":null,"gender":null,"school":null,"age":null},{"start_time":1551881882702,"click_time":1551881883407,"finger_time":1551881883147,"fix_duration":254.94635154223832,"trial":5,"RT":445,"MT":260,"sideResp":1,"stimulus":[],"xmouse":[802,800,799,797,796,792,791,788,788,788,788,788,788,788,788,788,788,788,788,787,785,779,764,763,762,761,761,761,761,761,757,728,684,621,537,442],"ymouse":[487,487,487,487,487,487,487,487,487,487,487,487,487,487,487,487,487,487,487,487,486,479,466,464,463,462,462,462,462,460,454,414,356,266,157,32],"timestamp_mouse":[9,26,55,65,85,105,125,144,165,186,204,225,244,265,285,306,324,344,365,384,405,425,445,465,485,506,525,544,564,586,605,625,644,665,686,705],"xSR":741.5,"ySR":469.95,"xT1":424.9,"yT1":0,"xT2":1058.1,"yT2":0,"toosoon":0,"cond_shown":"Incongruent","ratio_trial":200,"L_num":11,"L_den":20,"R_num":3,"R_den":4,"correct_side":2,"subjID":null,"gender":null,"school":null,"age":null},{"start_time":1551881885669,"click_time":1551881886527,"finger_time":1551881886167,"fix_duration":879.7851873918473,"trial":6,"RT":498,"MT":360,"sideResp":2,"stimulus":[],"xmouse":[792,792,792,792,792,792,792,792,792,792,792,792,792,792,792,792,791,791,791,791,791,791,791,791,793,808,841,910,1033,1033,1033,1033,1033,1033,1033,1033,1033,1033,1033,1033,1033,1033,1033,1129],"ymouse":[516,516,516,516,516,516,516,516,516,516,516,516,516,516,516,516,515,515,515,515,515,515,513,499,474,423,335,223,21,21,21,21,21,21,21,21,21,21,21,21,21,21,21,2],"timestamp_mouse":[1,18,41,59,78,98,119,137,159,178,197,219,238,257,278,299,318,338,359,378,398,418,438,458,478,498,518,538,559,577,598,617,638,658,677,698,718,738,759,777,798,818,838,858],"xSR":741.5,"ySR":469.95,"xT1":424.9,"yT1":0,"xT2":1058.1,"yT2":0,"toosoon":0,"cond_shown":"Incongruent","ratio_trial":300,"L_num":3,"L_den":6,"R_num":4,"R_den":20,"correct_side":1,"subjID":null,"gender":null,"school":null,"age":null},{"start_time":1551881890687,"click_time":1551881892408,"finger_time":1551881892147,"fix_duration":379.57101771725274,"trial":7,"RT":1460,"MT":261,"sideResp":2,"stimulus":[],"xmouse":[817,817,817,817,817,817,817,817,817,817,817,817,817,817,816,816,816,816,816,816,816,816,816,816,816,816,816,816,816,816,816,816,816,816,816,816,817,818,819,819,819,819,819,819,819,819,819,819,819,819,816,804,777,773,773,773,773,773,773,773,773,773,773,773,773,773,773,774,775,776,777,778,781,798,819,861,921,1051,1101,1128,1153,1158,1159,1159,1159,1157,1150],"ymouse":[505,505,505,505,505,505,505,505,505,505,505,505,505,505,505,505,505,505,505,505,505,505,505,505,505,505,505,505,505,505,505,505,505,505,505,505,507,507,509,509,509,509,509,509,509,509,509,509,509,509,509,502,484,481,481,481,481,481,481,481,481,481,481,481,481,481,481,481,481,481,481,481,480,466,448,419,377,272,226,190,151,137,128,119,113,104,87],"timestamp_mouse":[1,20,41,60,80,100,119,139,160,179,199,221,240,259,280,300,321,340,361,379,400,419,439,460,479,501,520,540,559,580,599,619,641,660,680,700,720,741,761,780,800,821,839,861,880,900,920,939,960,981,1001,1020,1040,1061,1080,1100,1120,1139,1160,1180,1200,1221,1240,1260,1281,1301,1320,1341,1360,1380,1400,1420,1439,1460,1480,1500,1521,1540,1559,1580,1599,1621,1640,1660,1681,1700,1721],"xSR":741.5,"ySR":469.95,"xT1":424.9,"yT1":0,"xT2":1058.1,"yT2":0,"toosoon":0,"cond_shown":"Incongruent","ratio_trial":300,"L_num":1,"L_den":2,"R_num":2,"R_den":10,"correct_side":1,"subjID":null,"gender":null,"school":null,"age":null},{"start_time":1551881894545,"click_time":1551881895547,"finger_time":1551881895227,"fix_duration":616.5517005768797,"trial":8,"RT":682,"MT":320,"sideResp":2,"stimulus":[],"xmouse":[806,806,806,806,806,806,806,806,806,806,806,806,806,806,806,806,806,806,806,806,806,806,806,806,805,805,805,805,805,805,805,805,805,813,860,908,954,1010,1049,1111,1135,1155,1168,1175,1176,1176,1176,1176,1173,1168,1149],"ymouse":[486,486,487,487,487,488,488,488,488,488,488,488,488,488,488,488,488,488,488,488,488,487,487,486,484,484,484,484,484,484,484,484,484,479,453,422,385,319,273,226,213,200,188,175,161,128,107,93,80,67,43],"timestamp_mouse":[9,23,44,62,83,102,123,141,161,182,202,222,242,263,282,302,322,342,363,382,402,423,442,462,482,502,523,541,563,582,602,622,642,663,682,701,722,741,762,782,802,822,842,862,883,902,921,942,962,983,1002],"xSR":741.5,"ySR":469.95,"xT1":424.9,"yT1":0,"xT2":1058.1,"yT2":0,"toosoon":0,"cond_shown":"Incongruent","ratio_trial":100,"L_num":3,"L_den":5,"R_num":11,"R_den":22,"correct_side":1,"subjID":null,"gender":null,"school":null,"age":null},{"start_time":1551881898332,"click_time":1551881899247,"finger_time":1551881898727,"fix_duration":1164.9252058808709,"trial":9,"RT":395,"MT":520,"sideResp":1,"stimulus":[],"xmouse":[810,809,809,809,809,809,809,809,809,809,809,809,809,809,809,809,809,809,808,804,800,782,749,713,675,675,675,675,675,675,675,675,675,675,675,675,675,675,675,675,675,675,675,675,526,522],"ymouse":[490,489,489,489,489,489,489,489,489,489,489,489,489,489,489,489,489,489,488,468,444,384,293,192,62,62,62,62,62,62,62,62,62,62,62,62,62,62,62,62,62,62,62,62,3,24],"timestamp_mouse":[19,42,55,75,95,116,135,156,176,194,216,236,255,276,295,316,334,356,375,395,415,435,455,475,496,516,535,555,576,595,615,635,656,675,696,714,735,754,775,794,815,834,856,876,896,915],"xSR":741.5,"ySR":469.95,"xT1":424.9,"yT1":0,"xT2":1058.1,"yT2":0,"toosoon":0,"cond_shown":"Congruent","ratio_trial":200,"L_num":8,"L_den":15,"R_num":3,"R_den":9,"correct_side":1,"subjID":null,"gender":null,"school":null,"age":null},{"start_time":1551881910661,"click_time":1551881911967,"finger_time":1551881911647,"fix_duration":812.846980560392,"trial":10,"RT":986,"MT":320,"sideResp":2,"stimulus":[],"xmouse":[810,810,810,810,810,810,810,810,810,810,810,810,810,810,810,810,810,810,810,810,810,810,810,810,810,810,810,810,810,810,810,810,810,810,810,810,810,810,810,810,810,810,810,810,810,810,810,810,810,821,835,859,875,891,903,920,945,971,1016,1027,1035,1041,1043,1044,1057,1063],"ymouse":[490,490,490,490,490,490,490,490,490,490,490,490,490,490,490,490,490,490,490,490,490,490,490,490,490,490,490,490,490,490,490,490,490,490,490,490,490,490,490,490,490,490,490,490,490,490,490,490,488,464,444,415,395,353,330,307,288,275,253,242,222,198,158,133,80,60],"timestamp_mouse":[9,26,48,67,86,107,125,146,167,187,207,226,245,267,287,307,326,345,367,387,406,427,446,467,485,506,525,547,566,586,607,627,646,667,685,707,727,747,766,786,806,827,846,866,886,906,926,946,965,986,1005,1025,1046,1066,1085,1106,1127,1147,1166,1186,1206,1226,1247,1266,1286,1305],"xSR":741.5,"ySR":469.95,"xT1":424.9,"yT1":0,"xT2":1058.1,"yT2":0,"toosoon":0,"cond_shown":"Incongruent","ratio_trial":300,"L_num":13,"L_den":26,"R_num":12,"R_den":15,"correct_side":2,"subjID":null,"gender":null,"school":null,"age":null},{"start_time":1551881916557,"click_time":1551881917327,"finger_time":1551881917107,"fix_duration":1368.7928781830074,"trial":11,"RT":550,"MT":220,"sideResp":1,"stimulus":[],"xmouse":[799,799,799,799,799,799,799,799,799,799,799,799,799,799,799,799,799,799,799,799,799,799,799,800,797,786,753,705,563,521,495,486,486,491,491,491,488,484,477],"ymouse":[516,516,516,516,516,516,516,516,516,516,516,516,516,516,516,516,516,516,516,516,516,516,516,515,512,505,485,465,398,351,282,211,162,122,120,118,112,100,81],"timestamp_mouse":[10,34,51,70,90,109,129,150,170,189,210,231,249,270,290,310,331,351,370,390,409,430,451,471,490,510,531,550,570,589,609,631,650,670,690,709,729,750,770],"xSR":741.5,"ySR":469.95,"xT1":424.9,"yT1":0,"xT2":1058.1,"yT2":0,"toosoon":0,"cond_shown":"Incongruent","ratio_trial":100,"L_num":8,"L_den":20,"R_num":1,"R_den":2,"correct_side":2,"subjID":null,"gender":null,"school":null,"age":null},{"start_time":1551881918878,"click_time":1551881919728,"finger_time":1551881919268,"fix_duration":250,"trial":12,"RT":390,"MT":460,"sideResp":2,"stimulus":[],"xmouse":[800,800,800,800,800,800,800,800,800,800,800,800,800,800,800,800,800,800,820,852,904,936,951,953,955,956,956,960,968,980,1004,1019,1032,1033,1033,1033,1033,1046,1051,1055,1056,1056,1063],"ymouse":[496,496,496,496,496,496,497,497,497,497,497,497,497,497,497,497,497,496,471,433,352,289,210,192,181,171,164,138,117,97,69,54,43,43,43,43,42,42,42,41,41,41,41],"timestamp_mouse":[9,44,49,69,89,109,128,149,170,189,210,230,249,269,289,310,328,349,370,390,408,429,450,469,489,510,529,549,569,589,608,629,649,670,689,711,731,750,770,790,811,831,850],"xSR":741.5,"ySR":469.95,"xT1":424.9,"yT1":0,"xT2":1058.1,"yT2":0,"toosoon":0,"cond_shown":"Congruent","ratio_trial":300,"L_num":8,"L_den":16,"R_num":1,"R_den":5,"correct_side":1,"subjID":null,"gender":null,"school":null,"age":null},{"start_time":1551881921421,"click_time":1551881922067,"finger_time":1551881921929,"fix_duration":250,"trial":13,"RT":508,"MT":138,"sideResp":2,"stimulus":[],"xmouse":[756,756,756,756,756,756,756,756,756,756,756,756,756,756,756,756,756,756,756,756,756,756,759,773,797,894,951,1021,1080,1116,1137,1139,1139],"ymouse":[520,520,520,520,520,520,520,520,520,520,520,520,520,520,520,520,520,520,520,520,520,520,517,501,475,372,316,257,205,165,120,102,95],"timestamp_mouse":[8,38,47,68,87,106,128,148,167,187,208,227,247,267,287,308,327,347,367,387,407,426,446,468,487,507,527,547,567,586,607,627,646],"xSR":741.5,"ySR":469.95,"xT1":424.9,"yT1":0,"xT2":1058.1,"yT2":0,"toosoon":0,"cond_shown":"Congruent","ratio_trial":200,"L_num":3,"L_den":6,"R_num":14,"R_den":20,"correct_side":2,"subjID":null,"gender":null,"school":null,"age":null},{"start_time":1551881924763,"click_time":1551881926229,"finger_time":1551881925168,"fix_duration":1033.4606598658572,"trial":14,"RT":405,"MT":1061,"sideResp":1,"stimulus":[],"xmouse":[784,784,784,784,784,784,784,784,784,784,784,784,784,784,784,784,785,787,792,825,850,875,891,904,912,912,912,912,912,912,914,919,931,989,1035,1076,1104,1119,1122,1122,1119,1115,1102,1076,1066,1057,1047,1045,1033,1016,986,929,851,650,590,590,590,590,590,590,590,590,590,590,590,590,590,590,213,272,324,368,398,433],"ymouse":[503,503,503,503,503,503,503,503,503,503,503,503,501,500,500,500,499,498,494,476,461,442,424,410,399,398,397,393,382,376,371,366,358,307,257,195,154,121,116,116,115,116,120,131,135,138,141,142,142,142,134,120,98,35,12,12,12,12,12,12,12,12,12,12,12,12,12,12,10,17,24,31,36,39],"timestamp_mouse":[14,37,45,65,85,105,125,146,164,185,205,226,245,266,286,305,325,344,366,385,404,425,444,464,485,505,525,546,565,584,605,624,645,666,684,706,725,746,765,786,806,825,846,865,885,905,925,946,965,984,1006,1025,1046,1065,1084,1105,1126,1146,1166,1185,1204,1225,1244,1265,1285,1306,1326,1346,1365,1385,1405,1425,1445,1466],"xSR":741.5,"ySR":469.95,"xT1":424.9,"yT1":0,"xT2":1058.1,"yT2":0,"toosoon":0,"cond_shown":"Incongruent","ratio_trial":200,"L_num":3,"L_den":10,"R_num":1,"R_den":2,"correct_side":2,"subjID":null,"gender":null,"school":null,"age":null},{"start_time":1551881928803,"click_time":1551881930688,"finger_time":1551881930329,"fix_duration":1013.0551477648477,"trial":15,"RT":1526,"MT":359,"sideResp":2,"stimulus":[],"xmouse":[779,779,779,779,779,779,779,779,779,779,779,779,779,779,779,779,779,779,779,779,779,779,779,779,779,779,779,779,779,779,779,779,779,779,779,779,779,779,779,779,779,779,779,779,779,779,779,779,779,779,779,779,779,779,779,779,780,780,780,780,780,780,780,780,780,780,780,780,780,780,780,780,780,781,789,831,861,884,905,919,939,946,952,958,960,962,963,966,972,985,1024,1040,1053,1064],"ymouse":[498,498,498,498,498,498,498,498,498,498,498,498,498,498,498,497,497,497,497,497,497,497,497,497,497,497,497,497,497,497,497,497,497,497,497,497,497,497,497,497,497,497,497,497,497,497,497,497,497,497,497,497,497,496,496,496,495,495,495,495,495,495,495,495,495,495,495,495,495,495,495,495,495,490,476,417,380,349,318,296,243,219,195,158,142,131,130,127,120,108,76,58,38,19],"timestamp_mouse":[10,45,65,85,105,125,144,165,184,206,226,245,265,284,305,326,345,366,385,405,425,446,465,486,505,524,546,566,586,605,625,645,664,686,706,725,746,765,786,804,824,844,866,886,905,924,944,965,985,1004,1026,1045,1064,1085,1106,1124,1146,1166,1184,1205,1224,1245,1265,1285,1304,1326,1345,1364,1385,1406,1424,1446,1465,1485,1506,1526,1544,1565,1585,1605,1625,1645,1665,1684,1705,1725,1745,1765,1784,1805,1825,1844,1865,1885],"xSR":741.5,"ySR":469.95,"xT1":424.9,"yT1":0,"xT2":1058.1,"yT2":0,"toosoon":0,"cond_shown":"Incongruent","ratio_trial":300,"L_num":3,"L_den":6,"R_num":4,"R_den":20,"correct_side":1,"subjID":null,"gender":null,"school":null,"age":null},{"start_time":1551881932954,"click_time":1551881934949,"finger_time":1551881934489,"fix_duration":964.0103671804299,"trial":16,"RT":1535,"MT":460,"sideResp":1,"stimulus":[],"xmouse":[783,783,783,778,775,770,767,767,767,767,766,766,766,766,766,766,766,767,768,769,769,769,769,769,770,770,770,770,770,770,770,770,770,770,770,770,770,770,770,770,770,770,770,770,770,770,770,770,770,770,770,770,770,770,770,770,770,770,770,770,770,770,770,770,770,770,770,770,770,770,770,770,770,770,767,760,743,669,583,420,369,340,319,302,301,302,310,315,324,324,324,324,324,324,324,324,324,324,324,502],"ymouse":[507,506,506,504,503,503,504,504,504,504,504,504,504,504,504,504,505,505,506,506,506,506,507,507,507,507,507,507,507,507,507,507,507,507,507,507,507,507,507,507,507,507,507,507,507,507,507,507,507,507,507,507,507,507,507,507,507,507,507,507,507,507,507,507,507,507,507,507,507,507,507,507,507,507,503,491,468,383,311,175,114,66,37,16,15,14,13,9,2,2,2,2,2,2,2,2,2,2,2,12],"timestamp_mouse":[15,41,55,74,94,114,134,154,174,193,214,234,254,274,293,314,334,355,374,395,414,435,453,474,494,514,533,554,573,594,614,634,654,674,694,713,735,755,773,794,814,834,855,873,894,914,934,954,975,994,1013,1033,1055,1074,1095,1113,1134,1155,1174,1194,1215,1235,1254,1274,1294,1314,1333,1355,1375,1394,1414,1435,1453,1475,1495,1515,1535,1555,1574,1594,1613,1634,1653,1674,1694,1714,1733,1754,1773,1793,1814,1833,1854,1873,1895,1913,1935,1954,1975,1994],"xSR":741.5,"ySR":469.95,"xT1":424.9,"yT1":0,"xT2":1058.1,"yT2":0,"toosoon":0,"cond_shown":"Congruent","ratio_trial":100,"L_num":8,"L_den":16,"R_num":2,"R_den":5,"correct_side":1,"subjID":null,"gender":null,"school":null,"age":null},{"start_time":1551881937834,"click_time":1551881938828,"finger_time":1551881938687,"fix_duration":944.0604440112518,"trial":17,"RT":853,"MT":141,"sideResp":1,"stimulus":[],"xmouse":[798,798,798,797,796,795,795,795,795,795,795,795,795,795,794,794,794,794,794,794,794,794,794,794,794,794,794,794,794,794,794,794,794,794,794,794,794,794,794,793,791,789,782,772,746,722,689,643,589,500],"ymouse":[500,500,500,500,500,500,500,500,500,500,500,500,500,500,499,499,499,499,499,499,499,499,499,499,499,499,499,499,499,499,499,499,499,499,499,499,499,498,497,496,489,481,460,438,379,330,269,201,132,59],"timestamp_mouse":[14,42,55,73,95,115,134,153,175,195,214,235,255,273,294,315,333,353,375,393,414,435,455,474,495,514,534,553,573,594,614,633,655,675,695,714,734,754,775,793,814,834,853,874,894,914,933,954,975,994],"xSR":741.5,"ySR":469.95,"xT1":424.9,"yT1":0,"xT2":1058.1,"yT2":0,"toosoon":0,"cond_shown":"Congruent","ratio_trial":100,"L_num":9,"L_den":15,"R_num":8,"R_den":16,"correct_side":1,"subjID":null,"gender":null,"school":null,"age":null},{"start_time":1551881941523,"click_time":1551881942509,"finger_time":1551881942328,"fix_duration":1293.181809481504,"trial":18,"RT":805,"MT":181,"sideResp":2,"stimulus":[],"xmouse":[788,788,788,788,788,788,788,788,788,788,788,788,788,788,788,788,788,788,788,788,788,788,788,788,788,788,788,788,788,788,788,788,788,788,788,788,788,788,790,793,838,886,932,978,1010,1033,1033,1037,1043,1069],"ymouse":[484,484,484,484,484,485,485,485,485,485,485,485,485,485,485,485,485,485,485,485,485,485,485,485,485,485,485,485,485,485,485,485,485,485,485,485,485,485,485,477,418,345,265,185,129,99,99,97,94,75],"timestamp_mouse":[10,40,45,65,84,105,125,146,164,185,206,225,246,265,285,305,326,345,365,384,404,426,445,465,484,505,525,546,564,586,606,624,645,664,684,705,724,746,765,786,805,825,845,865,884,905,924,946,965,986],"xSR":741.5,"ySR":469.95,"xT1":424.9,"yT1":0,"xT2":1058.1,"yT2":0,"toosoon":0,"cond_shown":"Incongruent","ratio_trial":300,"L_num":13,"L_den":26,"R_num":12,"R_den":15,"correct_side":2,"subjID":null,"gender":null,"school":null,"age":null},{"start_time":1551881944405,"click_time":1551881945549,"finger_time":1551881944927,"fix_duration":596.3094404950573,"trial":19,"RT":522,"MT":622,"sideResp":2,"stimulus":[],"xmouse":[790,790,790,790,789,789,789,789,789,789,789,789,789,789,789,789,789,789,789,789,789,789,789,789,789,791,807,823,851,888,909,954,972,981,991,1001,1014,1014,1014,1014,1014,1014,1014,1014,1014,1014,1014,1014,1014,1014,1014,1178,1176,1172,1166,1162,1161,1157],"ymouse":[494,494,493,493,492,492,492,492,492,492,492,492,492,492,492,492,492,492,492,492,492,492,492,492,489,486,468,453,431,404,381,306,263,216,161,86,27,27,27,27,27,27,27,27,27,27,27,27,27,27,27,17,26,35,45,51,52,52],"timestamp_mouse":[9,23,43,63,83,104,124,144,162,184,203,223,242,263,284,302,324,343,362,384,404,423,443,464,483,503,522,543,563,584,604,624,642,662,684,703,723,743,764,784,803,823,842,864,884,903,923,943,962,983,1004,1023,1043,1063,1082,1103,1124,1144],"xSR":741.5,"ySR":469.95,"xT1":424.9,"yT1":0,"xT2":1058.1,"yT2":0,"toosoon":0,"cond_shown":"Incongruent","ratio_trial":300,"L_num":13,"L_den":26,"R_num":12,"R_den":15,"correct_side":2,"subjID":null,"gender":null,"school":null,"age":null},{"start_time":1551881947159,"click_time":1551881948008,"finger_time":1551881947888,"fix_duration":250,"trial":20,"RT":729,"MT":120,"sideResp":1,"stimulus":[],"xmouse":[794,794,794,794,794,794,794,794,794,794,793,788,787,786,786,786,786,786,786,786,786,786,786,786,786,786,786,786,786,786,786,783,781,769,759,746,728,692,607,557,514,483,462],"ymouse":[510,510,510,510,510,510,510,510,510,510,509,509,509,509,509,509,509,509,509,509,509,509,509,509,509,509,509,509,509,509,509,509,509,506,501,496,484,449,335,257,180,105,44],"timestamp_mouse":[9,35,49,69,90,109,129,148,168,189,208,229,249,269,290,308,329,348,369,389,408,430,449,470,489,510,530,548,570,589,608,630,650,669,690,709,729,748,770,788,809,829,848],"xSR":741.5,"ySR":469.95,"xT1":424.9,"yT1":0,"xT2":1058.1,"yT2":0,"toosoon":0,"cond_shown":"Congruent","ratio_trial":300,"L_num":24,"L_den":30,"R_num":2,"R_den":4,"correct_side":1,"subjID":null,"gender":null,"school":null,"age":null},{"start_time":1551881950080,"click_time":1551881951407,"finger_time":1551881951028,"fix_duration":250,"trial":21,"RT":948,"MT":379,"sideResp":1,"stimulus":[],"xmouse":[789,789,789,789,789,789,789,789,789,789,789,789,789,789,789,789,789,789,789,789,789,789,789,789,789,789,789,789,789,789,789,789,789,789,789,789,789,789,789,789,789,789,789,789,789,782,774,722,661,607,550,518,473,467,467,469,471,484,490,491,491,491,493,497,498,501,502],"ymouse":[515,515,515,515,515,515,515,515,515,515,515,515,515,515,515,515,515,515,515,515,515,515,515,515,515,515,515,515,515,515,515,515,515,515,515,515,515,515,515,515,515,515,515,515,515,512,507,487,465,442,406,366,254,223,211,209,209,202,187,166,132,124,118,113,109,100,85],"timestamp_mouse":[12,29,48,68,88,108,128,147,169,189,208,228,249,267,288,309,329,348,368,388,408,428,448,469,487,509,528,548,569,589,609,628,647,668,688,707,728,748,769,788,807,827,848,869,888,908,929,948,969,987,1007,1028,1048,1068,1088,1108,1127,1148,1168,1188,1207,1229,1248,1267,1289,1308,1327],"xSR":741.5,"ySR":469.95,"xT1":424.9,"yT1":0,"xT2":1058.1,"yT2":0,"toosoon":0,"cond_shown":"Congruent","ratio_trial":100,"L_num":11,"L_den":22,"R_num":6,"R_den":15,"correct_side":1,"subjID":null,"gender":null,"school":null,"age":null},{"start_time":1551881952920,"click_time":1551881954728,"finger_time":1551881954367,"fix_duration":250,"trial":22,"RT":1447,"MT":361,"sideResp":1,"stimulus":[],"xmouse":[774,775,777,777,778,778,779,779,779,779,779,779,779,779,779,779,779,779,779,779,779,779,779,779,779,779,779,779,779,779,779,779,779,779,779,779,776,775,774,774,774,774,774,774,774,774,774,774,774,774,774,774,774,774,774,774,774,774,774,774,774,774,774,774,774,774,774,774,774,774,774,770,763,736,682,496,352,325,302,301,309,316,323,323,323,323,323,376,388,418,432],"ymouse":[497,497,498,498,498,499,500,500,500,500,500,500,500,500,500,500,500,500,500,500,500,500,500,500,500,500,500,500,500,500,500,500,500,500,500,500,500,500,500,500,500,500,500,500,500,500,500,500,500,500,500,500,500,500,500,500,500,500,500,500,500,500,500,500,500,500,500,500,500,500,500,490,468,419,342,177,75,57,31,20,10,5,0,0,0,0,0,8,10,14,14],"timestamp_mouse":[8,38,48,68,88,108,129,148,169,188,209,227,248,268,289,309,328,348,367,389,408,429,449,468,488,509,528,547,569,589,608,628,647,668,688,709,728,749,767,787,808,829,847,868,888,908,929,948,969,989,1009,1028,1048,1068,1089,1108,1129,1148,1169,1188,1209,1228,1249,1268,1288,1308,1329,1348,1368,1387,1408,1428,1447,1468,1489,1508,1528,1549,1567,1588,1608,1627,1649,1668,1688,1708,1729,1748,1769,1788,1807],"xSR":741.5,"ySR":469.95,"xT1":424.9,"yT1":0,"xT2":1058.1,"yT2":0,"toosoon":0,"cond_shown":"Congruent","ratio_trial":300,"L_num":3,"L_den":6,"R_num":4,"R_den":5,"correct_side":2,"subjID":null,"gender":null,"school":null,"age":null},{"start_time":1551881956347,"click_time":1551881957229,"finger_time":1551881956888,"fix_duration":318.1425530974776,"trial":23,"RT":541,"MT":341,"sideResp":2,"stimulus":[],"xmouse":[802,802,802,802,801,801,801,801,801,800,795,793,791,791,791,791,791,791,791,791,791,790,790,790,791,795,809,829,884,923,979,1000,1012,1019,1029,1038,1041,1047,1049,1052,1052,1052,1052,1054,1062],"ymouse":[541,540,539,536,534,533,533,533,533,532,530,529,528,528,528,528,528,528,528,528,528,528,527,525,518,510,492,469,394,332,203,161,136,119,91,62,51,30,22,14,14,14,14,14,14],"timestamp_mouse":[9,21,40,65,80,102,121,140,162,180,201,221,241,262,281,301,321,340,360,380,401,422,440,460,481,501,521,541,561,580,601,621,640,662,681,701,721,741,760,781,800,821,842,861,882],"xSR":741.5,"ySR":469.95,"xT1":424.9,"yT1":0,"xT2":1058.1,"yT2":0,"toosoon":0,"cond_shown":"Congruent","ratio_trial":200,"L_num":1,"L_den":2,"R_num":21,"R_den":30,"correct_side":2,"subjID":null,"gender":null,"school":null,"age":null},{"start_time":1551881959302,"click_time":1551881960808,"finger_time":1551881960709,"fix_duration":793.0542093193113,"trial":24,"RT":1407,"MT":99,"sideResp":1,"stimulus":[],"xmouse":[769,768,768,768,768,767,765,764,764,764,764,764,764,764,764,764,764,764,764,764,764,764,764,764,764,764,764,763,763,763,762,762,762,762,762,762,762,762,762,762,762,762,762,762,762,762,762,762,762,762,762,762,762,762,762,762,762,762,762,762,762,762,762,762,762,762,762,761,760,754,733,704,607,549,493,441],"ymouse":[511,510,510,510,510,510,507,507,506,506,506,506,506,506,506,506,506,506,506,506,506,506,506,506,506,506,506,506,506,505,505,505,505,505,505,505,505,505,505,505,505,505,505,505,505,505,505,505,505,505,505,505,505,505,505,505,505,505,505,505,505,505,505,505,505,505,505,505,504,499,481,449,307,228,147,75],"timestamp_mouse":[10,40,47,67,85,106,125,146,166,186,206,226,246,266,287,306,326,347,366,386,407,427,446,466,486,507,527,546,566,586,607,627,645,666,686,705,727,747,766,785,807,825,847,865,886,906,926,946,966,986,1006,1026,1046,1065,1086,1106,1127,1146,1166,1186,1206,1226,1245,1266,1286,1306,1326,1346,1366,1385,1407,1426,1445,1465,1487,1506],"xSR":741.5,"ySR":469.95,"xT1":424.9,"yT1":0,"xT2":1058.1,"yT2":0,"toosoon":0,"cond_shown":"Congruent","ratio_trial":100,"L_num":11,"L_den":22,"R_num":6,"R_den":15,"correct_side":1,"subjID":null,"gender":null,"school":null,"age":null},{"start_time":1551881964979,"click_time":1551881965708,"finger_time":1551881965353,"fix_duration":250,"trial":25,"RT":374,"MT":355,"sideResp":1,"stimulus":[],"xmouse":[788,788,788,788,788,788,788,788,788,788,788,788,788,787,786,784,777,769,757,753,744,732,706,659,636,607,587,559,548,544,543,543,543,542,539,527,513],"ymouse":[494,494,494,494,494,494,494,494,494,494,494,494,494,492,491,488,481,475,465,460,444,418,365,245,191,125,89,40,30,28,28,28,28,28,28,27,27],"timestamp_mouse":[8,41,49,69,90,109,129,150,170,189,210,229,249,269,290,308,329,349,374,388,410,429,449,469,488,508,529,549,568,589,610,630,649,668,688,709,728],"xSR":741.5,"ySR":469.95,"xT1":424.9,"yT1":0,"xT2":1058.1,"yT2":0,"toosoon":0,"cond_shown":"Incongruent","ratio_trial":200,"L_num":7,"L_den":15,"R_num":4,"R_den":6,"correct_side":2,"subjID":null,"gender":null,"school":null,"age":null},{"start_time":1551881971372,"click_time":1551881973129,"finger_time":1551881972769,"fix_duration":522.8182606872944,"trial":26,"RT":1397,"MT":360,"sideResp":1,"stimulus":[],"xmouse":[760,761,761,761,761,761,761,761,761,761,761,761,761,761,761,761,761,761,761,761,761,761,761,761,761,761,761,761,761,761,761,761,761,761,761,761,761,761,761,761,761,761,761,761,761,761,761,761,761,761,761,761,761,761,761,761,761,761,761,761,761,761,761,761,761,761,761,761,752,736,710,678,603,589,584,583,583,583,583,582,582,582,581,576,567,545,530,516],"ymouse":[505,505,505,505,505,505,505,505,505,505,505,505,505,505,505,505,505,505,505,505,505,505,505,505,505,505,505,505,505,505,505,505,505,505,505,505,505,505,505,505,505,505,505,505,505,505,505,505,505,505,505,505,505,505,505,505,505,505,505,505,505,505,505,505,505,505,505,505,495,476,439,392,306,290,284,282,282,282,276,265,253,240,206,183,155,111,93,78],"timestamp_mouse":[16,36,55,76,95,117,136,156,175,196,217,236,256,276,295,316,336,356,376,395,416,436,456,476,496,516,535,556,576,595,617,636,656,675,696,717,737,756,776,797,815,837,856,876,896,917,936,955,977,995,1016,1036,1056,1077,1097,1117,1136,1156,1175,1197,1217,1235,1255,1276,1296,1315,1337,1356,1376,1397,1416,1436,1457,1477,1496,1516,1536,1556,1575,1595,1617,1636,1657,1676,1696,1717,1735,1757],"xSR":741.5,"ySR":469.95,"xT1":424.9,"yT1":0,"xT2":1058.1,"yT2":0,"toosoon":0,"cond_shown":"Incongruent","ratio_trial":200,"L_num":7,"L_den":10,"R_num":8,"R_den":16,"correct_side":1,"subjID":null,"gender":null,"school":null,"age":null},{"start_time":1551881974966,"click_time":1551881975969,"finger_time":1551881975607,"fix_duration":616.130034332685,"trial":27,"RT":641,"MT":362,"sideResp":2,"stimulus":[],"xmouse":[811,811,811,811,811,807,806,802,800,799,799,799,799,799,799,799,799,799,799,799,799,799,799,799,799,799,799,800,806,810,814,818,825,853,867,880,882,885,886,891,897,910,930,966,979,986,990,994,1019,1040,1068],"ymouse":[513,513,513,513,513,513,513,513,512,512,512,512,512,512,512,512,512,512,512,512,512,512,512,512,512,512,510,505,492,486,478,472,463,437,424,409,405,399,396,387,373,349,312,234,211,200,194,190,157,134,90],"timestamp_mouse":[11,21,42,62,83,102,121,142,161,183,203,223,242,263,282,302,321,342,361,382,401,422,443,462,482,502,522,541,562,581,601,622,641,663,681,702,722,742,762,781,801,822,842,862,881,903,922,942,962,981,1003],"xSR":741.5,"ySR":469.95,"xT1":424.9,"yT1":0,"xT2":1058.1,"yT2":0,"toosoon":0,"cond_shown":"Incongruent","ratio_trial":100,"L_num":2,"L_den":4,"R_num":8,"R_den":20,"correct_side":1,"subjID":null,"gender":null,"school":null,"age":null},{"start_time":1551881979027,"click_time":1551881980230,"finger_time":1551881979690,"fix_duration":397.9133529683535,"trial":28,"RT":663,"MT":540,"sideResp":1,"stimulus":[],"xmouse":[756,756,756,756,756,756,756,756,756,756,756,756,756,756,756,756,756,756,756,756,756,756,756,756,756,756,756,756,756,756,756,756,753,740,736,735,735,734,724,706,648,627,614,602,584,553,529,529,529,529,529,529,529,529,529,529,529,529,529,529,485],"ymouse":[522,522,522,522,522,522,522,522,522,522,522,522,522,522,522,522,522,522,522,522,522,522,522,522,522,522,522,522,522,522,522,511,481,446,434,418,399,375,336,290,198,170,152,127,100,48,11,11,11,11,11,11,11,11,11,11,11,11,11,11,30],"timestamp_mouse":[9,22,48,61,80,101,121,141,160,182,201,221,242,260,282,301,321,342,362,381,402,422,440,461,480,501,520,543,562,582,603,623,643,663,683,703,724,742,762,782,803,822,842,863,884,903,922,944,962,982,1003,1023,1044,1064,1083,1104,1124,1142,1162,1184,1203],"xSR":741.5,"ySR":469.95,"xT1":424.9,"yT1":0,"xT2":1058.1,"yT2":0,"toosoon":0,"cond_shown":"Incongruent","ratio_trial":100,"L_num":17,"L_den":30,"R_num":10,"R_den":15,"correct_side":2,"subjID":null,"gender":null,"school":null,"age":null},{"start_time":1551881981944,"click_time":1551881982890,"finger_time":1551881982750,"fix_duration":253.78069528699055,"trial":29,"RT":806,"MT":140,"sideResp":1,"stimulus":[],"xmouse":[774,774,775,778,782,783,783,783,783,785,788,794,796,797,797,797,797,797,797,798,798,798,798,798,798,798,798,798,798,798,798,798,798,798,798,798,793,790,780,753,741,728,709,684,632,596,549,467],"ymouse":[526,521,514,509,502,501,501,501,501,501,501,503,505,505,505,505,505,505,505,504,504,504,504,504,503,503,503,503,503,502,502,502,502,502,502,502,497,494,489,482,475,466,448,415,319,253,163,19],"timestamp_mouse":[12,25,45,69,85,107,125,146,167,185,207,225,245,266,286,305,327,345,366,386,406,426,446,465,486,506,526,545,566,586,605,627,646,666,686,705,725,746,766,785,806,826,846,865,886,905,927,946],"xSR":741.5,"ySR":469.95,"xT1":424.9,"yT1":0,"xT2":1058.1,"yT2":0,"toosoon":0,"cond_shown":"Congruent","ratio_trial":100,"L_num":6,"L_den":20,"R_num":5,"R_den":25,"correct_side":1,"subjID":null,"gender":null,"school":null,"age":null},{"start_time":1551881985708,"click_time":1551881986930,"finger_time":1551881986790,"fix_duration":1497.8332382369424,"trial":30,"RT":1082,"MT":140,"sideResp":1,"stimulus":[],"xmouse":[808,808,808,808,807,806,804,804,804,804,804,804,804,804,804,804,804,804,804,804,804,804,804,804,804,804,804,804,804,804,804,804,804,804,804,804,803,803,803,803,803,803,803,803,803,803,803,803,803,799,794,787,763,747,733,723,711,701,678,636,593,497],"ymouse":[502,503,503,503,504,504,506,507,507,507,507,507,507,507,507,507,507,507,507,507,507,507,507,507,507,507,507,507,507,507,507,507,507,507,507,507,507,507,507,507,507,507,507,507,507,507,507,507,507,507,506,505,497,489,481,472,442,420,384,305,235,94],"timestamp_mouse":[1,21,53,62,82,103,121,142,162,182,201,223,241,262,282,301,323,342,361,382,402,421,442,462,481,503,522,541,562,581,601,622,642,663,681,701,723,742,761,782,802,822,841,862,882,902,922,941,962,981,1002,1022,1042,1061,1082,1101,1122,1142,1162,1182,1203,1222],"xSR":741.5,"ySR":469.95,"xT1":424.9,"yT1":0,"xT2":1058.1,"yT2":0,"toosoon":0,"cond_shown":"Congruent","ratio_trial":100,"L_num":12,"L_den":30,"R_num":13,"R_den":26,"correct_side":2,"subjID":null,"gender":null,"school":null,"age":null},{"start_time":1551881991691,"click_time":1551881993330,"finger_time":1551881993010,"fix_duration":478.01652197338075,"trial":31,"RT":1319,"MT":320,"sideResp":2,"stimulus":[],"xmouse":[798,798,798,798,798,798,798,798,798,798,798,798,798,798,798,798,798,798,798,798,798,798,798,798,798,798,798,798,798,798,798,798,798,798,798,798,798,798,798,798,798,798,798,798,798,798,798,798,798,798,798,798,798,798,798,798,798,798,798,798,798,798,798,798,804,814,840,869,880,883,896,911,938,946,953,960,965,971,988,994,1021,1057,1074],"ymouse":[499,499,499,499,499,499,499,499,499,499,499,499,499,499,499,499,499,499,499,499,499,499,499,499,499,499,499,499,499,499,499,499,499,499,499,499,499,499,499,499,499,499,499,499,499,499,499,499,499,499,499,499,499,499,499,499,499,499,499,499,499,499,499,499,488,478,453,410,368,355,311,278,229,215,200,187,173,148,128,122,103,82,62],"timestamp_mouse":[1,19,39,59,78,98,119,138,158,179,198,220,238,258,278,299,319,339,359,379,398,418,438,459,478,498,520,539,558,578,599,619,640,658,680,700,719,740,758,779,798,819,840,858,878,900,918,938,958,979,999,1018,1038,1058,1078,1098,1118,1138,1159,1179,1198,1218,1239,1259,1280,1298,1319,1339,1358,1379,1400,1418,1438,1459,1478,1499,1518,1538,1558,1580,1600,1619,1638],"xSR":741.5,"ySR":469.95,"xT1":424.9,"yT1":0,"xT2":1058.1,"yT2":0,"toosoon":0,"cond_shown":"Congruent","ratio_trial":200,"L_num":6,"L_den":12,"R_num":7,"R_den":10,"correct_side":2,"subjID":null,"gender":null,"school":null,"age":null},{"start_time":1551881996517,"click_time":1551881998111,"finger_time":1551881997729,"fix_duration":665.1974970472619,"trial":32,"RT":1212,"MT":382,"sideResp":2,"stimulus":[],"xmouse":[772,772,772,772,772,772,772,772,772,772,772,772,772,772,772,772,772,772,772,772,772,772,770,770,770,768,767,767,767,766,766,766,766,766,766,766,766,766,766,766,766,766,766,766,766,766,766,766,766,766,765,764,764,764,764,764,764,764,764,767,797,841,900,955,1005,1047,1105,1124,1125,1126,1126,1133,1148,1165,1176,1188,1188,1180,1164,1154],"ymouse":[511,511,512,512,512,512,512,512,512,512,512,513,515,515,515,515,515,515,515,515,515,515,512,511,509,505,501,499,498,495,495,495,495,495,495,495,495,495,495,495,495,495,495,495,495,495,495,495,495,495,495,496,498,499,501,503,503,503,503,499,464,424,372,316,260,211,151,140,140,140,140,137,132,125,116,84,66,48,26,14],"timestamp_mouse":[12,38,54,73,93,114,133,152,173,193,213,232,252,272,293,312,332,353,372,392,412,434,453,472,493,512,533,552,573,592,612,633,652,674,692,712,733,752,773,792,814,833,852,874,892,912,932,953,974,992,1012,1033,1052,1073,1095,1114,1133,1152,1172,1193,1212,1232,1252,1272,1293,1313,1332,1352,1372,1393,1413,1433,1453,1472,1494,1512,1532,1553,1574,1594],"xSR":741.5,"ySR":469.95,"xT1":424.9,"yT1":0,"xT2":1058.1,"yT2":0,"toosoon":0,"cond_shown":"Incongruent","ratio_trial":300,"L_num":8,"L_den":10,"R_num":9,"R_den":18,"correct_side":1,"subjID":null,"gender":null,"school":null,"age":null},{"start_time":1551882002083,"click_time":1551882003549,"finger_time":1551882003051,"fix_duration":250,"trial":33,"RT":968,"MT":498,"sideResp":1,"stimulus":[],"xmouse":[775,775,775,774,774,774,773,770,769,769,769,769,768,766,763,761,760,760,760,760,760,759,757,757,757,757,757,757,757,757,757,757,757,757,757,757,757,757,757,757,757,757,757,757,757,757,755,753,751,747,739,717,662,631,607,593,586,581,579,575,563,550,525,523,523,523,524,526,526,526,526,526,526,523],"ymouse":[474,474,474,474,474,474,474,474,474,474,474,474,474,474,474,474,474,474,474,474,474,474,474,474,474,474,474,474,474,474,474,474,474,474,474,474,474,474,474,474,474,474,474,474,474,474,473,471,465,451,427,370,270,235,215,206,201,197,193,188,175,162,143,135,126,117,110,102,100,97,91,85,66,55],"timestamp_mouse":[8,41,47,67,87,107,127,147,167,186,207,227,247,267,287,306,327,348,367,388,406,427,447,466,486,507,528,548,566,587,606,627,647,666,687,708,726,748,766,787,807,826,847,866,887,907,926,946,968,986,1007,1026,1047,1067,1086,1107,1127,1147,1167,1188,1208,1227,1246,1266,1286,1306,1326,1346,1368,1387,1407,1428,1447,1466],"xSR":741.5,"ySR":469.95,"xT1":424.9,"yT1":0,"xT2":1058.1,"yT2":0,"toosoon":0,"cond_shown":"Congruent","ratio_trial":200,"L_num":9,"L_den":20,"R_num":4,"R_den":16,"correct_side":1,"subjID":null,"gender":null,"school":null,"age":null},{"start_time":1551882006333,"click_time":1551882008150,"finger_time":1551882007729,"fix_duration":1442.7976634402446,"trial":34,"RT":1396,"MT":421,"sideResp":1,"stimulus":[],"xmouse":[796,796,796,796,796,796,796,796,796,796,796,796,796,796,796,796,796,796,796,796,796,796,796,796,796,796,796,796,796,796,796,796,796,796,796,796,796,796,796,796,796,796,796,796,796,796,796,796,796,796,796,796,796,796,796,796,796,796,796,796,796,796,796,796,796,796,796,796,796,775,760,742,727,713,682,665,634,624,601,582,577,574,573,573,574,577,577,575,568,532,507],"ymouse":[498,498,498,498,498,498,498,498,498,498,498,498,498,498,498,498,498,498,498,498,498,498,498,498,498,498,498,498,498,498,498,498,498,498,498,498,498,498,498,498,498,498,498,498,498,498,498,498,498,498,498,498,498,498,498,498,498,498,498,498,498,498,498,498,498,498,498,496,492,454,430,394,347,308,259,243,225,219,209,198,191,184,178,172,165,145,134,118,110,90,79],"timestamp_mouse":[29,36,56,77,96,117,136,157,176,198,216,237,258,276,297,318,338,356,377,396,417,437,456,478,496,516,538,558,577,596,617,638,656,676,697,717,738,758,776,797,818,837,857,877,897,916,937,956,976,997,1016,1037,1058,1078,1096,1116,1138,1156,1178,1196,1216,1238,1256,1278,1297,1316,1338,1357,1376,1396,1416,1437,1457,1477,1496,1516,1536,1557,1576,1596,1616,1637,1658,1678,1697,1717,1737,1758,1777,1797,1816],"xSR":741.5,"ySR":469.95,"xT1":424.9,"yT1":0,"xT2":1058.1,"yT2":0,"toosoon":0,"cond_shown":"Incongruent","ratio_trial":200,"L_num":7,"L_den":10,"R_num":8,"R_den":16,"correct_side":1,"subjID":null,"gender":null,"school":null,"age":null},{"start_time":1551882009975,"click_time":1551882011249,"finger_time":1551882011069,"fix_duration":565.2089440633687,"trial":35,"RT":1094,"MT":180,"sideResp":1,"stimulus":[],"xmouse":[779,779,779,779,779,779,779,779,779,779,779,779,779,779,779,779,779,780,780,780,780,780,780,780,780,780,780,780,780,780,780,780,780,780,780,780,780,780,780,780,780,780,780,780,780,780,780,780,780,780,780,777,766,756,735,688,584,507,493,476,460,452,450,450],"ymouse":[505,505,505,505,505,505,505,505,505,505,505,505,505,505,505,505,505,505,506,508,509,510,510,510,510,510,510,510,510,510,510,510,510,510,510,510,510,510,510,510,510,510,510,510,510,510,510,510,510,510,510,510,498,476,438,386,308,228,204,176,148,130,108,92],"timestamp_mouse":[14,37,54,75,94,116,136,154,175,195,214,234,255,274,296,316,334,355,374,394,416,435,455,475,495,514,534,555,574,594,614,634,655,675,694,716,735,754,774,796,815,835,854,875,894,914,936,954,976,994,1016,1034,1054,1075,1094,1116,1134,1154,1176,1195,1215,1234,1254,1274],"xSR":741.5,"ySR":469.95,"xT1":424.9,"yT1":0,"xT2":1058.1,"yT2":0,"toosoon":0,"cond_shown":"Incongruent","ratio_trial":300,"L_num":4,"L_den":5,"R_num":8,"R_den":16,"correct_side":1,"subjID":null,"gender":null,"school":null,"age":null},{"start_time":1551882012696,"click_time":1551882013851,"finger_time":1551882013529,"fix_duration":266.45399294832794,"trial":36,"RT":833,"MT":322,"sideResp":1,"stimulus":[],"xmouse":[803,803,803,803,803,803,803,803,803,803,803,803,803,803,803,803,803,802,802,802,802,802,802,801,800,798,793,782,780,778,778,778,778,778,778,778,778,778,778,778,778,771,757,732,690,637,530,497,478,459,441,436,436,436,436,436,439,450],"ymouse":[499,500,500,500,500,500,500,500,500,500,500,500,500,500,500,500,500,500,500,500,500,500,500,500,497,494,488,476,475,474,474,474,474,474,474,474,474,474,474,474,474,464,448,419,377,322,217,181,158,136,114,108,108,108,108,106,101,88],"timestamp_mouse":[14,34,53,74,93,115,134,153,174,194,215,233,253,274,294,313,334,354,373,394,414,434,455,474,494,513,533,554,573,593,615,634,653,675,694,713,734,753,773,793,815,833,855,874,893,914,933,953,974,994,1015,1033,1054,1073,1095,1114,1134,1155],"xSR":741.5,"ySR":469.95,"xT1":424.9,"yT1":0,"xT2":1058.1,"yT2":0,"toosoon":0,"cond_shown":"Congruent","ratio_trial":200,"L_num":20,"L_den":25,"R_num":9,"R_den":15,"correct_side":1,"subjID":null,"gender":null,"school":null,"age":null},{"start_time":1551882015350,"click_time":1551882017130,"finger_time":1551882016569,"fix_duration":398.7988892483284,"trial":37,"RT":1219,"MT":561,"sideResp":1,"stimulus":[],"xmouse":[781,781,781,781,781,781,781,781,781,781,781,781,781,781,781,781,781,781,781,781,781,781,781,781,781,781,781,781,781,781,781,781,781,781,781,781,781,781,781,781,781,781,781,781,781,781,781,781,781,781,781,781,781,781,781,781,781,781,780,776,767,748,705,649,486,408,366,358,358,358,358,358,358,358,358,358,358,358,358,358,358,358,535,538,541,541,541,541,539,447],"ymouse":[495,495,495,495,495,495,495,495,495,495,495,495,495,495,495,495,495,495,495,495,495,495,495,495,495,495,495,495,495,495,495,495,495,495,495,495,495,495,495,495,495,495,495,495,495,495,495,495,495,495,495,495,495,495,495,495,495,495,495,488,475,454,408,339,158,74,16,5,5,5,5,5,5,5,5,5,5,5,5,5,5,5,11,18,29,34,34,34,35,10],"timestamp_mouse":[2,20,40,63,80,100,120,140,159,180,200,219,240,260,279,299,319,340,359,380,399,419,439,460,479,499,521,539,561,579,599,620,639,660,679,700,719,739,759,779,800,819,841,859,879,899,920,940,960,980,999,1019,1039,1060,1080,1100,1120,1139,1159,1180,1200,1219,1239,1261,1280,1299,1319,1340,1360,1379,1400,1420,1440,1460,1480,1500,1519,1539,1560,1581,1601,1620,1640,1660,1680,1699,1719,1739,1759,1780],"xSR":741.5,"ySR":469.95,"xT1":424.9,"yT1":0,"xT2":1058.1,"yT2":0,"toosoon":0,"cond_shown":"Incongruent","ratio_trial":200,"L_num":4,"L_den":6,"R_num":14,"R_den":30,"correct_side":1,"subjID":null,"gender":null,"school":null,"age":null},{"start_time":1551882019063,"click_time":1551882020530,"finger_time":1551882019929,"fix_duration":633.3693303845083,"trial":38,"RT":866,"MT":601,"sideResp":2,"stimulus":[],"xmouse":[785,785,785,785,784,783,783,783,783,783,783,783,783,783,783,783,783,783,783,783,783,783,783,783,783,783,783,783,783,783,783,783,783,783,783,783,783,783,783,783,783,789,816,883,912,924,930,933,934,934,937,943,947,956,961,964,966,966,969,972,978,997,1009,1029,1035,1037,1038,1040,1045,1049,1050,1051,1053,1092],"ymouse":[532,532,532,530,528,524,522,521,521,521,521,521,521,521,521,521,521,521,521,521,521,521,521,521,521,521,521,521,521,521,521,521,521,521,521,521,521,521,521,519,516,506,478,413,381,363,348,338,329,322,308,282,255,178,143,115,96,81,74,70,65,54,47,36,31,29,29,29,29,29,29,30,30,34],"timestamp_mouse":[8,36,46,67,86,106,128,146,168,188,207,227,246,267,286,306,326,346,367,387,406,427,447,467,488,506,527,547,566,586,606,626,647,666,687,707,728,746,767,786,806,827,846,866,888,907,928,946,966,986,1007,1027,1046,1068,1088,1108,1127,1146,1166,1188,1207,1227,1246,1267,1287,1306,1326,1348,1367,1388,1406,1427,1447,1467],"xSR":741.5,"ySR":469.95,"xT1":424.9,"yT1":0,"xT2":1058.1,"yT2":0,"toosoon":0,"cond_shown":"Incongruent","ratio_trial":300,"L_num":4,"L_den":20,"R_num":2,"R_den":4,"correct_side":2,"subjID":null,"gender":null,"school":null,"age":null},{"start_time":1551882024718,"click_time":1551882025969,"finger_time":1551882025510,"fix_duration":1106.6519321141977,"trial":39,"RT":792,"MT":459,"sideResp":2,"stimulus":[],"xmouse":[769,769,769,769,769,769,769,769,769,769,769,769,769,769,769,769,769,769,769,769,769,769,769,771,771,771,771,771,772,772,772,772,772,772,772,772,772,782,797,879,1036,1134,1227,1227,1227,1227,1227,1227,1227,1227,1227,1227,1227,1227,1227,1227,1227,1244,1224,1213,1184,1166,1157],"ymouse":[511,511,511,511,511,511,511,511,511,511,511,511,511,511,511,511,511,511,511,511,511,511,511,511,511,511,511,511,511,511,511,511,511,511,511,511,511,500,484,400,227,136,40,40,40,40,40,40,40,40,40,40,40,40,40,40,40,9,32,39,44,44,44],"timestamp_mouse":[12,41,51,73,91,113,131,153,171,191,211,233,251,271,291,312,332,351,371,391,412,433,451,472,492,511,532,551,572,592,611,631,651,673,691,713,732,752,773,792,812,832,851,871,892,913,931,951,973,992,1012,1033,1051,1072,1091,1112,1131,1152,1172,1193,1212,1231,1251],"xSR":741.5,"ySR":469.95,"xT1":424.9,"yT1":0,"xT2":1058.1,"yT2":0,"toosoon":0,"cond_shown":"Congruent","ratio_trial":200,"L_num":5,"L_den":10,"R_num":14,"R_den":20,"correct_side":2,"subjID":null,"gender":null,"school":null,"age":null},{"start_time":1551882028381,"click_time":1551882029210,"finger_time":1551882028810,"fix_duration":710.2729528826552,"trial":40,"RT":429,"MT":400,"sideResp":1,"stimulus":[],"xmouse":[798,798,798,798,798,798,798,798,798,798,798,798,798,798,798,798,798,799,799,798,789,781,741,721,710,705,697,681,681,681,681,681,681,681,681,681,681,681,681,681,681,514],"ymouse":[503,503,503,503,503,503,503,503,503,503,503,503,503,503,503,503,503,503,503,496,482,458,361,303,244,188,101,19,19,19,19,19,19,19,19,19,19,19,19,19,19,27],"timestamp_mouse":[8,28,49,69,88,109,128,148,170,190,208,229,250,270,289,308,329,349,370,389,408,429,450,470,488,509,528,549,568,588,609,629,648,668,688,709,728,748,770,790,809,829],"xSR":741.5,"ySR":469.95,"xT1":424.9,"yT1":0,"xT2":1058.1,"yT2":0,"toosoon":0,"cond_shown":"Incongruent","ratio_trial":300,"L_num":4,"L_den":20,"R_num":2,"R_den":4,"correct_side":2,"subjID":null,"gender":null,"school":null,"age":null},{"start_time":1551882032620,"click_time":1551882033849,"finger_time":1551882033510,"fix_duration":1087.8859638853405,"trial":41,"RT":890,"MT":339,"sideResp":2,"stimulus":[],"xmouse":[762,762,762,762,762,762,762,762,762,762,762,762,762,762,762,762,762,762,762,762,762,762,762,762,762,762,762,762,762,762,762,762,762,762,762,762,762,762,762,762,762,762,766,800,858,1067,1170,1252,1308,1333,1339,1338,1333,1328,1321,1317,1314,1307,1295,1274,1184,1126],"ymouse":[517,517,517,517,517,517,517,517,517,517,517,517,517,517,517,517,517,517,517,517,517,517,517,517,517,517,517,517,517,517,517,517,517,517,517,517,517,517,517,517,517,515,509,473,427,278,206,147,104,80,54,46,38,33,28,28,28,28,28,28,18,9],"timestamp_mouse":[10,30,49,71,89,109,131,150,170,190,211,231,250,270,290,310,329,350,370,389,409,431,449,471,490,509,531,550,569,589,610,629,649,669,690,709,729,751,769,790,810,830,849,870,890,910,930,949,970,991,1012,1029,1049,1069,1090,1110,1131,1149,1169,1189,1209,1229],"xSR":741.5,"ySR":469.95,"xT1":424.9,"yT1":0,"xT2":1058.1,"yT2":0,"toosoon":0,"cond_shown":"Incongruent","ratio_trial":200,"L_num":14,"L_den":30,"R_num":6,"R_den":9,"correct_side":2,"subjID":null,"gender":null,"school":null,"age":null},{"start_time":1551882036536,"click_time":1551882037491,"finger_time":1551882036930,"fix_duration":1423.2390783040062,"trial":42,"RT":394,"MT":561,"sideResp":2,"stimulus":[],"xmouse":[799,799,799,799,799,799,799,799,799,799,799,799,799,799,799,799,799,799,799,808,854,911,954,954,954,954,954,954,954,954,954,954,954,954,954,954,954,954,954,954,954,954,954,954,954,954,1055,1060],"ymouse":[488,488,488,488,488,488,488,488,488,488,488,488,488,488,488,488,488,488,488,445,286,116,1,1,1,1,1,1,1,1,1,1,1,1,1,1,1,1,1,1,1,1,1,1,1,1,0,7],"timestamp_mouse":[14,44,53,74,93,113,134,154,174,194,214,234,255,274,294,313,333,355,373,394,415,434,453,475,494,514,533,553,574,594,613,633,653,674,694,713,733,754,773,793,814,833,854,873,895,914,934,955],"xSR":741.5,"ySR":469.95,"xT1":424.9,"yT1":0,"xT2":1058.1,"yT2":0,"toosoon":0,"cond_shown":"Congruent","ratio_trial":100,"L_num":6,"L_den":20,"R_num":5,"R_den":25,"correct_side":1,"subjID":null,"gender":null,"school":null,"age":null},{"start_time":1551882040624,"click_time":1551882042012,"finger_time":1551882041531,"fix_duration":250,"trial":43,"RT":907,"MT":481,"sideResp":1,"stimulus":[],"xmouse":[796,796,796,796,796,796,796,796,796,796,796,796,796,796,796,796,796,796,796,796,796,796,796,796,796,796,796,796,796,796,796,796,796,796,796,796,796,796,796,796,796,796,796,789,757,689,653,629,610,605,603,602,600,596,596,596,596,596,596,596,596,596,596,596,596,596,596,596,596,519],"ymouse":[535,535,535,535,535,535,535,535,535,535,535,535,535,535,535,535,535,535,535,535,535,535,535,535,535,535,535,535,535,535,535,535,535,535,535,535,535,535,535,535,535,535,529,522,476,382,306,237,175,113,52,28,15,1,1,1,1,1,1,1,1,1,1,1,1,1,1,1,1,17],"timestamp_mouse":[8,34,46,67,88,106,126,148,166,187,207,227,247,267,286,308,326,347,366,386,406,426,448,467,488,506,527,546,566,587,606,627,647,667,686,707,727,746,767,787,808,826,847,866,887,907,928,947,968,987,1008,1026,1046,1068,1088,1106,1126,1147,1167,1187,1207,1226,1247,1267,1286,1307,1326,1346,1366,1387],"xSR":741.5,"ySR":469.95,"xT1":424.9,"yT1":0,"xT2":1058.1,"yT2":0,"toosoon":0,"cond_shown":"Congruent","ratio_trial":300,"L_num":12,"L_den":24,"R_num":2,"R_den":10,"correct_side":1,"subjID":null,"gender":null,"school":null,"age":null},{"start_time":1551882044106,"click_time":1551882045751,"finger_time":1551882045330,"fix_duration":1054.2722821441691,"trial":44,"RT":1224,"MT":421,"sideResp":2,"stimulus":[],"xmouse":[787,787,787,787,787,787,787,787,787,787,787,787,787,787,787,787,787,787,787,787,787,787,787,787,787,787,787,787,787,787,787,787,787,787,787,787,787,787,787,787,787,787,787,787,787,787,787,787,787,787,787,787,787,787,787,787,787,787,787,790,824,967,1049,1122,1180,1265,1265,1265,1265,1265,1265,1265,1265,1265,1265,1265,1265,1265,1265,1265,1265,1265,1101],"ymouse":[514,514,514,514,514,514,514,514,514,514,514,514,514,514,514,514,514,514,514,514,514,514,514,514,514,514,514,514,514,514,514,514,514,514,514,514,514,514,514,514,514,514,514,514,514,514,514,514,514,514,514,514,514,514,514,514,514,514,514,514,484,339,257,178,106,3,3,3,3,3,3,3,3,3,3,3,3,3,3,3,3,3,1],"timestamp_mouse":[8,41,46,65,84,105,124,146,164,184,205,225,245,265,285,304,324,344,364,386,405,425,444,465,486,505,525,545,564,586,604,624,644,666,684,705,726,745,765,786,804,826,846,864,886,904,924,945,964,984,1004,1025,1044,1065,1084,1106,1124,1144,1166,1184,1205,1224,1244,1264,1285,1305,1325,1345,1365,1385,1405,1425,1445,1465,1485,1504,1525,1544,1565,1584,1605,1625,1645],"xSR":741.5,"ySR":469.95,"xT1":424.9,"yT1":0,"xT2":1058.1,"yT2":0,"toosoon":0,"cond_shown":"Incongruent","ratio_trial":100,"L_num":3,"L_den":6,"R_num":4,"R_den":10,"correct_side":1,"subjID":null,"gender":null,"school":null,"age":null},{"start_time":1551882049263,"click_time":1551882050211,"finger_time":1551882049971,"fix_duration":831.0210603753791,"trial":45,"RT":708,"MT":240,"sideResp":2,"stimulus":[],"xmouse":[791,791,791,791,791,791,791,791,791,791,791,791,791,791,791,791,791,791,791,791,791,790,786,785,785,785,785,785,785,785,785,785,785,785,790,801,821,860,987,1034,1092,1113,1128,1136,1141,1141,1141,1141],"ymouse":[512,512,512,512,512,512,512,512,512,512,512,512,512,512,512,512,512,512,512,512,512,506,499,497,497,496,496,495,495,495,495,495,495,494,483,464,437,384,257,210,152,131,118,112,108,105,100,93],"timestamp_mouse":[10,30,48,68,87,108,128,149,167,188,207,229,248,268,289,307,327,348,367,387,408,427,449,467,488,508,529,547,568,587,609,628,647,668,688,708,728,748,768,787,807,829,849,868,889,908,928,948],"xSR":741.5,"ySR":469.95,"xT1":424.9,"yT1":0,"xT2":1058.1,"yT2":0,"toosoon":0,"cond_shown":"Incongruent","ratio_trial":200,"L_num":4,"L_den":6,"R_num":14,"R_den":30,"correct_side":1,"subjID":null,"gender":null,"school":null,"age":null},{"start_time":1551882053178,"click_time":1551882054071,"finger_time":1551882053612,"fix_duration":1185.0174482993816,"trial":46,"RT":434,"MT":459,"sideResp":2,"stimulus":[],"xmouse":[780,780,780,780,780,780,780,780,780,780,780,780,780,780,780,779,777,768,765,758,752,746,742,731,726,726,726,726,726,726,726,733,768,798,824,848,873,894,907,931,969,993,1045,1080,1099],"ymouse":[503,503,503,503,503,503,503,503,503,503,503,503,503,503,503,501,498,492,488,481,473,464,457,442,434,432,432,432,432,432,431,431,430,420,410,400,387,369,349,319,276,243,170,121,87],"timestamp_mouse":[14,37,53,74,93,114,132,152,172,193,212,233,253,272,292,312,334,353,372,394,413,434,453,473,492,513,533,553,573,592,613,632,653,672,693,714,734,752,773,793,813,834,853,872,893],"xSR":741.5,"ySR":469.95,"xT1":424.9,"yT1":0,"xT2":1058.1,"yT2":0,"toosoon":0,"cond_shown":"Incongruent","ratio_trial":100,"L_num":3,"L_den":5,"R_num":8,"R_den":16,"correct_side":1,"subjID":null,"gender":null,"school":null,"age":null},{"start_time":1551882070005,"click_time":1551882071311,"finger_time":1551882070671,"fix_duration":1073.7088134146245,"trial":47,"RT":666,"MT":640,"sideResp":2,"stimulus":[],"xmouse":[790,790,790,790,790,790,790,790,790,790,790,790,790,790,790,790,790,790,790,790,790,790,790,790,790,790,790,790,790,790,789,791,797,810,822,830,857,870,876,876,876,876,876,876,876,876,876,876,876,876,876,876,876,876,876,876,876,876,876,876,876,876,876,876,876,1076],"ymouse":[532,532,532,532,532,532,532,532,532,532,532,532,532,532,532,532,532,532,532,532,532,532,532,532,532,532,532,532,532,532,527,501,474,433,385,343,250,199,142,85,3,3,3,3,3,3,3,3,3,3,3,3,3,3,3,3,3,3,3,3,3,3,3,3,3,3],"timestamp_mouse":[9,25,46,65,86,106,125,145,166,185,205,225,246,266,286,305,326,345,367,387,407,426,446,465,485,506,526,546,567,585,606,626,645,665,686,707,725,745,765,787,806,827,846,865,885,906,926,945,965,986,1006,1026,1045,1066,1087,1106,1125,1145,1165,1185,1206,1226,1246,1266,1285,1306],"xSR":741.5,"ySR":469.95,"xT1":424.9,"yT1":0,"xT2":1058.1,"yT2":0,"toosoon":0,"cond_shown":"Congruent","ratio_trial":200,"L_num":3,"L_den":10,"R_num":7,"R_den":14,"correct_side":2,"subjID":null,"gender":null,"school":null,"age":null},{"start_time":1551882073748,"click_time":1551882074510,"finger_time":1551882074430,"fix_duration":1216.5557522899846,"trial":48,"RT":682,"MT":80,"sideResp":2,"stimulus":[],"xmouse":[780,780,780,780,780,780,780,780,780,780,780,780,780,780,780,780,780,780,780,780,780,780,780,780,783,786,788,789,789,789,789,789,794,802,901,959,1011,1026,1069],"ymouse":[531,531,531,531,531,531,531,531,531,531,531,531,531,531,531,531,531,531,531,531,531,531,531,531,531,533,534,534,534,534,534,534,532,522,406,324,209,168,74],"timestamp_mouse":[9,37,43,62,82,103,123,142,162,183,203,224,243,262,283,302,323,343,363,384,403,423,443,463,484,503,522,544,563,582,603,624,643,662,682,704,723,742,762],"xSR":741.5,"ySR":469.95,"xT1":424.9,"yT1":0,"xT2":1058.1,"yT2":0,"toosoon":0,"cond_shown":"Congruent","ratio_trial":300,"L_num":1,"L_den":5,"R_num":6,"R_den":12,"correct_side":2,"subjID":null,"gender":null,"school":null,"age":null},{"start_time":1551882078263,"click_time":1551882080431,"finger_time":1551882079870,"fix_duration":1069.9139628314078,"trial":49,"RT":1607,"MT":561,"sideResp":1,"stimulus":[],"xmouse":[790,790,790,790,790,790,790,790,790,790,790,790,790,790,790,790,790,790,790,790,790,790,790,790,790,790,790,790,790,790,790,790,790,790,790,790,790,790,790,790,790,790,790,790,790,790,790,790,790,790,790,790,790,790,790,790,790,790,790,790,790,790,790,790,790,790,790,790,790,790,790,790,790,790,790,790,790,790,790,793,806,811,797,685,607,607,607,607,607,607,607,607,607,607,607,607,150,163,234,258,272,288,296,299,299,301,313,342,439],"ymouse":[517,517,517,517,517,517,517,517,517,517,517,517,517,517,517,517,517,517,517,517,517,517,517,517,517,517,517,517,517,517,517,517,517,517,517,517,517,517,517,517,517,517,517,517,517,517,517,517,517,517,517,517,517,517,517,517,517,517,517,517,517,517,517,517,517,517,517,517,517,517,517,517,517,517,517,517,517,517,517,510,465,363,304,131,35,35,35,35,35,35,35,35,35,35,35,35,4,11,30,30,32,34,35,35,35,34,37,45,60],"timestamp_mouse":[8,28,49,68,87,107,128,148,169,187,207,229,247,269,287,308,327,348,368,389,408,428,448,468,487,508,528,547,567,587,607,628,649,668,688,707,729,749,768,787,808,829,847,868,889,907,927,948,967,987,1008,1028,1047,1069,1087,1107,1127,1148,1167,1189,1207,1227,1248,1268,1287,1308,1329,1347,1368,1388,1408,1429,1447,1467,1488,1509,1529,1549,1567,1587,1607,1628,1649,1667,1688,1709,1728,1748,1768,1789,1808,1828,1848,1868,1888,1908,1928,1947,1968,1987,2007,2028,2048,2069,2088,2108,2127,2148,2168],"xSR":741.5,"ySR":469.95,"xT1":424.9,"yT1":0,"xT2":1058.1,"yT2":0,"toosoon":0,"cond_shown":"Incongruent","ratio_trial":300,"L_num":4,"L_den":5,"R_num":6,"R_den":12,"correct_side":1,"subjID":null,"gender":null,"school":null,"age":null},{"start_time":1551882082630,"click_time":1551882083632,"finger_time":1551882083330,"fix_duration":536.5467845649413,"trial":50,"RT":700,"MT":302,"sideResp":1,"stimulus":[],"xmouse":[791,791,791,791,791,791,791,791,791,791,791,791,791,791,791,791,791,791,791,791,791,791,791,791,791,791,791,791,791,791,791,791,790,789,781,752,735,713,685,654,602,580,569,557,554,550,547,544,541,537,518],"ymouse":[512,512,512,512,512,512,512,512,512,512,512,512,512,512,512,512,512,512,512,512,512,512,512,512,512,512,512,512,512,512,512,512,509,497,480,440,413,371,321,260,149,100,69,42,37,33,32,31,29,26,19],"timestamp_mouse":[9,21,41,67,81,100,122,140,161,182,200,221,241,260,281,302,321,340,361,381,400,422,440,461,481,500,522,540,562,581,600,621,640,661,681,700,721,741,761,781,800,820,840,861,882,900,920,940,963,981,1001],"xSR":741.5,"ySR":469.95,"xT1":424.9,"yT1":0,"xT2":1058.1,"yT2":0,"toosoon":0,"cond_shown":"Incongruent","ratio_trial":100,"L_num":10,"L_den":25,"R_num":8,"R_den":16,"correct_side":2,"subjID":null,"gender":null,"school":null,"age":null},{"start_time":1551882085566,"click_time":1551882086592,"finger_time":1551882086170,"fix_duration":833.7770797863527,"trial":51,"RT":604,"MT":422,"sideResp":2,"stimulus":[],"xmouse":[768,768,768,768,768,768,768,768,768,768,768,768,768,768,768,768,768,768,768,768,768,768,768,768,768,768,768,768,768,770,777,790,808,834,850,863,879,886,898,900,903,908,912,913,916,928,941,959,1008,1032,1058,1091],"ymouse":[504,504,504,504,504,504,504,504,504,504,504,504,504,504,504,504,504,504,504,504,504,504,504,504,504,504,504,504,493,474,447,412,369,301,263,229,194,175,132,110,91,79,73,72,72,78,84,90,92,87,79,65],"timestamp_mouse":[8,37,45,64,85,105,126,145,166,184,205,225,245,264,285,305,325,346,365,386,404,426,444,465,485,504,525,546,565,584,604,624,645,666,685,704,724,745,765,785,805,825,845,865,885,904,926,945,965,984,1005,1026],"xSR":741.5,"ySR":469.95,"xT1":424.9,"yT1":0,"xT2":1058.1,"yT2":0,"toosoon":0,"cond_shown":"Congruent","ratio_trial":200,"L_num":6,"L_den":20,"R_num":11,"R_den":22,"correct_side":2,"subjID":null,"gender":null,"school":null,"age":null},{"start_time":1551882091222,"click_time":1551882092112,"finger_time":1551882092010,"fix_duration":250,"trial":52,"RT":788,"MT":102,"sideResp":1,"stimulus":[],"xmouse":[798,798,798,798,798,798,798,798,798,798,798,798,798,798,798,798,798,798,798,798,798,798,798,798,798,798,798,798,798,798,798,798,798,798,797,791,784,771,751,725,634,591,549,499,468],"ymouse":[533,533,533,533,533,533,533,533,533,533,533,533,533,533,533,533,533,533,533,533,533,533,533,533,533,533,533,533,533,533,533,533,533,532,532,529,525,515,498,471,372,312,243,123,35],"timestamp_mouse":[11,43,48,69,89,109,129,149,169,190,210,229,248,270,288,310,329,348,369,389,409,428,450,468,488,508,529,549,568,590,608,630,650,669,689,709,728,749,769,788,810,828,850,869,890],"xSR":741.5,"ySR":469.95,"xT1":424.9,"yT1":0,"xT2":1058.1,"yT2":0,"toosoon":0,"cond_shown":"Incongruent","ratio_trial":100,"L_num":10,"L_den":25,"R_num":8,"R_den":16,"correct_side":2,"subjID":null,"gender":null,"school":null,"age":null},{"start_time":1551882093322,"click_time":1551882094751,"finger_time":1551882094672,"fix_duration":250,"trial":53,"RT":1350,"MT":79,"sideResp":1,"stimulus":[],"xmouse":[805,805,805,805,805,805,805,805,805,805,805,805,805,805,805,805,805,805,805,805,805,805,805,805,805,805,805,805,805,805,805,805,805,805,805,805,805,805,805,805,805,805,805,805,805,805,805,805,805,805,805,805,805,805,805,805,805,805,805,805,805,805,805,805,804,800,790,768,726,644,529,479],"ymouse":[514,514,514,514,514,514,514,514,514,514,514,514,514,514,514,514,514,514,514,514,514,514,514,514,514,514,514,514,514,514,514,514,514,514,514,514,514,514,514,514,514,514,514,514,514,514,514,514,514,514,514,514,514,514,514,514,514,514,514,514,514,514,514,514,514,509,486,437,367,253,134,94],"timestamp_mouse":[15,29,53,68,88,109,129,148,169,190,208,230,249,269,288,308,328,348,368,389,409,429,449,469,488,508,528,549,569,589,610,628,649,668,690,708,728,750,770,788,810,829,849,868,888,909,929,950,970,988,1009,1029,1049,1068,1089,1109,1130,1148,1169,1189,1209,1228,1249,1269,1288,1309,1329,1350,1368,1388,1408,1429],"xSR":741.5,"ySR":469.95,"xT1":424.9,"yT1":0,"xT2":1058.1,"yT2":0,"toosoon":0,"cond_shown":"Congruent","ratio_trial":300,"L_num":20,"L_den":25,"R_num":14,"R_den":28,"correct_side":1,"subjID":null,"gender":null,"school":null,"age":null},{"start_time":1551882096224,"click_time":1551882097870,"finger_time":1551882097470,"fix_duration":333.40807091691505,"trial":54,"RT":1246,"MT":400,"sideResp":2,"stimulus":[],"xmouse":[794,794,794,794,794,794,795,795,795,795,795,795,795,795,795,795,795,795,795,795,795,795,795,795,795,795,795,795,795,795,795,795,795,795,795,795,795,795,795,795,795,795,795,795,795,795,795,795,795,795,795,795,795,795,795,795,795,795,795,795,798,800,804,814,850,936,965,988,1001,1009,1017,1018,1018,1019,1022,1027,1031,1033,1034,1036,1049,1058,1065],"ymouse":[486,486,486,492,504,513,518,519,519,519,519,519,519,519,519,519,519,519,519,519,519,519,519,519,519,519,519,519,519,519,519,519,519,519,519,519,519,519,519,519,519,519,519,519,519,519,519,519,519,519,519,519,519,519,519,519,519,519,519,519,510,492,453,425,373,262,223,190,167,152,137,131,126,107,88,75,61,58,57,56,51,47,42],"timestamp_mouse":[9,27,53,68,88,107,127,148,168,186,207,228,247,266,288,308,326,347,366,387,407,426,447,467,488,507,527,548,567,588,606,628,646,666,688,707,728,746,766,788,807,827,848,867,888,906,926,948,966,986,1007,1027,1046,1066,1087,1106,1127,1147,1166,1187,1208,1228,1246,1267,1288,1306,1327,1347,1368,1387,1406,1426,1446,1467,1488,1507,1528,1546,1567,1587,1607,1626,1646],"xSR":741.5,"ySR":469.95,"xT1":424.9,"yT1":0,"xT2":1058.1,"yT2":0,"toosoon":0,"cond_shown":"Incongruent","ratio_trial":200,"L_num":14,"L_den":30,"R_num":12,"R_den":18,"correct_side":2,"subjID":null,"gender":null,"school":null,"age":null},{"start_time":1551882099612,"click_time":1551882100831,"finger_time":1551882100452,"fix_duration":840.409321088189,"trial":55,"RT":840,"MT":379,"sideResp":2,"stimulus":[],"xmouse":[771,771,771,771,771,771,771,771,771,771,771,771,771,771,771,771,771,771,771,771,771,771,771,771,771,771,771,771,771,771,771,771,771,771,771,771,771,771,770,769,780,796,812,837,860,881,929,946,960,973,988,998,1002,1012,1016,1020,1023,1026,1031,1041,1060],"ymouse":[533,533,533,533,533,533,533,533,533,533,533,533,533,533,533,533,533,533,533,533,533,533,533,533,533,533,533,533,533,533,533,533,533,533,533,533,533,528,523,515,484,461,429,367,313,257,181,168,159,151,140,131,126,116,107,87,78,71,65,58,50],"timestamp_mouse":[18,50,58,80,98,119,138,159,179,198,220,238,260,278,299,320,338,360,380,398,418,439,458,479,500,518,539,559,579,599,619,639,659,679,699,720,740,759,780,799,819,840,859,880,899,919,939,959,980,999,1019,1039,1059,1079,1099,1120,1140,1159,1179,1200,1219],"xSR":741.5,"ySR":469.95,"xT1":424.9,"yT1":0,"xT2":1058.1,"yT2":0,"toosoon":0,"cond_shown":"Incongruent","ratio_trial":100,"L_num":6,"L_den":10,"R_num":13,"R_den":26,"correct_side":1,"subjID":null,"gender":null,"school":null,"age":null},{"start_time":1551882102730,"click_time":1551882104611,"finger_time":1551882103231,"fix_duration":1158.4558092796512,"trial":56,"RT":501,"MT":1380,"sideResp":1,"stimulus":[],"xmouse":[781,781,781,781,781,781,781,781,781,781,781,781,781,781,781,781,781,781,781,781,780,776,771,761,749,725,713,704,693,688,687,685,684,684,684,684,684,684,686,689,694,704,721,740,760,798,817,841,848,876,915,928,937,941,942,943,943,943,943,943,943,943,940,935,924,874,855,838,815,808,808,819,838,857,872,877,878,844,768,668,471,409,379,364,362,362,361,361,367,374,391,402,414,421,427],"ymouse":[524,524,524,524,524,524,524,524,524,524,524,524,524,524,524,524,524,524,524,524,522,518,513,504,494,464,445,429,412,404,399,391,387,386,385,385,385,384,384,384,384,389,396,403,408,419,422,422,420,405,375,359,342,326,316,309,309,309,309,309,309,309,308,307,304,296,291,284,269,259,244,241,237,235,234,234,234,224,202,175,106,78,64,58,57,57,56,56,55,53,48,45,43,41,39],"timestamp_mouse":[9,21,42,67,82,101,121,141,161,182,201,221,241,262,282,301,321,342,362,382,401,422,441,461,481,501,520,541,561,581,601,621,641,662,682,702,722,742,761,782,801,822,841,861,881,901,922,942,961,981,1002,1022,1041,1061,1082,1100,1122,1142,1161,1182,1202,1222,1241,1261,1281,1301,1322,1342,1361,1381,1401,1421,1441,1461,1482,1502,1521,1542,1561,1582,1601,1621,1641,1662,1682,1701,1721,1741,1762,1782,1801,1821,1841,1861,1881],"xSR":741.5,"ySR":469.95,"xT1":424.9,"yT1":0,"xT2":1058.1,"yT2":0,"toosoon":0,"cond_shown":"Incongruent","ratio_trial":100,"L_num":1,"L_den":2,"R_num":8,"R_den":20,"correct_side":1,"subjID":null,"gender":null,"school":null,"age":null},{"start_time":1551882106762,"click_time":1551882108232,"finger_time":1551882107951,"fix_duration":870.3093889598583,"trial":57,"RT":1189,"MT":281,"sideResp":1,"stimulus":[],"xmouse":[790,790,790,790,790,790,790,790,790,790,790,790,790,790,790,790,790,790,790,790,790,790,790,790,790,790,790,790,790,790,790,790,790,790,790,790,790,790,790,790,790,788,786,782,782,782,782,782,782,782,782,782,782,782,782,782,782,780,767,745,714,663,614,530,502,478,442,423,402,399,399,401,407,438],"ymouse":[512,512,512,512,512,512,512,512,512,512,512,512,512,512,512,512,512,512,512,512,512,512,512,512,512,512,512,512,512,512,512,512,512,512,512,512,512,512,512,512,512,512,512,512,512,512,512,512,512,512,512,512,512,512,512,512,512,510,480,447,410,368,326,252,215,184,140,121,98,94,92,89,87,75],"timestamp_mouse":[8,29,49,69,90,109,129,149,169,190,210,229,250,269,289,309,330,349,369,389,409,429,449,470,489,509,529,550,570,590,610,630,650,670,689,709,729,749,769,790,810,829,849,869,889,910,929,950,970,989,1009,1030,1050,1069,1089,1109,1130,1150,1169,1189,1209,1229,1249,1270,1289,1309,1329,1349,1369,1389,1409,1429,1449,1470],"xSR":741.5,"ySR":469.95,"xT1":424.9,"yT1":0,"xT2":1058.1,"yT2":0,"toosoon":0,"cond_shown":"Incongruent","ratio_trial":100,"L_num":13,"L_den":26,"R_num":12,"R_den":20,"correct_side":2,"subjID":null,"gender":null,"school":null,"age":null},{"start_time":1551882111931,"click_time":1551882113372,"finger_time":1551882112912,"fix_duration":1137.1701410778483,"trial":58,"RT":981,"MT":460,"sideResp":1,"stimulus":[],"xmouse":[751,751,751,751,751,751,751,751,751,751,751,751,751,751,751,751,751,751,751,751,751,751,751,751,751,751,751,751,751,751,751,751,751,751,751,751,751,751,751,751,751,751,751,751,751,751,751,751,746,734,688,657,632,614,597,558,548,543,539,539,539,539,539,539,539,539,539,539,539,539,539,539,489],"ymouse":[497,497,497,497,497,497,497,497,497,497,497,497,497,497,497,497,497,497,497,497,497,497,497,497,497,497,497,497,497,497,497,497,497,497,497,497,497,497,497,497,497,497,497,497,497,497,497,497,494,484,425,355,278,208,153,67,40,19,7,7,7,7,7,7,7,7,7,7,7,7,7,7,1],"timestamp_mouse":[8,21,40,61,80,101,121,141,160,181,201,220,240,260,280,301,321,341,361,380,402,421,440,460,480,501,521,540,560,580,601,621,641,660,681,700,721,741,760,781,800,820,841,860,880,900,921,940,960,981,1001,1020,1040,1060,1080,1101,1120,1140,1160,1181,1200,1220,1240,1262,1280,1300,1320,1341,1361,1380,1401,1421,1441],"xSR":741.5,"ySR":469.95,"xT1":424.9,"yT1":0,"xT2":1058.1,"yT2":0,"toosoon":0,"cond_shown":"Congruent","ratio_trial":100,"L_num":3,"L_den":6,"R_num":2,"R_den":5,"correct_side":1,"subjID":null,"gender":null,"school":null,"age":null},{"start_time":1551882115709,"click_time":1551882117092,"finger_time":1551882116831,"fix_duration":1195.8001285636412,"trial":59,"RT":1122,"MT":261,"sideResp":1,"stimulus":[],"xmouse":[805,805,805,805,805,805,805,805,805,805,805,805,805,805,805,805,805,805,805,805,805,805,805,805,805,805,805,805,805,805,805,805,805,805,805,805,805,805,805,805,805,805,805,805,805,805,805,805,805,805,805,805,805,805,801,761,652,601,542,475,399,373,366,360,356,356,371,385,401,427],"ymouse":[525,525,525,525,525,525,525,525,525,525,525,525,525,525,525,525,525,525,525,525,525,525,525,525,525,525,525,525,525,525,525,525,525,525,525,525,525,525,525,525,525,525,525,525,525,525,525,525,525,525,525,525,525,524,519,496,445,412,364,308,244,206,189,173,160,153,135,124,109,87],"timestamp_mouse":[10,22,42,62,82,103,122,142,163,182,202,222,243,262,283,302,322,343,362,382,402,422,443,463,483,503,523,542,563,582,603,623,643,662,683,703,723,742,763,783,802,822,842,863,883,903,922,942,963,983,1002,1024,1042,1062,1082,1102,1122,1142,1162,1182,1203,1222,1243,1262,1282,1303,1322,1342,1362,1383],"xSR":741.5,"ySR":469.95,"xT1":424.9,"yT1":0,"xT2":1058.1,"yT2":0,"toosoon":0,"cond_shown":"Congruent","ratio_trial":300,"L_num":3,"L_den":6,"R_num":4,"R_den":5,"correct_side":2,"subjID":null,"gender":null,"school":null,"age":null},{"start_time":1551882118635,"click_time":1551882119751,"finger_time":1551882119391,"fix_duration":581.6624927787047,"trial":60,"RT":756,"MT":360,"sideResp":2,"stimulus":[],"xmouse":[758,758,758,758,758,758,758,758,758,758,758,758,758,758,758,758,758,758,758,758,758,758,758,758,758,758,758,758,758,758,758,758,758,758,757,757,762,774,791,838,873,901,908,911,911,911,911,914,921,952,970,986,1007,1023,1039,1070],"ymouse":[502,502,502,502,502,502,502,502,502,502,502,502,502,502,502,502,502,502,502,502,502,502,502,502,502,502,502,502,502,502,502,502,502,502,496,487,476,462,442,385,341,282,261,251,245,244,242,239,231,210,192,173,147,129,111,80],"timestamp_mouse":[16,36,63,76,96,117,137,156,176,196,216,236,256,276,296,316,337,356,376,396,416,436,456,476,497,516,536,557,576,596,616,636,656,677,696,716,736,756,776,796,816,836,856,877,896,917,936,957,977,996,1016,1037,1056,1076,1096,1116],"xSR":741.5,"ySR":469.95,"xT1":424.9,"yT1":0,"xT2":1058.1,"yT2":0,"toosoon":0,"cond_shown":"Incongruent","ratio_trial":200,"L_num":7,"L_den":10,"R_num":12,"R_den":24,"correct_side":1,"subjID":null,"gender":null,"school":null,"age":null},{"start_time":1551882122130,"click_time":1551882123692,"finger_time":1551882123371,"fix_duration":1496.4296518747692,"trial":61,"RT":1241,"MT":321,"sideResp":2,"stimulus":[],"xmouse":[754,754,754,754,754,754,754,754,754,754,754,754,754,754,754,754,754,754,754,754,754,754,754,754,754,754,754,754,754,754,754,754,754,754,754,754,754,754,754,754,754,754,754,754,754,754,754,754,754,756,765,767,767,767,767,768,768,769,769,769,777,783,793,805,817,850,876,924,936,980,1016,1024,1031,1037,1043,1049,1052,1057,1067],"ymouse":[531,531,531,531,531,531,531,531,531,531,531,531,531,531,531,531,531,531,531,531,531,531,531,531,531,531,531,531,531,531,531,531,531,531,531,531,531,531,531,531,531,531,531,531,531,531,531,531,531,529,519,518,518,518,517,513,512,510,508,507,495,484,467,451,432,381,345,285,264,210,150,128,111,97,87,79,74,66,55],"timestamp_mouse":[8,22,41,65,81,101,121,142,161,181,201,221,242,261,281,301,322,341,361,382,401,421,441,462,481,502,521,541,561,582,601,621,641,662,682,701,721,741,762,781,801,821,841,862,881,901,921,942,962,981,1002,1021,1041,1061,1081,1101,1122,1141,1162,1181,1201,1221,1241,1261,1282,1302,1322,1341,1362,1382,1401,1422,1442,1463,1482,1501,1522,1542,1562],"xSR":741.5,"ySR":469.95,"xT1":424.9,"yT1":0,"xT2":1058.1,"yT2":0,"toosoon":0,"cond_shown":"Incongruent","ratio_trial":200,"L_num":9,"L_den":15,"R_num":8,"R_den":10,"correct_side":2,"subjID":null,"gender":null,"school":null,"age":null},{"start_time":1551882125593,"click_time":1551882126952,"finger_time":1551882126572,"fix_duration":999.3715119567951,"trial":62,"RT":979,"MT":380,"sideResp":1,"stimulus":[],"xmouse":[761,761,761,761,761,761,761,761,761,761,761,761,761,761,761,761,761,761,761,761,761,761,761,761,761,761,761,761,761,761,761,761,761,761,761,761,761,761,761,761,761,761,761,761,761,761,761,762,768,775,775,766,703,703,703,703,703,703,703,703,703,703,703,703,703,703,703,527,507],"ymouse":[524,524,524,524,524,524,524,524,524,524,524,524,524,524,524,524,524,524,524,524,524,524,524,524,524,524,524,524,524,524,524,524,524,524,524,524,524,524,524,524,524,524,524,524,524,524,524,522,484,404,325,226,22,22,22,22,22,22,22,22,22,22,22,22,22,22,22,2,13],"timestamp_mouse":[1,19,45,58,78,99,119,138,158,178,198,218,238,259,279,298,318,338,358,380,399,418,438,458,478,500,518,539,560,578,599,618,639,659,679,698,719,739,759,779,798,819,838,859,879,899,919,938,959,979,998,1018,1038,1059,1078,1098,1118,1139,1159,1178,1197,1220,1239,1258,1278,1298,1319,1338,1359],"xSR":741.5,"ySR":469.95,"xT1":424.9,"yT1":0,"xT2":1058.1,"yT2":0,"toosoon":0,"cond_shown":"Incongruent","ratio_trial":300,"L_num":8,"L_den":10,"R_num":14,"R_den":28,"correct_side":1,"subjID":null,"gender":null,"school":null,"age":null},{"start_time":1551882129788,"click_time":1551882131791,"finger_time":1551882131211,"fix_duration":276.858211900246,"trial":63,"RT":1423,"MT":580,"sideResp":1,"stimulus":[],"xmouse":[810,810,810,810,810,810,810,810,810,810,810,810,810,810,810,810,810,810,810,810,810,810,810,810,810,810,810,810,810,810,810,810,810,810,810,810,810,810,810,810,810,810,810,810,810,810,810,810,810,810,810,810,810,810,810,810,810,810,810,810,810,810,810,810,810,810,810,810,810,800,781,771,766,763,757,751,738,721,717,715,713,708,695,681,668,648,639,629,612,604,599,599,599,599,599,599,559,553,544,533,524],"ymouse":[517,517,517,517,517,517,517,517,517,517,517,517,517,517,517,517,517,517,517,517,517,517,517,517,517,517,517,517,517,517,517,517,517,517,517,517,517,517,517,517,517,517,517,517,517,517,517,517,517,517,517,517,517,517,517,517,517,517,517,517,517,517,517,517,517,517,517,517,516,499,479,456,417,397,378,361,338,302,287,272,258,242,214,191,167,124,91,55,12,3,1,1,1,1,1,1,0,2,3,4,5],"timestamp_mouse":[9,23,44,64,84,103,124,143,163,184,203,224,244,263,283,304,323,343,363,384,404,423,443,464,483,504,523,544,563,583,604,623,643,663,684,703,724,744,763,783,804,823,843,864,884,904,924,944,963,984,1003,1024,1044,1063,1083,1104,1124,1144,1163,1183,1203,1224,1244,1264,1284,1303,1323,1343,1363,1384,1404,1423,1444,1464,1484,1503,1523,1544,1563,1583,1604,1624,1643,1663,1684,1704,1723,1743,1763,1783,1803,1823,1843,1863,1883,1903,1923,1943,1964,1983,2003],"xSR":741.5,"ySR":469.95,"xT1":424.9,"yT1":0,"xT2":1058.1,"yT2":0,"toosoon":0,"cond_shown":"Incongruent","ratio_trial":100,"L_num":6,"L_den":12,"R_num":3,"R_den":5,"correct_side":2,"subjID":null,"gender":null,"school":null,"age":null},{"start_time":1551882134323,"click_time":1551882135731,"finger_time":1551882135431,"fix_duration":1209.3787555390888,"trial":64,"RT":1108,"MT":300,"sideResp":1,"stimulus":[],"xmouse":[821,821,821,821,821,821,821,821,821,821,821,821,821,821,821,821,821,821,821,821,821,821,821,821,821,821,821,821,821,821,821,821,821,821,821,821,821,821,821,821,821,821,821,821,821,821,821,821,821,821,821,821,818,812,800,792,790,786,771,742,704,690,675,659,638,581,555,535,528,524,518],"ymouse":[521,521,521,521,521,521,521,521,521,521,521,521,521,521,521,521,521,521,521,521,521,521,521,521,521,521,521,521,521,521,521,521,521,521,521,521,521,521,521,521,521,521,521,521,521,521,521,521,521,521,521,521,521,511,488,460,445,429,406,372,342,331,319,305,284,220,184,147,126,108,75],"timestamp_mouse":[10,42,48,68,88,108,128,149,169,189,208,228,248,269,288,308,328,348,368,388,409,428,448,469,488,508,528,548,569,589,608,629,649,668,688,708,728,749,768,788,808,828,849,868,889,909,928,949,968,988,1009,1028,1048,1069,1089,1108,1127,1148,1168,1188,1208,1229,1248,1268,1289,1307,1328,1349,1368,1389,1408],"xSR":741.5,"ySR":469.95,"xT1":424.9,"yT1":0,"xT2":1058.1,"yT2":0,"toosoon":0,"cond_shown":"Congruent","ratio_trial":300,"L_num":18,"L_den":20,"R_num":9,"R_den":15,"correct_side":1,"subjID":null,"gender":null,"school":null,"age":null},{"start_time":1551882137040,"click_time":1551882138432,"finger_time":1551882137931,"fix_duration":328.7273970691428,"trial":65,"RT":891,"MT":501,"sideResp":1,"stimulus":[],"xmouse":[815,815,815,815,815,815,815,815,815,815,815,815,815,815,815,815,815,815,815,815,815,815,815,815,815,815,815,815,815,815,815,815,815,815,815,815,815,815,815,815,815,815,814,802,758,740,724,709,696,669,656,639,627,617,610,608,606,601,595,570,549,531,515,512,512,512,512,512,509,500],"ymouse":[500,500,500,500,500,500,500,500,500,500,500,500,500,500,500,500,500,500,500,500,500,500,500,500,500,500,500,500,500,500,500,500,500,500,500,500,500,500,500,500,500,500,500,487,458,444,430,409,387,314,280,244,219,196,182,180,178,176,175,170,161,153,147,145,142,139,134,128,120,95],"timestamp_mouse":[11,38,51,72,91,111,131,151,171,191,211,231,251,272,292,311,331,351,371,391,412,431,451,472,491,511,531,552,572,591,611,631,652,671,691,712,732,751,771,792,811,831,851,871,891,910,931,951,971,992,1011,1031,1051,1072,1091,1112,1132,1151,1171,1191,1212,1231,1251,1272,1291,1311,1332,1351,1372,1392],"xSR":741.5,"ySR":469.95,"xT1":424.9,"yT1":0,"xT2":1058.1,"yT2":0,"toosoon":0,"cond_shown":"Congruent","ratio_trial":100,"L_num":8,"L_den":16,"R_num":2,"R_den":5,"correct_side":1,"subjID":null,"gender":null,"school":null,"age":null},{"start_time":1551882140025,"click_time":1551882141891,"finger_time":1551882141431,"fix_duration":432.574