[{"start_time":1551883032607,"click_time":1551883040793,"finger_time":1551883033434,"fix_duration":250,"trial":0,"RT":827,"MT":7359,"sideResp":1,"stimulus":"img/900/equaldotanddens/R/11_Ratio_900_L_18_R_20.png","xmouse":[808,808,808,808,808,808,808,808,808,808,808,808,808,808,808,808,808,808,808,808,808,808,808,808,808,808,808,808,808,808,808,808,808,808,808,808,808,808,807,796,766,731,705,680,669,661,661,660,660,665,670,676,676,676,678,683,694,707,722,761,781,801,820,844,857,857,857,857,857,857,857,857,857,857,857,857,857,857,855,846,840,834,825,821,821,821,821,821,821,821,817,815,810,809,807,807,807,807,807,807,807,807,807,807,807,807,807,807,807,807,807,807,807,807,807,807,807,807,807,807,807,807,807,807,807,807,807,807,807,807,807,807,807,807,807,807,807,807,807,807,807,807,807,807,807,807,807,807,807,807,807,807,807,807,807,807,807,807,807,807,807,807,807,807,807,807,807,807,807,807,807,807,807,807,807,807,807,807,807,807,807,807,807,807,807,807,807,807,807,807,807,807,807,807,807,807,807,807,807,807,807,807,807,807,807,807,807,807,807,807,807,807,807,807,807,807,807,807,807,807,807,807,809,812,846,857,865,871,872,872,872,871,868,863,846,827,792,739,671,540,509,486,471,461,459,459,459,459,459,459,459,459,459,458,454,452,450,447,446,445,445,445,445,445,445,445,445,445,444,444,442,441,441,439,439,439,439,441,445,464,480,500,518,543,558,561,562,564,567,574,574,574,574,575,575,573,573,571,568,553,539,524,502,494,487,485,484,484,484,483,482,481,480,479,478,478,478,478,478,478,478,477,477,477,477,477,477,477,480,487,492,497,504,510,515,520,526,532,537,550,558,563,566,572,580,583,585,586,586,587,587,588,589,591,594,594,594,594,594,594,595,598,602,611,614,614,614,614,614,614,614,614,614,614,614,614,614,614,614,614,614,614,614,614,614,614,614,614,614,614,614,614,609,602,595,576,564,552,539,511,496,480,466,446,434,431,427,427,427,433],"ymouse":[514,514,514,514,514,514,514,514,514,514,514,514,514,514,514,514,514,514,514,514,514,514,514,514,514,514,514,514,514,514,514,514,514,514,514,514,514,514,514,508,490,466,446,422,408,397,397,396,396,400,403,405,405,405,407,410,415,424,433,455,464,472,483,495,500,500,500,500,500,500,500,500,500,500,500,500,500,500,500,502,502,502,502,502,502,502,502,502,502,502,502,502,502,502,502,502,502,502,502,502,502,502,502,502,502,502,502,502,502,502,502,502,502,502,502,502,502,502,502,502,502,502,502,502,502,502,502,502,502,502,502,502,502,502,502,502,502,502,502,502,502,502,502,502,502,502,502,502,502,502,502,502,502,502,502,502,502,502,502,502,502,502,502,502,502,502,502,502,502,502,502,502,502,502,502,502,502,502,502,502,502,502,502,502,502,502,502,502,502,502,502,502,502,502,502,502,502,502,502,502,502,502,502,502,502,502,502,502,502,502,502,502,502,502,502,502,502,502,502,502,502,502,502,502,498,494,491,486,485,477,473,471,468,464,457,448,433,410,382,338,328,321,312,304,302,302,301,301,301,301,301,299,298,289,280,276,273,270,268,267,267,267,267,267,267,267,267,267,266,266,268,270,271,274,277,279,282,286,291,302,308,316,322,327,330,332,333,334,336,339,339,339,339,339,336,330,329,326,323,307,298,290,274,266,253,246,240,234,229,216,211,204,198,192,188,188,188,188,188,188,187,185,185,185,185,185,186,187,191,199,203,206,213,220,234,244,254,265,274,293,302,306,310,314,321,323,323,323,323,323,323,323,323,323,322,322,322,322,322,322,322,322,324,324,324,324,324,324,324,324,324,324,324,324,324,324,324,324,324,324,324,324,324,324,324,324,324,324,324,324,322,319,310,300,289,262,246,231,218,201,194,189,182,167,153,145,135,127,121,99],"timestamp_mouse":[9,36,46,66,85,106,126,146,166,185,206,225,247,265,287,305,325,345,365,385,406,426,446,465,486,505,526,546,565,586,606,627,645,666,687,706,726,746,765,785,805,826,846,867,886,905,925,947,965,986,1005,1025,1046,1065,1086,1105,1126,1146,1166,1186,1205,1225,1245,1265,1287,1305,1325,1345,1365,1386,1407,1426,1446,1466,1486,1506,1525,1545,1566,1585,1605,1626,1645,1665,1686,1705,1727,1745,1765,1786,1805,1825,1845,1865,1886,1905,1925,1945,1965,1985,2006,2026,2046,2067,2085,2105,2125,2145,2166,2185,2207,2226,2247,2265,2285,2306,2327,2345,2366,2386,2405,2425,2445,2465,2485,2505,2526,2547,2565,2585,2606,2625,2645,2665,2687,2706,2725,2747,2766,2786,2805,2826,2846,2867,2886,2906,2925,2946,2965,2986,3006,3027,3045,3065,3086,3106,3126,3145,3167,3186,3207,3226,3246,3265,3287,3305,3325,3345,3366,3387,3406,3425,3446,3466,3485,3506,3526,3545,3565,3587,3606,3626,3645,3667,3686,3705,3727,3747,3766,3786,3807,3826,3845,3866,3885,3907,3926,3946,3966,3987,4005,4027,4047,4067,4085,4105,4127,4145,4166,4186,4207,4225,4245,4267,4285,4306,4325,4345,4366,4386,4406,4425,4446,4465,4485,4505,4526,4545,4565,4586,4605,4625,4645,4665,4685,4707,4725,4746,4765,4786,4806,4826,4845,4865,4885,4905,4925,4946,4965,4986,5007,5025,5045,5065,5085,5106,5126,5146,5166,5187,5206,5225,5245,5267,5286,5306,5325,5346,5367,5386,5405,5426,5446,5465,5486,5505,5525,5545,5565,5586,5605,5625,5647,5665,5686,5705,5725,5747,5766,5786,5805,5827,5846,5865,5885,5905,5926,5946,5966,5985,6005,6025,6045,6066,6086,6105,6125,6146,6165,6185,6205,6226,6245,6265,6285,6306,6326,6345,6365,6385,6405,6426,6446,6466,6485,6506,6526,6545,6565,6586,6605,6626,6646,6666,6686,6705,6726,6747,6766,6786,6807,6826,6845,6866,6886,6905,6925,6946,6966,6986,7007,7027,7045,7065,7085,7105,7126,7145,7167,7186,7205,7225,7246,7265,7286,7307,7327,7345,7365,7386,7406,7426,7445,7466,7485,7506,7527,7547,7565,7586,7605,7627,7645,7665,7685,7705,7726,7745,7765,7787,7805,7825,7845,7865,7885,7905,7926,7945,7966,7986,8005,8025,8046,8065,8085,8105,8126,8145,8165,8186],"xSR":741.5,"ySR":469.95,"xT1":424.9,"yT1":0,"xT2":1058.1,"yT2":0,"toosoon":0,"cond_shown":"equaldotanddens","ratio_trial":900,"smaller_num":"18","larger_num":"20","correct_side":2,"subjID":"ELIZABETHCAMACHOFONSECA39","gender":"1","age":"10","school":"6","test":{"fix_dur":[250,1500],"timestim":300,"targets_dim":[100,100],"targets_relative_coord":[0.3,0.7],"size_stim":[880,420],"start_dim":[100,100],"size_start":[300,300],"size_fix":60,"samplingrate":20,"img_types":["equaldotsize","equaldotanddens","randomdotsizeEA"],"ratios":[250,500,750,900],"rep_conds":9,"nTrials":120,"trials_to_rest":500,"Trials_order":[34,82,21,28,46,65,101,24,98,41,119,76,102,37,84,109,68,48,23,3,20,16,61,63,14,0,71,10,118,111,78,59,43,22,47,56,93,62,17,12,31,70,4,79,95,67,103,89,27,86,40,36,112,5,110,66,88,83,50,85,19,114,29,94,51,115,26,58,44,49,52,72,2,75,77,35,74,39,32,55,108,7,60,1,100,73,13,87,11,116,9,64,53,90,42,97,117,57,30,107,38,91,99,15,25,81,18,8,80,45,96,106,33,6,105,92,54,104,113,69],"cond_shown":["equaldotanddens","equaldotanddens","equaldotsize","equaldotanddens","equaldotanddens","randomdotsizeEA","randomdotsizeEA","equaldotsize","randomdotsizeEA","randomdotsizeEA","randomdotsizeEA","equaldotanddens","equaldotsize","equaldotanddens","equaldotsize","equaldotanddens","randomdotsizeEA","equaldotsize","randomdotsizeEA","equaldotsize","randomdotsizeEA","equaldotanddens","equaldotanddens","equaldotsize","randomdotsizeEA","equaldotsize","randomdotsizeEA","equaldotanddens","equaldotanddens","equaldotsize","equaldotsize","randomdotsizeEA","equaldotanddens","equaldotanddens","randomdotsizeEA","randomdotsizeEA","equaldotsize","randomdotsizeEA","randomdotsizeEA","equaldotsize","equaldotanddens","equaldotanddens","equaldotanddens","equaldotanddens","randomdotsizeEA","equaldotanddens","equaldotanddens","randomdotsizeEA","equaldotsize","randomdotsizeEA","equaldotanddens","equaldotsize","equaldotanddens","randomdotsizeEA","randomdotsizeEA","equaldotsize","equaldotanddens","randomdotsizeEA","randomdotsizeEA","equaldotanddens","equaldotanddens","equaldotsize","randomdotsizeEA","equaldotanddens","equaldotsize","equaldotanddens","randomdotsizeEA","equaldotanddens","randomdotsizeEA","equaldotanddens","equaldotanddens","equaldotsize","randomdotsizeEA","equaldotsize","randomdotsizeEA","randomdotsizeEA","randomdotsizeEA","equaldotsize","randomdotsizeEA","equaldotanddens","equaldotsize","equaldotanddens","equaldotsize","equaldotanddens","equaldotanddens","equaldotanddens","equaldotanddens","equaldotsize","randomdotsizeEA","randomdotsizeEA","equaldotsize","equaldotanddens","randomdotsizeEA","equaldotsize","equaldotsize","equaldotanddens","equaldotsize","equaldotsize","equaldotsize","randomdotsizeEA","randomdotsizeEA","equaldotanddens","equaldotsize","equaldotsize","equaldotanddens","equaldotsize","equaldotsize","randomdotsizeEA","randomdotsizeEA","equaldotsize","equaldotsize","equaldotanddens","equaldotsize","equaldotsize","equaldotsize","randomdotsizeEA","equaldotsize","randomdotsizeEA","randomdotsizeEA","equaldotsize"],"ratio_trial":[900,900,900,500,900,500,500,250,250,500,900,500,750,250,250,250,750,250,900,500,750,500,250,500,250,250,900,900,900,500,750,900,750,900,900,750,900,250,500,250,750,900,500,750,900,750,750,500,500,250,500,250,500,500,250,750,500,900,250,250,750,750,500,900,500,750,250,900,750,250,500,250,250,500,500,900,250,500,750,750,250,750,250,250,500,250,250,500,900,750,900,500,500,750,750,250,900,900,750,900,250,750,500,500,250,900,750,750,750,900,250,900,900,750,900,750,750,750,500,900],"smaller_num":["18","9","9","6","9","9","5","3","3","1","18","1","15","2","5","6","9","3","18","10","3","3","2","1","2","3","18","18","9","2","18","9","15","9","18","6","18","3","6","6","12","9","3","12","18","15","6","2","2","4","6","3","6","4","4","15","9","9","3","4","18","6","5","9","5","3","6","9","15","2","1","2","2","4","9","18","6","2","15","3","2","6","5","4","9","6","4","2","9","3","18","2","9","9","6","6","18","9","15","18","6","3","4","1","4","9","15","6","6","18","5","18","18","3","18","3","9","6","5","18"],"larger_num":["20","10","10","12","10","18","10","12","12","2","20","2","20","8","20","24","12","12","20","20","4","6","8","2","8","12","20","20","10","4","24","10","20","10","20","8","20","12","12","24","16","10","6","16","20","20","8","4","4","16","12","12","12","8","16","20","18","10","12","16","24","8","10","10","10","4","24","10","20","8","2","8","8","8","18","20","24","4","20","4","8","8","20","16","18","24","16","4","10","4","20","4","18","12","8","24","20","10","20","20","24","4","8","2","16","10","20","8","8","20","20","20","20","4","20","4","12","8","10","20"],"correct_side":[2,2,2,1,1,2,1,1,1,2,1,2,1,1,2,2,2,2,2,2,2,2,2,2,1,2,1,2,1,1,1,2,2,1,1,1,1,1,1,1,2,2,2,2,2,1,1,2,1,2,1,1,1,1,2,2,2,2,2,2,1,2,2,2,1,1,1,2,1,1,2,2,2,1,1,2,2,2,1,2,1,1,2,2,2,1,1,2,2,2,2,1,2,2,1,1,1,2,2,1,1,2,1,2,1,2,2,1,1,1,2,2,1,1,2,2,2,1,2,1],"img_shown":["img/900/equaldotanddens/R/11_Ratio_900_L_18_R_20.png","img/900/equaldotanddens/R/5_Ratio_900_L_9_R_10.png","img/900/equaldotsize/R/15_Ratio_900_L_9_R_10.png","img/500/equaldotanddens/L/11_Ratio_500_L_12_R_6.png","img/900/equaldotanddens/L/1_Ratio_900_L_10_R_9.png","img/500/randomdotsizeEA/R/1_Ratio_500_L_9_R_18.png","img/500/randomdotsizeEA/L/7_Ratio_500_L_10_R_5.png","img/250/equaldotsize/L/15_Ratio_250_L_12_R_3.png","img/250/randomdotsizeEA/L/14_Ratio_250_L_12_R_3.png","img/500/randomdotsizeEA/R/12_Ratio_500_L_1_R_2.png","img/900/randomdotsizeEA/L/4_Ratio_900_L_20_R_18.png","img/500/equaldotanddens/R/15_Ratio_500_L_1_R_2.png","img/750/equaldotsize/L/1_Ratio_750_L_20_R_15.png","img/250/equaldotanddens/L/7_Ratio_250_L_8_R_2.png","img/250/equaldotsize/R/12_Ratio_250_L_5_R_20.png","img/250/equaldotanddens/R/6_Ratio_250_L_6_R_24.png","img/750/randomdotsizeEA/R/15_Ratio_750_L_9_R_12.png","img/250/equaldotsize/R/11_Ratio_250_L_3_R_12.png","img/900/randomdotsizeEA/R/13_Ratio_900_L_18_R_20.png","img/500/equaldotsize/R/3_Ratio_500_L_10_R_20.png","img/750/randomdotsizeEA/R/12_Ratio_750_L_3_R_4.png","img/500/equaldotanddens/R/2_Ratio_500_L_3_R_6.png","img/250/equaldotanddens/R/13_Ratio_250_L_2_R_8.png","img/500/equaldotsize/R/15_Ratio_500_L_1_R_2.png","img/250/randomdotsizeEA/L/3_Ratio_250_L_8_R_2.png","img/250/equaldotsize/R/11_Ratio_250_L_3_R_12.png","img/900/randomdotsizeEA/L/2_Ratio_900_L_20_R_18.png","img/900/equaldotanddens/R/13_Ratio_900_L_18_R_20.png","img/900/equaldotanddens/L/1_Ratio_900_L_10_R_9.png","img/500/equaldotsize/L/10_Ratio_500_L_4_R_2.png","img/750/equaldotsize/L/6_Ratio_750_L_24_R_18.png","img/900/randomdotsizeEA/R/7_Ratio_900_L_9_R_10.png","img/750/equaldotanddens/R/4_Ratio_750_L_15_R_20.png","img/900/equaldotanddens/L/1_Ratio_900_L_10_R_9.png","img/900/randomdotsizeEA/L/4_Ratio_900_L_20_R_18.png","img/750/randomdotsizeEA/L/13_Ratio_750_L_8_R_6.png","img/900/equaldotsize/L/8_Ratio_900_L_20_R_18.png","img/250/randomdotsizeEA/L/14_Ratio_250_L_12_R_3.png","img/500/randomdotsizeEA/L/11_Ratio_500_L_12_R_6.png","img/250/equaldotsize/L/5_Ratio_250_L_24_R_6.png","img/750/equaldotanddens/R/11_Ratio_750_L_12_R_16.png","img/900/equaldotanddens/R/6_Ratio_900_L_9_R_10.png","img/500/equaldotanddens/R/2_Ratio_500_L_3_R_6.png","img/750/equaldotanddens/R/11_Ratio_750_L_12_R_16.png","img/900/randomdotsizeEA/R/11_Ratio_900_L_18_R_20.png","img/750/equaldotanddens/L/1_Ratio_750_L_20_R_15.png","img/750/equaldotanddens/L/14_Ratio_750_L_8_R_6.png","img/500/randomdotsizeEA/R/9_Ratio_500_L_2_R_4.png","img/500/equaldotsize/L/5_Ratio_500_L_4_R_2.png","img/250/randomdotsizeEA/R/10_Ratio_250_L_4_R_16.png","img/500/equaldotanddens/L/13_Ratio_500_L_12_R_6.png","img/250/equaldotsize/L/14_Ratio_250_L_12_R_3.png","img/500/equaldotanddens/L/13_Ratio_500_L_12_R_6.png","img/500/randomdotsizeEA/L/8_Ratio_500_L_8_R_4.png","img/250/randomdotsizeEA/R/10_Ratio_250_L_4_R_16.png","img/750/equaldotsize/R/3_Ratio_750_L_15_R_20.png","img/500/equaldotanddens/R/6_Ratio_500_L_9_R_18.png","img/900/randomdotsizeEA/R/5_Ratio_900_L_9_R_10.png","img/250/randomdotsizeEA/R/9_Ratio_250_L_3_R_12.png","img/250/equaldotanddens/R/10_Ratio_250_L_4_R_16.png","img/750/equaldotanddens/L/6_Ratio_750_L_24_R_18.png","img/750/equaldotsize/R/2_Ratio_750_L_6_R_8.png","img/500/randomdotsizeEA/R/14_Ratio_500_L_5_R_10.png","img/900/equaldotanddens/R/6_Ratio_900_L_9_R_10.png","img/500/equaldotsize/L/7_Ratio_500_L_10_R_5.png","img/750/equaldotanddens/L/9_Ratio_750_L_4_R_3.png","img/250/randomdotsizeEA/L/5_Ratio_250_L_24_R_6.png","img/900/equaldotanddens/R/5_Ratio_900_L_9_R_10.png","img/750/randomdotsizeEA/L/1_Ratio_750_L_20_R_15.png","img/250/equaldotanddens/L/7_Ratio_250_L_8_R_2.png","img/500/equaldotanddens/R/15_Ratio_500_L_1_R_2.png","img/250/equaldotsize/R/13_Ratio_250_L_2_R_8.png","img/250/randomdotsizeEA/R/13_Ratio_250_L_2_R_8.png","img/500/equaldotsize/L/8_Ratio_500_L_8_R_4.png","img/500/randomdotsizeEA/L/4_Ratio_500_L_18_R_9.png","img/900/randomdotsizeEA/R/13_Ratio_900_L_18_R_20.png","img/250/randomdotsizeEA/R/6_Ratio_250_L_6_R_24.png","img/500/equaldotsize/R/9_Ratio_500_L_2_R_4.png","img/750/randomdotsizeEA/L/1_Ratio_750_L_20_R_15.png","img/750/equaldotanddens/R/12_Ratio_750_L_3_R_4.png","img/250/equaldotsize/L/1_Ratio_250_L_8_R_2.png","img/750/equaldotanddens/L/13_Ratio_750_L_8_R_6.png","img/250/equaldotsize/R/12_Ratio_250_L_5_R_20.png","img/250/equaldotanddens/R/10_Ratio_250_L_4_R_16.png","img/500/equaldotanddens/R/1_Ratio_500_L_9_R_18.png","img/250/equaldotanddens/L/5_Ratio_250_L_24_R_6.png","img/250/equaldotanddens/L/2_Ratio_250_L_16_R_4.png","img/500/equaldotsize/R/9_Ratio_500_L_2_R_4.png","img/900/randomdotsizeEA/R/5_Ratio_900_L_9_R_10.png","img/750/randomdotsizeEA/R/12_Ratio_750_L_3_R_4.png","img/900/equaldotsize/R/9_Ratio_900_L_18_R_20.png","img/500/equaldotanddens/L/10_Ratio_500_L_4_R_2.png","img/500/randomdotsizeEA/R/6_Ratio_500_L_9_R_18.png","img/750/equaldotsize/R/15_Ratio_750_L_9_R_12.png","img/750/equaldotsize/L/14_Ratio_750_L_8_R_6.png","img/250/equaldotanddens/L/5_Ratio_250_L_24_R_6.png","img/900/equaldotsize/L/8_Ratio_900_L_20_R_18.png","img/900/equaldotsize/R/5_Ratio_900_L_9_R_10.png","img/750/equaldotsize/R/3_Ratio_750_L_15_R_20.png","img/900/randomdotsizeEA/L/8_Ratio_900_L_20_R_18.png","img/250/randomdotsizeEA/L/5_Ratio_250_L_24_R_6.png","img/750/equaldotanddens/R/12_Ratio_750_L_3_R_4.png","img/500/equaldotsize/L/8_Ratio_500_L_8_R_4.png","img/500/equaldotsize/R/15_Ratio_500_L_1_R_2.png","img/250/equaldotanddens/L/2_Ratio_250_L_16_R_4.png","img/900/equaldotsize/R/3_Ratio_900_L_9_R_10.png","img/750/equaldotsize/R/3_Ratio_750_L_15_R_20.png","img/750/randomdotsizeEA/L/14_Ratio_750_L_8_R_6.png","img/750/randomdotsizeEA/L/14_Ratio_750_L_8_R_6.png","img/900/equaldotsize/L/2_Ratio_900_L_20_R_18.png","img/250/equaldotsize/R/12_Ratio_250_L_5_R_20.png","img/900/equaldotanddens/R/11_Ratio_900_L_18_R_20.png","img/900/equaldotsize/L/2_Ratio_900_L_20_R_18.png","img/750/equaldotsize/L/10_Ratio_750_L_4_R_3.png","img/900/equaldotsize/R/12_Ratio_900_L_18_R_20.png","img/750/randomdotsizeEA/R/12_Ratio_750_L_3_R_4.png","img/750/equaldotsize/R/15_Ratio_750_L_9_R_12.png","img/750/randomdotsizeEA/L/14_Ratio_750_L_8_R_6.png","img/500/randomdotsizeEA/R/14_Ratio_500_L_5_R_10.png","img/900/equaldotsize/L/2_Ratio_900_L_20_R_18.png"],"Rat0":[["12_Ratio_0_L_9_R_0.png","13_Ratio_0_L_6_R_0.png","5_Ratio_0_L_2_R_0.png","6_Ratio_0_L_4_R_0.png","8_Ratio_0_L_6_R_0.png"],["1_Ratio_0_L_0_R_17.png","10_Ratio_0_L_0_R_22.png","11_Ratio_0_L_0_R_1.png","14_Ratio_0_L_0_R_24.png","15_Ratio_0_L_0_R_4.png","2_Ratio_0_L_0_R_5.png","3_Ratio_0_L_0_R_17.png","4_Ratio_0_L_0_R_7.png","7_Ratio_0_L_0_R_19.png","9_Ratio_0_L_0_R_15.png"]],"Rat250":[["1_Ratio_250_L_8_R_2.png","14_Ratio_250_L_12_R_3.png","15_Ratio_250_L_12_R_3.png","2_Ratio_250_L_16_R_4.png","3_Ratio_250_L_8_R_2.png","5_Ratio_250_L_24_R_6.png","7_Ratio_250_L_8_R_2.png"],["10_Ratio_250_L_4_R_16.png","11_Ratio_250_L_3_R_12.png","12_Ratio_250_L_5_R_20.png","13_Ratio_250_L_2_R_8.png","4_Ratio_250_L_3_R_12.png","6_Ratio_250_L_6_R_24.png","8_Ratio_250_L_1_R_4.png","9_Ratio_250_L_3_R_12.png"]],"Rat500":[["10_Ratio_500_L_4_R_2.png","11_Ratio_500_L_12_R_6.png","13_Ratio_500_L_12_R_6.png","4_Ratio_500_L_18_R_9.png","5_Ratio_500_L_4_R_2.png","7_Ratio_500_L_10_R_5.png","8_Ratio_500_L_8_R_4.png"],["1_Ratio_500_L_9_R_18.png","12_Ratio_500_L_1_R_2.png","14_Ratio_500_L_5_R_10.png","15_Ratio_500_L_1_R_2.png","2_Ratio_500_L_3_R_6.png","3_Ratio_500_L_10_R_20.png","6_Ratio_500_L_9_R_18.png","9_Ratio_500_L_2_R_4.png"]],"Rat750":[["1_Ratio_750_L_20_R_15.png","10_Ratio_750_L_4_R_3.png","13_Ratio_750_L_8_R_6.png","14_Ratio_750_L_8_R_6.png","6_Ratio_750_L_24_R_18.png","8_Ratio_750_L_4_R_3.png","9_Ratio_750_L_4_R_3.png"],["11_Ratio_750_L_12_R_16.png","12_Ratio_750_L_3_R_4.png","15_Ratio_750_L_9_R_12.png","2_Ratio_750_L_6_R_8.png","3_Ratio_750_L_15_R_20.png","4_Ratio_750_L_15_R_20.png","5_Ratio_750_L_15_R_20.png","7_Ratio_750_L_3_R_4.png"]],"Rat900":[["1_Ratio_900_L_10_R_9.png","10_Ratio_900_L_20_R_18.png","2_Ratio_900_L_20_R_18.png","4_Ratio_900_L_20_R_18.png","8_Ratio_900_L_20_R_18.png"],["11_Ratio_900_L_18_R_20.png","12_Ratio_900_L_18_R_20.png","13_Ratio_900_L_18_R_20.png","14_Ratio_900_L_18_R_20.png","15_Ratio_900_L_9_R_10.png","3_Ratio_900_L_9_R_10.png","5_Ratio_900_L_9_R_10.png","6_Ratio_900_L_9_R_10.png","7_Ratio_900_L_9_R_10.png","9_Ratio_900_L_18_R_20.png"]],"Rat1000":[["10_Ratio_1000_L_16_R_16.png","11_Ratio_1000_L_6_R_6.png","12_Ratio_1000_L_14_R_14.png","13_Ratio_1000_L_20_R_20.png","15_Ratio_1000_L_15_R_15.png","2_Ratio_1000_L_17_R_17.png","4_Ratio_1000_L_9_R_9.png","5_Ratio_1000_L_6_R_6.png","6_Ratio_1000_L_19_R_19.png","8_Ratio_1000_L_14_R_14.png","9_Ratio_1000_L_25_R_25.png"],["1_Ratio_1000_L_1_R_1.png","14_Ratio_1000_L_17_R_17.png","3_Ratio_1000_L_17_R_17.png","7_Ratio_1000_L_6_R_6.png"]]}},{"start_time":1551883042825,"click_time":1551883046012,"finger_time":1551883045892,"fix_duration":250,"trial":1,"RT":3067,"MT":120,"sideResp":1,"stimulus":"img/900/equaldotanddens/R/5_Ratio_900_L_9_R_10.png","xmouse":[781,781,781,781,781,780,778,775,775,775,775,775,775,775,775,775,775,775,775,775,775,775,775,775,775,775,775,775,775,775,775,775,775,775,775,775,775,775,775,775,775,775,775,775,775,775,775,775,775,775,775,775,775,775,775,775,775,775,775,775,775,775,775,775,775,775,775,775,775,775,775,775,775,775,775,775,775,775,775,775,775,775,775,775,775,775,775,775,775,775,775,775,775,775,775,775,775,775,775,775,775,775,775,775,775,775,775,775,775,775,775,775,775,775,775,775,775,775,775,775,775,775,775,775,775,775,775,775,775,775,775,775,775,775,775,775,775,775,775,775,775,775,775,775,775,775,775,775,775,775,775,769,746,694,587,544,516,496,475,466],"ymouse":[506,506,506,506,506,507,507,507,507,507,507,507,507,507,507,507,507,507,507,507,507,507,507,507,507,507,507,507,507,507,507,507,507,507,507,507,507,507,507,507,507,507,507,507,507,507,507,507,507,507,507,507,507,507,507,507,507,507,507,507,507,507,507,507,507,507,507,507,507,507,507,507,507,507,507,507,507,507,507,507,507,507,507,507,507,507,507,507,507,507,507,507,507,507,507,507,507,507,507,507,507,507,507,507,507,507,507,507,507,507,507,507,507,507,507,507,507,507,507,507,507,507,507,507,507,507,507,507,507,507,507,507,507,507,507,507,507,507,507,507,507,507,507,507,507,507,507,507,507,507,507,501,476,414,302,268,247,229,116,75],"timestamp_mouse":[8,37,49,68,87,107,128,147,167,188,208,228,248,268,288,307,327,347,368,388,408,428,448,467,487,508,528,548,569,588,609,627,647,667,687,708,729,748,767,788,808,829,848,867,887,907,927,948,967,987,1007,1028,1048,1067,1089,1108,1127,1148,1167,1188,1207,1227,1247,1268,1287,1307,1327,1348,1367,1388,1409,1427,1448,1469,1487,1507,1528,1548,1568,1587,1607,1627,1647,1668,1688,1708,1729,1749,1768,1787,1807,1829,1847,1868,1889,1907,1927,1948,1968,1988,2009,2029,2048,2068,2087,2108,2127,2147,2168,2188,2207,2229,2248,2269,2287,2308,2329,2348,2367,2388,2409,2427,2449,2467,2488,2507,2527,2548,2568,2587,2609,2628,2647,2667,2687,2708,2729,2748,2768,2788,2808,2829,2848,2867,2889,2907,2928,2947,2969,2988,3008,3028,3049,3067,3087,3107,3128,3147,3167,3187],"xSR":741.5,"ySR":469.95,"xT1":424.9,"yT1":0,"xT2":1058.1,"yT2":0,"toosoon":0,"cond_shown":"equaldotanddens","ratio_trial":900,"smaller_num":"9","larger_num":"10","correct_side":2,"subjID":"ELIZABETHCAMACHOFONSECA39","gender":"1","age":"10","school":"6"},{"start_time":1551883064383,"click_time":1551883066432,"finger_time":1551883065333,"fix_duration":1029.0930784120903,"trial":2,"RT":950,"MT":1099,"sideResp":2,"stimulus":"img/900/equaldotsize/R/15_Ratio_900_L_9_R_10.png","xmouse":[812,812,812,812,812,812,812,812,812,812,812,812,812,812,812,812,812,811,811,811,810,810,810,810,810,810,810,810,810,810,810,810,810,810,810,810,810,810,810,810,810,810,810,809,808,804,800,796,791,788,779,776,772,770,767,766,766,766,766,766,766,766,766,766,766,766,766,766,766,766,766,766,766,766,766,765,761,756,750,749,794,831,852,869,897,935,944,945,944,937,917,902,884,866,847,844,848,858,875,902,987,1047,1109],"ymouse":[499,499,499,499,499,499,499,499,499,499,499,499,499,499,499,499,499,500,500,500,501,501,501,501,501,501,501,501,501,501,501,501,501,501,501,501,501,501,501,502,503,507,509,520,528,549,561,574,588,596,614,619,624,627,628,628,628,628,628,628,628,628,628,628,628,628,628,628,628,628,628,628,628,628,628,628,628,625,623,622,605,604,602,594,576,556,550,545,535,520,497,489,483,476,457,418,392,359,318,271,160,102,49],"timestamp_mouse":[10,43,50,70,89,109,129,149,170,190,209,229,250,269,290,309,330,349,370,391,409,429,449,469,489,511,530,550,569,590,609,629,651,669,689,711,731,750,770,789,809,829,849,869,890,910,930,950,969,990,1010,1029,1050,1069,1090,1110,1130,1150,1169,1191,1210,1230,1250,1269,1291,1309,1331,1350,1369,1390,1410,1430,1449,1470,1491,1510,1529,1549,1569,1591,1610,1629,1649,1669,1689,1709,1729,1749,1769,1790,1810,1830,1849,1870,1890,1910,1929,1951,1970,1989,2009,2030,2049],"xSR":741.5,"ySR":469.95,"xT1":424.9,"yT1":0,"xT2":1058.1,"yT2":0,"toosoon":0,"cond_shown":"equaldotsize","ratio_trial":900,"smaller_num":"9","larger_num":"10","correct_side":2,"subjID":"ELIZABETHCAMACHOFONSECA39","gender":"1","age":"10","school":"6"},{"start_time":1551883069004,"click_time":1551883070052,"finger_time":1551883069713,"fix_duration":250,"trial":3,"RT":709,"MT":339,"sideResp":2,"stimulus":"img/500/equaldotanddens/L/11_Ratio_500_L_12_R_6.png","xmouse":[801,801,801,801,801,801,801,801,801,801,801,801,801,801,801,801,801,801,801,801,801,801,801,801,801,801,801,801,801,801,801,801,802,804,825,849,892,959,1028,1138,1155,1162,1162,1162,1163,1164,1164,1166,1166,1166,1155,1145,1133],"ymouse":[522,522,522,522,522,522,522,522,522,522,522,522,522,522,522,522,522,522,522,522,522,522,522,522,522,522,522,522,522,522,522,522,520,517,489,465,426,377,333,267,256,249,249,249,249,245,239,234,222,210,158,127,96],"timestamp_mouse":[8,28,49,69,89,108,128,148,168,189,208,230,250,269,289,309,329,348,368,388,408,428,448,469,488,509,528,548,568,588,608,628,649,668,689,709,729,748,768,789,809,829,849,869,889,908,928,948,969,988,1008,1029,1048],"xSR":741.5,"ySR":469.95,"xT1":424.9,"yT1":0,"xT2":1058.1,"yT2":0,"toosoon":0,"cond_shown":"equaldotanddens","ratio_trial":500,"smaller_num":"6","larger_num":"12","correct_side":1,"subjID":"ELIZABETHCAMACHOFONSECA39","gender":"1","age":"10","school":"6"},{"start_time":1551883071676,"click_time":1551883073092,"finger_time":1551883072392,"fix_duration":422.4492353741215,"trial":4,"RT":716,"MT":700,"sideResp":2,"stimulus":"img/900/equaldotanddens/L/1_Ratio_900_L_10_R_9.png","xmouse":[817,817,817,817,817,817,816,816,815,815,815,814,813,813,812,812,812,812,811,810,810,810,810,810,810,810,810,810,810,809,809,809,808,808,808,817,823,831,833,834,834,842,856,876,898,939,958,978,1009,1064,1136,1153,1163,1165,1165,1166,1167,1167,1167,1167,1163,1162,1159,1159,1159,1159,1159,1159,1159,1159,1156],"ymouse":[515,514,514,513,513,513,513,513,512,512,511,511,510,509,509,509,508,508,507,507,506,506,506,506,506,506,506,506,506,505,504,500,494,484,470,432,416,401,393,392,391,390,384,378,368,347,333,316,282,219,131,104,84,72,67,62,56,43,33,11,4,4,5,5,5,5,5,5,5,5,7],"timestamp_mouse":[16,50,57,77,96,116,136,157,176,196,216,236,256,276,297,317,337,357,377,396,417,437,458,476,496,518,537,558,577,596,616,636,657,677,697,716,738,756,776,797,816,837,856,877,897,917,936,958,976,997,1016,1036,1056,1077,1097,1117,1137,1157,1176,1197,1216,1236,1257,1277,1298,1316,1338,1356,1376,1396,1416],"xSR":741.5,"ySR":469.95,"xT1":424.9,"yT1":0,"xT2":1058.1,"yT2":0,"toosoon":0,"cond_shown":"equaldotanddens","ratio_trial":900,"smaller_num":"9","larger_num":"10","correct_side":1,"subjID":"ELIZABETHCAMACHOFONSECA39","gender":"1","age":"10","school":"6"},{"start_time":1551883074344,"click_time":1551883075614,"finger_time":1551883075033,"fix_duration":250,"trial":5,"RT":689,"MT":581,"sideResp":1,"stimulus":"img/500/randomdotsizeEA/R/1_Ratio_500_L_9_R_18.png","xmouse":[818,815,814,814,813,813,813,813,813,813,813,813,813,813,813,813,813,813,813,812,812,812,812,812,812,812,811,810,810,810,810,810,808,805,801,794,791,788,780,773,762,743,669,631,597,565,554,544,543,543,543,543,543,543,543,543,543,541,541,540,538,537,528,519],"ymouse":[506,506,505,505,505,505,505,505,505,505,505,505,505,505,504,504,504,504,504,503,503,503,503,503,503,502,502,501,499,498,497,496,488,477,463,450,437,426,407,391,371,339,242,187,138,87,64,34,28,22,15,12,10,10,10,10,10,11,14,15,15,15,17,18],"timestamp_mouse":[9,30,49,68,89,109,128,148,168,190,208,229,248,270,289,309,329,348,369,388,408,430,449,468,489,508,529,549,568,589,609,628,648,670,689,709,728,748,768,788,809,829,848,868,888,908,928,950,968,988,1009,1028,1048,1069,1089,1108,1129,1148,1168,1188,1209,1228,1249,1270],"xSR":741.5,"ySR":469.95,"xT1":424.9,"yT1":0,"xT2":1058.1,"yT2":0,"toosoon":0,"cond_shown":"randomdotsizeEA","ratio_trial":500,"smaller_num":"9","larger_num":"18","correct_side":2,"subjID":"ELIZABETHCAMACHOFONSECA39","gender":"1","age":"10","school":"6"},{"start_time":1551883077267,"click_time":1551883078232,"finger_time":1551883077833,"fix_duration":593.5274791233467,"trial":6,"RT":566,"MT":399,"sideResp":2,"stimulus":"img/500/randomdotsizeEA/L/7_Ratio_500_L_10_R_5.png","xmouse":[797,797,797,797,797,797,797,797,797,797,797,797,797,797,797,797,797,797,797,797,797,797,798,798,798,800,809,819,834,872,908,1012,1073,1120,1159,1177,1195,1199,1201,1204,1205,1205,1205,1203,1200,1195,1176,1164,1154],"ymouse":[505,505,505,505,505,505,505,505,505,505,505,505,505,505,505,505,505,505,505,505,505,505,504,504,503,501,491,480,464,413,366,257,208,172,145,130,111,102,93,80,72,69,68,68,68,68,63,58,54],"timestamp_mouse":[11,26,51,65,85,107,125,146,166,185,207,226,246,267,286,305,325,346,366,387,406,425,446,465,486,505,526,545,566,585,606,625,645,666,687,705,725,745,766,785,806,825,845,865,886,905,927,946,965],"xSR":741.5,"ySR":469.95,"xT1":424.9,"yT1":0,"xT2":1058.1,"yT2":0,"toosoon":0,"cond_shown":"randomdotsizeEA","ratio_trial":500,"smaller_num":"5","larger_num":"10","correct_side":1,"subjID":"ELIZABETHCAMACHOFONSECA39","gender":"1","age":"10","school":"6"},{"start_time":1551883079491,"click_time":1551883080372,"finger_time":1551883079834,"fix_duration":257.95096433080175,"trial":7,"RT":343,"MT":538,"sideResp":1,"stimulus":"img/250/equaldotsize/L/15_Ratio_250_L_12_R_3.png","xmouse":[769,769,769,769,769,769,769,769,768,767,767,767,767,767,766,766,766,766,761,734,704,691,679,666,652,624,613,603,597,593,586,579,573,570,568,566,564,557,551,546,539,536,533,530,524],"ymouse":[509,509,509,509,509,509,509,509,509,509,509,509,509,509,505,494,478,454,407,329,257,226,203,184,166,137,122,106,92,70,46,35,29,26,26,24,23,22,22,22,22,23,23,24,24],"timestamp_mouse":[8,22,41,62,81,102,121,141,162,182,201,222,243,262,281,302,322,343,361,382,402,421,441,462,481,502,521,542,562,581,601,622,642,662,681,701,721,742,762,781,802,821,842,862,881],"xSR":741.5,"ySR":469.95,"xT1":424.9,"yT1":0,"xT2":1058.1,"yT2":0,"toosoon":0,"cond_shown":"equaldotsize","ratio_trial":250,"smaller_num":"3","larger_num":"12","correct_side":1,"subjID":"ELIZABETHCAMACHOFONSECA39","gender":"1","age":"10","school":"6"},{"start_time":1551883081807,"click_time":1551883083193,"finger_time":1551883082812,"fix_duration":492.5108160339172,"trial":8,"RT":1005,"MT":381,"sideResp":2,"stimulus":"img/250/randomdotsizeEA/L/14_Ratio_250_L_12_R_3.png","xmouse":[771,771,771,770,770,770,769,768,765,764,763,763,763,763,763,763,763,763,763,763,763,763,763,763,763,763,763,763,763,763,762,762,762,762,762,763,763,763,764,764,764,766,766,767,767,767,769,771,774,787,800,822,855,895,956,1069,1122,1169,1200,1238,1245,1248,1248,1248,1240,1232,1224,1209,1185,1110],"ymouse":[524,524,524,524,524,524,524,524,524,524,524,524,524,524,524,524,524,524,524,524,524,524,524,524,524,524,524,524,524,524,524,524,524,523,522,521,518,516,511,495,486,479,476,475,475,475,475,476,476,474,466,450,426,396,348,251,208,176,153,113,95,75,58,38,17,11,10,13,23,51],"timestamp_mouse":[10,36,46,65,86,105,125,145,167,185,206,227,245,265,287,306,325,346,367,385,406,427,446,467,486,505,525,545,565,586,606,625,645,666,686,706,726,745,765,785,805,826,845,866,885,906,927,945,965,986,1005,1025,1047,1066,1086,1105,1125,1145,1165,1185,1205,1226,1245,1265,1285,1305,1325,1345,1366,1386],"xSR":741.5,"ySR":469.95,"xT1":424.9,"yT1":0,"xT2":1058.1,"yT2":0,"toosoon":0,"cond_shown":"randomdotsizeEA","ratio_trial":250,"smaller_num":"3","larger_num":"12","correct_side":1,"subjID":"ELIZABETHCAMACHOFONSECA39","gender":"1","age":"10","school":"6"},{"start_time":1551883084819,"click_time":1551883085453,"finger_time":1551883084992,"fix_duration":665.5207939541782,"trial":9,"RT":173,"MT":461,"sideResp":1,"stimulus":"img/500/randomdotsizeEA/R/12_Ratio_500_L_1_R_2.png","xmouse":[786,786,786,786,786,785,785,784,780,775,768,749,713,658,637,620,601,567,567,567,567,567,567,567,567,567,567,567,567,567,567,474],"ymouse":[484,484,482,479,477,476,475,473,459,441,417,373,290,190,148,108,67,9,9,9,9,9,9,9,9,9,9,9,9,9,9,1],"timestamp_mouse":[14,37,53,73,94,113,134,154,173,194,214,233,253,274,293,313,333,353,374,393,413,434,454,475,494,513,534,553,574,594,613,633],"xSR":741.5,"ySR":469.95,"xT1":424.9,"yT1":0,"xT2":1058.1,"yT2":0,"toosoon":0,"cond_shown":"randomdotsizeEA","ratio_trial":500,"smaller_num":"1","larger_num":"2","correct_side":2,"subjID":"ELIZABETHCAMACHOFONSECA39","gender":"1","age":"10","school":"6"},{"start_time":1551883087687,"click_time":1551883088715,"finger_time":1551883088155,"fix_duration":1469.3564544670812,"trial":10,"RT":468,"MT":560,"sideResp":2,"stimulus":"img/900/randomdotsizeEA/L/4_Ratio_900_L_20_R_18.png","xmouse":[789,789,789,790,791,791,791,791,791,791,791,791,791,792,792,792,793,794,795,799,810,815,826,838,852,890,926,954,979,998,1015,1016,1016,1016,1017,1024,1031,1043,1056,1071,1077,1079,1082,1088,1096,1101,1102,1102,1102,1102,1103,1103],"ymouse":[525,525,525,524,524,523,523,523,523,523,523,523,523,522,522,522,522,522,522,517,503,493,475,458,441,400,366,334,304,276,233,220,211,203,196,179,171,162,153,141,131,128,125,121,117,111,109,106,103,103,100,97],"timestamp_mouse":[8,43,49,69,89,109,129,148,169,189,209,229,249,269,288,309,327,348,368,388,408,428,448,468,488,509,528,548,569,588,608,627,649,668,689,708,728,748,768,789,808,828,848,868,888,908,928,948,968,988,1008,1028],"xSR":741.5,"ySR":469.95,"xT1":424.9,"yT1":0,"xT2":1058.1,"yT2":0,"toosoon":0,"cond_shown":"randomdotsizeEA","ratio_trial":900,"smaller_num":"18","larger_num":"20","correct_side":1,"subjID":"ELIZABETHCAMACHOFONSECA39","gender":"1","age":"10","school":"6"},{"start_time":1551883092954,"click_time":1551883094155,"finger_time":1551883093755,"fix_duration":1217.555477325373,"trial":11,"RT":801,"MT":400,"sideResp":2,"stimulus":"img/500/equaldotanddens/R/15_Ratio_500_L_1_R_2.png","xmouse":[793,793,793,793,793,793,793,793,793,793,793,793,793,793,793,793,793,793,793,793,793,793,793,793,793,793,793,793,793,793,793,795,797,800,801,801,802,803,803,803,804,804,808,815,827,844,898,1022,1074,1110,1130,1140,1145,1145,1145,1145,1146,1149,1149,1149,1149],"ymouse":[499,499,499,499,499,499,499,499,499,499,499,499,499,499,499,499,499,499,499,499,499,499,499,499,499,499,499,499,499,497,496,492,488,484,482,480,477,475,472,471,469,469,463,456,444,428,372,265,216,176,147,129,118,118,117,113,112,103,102,100,98],"timestamp_mouse":[8,22,41,61,81,101,121,141,161,182,201,221,242,262,281,301,321,342,360,381,401,422,441,460,481,501,522,542,562,581,602,621,641,662,681,702,721,741,761,781,801,821,841,861,882,902,921,941,961,981,1001,1021,1041,1061,1082,1101,1122,1141,1161,1182,1201],"xSR":741.5,"ySR":469.95,"xT1":424.9,"yT1":0,"xT2":1058.1,"yT2":0,"toosoon":0,"cond_shown":"equaldotanddens","ratio_trial":500,"smaller_num":"1","larger_num":"2","correct_side":2,"subjID":"ELIZABETHCAMACHOFONSECA39","gender":"1","age":"10","school":"6"},{"start_time":1551883095147,"click_time":1551883096356,"finger_time":1551883095476,"fix_duration":250,"trial":12,"RT":329,"MT":880,"sideResp":1,"stimulus":"img/750/equaldotsize/L/1_Ratio_750_L_20_R_15.png","xmouse":[806,806,806,806,806,806,806,806,806,806,805,805,804,802,796,790,779,759,750,737,724,710,694,651,635,620,609,600,599,598,595,590,578,578,576,575,572,567,564,557,551,545,534,531,530,530,522,504,502,501,501,501,501,500,500,500,499,499,499,498,496],"ymouse":[522,522,522,522,522,522,522,522,522,522,521,519,514,508,496,481,447,396,376,359,343,328,311,273,253,231,214,196,195,193,187,181,169,167,165,161,154,143,134,124,117,111,109,109,109,109,109,109,109,108,108,108,108,107,106,105,104,101,101,100,97],"timestamp_mouse":[9,29,64,68,89,108,129,149,168,189,208,229,249,268,288,309,329,348,368,388,408,428,448,469,488,508,529,549,569,588,608,628,648,668,688,708,728,748,768,788,808,828,848,868,888,907,928,948,968,988,1008,1028,1048,1068,1089,1108,1128,1148,1168,1188,1209],"xSR":741.5,"ySR":469.95,"xT1":424.9,"yT1":0,"xT2":1058.1,"yT2":0,"toosoon":0,"cond_shown":"equaldotsize","ratio_trial":750,"smaller_num":"15","larger_num":"20","correct_side":1,"subjID":"ELIZABETHCAMACHOFONSECA39","gender":"1","age":"10","school":"6"},{"start_time":1551883098817,"click_time":1551883099415,"finger_time":1551883099135,"fix_duration":1420.9900131340376,"trial":13,"RT":318,"MT":280,"sideResp":1,"stimulus":"img/250/equaldotanddens/L/7_Ratio_250_L_8_R_2.png","xmouse":[759,759,759,758,758,758,757,757,757,757,757,757,757,755,750,742,735,723,708,702,692,674,637,618,594,583,571,554,524,516],"ymouse":[488,488,488,488,488,488,489,489,489,489,489,489,489,484,474,460,444,428,406,389,366,321,234,193,147,135,125,116,102,96],"timestamp_mouse":[19,47,59,79,98,119,138,157,177,199,219,238,258,278,298,318,338,359,379,398,418,438,457,478,498,518,539,558,579,598],"xSR":741.5,"ySR":469.95,"xT1":424.9,"yT1":0,"xT2":1058.1,"yT2":0,"toosoon":0,"cond_shown":"equaldotanddens","ratio_trial":250,"smaller_num":"2","larger_num":"8","correct_side":1,"subjID":"ELIZABETHCAMACHOFONSECA39","gender":"1","age":"10","school":"6"},{"start_time":1551883102045,"click_time":1551883102756,"finger_time":1551883102555,"fix_duration":409.95055060284346,"trial":14,"RT":510,"MT":201,"sideResp":2,"stimulus":"img/250/equaldotsize/R/12_Ratio_250_L_5_R_20.png","xmouse":[785,785,785,785,785,785,785,785,785,785,785,785,785,785,785,785,785,785,785,785,785,785,784,784,784,793,812,836,914,960,996,1043,1082,1095,1109,1125],"ymouse":[519,519,519,519,519,519,519,519,519,519,519,519,519,519,519,519,518,517,515,514,513,512,507,500,484,461,428,385,261,203,164,140,124,118,108,95],"timestamp_mouse":[10,35,50,71,91,110,131,150,171,190,211,231,250,270,290,311,330,350,370,391,410,430,450,470,490,510,530,550,570,590,610,631,651,670,690,711],"xSR":741.5,"ySR":469.95,"xT1":424.9,"yT1":0,"xT2":1058.1,"yT2":0,"toosoon":0,"cond_shown":"equaldotsize","ratio_trial":250,"smaller_num":"5","larger_num":"20","correct_side":2,"subjID":"ELIZABETHCAMACHOFONSECA39","gender":"1","age":"10","school":"6"},{"start_time":1551883105251,"click_time":1551883106475,"finger_time":1551883105795,"fix_duration":1333.9565464352975,"trial":15,"RT":544,"MT":680,"sideResp":2,"stimulus":"img/250/equaldotanddens/R/6_Ratio_250_L_6_R_24.png","xmouse":[786,786,786,786,786,786,786,786,786,786,786,786,786,786,786,786,786,786,786,786,786,786,786,787,790,792,805,872,939,1016,1096,1195,1221,1221,1221,1221,1221,1221,1221,1221,1221,1221,1221,1221,1221,1221,1221,1217,1207,1199,1191,1185,1184,1184,1184,1184,1182,1178,1174,1169,1162,1140],"ymouse":[503,503,503,503,503,503,503,503,503,503,503,503,503,503,503,503,503,503,503,503,503,503,503,504,503,501,491,433,362,271,175,58,27,27,27,27,27,27,27,27,27,27,27,27,27,27,27,2,9,12,16,19,19,19,19,19,19,20,20,21,22,25],"timestamp_mouse":[8,33,44,65,84,105,124,144,165,185,205,224,245,264,285,304,324,344,364,384,405,425,444,465,484,504,525,544,564,584,604,624,645,665,684,704,724,745,764,785,804,824,844,864,884,905,925,944,963,984,1004,1024,1045,1064,1085,1105,1124,1144,1165,1184,1205,1224],"xSR":741.5,"ySR":469.95,"xT1":424.9,"yT1":0,"xT2":1058.1,"yT2":0,"toosoon":0,"cond_shown":"equaldotanddens","ratio_trial":250,"smaller_num":"6","larger_num":"24","correct_side":2,"subjID":"ELIZABETHCAMACHOFONSECA39","gender":"1","age":"10","school":"6"},{"start_time":1551883109116,"click_time":1551883110035,"finger_time":1551883109795,"fix_duration":1480.9435048699786,"trial":16,"RT":679,"MT":240,"sideResp":2,"stimulus":"img/750/randomdotsizeEA/R/15_Ratio_750_L_9_R_12.png","xmouse":[795,794,794,791,791,791,791,791,791,791,791,791,791,791,791,791,791,791,791,791,791,791,791,791,791,791,791,791,791,791,791,794,798,804,808,815,826,869,954,985,1010,1030,1039,1048,1056,1066],"ymouse":[500,500,500,493,492,492,492,492,492,492,492,492,492,492,492,492,492,492,492,492,492,492,492,492,492,492,492,491,489,487,485,480,474,459,448,433,415,358,244,193,155,119,96,62,45,26],"timestamp_mouse":[19,47,59,79,99,119,139,160,179,199,220,240,260,279,299,319,340,360,379,399,420,440,460,478,500,520,539,560,579,600,620,640,660,679,699,719,739,759,779,800,819,840,859,880,899,919],"xSR":741.5,"ySR":469.95,"xT1":424.9,"yT1":0,"xT2":1058.1,"yT2":0,"toosoon":0,"cond_shown":"randomdotsizeEA","ratio_trial":750,"smaller_num":"9","larger_num":"12","correct_side":2,"subjID":"ELIZABETHCAMACHOFONSECA39","gender":"1","age":"10","school":"6"},{"start_time":1551883111543,"click_time":1551883112176,"finger_time":1551883111995,"fix_duration":486.08588652358554,"trial":17,"RT":452,"MT":181,"sideResp":2,"stimulus":"img/250/equaldotsize/R/11_Ratio_250_L_3_R_12.png","xmouse":[783,783,783,783,783,783,783,783,783,783,783,783,783,783,783,783,783,783,783,785,790,801,846,885,928,972,1019,1076,1106,1127,1138,1146],"ymouse":[511,511,511,511,511,511,511,511,511,511,511,511,511,511,511,511,511,511,511,510,507,500,472,443,407,364,305,208,158,123,107,96],"timestamp_mouse":[13,35,53,73,92,113,132,152,173,192,213,233,252,272,292,312,332,353,373,392,413,433,452,472,492,512,533,552,572,593,612,633],"xSR":741.5,"ySR":469.95,"xT1":424.9,"yT1":0,"xT2":1058.1,"yT2":0,"toosoon":0,"cond_shown":"equaldotsize","ratio_trial":250,"smaller_num":"3","larger_num":"12","correct_side":2,"subjID":"ELIZABETHCAMACHOFONSECA39","gender":"1","age":"10","school":"6"},{"start_time":1551883114379,"click_time":1551883115416,"finger_time":1551883115075,"fix_duration":1142.61914973292,"trial":18,"RT":696,"MT":341,"sideResp":2,"stimulus":"img/900/randomdotsizeEA/R/13_Ratio_900_L_18_R_20.png","xmouse":[792,792,792,792,792,792,792,792,792,792,792,792,792,792,792,792,792,793,793,793,793,793,793,793,793,793,793,794,795,796,800,802,807,815,845,880,955,975,983,984,984,989,1003,1021,1043,1057,1057,1057,1058,1060,1074,1079],"ymouse":[512,512,512,512,512,512,512,512,512,512,512,512,512,512,512,512,512,512,512,512,512,512,512,512,512,512,512,511,510,509,506,504,499,491,457,419,326,289,260,236,204,185,165,146,131,115,112,109,108,107,101,97],"timestamp_mouse":[16,45,56,77,97,117,137,157,176,197,217,236,256,277,297,316,336,357,377,396,417,437,457,477,497,516,537,556,576,597,616,636,656,676,696,716,736,757,777,797,817,835,856,876,896,917,936,956,976,996,1016,1037],"xSR":741.5,"ySR":469.95,"xT1":424.9,"yT1":0,"xT2":1058.1,"yT2":0,"toosoon":0,"cond_shown":"randomdotsizeEA","ratio_trial":900,"smaller_num":"18","larger_num":"20","correct_side":2,"subjID":"ELIZABETHCAMACHOFONSECA39","gender":"1","age":"10","school":"6"},{"start_time":1551883116708,"click_time":1551883117775,"finger_time":1551883117155,"fix_duration":310.5023668388553,"trial":19,"RT":447,"MT":620,"sideResp":2,"stimulus":"img/500/equaldotsize/R/3_Ratio_500_L_10_R_20.png","xmouse":[798,798,798,798,798,798,798,798,798,798,798,798,797,796,796,796,796,796,796,802,816,831,846,861,895,919,970,1042,1123,1244,1258,1261,1261,1260,1258,1258,1258,1258,1255,1245,1213,1202,1195,1190,1187,1187,1185,1185,1185,1185,1182,1177,1169,1157],"ymouse":[513,513,513,513,513,513,513,513,513,513,513,513,513,513,513,513,513,513,513,505,497,489,484,478,457,438,394,331,264,167,151,138,123,107,71,57,48,43,39,37,32,31,31,31,31,31,31,31,31,31,31,31,31,31],"timestamp_mouse":[11,37,48,67,87,107,128,147,166,187,208,227,247,267,288,307,327,348,367,386,408,428,447,467,487,507,527,548,567,587,607,627,648,667,687,707,727,748,767,787,808,827,847,867,887,907,927,948,967,987,1007,1028,1048,1067],"xSR":741.5,"ySR":469.95,"xT1":424.9,"yT1":0,"xT2":1058.1,"yT2":0,"toosoon":0,"cond_shown":"equaldotsize","ratio_trial":500,"smaller_num":"10","larger_num":"20","correct_side":2,"subjID":"ELIZABETHCAMACHOFONSECA39","gender":"1","age":"10","school":"6"},{"start_time":1551883119797,"click_time":1551883120876,"finger_time":1551883120355,"fix_duration":1061.122601184666,"trial":20,"RT":558,"MT":521,"sideResp":1,"stimulus":"img/750/randomdotsizeEA/R/12_Ratio_750_L_3_R_4.png","xmouse":[805,805,805,805,805,805,805,805,805,805,805,805,805,804,804,804,804,804,805,807,807,807,807,807,807,807,806,805,804,804,802,802,799,778,761,743,725,706,665,646,629,618,608,602,601,600,600,595,583,572,558,545,523],"ymouse":[474,474,474,474,474,474,474,474,474,474,474,474,474,474,474,474,474,473,473,472,471,471,471,471,471,470,468,467,467,467,466,465,458,420,389,346,303,259,186,154,127,111,97,90,89,88,88,87,78,73,65,59,49],"timestamp_mouse":[38,58,78,98,118,138,158,178,198,218,239,259,278,298,318,339,359,378,398,418,438,458,478,499,518,538,558,578,599,618,638,658,678,699,718,738,758,779,798,819,839,858,878,899,918,939,958,978,998,1019,1039,1058,1079],"xSR":741.5,"ySR":469.95,"xT1":424.9,"yT1":0,"xT2":1058.1,"yT2":0,"toosoon":0,"cond_shown":"randomdotsizeEA","ratio_trial":750,"smaller_num":"3","larger_num":"4","correct_side":2,"subjID":"ELIZABETHCAMACHOFONSECA39","gender":"1","age":"10","school":"6"},{"start_time":1551883121867,"click_time":1551883122395,"finger_time":1551883122215,"fix_duration":250,"trial":21,"RT":348,"MT":180,"sideResp":2,"stimulus":"img/500/equaldotanddens/R/2_Ratio_500_L_3_R_6.png","xmouse":[797,797,797,797,797,797,797,797,797,797,797,796,796,798,802,807,834,854,885,923,987,1036,1046,1056,1066,1075,1090],"ymouse":[526,526,526,526,526,526,526,526,526,526,526,525,524,523,522,518,494,474,436,389,308,221,196,175,154,133,93],"timestamp_mouse":[8,42,49,68,88,108,128,148,169,189,208,229,248,269,288,309,328,348,368,389,408,428,447,469,489,509,528],"xSR":741.5,"ySR":469.95,"xT1":424.9,"yT1":0,"xT2":1058.1,"yT2":0,"toosoon":0,"cond_shown":"equaldotanddens","ratio_trial":500,"smaller_num":"3","larger_num":"6","correct_side":2,"subjID":"ELIZABETHCAMACHOFONSECA39","gender":"1","age":"10","school":"6"},{"start_time":1551883125187,"click_time":1551883125776,"finger_time":1551883125715,"fix_duration":550.2050423215477,"trial":22,"RT":528,"MT":61,"sideResp":2,"stimulus":"img/250/equaldotanddens/R/13_Ratio_250_L_2_R_8.png","xmouse":[767,767,767,767,767,767,767,767,767,767,767,767,767,767,767,767,767,767,767,767,767,767,770,773,784,823,877,954,1031,1094],"ymouse":[529,529,529,529,529,529,529,529,529,529,529,529,529,529,529,529,529,529,529,529,529,529,529,529,529,485,404,298,187,92],"timestamp_mouse":[9,34,49,68,89,109,128,149,168,189,209,228,248,268,288,309,328,348,369,387,408,429,448,469,488,508,528,548,568,589],"xSR":741.5,"ySR":469.95,"xT1":424.9,"yT1":0,"xT2":1058.1,"yT2":0,"toosoon":0,"cond_shown":"equaldotanddens","ratio_trial":250,"smaller_num":"2","larger_num":"8","correct_side":2,"subjID":"ELIZABETHCAMACHOFONSECA39","gender":"1","age":"10","school":"6"},{"start_time":1551883127284,"click_time":1551883128475,"finger_time":1551883128055,"fix_duration":486.2476212741608,"trial":23,"RT":771,"MT":420,"sideResp":2,"stimulus":"img/500/equaldotsize/R/15_Ratio_500_L_1_R_2.png","xmouse":[800,800,800,800,800,801,801,801,801,801,801,802,803,803,803,803,803,803,803,803,803,803,803,803,803,803,803,803,803,803,803,803,804,805,805,805,807,809,813,826,877,946,1020,1086,1146,1209,1219,1223,1227,1233,1243,1243,1243,1243,1243,1243,1243,1243,1243,1151],"ymouse":[483,483,483,483,483,483,483,483,483,483,480,478,477,477,477,477,477,477,477,477,477,477,477,477,477,477,477,477,477,477,477,477,477,477,477,477,475,473,468,463,441,398,348,294,242,177,151,126,106,66,6,6,6,6,6,6,6,6,6,2],"timestamp_mouse":[12,35,52,72,91,112,132,151,171,191,211,232,251,271,291,311,331,351,371,391,411,432,452,471,492,512,532,552,571,591,610,632,652,670,692,711,732,751,771,791,812,831,851,872,891,911,932,951,972,992,1011,1032,1051,1071,1091,1112,1131,1151,1172,1191],"xSR":741.5,"ySR":469.95,"xT1":424.9,"yT1":0,"xT2":1058.1,"yT2":0,"toosoon":0,"cond_shown":"equaldotsize","ratio_trial":500,"smaller_num":"1","larger_num":"2","correct_side":2,"subjID":"ELIZABETHCAMACHOFONSECA39","gender":"1","age":"10","school":"6"},{"start_time":1551883130055,"click_time":1551883130895,"finger_time":1551883130716,"fix_duration":817.0304627261539,"trial":24,"RT":661,"MT":179,"sideResp":2,"stimulus":"img/250/randomdotsizeEA/L/3_Ratio_250_L_8_R_2.png","xmouse":[794,794,794,794,794,795,795,795,795,795,795,795,795,795,795,795,795,795,796,797,797,797,798,798,798,798,798,798,798,798,798,801,821,843,876,932,1001,1104,1123,1127,1126,1120,1117],"ymouse":[518,518,518,518,518,517,517,517,517,517,517,517,517,517,517,517,516,513,512,511,510,509,508,508,508,508,508,507,506,505,505,500,480,463,435,385,319,203,171,149,132,109,91],"timestamp_mouse":[1,21,40,61,80,100,120,140,160,180,199,220,241,260,281,300,321,340,361,380,400,421,440,460,480,500,520,541,560,581,600,621,640,661,680,700,720,741,760,780,801,820,840],"xSR":741.5,"ySR":469.95,"xT1":424.9,"yT1":0,"xT2":1058.1,"yT2":0,"toosoon":0,"cond_shown":"randomdotsizeEA","ratio_trial":250,"smaller_num":"2","larger_num":"8","correct_side":1,"subjID":"ELIZABETHCAMACHOFONSECA39","gender":"1","age":"10","school":"6"},{"start_time":1551883132432,"click_time":1551883133455,"finger_time":1551883132935,"fix_duration":496.5764078314412,"trial":25,"RT":503,"MT":520,"sideResp":2,"stimulus":"img/250/equaldotsize/R/11_Ratio_250_L_3_R_12.png","xmouse":[798,798,798,797,793,792,791,791,791,791,791,791,791,791,791,791,791,791,791,791,791,791,793,809,829,855,892,947,1083,1158,1243,1314,1371,1378,1378,1378,1378,1378,1378,1378,1378,1378,1232,1204,1198,1195,1195,1195,1193,1182,1167,1152],"ymouse":[533,532,532,529,523,520,519,518,517,517,517,517,517,517,517,517,517,517,517,517,517,517,516,507,494,473,440,400,311,243,156,80,16,6,6,6,6,6,6,6,6,6,2,31,39,44,44,44,44,47,51,54],"timestamp_mouse":[10,31,43,63,83,104,123,143,164,183,203,224,243,263,283,303,323,343,363,383,403,423,443,463,483,503,524,544,564,584,603,623,643,663,683,704,723,743,763,783,804,823,842,864,882,903,923,944,964,982,1003,1022],"xSR":741.5,"ySR":469.95,"xT1":424.9,"yT1":0,"xT2":1058.1,"yT2":0,"toosoon":0,"cond_shown":"equaldotsize","ratio_trial":250,"smaller_num":"3","larger_num":"12","correct_side":2,"subjID":"ELIZABETHCAMACHOFONSECA39","gender":"1","age":"10","school":"6"},{"start_time":1551883136603,"click_time":1551883137455,"finger_time":1551883137116,"fix_duration":865.6440388262996,"trial":26,"RT":513,"MT":339,"sideResp":2,"stimulus":"img/900/randomdotsizeEA/L/2_Ratio_900_L_20_R_18.png","xmouse":[793,793,793,793,793,793,793,793,793,793,793,793,793,793,793,793,793,793,793,793,795,795,798,801,823,856,905,966,1024,1085,1094,1095,1095,1094,1094,1097,1099,1102,1103,1106,1109,1113,1122],"ymouse":[509,509,509,509,509,509,509,509,509,509,509,509,509,509,509,509,509,509,509,508,507,506,502,497,473,444,394,333,275,197,179,169,163,160,160,153,147,141,135,126,118,108,93],"timestamp_mouse":[12,43,52,73,92,112,133,151,172,193,213,232,253,273,293,313,332,353,371,393,412,433,452,473,492,513,532,552,573,593,613,632,653,673,692,712,733,752,772,793,811,832,852],"xSR":741.5,"ySR":469.95,"xT1":424.9,"yT1":0,"xT2":1058.1,"yT2":0,"toosoon":0,"cond_shown":"randomdotsizeEA","ratio_trial":900,"smaller_num":"18","larger_num":"20","correct_side":1,"subjID":"ELIZABETHCAMACHOFONSECA39","gender":"1","age":"10","school":"6"},{"start_time":1551883142138,"click_time":1551883143095,"finger_time":1551883142756,"fix_duration":1436.117715115056,"trial":27,"RT":618,"MT":339,"sideResp":2,"stimulus":"img/900/equaldotanddens/R/13_Ratio_900_L_18_R_20.png","xmouse":[791,791,791,791,791,791,791,791,791,791,791,791,791,791,791,791,791,791,791,791,791,791,791,791,791,791,791,791,791,791,800,828,838,881,898,911,928,947,970,975,981,987,990,993,1010,1028,1045,1057,1064],"ymouse":[481,481,481,481,481,481,481,481,481,481,481,481,481,481,481,481,481,481,481,481,481,481,481,481,481,481,481,481,481,481,473,449,442,404,386,362,320,257,170,155,142,131,122,116,89,69,51,42,40],"timestamp_mouse":[1,17,38,58,77,97,118,137,157,176,198,217,238,258,277,297,317,336,357,378,398,417,437,457,477,498,517,538,558,577,597,618,637,657,677,697,717,738,757,776,797,818,837,857,878,897,916,938,957],"xSR":741.5,"ySR":469.95,"xT1":424.9,"yT1":0,"xT2":1058.1,"yT2":0,"toosoon":0,"cond_shown":"equaldotanddens","ratio_trial":900,"smaller_num":"18","larger_num":"20","correct_side":2,"subjID":"ELIZABETHCAMACHOFONSECA39","gender":"1","age":"10","school":"6"},{"start_time":1551883144418,"click_time":1551883145215,"finger_time":1551883144795,"fix_duration":660.3696477993964,"trial":28,"RT":377,"MT":420,"sideResp":2,"stimulus":"img/900/equaldotanddens/L/1_Ratio_900_L_10_R_9.png","xmouse":[765,765,765,765,765,765,765,765,765,765,765,765,765,765,765,766,774,800,913,960,1001,1030,1052,1082,1085,1087,1088,1089,1094,1096,1097,1097,1097,1093,1093,1093,1093,1092,1091,1091],"ymouse":[533,533,533,533,533,533,533,533,533,533,533,533,533,533,533,532,528,516,470,446,426,409,396,356,338,316,295,277,240,221,204,188,169,154,150,143,134,125,105,94],"timestamp_mouse":[18,43,58,77,97,117,137,158,177,198,218,238,258,277,297,318,337,357,377,396,417,437,458,477,496,517,537,556,577,597,617,638,657,677,697,717,738,757,777,797],"xSR":741.5,"ySR":469.95,"xT1":424.9,"yT1":0,"xT2":1058.1,"yT2":0,"toosoon":0,"cond_shown":"equaldotanddens","ratio_trial":900,"smaller_num":"9","larger_num":"10","correct_side":1,"subjID":"ELIZABETHCAMACHOFONSECA39","gender":"1","age":"10","school":"6"},{"start_time":1551883146666,"click_time":1551883147395,"finger_time":1551883147115,"fix_duration":730.7551455061546,"trial":29,"RT":449,"MT":280,"sideResp":1,"stimulus":"img/500/equaldotsize/L/10_Ratio_500_L_4_R_2.png","xmouse":[793,793,793,793,793,792,792,792,792,792,792,792,792,792,792,792,792,792,792,790,790,790,799,801,801,799,784,773,763,749,723,687,662,631,597,558,462],"ymouse":[537,537,537,537,536,535,535,535,534,534,534,534,534,533,531,529,528,526,522,515,506,480,431,408,388,368,327,311,298,278,248,209,189,168,149,130,79],"timestamp_mouse":[9,33,49,69,90,109,130,149,170,189,210,229,249,269,290,309,328,349,370,389,409,429,449,469,490,510,529,549,569,589,609,629,649,669,689,709,729],"xSR":741.5,"ySR":469.95,"xT1":424.9,"yT1":0,"xT2":1058.1,"yT2":0,"toosoon":0,"cond_shown":"equaldotsize","ratio_trial":500,"smaller_num":"2","larger_num":"4","correct_side":1,"subjID":"ELIZABETHCAMACHOFONSECA39","gender":"1","age":"10","school":"6"},{"start_time":1551883150312,"click_time":1551883151457,"finger_time":1551883150717,"fix_duration":532.5160809977693,"trial":30,"RT":405,"MT":740,"sideResp":1,"stimulus":"img/750/equaldotsize/L/6_Ratio_750_L_24_R_18.png","xmouse":[773,773,773,774,775,776,776,776,776,776,776,776,776,776,777,777,777,777,777,774,773,769,763,752,716,668,589,538,538,538,538,538,538,538,538,538,538,538,538,538,538,315,336,355,381,387,391,392,395,399,401,403,403,404,410,415,424,436],"ymouse":[547,547,547,547,547,546,546,546,546,546,546,545,545,544,541,539,536,531,524,491,466,432,383,328,239,156,53,2,2,2,2,2,2,2,2,2,2,2,2,2,2,2,19,32,49,53,55,56,58,59,59,59,59,59,59,58,58,58],"timestamp_mouse":[8,25,46,67,86,105,125,145,166,185,207,225,246,267,286,305,326,346,366,385,405,426,446,466,485,505,526,547,565,587,605,626,646,667,687,706,725,746,766,786,806,826,846,867,886,905,926,946,967,986,1005,1025,1046,1067,1086,1106,1126,1145],"xSR":741.5,"ySR":469.95,"xT1":424.9,"yT1":0,"xT2":1058.1,"yT2":0,"toosoon":0,"cond_shown":"equaldotsize","ratio_trial":750,"smaller_num":"18","larger_num":"24","correct_side":1,"subjID":"ELIZABETHCAMACHOFONSECA39","gender":"1","age":"10","school":"6"},{"start_time":1551883154948,"click_time":1551883155978,"finger_time":1551883155558,"fix_duration":649.2859570324487,"trial":31,"RT":610,"MT":420,"sideResp":2,"stimulus":"img/900/randomdotsizeEA/R/7_Ratio_900_L_9_R_10.png","xmouse":[762,764,765,765,766,766,766,766,766,766,766,766,766,766,766,766,766,766,766,766,766,767,768,768,769,770,772,783,801,823,849,883,945,974,996,1012,1041,1088,1106,1119,1129,1141,1154,1162,1163,1163,1163,1163,1159,1152,1143,1131],"ymouse":[521,521,521,521,521,521,521,521,521,521,521,521,521,521,521,521,521,521,521,521,521,521,521,521,520,519,517,507,496,484,469,449,405,380,360,339,287,212,191,176,167,159,152,146,146,144,138,120,113,108,102,95],"timestamp_mouse":[11,30,50,71,90,109,129,151,169,191,210,231,250,271,290,309,329,349,370,391,411,430,450,470,491,509,530,550,569,589,610,630,649,669,690,711,730,750,769,790,809,831,850,870,889,909,929,950,970,990,1010,1029],"xSR":741.5,"ySR":469.95,"xT1":424.9,"yT1":0,"xT2":1058.1,"yT2":0,"toosoon":0,"cond_shown":"randomdotsizeEA","ratio_trial":900,"smaller_num":"9","larger_num":"10","correct_side":2,"subjID":"ELIZABETHCAMACHOFONSECA39","gender":"1","age":"10","school":"6"},{"start_time":1551883159346,"click_time":1551883160397,"finger_time":1551883159897,"fix_duration":1186.8996512748733,"trial":32,"RT":551,"MT":500,"sideResp":2,"stimulus":"img/750/equaldotanddens/R/4_Ratio_750_L_15_R_20.png","xmouse":[814,814,814,814,814,814,814,814,814,814,814,814,814,814,814,814,814,814,814,814,814,814,814,814,815,818,825,856,879,907,933,951,979,994,1015,1039,1065,1088,1097,1103,1106,1108,1109,1112,1117,1127,1131,1134,1134,1132,1130,1128,1127],"ymouse":[524,524,524,524,524,524,524,524,524,524,524,522,522,522,522,522,522,522,522,522,522,522,522,521,518,513,504,472,447,415,383,362,325,309,296,285,267,240,227,216,210,206,204,199,189,171,161,146,143,136,129,118,91],"timestamp_mouse":[13,37,52,73,92,111,132,151,173,192,211,232,251,273,291,312,331,353,373,391,412,432,451,472,493,512,533,551,572,591,611,631,652,672,692,712,731,752,771,792,812,831,852,872,892,912,931,952,971,992,1012,1033,1051],"xSR":741.5,"ySR":469.95,"xT1":424.9,"yT1":0,"xT2":1058.1,"yT2":0,"toosoon":0,"cond_shown":"equaldotanddens","ratio_trial":750,"smaller_num":"15","larger_num":"20","correct_side":2,"subjID":"ELIZABETHCAMACHOFONSECA39","gender":"1","age":"10","school":"6"},{"start_time":1551883162428,"click_time":1551883163898,"finger_time":1551883163157,"fix_duration":1109.247947427912,"trial":33,"RT":729,"MT":741,"sideResp":2,"stimulus":"img/900/equaldotanddens/L/1_Ratio_900_L_10_R_9.png","xmouse":[806,806,806,806,806,806,806,806,806,806,806,806,806,805,805,805,805,805,805,804,804,804,804,804,804,804,804,804,804,804,804,804,804,812,822,841,870,907,957,1029,1047,1049,1051,1046,1039,1031,1027,1023,1008,983,967,967,967,967,967,967,967,967,967,967,967,967,967,947,973,991,1002,1007,1010,1012,1018,1034,1049,1059],"ymouse":[523,523,523,522,522,522,521,521,521,521,520,520,520,519,519,519,519,519,517,516,516,516,516,516,515,515,514,513,513,512,512,511,509,501,492,475,455,423,387,346,333,331,326,303,284,265,250,236,179,87,36,36,36,36,36,36,36,36,36,36,36,36,36,5,22,29,31,31,31,31,29,25,22,20],"timestamp_mouse":[15,36,49,70,90,110,129,151,170,190,210,230,251,269,291,309,329,349,370,390,411,430,449,469,491,509,529,550,570,589,611,629,649,669,690,711,729,751,769,790,810,830,849,869,890,910,930,949,970,991,1011,1030,1051,1070,1090,1110,1129,1150,1170,1189,1209,1230,1249,1269,1290,1310,1330,1349,1369,1390,1409,1430,1451,1470],"xSR":741.5,"ySR":469.95,"xT1":424.9,"yT1":0,"xT2":1058.1,"yT2":0,"toosoon":0,"cond_shown":"equaldotanddens","ratio_trial":900,"smaller_num":"9","larger_num":"10","correct_side":1,"subjID":"ELIZABETHCAMACHOFONSECA39","gender":"1","age":"10","school":"6"},{"start_time":1551883165154,"click_time":1551883166038,"finger_time":1551883165658,"fix_duration":253.6835721076206,"trial":34,"RT":504,"MT":380,"sideResp":2,"stimulus":"img/900/randomdotsizeEA/L/4_Ratio_900_L_20_R_18.png","xmouse":[797,797,797,797,797,797,797,797,797,797,797,797,797,797,797,797,797,797,797,797,797,797,799,803,814,844,868,934,984,1034,1087,1137,1218,1238,1246,1248,1248,1247,1247,1247,1247,1247,1247,1247,1156],"ymouse":[506,506,506,505,505,505,505,505,505,505,505,505,505,505,505,505,505,505,505,505,505,505,503,500,493,475,458,399,349,290,226,167,73,47,33,23,14,4,4,4,4,4,4,4,1],"timestamp_mouse":[10,24,44,63,84,103,125,144,164,184,203,225,243,263,284,303,323,344,365,383,403,424,444,464,485,504,524,544,564,583,605,625,643,663,684,704,723,744,764,784,804,824,844,865,884],"xSR":741.5,"ySR":469.95,"xT1":424.9,"yT1":0,"xT2":1058.1,"yT2":0,"toosoon":0,"cond_shown":"randomdotsizeEA","ratio_trial":900,"smaller_num":"18","larger_num":"20","correct_side":1,"subjID":"ELIZABETHCAMACHOFONSECA39","gender":"1","age":"10","school":"6"},{"start_time":1551883167450,"click_time":1551883168079,"finger_time":1551883167757,"fix_duration":371.1345186393866,"trial":35,"RT":307,"MT":322,"sideResp":1,"stimulus":"img/750/randomdotsizeEA/L/13_Ratio_750_L_8_R_6.png","xmouse":[790,790,790,790,790,790,790,790,790,790,790,790,792,793,795,799,802,805,805,805,804,782,722,694,670,649,633,620,612,599,572,524],"ymouse":[497,497,497,496,496,495,495,495,495,494,493,492,487,485,478,468,454,421,403,384,363,319,240,210,181,160,146,127,115,98,65,21],"timestamp_mouse":[9,36,48,68,88,108,127,149,167,189,208,227,247,267,288,307,328,348,368,387,407,429,448,468,488,507,529,548,568,587,608,629],"xSR":741.5,"ySR":469.95,"xT1":424.9,"yT1":0,"xT2":1058.1,"yT2":0,"toosoon":0,"cond_shown":"randomdotsizeEA","ratio_trial":750,"smaller_num":"6","larger_num":"8","correct_side":1,"subjID":"ELIZABETHCAMACHOFONSECA39","gender":"1","age":"10","school":"6"},{"start_time":1551883169315,"click_time":1551883170217,"finger_time":1551883169778,"fix_duration":436.2222019800084,"trial":36,"RT":463,"MT":439,"sideResp":1,"stimulus":"img/900/equaldotsize/L/8_Ratio_900_L_20_R_18.png","xmouse":[813,813,813,813,813,813,813,813,813,813,813,812,812,812,811,811,811,811,810,809,804,802,797,791,773,765,754,737,701,650,627,611,591,577,562,560,559,559,556,546,544,542,540,535,525,520],"ymouse":[508,508,508,507,507,507,507,507,507,506,506,505,505,504,503,502,501,499,494,490,481,478,471,463,436,416,392,352,279,189,157,133,107,87,67,63,61,60,56,50,49,49,49,49,49,49],"timestamp_mouse":[5,39,42,62,83,103,122,142,164,183,204,222,243,262,282,303,324,342,363,382,403,423,443,463,483,502,523,543,562,583,604,623,643,663,682,702,722,743,762,783,804,823,844,863,883,902],"xSR":741.5,"ySR":469.95,"xT1":424.9,"yT1":0,"xT2":1058.1,"yT2":0,"toosoon":0,"cond_shown":"equaldotsize","ratio_trial":900,"smaller_num":"18","larger_num":"20","correct_side":1,"subjID":"ELIZABETHCAMACHOFONSECA39","gender":"1","age":"10","school":"6"},{"start_time":1551883174162,"click_time":1551883175158,"finger_time":1551883174578,"fix_duration":1342.3893278612966,"trial":37,"RT":416,"MT":580,"sideResp":1,"stimulus":"img/250/randomdotsizeEA/L/14_Ratio_250_L_12_R_3.png","xmouse":[804,804,802,801,801,801,801,801,800,800,800,800,800,800,800,800,798,798,797,797,797,797,796,792,783,772,746,730,709,670,622,532,511,499,497,497,498,498,499,499,499,501,502,503,505,505,505,505,505,502],"ymouse":[510,510,510,510,510,510,510,510,510,510,510,510,510,510,510,510,510,506,499,487,469,430,412,398,377,358,322,307,291,265,234,176,162,151,149,148,148,148,146,143,142,136,132,128,122,114,107,104,100,94],"timestamp_mouse":[16,36,56,76,97,115,137,157,175,197,217,237,256,276,295,317,336,357,375,396,416,436,455,475,496,516,536,556,575,596,617,636,655,676,697,716,735,755,776,796,816,835,855,875,895,917,935,955,976,996],"xSR":741.5,"ySR":469.95,"xT1":424.9,"yT1":0,"xT2":1058.1,"yT2":0,"toosoon":0,"cond_shown":"randomdotsizeEA","ratio_trial":250,"smaller_num":"3","larger_num":"12","correct_side":1,"subjID":"ELIZABETHCAMACHOFONSECA39","gender":"1","age":"10","school":"6"},{"start_time":1551883177850,"click_time":1551883178419,"finger_time":1551883178118,"fix_duration":250,"trial":38,"RT":268,"MT":301,"sideResp":1,"stimulus":"img/500/randomdotsizeEA/L/11_Ratio_500_L_12_R_6.png","xmouse":[780,780,780,780,779,779,779,778,777,777,776,774,758,736,702,660,624,537,498,471,442,399,377,374,372,371,376,408,451],"ymouse":[536,536,536,536,536,536,536,535,535,535,534,534,525,512,490,461,424,345,308,284,255,221,198,189,182,173,162,122,83],"timestamp_mouse":[8,28,48,68,87,108,127,149,167,187,208,227,248,268,287,307,329,347,367,388,409,427,447,467,489,508,529,548,569],"xSR":741.5,"ySR":469.95,"xT1":424.9,"yT1":0,"xT2":1058.1,"yT2":0,"toosoon":0,"cond_shown":"randomdotsizeEA","ratio_trial":500,"smaller_num":"6","larger_num":"12","correct_side":1,"subjID":"ELIZABETHCAMACHOFONSECA39","gender":"1","age":"10","school":"6"},{"start_time":1551883179982,"click_time":1551883180617,"finger_time":1551883180357,"fix_duration":602.6452858201591,"trial":39,"RT":375,"MT":260,"sideResp":1,"stimulus":"img/250/equaldotsize/L/5_Ratio_250_L_24_R_6.png","xmouse":[813,813,813,813,813,813,813,813,813,813,813,813,813,812,812,810,807,803,797,789,752,723,676,628,589,575,574,574,572,565,538,523],"ymouse":[515,515,515,515,515,515,515,515,515,515,515,515,515,515,513,509,501,488,468,438,333,255,170,100,56,39,38,38,38,38,37,37],"timestamp_mouse":[17,40,55,75,95,116,135,157,175,195,217,236,256,276,296,316,336,356,375,396,415,435,457,476,496,516,535,556,576,596,616,635],"xSR":741.5,"ySR":469.95,"xT1":424.9,"yT1":0,"xT2":1058.1,"yT2":0,"toosoon":0,"cond_shown":"equaldotsize","ratio_trial":250,"smaller_num":"6","larger_num":"24","correct_side":1,"subjID":"ELIZABETHCAMACHOFONSECA39","gender":"1","age":"10","school":"6"},{"start_time":1551883182598,"click_time":1551883183199,"finger_time":1551883183058,"fix_duration":777.9529037998078,"trial":40,"RT":460,"MT":141,"sideResp":1,"stimulus":"img/750/equaldotanddens/R/11_Ratio_750_L_12_R_16.png","xmouse":[776,776,776,776,776,776,776,776,777,777,777,777,777,777,777,778,778,778,779,781,783,783,782,778,771,751,729,700,660,609,517],"ymouse":[513,513,513,513,513,514,514,514,514,514,514,514,514,514,514,515,515,515,515,514,511,504,489,469,435,388,351,307,250,186,79],"timestamp_mouse":[1,20,46,61,79,101,120,139,160,180,199,220,239,259,280,300,321,339,361,380,399,421,441,460,479,500,520,539,560,580,601],"xSR":741.5,"ySR":469.95,"xT1":424.9,"yT1":0,"xT2":1058.1,"yT2":0,"toosoon":0,"cond_shown":"equaldotanddens","ratio_trial":750,"smaller_num":"12","larger_num":"16","correct_side":2,"subjID":"ELIZABETHCAMACHOFONSECA39","gender":"1","age":"10","school":"6"},{"start_time":1551883184819,"click_time":1551883185398,"finger_time":1551883184938,"fix_duration":638.9355466870941,"trial":41,"RT":119,"MT":460,"sideResp":2,"stimulus":"img/900/equaldotanddens/R/6_Ratio_900_L_9_R_10.png","xmouse":[789,790,790,792,794,798,804,809,811,814,814,815,820,852,957,1000,1040,1075,1098,1128,1133,1134,1134,1134,1121,1117,1115,1111,1104,1085],"ymouse":[479,479,479,477,474,470,464,459,457,455,454,451,444,415,324,284,244,213,193,175,172,169,166,156,132,122,116,110,100,77],"timestamp_mouse":[1,18,42,58,78,100,119,138,160,178,199,219,239,259,279,299,318,339,359,379,399,418,438,460,478,500,519,539,558,578],"xSR":741.5,"ySR":469.95,"xT1":424.9,"yT1":0,"xT2":1058.1,"yT2":0,"toosoon":0,"cond_shown":"equaldotanddens","ratio_trial":900,"smaller_num":"9","larger_num":"10","correct_side":2,"subjID":"ELIZABETHCAMACHOFONSECA39","gender":"1","age":"10","school":"6"},{"start_time":1551883187715,"click_time":1551883188598,"finger_time":1551883188059,"fix_duration":1377.9587765892036,"trial":42,"RT":344,"MT":539,"sideResp":2,"stimulus":"img/500/equaldotanddens/R/2_Ratio_500_L_3_R_6.png","xmouse":[803,803,803,803,803,803,803,803,803,803,803,803,802,801,798,796,794,791,791,773,745,716,692,678,667,666,666,666,673,730,791,854,895,925,973,991,1005,1015,1024,1029,1031,1031,1033,1036,1062],"ymouse":[530,530,530,529,527,527,526,526,525,524,522,520,518,514,503,492,479,455,441,385,342,301,267,248,231,229,229,221,212,178,175,175,175,176,173,160,144,128,106,97,96,95,93,88,70],"timestamp_mouse":[13,37,44,63,82,104,123,142,163,184,202,224,244,262,283,303,323,344,363,382,403,423,443,463,482,502,523,544,564,583,603,622,643,662,683,702,722,743,763,783,803,822,843,863,883],"xSR":741.5,"ySR":469.95,"xT1":424.9,"yT1":0,"xT2":1058.1,"yT2":0,"toosoon":0,"cond_shown":"equaldotanddens","ratio_trial":500,"smaller_num":"3","larger_num":"6","correct_side":2,"subjID":"ELIZABETHCAMACHOFONSECA39","gender":"1","age":"10","school":"6"},{"start_time":1551883190891,"click_time":1551883191858,"finger_time":1551883191298,"fix_duration":1353.4706315501694,"trial":43,"RT":407,"MT":560,"sideResp":2,"stimulus":"img/750/equaldotanddens/R/11_Ratio_750_L_12_R_16.png","xmouse":[763,763,763,763,763,763,763,763,763,763,763,763,763,763,763,764,766,770,788,805,854,892,941,987,1021,1046,1051,1054,1056,1061,1087,1111,1135,1153,1163,1166,1166,1167,1167,1166,1164,1161,1155,1150,1147,1145,1144,1141,1134],"ymouse":[532,532,532,532,532,532,532,532,532,532,532,532,532,532,531,529,527,526,516,508,492,481,465,445,428,398,384,369,350,316,260,227,198,179,162,154,152,150,142,129,120,117,115,113,113,111,110,103,95],"timestamp_mouse":[10,37,47,68,86,107,128,146,167,186,208,227,247,268,287,306,327,347,367,386,407,428,446,466,488,506,526,547,568,588,607,627,646,667,686,707,728,747,768,787,806,826,846,867,887,908,926,948,967],"xSR":741.5,"ySR":469.95,"xT1":424.9,"yT1":0,"xT2":1058.1,"yT2":0,"toosoon":0,"cond_shown":"equaldotanddens","ratio_trial":750,"smaller_num":"12","larger_num":"16","correct_side":2,"subjID":"ELIZABETHCAMACHOFONSECA39","gender":"1","age":"10","school":"6"},{"start_time":1551883193110,"click_time":1551883193779,"finger_time":1551883193519,"fix_duration":250,"trial":44,"RT":409,"MT":260,"sideResp":2,"stimulus":"img/900/randomdotsizeEA/R/11_Ratio_900_L_18_R_20.png","xmouse":[792,792,792,792,792,792,792,792,792,792,792,792,792,792,792,792,792,793,793,805,821,854,908,974,1065,1079,1083,1083,1077,1071,1068,1068,1068,1072],"ymouse":[534,534,534,534,534,534,534,534,534,534,534,534,534,534,534,534,534,533,525,488,460,415,360,308,241,216,188,162,139,125,121,116,108,96],"timestamp_mouse":[8,38,48,68,87,108,129,147,167,189,209,227,248,269,287,308,328,348,368,387,409,428,447,467,488,509,529,549,569,587,607,628,647,669],"xSR":741.5,"ySR":469.95,"xT1":424.9,"yT1":0,"xT2":1058.1,"yT2":0,"toosoon":0,"cond_shown":"randomdotsizeEA","ratio_trial":900,"smaller_num":"18","larger_num":"20","correct_side":2,"subjID":"ELIZABETHCAMACHOFONSECA39","gender":"1","age":"10","school":"6"},{"start_time":1551883195124,"click_time":1551883195939,"finger_time":1551883195578,"fix_duration":404.1183647555311,"trial":45,"RT":454,"MT":361,"sideResp":2,"stimulus":"img/750/equaldotanddens/L/1_Ratio_750_L_20_R_15.png","xmouse":[814,813,813,813,813,813,813,813,813,813,813,813,813,813,813,813,813,813,812,813,821,838,878,960,990,1022,1042,1066,1078,1080,1082,1084,1088,1094,1097,1097,1097,1097,1097,1111,1133],"ymouse":[546,546,546,546,546,546,546,546,546,546,546,546,546,546,546,546,546,546,539,532,515,490,440,350,323,296,280,257,238,232,225,220,213,193,183,178,178,178,175,136,97],"timestamp_mouse":[14,38,54,74,94,114,133,154,173,193,214,234,253,273,295,315,334,354,373,395,414,434,454,475,494,513,534,555,573,593,613,634,654,673,693,713,733,754,774,794,815],"xSR":741.5,"ySR":469.95,"xT1":424.9,"yT1":0,"xT2":1058.1,"yT2":0,"toosoon":0,"cond_shown":"equaldotanddens","ratio_trial":750,"smaller_num":"15","larger_num":"20","correct_side":1,"subjID":"ELIZABETHCAMACHOFONSECA39","gender":"1","age":"10","school":"6"},{"start_time":1551883198187,"click_time":1551883198957,"finger_time":1551883198778,"fix_duration":1228.791389772841,"trial":46,"RT":591,"MT":179,"sideResp":2,"stimulus":"img/750/equaldotanddens/L/14_Ratio_750_L_8_R_6.png","xmouse":[813,813,813,813,813,813,813,813,813,813,813,813,813,813,813,813,813,813,813,813,814,815,816,818,818,818,819,824,840,866,998,1066,1118,1128,1137,1121,1102,1089,1077],"ymouse":[524,524,524,524,524,524,524,524,524,524,524,524,524,524,524,524,525,530,534,537,543,546,549,552,554,556,556,556,556,556,500,452,396,378,329,215,155,118,90],"timestamp_mouse":[11,43,51,71,92,112,130,152,171,191,211,231,250,271,292,311,331,352,371,390,411,431,450,471,491,511,531,550,572,591,611,631,650,671,690,711,731,750,770],"xSR":741.5,"ySR":469.95,"xT1":424.9,"yT1":0,"xT2":1058.1,"yT2":0,"toosoon":0,"cond_shown":"equaldotanddens","ratio_trial":750,"smaller_num":"6","larger_num":"8","correct_side":1,"subjID":"ELIZABETHCAMACHOFONSECA39","gender":"1","age":"10","school":"6"},{"start_time":1551883200509,"click_time":1551883201097,"finger_time":1551883200979,"fix_duration":410.87809064250547,"trial":47,"RT":470,"MT":118,"sideResp":2,"stimulus":"img/500/randomdotsizeEA/R/9_Ratio_500_L_2_R_4.png","xmouse":[781,781,781,781,781,781,781,781,781,781,781,781,781,781,781,781,781,781,781,780,782,790,808,839,919,956,1020,1044,1095,1129],"ymouse":[522,522,522,522,522,522,522,522,522,522,522,522,522,522,522,522,522,522,522,522,515,502,478,440,348,303,225,196,116,21],"timestamp_mouse":[9,30,51,69,89,109,128,150,170,190,208,229,250,268,288,309,329,350,369,388,409,430,448,470,489,509,529,549,569,588],"xSR":741.5,"ySR":469.95,"xT1":424.9,"yT1":0,"xT2":1058.1,"yT2":0,"toosoon":0,"cond_shown":"randomdotsizeEA","ratio_trial":500,"smaller_num":"2","larger_num":"4","correct_side":2,"subjID":"ELIZABETHCAMACHOFONSECA39","gender":"1","age":"10","school":"6"},{"start_time":1551883202150,"click_time":1551883202879,"finger_time":1551883202598,"fix_duration":250,"trial":48,"RT":448,"MT":281,"sideResp":2,"stimulus":"img/500/equaldotsize/L/5_Ratio_500_L_4_R_2.png","xmouse":[782,781,781,779,779,779,778,778,778,778,778,778,778,778,778,777,777,777,777,777,777,785,814,842,931,964,1057,1117,1127,1131,1132,1132,1128,1128,1129,1139,1143],"ymouse":[535,534,534,534,534,534,534,534,534,534,534,534,534,534,533,533,532,529,527,525,518,505,469,441,372,346,268,214,197,187,180,171,151,145,135,108,89],"timestamp_mouse":[8,28,47,68,87,107,128,148,168,189,208,229,248,268,288,308,329,348,368,387,407,427,448,469,487,508,529,548,567,588,609,628,648,667,688,708,729],"xSR":741.5,"ySR":469.95,"xT1":424.9,"yT1":0,"xT2":1058.1,"yT2":0,"toosoon":0,"cond_shown":"equaldotsize","ratio_trial":500,"smaller_num":"2","larger_num":"4","correct_side":1,"subjID":"ELIZABETHCAMACHOFONSECA39","gender":"1","age":"10","school":"6"},{"start_time":1551883204110,"click_time":1551883204697,"finger_time":1551883204579,"fix_duration":491.60782814712303,"trial":49,"RT":469,"MT":118,"sideResp":2,"stimulus":"img/250/randomdotsizeEA/R/10_Ratio_250_L_4_R_16.png","xmouse":[753,753,753,753,753,753,753,753,753,753,753,753,753,753,752,752,752,751,751,749,749,749,750,759,813,858,918,979,1061,1148],"ymouse":[517,517,517,517,517,517,516,516,516,516,516,516,516,515,514,514,513,512,509,505,501,494,484,468,405,351,284,223,149,81],"timestamp_mouse":[9,36,48,68,87,109,128,148,167,187,209,228,249,268,288,307,328,348,369,387,409,427,449,468,487,507,527,548,568,587],"xSR":741.5,"ySR":469.95,"xT1":424.9,"yT1":0,"xT2":1058.1,"yT2":0,"toosoon":0,"cond_shown":"randomdotsizeEA","ratio_trial":250,"smaller_num":"4","larger_num":"16","correct_side":2,"subjID":"ELIZABETHCAMACHOFONSECA39","gender":"1","age":"10","school":"6"},{"start_time":1551883207006,"click_time":1551883207878,"finger_time":1551883207538,"fix_duration":1246.238652519494,"trial":50,"RT":532,"MT":340,"sideResp":1,"stimulus":"img/500/equaldotanddens/L/13_Ratio_500_L_12_R_6.png","xmouse":[772,772,772,772,772,772,772,772,772,772,772,772,772,772,772,772,772,772,772,772,773,773,773,773,773,768,757,732,693,621,608,600,594,585,574,569,563,546,526,493,483,476,472,467],"ymouse":[546,546,546,546,546,546,546,546,546,546,546,546,546,546,546,546,546,546,546,546,545,544,542,534,512,493,469,429,367,246,227,216,208,197,186,184,180,169,160,136,123,114,106,99],"timestamp_mouse":[13,42,52,72,91,112,133,153,172,192,212,233,252,271,292,312,332,352,371,393,411,432,452,472,491,512,532,552,572,591,611,632,652,673,692,713,732,753,772,791,812,832,852,871],"xSR":741.5,"ySR":469.95,"xT1":424.9,"yT1":0,"xT2":1058.1,"yT2":0,"toosoon":0,"cond_shown":"equaldotanddens","ratio_trial":500,"smaller_num":"6","larger_num":"12","correct_side":1,"subjID":"ELIZABETHCAMACHOFONSECA39","gender":"1","age":"10","school":"6"},{"start_time":1551883209276,"click_time":1551883210060,"finger_time":1551883209960,"fix_duration":456.5017447424945,"trial":51,"RT":684,"MT":100,"sideResp":1,"stimulus":"img/250/equaldotsize/L/14_Ratio_250_L_12_R_3.png","xmouse":[772,772,772,772,772,772,772,772,772,772,772,772,773,775,776,778,778,778,779,779,779,781,782,783,784,784,785,785,785,785,783,777,773,761,742,709,607,561,522,490],"ymouse":[528,528,528,528,528,528,528,528,528,528,528,528,528,528,528,527,527,527,526,526,526,524,523,520,516,511,506,503,500,497,492,486,482,471,454,421,300,217,126,20],"timestamp_mouse":[8,23,43,62,82,102,122,142,162,183,202,223,243,262,283,302,323,344,362,382,403,422,443,462,484,502,524,543,562,582,603,622,642,662,684,702,722,742,762,783],"xSR":741.5,"ySR":469.95,"xT1":424.9,"yT1":0,"xT2":1058.1,"yT2":0,"toosoon":0,"cond_shown":"equaldotsize","ratio_trial":250,"smaller_num":"3","larger_num":"12","correct_side":1,"subjID":"ELIZABETHCAMACHOFONSECA39","gender":"1","age":"10","school":"6"},{"start_time":1551883212138,"click_time":1551883212640,"finger_time":1551883212558,"fix_duration":938.0034012507963,"trial":52,"RT":420,"MT":82,"sideResp":1,"stimulus":"img/500/equaldotanddens/L/13_Ratio_500_L_12_R_6.png","xmouse":[832,832,832,832,832,832,832,831,829,829,829,829,829,829,829,829,828,822,799,782,757,715,663,544,492,454],"ymouse":[527,527,527,527,527,527,527,527,526,525,525,525,525,525,525,525,525,522,512,502,485,450,399,233,142,76],"timestamp_mouse":[11,20,41,61,80,100,121,141,161,181,200,220,241,260,280,300,320,341,360,380,401,420,441,461,481,502],"xSR":741.5,"ySR":469.95,"xT1":424.9,"yT1":0,"xT2":1058.1,"yT2":0,"toosoon":0,"cond_shown":"equaldotanddens","ratio_trial":500,"smaller_num":"6","larger_num":"12","correct_side":1,"subjID":"ELIZABETHCAMACHOFONSECA39","gender":"1","age":"10","school":"6"},{"start_time":1551883214021,"click_time":1551883214698,"finger_time":1551883214458,"fix_duration":280.1967427422343,"trial":53,"RT":437,"MT":240,"sideResp":1,"stimulus":"img/500/randomdotsizeEA/L/8_Ratio_500_L_8_R_4.png","xmouse":[778,778,778,778,778,778,778,778,778,779,779,779,779,779,779,779,779,780,780,776,764,743,698,640,611,586,565,554,539,533,525,515,506,499],"ymouse":[510,510,510,510,510,510,510,510,510,510,510,510,510,510,510,510,510,510,508,498,478,451,398,322,281,243,213,194,169,158,144,128,111,98],"timestamp_mouse":[18,38,59,78,98,118,138,157,177,197,217,238,257,277,297,319,338,357,378,398,418,437,457,477,498,517,538,557,577,597,617,637,658,677],"xSR":741.5,"ySR":469.95,"xT1":424.9,"yT1":0,"xT2":1058.1,"yT2":0,"toosoon":0,"cond_shown":"randomdotsizeEA","ratio_trial":500,"smaller_num":"4","larger_num":"8","correct_side":1,"subjID":"ELIZABETHCAMACHOFONSECA39","gender":"1","age":"10","school":"6"},{"start_time":1551883216472,"click_time":1551883217079,"finger_time":1551883216798,"fix_duration":772.9400481421819,"trial":54,"RT":326,"MT":281,"sideResp":2,"stimulus":"img/250/randomdotsizeEA/R/10_Ratio_250_L_4_R_16.png","xmouse":[817,817,817,817,817,817,817,817,817,817,817,817,817,817,817,817,824,826,827,827,827,833,862,914,959,992,1023,1032,1040,1052,1073],"ymouse":[495,495,495,495,495,495,495,495,495,495,495,495,495,495,492,490,461,446,433,406,384,280,203,124,77,53,41,41,41,41,31],"timestamp_mouse":[10,40,47,68,86,107,126,146,167,187,206,227,248,266,287,308,326,347,366,387,407,426,446,466,486,506,526,546,566,586,607],"xSR":741.5,"ySR":469.95,"xT1":424.9,"yT1":0,"xT2":1058.1,"yT2":0,"toosoon":0,"cond_shown":"randomdotsizeEA","ratio_trial":250,"smaller_num":"4","larger_num":"16","correct_side":2,"subjID":"ELIZABETHCAMACHOFONSECA39","gender":"1","age":"10","school":"6"},{"start_time":1551883218386,"click_time":1551883219158,"finger_time":1551883218759,"fix_duration":406.95492828613067,"trial":55,"RT":373,"MT":399,"sideResp":2,"stimulus":"img/750/equaldotsize/R/3_Ratio_750_L_15_R_20.png","xmouse":[810,810,810,810,810,809,809,809,809,808,806,805,804,803,801,801,801,808,831,866,964,1004,1030,1039,1039,1039,1039,1039,1039,1039,1039,1039,1039,1039,1039,1039,1039,1039,1108],"ymouse":[514,514,514,514,514,514,514,514,514,514,512,512,511,511,510,506,499,481,453,408,293,233,171,106,6,6,6,6,6,6,6,6,6,6,6,6,6,6,3],"timestamp_mouse":[16,46,52,72,93,112,133,153,172,193,213,232,253,273,292,313,333,352,373,392,413,433,452,473,493,512,532,552,572,592,613,633,652,673,693,712,732,753,772],"xSR":741.5,"ySR":469.95,"xT1":424.9,"yT1":0,"xT2":1058.1,"yT2":0,"toosoon":0,"cond_shown":"equaldotsize","ratio_trial":750,"smaller_num":"15","larger_num":"20","correct_side":2,"subjID":"ELIZABETHCAMACHOFONSECA39","gender":"1","age":"10","school":"6"},{"start_time":1551883222253,"click_time":1551883222919,"finger_time":1551883222678,"fix_duration":774.6355487689855,"trial":56,"RT":425,"MT":241,"sideResp":2,"stimulus":"img/500/equaldotanddens/R/6_Ratio_500_L_9_R_18.png","xmouse":[806,806,806,806,806,806,806,806,806,806,806,806,806,806,806,806,806,806,806,807,811,833,892,923,951,974,990,1016,1023,1027,1029,1036,1056,1059],"ymouse":[497,497,497,497,497,497,497,497,497,497,497,497,497,497,497,497,497,497,497,486,478,428,306,245,193,146,109,48,34,28,27,20,6,2],"timestamp_mouse":[9,38,46,66,85,105,125,145,166,185,206,226,246,267,286,306,327,345,366,385,406,425,445,467,485,505,526,545,565,586,605,626,645,666],"xSR":741.5,"ySR":469.95,"xT1":424.9,"yT1":0,"xT2":1058.1,"yT2":0,"toosoon":0,"cond_shown":"equaldotanddens","ratio_trial":500,"smaller_num":"9","larger_num":"18","correct_side":2,"subjID":"ELIZABETHCAMACHOFONSECA39","gender":"1","age":"10","school":"6"},{"start_time":1551883225635,"click_time":1551883226720,"finger_time":1551883226019,"fix_duration":514.5029975944077,"trial":57,"RT":384,"MT":701,"sideResp":2,"stimulus":"img/900/randomdotsizeEA/R/5_Ratio_900_L_9_R_10.png","xmouse":[788,788,788,788,788,788,788,788,788,788,788,788,788,788,788,791,794,800,820,827,833,839,858,903,923,944,958,965,975,977,985,999,1015,1015,1015,1015,1015,1015,1015,1015,1015,1015,1015,1015,1015,1015,1015,1015,1015,1015,1015,1015,1015,1015,1093],"ymouse":[506,506,506,506,506,506,506,506,506,506,506,506,506,506,504,499,495,488,471,465,460,453,431,381,353,322,301,288,246,215,160,68,16,16,16,16,16,16,16,16,16,16,16,16,16,16,16,16,16,16,16,16,16,16,3],"timestamp_mouse":[9,37,44,64,84,104,123,144,163,184,203,225,244,265,283,303,324,343,363,384,403,424,444,464,484,504,524,543,564,583,603,623,644,664,684,704,725,744,764,784,805,824,843,864,883,903,923,944,964,983,1003,1023,1043,1063,1084],"xSR":741.5,"ySR":469.95,"xT1":424.9,"yT1":0,"xT2":1058.1,"yT2":0,"toosoon":0,"cond_shown":"randomdotsizeEA","ratio_trial":900,"smaller_num":"9","larger_num":"10","correct_side":2,"subjID":"ELIZABETHCAMACHOFONSECA39","gender":"1","age":"10","school":"6"},{"start_time":1551883228960,"click_time":1551883229680,"finger_time":1551883229459,"fix_duration":1219.8772617619884,"trial":58,"RT":499,"MT":221,"sideResp":2,"stimulus":"img/250/randomdotsizeEA/R/9_Ratio_250_L_3_R_12.png","xmouse":[772,772,772,773,773,774,776,779,781,783,786,791,794,800,803,809,815,818,818,818,819,821,825,833,852,867,903,927,947,971,999,1056,1076,1089,1114,1133],"ymouse":[536,536,536,536,535,535,535,533,533,532,531,529,527,525,525,524,523,523,523,523,522,521,519,514,499,489,461,443,426,401,365,282,237,190,118,72],"timestamp_mouse":[18,38,59,79,98,118,139,159,179,198,218,239,259,278,299,319,338,359,378,398,418,439,458,478,498,519,538,560,578,599,619,638,658,678,698,719],"xSR":741.5,"ySR":469.95,"xT1":424.9,"yT1":0,"xT2":1058.1,"yT2":0,"toosoon":0,"cond_shown":"randomdotsizeEA","ratio_trial":250,"smaller_num":"3","larger_num":"12","correct_side":2,"subjID":"ELIZABETHCAMACHOFONSECA39","gender":"1","age":"10","school":"6"},{"start_time":1551883231319,"click_time":1551883231898,"finger_time":1551883231800,"fix_duration":459.04465694200104,"trial":59,"RT":481,"MT":98,"sideResp":2,"stimulus":"img/250/equaldotanddens/R/10_Ratio_250_L_4_R_16.png","xmouse":[792,792,792,792,792,792,792,792,792,792,792,792,792,792,792,792,792,792,794,796,798,802,813,847,883,927,1000,1049,1139],"ymouse":[512,512,512,512,512,512,512,512,512,512,512,512,512,512,512,512,512,511,507,504,499,493,477,433,398,358,268,195,79],"timestamp_mouse":[19,40,59,81,100,119,140,159,181,200,220,240,259,280,300,320,340,359,379,399,420,440,459,481,499,519,539,560,579],"xSR":741.5,"ySR":469.95,"xT1":424.9,"yT1":0,"xT2":1058.1,"yT2":0,"toosoon":0,"cond_shown":"equaldotanddens","ratio_trial":250,"smaller_num":"4","larger_num":"16","correct_side":2,"subjID":"ELIZABETHCAMACHOFONSECA39","gender":"1","age":"10","school":"6"},{"start_time":1551883234069,"click_time":1551883235199,"finger_time":1551883234738,"fix_duration":1269.3810361166913,"trial":60,"RT":669,"MT":461,"sideResp":1,"stimulus":"img/750/equaldotanddens/L/6_Ratio_750_L_24_R_18.png","xmouse":[782,782,782,782,782,782,782,782,782,782,782,782,782,782,782,782,782,782,782,782,782,782,782,782,782,782,782,782,782,782,782,768,751,727,702,688,674,666,657,648,627,582,564,545,528,509,483,477,474,474,474,470,468,465,459,451,449],"ymouse":[513,513,513,513,513,513,513,513,513,513,513,513,513,513,513,513,513,513,513,513,513,513,513,513,513,513,513,513,513,513,511,495,479,455,423,401,376,367,356,348,335,309,300,286,271,252,215,202,189,185,174,155,148,138,121,100,89],"timestamp_mouse":[9,41,50,69,89,109,129,149,169,189,210,229,249,270,291,309,329,349,371,389,409,429,451,470,489,509,529,549,569,589,610,629,649,669,689,709,729,750,769,789,809,829,849,870,889,911,930,949,969,991,1009,1029,1049,1069,1089,1109,1130],"xSR":741.5,"ySR":469.95,"xT1":424.9,"yT1":0,"xT2":1058.1,"yT2":0,"toosoon":0,"cond_shown":"equaldotanddens","ratio_trial":750,"smaller_num":"18","larger_num":"24","correct_side":1,"subjID":"ELIZABETHCAMACHOFONSECA39","gender":"1","age":"10","school":"6"},{"start_time":1551883236581,"click_time":1551883237680,"finger_time":1551883237299,"fix_duration":461.54287658664697,"trial":61,"RT":718,"MT":381,"sideResp":2,"stimulus":"img/750/equaldotsize/R/2_Ratio_750_L_6_R_8.png","xmouse":[763,763,763,763,763,763,763,763,763,763,763,763,763,763,763,763,763,763,763,763,763,763,763,763,763,763,763,763,764,767,777,782,794,800,820,862,891,924,959,994,1027,1034,1035,1036,1036,1040,1047,1055,1061,1067,1077,1079,1083,1087,1090],"ymouse":[526,526,526,526,526,526,526,526,526,526,526,526,526,526,526,526,526,526,526,526,526,526,526,526,526,526,526,526,526,524,520,517,508,502,472,409,368,330,299,276,254,248,247,245,241,224,209,192,176,162,140,133,125,110,97],"timestamp_mouse":[18,42,57,77,97,117,137,159,178,197,217,238,257,277,298,318,337,357,377,397,417,437,457,477,497,517,537,557,578,597,617,637,657,677,698,718,739,757,777,797,817,837,857,877,897,917,938,958,977,997,1017,1038,1057,1078,1098],"xSR":741.5,"ySR":469.95,"xT1":424.9,"yT1":0,"xT2":1058.1,"yT2":0,"toosoon":0,"cond_shown":"equaldotsize","ratio_trial":750,"smaller_num":"6","larger_num":"8","correct_side":2,"subjID":"ELIZABETHCAMACHOFONSECA39","gender":"1","age":"10","school":"6"},{"start_time":1551883239111,"click_time":1551883239998,"finger_time":1551883239619,"fix_duration":612.7783648862306,"trial":62,"RT":508,"MT":379,"sideResp":2,"stimulus":"img/500/randomdotsizeEA/R/14_Ratio_500_L_5_R_10.png","xmouse":[787,787,787,787,787,787,787,787,787,787,787,787,787,787,787,787,787,787,787,787,787,786,786,787,805,825,862,878,917,972,999,1020,1040,1056,1078,1082,1087,1089,1092,1095,1106,1109,1112,1112,1112],"ymouse":[534,534,534,534,534,534,534,534,534,534,534,534,534,534,534,534,534,534,534,534,534,534,530,518,473,441,382,359,311,258,235,218,205,193,178,175,172,170,167,162,142,132,122,115,98],"timestamp_mouse":[9,36,48,68,88,108,127,147,168,188,209,229,247,268,288,308,327,347,368,387,408,427,447,467,487,508,529,547,568,587,609,628,647,667,688,708,728,748,768,787,807,827,848,867,887],"xSR":741.5,"ySR":469.95,"xT1":424.9,"yT1":0,"xT2":1058.1,"yT2":0,"toosoon":0,"cond_shown":"randomdotsizeEA","ratio_trial":500,"smaller_num":"5","larger_num":"10","correct_side":2,"subjID":"ELIZABETHCAMACHOFONSECA39","gender":"1","age":"10","school":"6"},{"start_time":1551883241472,"click_time":1551883242098,"finger_time":1551883242018,"fix_duration":612.892682744301,"trial":63,"RT":546,"MT":80,"sideResp":1,"stimulus":"img/900/equaldotanddens/R/6_Ratio_900_L_9_R_10.png","xmouse":[814,814,815,818,819,819,819,819,819,819,819,819,819,819,819,819,817,816,816,816,816,815,815,813,811,806,772,731,685,635,579,454],"ymouse":[530,530,531,531,531,531,531,531,531,531,531,531,531,531,531,531,531,531,531,531,530,530,530,529,526,521,481,433,377,309,212,16],"timestamp_mouse":[10,26,47,67,87,107,127,148,166,187,207,227,247,267,286,306,326,346,366,388,407,427,446,467,487,507,526,546,566,586,607,626],"xSR":741.5,"ySR":469.95,"xT1":424.9,"yT1":0,"xT2":1058.1,"yT2":0,"toosoon":0,"cond_shown":"equaldotanddens","ratio_trial":900,"smaller_num":"9","larger_num":"10","correct_side":2,"subjID":"ELIZABETHCAMACHOFONSECA39","gender":"1","age":"10","school":"6"},{"start_time":1551883243281,"click_time":1551883243719,"finger_time":1551883243639,"fix_duration":262.9475311333116,"trial":64,"RT":358,"MT":80,"sideResp":2,"stimulus":"img/500/equaldotsize/L/7_Ratio_500_L_10_R_5.png","xmouse":[765,765,765,765,765,765,765,765,765,765,765,765,765,765,766,782,801,834,880,953,1051,1088],"ymouse":[519,519,519,519,519,519,519,519,519,519,519,519,519,518,517,495,470,433,385,296,157,98],"timestamp_mouse":[21,48,57,78,97,117,137,158,178,197,217,237,259,278,298,317,339,358,377,397,417,437],"xSR":741.5,"ySR":469.95,"xT1":424.9,"yT1":0,"xT2":1058.1,"yT2":0,"toosoon":0,"cond_shown":"equaldotsize","ratio_trial":500,"smaller_num":"5","larger_num":"10","correct_side":1,"subjID":"ELIZABETHCAMACHOFONSECA39","gender":"1","age":"10","school":"6"},{"start_time":1551883245463,"click_time":1551883246298,"finger_time":1551883245939,"fix_duration":802.7840499886814,"trial":65,"RT":476,"MT":359,"sideResp":1,"stimulus":"img/750/equaldotanddens/L/9_Ratio_750_L_4_R_3.png","xmouse":[763,763,763,763,763,763,763,763,763,763,763,763,763,763,763,763,763,763,763,763,763,763,762,758,750,742,714,690,663,632,595,563,555,552,552,552,550,546,540,534,525,513],"ymouse":[505,505,505,505,505,505,505,505,505,505,505,505,505,505,505,505,505,505,504,503,500,486,473,452,432,405,339,299,258,217,172,144,137,136,135,135,133,127,119,111,99,88],"timestamp_mouse":[16,36,55,75,95,116,135,155,175,195,215,236,255,275,296,315,335,355,376,395,416,436,456,476,496,515,536,555,575,596,615,635,657,675,696,715,735,755,775,795,817,835],"xSR":741.5,"ySR":469.95,"xT1":424.9,"yT1":0,"xT2":1058.1,"yT2":0,"toosoon":0,"cond_shown":"equaldotanddens","ratio_trial":750,"smaller_num":"3","larger_num":"4","correct_side":1,"subjID":"ELIZABETHCAMACHOFONSECA39","gender":"1","age":"10","school":"6"},{"start_time":1551883247994,"click_time":1551883248679,"finger_time":1551883248478,"fix_duration":1112.1449043325078,"trial":66,"RT":484,"MT":201,"sideResp":2,"stimulus":"img/250/randomdotsizeEA/L/5_Ratio_250_L_24_R_6.png","xmouse":[773,773,773,773,773,773,773,773,773,773,773,773,773,773,773,773,773,773,773,773,777,784,794,810,839,911,957,996,1025,1044,1065,1072,1081,1092,1113],"ymouse":[521,521,521,521,521,521,521,521,521,520,518,518,517,517,517,517,516,514,512,510,499,492,484,476,460,404,363,320,279,245,190,167,144,121,86],"timestamp_mouse":[12,24,44,65,85,104,124,145,165,185,205,224,246,265,285,304,325,345,364,384,405,425,445,465,484,504,525,544,565,584,605,625,646,665,684],"xSR":741.5,"ySR":469.95,"xT1":424.9,"yT1":0,"xT2":1058.1,"yT2":0,"toosoon":0,"cond_shown":"randomdotsizeEA","ratio_trial":250,"smaller_num":"6","larger_num":"24","correct_side":1,"subjID":"ELIZABETHCAMACHOFONSECA39","gender":"1","age":"10","school":"6"},{"start_time":1551883249993,"click_time":1551883250798,"finger_time":1551883250480,"fix_duration":373.3007391974674,"trial":67,"RT":487,"MT":318,"sideResp":1,"stimulus":"img/900/equaldotanddens/R/5_Ratio_900_L_9_R_10.png","xmouse":[776,776,776,776,776,776,776,776,776,776,776,776,776,776,776,776,776,776,776,776,776,775,773,762,752,722,701,678,662,647,615,603,592,587,581,565,556,546,535,525,510],"ymouse":[522,522,522,522,522,522,522,522,522,522,522,522,522,522,522,522,522,522,522,522,521,517,511,485,461,368,309,261,225,197,158,145,137,132,125,102,91,78,62,49,34],"timestamp_mouse":[7,39,46,66,86,106,125,145,165,186,205,226,246,266,286,307,326,345,367,386,405,427,446,466,487,505,526,546,566,585,605,625,645,665,685,706,726,745,766,786,805],"xSR":741.5,"ySR":469.95,"xT1":424.9,"yT1":0,"xT2":1058.1,"yT2":0,"toosoon":0,"cond_shown":"equaldotanddens","ratio_trial":900,"smaller_num":"9","larger_num":"10","correct_side":2,"subjID":"ELIZABETHCAMACHOFONSECA39","gender":"1","age":"10","school":"6"},{"start_time":1551883253336,"click_time":1551883253999,"finger_time":1551883253798,"fix_duration":1257.3384639786452,"trial":68,"RT":462,"MT":201,"sideResp":2,"stimulus":"img/750/randomdotsizeEA/L/1_Ratio_750_L_20_R_15.png","xmouse":[774,774,774,774,774,774,774,774,774,774,774,774,774,774,774,774,774,774,774,775,779,791,811,876,911,954,980,996,1025,1042,1058,1076,1096,1155],"ymouse":[551,551,551,551,551,551,551,551,551,551,551,551,551,551,551,551,551,551,551,547,542,529,514,452,400,333,290,261,219,200,184,169,148,84],"timestamp_mouse":[8,23,42,62,82,102,122,143,163,182,202,223,243,263,283,303,322,342,363,383,403,424,442,462,482,503,523,542,563,583,602,622,643,662],"xSR":741.5,"ySR":469.95,"xT1":424.9,"yT1":0,"xT2":1058.1,"yT2":0,"toosoon":0,"cond_shown":"randomdotsizeEA","ratio_trial":750,"smaller_num":"15","larger_num":"20","correct_side":1,"subjID":"ELIZABETHCAMACHOFONSECA39","gender":"1","age":"10","school":"6"},{"start_time":1551883256169,"click_time":1551883257058,"finger_time":1551883256558,"fix_duration":1310.6974148435786,"trial":69,"RT":389,"MT":500,"sideResp":1,"stimulus":"img/250/equaldotanddens/L/7_Ratio_250_L_8_R_2.png","xmouse":[779,779,779,779,779,779,779,779,779,779,779,779,779,779,779,779,779,779,779,774,768,755,749,741,729,718,694,683,676,669,662,646,641,640,640,640,637,630,620,613,602,585,567,530,471],"ymouse":[509,509,509,509,507,506,504,503,502,501,500,500,500,500,500,500,495,490,482,464,443,380,356,330,290,259,216,203,195,186,176,155,148,145,145,145,144,141,137,134,129,121,117,107,91],"timestamp_mouse":[11,31,51,69,90,110,129,149,169,190,210,229,249,269,289,309,329,350,369,389,410,429,449,470,489,510,529,549,569,590,610,629,650,669,691,710,730,749,769,789,810,829,849,869,889],"xSR":741.5,"ySR":469.95,"xT1":424.9,"yT1":0,"xT2":1058.1,"yT2":0,"toosoon":0,"cond_shown":"equaldotanddens","ratio_trial":250,"smaller_num":"2","larger_num":"8","correct_side":1,"subjID":"ELIZABETHCAMACHOFONSECA39","gender":"1","age":"10","school":"6"},{"start_time":1551883260752,"click_time":1551883261639,"finger_time":1551883261259,"fix_duration":1132.125921121121,"trial":70,"RT":507,"MT":380,"sideResp":1,"stimulus":"img/500/equaldotanddens/R/15_Ratio_500_L_1_R_2.png","xmouse":[771,771,771,771,771,771,771,771,771,771,771,771,771,771,771,771,771,771,771,771,768,766,763,761,758,741,720,661,634,622,610,599,586,586,585,583,582,575,571,567,561,554,539,529,519],"ymouse":[541,541,541,541,541,541,541,541,541,541,540,540,540,537,536,536,536,536,536,532,530,526,521,517,513,489,454,348,300,277,255,236,212,205,200,191,185,166,155,143,131,120,97,85,75],"timestamp_mouse":[10,31,46,66,86,107,127,147,167,187,207,227,246,266,287,306,326,346,366,386,406,426,446,468,487,507,526,547,568,586,606,627,647,667,686,707,727,746,766,787,806,826,847,866,887],"xSR":741.5,"ySR":469.95,"xT1":424.9,"yT1":0,"xT2":1058.1,"yT2":0,"toosoon":0,"cond_shown":"equaldotanddens","ratio_trial":500,"smaller_num":"1","larger_num":"2","correct_side":2,"subjID":"ELIZABETHCAMACHOFONSECA39","gender":"1","age":"10","school":"6"},{"start_time":1551883262749,"click_time":1551883263598,"finger_time":1551883263178,"fix_duration":250,"trial":71,"RT":429,"MT":420,"sideResp":2,"stimulus":"img/250/equaldotsize/R/13_Ratio_250_L_2_R_8.png","xmouse":[786,786,786,786,786,786,786,786,786,786,786,786,786,786,786,786,786,792,801,818,840,872,920,939,971,1011,1057,1073,1087,1091,1093,1095,1104,1107,1109,1110,1110,1110,1110,1112,1114,1120,1135],"ymouse":[531,531,531,531,532,532,532,532,532,532,532,532,532,532,532,532,532,530,520,506,485,461,421,403,374,340,290,270,241,229,221,212,188,177,163,160,155,149,143,134,120,101,56],"timestamp_mouse":[10,37,50,69,89,109,130,149,169,189,210,229,249,271,290,310,329,349,370,389,409,429,450,470,489,510,529,549,571,589,609,631,649,669,690,710,729,749,769,789,809,829,849],"xSR":741.5,"ySR":469.95,"xT1":424.9,"yT1":0,"xT2":1058.1,"yT2":0,"toosoon":0,"cond_shown":"equaldotsize","ratio_trial":250,"smaller_num":"2","larger_num":"8","correct_side":2,"subjID":"ELIZABETHCAMACHOFONSECA39","gender":"1","age":"10","school":"6"},{"start_time":1551883266580,"click_time":1551883267538,"finger_time":1551883266959,"fix_duration":259.91195203981454,"trial":72,"RT":379,"MT":579,"sideResp":1,"stimulus":"img/250/randomdotsizeEA/R/13_Ratio_250_L_2_R_8.png","xmouse":[795,797,797,800,803,808,808,808,808,808,808,808,808,808,808,807,806,805,805,805,808,817,822,823,823,821,795,777,764,755,733,732,732,732,732,732,731,724,713,701,665,641,618,596,556,522,515,514],"ymouse":[540,542,542,528,519,507,507,507,507,507,507,507,507,506,505,498,488,476,460,441,397,371,352,337,310,292,259,241,229,220,201,196,195,195,195,195,195,193,191,187,172,162,152,139,118,104,100,99],"timestamp_mouse":[18,48,59,78,99,119,139,159,178,199,219,239,259,278,299,318,338,359,379,398,418,438,458,478,499,518,538,558,578,599,618,638,658,678,699,718,739,758,778,798,818,838,858,879,898,920,938,958],"xSR":741.5,"ySR":469.95,"xT1":424.9,"yT1":0,"xT2":1058.1,"yT2":0,"toosoon":0,"cond_shown":"randomdotsizeEA","ratio_trial":250,"smaller_num":"2","larger_num":"8","correct_side":2,"subjID":"ELIZABETHCAMACHOFONSECA39","gender":"1","age":"10","school":"6"},{"start_time":1551883269987,"click_time":1551883270899,"finger_time":1551883270439,"fix_duration":1287.622081731481,"trial":73,"RT":452,"MT":460,"sideResp":2,"stimulus":"img/500/equaldotsize/L/8_Ratio_500_L_8_R_4.png","xmouse":[772,773,773,774,774,774,774,774,774,774,774,774,774,774,774,774,774,778,782,786,815,830,844,861,900,1010,1061,1115,1153,1187,1221,1232,1240,1240,1240,1240,1240,1240,1240,1240,1240,1240,1240,1240,1240,1153],"ymouse":[522,522,522,522,522,522,522,522,522,522,522,522,522,522,522,522,521,518,513,507,482,472,461,447,414,321,277,232,191,149,73,40,10,10,10,10,10,10,10,10,10,10,10,10,10,8],"timestamp_mouse":[11,44,52,72,93,113,132,152,171,192,213,233,252,273,293,312,333,352,372,392,412,432,452,471,492,512,532,552,573,592,612,633,653,673,692,713,732,752,772,792,812,831,852,872,893,912],"xSR":741.5,"ySR":469.95,"xT1":424.9,"yT1":0,"xT2":1058.1,"yT2":0,"toosoon":0,"cond_shown":"equaldotsize","ratio_trial":500,"smaller_num":"4","larger_num":"8","correct_side":1,"subjID":"ELIZABETHCAMACHOFONSECA39","gender":"1","age":"10","school":"6"},{"start_time":1551883274360,"click_time":1551883275060,"finger_time":1551883274779,"fix_duration":780.3958282491236,"trial":74,"RT":419,"MT":281,"sideResp":1,"stimulus":"img/500/randomdotsizeEA/L/4_Ratio_500_L_18_R_9.png","xmouse":[753,753,753,753,753,753,753,753,753,753,753,753,753,753,754,756,763,768,775,782,789,797,797,795,780,761,685,641,606,577,558,548,543,537,523],"ymouse":[535,535,535,535,535,535,535,535,535,535,535,535,535,535,534,530,519,510,494,473,446,386,361,332,293,261,173,122,91,69,55,40,32,23,15],"timestamp_mouse":[19,39,58,79,99,120,139,159,179,199,219,240,258,279,300,320,339,359,380,400,419,439,459,478,499,520,538,560,579,599,619,638,659,678,700],"xSR":741.5,"ySR":469.95,"xT1":424.9,"yT1":0,"xT2":1058.1,"yT2":0,"toosoon":0,"cond_shown":"randomdotsizeEA","ratio_trial":500,"smaller_num":"9","larger_num":"18","correct_side":1,"subjID":"ELIZABETHCAMACHOFONSECA39","gender":"1","age":"10","school":"6"},{"start_time":1551883276834,"click_time":1551883277599,"finger_time":1551883277340,"fix_duration":752.4296464972069,"trial":75,"RT":506,"MT":259,"sideResp":2,"stimulus":"img/900/randomdotsizeEA/R/13_Ratio_900_L_18_R_20.png","xmouse":[799,799,799,799,799,799,799,799,799,799,799,799,799,799,799,799,799,799,799,799,799,801,807,824,837,854,872,902,972,995,1014,1032,1039,1050,1060,1070,1077,1088,1111],"ymouse":[532,532,532,532,532,532,532,532,532,532,532,532,532,532,532,532,532,532,532,532,532,532,526,501,483,463,443,409,335,308,283,257,242,214,193,171,151,129,90],"timestamp_mouse":[10,33,45,65,86,106,125,144,166,186,205,226,246,264,286,304,326,345,365,385,405,426,445,465,485,506,525,546,565,584,604,625,646,666,685,705,725,745,765],"xSR":741.5,"ySR":469.95,"xT1":424.9,"yT1":0,"xT2":1058.1,"yT2":0,"toosoon":0,"cond_shown":"randomdotsizeEA","ratio_trial":900,"smaller_num":"18","larger_num":"20","correct_side":2,"subjID":"ELIZABETHCAMACHOFONSECA39","gender":"1","age":"10","school":"6"},{"start_time":1551883280167,"click_time":1551883281299,"finger_time":1551883280560,"fix_duration":346.89924290052767,"trial":76,"RT":393,"MT":739,"sideResp":1,"stimulus":"img/250/randomdotsizeEA/R/6_Ratio_250_L_6_R_24.png","xmouse":[789,788,787,787,786,786,785,784,784,784,784,784,784,784,783,781,773,764,755,744,738,732,728,723,713,706,685,669,645,610,567,515,497,484,465,448,417,408,408,410,419,457,479,510,517,523,523,527,531,532,532,532,532,532,529,526,520],"ymouse":[503,503,502,501,499,498,496,495,495,495,495,495,494,494,493,491,485,479,472,463,456,431,416,401,382,372,343,328,315,300,284,267,259,252,235,220,193,182,173,166,159,149,141,128,125,121,121,116,111,109,106,106,104,102,101,98,96],"timestamp_mouse":[13,32,62,71,92,112,131,153,172,192,212,233,25