[{"start_time":1551899864509,"click_time":1551899870804,"finger_time":1551899864525,"fix_duration":321.80800444290503,"trial":0,"RT":16,"MT":6279,"sideResp":2,"stimulus":[],"xmouse":[813,811,811,810,810,810,810,810,810,810,810,810,810,810,810,810,810,810,810,810,810,810,810,810,810,810,810,810,810,810,810,810,810,810,810,810,810,810,810,810,810,810,810,810,810,810,810,810,810,810,810,810,810,810,810,809,809,809,809,809,809,809,809,809,809,809,809,809,809,809,809,809,809,809,809,809,809,809,809,809,809,809,809,809,809,809,809,809,809,809,809,809,809,809,809,808,808,807,807,807,806,806,805,804,802,800,799,796,794,792,791,791,791,790,790,789,789,789,789,789,789,789,789,789,789,789,789,789,789,789,789,789,789,789,789,789,789,789,789,789,789,789,789,789,789,789,789,789,789,789,789,789,789,789,789,789,789,789,789,789,789,789,789,789,789,789,789,789,789,789,789,789,789,789,789,789,789,789,789,789,789,789,789,789,789,789,789,789,789,789,789,789,790,791,792,792,792,792,792,792,792,792,792,792,792,792,792,792,792,792,792,792,792,792,792,792,792,792,792,792,792,792,792,792,792,792,792,792,792,792,792,792,792,792,792,792,792,792,792,792,792,792,792,792,791,790,788,786,781,763,756,754,754,754,754,754,754,754,756,766,795,810,819,823,827,830,833,840,850,871,879,889,893,894,894,894,895,900,903,906,906,906,906,906,906,906,906,906,906,906,906,906,906,906,906,906,910,915,920,933,937,939,944,952,973,994,1007,1020,1035,1065,1080,1090,1103,1112,1123],"ymouse":[553,551,551,550,550,550,550,550,550,550,550,550,550,550,550,550,550,550,550,550,550,550,550,550,550,550,550,550,550,550,550,550,550,550,550,550,550,550,550,550,550,550,550,550,550,550,550,550,550,550,550,550,550,550,550,550,550,550,550,550,550,550,550,550,550,550,550,550,550,550,550,550,550,550,550,550,550,550,550,550,550,550,550,550,550,550,550,550,550,550,550,550,550,550,550,550,550,553,555,560,562,564,567,572,576,580,581,584,588,593,594,594,594,597,598,600,601,601,601,602,602,602,602,603,603,603,603,603,603,603,603,603,603,603,603,603,603,603,603,603,603,603,603,603,603,603,603,603,603,603,603,603,603,603,603,603,603,603,603,603,603,603,603,603,603,603,603,603,603,603,603,603,603,603,603,603,603,603,603,603,603,603,603,603,603,603,603,603,603,603,603,603,603,603,603,603,603,603,603,603,603,603,603,603,603,603,603,603,603,603,603,603,603,603,603,603,603,603,603,603,603,603,603,603,603,603,603,603,603,603,603,603,603,603,603,603,603,603,603,603,603,602,599,592,572,564,548,525,487,413,390,377,376,376,376,376,376,374,371,362,344,335,330,327,323,319,316,311,307,296,292,288,286,285,285,285,284,281,278,275,275,275,275,275,275,275,275,275,275,275,275,275,275,275,275,275,273,271,270,266,263,262,259,252,236,221,210,200,189,163,148,135,121,111,98],"timestamp_mouse":[16,35,55,75,95,115,136,155,175,195,216,235,255,275,295,315,335,356,375,396,415,435,456,476,495,515,536,555,575,595,616,635,656,675,695,716,735,755,775,795,816,835,855,876,896,915,935,956,976,995,1015,1036,1056,1075,1095,1115,1136,1156,1176,1195,1215,1236,1255,1275,1296,1315,1336,1355,1374,1395,1416,1436,1456,1475,1495,1515,1535,1556,1575,1596,1615,1636,1656,1675,1695,1715,1736,1754,1776,1795,1815,1835,1856,1876,1895,1915,1935,1955,1976,1995,2015,2036,2055,2076,2095,2115,2135,2155,2176,2195,2216,2236,2256,2275,2295,2316,2335,2355,2375,2395,2415,2435,2455,2475,2496,2515,2535,2555,2575,2594,2615,2635,2655,2675,2696,2715,2736,2756,2775,2795,2815,2835,2855,2875,2895,2915,2936,2956,2975,2995,3016,3035,3055,3075,3096,3115,3135,3156,3175,3195,3216,3235,3256,3276,3295,3315,3337,3356,3376,3396,3416,3436,3456,3476,3496,3516,3535,3555,3576,3595,3615,3636,3655,3676,3696,3715,3736,3756,3776,3796,3816,3836,3855,3875,3895,3915,3935,3956,3975,3996,4016,4035,4055,4075,4095,4116,4135,4156,4175,4195,4215,4236,4255,4275,4295,4315,4336,4355,4376,4395,4416,4436,4456,4475,4496,4516,4535,4555,4576,4596,4616,4635,4655,4675,4695,4715,4736,4755,4776,4796,4815,4835,4856,4875,4895,4916,4935,4955,4976,4995,5015,5036,5055,5075,5095,5115,5136,5156,5175,5195,5215,5235,5255,5275,5295,5316,5335,5355,5376,5395,5414,5435,5456,5475,5496,5515,5535,5555,5575,5595,5615,5635,5655,5674,5695,5716,5735,5756,5775,5795,5815,5835,5856,5875,5895,5916,5934,5955,5975,5995,6015,6035,6055,6076,6095,6116,6134,6155,6176,6195,6216,6235,6256,6275,6295],"xSR":741.5,"ySR":469.95,"xT1":424.9,"yT1":0,"xT2":1058.1,"yT2":0,"toosoon":0,"cond_shown":"Congruent","ratio_trial":100,"L_num":10,"L_den":25,"R_num":3,"R_den":10,"correct_side":1,"subjID":"EstebanAndrésViracacháRamírez36","gender":"0","age":"11","school":"6","test":{"fix_dur":[250,1500],"timestim":1000,"targets_dim":[100,100],"targets_relative_coord":[0.3,0.7],"size_stim":[880,420],"start_dim":[100,100],"size_start":[300,300],"size_fix":60,"samplingrate":20,"img_types":["Congruent","Incongruent"],"ratios":[100,200,300],"rep_conds":19,"nTrials":120,"trials_to_rest":500,"Trials_order":[108,57,36,38,51,0,41,33,42,95,10,48,18,24,20,72,111,19,76,104,11,117,2,101,110,119,53,67,86,17,32,45,66,6,90,79,40,97,109,112,87,5,106,15,74,31,16,77,98,25,113,81,64,44,37,1,116,46,68,23,82,27,105,103,83,50,55,115,30,80,58,84,118,14,47,3,12,78,62,29,71,92,114,63,59,61,56,96,22,107,7,89,73,88,49,34,85,8,94,39,35,28,75,99,4,70,9,26,60,93,13,21,69,100,102,65,43,52,91,54],"cond_shown":["Congruent","Incongruent","Congruent","Congruent","Incongruent","Congruent","Incongruent","Incongruent","Congruent","Incongruent","Congruent","Congruent","Congruent","Congruent","Congruent","Congruent","Incongruent","Incongruent","Congruent","Congruent","Incongruent","Incongruent","Congruent","Incongruent","Congruent","Incongruent","Incongruent","Incongruent","Congruent","Incongruent","Congruent","Incongruent","Congruent","Congruent","Congruent","Incongruent","Congruent","Incongruent","Incongruent","Congruent","Incongruent","Incongruent","Congruent","Incongruent","Congruent","Incongruent","Congruent","Incongruent","Congruent","Incongruent","Incongruent","Incongruent","Congruent","Congruent","Incongruent","Incongruent","Congruent","Congruent","Congruent","Incongruent","Congruent","Incongruent","Incongruent","Incongruent","Incongruent","Congruent","Incongruent","Incongruent","Congruent","Congruent","Congruent","Congruent","Congruent","Congruent","Incongruent","Incongruent","Congruent","Congruent","Congruent","Incongruent","Incongruent","Congruent","Congruent","Incongruent","Incongruent","Incongruent","Congruent","Congruent","Congruent","Incongruent","Incongruent","Incongruent","Incongruent","Congruent","Incongruent","Congruent","Incongruent","Congruent","Congruent","Incongruent","Incongruent","Congruent","Incongruent","Incongruent","Congruent","Congruent","Incongruent","Congruent","Congruent","Incongruent","Incongruent","Incongruent","Incongruent","Congruent","Congruent","Incongruent","Incongruent","Congruent","Incongruent","Congruent"],"ratio_trial":[100,200,100,200,200,100,300,200,100,300,300,100,100,100,200,100,200,100,300,200,300,200,200,300,200,300,300,100,200,300,200,200,100,100,100,100,300,100,100,300,200,300,300,200,200,100,300,300,200,100,300,200,300,200,100,100,200,300,200,300,300,200,200,100,300,200,100,100,100,200,300,100,300,200,300,200,100,100,200,300,300,200,100,200,300,100,200,100,300,300,100,300,100,300,100,300,100,200,300,200,300,300,200,200,300,300,200,200,100,200,100,200,200,300,100,300,100,300,100,100],"left_num":[10,14,6,8,14,11,4,14,6,4,5,7,6,3,3,7,1,8,8,1,13,3,3,4,9,4,2,9,20,4,3,3,10,10,11,10,5,8,13,3,7,3,1,14,1,3,20,13,12,10,4,7,4,15,13,12,12,8,6,4,20,6,14,6,13,3,9,4,12,7,24,10,4,7,8,7,4,1,6,13,8,7,1,4,1,6,13,3,20,13,11,4,6,1,6,4,10,16,20,9,4,24,1,6,5,1,4,7,7,4,12,3,14,3,2,13,10,9,17,2],"right_num":[3,6,5,3,6,6,2,12,5,6,7,9,15,4,14,15,2,1,10,21,12,1,14,6,4,2,6,13,9,2,7,11,3,3,4,9,7,1,12,2,12,4,8,12,21,4,9,12,6,9,2,12,13,4,12,2,6,10,7,2,8,3,12,11,12,11,20,8,13,18,8,3,13,18,14,12,6,3,11,12,14,18,3,14,2,11,14,2,13,12,9,6,11,7,13,13,9,12,5,8,2,2,2,3,6,7,1,18,9,6,9,1,6,4,11,12,9,3,10,6],"left_den":[25,30,20,15,30,22,20,30,20,5,25,14,12,20,6,14,3,20,15,2,26,10,10,5,20,20,4,15,25,20,10,4,25,25,22,25,25,20,26,6,10,6,30,30,2,6,25,26,15,25,20,10,20,25,26,30,15,15,12,20,25,20,30,10,26,10,10,8,30,15,30,25,20,15,10,10,8,2,20,26,10,15,2,6,2,10,26,6,25,26,22,5,10,20,10,20,25,20,25,15,20,30,3,20,25,20,30,15,14,5,24,10,30,6,5,26,25,10,30,5],"right_den":[10,9,25,9,9,15,4,18,25,12,14,15,25,16,20,25,15,2,12,30,15,2,28,12,16,4,30,26,15,4,14,20,10,10,10,18,14,2,20,10,24,20,24,18,30,10,18,15,10,18,4,24,26,10,20,4,10,12,10,4,16,6,18,22,15,22,25,20,26,27,16,10,26,27,28,24,10,5,22,15,28,27,5,30,10,22,20,5,26,15,15,12,22,20,26,26,18,20,10,10,4,4,15,6,12,20,3,27,15,10,15,2,9,5,22,15,18,5,15,12],"correct_side":[1,2,1,1,2,1,2,2,1,1,2,2,2,2,2,2,1,2,2,2,2,2,2,1,1,2,1,1,1,2,2,1,1,1,1,2,2,2,2,1,1,1,2,2,2,1,1,2,1,2,2,1,2,1,2,2,1,2,2,2,1,2,2,1,2,2,1,1,2,2,1,1,2,2,1,1,2,2,2,2,1,2,2,1,1,1,2,1,1,2,2,1,1,2,1,2,2,1,1,2,2,1,1,2,2,2,2,2,2,1,2,2,2,2,2,2,2,1,2,2],"img_shown":["img2/100/Congruent/L/C_Dist_100_LN_10_LD_25_RN_3_RD_10_0.png","img2/200/Incongruent/R/I_Dist_200_LN_14_LD_30_RN_6_RD_9_1.png","img2/100/Congruent/L/C_Dist_100_LN_6_LD_20_RN_5_RD_25_0.png","img2/200/Congruent/L/C_Dist_200_LN_8_LD_15_RN_3_RD_9_0.png","img2/200/Incongruent/R/I_Dist_200_LN_14_LD_30_RN_6_RD_9_1.png","img2/100/Congruent/L/C_Dist_100_LN_11_LD_22_RN_6_RD_15_0.png","img2/300/Incongruent/R/I_Dist_300_LN_4_LD_20_RN_2_RD_4_1.png","img2/200/Incongruent/R/I_Dist_200_LN_14_LD_30_RN_12_RD_18_1.png","img2/100/Congruent/L/C_Dist_100_LN_6_LD_20_RN_5_RD_25_0.png","img2/300/Incongruent/L/I_Dist_300_LN_4_LD_5_RN_6_RD_12_0.png","img2/300/Congruent/R/C_Dist_300_LN_5_LD_25_RN_7_RD_14_1.png","img2/100/Congruent/R/C_Dist_100_LN_7_LD_14_RN_9_RD_15_1.png","img2/100/Congruent/R/C_Dist_100_LN_6_LD_12_RN_15_RD_25_1.png","img2/100/Congruent/R/C_Dist_100_LN_3_LD_20_RN_4_RD_16_1.png","img2/200/Congruent/R/C_Dist_200_LN_3_LD_6_RN_14_RD_20_1.png","img2/100/Congruent/R/C_Dist_100_LN_7_LD_14_RN_15_RD_25_1.png","img2/200/Incongruent/L/I_Dist_200_LN_1_LD_3_RN_2_RD_15_0.png","img2/100/Incongruent/R/I_Dist_100_LN_8_LD_20_RN_1_RD_2_1.png","img2/300/Congruent/R/C_Dist_300_LN_8_LD_15_RN_10_RD_12_1.png","img2/200/Congruent/R/C_Dist_200_LN_1_LD_2_RN_21_RD_30_1.png","img2/300/Incongruent/R/I_Dist_300_LN_13_LD_26_RN_12_RD_15_1.png","img2/200/Incongruent/R/I_Dist_200_LN_3_LD_10_RN_1_RD_2_1.png","img2/200/Congruent/R/C_Dist_200_LN_3_LD_10_RN_14_RD_28_1.png","img2/300/Incongruent/L/I_Dist_300_LN_4_LD_5_RN_6_RD_12_0.png","img2/200/Congruent/L/C_Dist_200_LN_9_LD_20_RN_4_RD_16_0.png","img2/300/Incongruent/R/I_Dist_300_LN_4_LD_20_RN_2_RD_4_1.png","img2/300/Incongruent/L/I_Dist_300_LN_2_LD_4_RN_6_RD_30_0.png","img2/100/Incongruent/L/I_Dist_100_LN_9_LD_15_RN_13_RD_26_0.png","img2/200/Congruent/L/C_Dist_200_LN_20_LD_25_RN_9_RD_15_0.png","img2/300/Incongruent/R/I_Dist_300_LN_4_LD_20_RN_2_RD_4_1.png","img2/200/Congruent/R/C_Dist_200_LN_3_LD_10_RN_7_RD_14_1.png","img2/200/Incongruent/L/I_Dist_200_LN_3_LD_4_RN_11_RD_20_0.png","img2/100/Congruent/L/C_Dist_100_LN_10_LD_25_RN_3_RD_10_0.png","img2/100/Congruent/L/C_Dist_100_LN_10_LD_25_RN_3_RD_10_0.png","img2/100/Congruent/L/C_Dist_100_LN_11_LD_22_RN_4_RD_10_0.png","img2/100/Incongruent/R/I_Dist_100_LN_10_LD_25_RN_9_RD_18_1.png","img2/300/Congruent/R/C_Dist_300_LN_5_LD_25_RN_7_RD_14_1.png","img2/100/Incongruent/R/I_Dist_100_LN_8_LD_20_RN_1_RD_2_1.png","img2/100/Incongruent/R/I_Dist_100_LN_13_LD_26_RN_12_RD_20_1.png","img2/300/Congruent/L/C_Dist_300_LN_3_LD_6_RN_2_RD_10_0.png","img2/200/Incongruent/L/I_Dist_200_LN_7_LD_10_RN_12_RD_24_0.png","img2/300/Incongruent/L/I_Dist_300_LN_3_LD_6_RN_4_RD_20_0.png","img2/300/Congruent/R/C_Dist_300_LN_1_LD_30_RN_8_RD_24_1.png","img2/200/Incongruent/R/I_Dist_200_LN_14_LD_30_RN_12_RD_18_1.png","img2/200/Congruent/R/C_Dist_200_LN_1_LD_2_RN_21_RD_30_1.png","img2/100/Incongruent/L/I_Dist_100_LN_3_LD_6_RN_4_RD_10_0.png","img2/300/Congruent/L/C_Dist_300_LN_20_LD_25_RN_9_RD_18_0.png","img2/300/Incongruent/R/I_Dist_300_LN_13_LD_26_RN_12_RD_15_1.png","img2/200/Congruent/L/C_Dist_200_LN_12_LD_15_RN_6_RD_10_0.png","img2/100/Incongruent/R/I_Dist_100_LN_10_LD_25_RN_9_RD_18_1.png","img2/300/Incongruent/R/I_Dist_300_LN_4_LD_20_RN_2_RD_4_1.png","img2/200/Incongruent/L/I_Dist_200_LN_7_LD_10_RN_12_RD_24_0.png","img2/300/Congruent/R/C_Dist_300_LN_4_LD_20_RN_13_RD_26_1.png","img2/200/Congruent/L/C_Dist_200_LN_15_LD_25_RN_4_RD_10_0.png","img2/100/Incongruent/R/I_Dist_100_LN_13_LD_26_RN_12_RD_20_1.png","img2/100/Incongruent/R/I_Dist_100_LN_12_LD_30_RN_2_RD_4_1.png","img2/200/Congruent/L/C_Dist_200_LN_12_LD_15_RN_6_RD_10_0.png","img2/300/Congruent/R/C_Dist_300_LN_8_LD_15_RN_10_RD_12_1.png","img2/200/Congruent/R/C_Dist_200_LN_6_LD_12_RN_7_RD_10_1.png","img2/300/Incongruent/R/I_Dist_300_LN_4_LD_20_RN_2_RD_4_1.png","img2/300/Congruent/L/C_Dist_300_LN_20_LD_25_RN_8_RD_16_0.png","img2/200/Incongruent/R/I_Dist_200_LN_6_LD_20_RN_3_RD_6_1.png","img2/200/Incongruent/R/I_Dist_200_LN_14_LD_30_RN_12_RD_18_1.png","img2/100/Incongruent/L/I_Dist_100_LN_6_LD_10_RN_11_RD_22_0.png","img2/300/Incongruent/R/I_Dist_300_LN_13_LD_26_RN_12_RD_15_1.png","img2/200/Congruent/R/C_Dist_200_LN_3_LD_10_RN_11_RD_22_1.png","img2/100/Incongruent/L/I_Dist_100_LN_9_LD_10_RN_20_RD_25_0.png","img2/100/Incongruent/L/I_Dist_100_LN_4_LD_8_RN_8_RD_20_0.png","img2/100/Congruent/R/C_Dist_100_LN_12_LD_30_RN_13_RD_26_1.png","img2/200/Congruent/R/C_Dist_200_LN_7_LD_15_RN_18_RD_27_1.png","img2/300/Congruent/L/C_Dist_300_LN_24_LD_30_RN_8_RD_16_0.png","img2/100/Congruent/L/C_Dist_100_LN_10_LD_25_RN_3_RD_10_0.png","img2/300/Congruent/R/C_Dist_300_LN_4_LD_20_RN_13_RD_26_1.png","img2/200/Congruent/R/C_Dist_200_LN_7_LD_15_RN_18_RD_27_1.png","img2/300/Incongruent/L/I_Dist_300_LN_8_LD_10_RN_14_RD_28_0.png","img2/200/Incongruent/L/I_Dist_200_LN_7_LD_10_RN_12_RD_24_0.png","img2/100/Congruent/R/C_Dist_100_LN_4_LD_8_RN_6_RD_10_1.png","img2/100/Congruent/R/C_Dist_100_LN_1_LD_2_RN_3_RD_5_1.png","img2/200/Congruent/R/C_Dist_200_LN_6_LD_20_RN_11_RD_22_1.png","img2/300/Incongruent/R/I_Dist_300_LN_13_LD_26_RN_12_RD_15_1.png","img2/300/Incongruent/L/I_Dist_300_LN_8_LD_10_RN_14_RD_28_0.png","img2/200/Congruent/R/C_Dist_200_LN_7_LD_15_RN_18_RD_27_1.png","img2/100/Congruent/R/C_Dist_100_LN_1_LD_2_RN_3_RD_5_1.png","img2/200/Incongruent/L/I_Dist_200_LN_4_LD_6_RN_14_RD_30_0.png","img2/300/Incongruent/L/I_Dist_300_LN_1_LD_2_RN_2_RD_10_0.png","img2/100/Incongruent/L/I_Dist_100_LN_6_LD_10_RN_11_RD_22_0.png","img2/200/Congruent/R/C_Dist_200_LN_13_LD_26_RN_14_RD_20_1.png","img2/100/Congruent/L/C_Dist_100_LN_3_LD_6_RN_2_RD_5_0.png","img2/300/Congruent/L/C_Dist_300_LN_20_LD_25_RN_13_RD_26_0.png","img2/300/Incongruent/R/I_Dist_300_LN_13_LD_26_RN_12_RD_15_1.png","img2/100/Incongruent/R/I_Dist_100_LN_11_LD_22_RN_9_RD_15_1.png","img2/300/Incongruent/L/I_Dist_300_LN_4_LD_5_RN_6_RD_12_0.png","img2/100/Incongruent/L/I_Dist_100_LN_6_LD_10_RN_11_RD_22_0.png","img2/300/Congruent/R/C_Dist_300_LN_1_LD_20_RN_7_RD_20_1.png","img2/100/Incongruent/L/I_Dist_100_LN_6_LD_10_RN_13_RD_26_0.png","img2/300/Congruent/R/C_Dist_300_LN_4_LD_20_RN_13_RD_26_1.png","img2/100/Incongruent/R/I_Dist_100_LN_10_LD_25_RN_9_RD_18_1.png","img2/200/Congruent/L/C_Dist_200_LN_16_LD_20_RN_12_RD_20_0.png","img2/300/Congruent/L/C_Dist_300_LN_20_LD_25_RN_5_RD_10_0.png","img2/200/Incongruent/R/I_Dist_200_LN_9_LD_15_RN_8_RD_10_1.png","img2/300/Incongruent/R/I_Dist_300_LN_4_LD_20_RN_2_RD_4_1.png","img2/300/Congruent/L/C_Dist_300_LN_24_LD_30_RN_2_RD_4_0.png","img2/200/Incongruent/L/I_Dist_200_LN_1_LD_3_RN_2_RD_15_0.png","img2/200/Incongruent/R/I_Dist_200_LN_6_LD_20_RN_3_RD_6_1.png","img2/300/Congruent/R/C_Dist_300_LN_5_LD_25_RN_6_RD_12_1.png","img2/300/Congruent/R/C_Dist_300_LN_1_LD_20_RN_7_RD_20_1.png","img2/200/Incongruent/R/I_Dist_200_LN_4_LD_30_RN_1_RD_3_1.png","img2/200/Congruent/R/C_Dist_200_LN_7_LD_15_RN_18_RD_27_1.png","img2/100/Congruent/R/C_Dist_100_LN_7_LD_14_RN_9_RD_15_1.png","img2/200/Incongruent/L/I_Dist_200_LN_4_LD_5_RN_6_RD_10_0.png","img2/100/Incongruent/R/I_Dist_100_LN_12_LD_24_RN_9_RD_15_1.png","img2/200/Incongruent/R/I_Dist_200_LN_3_LD_10_RN_1_RD_2_1.png","img2/200/Incongruent/R/I_Dist_200_LN_14_LD_30_RN_6_RD_9_1.png","img2/300/Congruent/R/C_Dist_300_LN_3_LD_6_RN_4_RD_5_1.png","img2/100/Congruent/R/C_Dist_100_LN_2_LD_5_RN_11_RD_22_1.png","img2/300/Incongruent/R/I_Dist_300_LN_13_LD_26_RN_12_RD_15_1.png","img2/100/Incongruent/R/I_Dist_100_LN_10_LD_25_RN_9_RD_18_1.png","img2/300/Congruent/L/C_Dist_300_LN_9_LD_10_RN_3_RD_5_0.png","img2/100/Incongruent/R/I_Dist_100_LN_17_LD_30_RN_10_RD_15_1.png","img2/100/Congruent/R/C_Dist_100_LN_2_LD_5_RN_6_RD_12_1.png"],"dist100_C":[["C_Dist_100_LN_10_LD_25_RN_3_RD_10_0.png","C_Dist_100_LN_11_LD_22_RN_4_RD_10_0.png","C_Dist_100_LN_11_LD_22_RN_6_RD_15_0.png","C_Dist_100_LN_15_LD_25_RN_13_RD_26_0.png","C_Dist_100_LN_3_LD_6_RN_2_RD_5_0.png","C_Dist_100_LN_6_LD_20_RN_5_RD_25_0.png","C_Dist_100_LN_8_LD_16_RN_2_RD_5_0.png","C_Dist_100_LN_9_LD_15_RN_8_RD_16_0.png"],["C_Dist_100_LN_1_LD_2_RN_18_RD_30_1.png","C_Dist_100_LN_1_LD_2_RN_3_RD_5_1.png","C_Dist_100_LN_12_LD_30_RN_13_RD_26_1.png","C_Dist_100_LN_2_LD_5_RN_11_RD_22_1.png","C_Dist_100_LN_2_LD_5_RN_6_RD_12_1.png","C_Dist_100_LN_3_LD_20_RN_4_RD_16_1.png","C_Dist_100_LN_4_LD_10_RN_15_RD_30_1.png","C_Dist_100_LN_4_LD_8_RN_6_RD_10_1.png","C_Dist_100_LN_6_LD_12_RN_15_RD_25_1.png","C_Dist_100_LN_7_LD_14_RN_15_RD_25_1.png","C_Dist_100_LN_7_LD_14_RN_9_RD_15_1.png"]],"dist100_I":[["I_Dist_100_LN_1_LD_2_RN_8_RD_20_0.png","I_Dist_100_LN_2_LD_4_RN_6_RD_15_0.png","I_Dist_100_LN_2_LD_4_RN_8_RD_20_0.png","I_Dist_100_LN_3_LD_5_RN_11_RD_22_0.png","I_Dist_100_LN_3_LD_5_RN_8_RD_16_0.png","I_Dist_100_LN_3_LD_6_RN_4_RD_10_0.png","I_Dist_100_LN_3_LD_9_RN_7_RD_30_0.png","I_Dist_100_LN_4_LD_8_RN_8_RD_20_0.png","I_Dist_100_LN_6_LD_10_RN_11_RD_22_0.png","I_Dist_100_LN_6_LD_10_RN_13_RD_26_0.png","I_Dist_100_LN_6_LD_10_RN_7_RD_14_0.png","I_Dist_100_LN_9_LD_10_RN_20_RD_25_0.png","I_Dist_100_LN_9_LD_15_RN_13_RD_26_0.png","I_Dist_100_LN_9_LD_15_RN_14_RD_28_0.png"],["I_Dist_100_LN_10_LD_25_RN_8_RD_16_1.png","I_Dist_100_LN_10_LD_25_RN_9_RD_18_1.png","I_Dist_100_LN_11_LD_22_RN_9_RD_15_1.png","I_Dist_100_LN_12_LD_24_RN_9_RD_15_1.png","I_Dist_100_LN_12_LD_30_RN_2_RD_4_1.png","I_Dist_100_LN_13_LD_26_RN_12_RD_20_1.png","I_Dist_100_LN_13_LD_26_RN_6_RD_10_1.png","I_Dist_100_LN_17_LD_30_RN_10_RD_15_1.png","I_Dist_100_LN_6_LD_12_RN_3_RD_5_1.png","I_Dist_100_LN_8_LD_16_RN_6_RD_10_1.png","I_Dist_100_LN_8_LD_20_RN_1_RD_2_1.png","I_Dist_100_LN_9_LD_18_RN_6_RD_10_1.png"]],"dist100_S":[["E_Dist_100_LN_2_LD_12_RN_2_RD_30_0.png","E_Dist_100_LN_6_LD_10_RN_6_RD_12_0.png"],["E_Dist_100_LN_6_LD_12_RN_6_RD_10_1.png"]],"dist200_C":[["C_Dist_200_LN_11_LD_22_RN_3_RD_10_0.png","C_Dist_200_LN_12_LD_15_RN_6_RD_10_0.png","C_Dist_200_LN_12_LD_20_RN_6_RD_15_0.png","C_Dist_200_LN_14_LD_28_RN_6_RD_20_0.png","C_Dist_200_LN_15_LD_25_RN_4_RD_10_0.png","C_Dist_200_LN_16_LD_20_RN_12_RD_20_0.png","C_Dist_200_LN_16_LD_30_RN_9_RD_27_0.png","C_Dist_200_LN_20_LD_25_RN_9_RD_15_0.png","C_Dist_200_LN_21_LD_30_RN_2_RD_4_0.png","C_Dist_200_LN_4_LD_10_RN_3_RD_15_0.png","C_Dist_200_LN_4_LD_8_RN_3_RD_10_0.png","C_Dist_200_LN_6_LD_15_RN_3_RD_15_0.png","C_Dist_200_LN_7_LD_21_RN_2_RD_15_0.png","C_Dist_200_LN_8_LD_15_RN_2_RD_6_0.png","C_Dist_200_LN_8_LD_15_RN_3_RD_9_0.png","C_Dist_200_LN_8_LD_15_RN_7_RD_21_0.png","C_Dist_200_LN_9_LD_20_RN_4_RD_16_0.png"],["C_Dist_200_LN_1_LD_2_RN_21_RD_30_1.png","C_Dist_200_LN_13_LD_26_RN_14_RD_20_1.png","C_Dist_200_LN_3_LD_10_RN_11_RD_22_1.png","C_Dist_200_LN_3_LD_10_RN_14_RD_28_1.png","C_Dist_200_LN_3_LD_10_RN_7_RD_14_1.png","C_Dist_200_LN_3_LD_12_RN_9_RD_20_1.png","C_Dist_200_LN_3_LD_6_RN_14_RD_20_1.png","C_Dist_200_LN_5_LD_10_RN_14_RD_20_1.png","C_Dist_200_LN_6_LD_12_RN_7_RD_10_1.png","C_Dist_200_LN_6_LD_20_RN_11_RD_22_1.png","C_Dist_200_LN_7_LD_15_RN_18_RD_27_1.png","C_Dist_200_LN_9_LD_30_RN_13_RD_26_1.png"]],"dist200_I":[["I_Dist_200_LN_1_LD_2_RN_3_RD_10_0.png","I_Dist_200_LN_1_LD_3_RN_2_RD_15_0.png","I_Dist_200_LN_3_LD_4_RN_11_RD_20_0.png","I_Dist_200_LN_4_LD_5_RN_6_RD_10_0.png","I_Dist_200_LN_4_LD_6_RN_14_RD_30_0.png","I_Dist_200_LN_7_LD_10_RN_12_RD_24_0.png","I_Dist_200_LN_7_LD_10_RN_14_RD_28_0.png","I_Dist_200_LN_7_LD_10_RN_8_RD_16_0.png"],["I_Dist_200_LN_11_LD_20_RN_3_RD_4_1.png","I_Dist_200_LN_14_LD_30_RN_12_RD_18_1.png","I_Dist_200_LN_14_LD_30_RN_6_RD_9_1.png","I_Dist_200_LN_3_LD_10_RN_1_RD_2_1.png","I_Dist_200_LN_4_LD_30_RN_1_RD_3_1.png","I_Dist_200_LN_6_LD_20_RN_3_RD_6_1.png","I_Dist_200_LN_7_LD_15_RN_4_RD_6_1.png","I_Dist_200_LN_7_LD_15_RN_6_RD_9_1.png","I_Dist_200_LN_9_LD_15_RN_8_RD_10_1.png"]],"dist200_S":[["E_Dist_200_LN_3_LD_6_RN_3_RD_10_0.png"],["E_Dist_200_LN_3_LD_10_RN_3_RD_6_1.png"]],"dist300_C":[["C_Dist_300_LN_11_LD_22_RN_1_RD_5_0.png","C_Dist_300_LN_11_LD_22_RN_2_RD_10_0.png","C_Dist_300_LN_11_LD_22_RN_4_RD_20_0.png","C_Dist_300_LN_12_LD_24_RN_2_RD_10_0.png","C_Dist_300_LN_18_LD_20_RN_9_RD_15_0.png","C_Dist_300_LN_20_LD_25_RN_13_RD_26_0.png","C_Dist_300_LN_20_LD_25_RN_14_RD_28_0.png","C_Dist_300_LN_20_LD_25_RN_5_RD_10_0.png","C_Dist_300_LN_20_LD_25_RN_8_RD_16_0.png","C_Dist_300_LN_20_LD_25_RN_9_RD_18_0.png","C_Dist_300_LN_24_LD_30_RN_2_RD_4_0.png","C_Dist_300_LN_24_LD_30_RN_8_RD_16_0.png","C_Dist_300_LN_3_LD_6_RN_2_RD_10_0.png","C_Dist_300_LN_4_LD_10_RN_1_RD_10_0.png","C_Dist_300_LN_4_LD_5_RN_2_RD_4_0.png","C_Dist_300_LN_8_LD_16_RN_1_RD_5_0.png","C_Dist_300_LN_9_LD_10_RN_3_RD_5_0.png"],["C_Dist_300_LN_1_LD_20_RN_7_RD_20_1.png","C_Dist_300_LN_1_LD_3_RN_19_RD_30_1.png","C_Dist_300_LN_1_LD_30_RN_8_RD_24_1.png","C_Dist_300_LN_1_LD_5_RN_11_RD_22_1.png","C_Dist_300_LN_1_LD_5_RN_3_RD_6_1.png","C_Dist_300_LN_1_LD_5_RN_6_RD_12_1.png","C_Dist_300_LN_2_LD_10_RN_12_RD_24_1.png","C_Dist_300_LN_2_LD_20_RN_10_RD_25_1.png","C_Dist_300_LN_3_LD_12_RN_11_RD_20_1.png","C_Dist_300_LN_3_LD_6_RN_4_RD_5_1.png","C_Dist_300_LN_4_LD_20_RN_13_RD_26_1.png","C_Dist_300_LN_5_LD_25_RN_6_RD_12_1.png","C_Dist_300_LN_5_LD_25_RN_7_RD_14_1.png","C_Dist_300_LN_7_LD_14_RN_20_RD_25_1.png","C_Dist_300_LN_8_LD_15_RN_10_RD_12_1.png"]],"dist300_I":[["I_Dist_300_LN_1_LD_2_RN_2_RD_10_0.png","I_Dist_300_LN_1_LD_2_RN_3_RD_15_0.png","I_Dist_300_LN_2_LD_4_RN_6_RD_30_0.png","I_Dist_300_LN_3_LD_6_RN_4_RD_20_0.png","I_Dist_300_LN_4_LD_5_RN_6_RD_12_0.png","I_Dist_300_LN_4_LD_5_RN_8_RD_16_0.png","I_Dist_300_LN_7_LD_10_RN_8_RD_20_0.png","I_Dist_300_LN_8_LD_10_RN_14_RD_28_0.png","I_Dist_300_LN_8_LD_10_RN_9_RD_18_0.png"],["I_Dist_300_LN_13_LD_26_RN_12_RD_15_1.png","I_Dist_300_LN_4_LD_20_RN_2_RD_4_1.png"]],"dist300_S":[["E_Dist_300_LN_9_LD_12_RN_9_RD_20_0.png"],["E_Dist_300_LN_18_LD_30_RN_18_RD_20_1.png","E_Dist_300_LN_3_LD_10_RN_3_RD_5_1.png","E_Dist_300_LN_9_LD_20_RN_9_RD_12_1.png"]],"dist500_C":[["C_Dist_500_LN_10_LD_13_RN_7_RD_26_0.png","C_Dist_500_LN_10_LD_15_RN_4_RD_24_0.png","C_Dist_500_LN_12_LD_16_RN_3_RD_12_0.png","C_Dist_500_LN_12_LD_18_RN_4_RD_24_0.png","C_Dist_500_LN_15_LD_18_RN_5_RD_15_0.png","C_Dist_500_LN_15_LD_20_RN_1_RD_4_0.png","C_Dist_500_LN_18_LD_27_RN_1_RD_6_0.png","C_Dist_500_LN_20_LD_24_RN_1_RD_3_0.png","C_Dist_500_LN_20_LD_24_RN_3_RD_9_0.png","C_Dist_500_LN_20_LD_24_RN_7_RD_21_0.png","C_Dist_500_LN_20_LD_28_RN_3_RD_14_0.png","C_Dist_500_LN_21_LD_28_RN_6_RD_24_0.png","C_Dist_500_LN_22_LD_28_RN_2_RD_7_0.png","C_Dist_500_LN_25_LD_30_RN_9_RD_27_0.png","C_Dist_500_LN_4_LD_6_RN_1_RD_6_0.png","C_Dist_500_LN_5_LD_6_RN_2_RD_6_0.png","C_Dist_500_LN_6_LD_9_RN_1_RD_6_0.png","C_Dist_500_LN_7_LD_10_RN_1_RD_5_0.png","C_Dist_500_LN_8_LD_12_RN_1_RD_6_0.png","C_Dist_500_LN_8_LD_12_RN_4_RD_24_0.png"],["C_Dist_500_LN_1_LD_4_RN_12_RD_16_1.png","C_Dist_500_LN_1_LD_4_RN_9_RD_12_1.png","C_Dist_500_LN_1_LD_9_RN_11_RD_18_1.png","C_Dist_500_LN_10_LD_24_RN_22_RD_24_1.png","C_Dist_500_LN_2_LD_12_RN_10_RD_15_1.png","C_Dist_500_LN_2_LD_12_RN_12_RD_18_1.png","C_Dist_500_LN_2_LD_12_RN_4_RD_6_1.png","C_Dist_500_LN_2_LD_24_RN_7_RD_12_1.png","C_Dist_500_LN_2_LD_5_RN_18_RD_20_1.png","C_Dist_500_LN_2_LD_5_RN_9_RD_10_1.png","C_Dist_500_LN_2_LD_8_RN_12_RD_16_1.png","C_Dist_500_LN_2_LD_8_RN_21_RD_28_1.png","C_Dist_500_LN_3_LD_10_RN_4_RD_5_1.png","C_Dist_500_LN_3_LD_12_RN_15_RD_20_1.png","C_Dist_500_LN_3_LD_30_RN_6_RD_10_1.png","C_Dist_500_LN_3_LD_8_RN_14_RD_16_1.png","C_Dist_500_LN_4_LD_16_RN_15_RD_20_1.png","C_Dist_500_LN_4_LD_24_RN_12_RD_18_1.png","C_Dist_500_LN_5_LD_14_RN_6_RD_7_1.png","C_Dist_500_LN_7_LD_21_RN_20_RD_24_1.png","C_Dist_500_LN_7_LD_28_RN_12_RD_16_1.png","C_Dist_500_LN_7_LD_28_RN_9_RD_12_1.png","C_Dist_500_LN_9_LD_27_RN_20_RD_24_1.png"]],"dist500_I":[["I_Dist_500_LN_2_LD_3_RN_4_RD_24_0.png","I_Dist_500_LN_5_LD_6_RN_6_RD_18_0.png","I_Dist_500_LN_7_LD_8_RN_9_RD_24_0.png"],["I_Dist_500_LN_7_LD_21_RN_5_RD_6_1.png"]],"dist500_S":[["E_Dist_500_LN_6_LD_8_RN_6_RD_24_0.png"],["E_Dist_500_LN_2_LD_12_RN_2_RD_3_1.png","E_Dist_500_LN_6_LD_24_RN_6_RD_8_1.png"]]}},{"start_time":1551899873663,"click_time":1551899875525,"finger_time":1551899875064,"fix_duration":955.4344559589574,"trial":1,"RT":1401,"MT":461,"sideResp":1,"stimulus":[],"xmouse":[783,783,783,783,783,783,783,783,783,783,783,783,783,783,783,783,783,783,783,783,783,783,783,783,783,783,783,783,783,783,783,783,783,783,783,783,783,783,783,783,783,783,783,783,783,783,783,783,783,783,783,783,783,783,783,783,783,783,783,783,783,783,783,783,783,783,783,783,782,778,771,757,706,682,661,646,639,637,637,637,636,632,616,604,591,579,569,546,539,539,539,539,533,521],"ymouse":[604,604,604,604,604,604,604,604,604,604,604,604,604,604,604,604,604,604,604,604,604,604,604,604,604,604,604,604,604,604,604,604,604,604,604,604,604,604,604,604,604,604,604,604,604,604,604,604,604,604,604,604,604,604,604,604,604,604,604,604,604,604,604,604,604,604,604,604,603,588,561,507,195,17,0,0,0,0,0,0,1,10,46,65,79,86,88,89,89,89,89,89,83,68],"timestamp_mouse":[8,21,41,61,81,101,121,142,161,181,201,222,242,262,281,302,321,342,362,382,401,421,441,461,481,501,521,541,561,581,601,622,642,661,682,701,722,742,761,782,802,821,842,861,881,902,922,942,962,982,1001,1022,1041,1061,1081,1101,1121,1142,1161,1181,1202,1221,1242,1261,1281,1301,1321,1342,1361,1381,1401,1421,1441,1461,1482,1501,1521,1541,1561,1582,1602,1621,1641,1661,1681,1701,1721,1741,1761,1781,1801,1821,1842,1861],"xSR":741.5,"ySR":573.95,"xT1":424.9,"yT1":0,"xT2":1058.1,"yT2":0,"toosoon":0,"cond_shown":"Incongruent","ratio_trial":200,"L_num":14,"L_den":30,"R_num":6,"R_den":9,"correct_side":2,"subjID":"EstebanAndrésViracacháRamírez36","gender":"0","school":"6","age":"11"},{"start_time":1551899877031,"click_time":1551899878924,"finger_time":1551899878704,"fix_duration":345.16895123156434,"trial":2,"RT":1673,"MT":220,"sideResp":1,"stimulus":[],"xmouse":[778,778,778,778,778,778,778,778,778,778,778,778,778,778,778,778,778,778,778,778,778,778,778,778,778,778,778,778,778,778,778,778,778,778,778,778,778,778,778,778,778,778,778,778,778,778,778,778,778,778,778,778,778,778,778,778,778,778,778,778,778,778,778,778,778,778,778,778,778,778,778,778,778,778,778,778,778,778,778,778,778,775,746,703,610,583,564,553,547,542,538,536,533,526,520],"ymouse":[631,631,631,631,631,631,631,631,631,631,631,631,631,631,631,631,631,631,631,631,631,631,631,631,631,631,631,631,631,631,631,631,631,631,631,631,631,631,631,631,631,631,631,631,631,631,631,631,631,631,631,631,631,631,631,631,631,631,631,631,631,631,631,631,631,631,631,631,631,631,631,631,631,631,631,631,631,631,631,631,631,621,574,497,327,255,190,152,114,98,89,79,65,37,25],"timestamp_mouse":[14,42,53,74,93,113,134,153,173,193,214,233,254,273,293,314,334,353,373,393,414,434,453,473,493,513,533,554,573,593,613,633,655,673,694,713,733,753,774,794,813,833,853,873,894,914,934,953,973,993,1013,1034,1054,1074,1093,1113,1133,1153,1173,1193,1214,1233,1253,1274,1293,1313,1334,1353,1373,1394,1413,1434,1453,1474,1493,1513,1533,1553,1573,1593,1613,1633,1653,1672,1693,1713,1733,1753,1773,1794,1813,1833,1853,1873,1893],"xSR":741.5,"ySR":573.95,"xT1":424.9,"yT1":0,"xT2":1058.1,"yT2":0,"toosoon":0,"cond_shown":"Congruent","ratio_trial":100,"L_num":6,"L_den":20,"R_num":5,"R_den":25,"correct_side":1,"subjID":"EstebanAndrésViracacháRamírez36","gender":"0","school":"6","age":"11"},{"start_time":1551899880767,"click_time":1551899882364,"finger_time":1551899882104,"fix_duration":901.4843703980749,"trial":3,"RT":1337,"MT":260,"sideResp":1,"stimulus":[],"xmouse":[758,758,758,758,758,758,758,758,758,758,758,758,758,758,758,758,758,758,758,758,758,758,758,758,758,758,758,758,758,758,758,758,758,758,758,758,758,758,758,758,758,758,758,758,758,758,758,758,758,758,758,758,758,758,758,758,758,758,758,758,758,758,758,759,754,746,730,722,701,669,621,576,525,522,521,521,521,521,521,521],"ymouse":[652,652,652,652,652,652,652,652,652,652,652,652,652,652,652,652,652,652,652,652,652,652,652,652,652,652,652,652,652,652,652,652,652,652,652,652,652,652,652,652,652,652,652,652,652,652,652,652,652,652,652,652,652,652,652,652,652,652,652,652,652,652,652,651,638,623,586,558,488,385,284,212,134,124,119,116,109,105,100,96],"timestamp_mouse":[18,42,57,77,97,117,138,157,177,197,217,237,257,278,297,318,338,358,378,397,417,437,457,477,498,517,538,557,578,598,617,637,657,678,698,717,737,758,778,797,817,838,858,878,898,917,937,958,978,998,1017,1038,1057,1077,1097,1117,1137,1157,1177,1198,1217,1237,1257,1277,1297,1317,1337,1357,1377,1398,1418,1437,1458,1477,1497,1518,1537,1557,1577,1597],"xSR":741.5,"ySR":573.95,"xT1":424.9,"yT1":0,"xT2":1058.1,"yT2":0,"toosoon":0,"cond_shown":"Congruent","ratio_trial":200,"L_num":8,"L_den":15,"R_num":3,"R_den":9,"correct_side":1,"subjID":"EstebanAndrésViracacháRamírez36","gender":"0","school":"6","age":"11"},{"start_time":1551899885276,"click_time":1551899886824,"finger_time":1551899886145,"fix_duration":250,"trial":4,"RT":869,"MT":679,"sideResp":1,"stimulus":[],"xmouse":[801,801,801,801,801,801,801,801,801,801,801,801,801,801,801,801,801,801,801,801,801,801,801,801,801,801,801,801,801,801,801,801,801,801,801,801,801,801,801,801,801,792,770,736,686,636,547,514,502,493,484,468,461,454,448,446,445,445,445,445,447,459,466,473,477,481,483,486,491,495,496,498,498,498,498,499,501,501],"ymouse":[617,617,617,617,617,617,617,617,617,617,617,617,617,617,617,617,617,617,617,617,617,617,617,617,617,617,617,617,617,617,617,617,617,617,617,617,617,617,617,617,617,610,593,566,527,489,412,376,358,343,328,302,290,279,272,268,252,242,234,224,218,194,182,169,162,157,154,153,152,150,149,145,142,136,130,121,104,88],"timestamp_mouse":[10,31,48,69,89,108,129,148,169,188,208,229,248,268,288,309,329,348,369,388,408,428,448,468,488,508,529,548,569,588,609,628,649,668,688,709,728,748,769,788,808,828,848,869,888,908,928,949,968,988,1009,1028,1048,1068,1089,1108,1128,1149,1168,1189,1208,1228,1248,1268,1288,1308,1328,1348,1368,1389,1408,1428,1447,1468,1489,1508,1528,1548],"xSR":741.5,"ySR":573.95,"xT1":424.9,"yT1":0,"xT2":1058.1,"yT2":0,"toosoon":0,"cond_shown":"Incongruent","ratio_trial":200,"L_num":14,"L_den":30,"R_num":6,"R_den":9,"correct_side":2,"subjID":"EstebanAndrésViracacháRamírez36","gender":"0","school":"6","age":"11"},{"start_time":1551899888342,"click_time":1551899890144,"finger_time":1551899889765,"fix_duration":437.8436616548973,"trial":5,"RT":1423,"MT":379,"sideResp":1,"stimulus":[],"xmouse":[793,793,793,793,793,793,793,793,793,793,793,793,793,793,793,793,793,793,793,793,793,793,793,793,793,793,793,793,793,793,793,793,793,793,793,793,793,793,793,793,793,793,793,793,793,793,793,793,793,793,793,793,793,793,793,793,793,793,793,793,793,793,793,793,793,793,793,793,793,793,780,764,706,556,459,419,386,370,364,362,360,360,360,364,367,369,372,377,394,407,425],"ymouse":[607,607,607,607,607,607,607,607,607,607,607,607,607,607,607,607,607,607,607,607,607,607,607,607,607,607,607,607,607,607,607,607,607,607,607,607,607,607,607,607,607,607,607,607,607,607,607,607,607,607,607,607,607,607,607,607,607,607,607,607,607,607,607,607,607,607,607,607,607,607,590,565,489,287,143,72,16,0,0,0,0,0,0,0,0,0,0,0,0,2,7],"timestamp_mouse":[12,23,46,62,82,102,123,142,162,183,203,222,242,262,283,302,323,342,363,383,402,423,443,463,482,502,522,542,562,584,602,623,643,662,682,702,723,742,763,783,802,822,843,862,883,903,923,942,962,983,1002,1022,1042,1062,1082,1102,1123,1142,1162,1182,1202,1223,1242,1263,1282,1302,1323,1342,1363,1382,1403,1423,1442,1462,1482,1502,1522,1543,1562,1582,1603,1622,1642,1662,1682,1702,1722,1743,1762,1782,1802],"xSR":741.5,"ySR":573.95,"xT1":424.9,"yT1":0,"xT2":1058.1,"yT2":0,"toosoon":0,"cond_shown":"Congruent","ratio_trial":100,"L_num":11,"L_den":22,"R_num":6,"R_den":15,"correct_side":1,"subjID":"EstebanAndrésViracacháRamírez36","gender":"0","school":"6","age":"11"},{"start_time":1551899894963,"click_time":1551899896544,"finger_time":1551899896444,"fix_duration":436.90236403707763,"trial":6,"RT":1481,"MT":100,"sideResp":1,"stimulus":[],"xmouse":[769,769,769,769,769,769,769,769,769,769,769,769,769,769,769,769,769,769,769,769,769,769,769,769,769,769,769,769,769,769,769,769,769,769,769,769,769,769,769,769,769,769,769,769,769,769,769,769,769,769,769,769,769,769,769,769,769,769,769,769,769,769,769,769,769,769,769,769,769,769,769,769,769,768,751,725,678,571,514,467],"ymouse":[617,617,617,617,617,617,617,617,617,617,617,617,617,617,617,617,617,617,617,617,617,617,617,617,617,617,617,617,617,617,617,617,617,617,617,617,617,617,617,617,617,617,617,617,617,617,617,617,617,617,617,617,617,617,617,617,617,617,617,617,617,617,617,617,617,617,617,617,617,617,617,617,617,608,565,515,443,230,104,14],"timestamp_mouse":[8,21,41,62,81,101,121,141,162,181,201,221,241,261,281,301,322,342,361,381,401,422,441,461,481,501,521,542,562,581,602,621,641,662,681,702,721,742,761,782,801,821,841,861,881,902,922,941,962,981,1001,1021,1042,1062,1081,1101,1121,1142,1161,1181,1201,1221,1241,1262,1282,1301,1322,1341,1361,1382,1401,1421,1441,1462,1481,1501,1521,1541,1561,1581],"xSR":741.5,"ySR":573.95,"xT1":424.9,"yT1":0,"xT2":1058.1,"yT2":0,"toosoon":0,"cond_shown":"Incongruent","ratio_trial":300,"L_num":4,"L_den":20,"R_num":2,"R_den":4,"correct_side":2,"subjID":"EstebanAndrésViracacháRamírez36","gender":"0","school":"6","age":"11"},{"start_time":1551899898115,"click_time":1551899899485,"finger_time":1551899899384,"fix_duration":250,"trial":7,"RT":1269,"MT":101,"sideResp":1,"stimulus":[],"xmouse":[785,785,785,785,785,785,785,785,785,785,785,785,785,785,785,785,785,785,785,785,785,785,785,785,785,785,785,785,785,785,785,785,785,785,785,785,785,785,785,785,785,785,785,785,785,785,785,785,785,785,785,785,785,785,785,785,785,785,785,784,782,769,748,714,602,586,537,503,473],"ymouse":[631,631,631,631,631,631,631,631,631,631,631,631,631,631,631,631,631,631,631,631,631,631,631,631,631,631,631,631,631,631,631,631,631,631,631,631,631,631,631,631,631,631,631,631,631,631,631,631,631,631,631,631,631,631,631,631,631,631,631,631,628,611,593,566,469,445,297,147,42],"timestamp_mouse":[9,29,49,69,90,110,129,149,170,190,209,229,250,269,290,309,329,349,369,390,409,429,449,470,489,509,529,549,570,590,609,630,649,669,689,709,729,750,769,789,809,829,849,870,889,909,929,949,969,990,1010,1029,1050,1069,1089,1110,1129,1149,1170,1189,1209,1229,1249,1269,1290,1310,1329,1349,1369],"xSR":741.5,"ySR":573.95,"xT1":424.9,"yT1":0,"xT2":1058.1,"yT2":0,"toosoon":0,"cond_shown":"Incongruent","ratio_trial":200,"L_num":14,"L_den":30,"R_num":12,"R_den":18,"correct_side":2,"subjID":"EstebanAndrésViracacháRamírez36","gender":"0","school":"6","age":"11"},{"start_time":1551899901149,"click_time":1551899902785,"finger_time":1551899902324,"fix_duration":883.3141513574635,"trial":8,"RT":1175,"MT":461,"sideResp":1,"stimulus":[],"xmouse":[767,767,770,772,772,772,772,772,772,772,772,772,772,772,772,772,772,772,772,772,772,772,772,772,772,772,772,772,772,772,772,772,772,772,772,772,772,772,772,772,772,772,772,772,772,772,772,772,772,772,772,772,772,772,772,772,772,764,741,726,716,703,679,650,629,608,583,560,558,556,556,556,553,550,545,541,536,530,527,521,512,503],"ymouse":[598,598,602,606,606,606,606,606,606,606,606,606,606,606,606,606,606,606,606,606,606,606,606,606,606,606,606,606,606,606,606,606,606,606,606,606,606,606,606,606,606,606,606,606,606,606,606,606,606,606,606,606,606,606,606,606,606,596,582,571,562,551,529,507,492,471,412,340,331,329,328,325,305,292,275,259,239,196,173,144,109,79],"timestamp_mouse":[16,36,55,76,96,115,135,156,175,195,215,236,256,276,296,315,336,355,376,396,416,436,456,476,495,516,536,555,575,596,616,636,655,675,695,716,736,756,776,796,816,836,856,876,896,915,935,956,976,996,1015,1035,1056,1076,1095,1116,1136,1155,1175,1195,1215,1235,1255,1275,1295,1315,1335,1354,1375,1395,1415,1435,1455,1475,1495,1516,1535,1555,1575,1596,1615,1636],"xSR":741.5,"ySR":573.95,"xT1":424.9,"yT1":0,"xT2":1058.1,"yT2":0,"toosoon":0,"cond_shown":"Congruent","ratio_trial":100,"L_num":6,"L_den":20,"R_num":5,"R_den":25,"correct_side":1,"subjID":"EstebanAndrésViracacháRamírez36","gender":"0","school":"6","age":"11"},{"start_time":1551899903872,"click_time":1551899905644,"finger_time":1551899905224,"fix_duration":347.72724612248453,"trial":9,"RT":1352,"MT":420,"sideResp":1,"stimulus":[],"xmouse":[815,815,815,815,815,815,815,815,815,815,815,815,815,815,816,814,812,812,812,812,812,812,812,812,812,812,812,812,812,812,812,812,812,812,812,812,812,812,812,812,812,812,812,812,812,812,812,812,812,812,812,812,812,812,812,812,812,812,811,810,810,804,800,794,788,780,766,748,738,729,723,717,712,705,694,684,670,660,651,639,626,600,590,582,575,565,551,529,519],"ymouse":[655,655,655,655,655,655,655,655,655,655,655,655,655,655,654,652,650,650,650,650,650,650,650,650,650,650,650,650,650,650,650,650,650,650,650,650,650,650,650,650,650,650,650,650,650,650,650,650,650,650,650,650,650,650,650,650,650,650,649,647,645,639,634,630,624,614,582,550,529,507,485,460,446,425,400,379,354,341,329,314,299,266,249,229,205,170,124,63,48],"timestamp_mouse":[13,33,52,73,93,112,132,152,172,192,213,233,253,273,292,313,332,352,373,392,412,432,453,473,492,513,532,552,572,592,612,632,653,673,693,714,733,752,772,792,813,832,853,873,892,913,933,953,972,992,1012,1032,1052,1072,1093,1112,1132,1153,1172,1192,1212,1232,1252,1272,1293,1312,1332,1352,1372,1393,1412,1432,1452,1472,1493,1512,1532,1552,1572,1592,1612,1632,1652,1672,1693,1713,1732,1753,1772],"xSR":741.5,"ySR":573.95,"xT1":424.9,"yT1":0,"xT2":1058.1,"yT2":0,"toosoon":0,"cond_shown":"Incongruent","ratio_trial":300,"L_num":4,"L_den":5,"R_num":6,"R_den":12,"correct_side":1,"subjID":"EstebanAndrésViracacháRamírez36","gender":"0","school":"6","age":"11"},{"start_time":1551899907557,"click_time":1551899909104,"finger_time":1551899908784,"fix_duration":1152.5780101118273,"trial":10,"RT":1227,"MT":320,"sideResp":2,"stimulus":[],"xmouse":[787,787,787,787,787,787,787,787,787,787,787,787,787,787,787,787,787,787,787,787,787,787,787,787,787,787,787,787,787,787,787,787,787,787,787,787,787,787,787,787,787,787,787,787,787,787,787,787,787,787,787,787,787,787,787,787,788,792,805,813,823,837,908,948,962,971,978,990,997,1006,1018,1028,1049,1065,1080,1099,1117,1139],"ymouse":[630,629,629,629,629,629,629,629,629,629,629,629,629,629,629,629,629,629,629,629,629,629,629,629,629,629,629,629,629,629,629,629,629,629,629,629,629,629,629,629,629,629,629,629,629,629,629,629,629,629,629,629,629,629,629,628,626,620,604,593,577,543,384,326,304,283,267,240,231,221,210,199,171,152,139,126,114,94],"timestamp_mouse":[7,27,49,68,88,107,128,147,168,188,207,227,247,268,288,308,327,347,368,388,408,427,447,468,488,508,527,547,567,588,608,628,648,667,688,708,728,748,768,788,807,827,847,868,887,908,927,948,967,988,1007,1027,1047,1068,1087,1107,1128,1147,1167,1187,1208,1227,1247,1267,1287,1308,1327,1347,1367,1387,1408,1427,1447,1467,1486,1507,1527,1547],"xSR":741.5,"ySR":573.95,"xT1":424.9,"yT1":0,"xT2":1058.1,"yT2":0,"toosoon":0,"cond_shown":"Congruent","ratio_trial":300,"L_num":5,"L_den":25,"R_num":7,"R_den":14,"correct_side":2,"subjID":"EstebanAndrésViracacháRamírez36","gender":"0","school":"6","age":"11"},{"start_time":1551899911238,"click_time":1551899912344,"finger_time":1551899912064,"fix_duration":833.8226873675857,"trial":11,"RT":826,"MT":280,"sideResp":1,"stimulus":[],"xmouse":[805,805,805,805,805,805,805,805,805,805,805,805,805,805,805,805,805,805,805,805,805,805,805,805,805,805,805,805,805,805,805,805,805,805,805,805,805,805,803,783,770,753,730,690,673,656,637,612,573,556,540,533,525,512,508,504],"ymouse":[584,584,584,584,584,584,584,584,584,584,584,584,584,584,584,584,584,584,584,584,584,584,584,584,584,584,584,584,584,584,584,584,584,584,584,584,584,584,585,581,574,564,547,519,507,495,481,463,426,381,332,282,222,140,114,94],"timestamp_mouse":[9,41,46,67,86,106,126,146,166,186,206,226,246,266,286,306,326,347,366,387,406,427,447,467,487,506,526,547,566,586,607,626,646,666,686,706,727,746,766,787,806,826,846,866,886,906,926,947,966,986,1006,1026,1046,1066,1086,1106],"xSR":741.5,"ySR":573.95,"xT1":424.9,"yT1":0,"xT2":1058.1,"yT2":0,"toosoon":0,"cond_shown":"Congruent","ratio_trial":100,"L_num":7,"L_den":14,"R_num":9,"R_den":15,"correct_side":2,"subjID":"EstebanAndrésViracacháRamírez36","gender":"0","school":"6","age":"11"},{"start_time":1551899914435,"click_time":1551899916024,"finger_time":1551899915765,"fix_duration":730.9438369281942,"trial":12,"RT":1330,"MT":259,"sideResp":2,"stimulus":[],"xmouse":[808,808,808,808,808,808,808,808,808,808,808,808,808,808,808,808,808,808,808,808,808,808,808,808,808,808,808,808,808,808,808,808,808,808,808,808,808,808,808,808,808,808,808,808,808,808,808,808,808,808,808,808,808,808,808,808,808,808,808,808,808,808,808,808,815,827,844,868,924,954,980,1003,1025,1051,1056,1062,1070,1076,1087,1095],"ymouse":[628,628,628,628,628,628,628,628,628,628,628,628,628,628,628,628,628,628,628,628,628,628,628,628,628,628,628,628,628,628,628,628,628,628,628,628,628,628,628,628,628,628,628,628,628,628,628,628,628,628,628,628,628,628,628,628,628,628,628,628,628,628,628,628,621,605,586,561,503,462,407,333,263,205,191,178,161,145,117,99],"timestamp_mouse":[9,33,49,70,89,109,129,149,169,189,210,229,250,270,290,309,329,350,370,389,410,430,449,470,489,510,529,549,569,590,609,629,650,669,689,709,729,750,769,789,810,830,849,869,890,909,930,950,970,989,1009,1030,1049,1069,1090,1109,1130,1149,1169,1189,1209,1229,1249,1270,1289,1309,1330,1350,1369,1388,1409,1429,1449,1469,1489,1511,1530,1550,1569,1589],"xSR":741.5,"ySR":573.95,"xT1":424.9,"yT1":0,"xT2":1058.1,"yT2":0,"toosoon":0,"cond_shown":"Congruent","ratio_trial":100,"L_num":6,"L_den":12,"R_num":15,"R_den":25,"correct_side":2,"subjID":"EstebanAndrésViracacháRamírez36","gender":"0","school":"6","age":"11"},{"start_time":1551899917157,"click_time":1551899919684,"finger_time":1551899918665,"fix_duration":250,"trial":13,"RT":1508,"MT":1019,"sideResp":2,"stimulus":[],"xmouse":[792,792,792,792,792,792,792,792,792,792,792,792,792,792,792,792,792,792,792,792,792,792,792,792,792,792,792,792,792,792,792,792,792,792,792,792,792,792,792,792,792,792,792,792,792,792,792,792,792,792,792,792,792,792,792,792,792,792,792,792,792,792,792,792,792,792,792,792,792,792,792,792,792,805,828,864,911,1007,1035,1051,1062,1068,1086,1108,1136,1161,1179,1190,1190,1183,1177,1174,1171,1169,1167,1167,1166,1166,1166,1166,1166,1166,1166,1166,1166,1166,1166,1166,1166,1166,1166,1166,1166,1166,1166,1166,1166,1166,1166,1166,1166,1166,1166,1166,1166,1160,1136],"ymouse":[606,606,606,606,606,606,606,606,606,606,606,606,606,606,606,606,606,606,606,606,606,606,606,606,606,606,606,606,606,606,606,606,606,606,606,606,606,606,606,606,606,606,606,606,606,606,606,606,606,606,606,606,606,606,606,606,606,606,606,606,606,606,606,606,606,606,606,606,606,606,606,606,606,597,580,552,518,449,425,407,392,377,331,279,215,160,124,101,91,82,74,70,65,64,62,61,61,61,61,61,61,61,61,61,61,61,61,61,61,61,61,61,61,61,61,61,61,61,61,61,61,61,61,61,61,61,58],"timestamp_mouse":[8,36,47,68,87,108,128,147,167,187,207,227,247,268,287,307,327,348,367,388,407,427,448,467,488,508,527,548,567,587,608,627,648,667,687,707,727,747,767,788,807,827,847,867,887,908,928,948,967,988,1007,1027,1047,1067,1087,1107,1127,1148,1168,1187,1207,1227,1247,1267,1287,1308,1328,1348,1367,1387,1408,1427,1447,1468,1487,1508,1527,1547,1567,1587,1607,1628,1647,1667,1687,1708,1727,1746,1766,1788,1808,1828,1847,1867,1887,1908,1927,1948,1967,1987,2007,2027,2047,2068,2087,2107,2127,2147,2168,2187,2207,2229,2248,2268,2287,2307,2327,2347,2367,2388,2407,2428,2447,2467,2488,2507,2527],"xSR":741.5,"ySR":573.95,"xT1":424.9,"yT1":0,"xT2":1058.1,"yT2":0,"toosoon":0,"cond_shown":"Congruent","ratio_trial":100,"L_num":3,"L_den":20,"R_num":4,"R_den":16,"correct_side":2,"subjID":"EstebanAndrésViracacháRamírez36","gender":"0","school":"6","age":"11"},{"start_time":1551899921565,"click_time":1551899923264,"finger_time":1551899922865,"fix_duration":399.1275874295481,"trial":14,"RT":1300,"MT":399,"sideResp":2,"stimulus":[],"xmouse":[816,816,816,816,816,816,816,816,816,816,816,816,816,816,816,816,816,816,816,816,816,816,816,816,816,816,816,816,816,816,816,816,816,816,816,816,816,816,816,816,816,816,816,816,816,816,816,816,816,816,816,816,816,816,816,816,816,816,816,816,816,816,816,817,830,848,868,912,926,937,947,962,993,1002,1006,1007,1009,1017,1026,1035,1042,1050,1065,1068,1079,1086],"ymouse":[620,620,620,620,620,620,620,620,620,620,620,620,620,620,620,620,620,620,620,620,620,620,620,620,620,620,620,620,620,620,620,620,620,620,620,620,620,620,620,620,620,620,620,620,620,620,620,620,620,620,620,620,620,620,620,620,620,620,620,620,620,620,620,620,612,599,583,552,539,525,506,469,338,278,269,267,264,242,223,203,184,169,137,130,111,99],"timestamp_mouse":[1,20,39,59,80,99,121,140,160,179,200,220,239,260,279,299,320,340,359,380,399,420,440,459,480,500,519,539,559,579,599,619,639,659,679,700,720,739,759,780,799,819,839,859,879,899,920,940,959,979,999,1020,1039,1059,1079,1100,1119,1139,1160,1179,1200,1220,1239,1259,1279,1300,1319,1339,1359,1380,1399,1419,1439,1459,1479,1499,1519,1539,1559,1579,1600,1619,1640,1659,1679,1699],"xSR":741.5,"ySR":573.95,"xT1":424.9,"yT1":0,"xT2":1058.1,"yT2":0,"toosoon":0,"cond_shown":"Congruent","ratio_trial":200,"L_num":3,"L_den":6,"R_num":14,"R_den":20,"correct_side":2,"subjID":"EstebanAndrésViracacháRamírez36","gender":"0","school":"6","age":"11"},{"start_time":1551899924796,"click_time":1551899926265,"finger_time":1551899926124,"fix_duration":250,"trial":15,"RT":1328,"MT":141,"sideResp":2,"stimulus":[],"xmouse":[820,820,820,820,820,820,820,820,820,820,820,820,820,820,820,820,820,820,820,820,820,820,820,820,820,820,820,820,820,820,820,820,820,820,820,820,820,820,820,820,820,820,820,820,820,820,820,820,820,820,820,820,820,820,820,820,820,820,820,820,820,820,820,820,822,832,880,917,956,980,1017,1044,1057,1065],"ymouse":[613,613,613,613,613,613,613,613,613,613,613,613,613,613,613,613,613,613,613,613,613,613,613,613,613,613,613,613,613,613,613,613,613,613,613,613,613,613,613,613,613,613,613,613,613,613,613,613,613,613,613,613,613,613,613,613,613,613,613,613,613,613,613,613,610,600,539,485,423,381,265,129,88,68],"timestamp_mouse":[10,42,48,69,88,109,128,149,168,188,208,228,249,268,288,308,328,349,369,389,409,429,448,469,489,509,529,549,568,589,608,629,648,668,689,708,728,749,769,790,809,828,849,868,888,909,928,949,968,988,1009,1028,1048,1070,1088,1109,1129,1150,1168,1188,1209,1228,1249,1268,1288,1308,1328,1348,1369,1388,1408,1428,1448,1469],"xSR":741.5,"ySR":573.95,"xT1":424.9,"yT1":0,"xT2":1058.1,"yT2":0,"toosoon":0,"cond_shown":"Congruent","ratio_trial":100,"L_num":7,"L_den":14,"R_num":15,"R_den":25,"correct_side":2,"subjID":"EstebanAndrésViracacháRamírez36","gender":"0","school":"6","age":"11"},{"start_time":1551899927796,"click_time":1551899929904,"finger_time":1551899929564,"fix_duration":250,"trial":16,"RT":1768,"MT":340,"sideResp":1,"stimulus":[],"xmouse":[797,797,797,797,797,797,797,797,797,797,797,797,797,797,797,797,797,797,797,797,797,797,797,797,797,797,797,797,797,797,797,797,797,797,797,797,797,797,797,797,797,797,797,797,797,797,797,797,797,797,797,797,797,797,797,797,797,797,797,797,797,797,797,797,797,797,797,797,797,797,797,797,797,797,797,797,797,797,797,797,797,797,797,797,797,797,789,772,740,693,634,553,518,506,501,499,498,498,498,501,505,513,513,511,501,479],"ymouse":[627,627,627,627,627,627,627,627,627,627,627,627,627,627,627,627,627,627,627,627,627,627,627,627,627,627,627,627,627,627,627,627,627,627,627,627,627,627,627,627,627,627,627,627,627,627,627,627,627,627,627,627,627,627,627,627,627,627,627,627,627,627,627,627,627,627,627,627,627,627,627,627,627,627,627,627,627,627,627,627,627,627,627,627,627,627,617,602,579,547,509,423,369,348,338,327,321,313,298,280,258,205,172,147,114,50],"timestamp_mouse":[9,38,48,68,88,109,128,148,169,189,209,228,249,269,288,308,329,348,368,388,408,428,448,468,490,509,529,548,569,588,608,628,648,669,688,708,729,748,768,788,808,829,849,868,888,908,928,948,969,989,1008,1028,1048,1068,1088,1109,1128,1149,1168,1188,1208,1229,1249,1269,1289,1309,1328,1349,1368,1388,1408,1428,1448,1468,1488,1508,1529,1548,1569,1588,1608,1629,1649,1668,1688,1708,1728,1748,1768,1789,1808,1829,1848,1869,1888,1908,1928,1948,1968,1988,2008,2028,2048,2068,2089,2108],"xSR":741.5,"ySR":573.95,"xT1":424.9,"yT1":0,"xT2":1058.1,"yT2":0,"toosoon":0,"cond_shown":"Incongruent","ratio_trial":200,"L_num":1,"L_den":3,"R_num":2,"R_den":15,"correct_side":1,"subjID":"EstebanAndrésViracacháRamírez36","gender":"0","school":"6","age":"11"},{"start_time":1551899931766,"click_time":1551899933285,"finger_time":1551899933025,"fix_duration":299.8314596845334,"trial":17,"RT":1259,"MT":260,"sideResp":2,"stimulus":[],"xmouse":[767,767,767,767,767,767,767,767,767,767,767,767,767,767,767,767,767,767,767,767,767,767,767,767,767,767,767,767,767,767,767,767,767,767,767,767,767,767,767,767,767,767,767,767,767,767,767,767,767,767,767,767,767,767,767,767,767,771,777,788,804,823,875,894,912,928,958,979,998,1016,1032,1067,1093,1112,1132,1156],"ymouse":[626,626,626,626,626,626,626,626,626,626,626,626,626,626,626,626,626,626,626,626,626,626,626,626,626,626,626,626,626,626,626,626,626,626,626,626,626,626,626,626,626,626,626,626,626,626,626,626,626,626,626,626,626,626,626,626,626,624,617,608,594,579,535,515,491,470,425,383,342,313,284,217,165,131,101,70],"timestamp_mouse":[19,38,58,78,99,119,139,159,178,198,218,238,258,278,299,318,338,358,378,399,418,438,459,479,498,518,539,559,578,598,618,638,658,678,699,718,738,758,778,798,819,838,859,879,898,918,938,959,979,998,1018,1038,1058,1078,1098,1119,1139,1158,1179,1199,1219,1238,1259,1278,1299,1318,1338,1358,1379,1398,1418,1438,1458,1478,1498,1518],"xSR":741.5,"ySR":573.95,"xT1":424.9,"yT1":0,"xT2":1058.1,"yT2":0,"toosoon":0,"cond_shown":"Incongruent","ratio_trial":100,"L_num":8,"L_den":20,"R_num":1,"R_den":2,"correct_side":2,"subjID":"EstebanAndrésViracacháRamírez36","gender":"0","school":"6","age":"11"},{"start_time":1551899935450,"click_time":1551899936904,"finger_time":1551899936745,"fix_duration":1424.1642650525885,"trial":18,"RT":1295,"MT":159,"sideResp":2,"stimulus":[],"xmouse":[790,790,790,790,790,790,790,790,790,790,790,790,790,790,790,790,790,790,790,790,790,790,790,790,790,790,790,790,790,790,790,790,790,790,790,790,790,790,790,790,790,790,790,790,790,790,790,790,792,793,793,793,793,793,793,793,793,793,793,793,794,798,818,835,858,886,922,1005,1051,1077,1100,1115,1134],"ymouse":[642,642,642,642,642,642,642,642,642,642,642,642,642,642,642,642,642,642,642,642,642,642,642,642,642,642,642,642,642,642,642,642,642,642,642,642,642,642,642,642,642,642,642,642,642,642,642,642,640,638,638,638,638,638,638,638,638,638,638,638,637,633,611,591,564,525,466,315,228,173,131,105,69],"timestamp_mouse":[14,35,55,74,94,115,134,154,174,195,214,235,254,274,294,314,335,355,374,394,415,435,454,475,496,515,534,554,575,594,615,634,654,674,694,715,734,754,774,795,815,834,854,875,894,914,934,954,974,994,1014,1035,1054,1075,1094,1115,1135,1154,1175,1194,1214,1234,1254,1274,1295,1314,1335,1354,1374,1394,1415,1434,1454],"xSR":741.5,"ySR":573.95,"xT1":424.9,"yT1":0,"xT2":1058.1,"yT2":0,"toosoon":0,"cond_shown":"Congruent","ratio_trial":300,"L_num":8,"L_den":15,"R_num":10,"R_den":12,"correct_side":2,"subjID":"EstebanAndrésViracacháRamírez36","gender":"0","school":"6","age":"11"},{"start_time":1551899938980,"click_time":1551899940524,"finger_time":1551899940204,"fix_duration":594.2192104141916,"trial":19,"RT":1224,"MT":320,"sideResp":1,"stimulus":[],"xmouse":[780,780,780,780,780,780,780,780,780,780,780,780,780,780,780,780,780,780,780,780,780,780,780,780,780,780,780,780,780,780,780,780,780,780,780,780,780,780,780,780,780,780,780,780,780,780,780,780,780,780,780,780,780,780,780,780,780,780,778,774,768,733,713,702,685,663,628,618,612,605,598,590,578,571,563,555,529,514],"ymouse":[628,628,628,628,628,628,628,628,628,628,628,628,628,628,628,628,628,628,628,628,628,628,628,628,628,628,628,628,628,628,628,628,628,628,628,628,628,628,628,628,628,628,628,628,628,628,628,628,628,628,628,628,628,628,627,625,621,619,616,610,604,571,542,517,476,425,341,314,292,274,255,237,195,181,168,153,117,97],"timestamp_mouse":[9,39,46,64,84,105,124,145,164,184,204,224,244,264,284,304,325,345,365,385,404,425,444,465,485,504,525,544,564,584,605,624,645,665,684,704,725,744,765,785,805,825,845,864,884,904,925,944,965,984,1004,1024,1044,1065,1084,1104,1124,1144,1164,1184,1204,1224,1245,1264,1285,1304,1324,1344,1365,1385,1404,1424,1444,1464,1484,1504,1524,1544],"xSR":741.5,"ySR":573.95,"xT1":424.9,"yT1":0,"xT2":1058.1,"yT2":0,"toosoon":0,"cond_shown":"Congruent","ratio_trial":200,"L_num":1,"L_den":2,"R_num":21,"R_den":30,"correct_side":2,"subjID":"EstebanAndrésViracacháRamírez36","gender":"0","school":"6","age":"11"},{"start_time":1551899943098,"click_time":1551899944804,"finger_time":1551899944404,"fix_duration":1012.448846481452,"trial":20,"RT":1306,"MT":400,"sideResp":2,"stimulus":[],"xmouse":[778,778,778,778,778,778,778,778,778,778,778,778,778,778,778,778,778,778,778,778,778,778,778,778,778,778,778,778,778,778,778,778,778,778,778,778,778,778,778,778,778,778,778,778,778,778,778,778,778,778,778,778,778,778,778,778,778,778,778,778,778,778,778,779,784,816,826,878,919,962,1048,1087,1121,1143,1155,1173,1179,1187,1191,1192,1186,1178,1172,1167,1163,1151],"ymouse":[620,620,620,620,620,620,620,620,620,620,620,620,620,620,620,620,620,620,620,620,620,620,620,620,620,620,620,620,620,620,620,620,620,620,620,620,620,620,620,620,620,620,620,620,620,620,620,620,620,620,620,620,620,620,620,620,620,620,620,620,620,620,620,618,610,567,555,503,467,431,345,283,227,190,168,127,111,92,74,57,31,26,26,25,25,25],"timestamp_mouse":[11,37,46,67,86,107,127,146,166,186,206,226,247,267,286,307,327,347,367,386,406,426,446,467,487,506,526,547,566,586,606,627,647,667,687,706,727,746,766,787,806,826,847,866,887,906,926,946,967,987,1006,1027,1046,1066,1086,1107,1126,1146,1167,1186,1206,1226,1246,1266,1286,1306,1327,1346,1367,1387,1406,1426,1446,1467,1487,1506,1527,1546,1566,1587,1606,1626,1646,1666,1687,1706],"xSR":741.5,"ySR":573.95,"xT1":424.9,"yT1":0,"xT2":1058.1,"yT2":0,"toosoon":0,"cond_shown":"Incongruent","ratio_trial":300,"L_num":13,"L_den":26,"R_num":12,"R_den":15,"correct_side":2,"subjID":"EstebanAndrésViracacháRamírez36","gender":"0","school":"6","age":"11"},{"start_time":1551899946641,"click_time":1551899948225,"finger_time":1551899947944,"fix_duration":1036.7934955167893,"trial":21,"RT":1303,"MT":281,"sideResp":1,"stimulus":[],"xmouse":[771,771,771,771,771,771,771,771,771,771,771,771,771,771,771,771,771,771,771,771,771,771,771,771,771,771,771,771,771,771,771,771,771,771,771,771,771,771,771,771,771,771,771,771,771,771,771,771,771,771,771,771,771,771,771,771,771,771,771,771,771,771,770,757,742,722,699,668,594,532,488,446,415,393,393,393,395,398,412,427],"ymouse":[622,622,622,622,622,622,622,622,622,622,622,622,622,622,622,622,622,622,622,622,622,622,622,622,622,622,622,622,622,622,622,622,622,622,622,622,622,622,622,622,622,622,622,622,622,622,622,622,622,622,622,622,622,622,622,622,622,622,622,622,622,622,622,602,587,570,553,529,451,334,247,182,138,92,86,77,67,57,27,4],"timestamp_mouse":[10,33,43,63,84,103,124,144,164,183,204,223,243,264,284,304,323,343,363,384,403,423,443,463,484,503,524,543,563,583,604,623,643,663,683,703,723,743,764,783,804,823,843,863,884,904,923,944,965,984,1003,1023,1044,1063,1084,1104,1123,1144,1163,1183,1203,1224,1243,1263,1283,1303,1324,1343,1374,1383,1403,1424,1444,1463,1483,1503,1523,1543,1563,1584],"xSR":741.5,"ySR":573.95,"xT1":424.9,"yT1":0,"xT2":1058.1,"yT2":0,"toosoon":0,"cond_shown":"Incongruent","ratio_trial":200,"L_num":3,"L_den":10,"R_num":1,"R_den":2,"correct_side":2,"subjID":"EstebanAndrésViracacháRamírez36","gender":"0","school":"6","age":"11"},{"start_time":1551899949804,"click_time":1551899951425,"finger_time":1551899951104,"fix_duration":438.3136045397018,"trial":22,"RT":1300,"MT":321,"sideResp":2,"stimulus":[],"xmouse":[788,788,788,788,788,788,788,788,788,788,788,788,788,788,788,788,788,788,788,788,788,788,788,788,788,788,788,788,788,788,788,788,788,788,788,788,788,788,788,788,787,787,787,787,787,787,787,787,787,787,787,787,787,787,787,787,787,787,787,787,787,787,789,796,812,855,880,909,939,965,1007,1012,1012,1012,1010,1010,1010,1014,1024,1034,1056,1066],"ymouse":[645,645,645,645,645,645,645,645,645,645,645,645,645,645,645,645,645,645,645,645,645,645,645,645,645,645,645,645,645,645,645,645,645,645,645,645,645,645,645,645,644,644,644,644,644,644,644,644,644,644,644,644,644,644,644,644,644,644,644,644,644,641,634,625,610,576,548,490,425,361,248,227,211,201,193,182,174,162,146,129,102,93],"timestamp_mouse":[8,21,41,60,80,101,120,140,160,180,200,220,241,260,281,301,321,341,360,381,401,420,442,461,480,501,520,541,561,580,601,620,641,661,680,700,721,741,760,781,801,820,841,860,880,901,921,941,960,981,1000,1020,1041,1061,1081,1100,1120,1140,1161,1181,1200,1221,1240,1260,1281,1300,1320,1340,1361,1381,1400,1420,1440,1460,1481,1500,1519,1540,1561,1582,1600,1621],"xSR":741.5,"ySR":573.95,"xT1":424.9,"yT1":0,"xT2":1058.1,"yT2":0,"toosoon":0,"cond_shown":"Congruent","ratio_trial":200,"L_num":3,"L_den":10,"R_num":14,"R_den":28,"correct_side":2,"subjID":"EstebanAndrésViracacháRamírez36","gender":"0","school":"6","age":"11"},{"start_time":1551899957740,"click_time":1551899959186,"finger_time":1551899959044,"fix_duration":1354.5229773717392,"trial":23,"RT":1304,"MT":142,"sideResp":2,"stimulus":[],"xmouse":[805,805,805,805,805,805,805,805,805,805,805,805,805,805,805,805,805,805,805,805,805,805,805,805,805,805,805,805,805,805,805,805,805,805,805,805,805,805,805,805,805,805,805,805,805,805,805,805,805,805,805,805,805,805,805,805,805,805,805,805,805,805,805,805,805,816,841,879,961,997,1023,1043,1072],"ymouse":[614,614,614,614,614,614,614,614,614,614,614,614,614,614,614,614,614,614,614,614,614,614,614,614,614,614,614,614,614,614,614,614,614,614,614,614,614,614,614,614,614,614,614,614,614,614,614,614,614,614,614,614,614,614,614,614,614,614,614,614,614,614,614,612,581,513,450,366,227,161,120,97,62],"timestamp_mouse":[10,33,44,64,85,104,125,144,164,184,204,224,245,265,285,304,324,344,365,386,404,425,444,464,484,505,524,545,565,584,604,624,645,664,684,704,724,744,764,785,805,825,844,864,884,904,924,944,964,984,1004,1025,1044,1064,1085,1104,1125,1145,1164,1185,1204,1224,1244,1264,1285,1304,1324,1344,1364,1385,1405,1424,1445],"xSR":741.5,"ySR":573.95,"xT1":424.9,"yT1":0,"xT2":1058.1,"yT2":0,"toosoon":0,"cond_shown":"Incongruent","ratio_trial":300,"L_num":4,"L_den":5,"R_num":6,"R_den":12,"correct_side":1,"subjID":"EstebanAndrésViracacháRamírez36","gender":"0","school":"6","age":"11"},{"start_time":1551899961295,"click_time":1551899962964,"finger_time":1551899962864,"fix_duration":748.5555682495326,"trial":24,"RT":1569,"MT":100,"sideResp":1,"stimulus":[],"xmouse":[786,787,787,787,787,789,789,789,789,789,789,789,789,789,789,789,789,789,789,789,789,789,789,789,789,789,789,789,789,789,789,789,789,789,789,789,789,789,789,789,789,789,789,789,789,789,789,786,784,781,779,779,779,779,779,779,779,779,779,779,779,779,779,779,779,779,779,779,779,779,779,779,779,779,779,779,767,750,725,697,613,566,528,513],"ymouse":[645,644,644,644,643,641,641,641,641,641,641,641,641,641,641,641,641,641,641,641,641,641,641,641,641,641,641,641,641,641,641,641,641,641,641,641,641,641,641,641,641,641,641,641,641,640,637,634,633,630,628,628,628,628,628,628,628,628,628,628,628,628,628,628,628,628,628,628,628,628,628,628,628,628,628,628,615,597,574,541,384,274,167,77],"timestamp_mouse":[9,30,57,69,90,110,129,149,170,190,210,229,249,269,289,310,330,349,369,390,409,429,450,470,489,509,529,549,570,590,609,629,650,669,689,709,730,749,769,790,809,830,850,869,890,909,929,950,970,990,1010,1029,1049,1070,1090,1109,1129,1149,1170,1190,1209,1229,1249,1269,1289,1309,1329,1350,1370,1389,1409,1429,1449,1469,1490,1509,1530,1549,1569,1590,1609,1628,1649,1669],"xSR":741.5,"ySR":573.95,"xT1":424.9,"yT1":0,"xT2":1058.1,"yT2":0,"toosoon":0,"cond_shown":"Congruent","ratio_trial":200,"L_num":9,"L_den":20,"R_num":4,"R_den":16,"correct_side":1,"subjID":"EstebanAndrésViracacháRamírez36","gender":"0","school":"6","age":"11"},{"start_time":1551899964310,"click_time":1551899966484,"finger_time":1551899966404,"fix_duration":464.40479323395857,"trial":25,"RT":2094,"MT":80,"sideResp":1,"stimulus":[],"xmouse":[835,832,832,832,831,831,831,831,831,830,830,829,829,829,829,829,829,828,828,828,828,828,828,828,828,828,828,828,828,828,828,828,828,828,828,828,828,828,828,828,828,828,828,828,828,828,828,828,828,828,828,828,828,828,828,828,828,828,828,828,828,828,828,828,828,828,828,828,816,811,807,805,804,804,804,804,804,804,804,804,804,804,804,804,804,804,804,804,804,804,804,804,804,804,804,804,804,804,804,804,803,803,794,730,647,588,510,432],"ymouse":[625,626,626,626,626,626,626,626,626,626,626,626,626,626,626,626,626,626,626,626,626,626,626,626,626,626,626,626,626,626,626,626,626,626,626,626,626,626,626,626,626,626,626,626,626,626,626,626,626,626,626,626,626,626,626,626,626,626,626,626,626,626,626,626,626,626,626,626,626,626,626,626,626,626,626,626,626,626,626,626,626,626,626,626,626,626,626,626,626,626,626,626,626,626,626,626,626,626,626,626,625,620,604,511,376,275,136,22],"timestamp_mouse":[33,54,74,94,114,134,154,174,194,215,234,254,275,294,314,335,354,374,395,414,434,454,475,494,514,535,555,575,594,615,635,655,675,694,715,735,754,774,794,814,835,855,874,895,914,934,955,974,994,1014,1034,1055,1074,1094,1114,1135,1154,1174,1195,1214,1234,1254,1275,1294,1314,1334,1354,1374,1395,1414,1434,1455,1474,1495,1514,1535,1555,1575,1594,1615,1635,1654,1674,1695,1715,1735,1754,1775,1795,1815,1835,1854,1875,1895,1915,1935,1954,1974,1994,2015,2034,2054,2074,2094,2114,2134,2155,2174],"xSR":741.5,"ySR":573.95,"xT1":424.9,"yT1":0,"xT2":1058.1,"yT2":0,"toosoon":0,"cond_shown":"Incongruent","ratio_trial":300,"L_num":4,"L_den":20,"R_num":2,"R_den":4,"correct_side":2,"subjID":"EstebanAndrésViracacháRamírez36","gender":"0","school":"6","age":"11"},{"start_time":1551899967895,"click_time":1551899969684,"finger_time":1551899969404,"fix_duration":250,"trial":26,"RT":1509,"MT":280,"sideResp":1,"stimulus":[],"xmouse":[786,786,786,786,786,786,786,786,786,786,786,786,786,786,786,786,786,786,786,786,786,786,786,786,786,786,786,786,786,786,786,786,786,786,786,786,786,786,786,786,786,786,786,786,786,786,786,786,786,786,786,786,786,786,786,786,786,786,786,786,786,786,786,786,786,786,786,786,786,786,786,786,786,786,778,737,719,702,689,676,652,631,602,570,546,500,485,474,461,448],"ymouse":[647,647,647,647,647,647,647,647,647,647,647,647,647,647,647,647,647,647,647,647,647,647,647,647,647,647,647,647,647,647,647,647,647,647,647,647,647,647,647,647,647,647,647,647,647,647,647,647,647,647,647,647,647,647,647,647,647,647,647,647,647,647,647,647,647,647,647,647,647,647,647,647,647,645,638,606,589,570,550,527,475,423,348,278,236,167,147,131,114,99],"timestamp_mouse":[9,29,49,69,91,109,129,149,169,189,210,229,249,269,289,309,329,349,369,390,409,430,449,469,489,510,529,549,570,589,610,630,650,669,689,710,730,749,770,789,810,829,850,870,889,910,930,950,970,990,1009,1030,1049,1069,1090,1109,1130,1150,1170,1189,1209,1230,1249,1269,1289,1310,1330,1350,1369,1389,1410,1429,1449,1469,1489,1509,1530,1549,1569,1589,1609,1629,1649,1670,1689,1709,1729,1750,1769,1789],"xSR":741.5,"ySR":573.95,"xT1":424.9,"yT1":0,"xT2":1058.1,"yT2":0,"toosoon":0,"cond_shown":"Incongruent","ratio_trial":300,"L_num":2,"L_den":4,"R_num":6,"R_den":30,"correct_side":1,"subjID":"EstebanAndrésViracacháRamírez36","gender":"0","school":"6","age":"11"},{"start_time":1551899970835,"click_time":1551899972284,"finger_time":1551899972184,"fix_duration":510.19836710875654,"trial":27,"RT":1349,"MT":100,"sideResp":1,"stimulus":[],"xmouse":[765,765,765,765,765,765,765,765,765,765,765,765,765,765,765,765,765,765,765,765,765,765,765,765,765,765,765,765,765,765,765,765,765,765,765,765,765,765,765,765,765,765,765,765,765,765,765,765,765,765,765,765,765,765,765,765,765,765,765,765,765,765,765,765,765,761,746,718,616,536,507,492,482],"ymouse":[640,640,640,640,640,640,640,640,640,640,640,640,640,640,640,640,640,640,640,640,640,640,640,640,640,640,640,640,640,640,640,640,640,640,640,640,640,640,640,640,640,640,640,640,640,640,640,640,640,640,640,640,640,640,640,640,640,640,640,640,640,640,640,640,640,632,603,563,396,209,144,111,85],"timestamp_mouse":[9,42,49,69,90,110,129,149,170,190,209,229,249,269,289,309,329,350,370,389,410,429,450,470,489,510,529,550,569,590,609,629,650,669,689,710,729,749,770,790,809,829,849,869,889,910,929,949,970,989,1009,1029,1049,1070,1090,1109,1129,1149,1169,1189,1210,1229,1249,1270,1289,1309,1329,1349,1369,1389,1409,1429,1449],"xSR":741.5,"ySR":573.95,"xT1":424.9,"yT1":0,"xT2":1058.1,"yT2":0,"toosoon":0,"cond_shown":"Incongruent","ratio_trial":100,"L_num":9,"L_den":15,"R_num":13,"R_den":26,"correct_side":1,"subjID":"EstebanAndrésViracacháRamírez36","gender":"0","school":"6","age":"11"},{"start_time":1551899976019,"click_time":1551899977024,"finger_time":1551899976784,"fix_duration":873.1889171740547,"trial":28,"RT":765,"MT":240,"sideResp":1,"stimulus":[],"xmouse":[782,782,782,782,782,782,782,782,782,782,782,782,782,782,782,782,782,782,782,782,782,782,782,782,782,782,782,782,782,782,782,782,782,782,782,782,782,777,770,734,694,668,637,613,560,540,525,515,513,514,516],"ymouse":[608,608,608,608,608,608,608,608,608,608,608,608,608,608,608,608,608,608,608,608,608,608,608,608,608,608,608,608,608,608,608,608,608,608,608,608,608,586,564,487,414,361,303,242,163,140,123,113,108,100,96],"timestamp_mouse":[8,33,45,66,85,105,125,145,165,185,206,225,245,265,285,306,325,345,366,386,405,425,445,465,485,505,526,545,565,585,605,626,645,665,685,705,726,745,765,785,806,825,846,865,885,905,925,945,965,984,1005],"xSR":741.5,"ySR":573.95,"xT1":424.9,"yT1":0,"xT2":1058.1,"yT2":0,"toosoon":0,"cond_shown":"Congruent","ratio_trial":200,"L_num":20,"L_den":25,"R_num":9,"R_den":15,"correct_side":1,"subjID":"EstebanAndrésViracacháRamírez36","gender":"0","school":"6","age":"11"},{"start_time":1551899979552,"click_time":1551899981304,"finger_time":1551899980985,"fix_duration":1167.9526794873573,"trial":29,"RT":1433,"MT":319,"sideResp":2,"stimulus":[],"xmouse":[781,781,781,781,781,781,781,781,781,781,781,781,781,781,781,781,781,781,781,781,781,781,781,781,781,781,781,781,781,781,781,781,781,781,781,781,781,781,781,781,781,781,781,781,781,781,781,781,781,781,781,781,781,781,781,781,781,781,781,781,781,781,781,781,781,781,781,781,782,797,815,838,900,929,964,983,992,1004,1007,1009,1009,1011,1018,1023,1037,1047,1060,1082],"ymouse":[604,604,604,604,604,604,604,604,604,604,604,604,604,604,604,604,604,604,604,604,604,604,604,604,604,604,604,604,604,604,604,604,604,604,604,604,604,604,604,604,604,604,604,604,604,604,604,604,604,604,604,604,604,604,604,604,604,604,604,604,604,604,604,604,604,604,604,604,605,590,575,552,469,427,359,321,297,270,256,242,225,208,169,155,134,123,113,97],"timestamp_mouse":[13,34,51,72,93,112,132,152,173,192,213,232,252,273,293,313,332,353,373,392,413,432,452,473,492,513,532,553,572,592,612,632,653,673,692,713,732,752,772,793,812,832,852,872,893,913,932,953,973,992,1012,1034,1053,1073,1092,1113,1132,1152,1173,1192,1212,1233,1252,1273,1292,1313,1333,1352,1372,1392,1412,1433,1452,1472,1492,1512,1532,1552,1572,1593,1612,1633,1652,1672,1692,1713,1732,1752],"xSR":741.5,"ySR":573.95,"xT1":424.9,"yT1":0,"xT2":1058.1,"yT2":0,"toosoon":0,"cond_shown":"Incongruent","ratio_trial":300,"L_num":4,"L_den":20,"R_num":2,"R_den":4,"correct_side":2,"subjID":"EstebanAndrésViracacháRamírez36","gender":"0","school":"6","age":"11"},{"start_time":1551899983416,"click_time":1551899984825,"finger_time":1551899984704,"fix_duration":250,"trial":30,"RT":1288,"MT":121,"sideResp":2,"stimulus":[],"xmouse":[802,802,802,802,802,802,802,802,802,802,802,802,801,801,801,801,801,801,801,801,801,801,801,801,801,801,801,801,801,801,801,801,801,801,801,801,801,801,801,801,801,801,801,801,801,801,801,801,801,801,801,801,801,801,801,801,801,801,801,801,803,805,806,811,834,855,887,919,961,1054,1081],"ymouse":[639,639,639,639,639,639,639,639,639,639,639,639,638,638,638,638,638,638,638,638,638,638,638,638,638,638,638,638,638,638,638,638,638,638,638,638,638,638,638,638,638,638,638,638,638,638,638,638,638,638,638,638,638,638,638,638,638,638,637,628,620,615,609,600,557,520,464,399,320,147,85],"timestamp_mouse":[9,35,48,68,89,108,128,149,168,188,208,228,248,269,288,309,328,349,368,388,409,429,448,468,488,508,529,549,568,588,608,628,648,668,689,709,729,749,769,788,809,829,848,869,888,908,928,948,969,988,1008,1028,1048,1069,1088,1108,1129,1148,1169,1188,1208,1228,1249,1268,1288,1308,1328,1348,1369,1388,1409],"xSR":741.5,"ySR":573.95,"xT1":424.9,"yT1":0,"xT2":1058.1,"yT2":0,"toosoon":0,"cond_shown":"Congruent","ratio_trial":200,"L_num":3,"L_den":10,"R_num":7,"R_den":14,"correct_side":2,"subjID":"EstebanAndrésViracacháRamírez36","gender":"0","school":"6","age":"11"},{"start_time":1551899990575,"click_time":1551899991624,"finger_time":1551899991504,"fix_duration":250,"trial":31,"RT":929,"MT":120,"sideResp":1,"stimulus":[],"xmouse":[781,781,781,781,781,781,781,781,781,781,781,781,781,781,781,781,781,781,781,781,781,781,781,781,781,781,781,781,781,781,781,781,781,781,781,781,781,781,781,781,781,781,781,781,777,772,735,704,673,644,612,529,516],"ymouse":[609,609,609,609,609,609,609,609,609,609,609,609,609,609,609,609,609,609,609,609,609,609,609,609,609,609,609,609,609,609,609,609,609,609,609,609,609,609,609,609,609,609,609,609,590,574,488,432,354,262,179,35,18],"timestamp_mouse":[9,30,61,70,89,109,129,150,169,190,209,229,249,270,290,309,330,349,370,389,409,430,449,469,489,510,529,550,569,589,610,630,650,670,690,709,730,750,769,790,810,830,850,870,890,910,929,949,969,989,1009,1029,1049],"xSR":741.5,"ySR":573.95,"xT1":424.9,"yT1":0,"xT2":1058.1,"yT2":0,"toosoon":0,"cond_shown":"Incongruent","ratio_trial":200,"L_num":3,"L_den":4,"R_num":11,"R_den":20,"correct_side":1,"subjID":"EstebanAndrésViracacháRamírez36","gender":"0","school":"6","age":"11"},{"start_time":1551899993020,"click_time":1551899994184,"finger_time":1551899994004,"fix_duration":753.2761273048267,"trial":32,"RT":984,"MT":180,"sideResp":2,"stimulus":[],"xmouse":[788,788,788,788,788,788,788,788,788,788,788,788,788,788,788,788,788,788,788,788,788,788,788,788,788,788,788,788,788,788,788,788,788,788,788,788,788,788,788,788,788,788,788,788,788,788,789,796,803,856,890,917,942,967,1032,1052,1061,1068,1074],"ymouse":[640,640,640,640,640,640,640,640,640,640,640,640,640,640,640,640,640,640,640,640,640,640,640,640,640,640,640,640,640,640,640,640,640,640,640,640,640,640,640,640,640,640,640,640,640,640,641,631,622,551,505,454,395,338,183,139,117,100,86],"timestamp_mouse":[10,32,45,65,85,104,124,145,164,185,204,225,245,264,284,304,325,345,365,385,405,425,444,464,484,504,525,544,564,585,605,625,645,664,684,704,725,745,764,785,804,824,844,865,885,904,924,944,964,984,1004,1024,1045,1064,1084,1104,1125,1145,1164],"xSR":741.5,"ySR":573.95,"xT1":424.9,"yT1":0,"xT2":1058.1,"yT2":0,"toosoon":0,"cond_shown":"Congruent","ratio_trial":100,"L_num":10,"L_den":25,"R_num":3,"R_den":10,"correct_side":1,"subjID":"EstebanAndrésViracacháRamírez36","gender":"0","school":"6","age":"11"},{"start_time":1551899995887,"click_time":1551899996945,"finger_time":1551899996504,"fix_duration":821.2292928820472,"trial":33,"RT":617,"MT":441,"sideResp":1,"stimulus":[],"xmouse":[776,776,776,776,776,776,776,776,776,776,776,776,776,776,776,776,776,776,776,776,776,776,776,776,776,776,776,776,776,773,744,730,717,703,691,678,641,617,588,550,498,495,495,495,495,495,495,495,494,494,494,494,484],"ymouse":[634,634,634,634,634,634,634,634,634,634,634,634,634,634,634,634,634,634,634,634,634,634,634,634,634,634,634,634,632,622,552,503,457,413,362,308,120,75,40,15,0,0,0,0,0,0,0,0,0,0,0,0,2],"timestamp_mouse":[18,38,58,77,97,117,138,157,178,197,218,237,257,278,297,318,338,357,378,397,417,437,457,478,498,517,537,557,577,597,617,637,657,678,698,717,738,758,777,798,817,837,857,877,897,917,938,957,978,997,1017,1037,1058],"xSR":741.5,"ySR":573.95,"xT1":424.9,"yT1":0,"xT2":1058.1,"yT2":0,"toosoon":0,"cond_shown":"Congruent","ratio_trial":100,"L_num":10,"L_den":25,"R_num":3,"R_den":10,"correct_side":1,"subjID":"EstebanAndrésViracacháRamírez36","gender":"0","school":"6","age":"11"},{"start_time":1551899998924,"click_time":1551900000404,"finger_time":1551900000265,"fix_duration":1020.2414337914311,"trial":34,"RT":1341,"MT":139,"sideResp":1,"stimulus":[],"xmouse":[770,770,770,770,770,770,770,770,770,770,770,770,770,770,770,770,770,770,770,770,770,770,770,770,770,770,770,770,770,770,770,770,770,770,770,770,770,770,770,770,770,770,770,770,770,770,770,770,770,770,770,770,770,770,770,770,770,770,770,770,770,770,770,770,770,750,702,642,535,502,486,473,469,464],"ymouse":[632,632,632,632,632,632,632,632,632,632,632,632,632,632,632,632,632,632,632,632,632,632,632,632,632,632,632,632,632,632,632,632,632,632,632,632,632,632,632,632,632,632,632,632,632,632,632,632,632,632,632,632,632,632,632,632,632,632,632,632,632,632,632,632,628,603,556,488,316,246,189,145,113,75],"timestamp_mouse":[20,42,64,80,101,121,140,160,180,200,221,242,260,281,300,321,340,360,381,401,420,440,461,480,500,520,540,560,580,601,620,640,661,680,700,720,740,760,781,801,820,840,860,881,901,920,940,960,981,1000,1020,1040,1060,1080,1100,1120,1141,1161,1181,1201,1220,1240,1261,1280,1300,1320,1341,1360,1380,1399,1420,1440,1460,1480],"xSR":741.5,"ySR":573.95,"xT1":424.9,"yT1":0,"xT2":1058.1,"yT2":0,"toosoon":0,"cond_shown":"Congruent","ratio_trial":100,"L_num":11,"L_den":22,"R_num":4,"R_den":10,"correct_side":1,"subjID":"EstebanAndrésViracacháRamírez36","gender":"0","school":"6","age":"11"},{"start_time":1551900002321,"click_time":1551900003725,"finger_time":1551900003324,"fix_duration":1074.6446698783402,"trial":35,"RT":1003,"MT":401,"sideResp":2,"stimulus":[],"xmouse":[784,784,784,784,784,784,784,784,784,784,784,784,784,784,784,784,784,784,784,784,784,784,784,784,784,784,784,784,784,784,784,784,784,784,784,784,784,784,784,784,784,784,784,784,784,784,789,797,806,838,855,875,898,914,927,956,964,970,979,995,999,1004,1009,1014,1028,1034,1038,1043,1050,1059,1073],"ymouse":[633,633,633,633,633,633,633,633,633,633,633,633,633,633,633,633,633,633,633,633,633,633,633,633,633,633,633,633,633,633,633,633,633,633,633,633,633,633,633,633,633,633,633,633,633,633,628,623,617,594,580,556,521,476,417,256,230,204,180,149,141,133,125,121,111,109,109,109,106,103,98],"timestamp_mouse":[8,32,44,64,83,103,123,144,163,183,203,223,243,263,283,304,323,344,364,383,403,424,444,464,484,504,524,543,563,583,604,623,644,663,684,703,723,744,764,785,803,824,843,863,884,903,923,943,963,983,1003,1023,1043,1064,1083,1103,1123,1144,1163,1183,1202,1223,1243,1264,1283,1303,1323,1344,1364,1383,1403],"xSR":741.5,"ySR":573.95,"xT1":424.9,"yT1":0,"xT2":1058.1,"yT2":0,"toosoon":0,"cond_shown":"Incongruent","ratio_trial":100,"L_num":10,"L_den":25,"R_num":9,"R_den":18,"correct_side":2,"subjID":"EstebanAndrésViracacháRamírez36","gender":"0","school":"6","age":"11"},{"start_time":1551900007582,"click_time":1551900008765,"finger_time":1551900008403,"fix_duration":1175.810447484528,"trial":36,"RT":821,"MT":362,"sideResp":2,"stimulus":[],"xmouse":[777,777,777,777,777,777,777,777,777,777,777,777,777,777,777,777,777,777,777,777,777,777,777,777,777,777,777,777,777,777,777,777,777,777,777,777,777,777,778,785,798,855,913,947,966,979,996,996,1002,1014,1028,1044,1064,1065,1065,1066,1066,1066,1067,1070],"ymouse":[609,609,609,609,609,609,609,609,609,609,609,609,609,609,609,609,609,609,609,609,609,609,609,609,609,609,609,609,609,609,609,609,609,609,609,609,609,609,608,603,595,561,518,480,422,342,176,147,110,59,17,0,0,0,0,0,0,0,0,1],"timestamp_mouse":[11,37,43,62,82,102,122,142,162,182,202,223,242,263,282,302,322,342,363,382,403,422,442,462,482,502,522,542,563,583,602,623,643,663,682,703,722,742,762,782,802,821,842,862,883,903,922,943,962,983,1002,1022,1043,1062,1083,1103,1123,1143,1162,1183],"xSR":741.5,"ySR":573.95,"xT1":424.9,"yT1":0,"xT2":1058.1,"yT2":0,"toosoon":0,"cond_shown":"Congruent","ratio_trial":300,"L_num":5,"L_den":25,"R_num":7,"R_den":14,"correct_side":2,"subjID":"EstebanAndrésViracacháRamírez36","gender":"0","school":"6","age":"11"},{"start_time":1551900010077,"click_time":1551900011264,"finger_time":1551900011085,"fix_duration":250,"trial":37,"RT":1008,"MT":179,"sideResp":2,"stimulus":[],"xmouse":[802,802,802,802,802,802,801,801,801,801,801,801,801,801,801,801,801,801,801,801,801,801,801,801,801,801,801,801,801,801,801,801,801,801,802,802,803,803,803,803,803,803,803,803,803,804,809,811,817,829,845,896,924,955,991,1013,1033,1053,1059,1068],"ymouse":[615,615,615,615,615,615,615,615,615,615,615,615,615,615,615,615,615,615,615,615,615,615,615,615,615,615,615,615,615,615,615,615,615,612,611,611,611,611,611,611,610,610,610,610,610,609,606,604,600,588,568,481,416,341,260,197,163,121,108,91],"timestamp_mouse":[9,40,47,68,87,107,128,148,167,187,207,228,247,267,288,308,327,348,368,387,408,428,448,468,487,507,528,548,568,588,607,628,647,667,687,707,727,748,767,787,808,828,848,868,887,907,927,947,967,988,1008,1027,1046,1067,1087,1107,1127,1148,1167,1187],"xSR":741.5,"ySR":573.95,"xT1":424.9,"yT1":0,"xT2":1058.1,"yT2":0,"toosoon":0,"cond_shown":"Incongruent","ratio_trial":100,"L_num":8,"L_den":20,"R_num":1,"R_den":2,"correct_side":2,"subjID":"EstebanAndrésViracacháRamírez36","gender":"0","school":"6","age":"11"},{"start_time":1551900013370,"click_time":1551900014604,"finger_time":1551900014204,"fix_duration":725.1687690079602,"trial":38,"RT":834,"MT":400,"sideResp":2,"stimulus":[],"xmouse":[776,776,776,776,776,776,776,776,776,776,776,776,776,776,776,776,776,776,776,776,776,776,776,776,776,776,776,776,776,776,776,776,776,776,776,776,776,776,778,782,791,811,827,847,867,893,938,952,967,978,993,1001,1003,1003,1003,1003,1007,1016,1028,1040,1050,1063],"ymouse":[602,602,602,602,602,602,602,602,602,602,602,602,602,602,602,602,602,602,602,602,602,602,602,602,602,602,602,602,602,602,602,602,602,602,602,602,602,602,602,597,587,561,534,502,467,431,356,324,291,261,212,180,161,155,152,149,132,118,98,80,65,43],"timestamp_mouse":[16,40,54,74,94,115,134,154,174,194,214,235,255,274,294,314,335,355,374,394,415,436,454,475,494,514,535,555,575,594,615,634,654,675,694,714,734,755,774,794,814,834,853,874,894,914,934,954,975,995,1014,1034,1055,1074,1094,1115,1134,1154,1174,1195,1214,1233],"xSR":741.5,"ySR":573.95,"xT1":424.9,"yT1":0,"xT2":1058.1,"yT2":0,"toosoon":0,"cond_shown":"Incongruent","ratio_trial":100,"L_num":13,"L_den":26,"R_num":12,"R_den":20,"correct_side":2,"subjID":"EstebanAndrésViracacháRamírez36","gender":"0","school":"6","age":"11"},{"start_time":1551900017106,"click_time":1551900018704,"finger_time":1551900018384,"fix_duration":1079.4057997733387,"trial":39,"RT":1278,"MT":320,"sideResp":1,"stimulus":[],"xmouse":[795,795,795,795,795,795,795,795,795,795,795,795,795,794,791,791,790,790,790,790,790,790,790,790,790,790,790,790,790,790,789,789,788,788,788,788,788,788,788,788,788,788,788,788,788,788,788,788,788,788,788,788,788,788,788,788,788,788,788,788,788,778,760,725,699,666,657,653,650,643,640,633,627,625,614,586,549,519,503,490],"ymouse":[631,631,631,631,631,631,631,631,631,631,631,631,631,631,631,631,631,631,631,631,631,631,631,631,631,631,631,631,631,631,631,631,631,631,631,631,631,631,631,631,631,631,631,631,631,631,631,631,631,631,631,631,631,631,631,631,631,631,631,631,631,614,591,542,490,385,326,302,280,257,253,248,244,242,223,188,147,120,103,80],"timestamp_mouse":[19,39,58,91,100,119,139,159,179,199,218,238,258,278,298,318,338,359,378,399,419,439,458,479,499,519,538,559,578,598,619,638,658,678,699,718,738,758,778,799,818,838,858,879,898,919,939,959,978,998,1019,1038,1058,1078,1098,1119,1138,1159,1178,1198,1218,1238,1258,1278,1298,1318,1338,1358,1378,1398,1418,1437,1458,1479,1498,1518,1537,1558,1578,1598],"xSR":741.5,"ySR":573.95,"xT1":424.9,"yT1":0,"xT2":1058.1,"yT2":0,"toosoon":0,"cond_shown":"Congruent","ratio_trial":300,"L_num":3,"L_den":6,"R_num":2,"R_den":10,"correct_side":1,"subjID":"EstebanAndrésViracacháRamírez36","gender":"0","school":"6","age":"11"},{"start_time":1551900020136,"click_time":1551900021124,"finger_time":1551900020864,"fix_duration":250,"trial":40,"RT":728,"MT":260,"sideResp":1,"stimulus":[],"xmouse":[766,766,766,766,766,766,766,766,766,766,766,766,766,766,766,766,766,766,766,766,766,766,766,766,766,766,766,766,766,766,766,766,766,766,765,752,733,700,607,579,564,556,548,540,535,533,529,526,515,515],"ymouse":[630,630,630,630,630,630,630,630,630,630,630,630,630,630,630,630,630,630,630,630,630,630,630,630,630,630,630,630,630,630,630,630,630,630,623,606,584,552,449,404,371,345,320,270,231,209,185,159,113,95],"timestamp_mouse":[10,37,48,69,89,109,129,149,168,188,209,228,248,268,289,308,329,348,369,388,408,428,448,469,488,508,529,548,568,589,609,628,648,668,689,708,728,749,768,788,809,828,848,868,888,908,928,948,968,988],"xSR":741.5,"ySR":573.95,"xT1":424.9,"yT1":0,"xT2":1058.1,"yT2":0,"toosoon":0,"cond_shown":"Incongruent","ratio_trial":200,"L_num":7,"L_den":10,"R_num":12,"R_den":24,"correct_side":1,"subjID":"EstebanAndrésViracacháRamírez36","gender":"0","school":"6","age":"11"},{"start_time":1551900023242,"click_time":1551900024284,"finger_time":1551900024025,"fix_duration":1037.1752103002848,"trial":41,"RT":783,"MT":259,"sideResp":1,"stimulus":[],"xmouse":[785,785,785,785,785,785,785,785,785,785,785,785,785,785,785,785,785,785,785,785,785,785,785,785,785,785,785,785,785,785,785,785,785,785,785,785,785,781,765,730,704,682,662,615,580,555,475,459,456,456,456,456,460],"ymouse":[622,622,622,622,622,622,622,622,622,622,622,622,622,622,622,622,622,622,622,622,622,622,622,622,622,622,622,622,622,622,622,622,622,622,622,622,622,611,575,503,441,377,304,152,76,38,0,0,0,0,0,0,5],"timestamp_mouse":[10,31,43,62,83,102,122,142,162,182,202,222,243,262,282,302,322,342,363,383,402,422,443,462,482,503,523,543,563,582,602,623,642,663,682,702,724,742,762,783,802,823,842,862,882,902,922,942,962,983,1002,1022,1042],"xSR":741.5,"ySR":573.95,"xT1":424.9,"yT1":0,"xT2":1058.1,"yT2":0,"toosoon":0,"cond_shown":"Incongruent","ratio_trial":300,"L_num":3,"L_den":6,"R_num":4,"R_den":20,"correct_side":1,"subjID":"EstebanAndrésViracacháRamírez36","gender":"0","school":"6","age":"11"},{"start_time":1551900026578,"click_time":1551900028604,"finger_time":1551900028425,"fix_duration":1492.653326099512,"trial":42,"RT":1847,"MT":179,"sideResp":2,"stimulus":[],"xmouse":[781,781,781,781,781,781,781,781,781,781,781,781,781,781,781,781,781,781,781,781,781,781,781,781,781,781,781,781,781,781,781,781,781,781,781,781,781,781,781,781,781,781,781,781,781,781,769,764,763,763,763,763,763,762,762,762,762,762,762,762,762,762,762,762,762,762,762,762,762,762,762,762,762,762,762,762,762,762,762,762,762,762,762,762,762,762,762,762,771,781,795,828,852,867,882,904,960,991,1029,1066,1093,1126],"ymouse":[618,618,618,618,618,618,618,618,618,618,618,618,618,618,618,618,618,618,618,618,618,618,618,618,618,618,618,618,618,618,618,618,618,618,618,618,618,618,618,618,618,618,618,618,618,618,617,616,616,616,616,616,616,616,616,616,616,616,616,616,616,616,616,616,616,616,616,616,616,616,616,616,616,616,616,616,616,616,616,616,616,616,616,616,616,616,616,614,611,606,602,592,577,563,543,511,415,362,295,207,137,30],"timestamp_mouse":[12,26,52,67,86,106,127,147,166,186,206,226,246,266,286,307,327,346,367,386,406,426,446,467,486,506,526,546,566,587,606,626,646,667,687,706,728,746,766,786,806,827,846,867,887,906,926,946,967,986,1007,1027,1046,1066,1087,1106,1127,1146,1166,1186,1207,1226,1247,1266,1287,1307,1326,1346,1367,1386,1406,1426,1447,1466,1486,1506,1526,1546,1567,1586,1606,1626,1646,1666,1687,1707,1727,1746,1766,1786,1807,1826,1847,1866,1887,1906,1926,1946,1967,1987,2007,2026],"xSR":741.5,"ySR":573.95,"xT1":424.9,"yT1":0,"xT2":1058.1,"yT2":0,"toosoon":0,"cond_shown":"Congruent","ratio_trial":300,"L_num":1,"L_den":30,"R_num":8,"R_den":24,"correct_side":2,"subjID":"EstebanAndrésViracacháRamírez36","gender":"0","school":"6","age":"11"},{"start_time":1551900030637,"click_time":1551900031804,"finger_time":1551900031624,"fix_duration":1191.8174956369226,"trial":43,"RT":987,"MT":180,"sideResp":2,"stimulus":[],"xmouse":[796,796,796,796,796,796,796,796,796,796,796,796,796,796,796,796,796,796,796,796,796,796,796,796,796,796,796,796,796,796,796,796,796,796,796,796,796,796,796,796,796,796,796,796,796,796,797,801,827,850,862,868,869,896,928,960,991,1020,1083],"ymouse":[628,628,628,628,628,628,628,628,628,628,628,628,628,628,628,628,628,628,628,628,628,628,628,628,628,628,628,628,628,628,628,628,628,628,628,628,628,628,628,628,628,628,628,628,628,628,628,624,594,581,575,572,572,518,432,326,228,156,45],"timestamp_mouse":[10,32,48,67,88,108,128,148,167,187,207,228,248,267,287,307,327,347,367,388,407,427,448,467,487,507,527,548,567,587,607,627,648,667,687,708,727,748,768,788,807,827,847,868,887,908,927,947,967,987,1007,1028,1047,1067,1087,1108,1127,1147,1167],"xSR":741.5,"ySR":573.95,"xT1":424.9,"yT1":0,"xT2":1058.1,"yT2":0,"toosoon":0,"cond_shown":"Incongruent","ratio_trial":200,"L_num":14,"L_den":30,"R_num":12,"R_den":18,"correct_side":2,"subjID":"EstebanAndrésViracacháRamírez36","gender":"0","school":"6","age":"11"},{"start_time":1551900033669,"click_time":1551900036164,"finger_time":1551900035824,"fix_duration":982.1258016906725,"trial":44,"RT":2155,"MT":340,"sideResp":2,"stimulus":[],"xmouse":[780,780,780,780,780,780,780,780,780,780,780,780,780,780,780,780,780,780,780,780,780,780,780,780,780,780,780,780,780,781,791,791,792,792,792,792,792,792,792,792,792,792,792,792,792,792,792,792,792,792,792,792,792,792,792,792,792,792,792,792,792,792,792,792,792,792,792,792,792,792,792,792,792,792,792,792,792,792,792,792,792,792,792,792,792,792,792,792,792,792,792,792,792,792,792,792,792,792,792,792,792,792,792,792,794,800,861,912,968,1030,1137,1162,1172,1177,1182,1189,1194,1197,1198,1198,1197,1190,1176,1157],"ymouse":[651,651,651,651,651,651,651,651,651,651,651,651,651,651,651,651,651,651,651,651,651,651,651,651,651,651,651,651,648,644,638,637,636,636,636,636,636,636,636,636,636,636,636,636,636,636,636,636,636,636,636,636,636,636,636,636,636,636,636,636,636,636,636,636,636,636,636,636,636,636,636,636,636,636,636,636,636,636,636,636,636,636,636,636,636,636,636,636,636,636,636,636,636,636,636,636,636,636,636,636,636,636,636,636,625,618,527,448,367,292,190,166,150,139,128,106,87,78,74,73,70,64,55,43],"timestamp_mouse":[37,55,75,95,115,136,155,175,195,216,236,255,275,296,315,335,355,376,396,415,435,456,475,495,515,535,556,576,596,615,635,655,675,695,715,736,755,775,796,816,836,855,876,895,915,936,955,975,996,1015,1035,1056,1075,1095,1115,1135,1155,1175,1195,1215,1236,1255,1275,1295,1315,1335,1356,1375,1396,1415,1436,1455,1476,1497,1515,1536,1556,1575,1596,1616,1635,1655,1675,1695,1715,1735,1755,1775,1795,1815,1835,1856,1875,1895,1916,1936,1955,1975,1996,2016,2036,2055,2076,2095,2115,2135,2155,2175,2195,2215,2235,2255,2275,2295,2316,2335,2356,2374,2395,2415,2435,2456,2475,2495],"xSR":741.5,"ySR":573.95,"xT1":424.9,"yT1":0,"xT2":1058.1,"yT2":0,"toosoon":0,"cond_shown":"Congruent","ratio_trial":200,"L_num":1,"L_den":2,"R_num":21,"R_den":30,"correct_side":2,"subjID":"EstebanAndrésViracacháRamírez36","gender":"0","school":"6","age":"11"},{"start_time":1551900038364,"click_time":1551900041505,"finger_time":1551900041184,"fix_duration":1439.8283240783976,"trial":45,"RT":2820,"MT":321,"sideResp":1,"stimulus":[],"xmouse":[783,783,783,783,783,783,783,783,783,783,783,783,783,783,783,783,783,783,783,783,783,783,783,783,783,783,783,783,783,783,783,783,783,783,783,783,783,783,783,783,783,783,783,783,783,783,783,783,783,783,783,783,783,783,783,783,783,783,783,783,783,783,783,783,783,783,783,783,783,783,783,783,783,783,783,783,783,783,783,783,783,783,783,783,783,783,783,783,783,783,783,783,783,783,783,783,783,783,783,783,783,783,783,783,783,783,783,783,783,783,783,783,783,783,783,783,783,783,783,783,783,783,783,783,783,783,783,783,783,783,783,783,783,783,783,783,783,783,783,776,766,734,618,553,539,538,535,503,464,431,419,419,419,419,419,419,419,425],"ymouse":[639,639,639,639,639,639,639,639,639,639,639,639,639,639,639,639,639,639,639,639,639,639,639,639,639,639,639,639,639,639,639,639,639,639,639,639,639,639,639,639,639,639,639,639,639,639,639,639,639,639,639,639,639,639,639,639,639,639,639,639,639,639,639,639,639,639,638,636,635,635,635,635,635,635,635,635,635,635,635,635,635,635,635,635,635,635,635,635,635,635,635,635,635,635,635,635,635,635,635,635,635,635,635,635,635,635,635,635,635,635,635,635,635,635,635,635,635,635,635,635,635,635,635,635,635,635,635,635,635,635,635,635,635,635,635,635,635,635,635,620,604,548,378,251,189,134,65,0,0,0,0,0,0,0,0,0,1,28],"timestamp_mouse":[8,20,40,60,80,100,120,141,160,181,200,220,240,260,280,300,322,340,361,380,400,420,440,460,481,500,520,541,560,580,600,620,640,660,680,700,721,740,761,780,800,821,840,860,881,901,920,940,960,981,1001,1020,1040,1061,1081,1101,1120,1140,1160,1181,1200,1221,1240,1260,1281,1300,1320,1340,1361,1380,1400,1421,1440,1460,1481,1500,1521,1541,1560,1580,1600,1621,1640,1660,1680,1700,1721,1740,1761,1782,1800,1820,1841,1860,1880,1900,1920,1940,1961,1980,2001,2020,2040,2061,2080,2100,2121,2141,2161,2180,2200,2221,2240,2261,2281,2300,2320,2341,2360,2381,2400,2420,2440,2460,2480,2501,2521,2540,2560,2580,2601,2620,2640,2661,2681,2700,2720,2741,2761,2781,2800,2820,2839,2861,2880,2901,2920,2940,2960,2980,3000,3021,3041,3060,3081,3100,3120,3140],"xSR":741.5,"ySR":573.95,"xT1":424.9,"yT1":0,"xT2":1058.1,"yT2":0,"toosoon":0,"cond_shown":"Incongruent","ratio_trial":100,"L_num":3,"L_den":6,"R_num":4,"R_den":10,"correct_side":1,"subjID":"EstebanAndrésViracacháRamírez36","gender":"0","school":"6","age":"11"},{"start_time":1551900043028,"click_time":1551900044405,"finger_time":1551900044124,"fix_duration":841.3372396172232,"trial":46,"RT":1096,"MT":281,"sideResp":1,"stimulus":[],"xmouse":[787,787,787,787,787,787,787,787,787,787,787,787,787,787,787,787,787,787,787,787,787,787,787,787,787,787,787,787,787,787,787,787,787,787,787,787,787,787,787,787,787,787,787,787,787,787,787,787,787,787,787,782,778,748,728,711,696,674,597,565,547,537,532,526,523,523,522,518,495],"ymouse":[633,633,633,633,633,633,633,633,633,633,633,633,633,633,633,633,633,633,633,633,633,633,633,633,633,633,633,633,633,633,633,633,633,633,633,633,633,633,633,633,633,633,633,633,633,633,633,633,633,633,633,633,633,622,612,601,589,568,478,438,406,382,359,317,293,265,234,188,79],"timestamp_mouse":[16,42,57,76,97,116,137,157,176,196,217,237,257,277,296,317,336,357,377,397,417,438,456,478,497,516,538,556,578,598,616,638,658,677,698,718,736,758,778,797,818,837,857,877,896,918,936,956,978,996,1016,1038,1057,1077,1096,1117,1136,1157,1177,1197,1217,1237,1257,1278,1297,1317,1337,1356,1377],"xSR":741.5,"ySR":573.95,"xT1":424.9,"yT1":0,"xT2":1058.1,"yT2":0,"toosoon":0,"cond_shown":"Congruent","ratio_trial":300,"L_num":20,"L_den":25,"R_num":9,"R_den":18,"correct_side":1,"subjID":"EstebanAndrésViracacháRamírez36","gender":"0","school":"6","age":"11"},{"start_time":1551900047740,"click_time":1551900048905,"finger_time":1551900048426,"fix_duration":833.939642202986,"trial":47,"RT":686,"MT":479,"sideResp":2,"stimulus":[],"xmouse":[788,788,788,788,788,788,788,788,788,788,788,788,788,788,788,788,788,788,788,788,788,788,788,788,788,788,788,788,788,788,788,788,788,809,848,877,893,905,915,931,937,944,948,960,965,969,972,977,991,999,1009,1018,1028,1041,1044,1046,1049,1052,1060],"ymouse":[617,617,617,617,617,617,617,617,617,617,617,617,617,617,617,617,617,617,617,617,617,617,617,617,617,617,617,617,617,617,617,617,616,589,555,530,510,489,465,420,400,379,362,322,309,300,291,279,252,237,220,201,184,146,120,108,97,86,69],"timestamp_mouse":[14,35,45,66,85,105,125,145,165,186,204,224,245,266,286,304,326,346,366,384,406,426,444,466,486,504,526,546,565,585,605,624,645,664,686,705,725,745,764,784,804,825,846,865,885,905,924,944,964,984,1006,1025,1045,1065,1086,1105,1124,1145,1165],"xSR":741.5,"ySR":573.95,"xT1":424.9,"yT1":0,"xT2":1058.1,"yT2":0,"toosoon":0,"cond_shown":"Incongruent","ratio_trial":300,"L_num":13,"L_den":26,"R_num":12,"R_den":15,"correct_side":2,"subjID":"EstebanAndrésViracacháRamírez36","gender":"0","school":"6","age":"11"},{"start_time":1551900050104,"click_time":1551900051186,"finger_time":1551900050826,"fix_duration":398.8397050675212,"trial":48,"RT":722,"MT":360,"sideResp":1,"stimulus":[],"xmouse":[780,780,780,780,780,780,780,780,780,780,780,780,780,780,780,780,780,780,780,780,780,780,780,780,780,780,780,780,780,780,780,780,780,780,780,750,727,696,671,660,645,637,628,622,612,575,564,558,554,550,541,537,527,513,496],"ymouse":[644,644,644,644,644,644,644,644,644,644,644,644,644,644,644,644,644,644,644,644,644,644,644,644,644,644,644,644,644,644,644,644,644,643,639,590,564,527,491,460,403,373,343,318,291,213,191,174,160,147,126,120,113,105,98],"timestamp_mouse":[9,33,41,62,80,100,122,142,161,181,201,222,242,261,281,301,320,342,360,381,402,420,440,462,480,502,521,542,561,582,600,621,641,660,681,701,722,740,761,781,800,821,841,861,880,901,921,941,961,981,1000,1020,1041,1061,1082],"xSR":741.5,"ySR":573.95,"xT1":424.9,"yT1":0,"xT2":1058.1,"yT2":0,"toosoon":0,"cond_shown":"Congruent","ratio_trial":200,"L_num":12,"L_den":15,"R_num":6,"R_den":10,"correct_side":1,"subjID":"EstebanAndrésViracacháRamírez36","gender":"0","school":"6","age":"11"},{"start_time":1551900052923,"click_time":1551900054445,"finger_time":1551900054244,"fix_duration":1117.6309806667919,"trial":49,"RT":1321,"MT":201,"sideResp":1,"stimulus":[],"xmouse":[815,815,815,815,815,815,815,815,815,815,815,815,815,815,815,815,815,815,815,815,815,815,815,815,815,815,815,815,815,815,815,815,815,815,815,815,815,815,815,815,815,815,815,815,815,815,815,815,815,815,815,815,815,815,815,815,815,815,815,815,815,815,815,815,807,768,716,641,573,494,468,452,439,433,423,423,426],"ymouse":[636,636,636,636,636,636,636,636,636,636,636,636,636,636,636,636,636,636,636,636,636,636,636,636,636,636,636,636,636,636,636,636,636,636,636,636,636,636,636,636,636,636,636,636,636,636,636,636,636,636,636,636,636,636,636,636,636,636,636,636,636,636,636,636,630,597,548,485,423,301,239,185,146,122,100,96,93],"timestamp_mouse":[11,36,43,61,82,103,121,142,162,183,202,222,242,263,281,303,322,341,363,383,403,423,443,463,482,501,522,543,562,582,603,621,642,663,682,703,721,743,763,783,803,822,842,862,881,903,923,943,963,983,1002,1021,1043,1061,1081,1102,1123,1141,1163,1183,1203,1223,1242,1263,1281,1302,1321,1342,1362,1382,1401,1422,1442,1461,1481,1502,1522],"xSR":741.5,"ySR":573.95,"xT1":424.9,"yT1":0,"xT2":1058.1,"yT2":0,"toosoon":0,"cond_shown":"Incongruent","ratio_trial":100,"L_num":10,"L_den":25,"R_num":9,"R_den":18,"correct_side":2,"subjID":"EstebanAndrésViracacháRamírez36","gender":"0","school":"6","age":"11"},{"start_time":1551900056967,"click_time":1551900057726,"finger_time":1551900057605,"fix_duration":1321.2847903929498,"trial":50,"RT":638,"MT":121,"sideResp":2,"stimulus":[],"xmouse":[799,799,799,799,799,799,799,799,799,799,799,799,799,799,799,799,799,799,799,799,799,799,799,799,799,799,799,799,799,806,814,834,936,982,1025,1057,1101,1122],"ymouse":[599,599,599,599,599,599,599,599,599,599,599,599,599,599,599,599,599,599,599,599,599,599,599,599,599,599,599,599,599,591,580,550,379,299,236,194,129,98],"timestamp_mouse":[18,38,58,79,98,119,138,159,178,199,219,239,257,277,299,318,338,359,378,399,419,438,458,479,498,519,538,559,577,598,618,638,658,678,699,718,738,759],"xSR":741.5,"ySR":573.95,"xT1":424.9,"yT1":0,"xT2":1058.1,"yT2":0,"toosoon":0,"cond_shown":"Incongruent","ratio_trial":300,"L_num":4,"L_den":20,"R_num":2,"R_den":4,"correct_side":2,"subjID":"EstebanAndrésViracacháRamírez36","gender":"0","school":"6","age":"11"},{"start_time":1551900059666,"click_time":1551900060805,"finger_time":1551900060404,"fix_duration":1120.1340935074038,"trial":51,"RT":738,"MT":401,"sideResp":1,"stimulus":[],"xmouse":[773,773,773,773,773,773,773,773,773,773,773,773,773,773,773,773,773,773,773,773,773,773,773,773,773,773,773,773,773,773,773,773,773,773,769,744,629,549,440,399,377,357,352,345,342,341,341,341,341,341,341,358,372,387,404,421,426],"ymouse":[629,629,629,629,629,629,629,629,629,629,629,629,629,629,629,629,629,629,629,629,629,629,629,629,629,629,629,629,629,629,629,629,629,626,620,592,438,324,152,45,0,0,0,0,0,0,0,0,0,0,0,0,0,2,7,9,10],"timestamp_mouse":[21,39,59,78,100,120,139,159,179,198,220,239,258,279,300,319,339,360,380,400,420,438,460,479,498,518,540,558,580,599,620,638,658,680,698,720,738,760,778,798,819,839,859,880,900,919,940,959,978,998,1019,1039,1058,1079,1099,1119,1138],"xSR":741.5,"ySR":573.95,"xT1":424.9,"yT1":0,"xT2":1058.1,"yT2":0,"toosoon":0,"cond_shown":"Incongruent","ratio_trial":200,"L_num":7,"L_den":10,"R_num":12,"R_den":24,"correct_side":1,"subjID":"EstebanAndrésViracacháRamírez36","gender":"0","school":"6","age":"11"},{"start_time":1551900062930,"click_time":1551900063905,"finger_time":1551900063705,"fix_duration":1303.3317627158845,"trial":52,"RT":775,"MT":200,"sideResp":2,"stimulus":[],"xmouse":[772,772,772,772,772,772,772,772,772,772,772,772,772,772,772,772,772,772,772,772,772,772,772,772,772,772,772,772,772,772,772,772,772,772,778,783,786,791,813,836,870,903,928,954,1029,1056,1071,1080,1104],"ymouse":[621,621,621,621,621,621,621,621,621,621,621,621,621,621,621,621,621,621,621,621,621,621,621,621,621,621,621,621,621,621,621,621,621,621,612,601,596,589,561,528,472,411,357,312,202,164,135,114,72],"timestamp_mouse":[15,42,55,76,95,116,134,155,176,196,215,236,255,275,295,316,335,356,374,396,415,434,454,476,494,515,535,554,576,595,614,635,655,674,694,714,735,755,775,795,814,835,855,875,896,915,934,954,975],"xSR":741.5,"ySR":573.95,"xT1":424.9,"yT1":0,"xT2":1058.1,"yT2":0,"toosoon":0,"cond_shown":"Congruent","ratio_trial":300,"L_num":4,"L_den":20,"R_num":13,"R_den":26,"correct_side":2,"subjID":"EstebanAndrésViracacháRamírez36","gender":"0","school":"6","age":"11"},{"start_time":1551900065679,"click_time":1551900066505,"finger_time":1551900066224,"fix_duration":970.4623405526488,"trial":53,"RT":545,"MT":281,"sideResp":1,"stimulus":[],"xmouse":[807,807,807,807,807,807,807,807,807,807,807,807,807,807,807,807,807,807,807,807,807,807,807,807,807,803,763,731,703,687,675,650,632,614,588,561,512,495,484,474,463,437],"ymouse":[629,629,629,629,629,629,629,629,629,629,629,629,629,629,629,629,629,629,629,629,629,629,629,629,629,627,598,572,548,526,504,432,389,350,314,276,206,169,149,129,104,53],"timestamp_mouse":[10,38,46,66,85,107,127,145,166,185,206,227,246,267,286,306,327,346,365,386,407,425,446,467,486,507,526,545,565,586,606,626,646,666,686,705,726,746,766,785,805,826],"xSR":741.5,"ySR":573.95,"xT1":424.9,"yT1":0,"xT2":1058.1,"yT2":0,"toosoon":0,"cond_shown":"Congruent","ratio_trial":200,"L_num":15,"L_den":25,"R_num":4,"R_den":10,"correct_side":1,"subjID":"EstebanAndrésViracacháRamírez36","gender":"0","school":"6","age":"11"},{"start_time":1551900067985,"click_time":1551900068865,"finger_time":1551900068705,"fix_duration":717.0073997021893,"trial":54,"RT":720,"MT":160,"sideResp":2,"stimulus":[],"xmouse":[776,776,776,776,776,776,776,776,776,776,776,776,776,776,776,776,776,776,776,776,776,776,776,776,776,776,783,787,790,792,793,797,801,809,819,833,867,887,910,938,970,1034,1074,1089,1100],"ymouse":[634,634,634,634,634,634,634,634,634,634,634,634,634,634,634,634,634,634,634,634,634,634,634,634,634,628,616,611,607,604,603,598,596,593,590,582,550,513,457,392,327,215,143,106,79],"timestamp_mouse":[1,37,41,60,80,101,120,141,160,179,201,221,240,260,280,300,321,340,360,380,399,420,441,461,480,499,520,5