[{"start_time":1551900813025,"click_time":1551900817412,"finger_time":1551900813033,"fix_duration":570.7233869073239,"trial":0,"RT":8,"MT":4379,"sideResp":1,"stimulus":"img/500/equaldotsize/L/4_Ratio_500_L_18_R_9.png","xmouse":[801,801,801,801,801,801,801,801,801,801,801,801,801,801,801,801,801,801,801,801,801,801,801,801,801,801,801,801,801,801,801,801,801,801,801,801,801,801,801,801,801,801,801,801,799,793,790,786,784,783,783,783,783,782,782,781,781,781,781,781,781,781,781,781,781,781,781,781,781,781,781,781,781,781,781,781,781,781,781,781,781,781,781,780,780,780,780,780,780,780,780,780,780,780,780,780,780,780,780,780,780,780,780,780,780,780,780,780,780,780,780,780,780,780,780,780,780,780,780,780,780,780,780,780,780,780,780,780,780,780,780,780,780,780,780,780,780,780,780,780,780,780,780,780,780,780,780,780,780,780,780,781,784,789,792,792,792,791,791,790,788,787,786,785,785,785,789,796,804,813,816,817,817,817,817,817,817,817,817,817,817,816,815,814,813,813,813,813,813,813,813,813,813,813,813,813,813,813,813,813,813,813,813,813,813,813,813,813,813,813,813,813,813,813,804,752,696,620,542,479],"ymouse":[548,548,548,548,548,548,548,548,548,548,548,548,548,548,548,548,548,548,548,548,548,548,548,548,548,548,548,548,548,548,548,548,548,548,548,548,548,548,548,548,548,548,548,548,548,560,568,577,583,585,585,585,587,590,592,594,595,595,595,596,597,597,597,597,597,597,597,597,597,597,597,597,597,597,597,597,597,597,597,597,597,597,597,599,599,600,600,600,600,600,600,600,600,600,600,600,600,600,600,600,600,600,600,600,600,600,600,600,600,600,600,600,600,600,600,600,600,600,600,600,600,600,600,600,600,600,600,600,600,600,600,600,600,600,600,600,600,600,600,600,600,600,600,600,600,600,600,600,600,601,632,658,682,702,712,719,721,722,722,722,722,722,722,722,720,705,688,671,651,623,596,589,587,587,587,587,587,587,587,587,587,588,591,592,593,593,593,593,593,593,593,593,593,593,593,593,593,593,593,593,593,593,593,593,593,593,593,593,593,593,593,593,593,593,566,454,353,237,128,41],"timestamp_mouse":[8,24,44,64,85,106,126,144,166,185,205,224,244,265,285,304,324,344,366,385,405,426,444,465,485,504,525,544,564,585,605,625,646,664,685,704,724,745,764,785,805,825,844,865,884,904,925,945,965,985,1005,1024,1044,1065,1086,1106,1126,1144,1165,1186,1206,1224,1246,1265,1285,1305,1327,1345,1367,1385,1405,1426,1445,1465,1485,1506,1526,1545,1565,1585,1606,1625,1646,1665,1685,1706,1726,1745,1765,1785,1805,1825,1845,1866,1886,1905,1926,1946,1965,1986,2005,2025,2045,2066,2086,2106,2125,2145,2166,2185,2205,2225,2245,2265,2285,2306,2325,2345,2365,2386,2406,2426,2445,2465,2486,2505,2526,2547,2565,2586,2606,2625,2645,2666,2685,2705,2725,2745,2767,2785,2805,2827,2845,2865,2886,2905,2926,2946,2965,2986,3005,3025,3046,3067,3086,3105,3126,3145,3165,3185,3205,3226,3245,3265,3285,3305,3326,3346,3365,3386,3406,3425,3445,3467,3486,3506,3525,3545,3565,3585,3606,3626,3645,3667,3685,3706,3725,3745,3766,3785,3805,3825,3846,3865,3885,3905,3925,3946,3967,3986,4005,4027,4045,4066,4087,4105,4125,4145,4165,4186,4205,4226,4245,4265,4286,4305,4326,4345,4367,4387],"xSR":741.5,"ySR":469.95,"xT1":424.9,"yT1":0,"xT2":1058.1,"yT2":0,"toosoon":0,"cond_shown":"equaldotsize","ratio_trial":500,"smaller_num":"9","larger_num":"18","correct_side":1,"subjID":"EstebanAndresViracachaRamirez36","gender":"0","age":"11","school":"6","test":{"fix_dur":[250,1500],"timestim":300,"targets_dim":[100,100],"targets_relative_coord":[0.3,0.7],"size_stim":[880,420],"start_dim":[100,100],"size_start":[300,300],"size_fix":60,"samplingrate":20,"img_types":["equaldotsize","equaldotanddens","randomdotsizeEA"],"ratios":[250,500,750,900],"rep_conds":9,"nTrials":120,"trials_to_rest":500,"Trials_order":[3,28,74,96,47,39,84,95,52,55,115,42,26,82,17,69,71,46,92,73,38,49,98,113,76,7,12,77,51,19,10,25,41,5,60,16,110,86,85,0,30,29,20,58,78,21,9,101,44,36,94,87,34,83,72,2,114,116,106,40,109,8,66,1,56,107,93,75,89,6,100,31,43,22,18,119,23,90,45,97,91,67,117,103,27,108,50,104,62,48,54,32,24,53,63,14,111,59,13,81,99,70,68,79,105,57,64,37,112,11,65,118,35,80,15,61,33,4,88,102],"cond_shown":["equaldotsize","equaldotanddens","randomdotsizeEA","equaldotsize","randomdotsizeEA","equaldotsize","equaldotsize","randomdotsizeEA","equaldotanddens","equaldotanddens","equaldotanddens","equaldotsize","randomdotsizeEA","equaldotanddens","randomdotsizeEA","equaldotsize","randomdotsizeEA","equaldotanddens","randomdotsizeEA","equaldotanddens","randomdotsizeEA","equaldotanddens","randomdotsizeEA","randomdotsizeEA","equaldotanddens","equaldotanddens","equaldotsize","randomdotsizeEA","equaldotsize","equaldotanddens","equaldotanddens","equaldotanddens","randomdotsizeEA","randomdotsizeEA","equaldotsize","equaldotanddens","randomdotsizeEA","randomdotsizeEA","equaldotanddens","equaldotsize","equaldotsize","randomdotsizeEA","randomdotsizeEA","equaldotanddens","equaldotsize","equaldotsize","equaldotsize","randomdotsizeEA","randomdotsizeEA","equaldotsize","equaldotanddens","equaldotsize","equaldotanddens","randomdotsizeEA","equaldotsize","randomdotsizeEA","equaldotsize","randomdotsizeEA","equaldotanddens","equaldotanddens","equaldotanddens","randomdotsizeEA","equaldotsize","equaldotanddens","randomdotsizeEA","randomdotsizeEA","equaldotsize","equaldotsize","randomdotsizeEA","equaldotsize","equaldotanddens","equaldotanddens","equaldotanddens","equaldotanddens","equaldotsize","randomdotsizeEA","randomdotsizeEA","equaldotsize","equaldotsize","equaldotanddens","equaldotanddens","equaldotanddens","equaldotsize","equaldotanddens","equaldotsize","equaldotsize","randomdotsizeEA","randomdotsizeEA","randomdotsizeEA","equaldotsize","equaldotsize","randomdotsizeEA","equaldotsize","randomdotsizeEA","equaldotsize","randomdotsizeEA","equaldotsize","randomdotsizeEA","equaldotanddens","equaldotsize","equaldotsize","equaldotanddens","randomdotsizeEA","equaldotanddens","equaldotsize","equaldotsize","equaldotanddens","equaldotanddens","equaldotanddens","randomdotsizeEA","randomdotsizeEA","equaldotanddens","randomdotsizeEA","randomdotsizeEA","equaldotsize","equaldotanddens","equaldotsize","equaldotanddens","equaldotanddens","equaldotsize"],"ratio_trial":[500,500,250,250,900,500,250,900,500,750,750,750,250,900,500,900,900,900,750,250,250,250,250,500,500,750,250,500,500,750,900,250,500,500,250,500,250,250,250,250,750,500,750,900,750,900,900,500,750,250,900,500,900,900,250,250,750,750,900,500,250,750,750,250,750,900,900,500,500,750,500,750,750,900,750,900,900,750,900,250,750,750,900,750,500,250,250,750,250,250,750,750,250,500,500,250,500,900,250,900,500,900,750,750,900,900,500,250,500,900,500,900,900,750,500,250,900,500,500,750],"smaller_num":["9","5","6","1","18","5","3","18","4","15","3","3","4","9","9","18","18","18","15","3","6","6","2","3","3","12","1","5","9","6","18","3","9","6","4","1","3","4","3","2","3","6","15","18","15","18","18","2","15","3","9","9","18","9","5","5","12","3","9","6","2","3","6","2","18","18","18","5","3","15","2","3","18","18","15","18","18","3","9","2","3","3","18","15","10","6","3","6","3","3","15","3","4","10","5","6","4","9","3","18","10","9","15","6","18","18","2","4","2","18","2","9","9","3","2","2","18","3","9","6"],"larger_num":["18","10","24","4","20","10","12","20","8","20","4","4","16","10","18","20","20","20","20","12","24","24","8","6","6","16","4","10","18","8","20","12","18","12","16","2","12","16","12","8","4","12","20","20","20","20","20","4","20","12","10","18","20","10","20","20","16","4","10","12","8","4","8","8","24","20","20","10","6","20","4","4","24","20","20","20","20","4","10","8","4","4","20","20","20","24","12","8","12","12","20","4","16","20","10","24","8","10","12","20","20","10","20","8","20","20","4","16","4","20","4","10","10","4","4","8","20","6","18","8"],"correct_side":[1,1,2,2,2,2,1,2,1,2,1,1,2,2,2,1,2,2,1,1,2,1,1,2,2,2,2,1,1,1,1,2,2,1,2,2,1,1,2,1,1,1,2,2,1,1,1,1,2,1,2,2,2,1,2,2,2,1,1,1,2,1,1,1,1,1,1,2,2,2,2,1,1,2,2,1,1,1,2,1,1,1,2,2,2,1,2,1,2,2,2,1,2,2,1,1,1,2,1,1,2,2,2,1,1,1,1,1,1,2,2,2,2,1,1,1,1,2,2,1],"img_shown":["img/500/equaldotsize/L/4_Ratio_500_L_18_R_9.png","img/500/equaldotanddens/L/7_Ratio_500_L_10_R_5.png","img/250/randomdotsizeEA/R/6_Ratio_250_L_6_R_24.png","img/250/equaldotsize/R/8_Ratio_250_L_1_R_4.png","img/900/randomdotsizeEA/R/11_Ratio_900_L_18_R_20.png","img/500/equaldotsize/R/14_Ratio_500_L_5_R_10.png","img/250/equaldotsize/L/15_Ratio_250_L_12_R_3.png","img/900/randomdotsizeEA/R/14_Ratio_900_L_18_R_20.png","img/500/equaldotanddens/L/8_Ratio_500_L_8_R_4.png","img/750/equaldotanddens/R/5_Ratio_750_L_15_R_20.png","img/750/equaldotanddens/L/10_Ratio_750_L_4_R_3.png","img/750/equaldotsize/L/8_Ratio_750_L_4_R_3.png","img/250/randomdotsizeEA/R/10_Ratio_250_L_4_R_16.png","img/900/equaldotanddens/R/6_Ratio_900_L_9_R_10.png","img/500/randomdotsizeEA/R/6_Ratio_500_L_9_R_18.png","img/900/equaldotsize/L/2_Ratio_900_L_20_R_18.png","img/900/randomdotsizeEA/R/12_Ratio_900_L_18_R_20.png","img/900/equaldotanddens/R/11_Ratio_900_L_18_R_20.png","img/750/randomdotsizeEA/L/1_Ratio_750_L_20_R_15.png","img/250/equaldotanddens/L/15_Ratio_250_L_12_R_3.png","img/250/randomdotsizeEA/R/6_Ratio_250_L_6_R_24.png","img/250/equaldotanddens/L/5_Ratio_250_L_24_R_6.png","img/250/randomdotsizeEA/L/1_Ratio_250_L_8_R_2.png","img/500/randomdotsizeEA/R/2_Ratio_500_L_3_R_6.png","img/500/equaldotanddens/R/2_Ratio_500_L_3_R_6.png","img/750/equaldotanddens/R/11_Ratio_750_L_12_R_16.png","img/250/equaldotsize/R/8_Ratio_250_L_1_R_4.png","img/500/randomdotsizeEA/L/7_Ratio_500_L_10_R_5.png","img/500/equaldotsize/L/4_Ratio_500_L_18_R_9.png","img/750/equaldotanddens/L/13_Ratio_750_L_8_R_6.png","img/900/equaldotanddens/L/4_Ratio_900_L_20_R_18.png","img/250/equaldotanddens/R/11_Ratio_250_L_3_R_12.png","img/500/randomdotsizeEA/R/6_Ratio_500_L_9_R_18.png","img/500/randomdotsizeEA/L/11_Ratio_500_L_12_R_6.png","img/250/equaldotsize/R/10_Ratio_250_L_4_R_16.png","img/500/equaldotanddens/R/15_Ratio_500_L_1_R_2.png","img/250/randomdotsizeEA/L/14_Ratio_250_L_12_R_3.png","img/250/randomdotsizeEA/L/2_Ratio_250_L_16_R_4.png","img/250/equaldotanddens/R/4_Ratio_250_L_3_R_12.png","img/250/equaldotsize/L/3_Ratio_250_L_8_R_2.png","img/750/equaldotsize/L/10_Ratio_750_L_4_R_3.png","img/500/randomdotsizeEA/L/13_Ratio_500_L_12_R_6.png","img/750/randomdotsizeEA/R/4_Ratio_750_L_15_R_20.png","img/900/equaldotanddens/R/9_Ratio_900_L_18_R_20.png","img/750/equaldotsize/L/1_Ratio_750_L_20_R_15.png","img/900/equaldotsize/L/2_Ratio_900_L_20_R_18.png","img/900/equaldotsize/L/8_Ratio_900_L_20_R_18.png","img/500/randomdotsizeEA/L/10_Ratio_500_L_4_R_2.png","img/750/randomdotsizeEA/R/5_Ratio_750_L_15_R_20.png","img/250/equaldotsize/L/15_Ratio_250_L_12_R_3.png","img/900/equaldotanddens/R/3_Ratio_900_L_9_R_10.png","img/500/equaldotsize/R/6_Ratio_500_L_9_R_18.png","img/900/equaldotanddens/R/14_Ratio_900_L_18_R_20.png","img/900/randomdotsizeEA/L/1_Ratio_900_L_10_R_9.png","img/250/equaldotsize/R/12_Ratio_250_L_5_R_20.png","img/250/randomdotsizeEA/R/12_Ratio_250_L_5_R_20.png","img/750/equaldotsize/R/11_Ratio_750_L_12_R_16.png","img/750/randomdotsizeEA/L/8_Ratio_750_L_4_R_3.png","img/900/equaldotanddens/L/1_Ratio_900_L_10_R_9.png","img/500/equaldotanddens/L/11_Ratio_500_L_12_R_6.png","img/250/equaldotanddens/R/13_Ratio_250_L_2_R_8.png","img/750/randomdotsizeEA/L/9_Ratio_750_L_4_R_3.png","img/750/equaldotsize/L/13_Ratio_750_L_8_R_6.png","img/250/equaldotanddens/L/1_Ratio_250_L_8_R_2.png","img/750/randomdotsizeEA/L/6_Ratio_750_L_24_R_18.png","img/900/randomdotsizeEA/L/2_Ratio_900_L_20_R_18.png","img/900/equaldotsize/L/2_Ratio_900_L_20_R_18.png","img/500/equaldotsize/R/14_Ratio_500_L_5_R_10.png","img/500/randomdotsizeEA/R/2_Ratio_500_L_3_R_6.png","img/750/equaldotsize/R/3_Ratio_750_L_15_R_20.png","img/500/equaldotanddens/R/9_Ratio_500_L_2_R_4.png","img/750/equaldotanddens/L/8_Ratio_750_L_4_R_3.png","img/750/equaldotanddens/L/6_Ratio_750_L_24_R_18.png","img/900/equaldotanddens/R/12_Ratio_900_L_18_R_20.png","img/750/equaldotsize/R/3_Ratio_750_L_15_R_20.png","img/900/randomdotsizeEA/L/2_Ratio_900_L_20_R_18.png","img/900/randomdotsizeEA/L/8_Ratio_900_L_20_R_18.png","img/750/equaldotsize/L/8_Ratio_750_L_4_R_3.png","img/900/equaldotsize/R/15_Ratio_900_L_9_R_10.png","img/250/equaldotanddens/L/7_Ratio_250_L_8_R_2.png","img/750/equaldotanddens/L/10_Ratio_750_L_4_R_3.png","img/750/equaldotanddens/L/10_Ratio_750_L_4_R_3.png","img/900/equaldotsize/R/11_Ratio_900_L_18_R_20.png","img/750/equaldotanddens/R/5_Ratio_750_L_15_R_20.png","img/500/equaldotsize/R/3_Ratio_500_L_10_R_20.png","img/250/equaldotsize/L/5_Ratio_250_L_24_R_6.png","img/250/randomdotsizeEA/R/4_Ratio_250_L_3_R_12.png","img/750/randomdotsizeEA/L/13_Ratio_750_L_8_R_6.png","img/250/randomdotsizeEA/R/4_Ratio_250_L_3_R_12.png","img/250/equaldotsize/R/11_Ratio_250_L_3_R_12.png","img/750/equaldotsize/R/4_Ratio_750_L_15_R_20.png","img/750/randomdotsizeEA/L/8_Ratio_750_L_4_R_3.png","img/250/equaldotsize/R/10_Ratio_250_L_4_R_16.png","img/500/randomdotsizeEA/R/3_Ratio_500_L_10_R_20.png","img/500/equaldotsize/L/7_Ratio_500_L_10_R_5.png","img/250/randomdotsizeEA/L/5_Ratio_250_L_24_R_6.png","img/500/equaldotsize/L/8_Ratio_500_L_8_R_4.png","img/900/randomdotsizeEA/R/5_Ratio_900_L_9_R_10.png","img/250/equaldotanddens/L/15_Ratio_250_L_12_R_3.png","img/900/equaldotsize/L/8_Ratio_900_L_20_R_18.png","img/500/equaldotsize/R/3_Ratio_500_L_10_R_20.png","img/900/equaldotanddens/R/5_Ratio_900_L_9_R_10.png","img/750/randomdotsizeEA/R/5_Ratio_750_L_15_R_20.png","img/750/equaldotanddens/L/13_Ratio_750_L_8_R_6.png","img/900/equaldotsize/L/8_Ratio_900_L_20_R_18.png","img/900/equaldotsize/L/10_Ratio_900_L_20_R_18.png","img/500/equaldotanddens/L/10_Ratio_500_L_4_R_2.png","img/250/equaldotanddens/L/2_Ratio_250_L_16_R_4.png","img/500/equaldotanddens/L/5_Ratio_500_L_4_R_2.png","img/900/randomdotsizeEA/R/11_Ratio_900_L_18_R_20.png","img/500/randomdotsizeEA/R/9_Ratio_500_L_2_R_4.png","img/900/equaldotanddens/R/6_Ratio_900_L_9_R_10.png","img/900/randomdotsizeEA/R/7_Ratio_900_L_9_R_10.png","img/750/randomdotsizeEA/L/10_Ratio_750_L_4_R_3.png","img/500/equaldotsize/L/10_Ratio_500_L_4_R_2.png","img/250/equaldotanddens/L/7_Ratio_250_L_8_R_2.png","img/900/equaldotsize/L/2_Ratio_900_L_20_R_18.png","img/500/equaldotanddens/R/2_Ratio_500_L_3_R_6.png","img/500/equaldotanddens/R/6_Ratio_500_L_9_R_18.png","img/750/equaldotsize/L/14_Ratio_750_L_8_R_6.png"],"Rat0":[["12_Ratio_0_L_9_R_0.png","13_Ratio_0_L_6_R_0.png","5_Ratio_0_L_2_R_0.png","6_Ratio_0_L_4_R_0.png","8_Ratio_0_L_6_R_0.png"],["1_Ratio_0_L_0_R_17.png","10_Ratio_0_L_0_R_22.png","11_Ratio_0_L_0_R_1.png","14_Ratio_0_L_0_R_24.png","15_Ratio_0_L_0_R_4.png","2_Ratio_0_L_0_R_5.png","3_Ratio_0_L_0_R_17.png","4_Ratio_0_L_0_R_7.png","7_Ratio_0_L_0_R_19.png","9_Ratio_0_L_0_R_15.png"]],"Rat250":[["1_Ratio_250_L_8_R_2.png","14_Ratio_250_L_12_R_3.png","15_Ratio_250_L_12_R_3.png","2_Ratio_250_L_16_R_4.png","3_Ratio_250_L_8_R_2.png","5_Ratio_250_L_24_R_6.png","7_Ratio_250_L_8_R_2.png"],["10_Ratio_250_L_4_R_16.png","11_Ratio_250_L_3_R_12.png","12_Ratio_250_L_5_R_20.png","13_Ratio_250_L_2_R_8.png","4_Ratio_250_L_3_R_12.png","6_Ratio_250_L_6_R_24.png","8_Ratio_250_L_1_R_4.png","9_Ratio_250_L_3_R_12.png"]],"Rat500":[["10_Ratio_500_L_4_R_2.png","11_Ratio_500_L_12_R_6.png","13_Ratio_500_L_12_R_6.png","4_Ratio_500_L_18_R_9.png","5_Ratio_500_L_4_R_2.png","7_Ratio_500_L_10_R_5.png","8_Ratio_500_L_8_R_4.png"],["1_Ratio_500_L_9_R_18.png","12_Ratio_500_L_1_R_2.png","14_Ratio_500_L_5_R_10.png","15_Ratio_500_L_1_R_2.png","2_Ratio_500_L_3_R_6.png","3_Ratio_500_L_10_R_20.png","6_Ratio_500_L_9_R_18.png","9_Ratio_500_L_2_R_4.png"]],"Rat750":[["1_Ratio_750_L_20_R_15.png","10_Ratio_750_L_4_R_3.png","13_Ratio_750_L_8_R_6.png","14_Ratio_750_L_8_R_6.png","6_Ratio_750_L_24_R_18.png","8_Ratio_750_L_4_R_3.png","9_Ratio_750_L_4_R_3.png"],["11_Ratio_750_L_12_R_16.png","12_Ratio_750_L_3_R_4.png","15_Ratio_750_L_9_R_12.png","2_Ratio_750_L_6_R_8.png","3_Ratio_750_L_15_R_20.png","4_Ratio_750_L_15_R_20.png","5_Ratio_750_L_15_R_20.png","7_Ratio_750_L_3_R_4.png"]],"Rat900":[["1_Ratio_900_L_10_R_9.png","10_Ratio_900_L_20_R_18.png","2_Ratio_900_L_20_R_18.png","4_Ratio_900_L_20_R_18.png","8_Ratio_900_L_20_R_18.png"],["11_Ratio_900_L_18_R_20.png","12_Ratio_900_L_18_R_20.png","13_Ratio_900_L_18_R_20.png","14_Ratio_900_L_18_R_20.png","15_Ratio_900_L_9_R_10.png","3_Ratio_900_L_9_R_10.png","5_Ratio_900_L_9_R_10.png","6_Ratio_900_L_9_R_10.png","7_Ratio_900_L_9_R_10.png","9_Ratio_900_L_18_R_20.png"]],"Rat1000":[["10_Ratio_1000_L_16_R_16.png","11_Ratio_1000_L_6_R_6.png","12_Ratio_1000_L_14_R_14.png","13_Ratio_1000_L_20_R_20.png","15_Ratio_1000_L_15_R_15.png","2_Ratio_1000_L_17_R_17.png","4_Ratio_1000_L_9_R_9.png","5_Ratio_1000_L_6_R_6.png","6_Ratio_1000_L_19_R_19.png","8_Ratio_1000_L_14_R_14.png","9_Ratio_1000_L_25_R_25.png"],["1_Ratio_1000_L_1_R_1.png","14_Ratio_1000_L_17_R_17.png","3_Ratio_1000_L_17_R_17.png","7_Ratio_1000_L_6_R_6.png"]]}},{"start_time":1551900819546,"click_time":1551900820591,"finger_time":1551900820391,"fix_duration":1173.6926685664764,"trial":1,"RT":845,"MT":200,"sideResp":1,"stimulus":"img/500/equaldotanddens/L/7_Ratio_500_L_10_R_5.png","xmouse":[783,783,783,783,783,783,783,783,783,783,783,783,783,783,783,783,783,783,783,783,783,783,783,783,783,783,783,783,783,783,783,783,783,783,783,783,783,783,783,783,783,761,735,663,594,582,582,582,582,576,556,535,519],"ymouse":[640,640,640,640,640,640,640,640,640,640,640,640,640,640,640,640,640,640,640,640,640,640,640,640,640,640,640,640,640,640,640,640,640,640,640,640,640,640,640,640,640,620,596,502,361,292,230,172,134,78,48,29,17],"timestamp_mouse":[8,24,49,65,85,105,125,144,165,185,204,226,245,265,286,304,325,345,365,385,405,424,445,464,484,505,525,544,564,584,604,625,644,664,684,704,724,744,765,786,804,825,845,865,884,905,924,945,966,984,1004,1024,1044],"xSR":741.5,"ySR":573.95,"xT1":424.9,"yT1":0,"xT2":1058.1,"yT2":0,"toosoon":0,"cond_shown":"equaldotanddens","ratio_trial":500,"smaller_num":"5","larger_num":"10","correct_side":1,"subjID":"EstebanAndresViracachaRamirez36","gender":"0","age":"11","school":"6"},{"start_time":1551900824119,"click_time":1551900824950,"finger_time":1551900824871,"fix_duration":1445.436004474416,"trial":2,"RT":752,"MT":79,"sideResp":1,"stimulus":"img/250/randomdotsizeEA/R/6_Ratio_250_L_6_R_24.png","xmouse":[795,795,795,795,793,785,782,781,781,781,781,781,781,781,781,781,781,781,781,781,781,781,781,781,781,781,781,781,781,781,781,781,781,781,781,776,763,737,697,644,516,453],"ymouse":[636,636,636,636,635,635,634,634,634,634,634,634,634,634,634,634,634,634,634,634,634,634,634,634,634,634,634,634,634,634,634,634,634,634,634,623,601,558,471,363,168,93],"timestamp_mouse":[11,34,51,73,91,111,131,151,171,192,212,231,252,272,292,312,331,351,371,391,411,431,451,472,491,511,531,551,571,591,611,632,652,671,692,712,732,752,772,791,811,831],"xSR":741.5,"ySR":573.95,"xT1":424.9,"yT1":0,"xT2":1058.1,"yT2":0,"toosoon":0,"cond_shown":"randomdotsizeEA","ratio_trial":250,"smaller_num":"6","larger_num":"24","correct_side":2,"subjID":"EstebanAndresViracachaRamirez36","gender":"0","age":"11","school":"6"},{"start_time":1551900828674,"click_time":1551900830030,"finger_time":1551900829511,"fix_duration":1323.527292703874,"trial":3,"RT":837,"MT":519,"sideResp":2,"stimulus":"img/250/equaldotsize/R/8_Ratio_250_L_1_R_4.png","xmouse":[801,801,801,801,801,801,801,801,801,801,801,801,801,801,801,801,801,801,801,801,801,801,801,801,801,801,801,801,801,801,801,801,801,801,801,801,801,801,801,808,814,836,883,905,928,938,955,988,1009,1036,1060,1079,1109,1123,1142,1158,1174,1205,1212,1214,1215,1215,1209,1203,1190,1176,1166,1137],"ymouse":[637,637,637,637,637,637,637,637,637,637,637,637,637,637,637,637,637,637,637,637,637,637,637,637,637,637,637,637,637,637,637,637,637,637,637,637,637,637,637,617,606,572,494,457,408,383,346,303,283,266,251,236,197,175,150,129,111,70,52,37,24,17,13,13,17,22,26,32],"timestamp_mouse":[17,45,57,76,96,117,136,156,177,196,217,236,257,277,297,317,337,357,377,397,417,436,457,476,496,517,537,557,576,597,617,637,656,676,698,717,737,756,776,796,818,837,856,877,896,916,936,956,977,996,1017,1037,1056,1077,1096,1117,1136,1156,1177,1196,1216,1236,1256,1277,1298,1317,1336,1356],"xSR":741.5,"ySR":573.95,"xT1":424.9,"yT1":0,"xT2":1058.1,"yT2":0,"toosoon":0,"cond_shown":"equaldotsize","ratio_trial":250,"smaller_num":"1","larger_num":"4","correct_side":2,"subjID":"EstebanAndresViracachaRamirez36","gender":"0","age":"11","school":"6"},{"start_time":1551900832134,"click_time":1551900833630,"finger_time":1551900833310,"fix_duration":1302.2445288746158,"trial":4,"RT":1176,"MT":320,"sideResp":2,"stimulus":"img/900/randomdotsizeEA/R/11_Ratio_900_L_18_R_20.png","xmouse":[807,807,807,807,807,807,807,807,807,807,807,807,807,807,807,807,807,807,807,807,807,807,807,807,807,807,807,807,807,807,807,807,807,807,807,807,807,807,807,808,808,808,808,808,808,808,808,808,808,808,808,808,808,808,808,808,816,832,865,941,984,1017,1052,1058,1080,1086,1093,1099,1106,1109,1109,1109,1109,1109,1112],"ymouse":[622,622,622,622,622,622,622,622,622,622,622,622,622,622,622,622,622,622,622,622,622,622,622,622,622,622,622,622,622,622,622,622,622,622,622,622,622,619,616,611,611,611,611,611,611,611,611,611,611,611,611,611,611,611,611,611,597,576,531,442,380,314,244,227,183,174,163,154,144,127,123,120,119,118,99],"timestamp_mouse":[17,36,57,76,97,116,136,156,178,196,217,236,256,276,296,316,336,357,377,397,416,436,457,476,496,516,536,557,577,596,616,637,658,677,697,718,736,756,777,797,817,836,856,876,896,916,936,956,976,996,1018,1037,1056,1076,1096,1117,1136,1158,1176,1196,1216,1237,1258,1278,1296,1316,1337,1356,1377,1396,1416,1437,1456,1476,1496],"xSR":741.5,"ySR":573.95,"xT1":424.9,"yT1":0,"xT2":1058.1,"yT2":0,"toosoon":0,"cond_shown":"randomdotsizeEA","ratio_trial":900,"smaller_num":"18","larger_num":"20","correct_side":2,"subjID":"EstebanAndresViracachaRamirez36","gender":"0","age":"11","school":"6"},{"start_time":1551900835762,"click_time":1551900836750,"finger_time":1551900836410,"fix_duration":1309.8236697255702,"trial":5,"RT":648,"MT":340,"sideResp":2,"stimulus":"img/500/equaldotsize/R/14_Ratio_500_L_5_R_10.png","xmouse":[806,806,806,806,806,806,806,806,806,806,806,806,806,806,806,806,806,806,806,806,806,806,806,806,806,806,806,806,806,806,808,811,823,955,996,1017,1038,1086,1177,1192,1194,1194,1194,1194,1194,1192,1187,1179,1145,1129],"ymouse":[600,600,600,600,600,600,600,600,600,600,600,600,600,600,600,600,600,600,600,600,600,600,600,600,600,600,600,600,600,600,591,581,566,482,455,431,405,307,49,0,0,0,0,0,0,0,0,0,0,8],"timestamp_mouse":[10,33,49,69,89,108,128,149,168,189,208,228,248,268,289,310,329,348,369,389,410,429,449,469,489,510,529,549,569,589,609,628,648,668,688,708,729,748,769,788,809,828,848,868,889,909,928,949,968,988],"xSR":741.5,"ySR":573.95,"xT1":424.9,"yT1":0,"xT2":1058.1,"yT2":0,"toosoon":0,"cond_shown":"equaldotsize","ratio_trial":500,"smaller_num":"5","larger_num":"10","correct_side":2,"subjID":"EstebanAndresViracachaRamirez36","gender":"0","age":"11","school":"6"},{"start_time":1551900837931,"click_time":1551900838550,"finger_time":1551900838490,"fix_duration":379.0677047944351,"trial":6,"RT":559,"MT":60,"sideResp":1,"stimulus":"img/250/equaldotsize/L/15_Ratio_250_L_12_R_3.png","xmouse":[777,777,777,777,777,777,777,777,777,777,777,777,777,777,777,777,777,777,777,777,777,777,777,777,777,777,759,714,654,532,486],"ymouse":[625,625,625,625,625,625,625,625,625,625,625,625,625,625,625,625,625,625,625,625,625,625,625,625,625,625,594,506,397,171,86],"timestamp_mouse":[31,40,59,79,99,119,139,159,180,200,219,240,259,279,299,319,340,359,379,399,420,439,459,479,501,520,540,559,580,599,619],"xSR":741.5,"ySR":573.95,"xT1":424.9,"yT1":0,"xT2":1058.1,"yT2":0,"toosoon":0,"cond_shown":"equaldotsize","ratio_trial":250,"smaller_num":"3","larger_num":"12","correct_side":1,"subjID":"EstebanAndresViracachaRamirez36","gender":"0","age":"11","school":"6"},{"start_time":1551900839808,"click_time":1551900840631,"finger_time":1551900840431,"fix_duration":396.6479053792551,"trial":7,"RT":623,"MT":200,"sideResp":2,"stimulus":"img/900/randomdotsizeEA/R/14_Ratio_900_L_18_R_20.png","xmouse":[777,777,777,777,777,777,777,777,777,777,777,777,777,777,777,777,777,777,777,777,777,777,777,777,777,777,777,777,777,780,795,847,880,929,982,1014,1038,1042,1047,1049,1050,1060],"ymouse":[631,631,631,631,631,631,631,631,631,631,631,631,631,631,631,631,631,631,631,631,631,631,631,631,631,631,631,631,631,627,613,575,547,453,291,183,92,70,57,55,55,48],"timestamp_mouse":[5,38,42,62,83,103,122,142,163,184,202,222,242,262,282,302,322,343,363,382,402,423,442,462,482,503,522,543,562,582,604,623,642,662,684,702,722,743,764,782,803,823],"xSR":741.5,"ySR":573.95,"xT1":424.9,"yT1":0,"xT2":1058.1,"yT2":0,"toosoon":0,"cond_shown":"randomdotsizeEA","ratio_trial":900,"smaller_num":"18","larger_num":"20","correct_side":2,"subjID":"EstebanAndresViracachaRamirez36","gender":"0","age":"11","school":"6"},{"start_time":1551900843322,"click_time":1551900843951,"finger_time":1551900843890,"fix_duration":470.56613820813897,"trial":8,"RT":568,"MT":61,"sideResp":1,"stimulus":"img/500/equaldotanddens/L/8_Ratio_500_L_8_R_4.png","xmouse":[784,784,784,784,784,784,784,784,784,784,784,784,784,784,784,784,784,784,784,784,784,784,784,784,784,784,782,759,725,677,546,480],"ymouse":[619,619,619,619,619,619,619,619,619,619,619,619,619,619,619,619,619,619,619,619,619,619,619,619,619,619,616,583,538,465,215,56],"timestamp_mouse":[12,37,48,68,88,108,128,148,168,188,209,228,249,268,288,308,329,349,370,388,408,428,448,468,488,510,528,548,568,590,608,628],"xSR":741.5,"ySR":573.95,"xT1":424.9,"yT1":0,"xT2":1058.1,"yT2":0,"toosoon":0,"cond_shown":"equaldotanddens","ratio_trial":500,"smaller_num":"4","larger_num":"8","correct_side":1,"subjID":"EstebanAndresViracachaRamirez36","gender":"0","age":"11","school":"6"},{"start_time":1551900846146,"click_time":1551900846831,"finger_time":1551900846651,"fix_duration":1193.5097179862757,"trial":9,"RT":505,"MT":180,"sideResp":2,"stimulus":"img/750/equaldotanddens/R/5_Ratio_750_L_15_R_20.png","xmouse":[794,794,794,794,794,794,794,794,794,794,794,794,794,794,794,794,794,794,794,794,794,794,794,799,838,861,882,900,913,942,972,1012,1064,1095,1108],"ymouse":[654,654,654,654,654,654,654,654,654,654,654,654,654,654,654,654,654,654,654,654,654,654,654,649,616,599,583,567,551,485,385,255,157,112,87],"timestamp_mouse":[8,24,47,64,84,104,124,144,165,184,204,224,245,264,284,304,324,344,364,384,406,425,444,464,484,504,525,544,565,584,605,624,644,664,684],"xSR":741.5,"ySR":573.95,"xT1":424.9,"yT1":0,"xT2":1058.1,"yT2":0,"toosoon":0,"cond_shown":"equaldotanddens","ratio_trial":750,"smaller_num":"15","larger_num":"20","correct_side":2,"subjID":"EstebanAndresViracachaRamirez36","gender":"0","age":"11","school":"6"},{"start_time":1551900848664,"click_time":1551900849330,"finger_time":1551900849231,"fix_duration":1012.8938940765695,"trial":10,"RT":567,"MT":99,"sideResp":1,"stimulus":"img/750/equaldotanddens/L/10_Ratio_750_L_4_R_3.png","xmouse":[786,786,786,786,786,786,786,786,786,786,786,786,786,786,786,786,786,786,786,786,786,786,786,786,786,786,786,785,715,656,590,519,468,443],"ymouse":[606,606,606,606,606,606,606,606,606,606,606,606,606,606,606,606,606,606,606,606,606,606,606,606,606,606,606,606,535,475,385,252,146,32],"timestamp_mouse":[10,33,46,66,86,106,127,146,166,186,207,227,246,266,286,306,327,346,367,386,407,427,446,467,487,506,526,547,566,587,606,627,646,666],"xSR":741.5,"ySR":573.95,"xT1":424.9,"yT1":0,"xT2":1058.1,"yT2":0,"toosoon":0,"cond_shown":"equaldotanddens","ratio_trial":750,"smaller_num":"3","larger_num":"4","correct_side":1,"subjID":"EstebanAndresViracachaRamirez36","gender":"0","age":"11","school":"6"},{"start_time":1551900850583,"click_time":1551900851630,"finger_time":1551900851291,"fix_duration":431.78704674423574,"trial":11,"RT":708,"MT":339,"sideResp":1,"stimulus":"img/750/equaldotsize/L/8_Ratio_750_L_4_R_3.png","xmouse":[779,779,779,779,779,779,779,779,779,779,779,779,779,779,779,779,779,779,779,779,779,779,779,779,779,779,779,779,779,780,780,780,780,773,760,739,710,644,608,580,568,570,592,592,591,590,588,578,563,545,528,496,465],"ymouse":[637,637,637,637,637,637,637,637,637,637,637,637,637,637,637,637,637,637,637,637,637,637,637,637,637,637,637,637,637,635,633,629,620,607,588,558,519,425,342,260,191,106,13,9,7,4,1,0,0,0,0,0,2],"timestamp_mouse":[7,30,48,68,87,107,128,147,167,187,207,227,248,267,287,307,327,348,369,387,407,427,447,467,489,507,527,547,568,588,609,627,647,668,688,708,727,747,768,788,809,829,847,868,888,908,927,948,968,988,1007,1028,1047],"xSR":741.5,"ySR":573.95,"xT1":424.9,"yT1":0,"xT2":1058.1,"yT2":0,"toosoon":0,"cond_shown":"equaldotsize","ratio_trial":750,"smaller_num":"3","larger_num":"4","correct_side":1,"subjID":"EstebanAndresViracachaRamirez36","gender":"0","age":"11","school":"6"},{"start_time":1551900853815,"click_time":1551900854930,"finger_time":1551900854590,"fix_duration":1484.9467445197386,"trial":12,"RT":775,"MT":340,"sideResp":2,"stimulus":"img/250/randomdotsizeEA/R/10_Ratio_250_L_4_R_16.png","xmouse":[786,786,786,786,786,786,786,786,786,786,786,786,786,786,786,786,786,786,786,786,786,786,786,786,786,786,786,786,786,786,786,786,786,786,787,797,805,817,857,908,1023,1061,1085,1101,1113,1130,1140,1153,1162,1171,1176,1177,1175,1169,1164,1155],"ymouse":[620,620,620,620,620,620,620,620,620,620,620,620,620,620,620,620,620,620,620,620,620,620,620,620,620,620,620,620,620,620,620,620,620,620,618,614,610,605,588,566,376,287,237,211,189,148,131,115,105,88,71,66,61,54,49,46],"timestamp_mouse":[17,41,55,75,95,115,135,155,175,195,217,235,255,275,295,316,335,355,375,396,415,436,456,477,495,515,535,556,576,595,616,636,655,675,695,716,736,755,775,796,815,836,855,875,896,915,935,955,975,995,1015,1035,1056,1075,1095,1115],"xSR":741.5,"ySR":573.95,"xT1":424.9,"yT1":0,"xT2":1058.1,"yT2":0,"toosoon":0,"cond_shown":"randomdotsizeEA","ratio_trial":250,"smaller_num":"4","larger_num":"16","correct_side":2,"subjID":"EstebanAndresViracachaRamirez36","gender":"0","age":"11","school":"6"},{"start_time":1551900856508,"click_time":1551900857731,"finger_time":1551900857131,"fix_duration":916.865079183684,"trial":13,"RT":623,"MT":600,"sideResp":1,"stimulus":"img/900/equaldotanddens/R/6_Ratio_900_L_9_R_10.png","xmouse":[756,756,756,756,756,756,756,756,756,756,756,756,756,756,756,756,756,756,756,756,756,756,756,756,756,756,756,756,756,756,756,734,700,653,597,483,382,366,362,361,361,361,361,363,369,375,383,383,383,383,383,383,383,384,384,384,392,399,409,416,424,425],"ymouse":[636,636,636,636,636,636,636,636,636,636,636,636,636,636,636,636,636,636,636,636,636,636,636,636,636,636,636,636,636,636,632,591,525,449,356,178,55,37,29,27,27,27,27,26,26,26,26,26,26,26,26,26,26,26,26,28,37,39,41,42,42,42],"timestamp_mouse":[8,37,42,63,82,102,123,143,162,183,202,223,242,262,283,303,322,342,362,382,402,423,442,462,482,504,523,543,562,583,603,623,643,662,683,703,722,743,762,783,802,823,842,863,883,902,922,942,962,982,1003,1022,1044,1062,1082,1102,1123,1142,1162,1183,1202,1223],"xSR":741.5,"ySR":573.95,"xT1":424.9,"yT1":0,"xT2":1058.1,"yT2":0,"toosoon":0,"cond_shown":"equaldotanddens","ratio_trial":900,"smaller_num":"9","larger_num":"10","correct_side":2,"subjID":"EstebanAndresViracachaRamirez36","gender":"0","age":"11","school":"6"},{"start_time":1551900861590,"click_time":1551900862930,"finger_time":1551900862210,"fix_duration":856.4006853246747,"trial":14,"RT":620,"MT":720,"sideResp":2,"stimulus":"img/500/randomdotsizeEA/R/6_Ratio_500_L_9_R_18.png","xmouse":[795,795,795,795,795,795,795,795,795,795,795,795,795,795,795,795,795,795,785,781,775,775,775,775,775,775,775,775,775,768,745,729,668,667,667,666,666,666,669,680,690,710,737,753,772,789,807,845,868,888,902,917,988,1025,1044,1086,1103,1121,1165,1188,1206,1222,1222,1222,1215,1196,1181,1157],"ymouse":[643,643,643,643,643,643,643,643,643,643,643,643,643,643,643,643,643,643,645,645,645,645,645,645,645,645,645,645,645,645,632,623,590,589,589,589,589,589,589,589,589,589,589,589,589,589,586,562,539,513,492,463,115,36,6,0,0,0,0,0,0,0,5,25,50,74,89,99],"timestamp_mouse":[2,21,41,61,81,101,120,140,161,180,200,220,241,261,281,300,321,340,361,381,400,420,440,461,482,500,520,540,560,581,601,620,640,661,680,701,721,740,760,780,800,821,840,860,880,901,921,940,960,980,1000,1020,1041,1061,1080,1100,1120,1140,1160,1181,1200,1220,1241,1260,1280,1300,1320,1340],"xSR":741.5,"ySR":573.95,"xT1":424.9,"yT1":0,"xT2":1058.1,"yT2":0,"toosoon":0,"cond_shown":"randomdotsizeEA","ratio_trial":500,"smaller_num":"9","larger_num":"18","correct_side":2,"subjID":"EstebanAndresViracachaRamirez36","gender":"0","age":"11","school":"6"},{"start_time":1551900865065,"click_time":1551900866630,"finger_time":1551900865831,"fix_duration":1432.8722951917161,"trial":15,"RT":766,"MT":799,"sideResp":2,"stimulus":"img/900/equaldotsize/L/2_Ratio_900_L_20_R_18.png","xmouse":[804,804,804,804,804,804,804,804,804,804,804,804,804,804,804,804,804,804,804,804,804,804,804,804,804,804,804,804,804,804,804,804,804,804,804,804,804,800,729,652,559,477,425,411,412,419,428,436,440,440,440,439,439,439,439,439,439,439,439,439,443,450,460,480,491,503,518,540,578,603,663,756,863,1061,1110,1125,1130,1135,1158],"ymouse":[614,614,614,614,614,614,614,614,614,614,614,614,614,614,614,614,614,614,614,614,614,614,614,614,614,614,614,614,614,614,614,614,614,614,614,614,614,614,538,474,405,342,296,265,256,243,230,206,168,155,145,138,137,137,137,137,137,137,137,140,148,158,172,191,201,211,219,227,232,232,224,209,188,159,151,143,132,109,75],"timestamp_mouse":[10,33,45,66,86,106,126,147,165,185,205,225,246,265,286,305,325,347,365,386,407,426,445,465,485,505,525,545,565,586,605,625,646,665,686,705,726,746,766,785,805,827,846,865,886,905,925,947,965,986,1006,1026,1045,1066,1086,1107,1125,1146,1166,1185,1205,1227,1245,1266,1286,1305,1325,1345,1365,1385,1405,1425,1445,1465,1485,1505,1526,1545,1565],"xSR":741.5,"ySR":573.95,"xT1":424.9,"yT1":0,"xT2":1058.1,"yT2":0,"toosoon":0,"cond_shown":"equaldotsize","ratio_trial":900,"smaller_num":"18","larger_num":"20","correct_side":1,"subjID":"EstebanAndresViracachaRamirez36","gender":"0","age":"11","school":"6"},{"start_time":1551900868179,"click_time":1551900869591,"finger_time":1551900868930,"fix_duration":485.5150947110596,"trial":16,"RT":751,"MT":661,"sideResp":2,"stimulus":"img/900/randomdotsizeEA/R/12_Ratio_900_L_18_R_20.png","xmouse":[804,804,804,804,804,804,804,804,804,804,804,804,804,804,804,804,804,804,804,804,804,804,804,804,804,804,804,804,804,804,804,804,804,804,802,793,773,728,712,707,707,707,707,707,707,707,707,707,707,707,707,709,811,896,990,1067,1107,1121,1089,1053,1035,1029,1029,1029,1029,1029,1030,1039,1046,1055,1069],"ymouse":[622,622,622,622,622,622,622,622,622,622,622,622,622,622,622,622,622,622,622,622,622,622,622,622,622,622,622,622,622,622,622,622,622,622,620,615,600,568,557,554,554,554,554,554,554,554,554,554,554,554,554,554,525,491,432,360,278,0,0,0,0,0,0,0,0,0,1,29,42,52,59],"timestamp_mouse":[11,33,51,72,91,113,131,152,172,191,212,231,252,271,291,311,332,352,372,391,411,432,451,471,491,512,532,553,572,592,611,631,651,672,692,712,731,751,771,791,812,831,852,871,892,912,932,952,971,992,1011,1031,1051,1071,1091,1112,1131,1151,1171,1192,1212,1232,1252,1272,1292,1311,1331,1351,1371,1392,1411],"xSR":741.5,"ySR":573.95,"xT1":424.9,"yT1":0,"xT2":1058.1,"yT2":0,"toosoon":0,"cond_shown":"randomdotsizeEA","ratio_trial":900,"smaller_num":"18","larger_num":"20","correct_side":2,"subjID":"EstebanAndresViracachaRamirez36","gender":"0","age":"11","school":"6"},{"start_time":1551900873163,"click_time":1551900874291,"finger_time":1551900873730,"fix_duration":1350.2097712302289,"trial":17,"RT":567,"MT":561,"sideResp":2,"stimulus":"img/900/equaldotanddens/R/11_Ratio_900_L_18_R_20.png","xmouse":[797,797,797,797,797,797,797,797,797,797,797,797,797,797,797,797,797,797,797,797,797,797,797,797,797,802,810,818,825,825,825,824,818,791,772,741,710,692,688,688,688,688,689,730,778,827,868,910,940,984,999,1006,1011,1030,1040,1054,1071],"ymouse":[626,626,626,626,626,626,626,626,626,626,626,626,626,626,626,626,626,626,626,626,626,626,626,626,626,621,609,591,568,559,552,546,535,503,473,425,374,344,335,335,335,334,334,345,351,351,344,321,291,207,162,126,101,68,62,56,49],"timestamp_mouse":[10,40,47,67,87,107,127,147,168,187,207,227,248,267,287,309,329,347,367,388,408,427,447,468,487,507,527,549,567,587,608,628,647,667,688,707,729,747,768,787,808,827,848,867,887,907,927,947,967,987,1007,1027,1048,1067,1088,1107,1127],"xSR":741.5,"ySR":573.95,"xT1":424.9,"yT1":0,"xT2":1058.1,"yT2":0,"toosoon":0,"cond_shown":"equaldotanddens","ratio_trial":900,"smaller_num":"18","larger_num":"20","correct_side":2,"subjID":"EstebanAndresViracachaRamirez36","gender":"0","age":"11","school":"6"},{"start_time":1551900875629,"click_time":1551900878571,"finger_time":1551900877931,"fix_duration":615.6822828436432,"trial":18,"RT":2302,"MT":640,"sideResp":1,"stimulus":"img/750/randomdotsizeEA/L/1_Ratio_750_L_20_R_15.png","xmouse":[751,751,751,751,751,751,751,751,751,751,751,751,751,751,751,751,751,751,751,751,751,751,751,751,751,751,751,751,751,751,751,751,751,751,751,751,755,756,758,759,759,759,759,759,759,759,759,759,759,759,759,759,759,759,759,759,759,759,761,762,762,762,762,761,761,761,761,761,761,761,761,761,764,770,782,803,804,804,804,806,800,797,797,797,797,797,797,797,797,797,797,797,797,799,801,804,804,804,804,804,804,803,799,797,796,796,796,796,796,796,796,796,796,786,776,687,640,614,607,607,611,615,619,623,624,588,503,415,364,348,348,348,348,348,349,378,422,464,493,521,535,545,546,547,547,543,532,510],"ymouse":[641,641,641,641,641,641,641,641,641,641,641,641,641,641,641,641,641,641,641,641,641,641,641,641,641,641,641,641,641,641,641,641,641,641,641,641,625,609,602,597,596,596,596,596,596,596,596,596,596,596,596,596,596,596,596,596,596,596,595,596,606,611,614,616,616,616,616,616,616,616,616,616,613,609,601,588,588,588,588,591,613,617,619,619,619,619,619,619,619,619,619,619,619,617,616,614,614,614,614,614,614,614,615,615,615,615,615,615,615,615,615,615,615,614,611,540,470,401,326,206,165,151,135,119,105,48,0,0,0,0,0,0,0,0,3,46,88,119,134,143,143,136,131,126,122,105,90,68],"timestamp_mouse":[9,32,41,62,83,102,122,142,163,182,202,223,243,262,283,302,322,343,362,382,402,422,441,461,483,502,522,542,562,581,603,621,642,662,682,702,722,743,762,783,802,823,843,862,882,903,922,941,962,983,1002,1022,1043,1062,1083,1102,1122,1143,1162,1182,1201,1223,1243,1262,1283,1302,1321,1342,1363,1383,1403,1422,1442,1463,1483,1503,1522,1542,1562,1582,1602,1623,1641,1662,1683,1701,1721,1743,1763,1782,1803,1822,1842,1862,1882,1901,1923,1943,1962,1982,2003,2022,2043,2061,2082,2102,2123,2142,2163,2182,2203,2223,2242,2262,2281,2302,2323,2342,2362,2382,2402,2423,2442,2463,2482,2502,2522,2541,2562,2582,2602,2623,2642,2662,2683,2702,2722,2742,2763,2782,2802,2821,2842,2862,2882,2902,2922,2942],"xSR":741.5,"ySR":573.95,"xT1":424.9,"yT1":0,"xT2":1058.1,"yT2":0,"toosoon":0,"cond_shown":"randomdotsizeEA","ratio_trial":750,"smaller_num":"15","larger_num":"20","correct_side":1,"subjID":"EstebanAndresViracachaRamirez36","gender":"0","age":"11","school":"6"},{"start_time":1551900881940,"click_time":1551900882631,"finger_time":1551900882551,"fix_duration":1086.2465719498052,"trial":19,"RT":611,"MT":80,"sideResp":1,"stimulus":"img/250/equaldotanddens/L/15_Ratio_250_L_12_R_3.png","xmouse":[777,777,777,777,777,777,777,777,777,777,777,777,777,777,777,777,777,777,777,777,777,777,777,777,777,777,777,777,777,759,732,694,646,577,428],"ymouse":[659,659,659,659,659,659,659,659,659,659,659,659,659,659,659,659,659,659,659,659,659,659,659,659,659,659,659,659,655,617,578,521,416,244,23],"timestamp_mouse":[11,39,51,70,92,111,131,150,171,191,212,230,251,272,291,311,331,351,372,391,412,431,451,471,492,512,532,551,572,590,611,630,652,671,691],"xSR":741.5,"ySR":573.95,"xT1":424.9,"yT1":0,"xT2":1058.1,"yT2":0,"toosoon":0,"cond_shown":"equaldotanddens","ratio_trial":250,"smaller_num":"3","larger_num":"12","correct_side":1,"subjID":"EstebanAndresViracachaRamirez36","gender":"0","age":"11","school":"6"},{"start_time":1551900884371,"click_time":1551900885312,"finger_time":1551900885031,"fix_duration":398.23762350679016,"trial":20,"RT":660,"MT":281,"sideResp":2,"stimulus":"img/250/randomdotsizeEA/R/6_Ratio_250_L_6_R_24.png","xmouse":[799,799,799,799,799,799,799,799,799,799,799,799,799,799,799,799,799,799,799,799,799,799,799,799,799,799,799,799,799,799,799,801,815,886,922,956,977,984,993,998,1002,1007,1013,1025,1038,1055,1092,1138],"ymouse":[613,613,613,613,613,613,613,613,613,613,613,613,613,613,613,613,613,613,613,613,613,613,613,613,613,613,613,613,613,613,613,611,598,524,465,389,321,274,219,201,184,169,151,133,122,115,106,98],"timestamp_mouse":[8,20,40,61,79,101,119,141,161,180,199,220,240,261,280,301,320,340,360,381,401,419,441,461,480,501,521,539,560,580,599,620,641,660,679,700,720,740,760,781,800,820,840,860,879,899,920,941],"xSR":741.5,"ySR":573.95,"xT1":424.9,"yT1":0,"xT2":1058.1,"yT2":0,"toosoon":0,"cond_shown":"randomdotsizeEA","ratio_trial":250,"smaller_num":"6","larger_num":"24","correct_side":2,"subjID":"EstebanAndresViracachaRamirez36","gender":"0","age":"11","school":"6"},{"start_time":1551900886282,"click_time":1551900887431,"finger_time":1551900886892,"fix_duration":250,"trial":21,"RT":610,"MT":539,"sideResp":1,"stimulus":"img/250/equaldotanddens/L/5_Ratio_250_L_24_R_6.png","xmouse":[790,790,790,790,790,790,790,790,790,790,790,790,790,790,790,790,790,790,790,790,790,790,790,790,790,790,790,790,790,785,766,729,599,512,427,347,329,319,319,319,320,321,324,327,335,341,371,427,453,466,469,469,469,469,469,469,469,469],"ymouse":[604,604,604,604,604,604,604,604,604,604,604,604,604,604,604,604,604,604,604,604,604,604,604,604,604,604,604,604,604,583,527,466,286,186,104,46,30,16,11,6,2,0,0,0,0,0,0,0,0,0,0,0,0,0,0,0,0,4],"timestamp_mouse":[9,34,50,70,88,109,129,149,169,190,208,230,248,269,289,308,329,349,369,389,410,429,449,468,489,510,530,548,569,589,610,629,649,669,689,710,730,749,769,788,809,829,849,870,889,909,929,949,968,989,1008,1028,1049,1070,1090,1109,1130,1149],"xSR":741.5,"ySR":573.95,"xT1":424.9,"yT1":0,"xT2":1058.1,"yT2":0,"toosoon":0,"cond_shown":"equaldotanddens","ratio_trial":250,"smaller_num":"6","larger_num":"24","correct_side":1,"subjID":"EstebanAndresViracachaRamirez36","gender":"0","age":"11","school":"6"},{"start_time":1551900888380,"click_time":1551900889451,"finger_time":1551900889012,"fix_duration":466.7449656673541,"trial":22,"RT":632,"MT":439,"sideResp":1,"stimulus":"img/250/randomdotsizeEA/L/1_Ratio_250_L_8_R_2.png","xmouse":[807,807,807,807,807,807,807,807,807,807,807,807,807,807,807,807,807,807,807,807,807,807,807,807,807,807,807,807,807,806,799,749,638,578,522,465,414,361,358,358,358,360,381,396,409,415,417,420,436,445,446,447,447,447],"ymouse":[635,635,635,635,635,635,635,635,635,635,635,635,635,635,635,635,635,635,635,635,635,635,635,635,635,635,635,635,635,635,623,540,411,329,252,180,126,69,59,49,40,24,5,0,0,0,0,0,0,0,0,0,0,6],"timestamp_mouse":[11,31,50,72,92,110,132,150,170,192,210,231,252,272,292,312,331,351,371,391,411,430,451,472,490,512,530,552,570,591,612,632,651,672,691,712,732,751,771,791,812,832,850,870,892,911,931,951,972,992,1012,1031,1051,1071],"xSR":741.5,"ySR":573.95,"xT1":424.9,"yT1":0,"xT2":1058.1,"yT2":0,"toosoon":0,"cond_shown":"randomdotsizeEA","ratio_trial":250,"smaller_num":"2","larger_num":"8","correct_side":1,"subjID":"EstebanAndresViracachaRamirez36","gender":"0","age":"11","school":"6"},{"start_time":1551900890750,"click_time":1551900891551,"finger_time":1551900891371,"fix_duration":518.9659724246947,"trial":23,"RT":621,"MT":180,"sideResp":2,"stimulus":"img/500/randomdotsizeEA/R/2_Ratio_500_L_3_R_6.png","xmouse":[770,770,770,770,770,770,770,770,770,770,770,770,770,770,770,770,770,770,770,770,770,770,770,770,770,770,776,784,793,819,832,847,878,903,956,974,986,1002,1016,1050,1072],"ymouse":[631,631,631,631,631,631,631,631,631,631,631,631,631,631,631,631,631,631,631,631,631,631,631,631,631,631,631,631,629,614,594,540,440,353,186,143,116,88,67,27,5],"timestamp_mouse":[9,33,41,62,81,102,122,141,162,180,202,222,242,261,282,301,321,342,362,382,401,421,442,461,480,501,521,541,561,582,601,621,640,662,681,701,721,741,762,781,800],"xSR":741.5,"ySR":573.95,"xT1":424.9,"yT1":0,"xT2":1058.1,"yT2":0,"toosoon":0,"cond_shown":"randomdotsizeEA","ratio_trial":500,"smaller_num":"3","larger_num":"6","correct_side":2,"subjID":"EstebanAndresViracachaRamirez36","gender":"0","age":"11","school":"6"},{"start_time":1551900893735,"click_time":1551900894431,"finger_time":1551900894330,"fix_duration":1443.1571747134037,"trial":24,"RT":595,"MT":101,"sideResp":2,"stimulus":"img/500/equaldotanddens/R/2_Ratio_500_L_3_R_6.png","xmouse":[777,777,777,777,777,777,777,777,777,777,777,777,777,777,777,777,777,777,777,777,777,777,777,777,777,777,777,789,805,888,924,973,1007,1032,1080],"ymouse":[619,619,619,619,619,619,619,619,619,619,619,619,619,619,619,619,619,619,619,619,619,619,619,619,619,619,619,608,595,525,482,418,362,308,93],"timestamp_mouse":[17,35,56,76,96,117,137,157,176,196,215,236,257,275,295,316,336,356,377,395,417,436,455,477,495,516,537,556,577,595,616,635,656,676,696],"xSR":741.5,"ySR":573.95,"xT1":424.9,"yT1":0,"xT2":1058.1,"yT2":0,"toosoon":0,"cond_shown":"equaldotanddens","ratio_trial":500,"smaller_num":"3","larger_num":"6","correct_side":2,"subjID":"EstebanAndresViracachaRamirez36","gender":"0","age":"11","school":"6"},{"start_time":1551900896448,"click_time":1551900897132,"finger_time":1551900896972,"fix_duration":1195.6067179445402,"trial":25,"RT":524,"MT":160,"sideResp":2,"stimulus":"img/750/equaldotanddens/R/11_Ratio_750_L_12_R_16.png","xmouse":[786,786,786,786,786,786,786,786,786,786,786,786,786,786,786,786,786,786,786,786,786,786,786,786,796,827,875,930,993,1053,1058,1065,1066,1069,1086],"ymouse":[619,619,619,619,619,619,619,619,619,619,619,619,619,619,619,619,619,619,619,619,619,619,619,619,601,578,538,485,400,230,194,162,136,119,97],"timestamp_mouse":[9,38,42,64,83,103,123,144,164,184,204,223,243,264,283,303,324,343,363,383,403,423,443,462,483,503,524,544,562,582,604,624,643,664,684],"xSR":741.5,"ySR":573.95,"xT1":424.9,"yT1":0,"xT2":1058.1,"yT2":0,"toosoon":0,"cond_shown":"equaldotanddens","ratio_trial":750,"smaller_num":"12","larger_num":"16","correct_side":2,"subjID":"EstebanAndresViracachaRamirez36","gender":"0","age":"11","school":"6"},{"start_time":1551900898145,"click_time":1551900899012,"finger_time":1551900898851,"fix_duration":250,"trial":26,"RT":706,"MT":161,"sideResp":2,"stimulus":"img/250/equaldotsize/R/8_Ratio_250_L_1_R_4.png","xmouse":[818,818,818,818,818,818,818,818,818,818,818,818,818,818,818,818,818,818,818,818,818,818,818,818,818,818,818,818,818,818,818,818,818,818,831,877,933,1002,1062,1124,1133,1137,1137,1140],"ymouse":[642,642,642,642,642,642,642,642,642,642,642,642,642,642,642,642,642,642,642,642,642,642,642,642,642,642,642,642,642,642,642,642,642,642,616,560,489,396,316,206,164,136,110,93],"timestamp_mouse":[7,32,46,65,86,106,126,146,166,187,206,227,246,267,286,306,326,346,366,387,406,427,446,466,487,506,526,546,566,586,606,626,647,666,685,706,726,747,766,785,806,827,845,867],"xSR":741.5,"ySR":573.95,"xT1":424.9,"yT1":0,"xT2":1058.1,"yT2":0,"toosoon":0,"cond_shown":"equaldotsize","ratio_trial":250,"smaller_num":"1","larger_num":"4","correct_side":2,"subjID":"EstebanAndresViracachaRamirez36","gender":"0","age":"11","school":"6"},{"start_time":1551900900123,"click_time":1551900901071,"finger_time":1551900900890,"fix_duration":250,"trial":27,"RT":767,"MT":181,"sideResp":1,"stimulus":"img/500/randomdotsizeEA/L/7_Ratio_500_L_10_R_5.png","xmouse":[806,806,806,806,806,806,806,806,806,806,806,806,806,806,806,806,806,806,806,806,806,806,806,806,806,806,806,806,806,806,806,806,806,806,806,806,806,792,741,680,569,544,534,533,533,531,527,517],"ymouse":[627,627,627,627,627,627,627,627,627,627,627,627,627,627,627,627,627,627,627,627,627,627,627,627,627,627,627,627,627,627,627,627,627,627,627,627,626,584,493,411,271,211,171,129,107,78,68,57],"timestamp_mouse":[7,39,48,69,89,109,127,148,167,189,209,228,248,269,288,308,329,348,368,388,409,429,448,468,488,509,529,548,569,588,607,629,647,669,689,708,728,748,767,789,808,828,848,868,888,908,928,948],"xSR":741.5,"ySR":573.95,"xT1":424.9,"yT1":0,"xT2":1058.1,"yT2":0,"toosoon":0,"cond_shown":"randomdotsizeEA","ratio_trial":500,"smaller_num":"5","larger_num":"10","correct_side":1,"subjID":"EstebanAndresViracachaRamirez36","gender":"0","age":"11","school":"6"},{"start_time":1551900902932,"click_time":1551900903612,"finger_time":1551900903512,"fix_duration":1039.4389016739626,"trial":28,"RT":580,"MT":100,"sideResp":1,"stimulus":"img/500/equaldotsize/L/4_Ratio_500_L_18_R_9.png","xmouse":[815,815,815,815,815,815,815,815,815,815,815,815,815,815,815,815,815,815,815,815,815,815,815,815,815,815,815,800,772,725,599,541,509,490,486],"ymouse":[616,616,616,616,616,616,616,616,616,616,616,616,616,616,616,616,616,616,616,616,616,616,616,616,616,616,616,600,577,543,389,295,220,114,78],"timestamp_mouse":[1,19,39,58,79,99,120,140,159,180,199,219,240,258,279,300,319,339,359,379,399,420,439,460,479,500,519,540,559,580,598,618,649,660,680],"xSR":741.5,"ySR":573.95,"xT1":424.9,"yT1":0,"xT2":1058.1,"yT2":0,"toosoon":0,"cond_shown":"equaldotsize","ratio_trial":500,"smaller_num":"9","larger_num":"18","correct_side":1,"subjID":"EstebanAndresViracachaRamirez36","gender":"0","age":"11","school":"6"},{"start_time":1551900907107,"click_time":1551900908511,"finger_time":1551900907831,"fix_duration":1192.113498579148,"trial":29,"RT":724,"MT":680,"sideResp":1,"stimulus":"img/750/equaldotanddens/L/13_Ratio_750_L_8_R_6.png","xmouse":[772,772,772,772,772,772,772,772,772,772,772,772,772,772,772,772,772,772,772,772,772,772,772,772,772,772,772,772,772,772,772,772,778,789,801,826,841,841,841,841,840,828,817,800,780,754,653,589,522,462,423,379,372,370,369,367,366,366,366,368,374,405,422,440,472,490,502,502,502,503,503],"ymouse":[640,640,640,640,640,640,640,640,640,640,640,640,640,640,640,640,640,640,640,640,640,640,640,640,640,640,640,640,640,640,640,640,633,621,606,584,572,572,572,571,571,571,571,571,571,567,496,403,303,194,100,0,0,0,0,0,0,0,0,0,0,0,0,0,0,0,0,0,0,0,5],"timestamp_mouse":[8,25,48,65,85,103,125,144,163,184,204,223,244,264,285,303,324,344,365,385,405,424,444,465,483,503,524,544,564,585,604,623,644,664,685,704,724,743,764,784,804,824,845,863,885,904,924,945,964,983,1005,1024,1043,1065,1085,1105,1124,1145,1165,1184,1204,1223,1244,1265,1285,1304,1324,1343,1364,1384,1404],"xSR":741.5,"ySR":573.95,"xT1":424.9,"yT1":0,"xT2":1058.1,"yT2":0,"toosoon":0,"cond_shown":"equaldotanddens","ratio_trial":750,"smaller_num":"6","larger_num":"8","correct_side":1,"subjID":"EstebanAndresViracachaRamirez36","gender":"0","age":"11","school":"6"},{"start_time":1551900910372,"click_time":1551900911171,"finger_time":1551900911010,"fix_duration":1179.9911152355558,"trial":30,"RT":638,"MT":161,"sideResp":2,"stimulus":"img/900/equaldotanddens/L/4_Ratio_900_L_20_R_18.png","xmouse":[780,780,780,780,780,780,780,780,780,780,780,780,780,780,780,780,780,780,780,780,780,780,780,780,780,780,780,780,780,807,840,941,1002,1021,1026,1026,1026,1042,1058,1076],"ymouse":[611,611,611,611,611,611,611,611,611,611,611,611,611,611,611,611,611,611,611,611,611,611,611,611,611,611,611,611,611,602,592,561,500,432,344,252,178,76,43,16],"timestamp_mouse":[19,39,72,79,100,119,140,159,180,199,220,239,259,279,299,320,339,359,379,399,419,439,459,479,499,519,539,559,578,600,620,638,658,680,699,719,740,760,779,799],"xSR":741.5,"ySR":573.95,"xT1":424.9,"yT1":0,"xT2":1058.1,"yT2":0,"toosoon":0,"cond_shown":"equaldotanddens","ratio_trial":900,"smaller_num":"18","larger_num":"20","correct_side":1,"subjID":"EstebanAndresViracachaRamirez36","gender":"0","age":"11","school":"6"},{"start_time":1551900913294,"click_time":1551900914271,"finger_time":1551900913831,"fix_duration":1361.4265171172742,"trial":31,"RT":537,"MT":440,"sideResp":2,"stimulus":"img/250/equaldotanddens/R/11_Ratio_250_L_3_R_12.png","xmouse":[787,787,787,787,787,787,787,787,787,787,787,787,787,787,787,787,787,787,787,787,787,787,787,787,787,791,844,903,966,1033,1098,1199,1216,1223,1227,1230,1237,1238,1239,1239,1239,1231,1211,1181,1174,1166,1166,1164,1156],"ymouse":[646,646,646,646,646,646,646,646,646,646,646,646,646,646,646,646,646,646,646,646,646,646,646,646,646,642,577,490,393,296,208,66,37,18,8,0,0,0,0,0,0,0,0,10,13,16,16,16,18],"timestamp_mouse":[16,37,57,77,97,118,136,158,178,197,217,237,258,278,297,318,338,356,378,398,417,438,458,477,496,518,537,557,576,598,618,637,657,677,697,718,737,757,777,798,816,837,858,877,897,918,937,957,976],"xSR":741.5,"ySR":573.95,"xT1":424.9,"yT1":0,"xT2":1058.1,"yT2":0,"toosoon":0,"cond_shown":"equaldotanddens","ratio_trial":250,"smaller_num":"3","larger_num":"12","correct_side":2,"subjID":"EstebanAndresViracachaRamirez36","gender":"0","age":"11","school":"6"},{"start_time":1551900915432,"click_time":1551900916291,"finger_time":1551900916151,"fix_duration":579.8841592386888,"trial":32,"RT":719,"MT":140,"sideResp":2,"stimulus":"img/500/randomdotsizeEA/R/6_Ratio_500_L_9_R_18.png","xmouse":[801,801,801,801,801,801,801,801,801,801,801,801,801,801,801,801,801,801,801,801,801,801,801,801,801,801,801,801,801,801,801,801,801,804,825,855,886,922,949,1014,1038,1054,1062],"ymouse":[621,621,621,621,621,621,621,621,621,621,621,621,621,621,621,621,621,621,621,621,621,621,621,621,621,621,621,621,621,621,621,621,621,621,599,562,520,466,416,212,148,101,68],"timestamp_mouse":[34,38,60,79,99,120,140,159,179,198,220,239,259,279,300,319,339,359,379,399,419,439,460,478,499,520,538,560,578,599,619,639,658,679,700,719,740,758,780,799,820,838,859],"xSR":741.5,"ySR":573.95,"xT1":424.9,"yT1":0,"xT2":1058.1,"yT2":0,"toosoon":0,"cond_shown":"randomdotsizeEA","ratio_trial":500,"smaller_num":"9","larger_num":"18","correct_side":2,"subjID":"EstebanAndresViracachaRamirez36","gender":"0","age":"11","school":"6"},{"start_time":1551900917364,"click_time":1551900918232,"finger_time":1551900917970,"fix_duration":250,"trial":33,"RT":606,"MT":262,"sideResp":1,"stimulus":"img/500/randomdotsizeEA/L/11_Ratio_500_L_12_R_6.png","xmouse":[798,798,798,800,802,803,803,803,803,803,803,803,803,803,803,803,803,803,803,803,803,803,803,803,803,803,803,803,804,789,756,696,647,586,571,566,565,565,564,564,564,563,551,520],"ymouse":[599,599,599,599,599,598,598,598,598,598,598,598,598,598,598,598,598,598,598,598,598,598,598,598,598,598,598,598,596,576,527,411,318,140,63,23,10,0,0,0,0,0,0,6],"timestamp_mouse":[7,31,48,67,88,106,128,147,166,187,207,227,247,268,286,307,328,347,367,386,406,428,447,467,487,507,528,548,568,588,606,627,647,667,687,706,727,748,767,788,807,827,847,868],"xSR":741.5,"ySR":573.95,"xT1":424.9,"yT1":0,"xT2":1058.1,"yT2":0,"toosoon":0,"cond_shown":"randomdotsizeEA","ratio_trial":500,"smaller_num":"6","larger_num":"12","correct_side":1,"subjID":"EstebanAndresViracachaRamirez36","gender":"0","age":"11","school":"6"},{"start_time":1551900920313,"click_time":1551900920912,"finger_time":1551900920791,"fix_duration":1301.8562225134433,"trial":34,"RT":478,"MT":121,"sideResp":2,"stimulus":"img/250/equaldotsize/R/10_Ratio_250_L_4_R_16.png","xmouse":[762,762,762,762,762,762,762,762,762,762,762,762,762,762,762,762,762,762,762,762,770,785,807,866,903,982,1024,1079,1119,1145],"ymouse":[641,641,641,641,641,641,641,641,641,641,641,641,641,641,641,641,641,641,641,641,634,624,607,556,508,379,300,206,130,78],"timestamp_mouse":[20,39,57,78,99,118,138,158,178,197,218,238,258,278,298,318,338,358,379,399,419,438,457,478,497,518,538,558,577,599],"xSR":741.5,"ySR":573.95,"xT1":424.9,"yT1":0,"xT2":1058.1,"yT2":0,"toosoon":0,"cond_shown":"equaldotsize","ratio_trial":250,"smaller_num":"4","larger_num":"16","correct_side":2,"subjID":"EstebanAndresViracachaRamirez36","gender":"0","age":"11","school":"6"},{"start_time":1551900924403,"click_time":1551900926831,"finger_time":1551900926431,"fix_duration":1290.7445770121567,"trial":35,"RT":2028,"MT":400,"sideResp":2,"stimulus":"img/500/equaldotanddens/R/15_Ratio_500_L_1_R_2.png","xmouse":[804,804,804,804,804,804,804,804,804,804,804,804,804,804,804,804,804,804,804,804,804,804,804,804,804,804,804,804,804,804,804,804,804,804,804,804,804,804,804,804,804,804,804,804,804,804,804,804,804,804,804,804,804,804,804,804,804,804,804,804,804,804,804,804,804,804,804,804,804,804,804,804,804,804,804,804,804,804,804,804,804,804,804,804,804,804,804,804,804,804,804,804,804,804,804,804,804,804,804,804,804,845,921,1001,1079,1162,1286,1314,1330,1340,1342,1344,1347,1350,1350,1350,1336,1323,1304,1279,1243,1119],"ymouse":[651,651,651,651,651,651,651,651,651,651,651,651,651,651,651,651,651,651,651,651,651,651,651,651,651,651,651,651,651,651,651,651,651,651,651,651,651,651,651,651,651,651,651,651,651,651,651,651,651,651,651,651,651,651,651,651,651,651,651,651,651,651,651,651,651,651,651,651,651,651,651,651,651,651,651,651,651,651,651,651,651,651,651,651,651,651,651,651,651,651,651,651,651,651,651,651,651,651,651,651,651,639,617,603,592,587,566,553,531,493,418,347,319,293,271,255,224,208,189,170,147,80],"timestamp_mouse":[9,43,48,69,88,109,128,149,168,188,208,227,247,269,288,307,328,349,368,388,409,429,449,468,488,508,528,548,568,588,608,628,648,667,689,709,727,747,768,788,809,829,847,868,888,907,929,947,969,989,1009,1028,1047,1068,1089,1109,1128,1147,1168,1189,1209,1229,1247,1269,1289,1309,1329,1348,1367,1388,1409,1429,1449,1468,1487,1508,1528,1548,1569,1589,1609,1627,1648,1669,1688,1707,1729,1749,1769,1789,1808,1827,1848,1868,1889,1908,1929,1949,1969,1988,2008,2028,2048,2068,2088,2109,2127,2147,2168,2188,2208,2228,2248,2268,2288,2308,2328,2347,2368,2388,2409,2428],"xSR":741.5,"ySR":573.95,"xT1":424.9,"yT1":0,"xT2":1058.1,"yT2":0,"toosoon":0,"cond_shown":"equaldotanddens","ratio_trial":500,"smaller_num":"1","larger_num":"2","correct_side":2,"subjID":"EstebanAndresViracachaRamirez36","gender":"0","age":"11","school":"6"},{"start_time":1551900928243,"click_time":1551900929092,"finger_time":1551900928731,"fix_duration":451.6110926559683,"trial":36,"RT":488,"MT":361,"sideResp":1,"stimulus":"img/250/randomdotsizeEA/L/14_Ratio_250_L_12_R_3.png","xmouse":[782,782,782,782,782,782,782,782,782,782,782,782,782,782,782,782,782,782,782,782,782,782,772,750,638,572,516,442,426,396,393,392,392,392,392,392,393,400,414,444,457,465,473],"ymouse":[622,622,622,622,622,622,622,622,622,622,622,622,622,622,622,622,622,622,622,622,622,622,619,604,475,380,299,190,164,80,59,43,32,23,9,2,0,0,0,0,0,0,7],"timestamp_mouse":[10,34,48,67,88,108,128,149,167,189,209,228,249,269,288,308,328,348,368,387,408,429,447,469,488,508,527,548,567,587,608,628,648,668,688,709,729,748,769,789,809,828,849],"xSR":741.5,"ySR":573.95,"xT1":424.9,"yT1":0,"xT2":1058.1,"yT2":0,"toosoon":0,"cond_shown":"randomdotsizeEA","ratio_trial":250,"smaller_num":"3","larger_num":"12","correct_side":1,"subjID":"EstebanAndresViracachaRamirez36","gender":"0","age":"11","school":"6"},{"start_time":1551900929852,"click_time":1551900930591,"finger_time":1551900930370,"fix_duration":259.6438655437674,"trial":37,"RT":518,"MT":221,"sideResp":1,"stimulus":"img/250/randomdotsizeEA/L/2_Ratio_250_L_16_R_4.png","xmouse":[796,796,796,796,796,796,796,796,796,796,796,796,796,796,796,796,796,796,796,796,796,794,792,787,766,745,710,671,644,616,611,604,594,583,560,546,531,507],"ymouse":[601,601,601,601,601,601,601,601,601,601,601,601,601,601,601,601,601,601,601,601,601,601,601,600,595,581,546,481,407,267,226,198,177,162,137,123,109,92],"timestamp_mouse":[1,35,38,58,80,100,118,139,160,179,200,218,239,260,280,300,320,339,359,378,399,420,439,459,478,498,518,539,560,579,600,619,640,659,679,698,718,739],"xSR":741.5,"ySR":573.95,"xT1":424.9,"yT1":0,"xT2":1058.1,"yT2":0,"toosoon":0,"cond_shown":"randomdotsizeEA","ratio_trial":250,"smaller_num":"4","larger_num":"16","correct_side":1,"subjID":"EstebanAndresViracachaRamirez36","gender":"0","age":"11","school":"6"},{"start_time":1551900931933,"click_time":1551900932591,"finger_time":1551900932452,"fix_duration":461.7487524295615,"trial":38,"RT":519,"MT":139,"sideResp":2,"stimulus":"img/250/equaldotanddens/R/4_Ratio_250_L_3_R_12.png","xmouse":[789,789,789,789,789,789,789,789,789,789,789,789,789,789,789,789,789,789,789,789,789,789,789,791,818,848,908,976,1020,1073,1094,1106,1109],"ymouse":[641,641,641,641,641,641,641,641,641,641,641,641,641,641,641,641,641,641,641,641,641,641,641,638,616,592,537,459,377,208,150,107,72],"timestamp_mouse":[28,37,58,79,98,117,138,157,178,199,219,239,258,278,299,319,338,358,379,398,418,439,459,478,498,519,538,558,578,597,619,639,658],"xSR":741.5,"ySR":573.95,"xT1":424.9,"yT1":0,"xT2":1058.1,"yT2":0,"toosoon":0,"cond_shown":"equaldotanddens","ratio_trial":250,"smaller_num":"3","larger_num":"12","correct_side":2,"subjID":"EstebanAndresViracachaRamirez36","gender":"0","age":"11","school":"6"},{"start_time":1551900933884,"click_time":1551900934472,"finger_time":1551900934293,"fix_duration":470.5734011845816,"trial":39,"RT":409,"MT":179,"sideResp":1,"stimulus":"img/250/equaldotsize/L/3_Ratio_250_L_8_R_2.png","xmouse":[771,771,771,771,771,772,774,788,791,792,792,792,791,791,791,791,791,785,773,758,739,717,641,605,582,570,561,550,534,519],"ymouse":[642,642,642,642,642,641,640,635,632,629,624,619,617,617,617,617,617,614,607,596,578,548,410,324,255,197,135,81,56,37],"timestamp_mouse":[6,35,47,67,88,108,128,146,167,187,207,227,248,267,286,306,328,347,368,387,409,428,448,469,489,508,527,547,569,588],"xSR":741.5,"ySR":573.95,"xT1":424.9,"yT1":0,"xT2":1058.1,"yT2":0,"toosoon":0,"cond_shown":"equaldotsize","ratio_trial":250,"smaller_num":"2","larger_num":"8","correct_side":1,"subjID":"EstebanAndresViracachaRamirez36","gender":"0","age":"11","school":"6"},{"start_time":1551900935492,"click_time":1551900936413,"finger_time":1551900936173,"fix_duration":378.51447478954526,"trial":40,"RT":681,"MT":240,"sideResp":1,"stimulus":"img/750/equaldotsize/L/10_Ratio_750_L_4_R_3.png","xmouse":[791,791,791,791,791,791,791,791,791,791,791,791,791,791,791,791,791,791,791,791,791,791,791,791,791,791,791,791,791,791,791,791,777,755,733,717,687,661,645,631,610,585,553,545,538,524,511],"ymouse":[610,610,610,610,610,610,610,610,610,610,610,610,610,610,610,610,610,610,610,610,610,610,610,610,610,609,608,608,608,608,608,608,605,598,581,558,469,329,277,242,207,176,140,128,117,101,92],"timestamp_mouse":[1,19,40,60,80,99,121,139,160,180,200,221,240,260,280,300,320,341,360,380,401,419,439,460,480,501,520,540,559,580,599,619,640,660,681,700,720,739,761,780,800,820,839,860,880,900,921],"xSR":741.5,"ySR":573.95,"xT1":424.9,"yT1":0,"xT2":1058.1,"yT2":0,"toosoon":0,"cond_shown":"equaldotsize","ratio_trial":750,"smaller_num":"3","larger_num":"4","correct_side":1,"subjID":"EstebanAndresViracachaRamirez36","gender":"0","age":"11","school":"6"},{"start_time":1551900937287,"click_time":1551900937912,"finger_time":1551900937632,"fix_duration":334.94052244325735,"trial":41,"RT":345,"MT":280,"sideResp":1,"stimulus":"img/500/randomdotsizeEA/L/13_Ratio_500_L_12_R_6.png","xmouse":[808,808,808,808,808,808,808,808,808,808,808,808,808,808,802,797,786,768,762,751,735,716,660,628,603,588,577,561,551,541,530,519],"ymouse":[608,608,608,608,608,608,608,608,608,608,608,608,608,608,598,591,580,567,562,553,539,524,457,399,342,295,250,161,129,101,75,54],"timestamp_mouse":[5,24,45,64,86,104,126,145,165,185,205,225,246,265,285,304,325,345,366,385,406,425,446,464,484,505,525,545,565,585,605,625],"xSR":741.5,"ySR":573.95,"xT1":424.9,"yT1":0,"xT2":1058.1,"yT2":0,"toosoon":0,"cond_shown":"randomdotsizeEA","ratio_trial":500,"smaller_num":"6","larger_num":"12","correct_side":1,"subjID":"EstebanAndresViracachaRamirez36","gender":"0","age":"11","school":"6"},{"start_time":1551900939587,"click_time":1551900940492,"finger_time":1551900940151,"fix_duration":972.8362930827732,"trial":42,"RT":564,"MT":341,"sideResp":2,"stimulus":"img/750/randomdotsizeEA/R/4_Ratio_750_L_15_R_20.png","xmouse":[791,791,791,791,791,791,791,791,791,791,791,791,791,791,791,791,791,791,791,791,791,791,791,791,791,791,793,827,875,961,1012,1059,1124,1142,1157,1165,1169,1176,1180,1180,1181,1181,1181,1181,1174,1152],"ymouse":[646,646,646,646,646,646,646,646,646,646,646,646,644,643,641,640,640,640,640,640,640,640,640,639,632,627,618,582,542,461,397,325,186,148,116,99,90,73,66,61,58,56,56,56,56,56],"timestamp_mouse":[9,25,45,64,85,106,124,146,165,184,206,224,244,265,284,305,326,345,365,384,405,426,444,465,485,506,525,545,564,584,605,625,645,666,685,704,725,745,765,784,805,825,845,865,886,905],"xSR":741.5,"ySR":573.95,"xT1":424.9,"yT1":0,"xT2":1058.1,"yT2":0,"toosoon":0,"cond_shown":"randomdotsizeEA","ratio_trial":750,"smaller_num":"15","larger_num":"20","correct_side":2,"subjID":"EstebanAndresViracachaRamirez36","gender":"0","age":"11","school":"6"},{"start_time":1551900943162,"click_time":1551900943892,"finger_time":1551900943732,"fix_duration":389.01784250870196,"trial":43,"RT":570,"MT":160,"sideResp":2,"stimulus":"img/900/equaldotanddens/R/9_Ratio_900_L_18_R_20.png","xmouse":[792,792,792,792,792,792,792,792,792,792,792,792,792,792,792,792,792,792,791,791,791,791,791,791,791,791,791,794,810,834,878,928,969,1017,1033,1051,1063],"ymouse":[589,589,589,589,589,589,589,589,589,589,589,589,589,589,589,589,589,589,589,589,589,589,589,589,589,589,589,585,556,513,462,403,350,174,99,56,29],"timestamp_mouse":[10,35,51,70,89,111,130,149,170,189,210,229,250,269,290,310,330,350,369,389,409,430,450,470,490,511,529,551,570,590,610,630,650,669,690,711,730],"xSR":741.5,"ySR":573.95,"xT1":424.9,"yT1":0,"xT2":1058.1,"yT2":0,"toosoon":0,"cond_shown":"equaldotanddens","ratio_trial":900,"smaller_num":"18","larger_num":"20","correct_side":2,"subjID":"EstebanAndresViracachaRamirez36","gender":"0","age":"11","school":"6"},{"start_time":1551900944925,"click_time":1551900945732,"finger_time":1551900945652,"fix_duration":250,"trial":44,"RT":727,"MT":80,"sideResp":1,"stimulus":"img/750/equaldotsize/L/1_Ratio_750_L_20_R_15.png","xmouse":[798,798,798,798,798,798,798,798,798,798,798,798,798,798,798,798,798,798,798,798,798,798,798,798,798,798,798,798,798,798,798,798,798,798,798,791,766,715,650,586,483],"ymouse":[598,598,598,598,598,598,598,598,598,598,598,598,598,598,598,598,598,598,598,598,598,598,598,598,598,598,598,598,598,598,598,598,598,598,598,595,562,486,391,282,73],"timestamp_mouse":[6,37,47,66,87,107,127,147,167,187,207,228,247,266,288,306,326,346,366,386,407,426,448,467,486,508,527,546,566,587,607,626,647,667,686,707,727,747,768,787,807],"xSR":741.5,"ySR":573.95,"xT1":424.9,"yT1":0,"xT2":1058.1,"yT2":0,"toosoon":0,"cond_shown":"equaldotsize","ratio_trial":750,"smaller_num":"15","larger_num":"20","correct_side":1,"subjID":"EstebanAndresViracachaRamirez36","gender":"0","age":"11","school":"6"},{"start_time":1551900946980,"click_time":1551900947932,"finger_time":1551900947692,"fix_duration":568.0588161399692,"trial":45,"RT":712,"MT":240,"sideResp":2,"stimulus":"img/900/equaldotsize/L/2_Ratio_900_L_20_R_18.png","xmouse":[817,817,817,817,817,817,817,817,817,817,817,817,817,817,817,817,817,817,817,817,817,817,817,817,817,817,817,817,817,817,817,817,819,821,829,842,872,945,972,994,1009,1014,1023,1029,1043,1061,1074,1081],"ymouse":[631,631,631,631,631,631,631,631,631,631,631,631,631,631,631,631,631,631,631,631,631,631,631,631,631,631,631,631,631,631,631,631,630,625,610,589,543,452,422,394,362,344,291,257,200,160,116,65],"timestamp_mouse":[12,31,52,71,93,112,132,151,172,192,211,232,252,271,292,312,331,352,373,391,412,432,453,472,491,512,531,552,572,592,611,633,651,673,693,712,733,753,772,791,813,832,852,871,893,911,931,952],"xSR":741.5,"ySR":573.95,"xT1":424.9,"yT1":0,"xT2":1058.1,"yT2":0,"toosoon":0,"cond_shown":"equaldotsize","ratio_trial":900,"smaller_num":"18","larger_num":"20","correct_side":1,"subjID":"EstebanAndresViracachaRamirez36","gender":"0","age":"11","school":"6"},{"start_time":1551900949942,"click_time":1551900950672,"finger_time":1551900950531,"fix_duration":1228.8001847908865,"trial":46,"RT":589,"MT":141,"sideResp":2,"stimulus":"img/900/equaldotsize/L/8_Ratio_900_L_20_R_18.png","xmouse":[768,768,768,768,780,785,788,790,790,790,790,790,790,790,790,790,790,790,788,788,788,788,788,788,788,788,788,788,798,847,891,941,996,1044,1121,1127,1128],"ymouse":[614,614,614,614,614,614,614,614,614,614,614,614,614,614,614,614,614,614,614,614,614,614,614,614,614,614,614,614,600,547,501,430,356,285,143,114,91],"timestamp_mouse":[11,37,50,71,90,109,131,150,169,189,210,231,249,271,289,310,330,350,369,389,411,429,449,471,491,510,531,549,570,589,610,630,650,670,689,710,730],"xSR":741.5,"ySR":573.95,"xT1":424.9,"yT1":0,"xT2":1058.1,"yT2":0,"toosoon":0,"cond_shown":"equaldotsize","ratio_trial":900,"smaller_num":"18","larger_num":"20","correct_side":1,"subjID":"EstebanAndresViracachaRamirez36","gender":"0","age":"11","school":"6"},{"start_time":1551900952629,"click_time":1551900953512,"finger_time":1551900953232,"fix_duration":1073.5282346942126,"trial":47,"RT":603,"MT":280,"sideResp":1,"stimulus":"img/500/randomdotsizeEA/L/10_Ratio_500_L_4_R_2.png","xmouse":[804,804,804,804,804,804,804,804,804,804,804,804,804,804,804,804,804,804,804,804,804,804,804,804,804,804,804,804,804,799,705,670,640,613,599,586,580,578,578,578,576,572,559,537,510],"ymouse":[620,620,620,620,620,620,620,620,620,620,620,620,620,620,620,620,620,620,620,620,620,620,620,620,620,620,620,620,618,598,330,211,106,8,0,0,0,0,0,0,0,0,0,6,13],"timestamp_mouse":[11,23,45,63,84,103,123,142,163,183,203,222,244,262,283,303,322,342,362,383,402,422,443,464,483,503,523,543,563,583,603,622,642,663,683,704,723,743,762,783,803,822,842,862,883],"xSR":741.5,"ySR":573.95,"xT1":424.9,"yT1":0,"xT2":1058.1,"yT2":0,"toosoon":0,"cond_shown":"randomdotsizeEA","ratio_trial":500,"smaller_num":"2","larger_num":"4","correct_side":1,"subjID":"EstebanAndresViracachaRamirez36","gender":"0","age":"11","school":"6"},{"start_time":1551900954425,"click_time":1551900955232,"finger_time":1551900955093,"fix_duration":250,"trial":48,"RT":668,"MT":139,"sideResp":2,"stimulus":"img/750/randomdotsizeEA/R/5_Ratio_750_L_15_R_20.png","xmouse":[758,758,758,758,758,758,758,758,758,758,758,758,758,759,760,760,760,760,760,760,760,760,760,760,760,760,760,760,760,760,762,764,772,787,834,971,1023,1070,1100,1108,1109],"ymouse":[619,619,619,619,619,619,619,619,619,619,619,619,619,620,620,620,620,620,620,620,620,620,620,620,620,620,620,620,616,604,591,586,577,564,539,484,431,313,202,150,95],"timestamp_mouse":[7,36,48,67,87,106,127,147,168,186,208,226,247,267,287,306,328,346,368,387,406,426,448,468,486,507,527,546,568,588,606,627,647,668,686,706,727,748,767,788,807],"xSR":741.5,"ySR":573.95,"xT1":424.9,"yT1":0,"xT2":1058.1,"yT2":0,"toosoon":0,"cond_shown":"randomdotsizeEA","ratio_trial":750,"smaller_num":"15","larger_num":"20","correct_side":2,"subjID":"EstebanAndresViracachaRamirez36","gender":"0","age":"11","school":"6"},{"start_time":1551900957548,"click_time":1551900958152,"finger_time":1551900958053,"fix_duration":1454.4670561622809,"trial":49,"RT":505,"MT":99,"sideResp":1,"stimulus":"img/250/equaldotsize/L/15_Ratio_250_L_12_R_3.png","xmouse":[800,800,800,800,800,800,800,800,800,800,800,800,800,800,800,800,800,800,800,800,800,800,800,800,793,766,727,681,627,539,508],"ymouse":[594,594,594,594,594,594,594,594,594,594,594,594,594,594,594,594,594,594,594,594,594,594,594,594,586,557,497,417,316,117,41],"timestamp_mouse":[20,37,43,64,84,104,125,144,163,185,205,223,244,265,285,304,325,344,363,385,404,423,444,464,484,505,523,544,565,584,604],"xSR":741.5,"ySR":573.95,"xT1":424.9,"yT1":0,"xT2":1058.1,"yT2":0,"toosoon":0,"cond_shown":"equaldotsize","ratio_trial":250,"smaller_num":"3","larger_num":"12","correct_side":1,"subjID":"EstebanAndresViracachaRamirez36","gender":"0","age":"11","school":"6"},{"start_time":1551900961105,"click_time":1551900962332,"finger_time":1551900961773,"fix_duration":572.7183559053022,"trial":50,"RT":668,"MT":559,"sideResp":2,"stimulus":"img/900/equaldotanddens/R/3_Ratio_900_L_9_R_10.png","xmouse":[787,787,787,787,787,787,787,787,787,787,787,787,787,787,787,787,787,787,787,787,787,787,787,787,787,787,787,787,787,787,787,788,816,897,1034,1108,1194,1230,1265,1282,1286,1295,1307,1317,1322,1322,1322,1322,1319,1303,1282,1235,1212,1201,1197,1186,1162,1148,1140,1131,1118,1107],"ymouse":[614,614,614,614,614,614,614,614,614,614,614,614,614,614,614,614,614,614,614,614,614,614,614,614,614,614,614,614,614,614,614,612,593,539,434,362,247,190,141,105,91,78,69,58,38,17,14,14,11,5,0,0,0,0,0,0,0,0,0,0,0,2],"timestamp_mouse":[9,39,47,66,87,107,127,146,167,188,206,228,247,267,286,306,327,347,368,386,406,428,446,468,487,508,526,546,568,586,608,627,647,668,688,707,727,748,767,788,807,828,846,867,888,907,927,947,968,988,1008,1028,1046,1067,1088,1107,1127,1146,1167,1188,1206,1226],"xSR":741.5,"ySR":573.95,"xT1":424.9,"yT1":0,"xT2":1058.1,"yT2":0,"toosoon":0,"cond_shown":"equaldotanddens","ratio_trial":900,"smaller_num":"9","larger_num":"10","correct_side":2,"subjID":"EstebanAndresViracachaRamirez36","gender":"0","age":"11","school":"6"},{"start_time":1551900963408,"click_time":1551900964192,"finger_time":1551900963991,"fix_duration":292.9832298214495,"trial":51,"RT":583,"MT":201,"sideResp":2,"stimulus":"img/500/equaldotsize/R/6_Ratio_500_L_9_R_18.png","xmouse":[823,823,823,823,823,823,823,823,823,823,823,823,823,823,823,823,823,823,823,823,823,823,823,823,823,823,823,823,836,852,895,951,979,1003,1024,1046,1073,1083,1091,1098],"ymouse":[620,620,620,620,620,620,620,620,620,620,620,620,620,620,620,620,620,620,620,620,620,620,620,620,620,620,620,620,620,620,608,556,512,463,392,311,189,146,119,92],"timestamp_mouse":[8,39,44,65,83,104,123,145,164,183,204,223,243,263,284,304,324,345,365,384,404,425,444,463,484,505,524,545,564,583,604,624,644,664,683,705,725,743,764,784],"xSR":741.5,"ySR":573.95,"xT1":424.9,"yT1":0,"xT2":1058.1,"yT2":0,"toosoon":0,"cond_shown":"equaldotsize","ratio_trial":500,"smaller_num":"9","larger_num":"18","correct_side":2,"subjID":"EstebanAndresViracachaRamirez36","gender":"0","age":"11","school":"6"},{"start_time":1551900967319,"click_time":1551900968113,"finger_time":1551900967871,"fix_duration":1044.6613678032759,"trial":52,"RT":552,"MT":242,"sideResp":2,"stimulus":"img/900/equaldotanddens/R/14_Ratio_900_L_18_R_20.png","xmouse":[795,795,795,795,795,795,795,795,795,795,795,795,795,795,795,795,795,795,795,795,795,795,795,795,795,809,830,859,906,957,1014,1043,1065,1076,1084,1096,1107,1119,1134,1144],"ymouse":[635,635,635,635,635,635,635,635,635,635,635,635,635,635,635,635,635,635,635,635,635,635,635,635,635,625,612,595,561,517,421,351,290,254,210,163,144,124,101,84],"timestamp_mouse":[15,42,53,72,93,112,133,152,174,192,212,233,253,273,292,312,333,352,374,392,413,432,453,474,492,513,533,552,574,593,613,634,652,674,694,713,733,753,772,794],"xSR":741.5,"ySR":573.95,"xT1":424.9,"yT1":0,"xT2":1058.1,"yT2":0,"toosoon":0,"cond_shown":"equaldotanddens","ratio_trial":900,"smaller_num":"18","larger_num":"20","correct_side":2,"subjID":"EstebanAndresViracachaRamirez36","gender":"0","age":"11","school":"6"},{"start_time":1551900970089,"click_time":1551900970872,"finger_time":1551900970753,"fix_duration":1455.2183777490288,"trial":53,"RT":664,"MT":119,"sideResp":2,"stimulus":"img/900/randomdotsizeEA/L/1_Ratio_900_L_10_R_9.png","xmouse":[804,804,804,804,804,804,804,804,804,804,804,804,804,804,804,804,804,804,804,804,804,804,804,804,804,804,804,804,804,804,804,804,808,872,951,1006,1060,1106,1130,1141],"ymouse":[599,599,599,599,599,599,599,599,599,599,599,599,599,599,599,599,599,599,599,599,599,599,599,599,599,599,599,599,599,599,599,599,595,544,484,431,340,187,101,25],"timestamp_mouse":[10,23,42,63,82,102,123,143,162,182,204,223,243,264,283,304,322,342,364,382,402,422,444,463,483,504,524,543,563,582,603,623,644,664,682,703,724,743,763,783],"xSR":741.5,"ySR":573.95,"xT1":424.9,"yT1":0,"xT2":1058.1,"yT2":0,"toosoon":0,"cond_shown":"randomdotsizeEA","ratio_trial":900,"smaller_num":"9","larger_num":"10","correct_side":1,"subjID":"EstebanAndresViracachaRamirez36","gender":"0","age":"11","school":"6"},{"start_time":1551900974380,"click_time":1551900975152,"finger_time":1551900974812,"fix_duration":1205.7137065003708,"trial":54,"RT":432,"MT":340,"sideResp":2,"stimulus":"img/250/equaldotsize/R/12_Ratio_250_L_5_R_20.png","xmouse":[764,764,764,764,764,764,764,764,764,764,764,764,764,764,764,764,764,764,764,772,784,822,941,982,1018,1057,1099,1211,1229,1242,1246,1246,1246,1246,1246,1244,1235,1162,1126],"ymouse":[611,611,611,611,611,611,611,611,611,611,611,611,611,611,611,611,611,611,611,606,596,571,483,442,397,351,303,11,0,0,0,0,0,0,0,0,4,59,77],"timestamp_mouse":[13,31,51,73,91,112,131,152,173,192,211,233,251,272,292,312,331,352,372,393,413,432,452,473,492,512,531,551,572,592,612,631,652,672,693,712,732,752,772],"xSR":741.5,"ySR":573.95,"xT1":424.9,"yT1":0,"xT2":1058.1,"yT2":0,"toosoon":0,"cond_shown":"equaldotsize","ratio_trial":250,"smaller_num":"5","larger_num":"20","correct_side":2,"subjID":"EstebanAndresViracachaRamirez36","gender":"0","age":"11","school":"6"},{"start_time":1551900976638,"click_time":1551900977493,"finger_time":1551900977131,"fix_duration":725.7757639337515,"trial":55,"RT":493,"MT":362,"sideResp":2,"stimulus":"img/250/randomdotsizeEA/R/12_Ratio_250_L_5_R_20.png","xmouse":[766,766,766,766,766,766,766,766,766,766,766,766,766,766,766,766,766,766,766,766,766,766,770,782,824,859,905,962,984,1016,1016,1016,1016,1016,1024,1030,1039,1046,1048,1048,1048,1051,1063],"ymouse":[598,598,598,598,598,598,598,598,598,598,598,598,598,598,598,598,598,598,598,598,598,596,595,592,570,550,528,503,465,237,153,124,94,73,61,60,60,60,60,60,60,59,57],"timestamp_mouse":[13,43,54,74,94,114,133,153,174,194,213,233,255,274,293,315,334,354,374,393,414,434,454,474,493,514,533,555,575,594,615,634,654,673,693,713,733,754,774,795,815,835,855],"xSR":741.5,"ySR":573.95,"xT1":424.9,"yT1":0,"xT2":1058.1,"yT2":0,"toosoon":0,"cond_shown":"randomdotsizeEA","ratio_trial":250,"smaller_num":"5","larger_num":"20","correct_side":2,"subjID":"EstebanAndresViracachaRamirez36","gender":"0","age":"11","school":"6"},{"start_time":1551900978463,"click_time":1551900979353,"finger_time":1551900979192,"fix_duration":250,"trial":56,"RT":729,"MT":161,"sideResp":2,"stimulus":"img/750/equaldotsize/R/11_Ratio_750_L_12_R_16.png","xmouse":[804,804,804,804,804,804,804,804,804,804,804,804,804,804,804,804,804,804,804,804,804,804,804,804,804,804,804,804,804,804,804,804,804,804,803,815,863,934,995,1009,1016,1020,1028,1045,1060],"ymouse":[617,617,617,617,617,617,617,617,617,617,617,617,617,617,617,617,617,617,617,617,617,617,617,617,617,617,617,617,617,617,617,617,617,617,611,586,501,366,223,179,140,109,85,51,35],"timestamp_mouse":[9,32,49,69,88,110,128,149,170,189,208,230,248,269,290,309,328,349,370,389,408,428,450,468,490,508,529,548,568,588,609,628,648,668,689,710,729,750,769,790,809,829,849,869,890],"xSR":741.5,"ySR":573.95,"xT1":424.9,"yT1":0,"xT2":1058.1,"yT2":0,"toosoon":0,"cond_shown":"equaldotsize","ratio_trial":750,"smaller_num":"12","larger_num":"16","correct_side":2,"subjID":"EstebanAndresViracachaRamirez36","gender":"0","age":"11","school":"6"},{"start_time":1551900980353,"click_time":1551900981152,"finger_time":1551900981051,"fix_duration":439.5976334872588,"trial":57,"RT":698,"MT":101,"sideResp":2,"stimulus":"img/750/randomdotsizeEA/L/8_Ratio_750_L_4_R_3.png","xmouse":[792,792,792,792,792,792,792,792,792,792,792,792,792,792,792,792,793,793,793,793,793,793,793,793,793,792,790,789,789,789,789,789,789,790,806,827,867,917,970,1047,1069],"ymouse":[610,610,610,610,610,610,610,610,610,610,610,610,610,610,610,610,609,605,599,593,593,593,593,593,593,594,599,601,601,601,601,601,601,600,578,542,470,375,282,111,63],"timestamp_mouse":[1,35,38,58,79,99,119,138,159,180,199,218,239,258,278,300,320,340,359,378,398,420,439,458,479,499,519,540,558,580,598,619,640,659,679,698,719,740,759,780,799],"xSR":741.5,"ySR":573.95,"xT1":424.9,"yT1":0,"xT2":1058.1,"yT2":0,"toosoon":0,"cond_shown":"randomdotsizeEA","ratio_trial":750,"smaller_num":"3","larger_num":"4","correct_side":1,"subjID":"EstebanAndresViracachaRamirez36","gender":"0","age":"11","school":"6"},{"start_time":1551900984495,"click_time":1551900985171,"finger_time":1551900984932,"fix_duration":981.2500221264226,"trial":58,"RT":437,"MT":239,"sideResp":2,"stimulus":"img/900/equaldotanddens/L/1_Ratio_900_L_10_R_9.png","xmouse":[743,743,743,743,743,745,755,756,758,760,762,768,771,774,775,778,778,779,783,787,802,838,868,914,928,965,1001,1007,1013,1019,1027,1044,1053,1063],"ymouse":[583,583,583,583,583,583,588,589,591,593,594,598,601,604,606,609,610,610,610,607,594,553,488,374,340,250,182,161,146,128,114,98,92,86],"timestamp_mouse":[18,41,57,77,98,117,137,156,177,196,217,237,258,276,298,318,336,356,377,397,418,437,457,476,497,516,537,556,577,597,618,637,658,676],"xSR":741.5,"ySR":573.95,"xT1":424.9,"yT1":0,"xT2":1058.1,"yT2":0,"toosoon":0,"cond_shown":"equaldotanddens","ratio_trial":900,"smaller_num":"9","larger_num":"10","correct_side":1,"subjID":"EstebanAndresViracachaRamirez36","gender":"0","age":"11","school":"6"},{"start_time":1551900987369,"click_time":1551900988192,"finger_time":1551900987873,"fix_duration":1416.9787255116232,"trial":59,"RT":504,"MT":319,"sideResp":1,"stimulus":"img/500/equaldotanddens/L/11_Ratio_500_L_12_R_6.png","xmouse":[752,752,752,752,752,752,752,752,752,752,752,752,752,752,752,752,752,752,752,752,752,753,753,753,753,753,753,729,617,561,530,521,521,524,524,525,525,525,523,516,502,487],"ymouse":[634,634,634,634,634,634,634,634,634,634,634,634,634,634,634,634,634,634,634,634,634,630,629,613,599,573,505,375,72,0,0,0,0,0,0,0,0,0,0,0,0,7],"timestamp_mouse":[11,23,44,63,83,103,124,143,162,183,204,224,242,264,284,303,322,344,362,383,402,423,443,463,483,504,524,543,564,582,603,622,643,662,683,702,723,743,763,783,803,823],"xSR":741.5,"ySR":573.95,"xT1":424.9,"yT1":0,"xT2":1058.1,"yT2":0,"toosoon":0,"cond_shown":"equaldotanddens","ratio_trial":500,"smaller_num":"6","larger_num":"12","correct_side":1,"subjID":"EstebanAndresViracachaRamirez36","gender":"0","age":"11","school":"6"},{"start_time":1551900991719,"click_time":1551900992731,"finger_time":1551900991813,"fix_duration":1485.4729712163517,"trial":60,"RT":94,"MT":918,"sideResp":2,"stimulus":"img/250/equaldotanddens/R/13_Ratio_250_L_2_R_8.png","xmouse":[790,788,788,778,761,672,645,627,617,614,614,615,616,616,611,595,589,583,572,563,557,557,557,557,557,557,557,557,557,557,557,557,557,557,557,557,557,565,608,681,846,929,991,1022,1035,1038,1039,1041,1046,1054,1067],"ymouse":[624,615,615,588,532,280,220,180,149,131,116,112,105,101,79,54,47,41,35,32,32,32,32,32,32,32,32,32,32,32,32,32,32,32,32,32,32,32,32,38,58,67,72,72,72,70,69,67,63,60,51],"timestamp_mouse":[13,45,54,72,94,113,133,153,173,192,213,233,253,273,294,313,333,352,373,393,413,432,453,473,493,512,533,553,573,593,613,633,652,673,693,714,733,753,774,793,813,833,853,872,893,913,933,953,973,993,1012],"xSR":741.5,"ySR":573.95,"xT1":424.9,"yT1":0,"xT2":1058.1,"yT2":0,"toosoon":0,"cond_shown":"equaldotanddens","ratio_trial":250,"smaller_num":"2","larger_num":"8","correct_side":2,"subjID":"EstebanAndresViracachaRamirez36","gender":"0","age":"11","school":"6"},{"start_time":1551900994755,"click_time":1551900995732,"finger_time":1551900994932,"fix_duration":1161.4594016463082,"trial":61,"RT":177,"MT":800,"sideResp":2,"stimulus":"img/750/randomdotsizeEA/L/9_Ratio_750_L_4_R_3.png","xmouse":[783,783,783,783,783,783,783,783,780,779,777,777,777,777,777,777,777,777,777,777,777,777,777,777,777,780,787,794,823,836,846,852,860,868,874,882,893,910,978,1019,1050,1068,1076,1089,1091,1093,1095,1099,1109],"ymouse":[604,604,604,604,604,604,595,583,553,542,535,530,529,529,529,529,530,531,535,537,537,537,537,537,537,532,517,500,447,425,408,396,383,372,365,358,348,333,279,252,229,214,201,164,150,137,124,113,85],"timestamp_mouse":[17,42,57,78,97,117,137,157,177,197,218,239,259,277,298,318,337,357,377,398,417,437,458,479,497,517,537,558,577,598,617,637,658,677,698,717,737,757,777,798,818,838,858,877,898,917,937,957,977],"xSR":741.5,"ySR":573.95,"xT1":424.9,"yT1":0,"xT2":1058.1,"yT2":0,"toosoon":0,"cond_shown":"randomdotsizeEA","ratio_trial":750,"smaller_num":"3","larger_num":"4","correct_side":1,"subjID":"EstebanAndresViracachaRamirez36","gender":"0","age":"11","school":"6"},{"start_time":1551900997473,"click_time":1551900998312,"finger_time":1551900997572,"fix_duration":980.0510310997203,"trial":62,"RT":99,"MT":740,"sideResp":1,"stimulus":"img/750/equaldotsize/L/13_Ratio_750_L_8_R_6.png","xmouse":[808,808,808,808,805,800,793,802,802,801,791,780,768,761,754,749,745,745,747,749,752,753,753,753,753,753,755,781,795,801,803,803,801,795,783,773,748,659,606,560,528,517],"ymouse":[604,604,604,604,572,533,486,474,474,474,476,481,489,493,498,502,504,504,504,503,501,500,500,500,500,500,497,463,452,452,452,452,450,447,434,416,382,237,175,124,86,64],"timestamp_mouse":[20,39,59,79,99,119,139,160,180,199,219,240,260,281,299,321,340,359,379,400,419,440,460,481,500,521,540,559,579,599,619,639,659,680,700,719,740,759,780,799,821,839],"xSR":741.5,"ySR":573.95,"xT1":424.9,"yT1":0,"xT2":1058.1,"yT2":0,"toosoon":0,"cond_shown":"equaldotsize","ratio_trial":750,"smaller_num":"6","larger_num":"8","correct_side":1,"subjID":"EstebanAndresViracachaRamirez36","gender":"0","age":"11","school":"6"},{"start_time":1551901001135,"click_time":1551901001753,"finger_time":1551901001332,"fix_duration":741.4310707940646,"trial":63,"RT":197,"MT":421,"sideResp":1,"stimulus":"img/250/equaldotanddens/L/1_Ratio_250_L_8_R_2.png","xmouse":[814,814,814,814,814,814,814,814,814,796,758,709,678,676,690,692,692,692,692,692,692,692,692,692,682,662,635,604,574,536,522],"ymouse":[631,631,631,631,631,631,631,630,617,489,411,356,338,338,344,344,344,344,344,344,344,344,344,344,318,288,248,203,162,111,93],"timestamp_mouse":[18,37,58,78,98,118,137,158,177,197,217,237,258,277,297,317,339,357,378,397,419,438,457,477,497,517,538,557,577,597,618],"xSR":741.5,"ySR":573.95,"xT1":424.9,"yT1":0,"xT2":1058.1,"yT2":0,"toosoon":0,"cond_shown":"equaldotanddens","ratio_trial":250,"smaller_num":"2","larger_num":"8","correct_side":1,"subjID":"EstebanAndresViracachaRamirez36","gender":"0","age":"11","school":"6"},{"start_time":1551901003201,"click_time":1551901004134,"finger_time":1551901004052,"fix_duration":628.7172802888069,"trial":64,"RT":851,"MT":82,"sideResp":1,"stimulus":"img/750/randomdotsizeEA/L/6_Ratio_750_L_24_R_18.png","xmouse":[795,795,795,795,795,795,795,795,795,795,795,795,795,795,795,795,795,795,795,795,795,795,795,795,795,795,795,795,795,795,795,795,795,795,795,795,795,795,795,795,795,787,755,703,636,567,504],"ymouse":[623,623,623,623,623,623,623,623,623,623,623,623,623,623,623,623,623,623,623,623,623,623,623,623,623,623,623,623,623,623,623,623,623,623,623,623,623,623,623,623,623,607,551,455,343,210,37],"timestamp_mouse":[12,38,52,71,91,112,133,152,172,191,212,231,251,271,291,312,331,351,372,391,411,432,451,473,491,512,532,553,572,592,612,631,652,671,691,711,732,752,772,791,812,831,851,871,891,911,933],"xSR":741.5,"ySR":573.95,"xT1":424.9,"yT1":0,"xT2":1058.1,"yT2":0,"toosoon":0,"cond_shown":"randomdotsizeEA","ratio_trial":750,"smaller_num":"18","larger_num":"24","correct_side":1,"subjID":"EstebanAndresViracachaRamirez36","gender":"0","age":"11","school":"6"},{"start_time":1551901005899,"click_time":1551901007133,"finger_time":1551901006653,"fix_duration":985.8247772676247,"trial":65,"RT":754,"MT":480,"sideResp":1,"stimulus":"img/900/randomdotsizeEA/L/2_Ratio_900_L_20_R_18.png","xmouse":[798,798,798,798,798,798,798,798,798,798,798,797,786,777,774,773,773,773,773,773,773,773,773,773,773,771,767,767,767,767,767,767,767,767,767,767,767,761,736,680,597,409,368,357,352,350,348,347,344,340,335,322,321,321,321,321,323,350,373,397,422,455],"ymouse":[614,614,614,614,614,614,614,614,614,614,614,612,603,596,593,593,593,593,593,593,593,593,593,593,593,593,594,594,594,594,594,594,594,594,594,594,594,560,422,244,68,0,0,0,0,0,0,0,0,2,14,43,47,48,48,48,48,40,37,36,36,40],"timestamp_mouse":[14,45,53,73,94,113,134,153,173,193,213,233,253,273,293,314,335,353,374,393,414,433,453,475,494,513,534,553,573,593,613,633,653,673,693,713,734,754,773,794,815,834,853,873,894,915,934,954,974,993,1013,1033,1054,1073,1094,1114,1134,1153,1174,1193,1214,1234],"xSR":741.5,"ySR":573.95,"xT1":424.9,"yT1":0,"xT2":1058.1,"yT2":0,"toosoon":0,"cond_shown":"randomdotsizeEA","ratio_trial":900,"smaller_num":"18","larger_num":"20","correct_side":1,"subjID":"EstebanAndresViracachaRamirez36","gender":"0","age":"11","school":"6"},{"start_time":1551901008951,"click_time":1551901009793,"finger_time":1551901009732,"fix_duration":1057.4940678436176,"trial":66,"RT":781,"MT":61,"sideResp":2,"stimulus":"img/900/equaldotsize/L/2_Ratio_900_L_20_R_18.png","xmouse":[788,788,788,788,788,788,788,788,788,788,788,788,788,788,788,788,788,788,788,788,788,788,788,788,788,788,788,788,788,788,788,788,784,782,781,781,781,783,808,924,997,1066,1117],"ymouse":[632,632,632,632,632,632,632,632,632,632,632,632,632,632,632,632,632,632,632,632,632,632,632,632,632,632,632,632,632,632,632,632,625,623,621,621,618,613,586,422,294,176,88],"timestamp_mouse":[11,35,42,62,81,102,121,141,162,181,202,221,242,261,282,301,323,342,362,381,401,422,442,461,482,502,522,542,561,583,601,623,642,662,681,702,721,742,761,781,802,821,842],"xSR":741.5,"ySR":573.95,"xT1":424.9,"yT1":0,"xT2":1058.1,"yT2":0,"toosoon":0,"cond_shown":"equaldotsize","ratio_trial":900,"smaller_num":"18","larger_num":"20","correct_side":1,"subjID":"EstebanAndresViracachaRamirez36","gender":"0","age":"11","school":"6"},{"start_time":1551901011628,"click_time":1551901012354,"finger_time":1551901012254,"fix_duration":1013.8915823528013,"trial":67,"RT":626,"MT":100,"sideResp":2,"stimulus":"img/500/equaldotsize/R/14_Ratio_500_L_5_R_10.png","xmouse":[803,803,803,803,803,803,803,803,803,803,803,803,803,803,803,803,803,803,803,803,803,803,803,803,803,803,803,803,803,803,820,852,883,913,946,1025,1065],"ymouse":[630,630,630,630,630,630,630,630,630,630,630,630,630,630,630,630,630,630,630,630,630,630,630,630,630,630,630,630,630,630,579,523,463,398,325,152,63],"timestamp_mouse":[9,36,44,65,84,105,125,146,164,184,206,225,245,265,284,304,324,345,364,385,404,425,445,464,484,505,525,544,564,584,604,626,645,664,684,705,726],"xSR":741.5,"ySR":573.95,"xT1":424.9,"yT1":0,"xT2":1058.1,"yT2":0,"toosoon":0,"cond_shown":"equaldotsize","ratio_trial":500,"smaller_num":"5","larger_num":"10","correct_side":2,"subjID":"EstebanAndresViracachaRamirez36","gender":"0","age":"11","school":"6"},{"start_time":1551901015515,"click_time":1551901016593,"finger_time":1551901016273,"fix_duration":859.8125582684461,"trial":68,"RT":758,"MT":320,"sideResp":2,"stimulus":"img/500/randomdotsizeEA/R/2_Ratio_500_L_3_R_6.png","xmouse":[790,790,790,790,790,790,790,790,790,790,790,790,790,790,790,790,790,790,790,790,790,790,790,790,790,790,790,790,790,790,790,790,790,790,790,796,823,872,932,980,1067,1121,1164,1194,1211,1220,1220,1220,1220,1220,1218,1200,1176,1152],"ymouse":[614,614,614,614,614,614,614,614,614,614,614,614,614,614,614,614,614,614,614,614,614,614,614,614,614,614,614,614,614,614,614,614,614,614,614,607,579,510,406,323,198,119,47,0,0,0,0,0,0,0,0,0,2,6],"timestamp_mouse":[18,38,58,77,99,118,137,158,177,197,218,238,258,278,297,318,337,357,378,398,418,438,459,478,497,519,539,557,578,598,617,638,657,677,697,717,739,758,778,798,817,838,858,878,897,917,937,958,978,998,1018,1037,1057,1078],"xSR":741.5,"ySR":573.95,"xT1":424.9,"yT1":0,"xT2":1058.1,"yT2":0,"toosoon":0,"cond_shown":"randomdotsizeEA","ratio_trial":500,"smaller_num":"3","larger_num":"6","correct_side":2,"subjID":"EstebanAndresViracachaRamirez36","gender":"0","age":"11","school":"6"},{"start_time":1551901017665,"click_time":1551901018893,"finger_time":1551901018332,"fix_duration":250,"trial":69,"RT":667,"MT":561,"sideResp":2,"stimulus":"img/750/equaldotsize/R/3_Ratio_750_L_15_R_20.png","xmouse":[796,796,796,796,796,796,796,796,796,796,796,796,796,796,796,796,796,796,796,796,800,803,811,822,826,827,827,827,827,827,827,827,828,838,876,964,1117,1166,1318,1324,1324,1324,1324,1324,1324,1324,1322,1302,1285,1241,1228,1224,1218,1203,1197,1195,1194,1194,1188,1178,1166,1151],"ymouse":[610,610,610,610,610,610,610,610,610,610,610,610,610,610,610,610,610,610,610,610,609,607,603,596,592,591,591,591,591,591,591,591,588,571,518,373,121,48,0,0,0,0,0,0,0,0,0,4,11,30,35,38,40,46,48,48,48,48,48,50,51,51],"timestamp_mouse":[8,34,47,68,87,107,127,148,168,188,207,227,248,267,287,308,327,348,368,388,407,428,447,468,487,507,528,547,567,587,607,628,647,667,688,708,727,749,767,787,807,828,847,868,888,907,928,947,967,987,1007,1027,1048,1068,1088,1107,1128,1148,1167,1188,1208,1228],"xSR":741.5,"ySR":573.95,"xT1":424.9,"yT1":0,"xT2":1058.1,"yT2":0,"toosoon":0,"cond_shown":"equaldotsize","ratio_trial":750,"smaller_num":"15","larger_num":"20","correct_side":2,"subjID":"EstebanAndresViracachaRamirez36","gender":"0","age":"11","school":"6"},{"start_time":1551901021179,"click_time":1551901022092,"finger_time":1551901021732,"fix_duration":1345.2105090558855,"trial":70,"RT":553,"MT":360,"sideResp":2,"stimulus":"img/500/equaldotanddens/R/9_Ratio_500_L_2_R_4.png","xmouse":[786,786,786,786,786,786,786,786,786,786,786,786,786,786,786,786,786,786,786,786,786,786,786,786,786,786,790,857,926,1020,1098,1158,1167,1182,1192,1199,1204,1205,1205,1205,1203,1200,1183,1173,1159,1150],"ymouse":[595,595,595,595,595,595,595,595,595,595,595,595,595,595,595,595,595,595,595,595,595,595,595,595,595,595,596,548,478,363,252,116,51,0,0,0,0,0,0,0,0,0,3,10,17,23],"timestamp_mouse":[14,33,54,75,93,114,133,154,174,193,213,235,254,274,294,313,334,353,373,395,413,433,454,474,494,513,533,553,573,593,613,634,653,674,694,714,734,754,773,793,815,834,854,873,894,913],"xSR":741.5,"ySR":573.95,"xT1":424.9,"yT1":0,"xT2":1058.1,"yT2":0,"toosoon":0,"cond_shown":"equaldotanddens","ratio_trial":500,"smaller_num":"2","larger_num":"4","correct_side":2,"subjID":"EstebanAndresViracachaRamirez36","gender":"0","age":"11","school":"6"},{"start_time":1551901024006,"click_time":1551901024912,"finger_time":1551901024532,"fix_duration":1092.891167591752,"trial":71,"RT":526,"MT":380,"sideResp":1,"stimulus":"img/750/equaldotanddens/L/8_Ratio_750_L_4_R_3.png","xmouse":[779,779,779,779,779,779,779,779,779,779,779,779,779,779,779,779,779,779,779,779,779,779,779,779,777,772,704,647,585,520,505,467,466,466,466,465,462,457,451,445,439,435,432,431,430,430],"ymouse":[622,622,622,622,622,622,622,622,622,622,622,622,622,622,622,622,622,622,622,622,622,622,622,622,622,606,501,412,320,181,137,0,0,0,0,0,0,0,0,0,0,0,0,0,0,2],"timestamp_mouse":[8,41,47,66,86,106,127,146,167,187,208,226,246,267,286,306,326,348,366,386,406,428,447,468,486,506,526,547,566,587,606,627,646,666,687,707,726,746,766,786,806,826,846,867,886,906],"xSR":741.5,"ySR":573.95,"xT1":424.9,"yT1":0,"xT2":1058.1,"yT2":0,"toosoon":0,"cond_shown":"equaldotanddens","ratio_trial":750,"smaller_num":"3","larger_num":"4","correct_side":1,"subjID":"EstebanAndresViracachaRamirez36","gender":"0","age":"11","school":"6"},{"start_time":1551901026535,"click_time":1551901027273,"finger_time":1551901027212,"fix_duration":780.9605525190256,"trial":72,"RT":677,"MT":61,"sideResp":1,"stimulus":"img/750/equaldotanddens/L/6_Ratio_750_L_24_R_18.png","xmouse":[776,776,776,776,776,776,776,776,776,776,776,776,776,776,776,776,776,776,776,776,776,776,776,776,776,776,776,776,776,776,776,772,763,734,575,522,495],"ymouse":[626,626,626,626,626,626,626,626,626,626,626,626,626,626,626,626,626,626,626,626,626,626,626,626,626,626,626,626,626,626,626,624,614,580,299,168,73],"timestamp_mouse":[32,37,57,77,98,119,137,157,177,198,217,238,257,277,297,317,338,358,377,397,417,438,459,477,498,517,537,558,578,599,618,637,659,677,697,718,738],"xSR":741.5,"ySR":573.95,"xT1":424.9,"yT1":0,"xT2":1058.1,"yT2":0,"toosoon":0,"cond_shown":"equaldotanddens","ratio_trial":750,"smaller_num":"18","larger_num":"24","correct_side":1,"subjID":"EstebanAndresViracachaRamirez36","gender":"0","age":"11","school":"6"},{"start_time":1551901029385,"click_time":1551901030333,"finger_time":1551901029912,"fix_duration":1351.971718558495,"trial":73,"RT":527,"MT":421,"sideResp":2,"stimulus":"img/900/equaldotanddens/R/12_Ratio_900_L_18_R_20.png","xmouse":[787,787,787,787,787,787,787,787,787,787,787,787,787,787,787,787,787,787,787,787,787,787,787,787,798,816,850,934,966,986,1001,1007,1017,1024,1034,1045,1072,1090,1095,1095,1096,1096,1096,1096,1096,1096,1097,1112],"ymouse":[631,631,631,631,631,631,631,631,631,631,631,631,631,631,631,631,631,631,631,631,631,631,631,631,620,598,558,395,290,212,153,111,74,57,40,19,0,0,0,0,0,0,0,0,0,0,0,8],"timestamp_mouse":[8,41,47,68,89,107,128,147,168,188,208,228,249,268,288,307,328,347,367,388,408,427,448,469,487,507,527,548,567,587,607,627,647,668,687,708,727,747,769,788,808,827,847,867,888,907,928,948],"xSR":741.5,"ySR":573.95,"xT1":424.9,"yT1":0,"xT2":1058.1,"yT2":0,"toosoon":0,"cond_shown":"equaldotanddens","ratio_trial":900,"smaller_num":"18","larger_num":"20","correct_side":2,"subjID":"EstebanAndresViracachaRamirez36","gender":"0","age":"11","school":"6"},{"start_time":1551901031445,"click_time":1551901032373,"finger_time":1551901032293,"fix_duration":511.974192629409,"trial":74,"RT":848,"MT":80,"sideResp":2,"stimulus":"img/750/equaldotsize/R/3_Ratio_750_L_15_R_20.png","xmouse":[817,817,817,817,817,817,817,817,817,817,817,817,817,817,817,817,817,817,817,817,817,817,817,817,817,817,817,817,817,817,817,817,817,817,817,817,817,817,817,817,827,836,851,875,974,1036,1098],"ymouse":[635,635,635,635,635,635,635,635,635,635,635,635,635,635,635,635,635,635,635,635,635,635,635,635,635,635,635,635,635,635,635,635,635,635,635,635,635,635,635,631,616,599,570,483,231,119,30],"timestamp_mouse":[10,34,47,68,87,107,128,147,168,187,207,228,248,267,289,308,327,347,368,387,407,428,447,468,487,507,529,549,568,587,609,628,648,667,688,709,728,748,768,787,807,827,848,867,888,907,928],"xSR":741.5,"ySR":573.95,"xT1":424.9,"yT1":0,"xT2":1058.1,"yT2":0,"toosoon":0,"cond_shown":"equaldotsize","ratio_trial":750,"smaller_num":"15","larger_num":"20","correct_side":2,"subjID":"EstebanAndresViracachaRamirez36","gender":"0","age":"11","school":"6"},{"start_time":1551901034178,"click_time":1551901035072,"finger_time":1551901034873,"fix_duration":923.5065888502533,"trial":75,"RT":695,"MT":199,"sideResp":2,"stimulus":"img/900/randomdotsizeEA/L/2_Ratio_900_L_20_R_18.png","xmouse":[791,791,791,791,791,791,791,791,791,791,791,791,791,791,791,791,791,791,791,791,791,791,791,791,791,791,789,783,783,783,783,783,783,799,845,907,980,1106,1135,1146,1147,1147,1147,1147,1147],"ymouse":[644,644,644,644,644,644,644,644,644,644,644,644,644,644,644,644,644,644,644,644,644,644,644,644,644,635,629,617,617,617,617,617,616,599,559,492,408,226,169,139,124,113,104,100,96],"timestamp_mouse":[15,36,55,75,95,114,134,154,175,196,215,235,254,275,294,315,335,356,375,394,414,434,454,475,496,514,535,554,575,594,615,635,654,675,695,714,735,754,775,795,814,835,854,875,894],"xSR":741.5,"ySR":573.95,"xT1":424.9,"yT1":0,"xT2":1058.1,"yT2":0,"toosoon":0,"cond_shown":"randomdotsizeEA","ratio_trial":900,"smaller_num":"18","larger_num":"20","correct_side":1,"subjID":"EstebanAndresViracachaRamirez36","gender":"0","age":"11","school":"6"},{"start_time":1551901037129,"click_time":1551901038012,"finger_time":1551901037793,"fix_duration":1214.3744270333204,"trial":76,"RT":664,"MT":219,"sideResp":1,"stimulus":"img/900/randomdotsizeEA/L/8_Ratio_900_L_20_R_18.png","xmouse":[829,829,829,829,829,829,829,829,829,829,829,829,829,829,829,829,829,829,829,829,829,829,829,829,829,829,829,829,829,829,829,826,822,801,772,672,638,621,611,599,570,552,533,519,512],"ymouse":[597,597,597,597,597,597,597,597,597,597,597,597,597,597,597,597,597,597,597,597,597,597,597,597,597,597,597,597,597,597,597,597,593,560,519,389,342,313,294,266,199,163,129,104,89],"timestamp_mouse":[9,34,43,64,83,104,124,144,163,183,203,223,244,263,284,303,323,344,363,383,404,423,443,463,483,504,523,545,564,585,603,623,643,664,684,704,723,743,763,784,804,823,843,865,883],"xSR":741.5,"ySR":573.95,"xT1":424.9,"yT1":0,"xT2":1058.1,"yT2":0,"toosoon":0,"cond_shown":"randomdotsizeEA","ratio_trial":900,"smaller_num":"18","larger_num":"20","correct_side":1,"subjID":"EstebanAndresViracachaRamirez36",