[{"start_time":1551887630724,"click_time":1551887632111,"finger_time":1551887631591,"fix_duration":348.62839835027626,"trial":0,"RT":867,"MT":520,"sideResp":2,"stimulus":"img/250/equaldotanddens/R/8_Ratio_250_L_1_R_4.png","xmouse":[755,755,755,755,755,755,755,755,755,755,755,755,755,755,755,755,755,755,755,755,755,755,755,755,755,755,755,755,755,755,755,755,755,755,755,755,755,755,755,755,755,756,825,899,959,1007,1032,1068,1082,1087,1092,1096,1097,1097,1095,1091,1088,1083,1084,1087,1090,1092,1097,1098,1098,1098,1098,1098,1099,1104],"ymouse":[502,502,502,502,502,502,502,502,502,502,502,502,502,502,502,502,502,502,502,502,502,502,502,502,502,502,502,502,502,502,502,502,502,502,502,502,502,502,502,502,502,502,478,466,456,447,438,399,369,350,332,315,303,298,289,272,239,161,135,124,119,117,114,113,113,113,113,113,112,99],"timestamp_mouse":[9,28,46,67,87,107,128,147,166,186,207,227,247,268,286,306,327,347,367,386,408,426,446,468,488,506,528,546,568,587,606,628,646,668,686,708,728,746,766,788,807,827,848,867,886,906,927,947,966,987,1007,1028,1047,1067,1086,1106,1127,1146,1168,1186,1206,1228,1247,1267,1286,1307,1327,1347,1367,1387],"xSR":741.5,"ySR":469.95,"xT1":424.9,"yT1":0,"xT2":1058.1,"yT2":0,"toosoon":0,"cond_shown":"equaldotanddens","ratio_trial":250,"smaller_num":"1","larger_num":"4","correct_side":2,"subjID":"eyleendanielarodriguezacero7","gender":"1","age":"11","school":"sexto","test":{"fix_dur":[250,1500],"timestim":300,"targets_dim":[100,100],"targets_relative_coord":[0.3,0.7],"size_stim":[880,420],"start_dim":[100,100],"size_start":[300,300],"size_fix":60,"samplingrate":20,"img_types":["equaldotsize","equaldotanddens","randomdotsizeEA"],"ratios":[250,500,750,900],"rep_conds":9,"nTrials":120,"trials_to_rest":500,"Trials_order":[97,95,17,86,55,6,69,35,22,76,112,44,102,74,61,72,41,103,7,30,21,0,19,101,11,36,45,77,107,50,51,117,105,2,57,43,40,91,47,32,110,73,63,98,99,100,64,70,66,92,25,75,71,84,93,118,33,108,111,48,12,90,96,37,94,113,14,8,60,83,119,82,26,3,52,38,28,115,39,15,23,20,58,81,65,10,79,56,109,31,88,116,62,16,106,53,1,59,9,89,4,13,78,87,5,27,68,54,24,114,104,67,34,80,46,49,85,42,18,29],"cond_shown":["equaldotanddens","randomdotsizeEA","randomdotsizeEA","randomdotsizeEA","equaldotanddens","equaldotsize","equaldotsize","randomdotsizeEA","equaldotanddens","equaldotanddens","equaldotanddens","randomdotsizeEA","equaldotsize","randomdotsizeEA","equaldotanddens","equaldotsize","randomdotsizeEA","equaldotanddens","equaldotanddens","equaldotsize","equaldotsize","equaldotsize","equaldotanddens","randomdotsizeEA","randomdotsizeEA","equaldotsize","equaldotsize","randomdotsizeEA","randomdotsizeEA","randomdotsizeEA","equaldotsize","equaldotsize","equaldotsize","randomdotsizeEA","equaldotsize","equaldotanddens","equaldotanddens","equaldotanddens","randomdotsizeEA","randomdotsizeEA","randomdotsizeEA","equaldotanddens","equaldotsize","randomdotsizeEA","equaldotsize","equaldotanddens","equaldotanddens","equaldotanddens","equaldotsize","randomdotsizeEA","equaldotanddens","equaldotsize","randomdotsizeEA","equaldotsize","equaldotsize","equaldotanddens","equaldotsize","equaldotsize","equaldotsize","equaldotsize","equaldotsize","equaldotsize","equaldotsize","equaldotanddens","equaldotanddens","randomdotsizeEA","randomdotsizeEA","randomdotsizeEA","equaldotsize","randomdotsizeEA","randomdotsizeEA","equaldotanddens","randomdotsizeEA","equaldotsize","equaldotanddens","randomdotsizeEA","equaldotanddens","equaldotanddens","equaldotsize","equaldotsize","randomdotsizeEA","randomdotsizeEA","equaldotanddens","equaldotsize","randomdotsizeEA","equaldotanddens","equaldotanddens","randomdotsizeEA","equaldotanddens","equaldotanddens","equaldotanddens","randomdotsizeEA","randomdotsizeEA","equaldotanddens","equaldotanddens","randomdotsizeEA","equaldotanddens","randomdotsizeEA","equaldotsize","randomdotsizeEA","equaldotanddens","equaldotanddens","equaldotsize","equaldotsize","randomdotsizeEA","equaldotsize","randomdotsizeEA","equaldotsize","equaldotsize","equaldotsize","randomdotsizeEA","equaldotanddens","equaldotanddens","randomdotsizeEA","equaldotanddens","equaldotanddens","equaldotanddens","equaldotsize","equaldotsize","randomdotsizeEA"],"ratio_trial":[250,900,500,250,750,750,900,900,900,500,500,750,750,250,250,250,500,750,750,750,900,250,750,500,900,250,900,500,900,250,500,900,900,250,900,750,500,750,900,750,250,250,500,250,500,500,500,900,750,750,250,500,900,250,900,900,900,250,500,250,250,750,250,250,900,500,250,750,250,900,900,900,250,500,500,250,500,750,500,500,900,750,900,900,500,900,750,750,250,750,500,750,250,500,900,500,250,900,900,500,500,250,750,500,500,500,750,750,250,750,750,750,900,750,900,250,250,750,750,500],"smaller_num":["1","18","2","2","18","3","18","18","9","1","9","6","15","2","6","3","4","15","6","3","9","3","3","5","9","3","18","9","18","1","2","18","9","4","18","6","1","15","18","15","6","1","9","4","1","9","3","9","3","9","3","6","18","6","18","18","18","6","3","3","3","12","5","3","18","1","2","12","4","9","9","18","5","1","2","4","10","3","6","6","9","3","18","18","10","18","9","3","5","12","2","15","3","4","18","10","3","9","9","6","2","2","3","5","6","4","15","6","2","3","15","12","9","15","9","3","6","18","3","10"],"larger_num":["4","20","4","8","24","4","20","20","10","2","18","8","20","8","24","12","8","20","8","4","10","12","4","10","10","12","20","18","20","4","4","20","10","16","20","8","2","20","20","20","24","4","18","16","2","18","6","10","4","12","12","12","20","24","20","20","20","24","6","12","12","16","20","12","20","2","8","16","16","10","10","20","20","2","4","16","20","4","12","12","10","4","20","20","20","20","12","4","20","16","4","20","12","8","20","20","12","10","10","12","4","8","4","10","12","8","20","8","8","4","20","16","10","20","10","12","24","24","4","20"],"correct_side":[2,1,1,1,1,2,2,1,2,2,2,1,1,1,2,1,1,2,1,1,2,2,1,2,2,2,1,1,1,2,1,1,2,1,1,2,2,1,1,1,1,2,1,1,2,1,2,2,1,2,2,1,2,2,1,2,1,2,2,1,1,2,2,2,1,2,1,2,1,1,2,1,2,2,2,1,2,1,1,1,2,1,2,1,2,1,2,1,2,2,2,2,1,1,1,2,1,2,2,1,1,1,2,2,1,1,1,1,1,2,2,2,1,2,1,2,2,1,1,2],"img_shown":["img/250/equaldotanddens/R/8_Ratio_250_L_1_R_4.png","img/900/randomdotsizeEA/L/10_Ratio_900_L_20_R_18.png","img/500/randomdotsizeEA/L/10_Ratio_500_L_4_R_2.png","img/250/randomdotsizeEA/L/1_Ratio_250_L_8_R_2.png","img/750/equaldotanddens/L/6_Ratio_750_L_24_R_18.png","img/750/equaldotsize/R/7_Ratio_750_L_3_R_4.png","img/900/equaldotsize/R/12_Ratio_900_L_18_R_20.png","img/900/randomdotsizeEA/L/8_Ratio_900_L_20_R_18.png","img/900/equaldotanddens/R/7_Ratio_900_L_9_R_10.png","img/500/equaldotanddens/R/15_Ratio_500_L_1_R_2.png","img/500/equaldotanddens/R/1_Ratio_500_L_9_R_18.png","img/750/randomdotsizeEA/L/14_Ratio_750_L_8_R_6.png","img/750/equaldotsize/L/1_Ratio_750_L_20_R_15.png","img/250/randomdotsizeEA/L/3_Ratio_250_L_8_R_2.png","img/250/equaldotanddens/R/6_Ratio_250_L_6_R_24.png","img/250/equaldotsize/L/15_Ratio_250_L_12_R_3.png","img/500/randomdotsizeEA/L/8_Ratio_500_L_8_R_4.png","img/750/equaldotanddens/R/5_Ratio_750_L_15_R_20.png","img/750/equaldotanddens/L/13_Ratio_750_L_8_R_6.png","img/750/equaldotsize/L/8_Ratio_750_L_4_R_3.png","img/900/equaldotsize/R/7_Ratio_900_L_9_R_10.png","img/250/equaldotsize/R/4_Ratio_250_L_3_R_12.png","img/750/equaldotanddens/L/10_Ratio_750_L_4_R_3.png","img/500/randomdotsizeEA/R/14_Ratio_500_L_5_R_10.png","img/900/randomdotsizeEA/R/7_Ratio_900_L_9_R_10.png","img/250/equaldotsize/R/4_Ratio_250_L_3_R_12.png","img/900/equaldotsize/L/4_Ratio_900_L_20_R_18.png","img/500/randomdotsizeEA/L/4_Ratio_500_L_18_R_9.png","img/900/randomdotsizeEA/L/10_Ratio_900_L_20_R_18.png","img/250/randomdotsizeEA/R/8_Ratio_250_L_1_R_4.png","img/500/equaldotsize/L/5_Ratio_500_L_4_R_2.png","img/900/equaldotsize/L/8_Ratio_900_L_20_R_18.png","img/900/equaldotsize/R/6_Ratio_900_L_9_R_10.png","img/250/randomdotsizeEA/L/2_Ratio_250_L_16_R_4.png","img/900/equaldotsize/L/8_Ratio_900_L_20_R_18.png","img/750/equaldotanddens/R/2_Ratio_750_L_6_R_8.png","img/500/equaldotanddens/R/12_Ratio_500_L_1_R_2.png","img/750/equaldotanddens/L/1_Ratio_750_L_20_R_15.png","img/900/randomdotsizeEA/L/10_Ratio_900_L_20_R_18.png","img/750/randomdotsizeEA/L/1_Ratio_750_L_20_R_15.png","img/250/randomdotsizeEA/L/5_Ratio_250_L_24_R_6.png","img/250/equaldotanddens/R/8_Ratio_250_L_1_R_4.png","img/500/equaldotsize/L/4_Ratio_500_L_18_R_9.png","img/250/randomdotsizeEA/L/2_Ratio_250_L_16_R_4.png","img/500/equaldotsize/R/15_Ratio_500_L_1_R_2.png","img/500/equaldotanddens/L/4_Ratio_500_L_18_R_9.png","img/500/equaldotanddens/R/2_Ratio_500_L_3_R_6.png","img/900/equaldotanddens/R/15_Ratio_900_L_9_R_10.png","img/750/equaldotsize/L/9_Ratio_750_L_4_R_3.png","img/750/randomdotsizeEA/R/15_Ratio_750_L_9_R_12.png","img/250/equaldotanddens/R/9_Ratio_250_L_3_R_12.png","img/500/equaldotsize/L/13_Ratio_500_L_12_R_6.png","img/900/randomdotsizeEA/R/13_Ratio_900_L_18_R_20.png","img/250/equaldotsize/R/6_Ratio_250_L_6_R_24.png","img/900/equaldotsize/L/8_Ratio_900_L_20_R_18.png","img/900/equaldotanddens/R/12_Ratio_900_L_18_R_20.png","img/900/equaldotsize/L/10_Ratio_900_L_20_R_18.png","img/250/equaldotsize/R/6_Ratio_250_L_6_R_24.png","img/500/equaldotsize/R/2_Ratio_500_L_3_R_6.png","img/250/equaldotsize/L/14_Ratio_250_L_12_R_3.png","img/250/equaldotsize/L/14_Ratio_250_L_12_R_3.png","img/750/equaldotsize/R/11_Ratio_750_L_12_R_16.png","img/250/equaldotsize/R/12_Ratio_250_L_5_R_20.png","img/250/equaldotanddens/R/4_Ratio_250_L_3_R_12.png","img/900/equaldotanddens/L/8_Ratio_900_L_20_R_18.png","img/500/randomdotsizeEA/R/12_Ratio_500_L_1_R_2.png","img/250/randomdotsizeEA/L/3_Ratio_250_L_8_R_2.png","img/750/randomdotsizeEA/R/11_Ratio_750_L_12_R_16.png","img/250/equaldotsize/L/2_Ratio_250_L_16_R_4.png","img/900/randomdotsizeEA/L/1_Ratio_900_L_10_R_9.png","img/900/randomdotsizeEA/R/15_Ratio_900_L_9_R_10.png","img/900/equaldotanddens/L/8_Ratio_900_L_20_R_18.png","img/250/randomdotsizeEA/R/12_Ratio_250_L_5_R_20.png","img/500/equaldotsize/R/15_Ratio_500_L_1_R_2.png","img/500/equaldotanddens/R/9_Ratio_500_L_2_R_4.png","img/250/randomdotsizeEA/L/2_Ratio_250_L_16_R_4.png","img/500/equaldotanddens/R/3_Ratio_500_L_10_R_20.png","img/750/equaldotanddens/L/10_Ratio_750_L_4_R_3.png","img/500/equaldotsize/L/13_Ratio_500_L_12_R_6.png","img/500/equaldotsize/L/13_Ratio_500_L_12_R_6.png","img/900/randomdotsizeEA/R/6_Ratio_900_L_9_R_10.png","img/750/randomdotsizeEA/L/8_Ratio_750_L_4_R_3.png","img/900/equaldotanddens/R/11_Ratio_900_L_18_R_20.png","img/900/equaldotsize/L/8_Ratio_900_L_20_R_18.png","img/500/randomdotsizeEA/R/3_Ratio_500_L_10_R_20.png","img/900/equaldotanddens/L/4_Ratio_900_L_20_R_18.png","img/750/equaldotanddens/R/15_Ratio_750_L_9_R_12.png","img/750/randomdotsizeEA/L/9_Ratio_750_L_4_R_3.png","img/250/equaldotanddens/R/12_Ratio_250_L_5_R_20.png","img/750/equaldotanddens/R/11_Ratio_750_L_12_R_16.png","img/500/equaldotanddens/R/9_Ratio_500_L_2_R_4.png","img/750/randomdotsizeEA/R/4_Ratio_750_L_15_R_20.png","img/250/randomdotsizeEA/L/15_Ratio_250_L_12_R_3.png","img/500/equaldotanddens/L/8_Ratio_500_L_8_R_4.png","img/900/equaldotanddens/L/4_Ratio_900_L_20_R_18.png","img/500/randomdotsizeEA/R/3_Ratio_500_L_10_R_20.png","img/250/equaldotanddens/L/15_Ratio_250_L_12_R_3.png","img/900/randomdotsizeEA/R/7_Ratio_900_L_9_R_10.png","img/900/equaldotsize/R/15_Ratio_900_L_9_R_10.png","img/500/randomdotsizeEA/L/13_Ratio_500_L_12_R_6.png","img/500/equaldotanddens/L/5_Ratio_500_L_4_R_2.png","img/250/equaldotanddens/L/1_Ratio_250_L_8_R_2.png","img/750/equaldotsize/R/12_Ratio_750_L_3_R_4.png","img/500/equaldotsize/R/14_Ratio_500_L_5_R_10.png","img/500/randomdotsizeEA/L/13_Ratio_500_L_12_R_6.png","img/500/equaldotsize/L/8_Ratio_500_L_8_R_4.png","img/750/randomdotsizeEA/L/1_Ratio_750_L_20_R_15.png","img/750/equaldotsize/L/14_Ratio_750_L_8_R_6.png","img/250/equaldotsize/L/1_Ratio_250_L_8_R_2.png","img/750/equaldotsize/R/7_Ratio_750_L_3_R_4.png","img/750/randomdotsizeEA/R/5_Ratio_750_L_15_R_20.png","img/750/equaldotanddens/R/11_Ratio_750_L_12_R_16.png","img/900/equaldotanddens/L/1_Ratio_900_L_10_R_9.png","img/750/randomdotsizeEA/R/4_Ratio_750_L_15_R_20.png","img/900/equaldotanddens/L/1_Ratio_900_L_10_R_9.png","img/250/equaldotanddens/R/11_Ratio_250_L_3_R_12.png","img/250/equaldotanddens/R/6_Ratio_250_L_6_R_24.png","img/750/equaldotsize/L/6_Ratio_750_L_24_R_18.png","img/750/equaldotsize/L/8_Ratio_750_L_4_R_3.png","img/500/randomdotsizeEA/R/3_Ratio_500_L_10_R_20.png"],"Rat0":[["12_Ratio_0_L_9_R_0.png","13_Ratio_0_L_6_R_0.png","5_Ratio_0_L_2_R_0.png","6_Ratio_0_L_4_R_0.png","8_Ratio_0_L_6_R_0.png"],["1_Ratio_0_L_0_R_17.png","10_Ratio_0_L_0_R_22.png","11_Ratio_0_L_0_R_1.png","14_Ratio_0_L_0_R_24.png","15_Ratio_0_L_0_R_4.png","2_Ratio_0_L_0_R_5.png","3_Ratio_0_L_0_R_17.png","4_Ratio_0_L_0_R_7.png","7_Ratio_0_L_0_R_19.png","9_Ratio_0_L_0_R_15.png"]],"Rat250":[["1_Ratio_250_L_8_R_2.png","14_Ratio_250_L_12_R_3.png","15_Ratio_250_L_12_R_3.png","2_Ratio_250_L_16_R_4.png","3_Ratio_250_L_8_R_2.png","5_Ratio_250_L_24_R_6.png","7_Ratio_250_L_8_R_2.png"],["10_Ratio_250_L_4_R_16.png","11_Ratio_250_L_3_R_12.png","12_Ratio_250_L_5_R_20.png","13_Ratio_250_L_2_R_8.png","4_Ratio_250_L_3_R_12.png","6_Ratio_250_L_6_R_24.png","8_Ratio_250_L_1_R_4.png","9_Ratio_250_L_3_R_12.png"]],"Rat500":[["10_Ratio_500_L_4_R_2.png","11_Ratio_500_L_12_R_6.png","13_Ratio_500_L_12_R_6.png","4_Ratio_500_L_18_R_9.png","5_Ratio_500_L_4_R_2.png","7_Ratio_500_L_10_R_5.png","8_Ratio_500_L_8_R_4.png"],["1_Ratio_500_L_9_R_18.png","12_Ratio_500_L_1_R_2.png","14_Ratio_500_L_5_R_10.png","15_Ratio_500_L_1_R_2.png","2_Ratio_500_L_3_R_6.png","3_Ratio_500_L_10_R_20.png","6_Ratio_500_L_9_R_18.png","9_Ratio_500_L_2_R_4.png"]],"Rat750":[["1_Ratio_750_L_20_R_15.png","10_Ratio_750_L_4_R_3.png","13_Ratio_750_L_8_R_6.png","14_Ratio_750_L_8_R_6.png","6_Ratio_750_L_24_R_18.png","8_Ratio_750_L_4_R_3.png","9_Ratio_750_L_4_R_3.png"],["11_Ratio_750_L_12_R_16.png","12_Ratio_750_L_3_R_4.png","15_Ratio_750_L_9_R_12.png","2_Ratio_750_L_6_R_8.png","3_Ratio_750_L_15_R_20.png","4_Ratio_750_L_15_R_20.png","5_Ratio_750_L_15_R_20.png","7_Ratio_750_L_3_R_4.png"]],"Rat900":[["1_Ratio_900_L_10_R_9.png","10_Ratio_900_L_20_R_18.png","2_Ratio_900_L_20_R_18.png","4_Ratio_900_L_20_R_18.png","8_Ratio_900_L_20_R_18.png"],["11_Ratio_900_L_18_R_20.png","12_Ratio_900_L_18_R_20.png","13_Ratio_900_L_18_R_20.png","14_Ratio_900_L_18_R_20.png","15_Ratio_900_L_9_R_10.png","3_Ratio_900_L_9_R_10.png","5_Ratio_900_L_9_R_10.png","6_Ratio_900_L_9_R_10.png","7_Ratio_900_L_9_R_10.png","9_Ratio_900_L_18_R_20.png"]],"Rat1000":[["10_Ratio_1000_L_16_R_16.png","11_Ratio_1000_L_6_R_6.png","12_Ratio_1000_L_14_R_14.png","13_Ratio_1000_L_20_R_20.png","15_Ratio_1000_L_15_R_15.png","2_Ratio_1000_L_17_R_17.png","4_Ratio_1000_L_9_R_9.png","5_Ratio_1000_L_6_R_6.png","6_Ratio_1000_L_19_R_19.png","8_Ratio_1000_L_14_R_14.png","9_Ratio_1000_L_25_R_25.png"],["1_Ratio_1000_L_1_R_1.png","14_Ratio_1000_L_17_R_17.png","3_Ratio_1000_L_17_R_17.png","7_Ratio_1000_L_6_R_6.png"]]}},{"start_time":1551887633890,"click_time":1551887635272,"finger_time":1551887634932,"fix_duration":897.3949148356015,"trial":1,"RT":1042,"MT":340,"sideResp":1,"stimulus":"img/900/randomdotsizeEA/L/10_Ratio_900_L_20_R_18.png","xmouse":[802,802,802,802,802,802,802,802,802,802,802,802,802,802,802,802,802,802,802,802,802,802,802,802,802,802,802,802,802,802,802,802,802,802,802,802,802,802,802,802,802,802,802,802,802,802,801,799,790,769,755,746,723,699,681,679,679,677,673,643,626,614,604,596,569,545,518,492,477,471],"ymouse":[546,546,546,546,546,546,546,546,546,546,546,546,546,546,546,546,546,546,546,546,546,546,546,546,546,546,546,546,546,546,546,546,546,546,546,546,546,546,546,546,546,546,546,546,546,546,545,542,535,512,498,480,417,333,279,270,265,260,247,198,176,163,156,154,150,143,133,114,101,90],"timestamp_mouse":[9,20,41,62,82,101,121,140,160,182,200,220,242,260,280,301,320,340,360,382,400,420,440,461,481,501,521,541,560,580,600,621,640,660,681,700,720,742,761,780,800,820,842,860,882,901,921,941,961,980,1001,1020,1042,1061,1081,1100,1120,1140,1160,1182,1201,1222,1241,1260,1280,1300,1321,1341,1362,1382],"xSR":741.5,"ySR":469.95,"xT1":424.9,"yT1":0,"xT2":1058.1,"yT2":0,"toosoon":0,"cond_shown":"randomdotsizeEA","ratio_trial":900,"smaller_num":"18","larger_num":"20","correct_side":1,"subjID":"eyleendanielarodriguezacero7","gender":"1","age":"11","school":"sexto"},{"start_time":1551887636341,"click_time":1551887637610,"finger_time":1551887637270,"fix_duration":349.36265958014434,"trial":2,"RT":929,"MT":340,"sideResp":1,"stimulus":"img/500/randomdotsizeEA/L/10_Ratio_500_L_4_R_2.png","xmouse":[776,776,776,776,776,776,776,776,776,776,776,776,776,776,776,776,776,776,776,776,776,776,776,776,776,776,776,776,776,776,776,776,776,776,776,776,776,776,776,776,776,776,776,776,772,766,736,713,669,627,606,600,598,593,584,570,537,531,527,526,522,508,500,492],"ymouse":[484,484,484,484,484,484,484,484,484,484,484,484,484,484,484,484,484,484,484,484,484,484,484,484,484,484,484,484,484,484,484,484,484,484,484,484,484,484,484,484,484,484,484,484,483,481,461,439,372,314,282,262,254,242,225,206,162,149,141,135,128,110,101,93],"timestamp_mouse":[13,38,51,70,90,109,129,151,169,190,209,229,249,269,289,310,330,350,370,389,410,430,451,469,489,511,529,549,570,590,609,629,650,670,690,710,729,749,771,789,809,830,849,870,890,910,929,950,969,989,1010,1030,1050,1070,1090,1111,1129,1151,1169,1189,1211,1230,1250,1269],"xSR":741.5,"ySR":469.95,"xT1":424.9,"yT1":0,"xT2":1058.1,"yT2":0,"toosoon":0,"cond_shown":"randomdotsizeEA","ratio_trial":500,"smaller_num":"2","larger_num":"4","correct_side":1,"subjID":"eyleendanielarodriguezacero7","gender":"1","age":"11","school":"sexto"},{"start_time":1551887644283,"click_time":1551887645391,"finger_time":1551887645012,"fix_duration":1270.9231855602193,"trial":3,"RT":729,"MT":379,"sideResp":1,"stimulus":"img/250/randomdotsizeEA/L/1_Ratio_250_L_8_R_2.png","xmouse":[828,828,828,828,828,828,828,828,828,828,828,828,828,828,828,828,829,830,831,831,831,831,831,831,831,831,831,831,831,831,831,831,831,831,829,822,812,798,776,735,721,709,698,675,645,632,618,605,591,567,557,547,542,537,525,515],"ymouse":[506,506,506,506,506,506,506,506,506,506,506,506,506,506,506,506,506,505,505,505,505,505,505,505,505,505,505,505,505,505,505,505,505,505,500,487,462,433,392,320,296,275,253,220,190,177,163,151,141,125,117,109,106,100,89,81],"timestamp_mouse":[8,33,47,68,89,108,128,147,168,193,208,229,249,267,288,307,328,347,367,388,407,428,447,467,489,507,527,548,569,587,607,628,648,668,688,708,729,748,768,788,808,827,848,869,888,907,927,947,968,989,1008,1027,1048,1068,1087,1108],"xSR":741.5,"ySR":469.95,"xT1":424.9,"yT1":0,"xT2":1058.1,"yT2":0,"toosoon":0,"cond_shown":"randomdotsizeEA","ratio_trial":250,"smaller_num":"2","larger_num":"8","correct_side":1,"subjID":"eyleendanielarodriguezacero7","gender":"1","age":"11","school":"sexto"},{"start_time":1551887648797,"click_time":1551887649831,"finger_time":1551887649571,"fix_duration":825.1344291476792,"trial":4,"RT":774,"MT":260,"sideResp":1,"stimulus":"img/750/equaldotanddens/L/6_Ratio_750_L_24_R_18.png","xmouse":[789,789,789,789,789,789,789,789,789,789,789,789,789,789,789,789,789,789,789,789,789,789,789,789,789,789,789,789,789,789,789,789,789,789,790,790,790,789,753,723,701,678,659,624,609,598,589,572,546,538,531,523],"ymouse":[555,555,555,555,555,555,555,555,555,555,555,555,555,555,555,555,555,555,555,555,555,555,555,555,555,555,555,555,555,555,555,555,555,555,552,548,537,511,420,372,335,297,270,227,210,195,182,159,124,110,97,84],"timestamp_mouse":[13,35,55,74,95,114,133,155,174,195,213,234,253,274,293,314,333,354,374,393,414,433,453,474,494,513,534,553,574,595,613,634,655,673,695,713,734,754,774,794,814,834,854,873,893,915,933,953,973,994,1014,1034],"xSR":741.5,"ySR":469.95,"xT1":424.9,"yT1":0,"xT2":1058.1,"yT2":0,"toosoon":0,"cond_shown":"equaldotanddens","ratio_trial":750,"smaller_num":"18","larger_num":"24","correct_side":1,"subjID":"eyleendanielarodriguezacero7","gender":"1","age":"11","school":"sexto"},{"start_time":1551887651648,"click_time":1551887653470,"finger_time":1551887652610,"fix_duration":1015.8637716074135,"trial":5,"RT":962,"MT":860,"sideResp":2,"stimulus":"img/750/equaldotsize/R/7_Ratio_750_L_3_R_4.png","xmouse":[807,807,807,807,807,807,807,807,807,807,807,807,807,807,807,807,807,807,807,807,807,807,807,807,807,807,807,807,807,807,807,807,807,807,807,807,807,807,807,807,807,807,807,807,806,804,792,780,762,725,689,644,627,612,599,581,561,553,544,535,527,516,515,515,515,515,515,515,521,553,616,764,795,819,843,897,1210,1313,1365,1378,1378,1345,1320,1295,1267,1223,1190,1182,1177,1173,1167,1157],"ymouse":[522,522,522,522,522,522,522,522,522,522,522,522,522,522,522,522,522,522,522,522,522,522,522,522,522,522,522,522,522,522,522,522,522,522,522,522,522,522,522,522,522,522,522,522,521,519,504,480,449,397,349,290,263,243,223,197,170,158,147,137,129,119,118,118,118,118,118,118,122,143,188,284,302,312,317,320,257,227,205,195,189,166,154,143,133,119,112,109,107,103,96,79],"timestamp_mouse":[9,32,42,63,83,103,122,142,163,183,202,223,243,262,282,302,322,342,362,384,402,422,442,464,484,502,523,543,563,583,602,623,644,663,682,703,722,743,763,783,802,823,842,862,884,902,922,943,962,982,1003,1022,1042,1064,1082,1102,1122,1143,1162,1184,1202,1223,1243,1262,1284,1302,1322,1343,1364,1383,1404,1423,1443,1462,1483,1503,1523,1543,1562,1582,1603,1624,1643,1662,1683,1703,1722,1743,1763,1782,1803,1822],"xSR":741.5,"ySR":469.95,"xT1":424.9,"yT1":0,"xT2":1058.1,"yT2":0,"toosoon":0,"cond_shown":"equaldotsize","ratio_trial":750,"smaller_num":"3","larger_num":"4","correct_side":2,"subjID":"eyleendanielarodriguezacero7","gender":"1","age":"11","school":"sexto"},{"start_time":1551887655206,"click_time":1551887656610,"finger_time":1551887656330,"fix_duration":433.9291012252484,"trial":6,"RT":1124,"MT":280,"sideResp":1,"stimulus":"img/900/equaldotsize/R/12_Ratio_900_L_18_R_20.png","xmouse":[815,815,815,815,815,815,815,815,815,815,815,815,815,815,815,815,816,819,819,819,819,819,819,819,819,819,819,819,819,819,819,819,819,819,819,819,819,819,819,819,819,819,819,819,819,819,819,819,819,819,819,819,817,795,776,750,716,682,635,621,612,601,589,565,553,541,530,523,520,519,515],"ymouse":[527,527,527,527,527,527,527,527,527,527,527,527,527,527,527,527,526,523,522,522,522,522,522,522,522,522,522,522,522,522,522,522,522,522,522,522,522,522,522,522,522,522,522,522,522,522,522,522,522,522,522,522,519,510,498,472,440,413,367,349,336,320,300,254,224,197,173,153,118,103,86],"timestamp_mouse":[5,24,44,64,84,104,126,145,165,184,204,224,246,266,284,305,325,344,365,384,404,424,444,465,485,504,525,544,565,585,605,624,644,665,685,705,724,745,765,784,805,825,844,864,884,904,924,945,965,984,1006,1025,1045,1066,1084,1106,1124,1144,1165,1184,1205,1226,1244,1265,1285,1304,1325,1345,1365,1386,1404],"xSR":741.5,"ySR":469.95,"xT1":424.9,"yT1":0,"xT2":1058.1,"yT2":0,"toosoon":0,"cond_shown":"equaldotsize","ratio_trial":900,"smaller_num":"18","larger_num":"20","correct_side":2,"subjID":"eyleendanielarodriguezacero7","gender":"1","age":"11","school":"sexto"},{"start_time":1551887658468,"click_time":1551887659690,"finger_time":1551887659351,"fix_duration":977.6918749914653,"trial":7,"RT":883,"MT":339,"sideResp":1,"stimulus":"img/900/randomdotsizeEA/L/8_Ratio_900_L_20_R_18.png","xmouse":[790,790,790,790,790,790,790,790,790,790,790,790,790,790,790,790,790,790,790,790,790,790,790,790,790,790,790,790,790,790,790,790,790,790,790,790,790,790,790,790,790,790,788,778,724,535,462,414,389,377,364,359,354,348,346,358,363,363,363,363,363,492],"ymouse":[540,540,540,540,540,540,540,541,543,544,544,544,544,544,544,544,544,544,544,544,544,544,544,544,544,544,544,544,544,544,544,544,544,544,544,544,544,544,544,544,544,544,540,527,460,302,251,215,192,174,147,132,114,91,66,12,3,3,3,3,3,4],"timestamp_mouse":[10,28,43,62,83,103,123,142,163,183,204,223,242,262,282,302,323,342,363,382,403,423,444,462,483,502,522,543,563,582,604,622,643,664,682,703,722,742,762,782,803,822,842,862,883,902,922,942,962,983,1002,1024,1043,1062,1083,1102,1123,1143,1164,1183,1202,1222],"xSR":741.5,"ySR":469.95,"xT1":424.9,"yT1":0,"xT2":1058.1,"yT2":0,"toosoon":0,"cond_shown":"randomdotsizeEA","ratio_trial":900,"smaller_num":"18","larger_num":"20","correct_side":1,"subjID":"eyleendanielarodriguezacero7","gender":"1","age":"11","school":"sexto"},{"start_time":1551887661431,"click_time":1551887662650,"finger_time":1551887662350,"fix_duration":856.3809685575546,"trial":8,"RT":919,"MT":300,"sideResp":1,"stimulus":"img/900/equaldotanddens/R/7_Ratio_900_L_9_R_10.png","xmouse":[763,763,763,763,763,763,763,763,763,763,763,763,763,763,763,763,763,763,763,763,763,763,763,763,763,763,763,763,763,763,763,763,763,763,763,763,763,763,763,763,763,763,763,764,764,759,735,696,675,655,635,620,597,588,580,571,557,537,534,532,527,519],"ymouse":[516,516,516,516,516,516,516,516,516,516,516,516,516,516,516,516,516,516,516,516,516,516,516,516,516,516,516,516,516,516,516,516,516,516,516,516,516,516,516,516,516,516,516,510,497,480,421,335,298,268,240,216,169,150,130,111,92,68,65,64,61,58],"timestamp_mouse":[11,20,40,59,79,101,120,139,159,181,200,220,239,259,280,300,320,340,360,379,400,420,440,461,480,499,520,539,559,579,600,620,639,660,680,700,719,740,761,779,801,819,839,859,879,900,919,940,961,979,999,1020,1040,1059,1081,1100,1119,1139,1160,1181,1199,1219],"xSR":741.5,"ySR":469.95,"xT1":424.9,"yT1":0,"xT2":1058.1,"yT2":0,"toosoon":0,"cond_shown":"equaldotanddens","ratio_trial":900,"smaller_num":"9","larger_num":"10","correct_side":2,"subjID":"eyleendanielarodriguezacero7","gender":"1","age":"11","school":"sexto"},{"start_time":1551887663823,"click_time":1551887664831,"finger_time":1551887664671,"fix_duration":250,"trial":9,"RT":848,"MT":160,"sideResp":2,"stimulus":"img/500/equaldotanddens/R/15_Ratio_500_L_1_R_2.png","xmouse":[786,786,786,786,786,786,786,786,786,786,786,786,786,786,786,786,786,786,786,786,786,786,786,786,786,786,786,786,786,786,786,786,786,786,786,786,786,786,786,789,795,813,858,869,876,887,924,988,1016,1044,1080],"ymouse":[508,508,508,508,508,508,508,508,508,508,508,508,508,508,508,508,508,508,508,508,508,508,508,508,508,508,508,508,508,508,508,508,508,508,508,508,508,508,508,506,500,478,398,337,267,209,150,104,95,89,85],"timestamp_mouse":[9,27,47,67,88,108,127,147,169,188,208,229,249,268,288,308,328,348,369,388,407,428,447,468,487,508,527,548,569,587,608,627,647,668,688,707,727,747,769,787,808,827,848,868,887,907,928,948,968,987,1008],"xSR":741.5,"ySR":469.95,"xT1":424.9,"yT1":0,"xT2":1058.1,"yT2":0,"toosoon":0,"cond_shown":"equaldotanddens","ratio_trial":500,"smaller_num":"1","larger_num":"2","correct_side":2,"subjID":"eyleendanielarodriguezacero7","gender":"1","age":"11","school":"sexto"},{"start_time":1551887665957,"click_time":1551887666871,"finger_time":1551887666711,"fix_duration":524.4775041748528,"trial":10,"RT":754,"MT":160,"sideResp":2,"stimulus":"img/500/equaldotanddens/R/1_Ratio_500_L_9_R_18.png","xmouse":[754,754,754,754,754,754,754,754,754,754,754,754,754,754,754,754,754,754,754,754,754,754,754,754,754,754,754,754,754,754,754,754,754,754,757,782,804,852,901,974,1042,1062,1080,1092,1105,1132],"ymouse":[553,553,553,553,553,553,553,553,553,553,553,553,553,553,553,553,553,553,553,553,553,553,553,553,553,553,553,553,553,553,553,553,553,553,553,539,521,465,387,278,177,151,131,117,105,82],"timestamp_mouse":[14,36,54,73,94,114,134,154,174,194,213,234,254,274,293,314,334,354,373,393,415,433,453,473,494,513,535,554,575,593,613,634,655,675,693,713,734,754,775,795,814,833,853,874,893,914],"xSR":741.5,"ySR":469.95,"xT1":424.9,"yT1":0,"xT2":1058.1,"yT2":0,"toosoon":0,"cond_shown":"equaldotanddens","ratio_trial":500,"smaller_num":"9","larger_num":"18","correct_side":2,"subjID":"eyleendanielarodriguezacero7","gender":"1","age":"11","school":"sexto"},{"start_time":1551887669189,"click_time":1551887670270,"finger_time":1551887669971,"fix_duration":1316.6115974663219,"trial":11,"RT":782,"MT":299,"sideResp":1,"stimulus":"img/750/randomdotsizeEA/L/14_Ratio_750_L_8_R_6.png","xmouse":[791,791,791,791,791,791,791,791,791,791,791,791,791,791,791,791,791,791,791,791,791,791,791,791,791,791,791,791,791,791,791,791,791,791,791,791,791,791,790,752,712,672,643,609,597,586,576,565,557,535,529,523,519,512,492],"ymouse":[507,507,507,507,507,507,507,507,507,507,507,507,507,507,507,507,507,507,507,507,507,507,507,507,507,507,507,507,507,507,507,507,507,507,507,507,507,507,503,445,401,367,343,306,289,274,259,243,228,190,177,163,150,136,99],"timestamp_mouse":[11,27,42,61,82,101,122,141,161,182,201,222,241,261,281,301,322,341,362,381,402,421,443,462,482,503,522,541,561,581,601,622,641,661,682,701,722,741,761,782,802,822,843,863,882,901,922,942,961,981,1001,1021,1042,1061,1081],"xSR":741.5,"ySR":469.95,"xT1":424.9,"yT1":0,"xT2":1058.1,"yT2":0,"toosoon":0,"cond_shown":"randomdotsizeEA","ratio_trial":750,"smaller_num":"6","larger_num":"8","correct_side":1,"subjID":"eyleendanielarodriguezacero7","gender":"1","age":"11","school":"sexto"},{"start_time":1551887672682,"click_time":1551887673771,"finger_time":1551887673510,"fix_duration":250,"trial":12,"RT":828,"MT":261,"sideResp":1,"stimulus":"img/750/equaldotsize/L/1_Ratio_750_L_20_R_15.png","xmouse":[814,814,814,814,814,814,814,814,814,814,814,814,814,814,814,814,814,814,814,814,814,814,814,814,814,814,814,814,814,814,814,814,814,814,814,814,814,814,814,793,749,696,633,581,536,539,547,552,553,553,551,548,544,542,524],"ymouse":[559,559,559,559,559,559,559,559,559,559,559,559,559,559,559,559,559,559,559,559,559,559,559,559,559,559,559,559,559,559,559,559,559,559,559,559,559,559,557,539,488,426,356,296,235,229,219,212,203,177,161,146,134,125,87],"timestamp_mouse":[8,32,49,68,89,109,130,149,169,190,208,228,248,269,289,309,329,350,369,388,408,428,450,469,490,508,528,548,568,590,609,628,649,668,689,708,729,750,768,790,809,828,848,869,889,908,929,949,969,990,1009,1028,1048,1069,1088],"xSR":741.5,"ySR":469.95,"xT1":424.9,"yT1":0,"xT2":1058.1,"yT2":0,"toosoon":0,"cond_shown":"equaldotsize","ratio_trial":750,"smaller_num":"15","larger_num":"20","correct_side":1,"subjID":"eyleendanielarodriguezacero7","gender":"1","age":"11","school":"sexto"},{"start_time":1551887676053,"click_time":1551887676971,"finger_time":1551887676772,"fix_duration":1499.6460881216658,"trial":13,"RT":719,"MT":199,"sideResp":1,"stimulus":"img/250/randomdotsizeEA/L/3_Ratio_250_L_8_R_2.png","xmouse":[780,780,780,780,780,780,780,780,780,780,780,780,780,780,780,780,780,780,780,780,780,780,780,780,780,780,780,780,780,780,780,780,773,769,762,744,737,725,697,661,587,574,568,562,537,496],"ymouse":[498,498,498,498,498,498,498,498,498,498,498,498,498,498,498,498,498,498,498,498,498,498,498,498,498,498,498,498,498,498,498,498,494,491,482,458,434,362,298,241,165,153,148,136,96,53],"timestamp_mouse":[27,37,57,79,97,117,137,158,177,197,217,238,258,278,297,318,338,358,378,397,417,439,458,479,498,517,539,558,579,598,617,638,659,677,698,719,739,758,779,798,818,838,858,878,897,917],"xSR":741.5,"ySR":469.95,"xT1":424.9,"yT1":0,"xT2":1058.1,"yT2":0,"toosoon":0,"cond_shown":"randomdotsizeEA","ratio_trial":250,"smaller_num":"2","larger_num":"8","correct_side":1,"subjID":"eyleendanielarodriguezacero7","gender":"1","age":"11","school":"sexto"},{"start_time":1551887677998,"click_time":1551887679011,"finger_time":1551887678711,"fix_duration":305.3540787524741,"trial":14,"RT":713,"MT":300,"sideResp":2,"stimulus":"img/250/equaldotanddens/R/6_Ratio_250_L_6_R_24.png","xmouse":[805,805,805,805,805,805,805,805,805,805,805,805,805,805,805,805,805,805,805,805,805,805,805,805,805,805,805,805,805,805,805,805,807,815,833,861,899,964,979,982,986,992,997,1009,1019,1029,1038,1045,1051,1056,1062],"ymouse":[492,492,492,492,492,492,492,492,492,493,493,493,493,493,493,493,493,493,493,493,493,493,493,493,493,493,493,493,493,493,493,493,493,487,476,459,428,346,311,295,273,249,227,188,163,140,120,104,94,90,85],"timestamp_mouse":[13,36,52,72,94,112,132,152,172,194,213,232,254,272,292,313,334,352,374,392,413,432,454,472,494,513,532,553,574,593,612,633,654,674,694,713,733,754,772,793,812,832,853,873,893,913,932,953,972,993,1013],"xSR":741.5,"ySR":469.95,"xT1":424.9,"yT1":0,"xT2":1058.1,"yT2":0,"toosoon":0,"cond_shown":"equaldotanddens","ratio_trial":250,"smaller_num":"6","larger_num":"24","correct_side":2,"subjID":"eyleendanielarodriguezacero7","gender":"1","age":"11","school":"sexto"},{"start_time":1551887680062,"click_time":1551887681072,"finger_time":1551887680770,"fix_duration":250,"trial":15,"RT":708,"MT":302,"sideResp":1,"stimulus":"img/250/equaldotsize/L/15_Ratio_250_L_12_R_3.png","xmouse":[797,797,797,797,797,797,797,797,797,797,797,797,797,797,797,797,797,797,797,797,797,797,797,797,797,797,797,797,797,797,797,793,790,774,753,709,698,690,680,668,643,632,621,614,607,587,572,554,542,528,508],"ymouse":[530,530,530,530,530,530,530,530,530,530,530,530,530,530,530,530,530,530,530,530,530,530,530,530,530,530,530,530,530,530,530,530,529,520,504,443,421,399,370,343,300,284,271,265,259,242,223,195,165,133,93],"timestamp_mouse":[10,34,50,68,88,110,128,149,168,188,208,230,248,268,289,310,330,349,369,390,410,428,448,468,488,508,528,549,568,588,608,630,649,669,688,708,729,748,768,788,809,829,848,869,888,908,929,949,969,988,1009],"xSR":741.5,"ySR":469.95,"xT1":424.9,"yT1":0,"xT2":1058.1,"yT2":0,"toosoon":0,"cond_shown":"equaldotsize","ratio_trial":250,"smaller_num":"3","larger_num":"12","correct_side":1,"subjID":"eyleendanielarodriguezacero7","gender":"1","age":"11","school":"sexto"},{"start_time":1551887682571,"click_time":1551887683991,"finger_time":1551887683471,"fix_duration":899.0735471216138,"trial":16,"RT":900,"MT":520,"sideResp":1,"stimulus":"img/500/randomdotsizeEA/L/8_Ratio_500_L_8_R_4.png","xmouse":[826,826,826,826,826,826,826,826,826,826,826,826,826,826,826,826,826,826,826,826,826,826,826,826,826,826,826,826,826,826,826,826,826,826,826,826,826,826,826,826,826,826,820,810,797,781,776,765,747,742,707,692,675,655,637,609,595,581,568,550,517,508,503,500,497,492,490,489,488,487,487,487],"ymouse":[511,511,511,511,511,511,511,511,511,511,511,511,511,511,511,511,511,511,511,511,511,511,511,511,511,511,511,511,511,511,511,511,511,511,511,511,511,511,511,511,511,511,500,486,473,453,446,433,411,406,372,356,334,311,289,262,249,237,226,211,180,172,165,159,153,140,136,134,130,125,107,99],"timestamp_mouse":[1,27,39,59,79,99,120,141,160,180,199,219,241,260,279,299,320,340,360,381,401,420,440,460,481,499,519,540,560,579,601,621,641,660,679,699,719,740,759,779,799,820,840,860,880,900,920,939,959,980,1000,1020,1041,1060,1080,1100,1121,1139,1160,1180,1200,1221,1240,1259,1279,1300,1320,1339,1360,1379,1399,1419],"xSR":741.5,"ySR":469.95,"xT1":424.9,"yT1":0,"xT2":1058.1,"yT2":0,"toosoon":0,"cond_shown":"randomdotsizeEA","ratio_trial":500,"smaller_num":"4","larger_num":"8","correct_side":1,"subjID":"eyleendanielarodriguezacero7","gender":"1","age":"11","school":"sexto"},{"start_time":1551887685241,"click_time":1551887686231,"finger_time":1551887686070,"fix_duration":408.49842312542575,"trial":17,"RT":829,"MT":161,"sideResp":2,"stimulus":"img/750/equaldotanddens/R/5_Ratio_750_L_15_R_20.png","xmouse":[814,814,814,814,814,814,814,814,814,814,814,814,814,814,814,814,814,814,814,814,814,814,814,814,814,814,814,814,814,814,814,814,814,814,814,814,814,814,816,822,841,882,887,892,954,994,1036,1044,1053,1063],"ymouse":[500,500,500,500,500,500,500,500,500,500,500,500,500,500,500,500,500,500,500,500,500,500,500,500,500,500,500,500,500,500,500,500,500,500,500,500,500,500,497,493,481,450,408,331,176,105,67,61,57,55],"timestamp_mouse":[9,29,54,70,90,110,131,150,170,189,210,230,249,270,289,309,330,350,370,390,409,429,450,469,489,510,530,550,570,590,610,631,649,669,689,709,731,749,769,790,810,829,849,869,890,909,929,949,969,990],"xSR":741.5,"ySR":469.95,"xT1":424.9,"yT1":0,"xT2":1058.1,"yT2":0,"toosoon":0,"cond_shown":"equaldotanddens","ratio_trial":750,"smaller_num":"15","larger_num":"20","correct_side":2,"subjID":"eyleendanielarodriguezacero7","gender":"1","age":"11","school":"sexto"},{"start_time":1551887689732,"click_time":1551887690832,"finger_time":1551887690531,"fix_duration":1261.9180934654232,"trial":18,"RT":799,"MT":301,"sideResp":1,"stimulus":"img/750/equaldotanddens/L/13_Ratio_750_L_8_R_6.png","xmouse":[796,796,796,796,796,796,796,796,796,796,796,796,796,796,796,796,796,796,796,796,796,796,796,796,796,796,796,796,796,796,796,796,796,796,796,796,796,794,781,760,715,671,658,644,629,602,563,557,556,556,556,546,537,527,521],"ymouse":[542,542,542,542,542,542,542,542,542,542,542,542,542,542,542,542,542,542,542,542,542,542,542,542,542,542,542,542,542,542,542,542,542,542,542,542,542,533,498,461,404,356,340,324,304,265,209,196,189,179,169,122,100,83,76],"timestamp_mouse":[19,38,60,80,99,119,139,158,179,199,218,239,258,279,299,319,339,358,378,400,420,438,459,479,498,520,538,559,579,600,618,639,659,679,699,719,740,759,778,799,818,838,858,879,899,918,939,959,980,999,1019,1038,1058,1078,1100],"xSR":741.5,"ySR":469.95,"xT1":424.9,"yT1":0,"xT2":1058.1,"yT2":0,"toosoon":0,"cond_shown":"equaldotanddens","ratio_trial":750,"smaller_num":"6","larger_num":"8","correct_side":1,"subjID":"eyleendanielarodriguezacero7","gender":"1","age":"11","school":"sexto"},{"start_time":1551887694422,"click_time":1551887695651,"finger_time":1551887695171,"fix_duration":250,"trial":19,"RT":749,"MT":480,"sideResp":1,"stimulus":"img/750/equaldotsize/L/8_Ratio_750_L_4_R_3.png","xmouse":[800,800,800,800,800,800,800,800,800,800,800,800,800,800,800,800,800,800,800,800,800,800,800,800,800,800,800,800,800,800,800,800,800,800,798,790,783,751,733,717,700,689,671,664,656,650,647,643,641,635,629,622,590,562,540,527,523,518,511,501,490,484],"ymouse":[508,508,508,508,508,508,508,508,508,508,508,508,508,508,508,508,508,508,508,508,508,508,508,508,508,508,508,508,508,508,508,508,508,507,505,498,491,454,433,418,403,388,364,353,343,335,330,325,322,315,308,298,266,238,215,204,199,157,139,121,104,91],"timestamp_mouse":[9,29,50,68,89,108,128,150,169,189,209,228,248,269,288,308,329,348,369,388,410,430,448,470,488,509,529,549,569,588,610,628,648,668,688,709,728,749,768,789,808,828,849,869,889,909,929,948,968,988,1010,1029,1048,1069,1088,1108,1128,1148,1168,1190,1208,1229],"xSR":741.5,"ySR":469.95,"xT1":424.9,"yT1":0,"xT2":1058.1,"yT2":0,"toosoon":0,"cond_shown":"equaldotsize","ratio_trial":750,"smaller_num":"3","larger_num":"4","correct_side":1,"subjID":"eyleendanielarodriguezacero7","gender":"1","age":"11","school":"sexto"},{"start_time":1551887696663,"click_time":1551887698271,"finger_time":1551887697970,"fix_duration":250,"trial":20,"RT":1307,"MT":301,"sideResp":1,"stimulus":"img/900/equaldotsize/R/7_Ratio_900_L_9_R_10.png","xmouse":[781,781,781,781,781,781,781,781,781,781,781,781,781,781,781,781,781,781,781,781,781,781,781,781,781,781,781,781,781,781,781,781,781,781,781,781,781,781,781,781,781,781,781,781,781,781,781,781,781,781,781,781,781,781,781,781,781,781,781,781,781,777,775,772,760,734,721,702,688,677,657,649,642,635,628,622,614,601,583,543,474],"ymouse":[516,516,516,516,516,516,516,516,516,516,516,516,516,516,516,516,516,516,516,516,516,516,516,516,516,516,516,516,516,516,516,516,516,516,516,516,516,516,516,516,516,516,516,516,516,516,516,516,516,516,516,516,516,516,516,516,516,516,516,516,516,508,504,494,471,432,406,374,348,327,283,263,247,231,209,194,184,169,147,117,70],"timestamp_mouse":[9,33,48,68,87,107,127,147,168,187,209,228,247,267,287,307,328,347,367,387,408,428,447,469,487,508,528,549,567,587,607,627,647,668,687,709,727,748,767,787,808,827,848,867,887,909,927,949,969,987,1007,1029,1047,1069,1087,1107,1128,1147,1168,1187,1208,1228,1247,1267,1288,1307,1327,1348,1368,1387,1407,1427,1448,1468,1489,1507,1527,1547,1568,1588,1608],"xSR":741.5,"ySR":469.95,"xT1":424.9,"yT1":0,"xT2":1058.1,"yT2":0,"toosoon":0,"cond_shown":"equaldotsize","ratio_trial":900,"smaller_num":"9","larger_num":"10","correct_side":2,"subjID":"eyleendanielarodriguezacero7","gender":"1","age":"11","school":"sexto"},{"start_time":1551887704570,"click_time":1551887705491,"finger_time":1551887705230,"fix_duration":878.6100000204599,"trial":21,"RT":660,"MT":261,"sideResp":2,"stimulus":"img/250/equaldotsize/R/4_Ratio_250_L_3_R_12.png","xmouse":[787,787,787,787,787,787,787,787,787,787,787,787,787,787,787,787,787,787,787,787,787,787,787,787,787,787,787,787,787,787,787,788,796,807,822,877,962,1038,1083,1111,1120,1122,1122,1122,1122,1125,1127],"ymouse":[506,506,506,506,506,506,506,506,506,506,506,506,506,506,506,506,506,506,506,506,506,506,506,506,506,506,506,506,506,506,506,498,477,447,409,324,259,221,198,177,158,143,127,116,111,103,99],"timestamp_mouse":[11,32,40,60,81,101,120,142,160,180,201,222,240,260,281,300,320,340,360,380,400,420,440,461,480,500,521,540,560,580,601,621,640,660,681,701,720,742,761,780,800,820,842,860,881,901,921],"xSR":741.5,"ySR":469.95,"xT1":424.9,"yT1":0,"xT2":1058.1,"yT2":0,"toosoon":0,"cond_shown":"equaldotsize","ratio_trial":250,"smaller_num":"3","larger_num":"12","correct_side":2,"subjID":"eyleendanielarodriguezacero7","gender":"1","age":"11","school":"sexto"},{"start_time":1551887706642,"click_time":1551887708170,"finger_time":1551887707830,"fix_duration":250,"trial":22,"RT":1188,"MT":340,"sideResp":1,"stimulus":"img/750/equaldotanddens/L/10_Ratio_750_L_4_R_3.png","xmouse":[807,807,807,807,807,807,807,807,807,807,807,807,807,807,807,807,807,807,807,807,807,807,807,807,807,807,807,807,807,807,807,807,807,807,807,807,807,807,807,807,807,807,807,807,807,807,807,807,807,807,807,807,807,807,807,807,797,777,759,742,717,710,698,681,665,650,624,616,608,598,586,561,545,533,522,514,501],"ymouse":[512,512,512,512,512,512,512,512,512,512,512,512,512,512,512,512,512,512,512,512,512,512,512,512,512,512,512,512,512,512,512,512,512,512,512,512,512,512,512,512,512,512,512,512,512,512,512,512,512,512,512,512,512,512,512,512,506,493,482,468,437,420,400,376,356,337,298,281,259,237,217,181,161,145,129,115,93],"timestamp_mouse":[8,31,52,68,88,108,128,150,168,190,210,230,249,269,289,309,329,349,369,389,409,428,448,468,488,509,528,548,568,588,608,628,648,668,690,708,729,748,768,788,808,828,849,870,890,908,928,948,969,988,1008,1029,1049,1070,1088,1108,1128,1149,1168,1188,1210,1228,1248,1269,1288,1308,1329,1348,1369,1388,1409,1429,1448,1468,1489,1508,1528],"xSR":741.5,"ySR":469.95,"xT1":424.9,"yT1":0,"xT2":1058.1,"yT2":0,"toosoon":0,"cond_shown":"equaldotanddens","ratio_trial":750,"smaller_num":"3","larger_num":"4","correct_side":1,"subjID":"eyleendanielarodriguezacero7","gender":"1","age":"11","school":"sexto"},{"start_time":1551887709121,"click_time":1551887710250,"finger_time":1551887709972,"fix_duration":250,"trial":23,"RT":851,"MT":278,"sideResp":2,"stimulus":"img/500/randomdotsizeEA/R/14_Ratio_500_L_5_R_10.png","xmouse":[804,804,804,804,804,804,804,804,804,804,804,804,804,804,804,804,804,804,804,804,804,804,804,804,804,804,804,804,804,804,804,804,804,804,804,804,804,804,805,805,807,815,868,920,961,992,1015,1046,1055,1066,1081,1103,1127,1133,1141,1147,1155],"ymouse":[533,533,533,533,533,533,533,533,533,533,533,533,533,533,533,533,533,533,533,533,533,533,533,533,533,533,533,533,533,533,533,533,533,533,533,533,533,533,533,528,511,489,383,324,271,234,212,189,181,174,162,146,126,120,112,104,94],"timestamp_mouse":[10,29,50,69,90,111,129,150,170,189,210,229,249,271,289,310,331,351,371,389,410,430,449,469,489,510,531,549,570,589,611,631,650,669,690,709,729,750,769,789,810,829,851,870,889,910,930,950,970,990,1009,1029,1049,1070,1090,1110,1129],"xSR":741.5,"ySR":469.95,"xT1":424.9,"yT1":0,"xT2":1058.1,"yT2":0,"toosoon":0,"cond_shown":"randomdotsizeEA","ratio_trial":500,"smaller_num":"5","larger_num":"10","correct_side":2,"subjID":"eyleendanielarodriguezacero7","gender":"1","age":"11","school":"sexto"},{"start_time":1551887714541,"click_time":1551887715970,"finger_time":1551887715651,"fix_duration":1029.9261398208876,"trial":24,"RT":1110,"MT":319,"sideResp":2,"stimulus":"img/900/randomdotsizeEA/R/7_Ratio_900_L_9_R_10.png","xmouse":[814,814,814,814,814,814,814,814,814,814,814,814,814,814,814,814,814,814,814,814,814,814,814,814,814,814,814,814,814,814,814,814,814,814,814,814,814,814,814,814,814,814,814,814,814,814,814,814,814,814,814,814,814,822,830,845,889,902,910,923,933,962,975,984,994,1012,1019,1025,1032,1038,1045,1070],"ymouse":[543,543,543,543,543,543,543,543,543,543,543,543,543,543,543,543,543,543,543,543,543,543,543,543,543,543,543,543,543,543,543,543,543,543,543,543,543,543,543,543,543,543,543,543,543,543,543,543,543,543,543,543,543,539,535,521,465,430,401,365,338,276,256,238,222,188,172,156,140,125,116,92],"timestamp_mouse":[10,38,51,69,89,111,130,150,169,191,209,230,251,269,290,309,329,350,370,391,409,430,449,469,491,509,531,550,570,589,610,631,650,670,691,709,729,749,771,789,809,830,851,870,889,911,931,950,970,990,1009,1029,1050,1071,1089,1110,1130,1150,1171,1189,1209,1230,1249,1269,1290,1310,1329,1350,1370,1389,1409,1429],"xSR":741.5,"ySR":469.95,"xT1":424.9,"yT1":0,"xT2":1058.1,"yT2":0,"toosoon":0,"cond_shown":"randomdotsizeEA","ratio_trial":900,"smaller_num":"9","larger_num":"10","correct_side":2,"subjID":"eyleendanielarodriguezacero7","gender":"1","age":"11","school":"sexto"},{"start_time":1551887717002,"click_time":1551887717950,"finger_time":1551887717871,"fix_duration":250,"trial":25,"RT":869,"MT":79,"sideResp":2,"stimulus":"img/250/equaldotsize/R/4_Ratio_250_L_3_R_12.png","xmouse":[835,835,835,835,835,835,835,835,835,835,834,834,834,834,834,834,834,834,834,833,832,832,832,832,831,831,831,831,831,831,831,831,831,831,831,831,831,831,831,831,831,831,834,876,928,983,1034,1073],"ymouse":[533,533,533,533,533,533,533,531,529,529,526,524,524,524,524,524,524,524,523,520,517,515,512,512,510,510,509,509,509,509,509,509,509,509,509,509,509,509,509,509,509,509,487,389,296,207,131,67],"timestamp_mouse":[10,29,48,68,89,109,128,149,168,189,209,229,249,268,289,310,329,349,368,388,408,428,450,469,488,508,529,550,568,588,609,628,648,668,688,708,729,749,768,789,809,829,849,869,889,909,928,948],"xSR":741.5,"ySR":469.95,"xT1":424.9,"yT1":0,"xT2":1058.1,"yT2":0,"toosoon":0,"cond_shown":"equaldotsize","ratio_trial":250,"smaller_num":"3","larger_num":"12","correct_side":2,"subjID":"eyleendanielarodriguezacero7","gender":"1","age":"11","school":"sexto"},{"start_time":1551887719708,"click_time":1551887720751,"finger_time":1551887720570,"fix_duration":756.6730049593481,"trial":26,"RT":862,"MT":181,"sideResp":1,"stimulus":"img/900/equaldotsize/L/4_Ratio_900_L_20_R_18.png","xmouse":[819,819,819,819,819,819,819,819,819,819,819,819,819,819,819,819,819,819,819,819,819,819,819,819,819,819,819,819,819,819,819,819,819,819,819,819,819,819,819,819,819,813,805,698,650,616,602,597,583,571,557,540,513],"ymouse":[498,498,498,498,498,498,498,498,498,498,498,498,498,498,498,498,498,498,498,498,498,498,498,498,498,498,498,498,498,498,498,498,498,498,498,498,498,498,498,498,498,498,494,387,301,218,179,157,123,110,99,90,83],"timestamp_mouse":[9,28,42,62,82,102,122,142,163,182,202,223,242,262,284,302,323,342,362,382,402,422,443,462,482,502,524,544,562,582,603,624,642,664,682,703,723,744,762,784,803,823,844,862,882,902,923,942,963,982,1003,1024,1043],"xSR":741.5,"ySR":469.95,"xT1":424.9,"yT1":0,"xT2":1058.1,"yT2":0,"toosoon":0,"cond_shown":"equaldotsize","ratio_trial":900,"smaller_num":"18","larger_num":"20","correct_side":1,"subjID":"eyleendanielarodriguezacero7","gender":"1","age":"11","school":"sexto"},{"start_time":1551887722990,"click_time":1551887724132,"finger_time":1551887723952,"fix_duration":1358.034866415169,"trial":27,"RT":962,"MT":180,"sideResp":1,"stimulus":"img/500/randomdotsizeEA/L/4_Ratio_500_L_18_R_9.png","xmouse":[764,764,764,764,764,764,764,764,764,764,764,764,764,764,764,764,764,764,764,764,764,764,764,764,764,764,764,764,764,764,764,764,764,764,764,764,764,764,764,764,764,764,764,764,764,764,762,757,719,681,654,634,619,590,570,546,527,503],"ymouse":[496,496,496,496,496,496,496,496,496,496,496,496,496,496,496,496,496,496,496,496,496,496,496,496,496,496,496,496,496,496,496,496,496,496,496,496,496,496,496,496,496,496,496,496,496,496,484,472,387,323,282,252,230,179,150,116,86,46],"timestamp_mouse":[8,31,41,62,80,101,121,141,161,182,201,221,240,261,280,300,320,341,360,381,401,421,440,460,481,500,520,540,562,580,601,621,641,661,680,700,720,742,760,780,800,820,842,861,881,901,921,940,962,980,1000,1021,1041,1062,1080,1100,1122,1142],"xSR":741.5,"ySR":469.95,"xT1":424.9,"yT1":0,"xT2":1058.1,"yT2":0,"toosoon":0,"cond_shown":"randomdotsizeEA","ratio_trial":500,"smaller_num":"9","larger_num":"18","correct_side":1,"subjID":"eyleendanielarodriguezacero7","gender":"1","age":"11","school":"sexto"},{"start_time":1551887727062,"click_time":1551887728270,"finger_time":1551887727971,"fix_duration":250,"trial":28,"RT":909,"MT":299,"sideResp":1,"stimulus":"img/900/randomdotsizeEA/L/10_Ratio_900_L_20_R_18.png","xmouse":[790,790,790,790,790,790,790,790,790,790,790,790,790,790,790,790,790,790,790,790,790,790,790,790,790,790,790,790,790,790,790,790,790,790,790,790,790,790,790,790,790,790,790,790,782,770,757,741,718,698,648,627,612,601,590,564,552,542,533,527,520],"ymouse":[511,511,511,511,511,511,511,511,511,511,511,511,511,511,511,511,511,511,511,511,511,511,511,511,511,511,511,511,511,511,511,511,511,511,511,511,511,511,511,511,511,511,509,505,485,463,444,423,391,354,269,232,209,193,176,138,121,103,88,78,69],"timestamp_mouse":[10,34,48,70,88,109,129,148,169,188,208,229,248,270,288,308,328,350,368,390,408,428,448,469,490,509,530,550,568,588,608,629,649,668,690,708,729,750,770,788,810,830,848,869,890,909,929,948,969,989,1008,1028,1048,1068,1090,1109,1129,1149,1168,1188,1208],"xSR":741.5,"ySR":469.95,"xT1":424.9,"yT1":0,"xT2":1058.1,"yT2":0,"toosoon":0,"cond_shown":"randomdotsizeEA","ratio_trial":900,"smaller_num":"18","larger_num":"20","correct_side":1,"subjID":"eyleendanielarodriguezacero7","gender":"1","age":"11","school":"sexto"},{"start_time":1551887729570,"click_time":1551887730991,"finger_time":1551887730451,"fix_duration":317.31932881436575,"trial":29,"RT":881,"MT":540,"sideResp":2,"stimulus":"img/250/randomdotsizeEA/R/8_Ratio_250_L_1_R_4.png","xmouse":[834,834,834,834,834,834,834,834,834,834,834,834,834,834,834,834,834,834,834,834,834,834,834,834,834,834,834,834,834,834,834,834,834,834,834,834,834,834,834,834,834,834,834,832,829,826,824,822,820,820,819,819,819,819,819,819,819,819,819,834,1008,1051,1072,1088,1096,1104,1106,1108,1109,1110,1114,1116],"ymouse":[520,520,520,520,520,520,520,520,520,520,520,520,520,520,520,520,520,520,520,520,520,520,520,520,520,520,520,520,520,520,520,520,520,520,520,520,520,520,520,520,520,520,509,497,425,400,378,363,353,353,351,351,351,351,351,351,351,351,350,343,280,263,245,217,193,165,158,153,149,145,116,96],"timestamp_mouse":[8,21,40,60,80,100,120,140,160,180,200,220,241,260,282,300,321,340,360,380,400,421,441,461,482,502,521,540,561,582,600,621,640,660,680,700,721,740,760,780,800,821,841,860,881,900,921,940,960,981,1000,1021,1040,1060,1082,1102,1121,1140,1161,1180,1201,1221,1241,1261,1281,1300,1320,1341,1360,1380,1400,1420],"xSR":741.5,"ySR":469.95,"xT1":424.9,"yT1":0,"xT2":1058.1,"yT2":0,"toosoon":0,"cond_shown":"randomdotsizeEA","ratio_trial":250,"smaller_num":"1","larger_num":"4","correct_side":2,"subjID":"eyleendanielarodriguezacero7","gender":"1","age":"11","school":"sexto"},{"start_time":1551887732362,"click_time":1551887733771,"finger_time":1551887733350,"fix_duration":551.8824402228315,"trial":30,"RT":988,"MT":421,"sideResp":1,"stimulus":"img/500/equaldotsize/L/5_Ratio_500_L_4_R_2.png","xmouse":[807,807,807,807,807,807,807,807,807,807,807,807,807,807,807,807,807,807,807,807,807,807,807,807,807,807,807,807,807,807,807,807,807,807,807,807,807,807,807,807,807,807,807,807,807,805,794,777,755,731,679,672,667,658,644,608,597,589,586,583,566,563,557,549,544,541,540,539,536,534,521],"ymouse":[536,536,536,536,536,536,536,536,536,536,536,536,536,536,536,536,536,536,536,536,536,536,536,536,536,536,536,536,536,536,536,536,536,536,536,536,536,536,536,536,536,536,536,536,536,532,519,503,484,468,436,429,420,406,385,339,327,321,313,301,251,231,211,196,183,170,162,153,141,129,86],"timestamp_mouse":[19,32,50,69,88,109,129,149,168,189,208,228,250,268,290,308,328,348,368,388,408,429,449,469,488,508,529,548,568,589,608,629,648,669,688,710,728,749,769,788,809,829,848,869,888,909,928,949,968,988,1008,1029,1048,1070,1088,1109,1128,1149,1169,1188,1208,1228,1249,1268,1288,1309,1329,1348,1368,1389,1409],"xSR":741.5,"ySR":469.95,"xT1":424.9,"yT1":0,"xT2":1058.1,"yT2":0,"toosoon":0,"cond_shown":"equaldotsize","ratio_trial":500,"smaller_num":"2","larger_num":"4","correct_side":1,"subjID":"eyleendanielarodriguezacero7","gender":"1","age":"11","school":"sexto"},{"start_time":1551887734946,"click_time":1551887735831,"finger_time":1551887735671,"fix_duration":473.7332264006583,"trial":31,"RT":725,"MT":160,"sideResp":2,"stimulus":"img/900/equaldotsize/L/8_Ratio_900_L_20_R_18.png","xmouse":[828,828,828,828,828,828,828,828,828,828,828,828,828,828,828,828,828,828,828,828,828,828,828,828,828,828,828,828,828,828,828,828,828,828,828,827,827,827,827,827,849,901,951,1011,1075],"ymouse":[530,530,530,530,530,530,530,530,530,530,530,530,530,530,530,530,530,530,530,530,530,530,530,530,530,530,530,530,530,530,530,530,530,530,530,508,467,417,379,338,244,156,110,77,53],"timestamp_mouse":[10,33,45,64,84,105,125,144,165,184,204,225,246,266,285,305,324,346,364,385,404,426,445,466,484,504,524,544,565,584,605,624,644,664,684,706,725,744,765,785,806,824,844,864,884],"xSR":741.5,"ySR":469.95,"xT1":424.9,"yT1":0,"xT2":1058.1,"yT2":0,"toosoon":0,"cond_shown":"equaldotsize","ratio_trial":900,"smaller_num":"18","larger_num":"20","correct_side":1,"subjID":"eyleendanielarodriguezacero7","gender":"1","age":"11","school":"sexto"},{"start_time":1551887737268,"click_time":1551887738492,"finger_time":1551887738170,"fix_duration":375.89966795055994,"trial":32,"RT":902,"MT":322,"sideResp":1,"stimulus":"img/900/equaldotsize/R/6_Ratio_900_L_9_R_10.png","xmouse":[776,776,776,776,776,776,776,776,776,776,776,776,776,776,776,776,776,776,776,776,776,776,776,776,776,776,776,776,776,776,776,776,776,776,776,776,776,776,776,776,776,776,776,776,771,759,743,727,710,689,650,630,609,592,576,549,546,544,540,538,520,508],"ymouse":[493,493,493,493,493,493,493,493,493,493,493,493,493,493,493,493,493,493,493,493,493,493,493,493,493,493,493,493,493,493,493,493,493,493,493,493,493,493,493,493,493,493,493,492,476,457,434,413,387,364,327,311,297,285,273,255,253,251,236,216,136,95],"timestamp_mouse":[9,28,42,62,84,103,123,142,162,183,202,222,242,264,282,303,324,342,362,382,402,423,442,462,482,502,523,542,562,583,602,622,643,663,683,702,722,744,763,782,802,823,842,863,884,902,924,943,962,983,1002,1022,1043,1063,1083,1102,1122,1142,1162,1183,1203,1224],"xSR":741.5,"ySR":469.95,"xT1":424.9,"yT1":0,"xT2":1058.1,"yT2":0,"toosoon":0,"cond_shown":"equaldotsize","ratio_trial":900,"smaller_num":"9","larger_num":"10","correct_side":2,"subjID":"eyleendanielarodriguezacero7","gender":"1","age":"11","school":"sexto"},{"start_time":1551887740185,"click_time":1551887741191,"finger_time":1551887740951,"fix_duration":611.8625648586591,"trial":33,"RT":766,"MT":240,"sideResp":1,"stimulus":"img/250/randomdotsizeEA/L/2_Ratio_250_L_16_R_4.png","xmouse":[796,796,796,796,796,796,796,796,796,796,796,796,796,796,796,796,796,796,796,796,796,796,796,796,796,796,796,796,796,796,796,796,796,796,796,793,790,780,755,687,648,620,602,586,556,549,541,530,520,501,496],"ymouse":[504,504,504,504,504,504,504,504,504,504,504,504,504,504,504,504,504,504,504,504,504,504,504,504,504,504,504,504,504,504,504,504,504,504,504,504,500,486,453,377,338,306,284,264,230,220,210,191,172,113,92],"timestamp_mouse":[9,27,46,65,85,106,125,145,165,186,206,226,245,265,285,306,327,347,365,386,405,425,447,467,485,506,525,547,565,585,606,627,645,666,686,706,725,746,766,785,806,825,846,865,885,906,926,945,966,985,1005],"xSR":741.5,"ySR":469.95,"xT1":424.9,"yT1":0,"xT2":1058.1,"yT2":0,"toosoon":0,"cond_shown":"randomdotsizeEA","ratio_trial":250,"smaller_num":"4","larger_num":"16","correct_side":1,"subjID":"eyleendanielarodriguezacero7","gender":"1","age":"11","school":"sexto"},{"start_time":1551887742339,"click_time":1551887743352,"finger_time":1551887743152,"fix_duration":327.86252332012543,"trial":34,"RT":813,"MT":200,"sideResp":2,"stimulus":"img/900/equaldotsize/L/8_Ratio_900_L_20_R_18.png","xmouse":[819,819,819,819,819,819,819,819,819,819,819,819,819,819,819,819,819,819,819,819,819,819,819,819,819,819,819,819,819,819,819,819,819,819,819,819,819,819,821,829,914,951,975,998,1023,1047,1075,1088,1100,1107,1110],"ymouse":[554,554,554,554,554,554,554,554,554,554,554,554,554,554,554,554,554,554,554,554,554,554,554,554,554,554,554,554,554,554,554,554,554,554,554,554,554,554,542,526,381,329,287,252,218,191,155,139,123,110,99],"timestamp_mouse":[11,31,51,72,93,111,133,151,171,192,211,232,251,272,293,313,331,351,371,391,411,433,451,472,491,511,531,551,571,592,612,631,651,673,692,711,732,752,771,791,813,831,852,871,891,912,932,951,972,993,1013],"xSR":741.5,"ySR":469.95,"xT1":424.9,"yT1":0,"xT2":1058.1,"yT2":0,"toosoon":0,"cond_shown":"equaldotsize","ratio_trial":900,"smaller_num":"18","larger_num":"20","correct_side":1,"subjID":"eyleendanielarodriguezacero7","gender":"1","age":"11","school":"sexto"},{"start_time":1551887745134,"click_time":1551887746370,"finger_time":1551887746090,"fix_duration":943.2556624910717,"trial":35,"RT":956,"MT":280,"sideResp":1,"stimulus":"img/750/equaldotanddens/R/2_Ratio_750_L_6_R_8.png","xmouse":[825,825,825,825,825,825,825,825,825,825,825,825,825,825,825,825,825,825,825,825,825,825,825,825,825,825,825,825,825,825,825,825,825,825,825,825,825,825,825,825,825,825,825,825,823,821,801,773,749,732,719,691,678,662,647,631,605,592,579,565,550,521],"ymouse":[530,530,530,530,530,530,530,530,530,530,530,530,530,530,530,530,530,530,530,530,530,530,530,530,530,530,530,530,530,530,530,530,530,530,530,530,530,530,530,530,530,530,530,530,526,522,484,438,405,382,363,318,294,269,247,225,189,176,158,140,115,62],"timestamp_mouse":[32,36,57,78,96,116,138,156,176,198,216,237,256,276,296,316,337,357,377,398,416,436,456,476,496,518,536,557,578,596,617,636,656,677,696,716,737,756,777,796,818,836,856,876,896,917,937,956,976,997,1016,1036,1056,1077,1096,1116,1136,1156,1176,1196,1217,1236],"xSR":741.5,"ySR":469.95,"xT1":424.9,"yT1":0,"xT2":1058.1,"yT2":0,"toosoon":0,"cond_shown":"equaldotanddens","ratio_trial":750,"smaller_num":"6","larger_num":"8","correct_side":2,"subjID":"eyleendanielarodriguezacero7","gender":"1","age":"11","school":"sexto"},{"start_time":1551887747964,"click_time":1551887749292,"finger_time":1551887748892,"fix_duration":532.8715690363019,"trial":36,"RT":928,"MT":400,"sideResp":2,"stimulus":"img/500/equaldotanddens/R/12_Ratio_500_L_1_R_2.png","xmouse":[797,797,797,797,797,797,797,797,797,797,797,797,797,797,797,797,797,797,797,797,797,797,797,797,797,797,797,797,797,797,797,797,797,797,797,797,797,797,797,797,797,797,800,806,814,841,856,865,872,879,910,920,929,935,942,968,988,1009,1025,1035,1040,1040,1042,1046,1052,1066,1068],"ymouse":[529,529,529,529,529,529,529,529,529,529,529,529,529,529,529,529,529,529,529,529,529,529,529,529,529,529,529,529,529,529,529,529,529,529,529,529,529,529,529,529,529,529,529,526,517,485,462,441,419,396,318,295,277,262,250,216,188,158,136,124,120,120,120,119,113,102,99],"timestamp_mouse":[8,28,47,66,87,106,127,146,166,186,207,227,248,266,288,306,327,346,366,386,407,426,448,466,487,507,526,548,566,587,606,626,648,668,687,706,727,747,766,786,806,827,847,866,886,906,928,947,967,987,1007,1027,1046,1067,1086,1106,1127,1147,1166,1188,1207,1227,1247,1266,1286,1306,1328],"xSR":741.5,"ySR":469.95,"xT1":424.9,"yT1":0,"xT2":1058.1,"yT2":0,"toosoon":0,"cond_shown":"equaldotanddens","ratio_trial":500,"smaller_num":"1","larger_num":"2","correct_side":2,"subjID":"eyleendanielarodriguezacero7","gender":"1","age":"11","school":"sexto"},{"start_time":1551887751504,"click_time":1551887752410,"finger_time":1551887752331,"fix_duration":250,"trial":37,"RT":827,"MT":79,"sideResp":1,"stimulus":"img/750/equaldotanddens/L/1_Ratio_750_L_20_R_15.png","xmouse":[767,767,767,767,767,767,767,768,768,768,768,768,768,768,767,766,766,766,766,766,766,766,766,766,766,766,766,766,766,766,766,766,766,766,766,764,762,759,753,751,749,717,674,503,481,474],"ymouse":[498,498,498,498,499,500,500,502,504,506,508,509,513,521,524,525,525,525,525,525,525,525,525,525,525,525,525,525,525,525,525,525,525,525,525,520,516,510,499,497,493,457,390,137,105,93],"timestamp_mouse":[9,26,47,68,87,106,126,147,167,188,206,226,246,267,287,307,326,346,366,386,407,428,446,468,487,506,526,546,567,586,606,627,648,666,687,706,727,746,766,787,806,827,846,866,886,906],"xSR":741.5,"ySR":469.95,"xT1":424.9,"yT1":0,"xT2":1058.1,"yT2":0,"toosoon":0,"cond_shown":"equaldotanddens","ratio_trial":750,"smaller_num":"15","larger_num":"20","correct_side":1,"subjID":"eyleendanielarodriguezacero7","gender":"1","age":"11","school":"sexto"},{"start_time":1551887754591,"click_time":1551887755790,"finger_time":1551887755372,"fix_duration":917.7129673083176,"trial":38,"RT":781,"MT":418,"sideResp":1,"stimulus":"img/900/randomdotsizeEA/L/10_Ratio_900_L_20_R_18.png","xmouse":[794,794,794,794,794,794,794,794,794,794,794,794,794,794,794,794,794,794,794,794,794,794,794,794,794,794,794,794,794,794,794,794,794,794,794,794,794,793,792,775,763,753,744,736,728,714,701,686,670,641,632,623,609,594,578,575,570,564,551,530,523],"ymouse":[507,507,507,507,507,507,507,507,507,507,507,507,507,507,507,507,507,507,507,507,507,507,507,507,507,507,507,507,507,507,507,507,507,507,507,507,506,504,500,468,451,432,414,393,343,308,284,263,242,202,189,176,157,141,129,126,122,117,104,84,79],"timestamp_mouse":[1,28,40,60,80,101,119,140,161,181,199,219,239,259,279,299,321,339,359,379,399,420,441,459,479,500,520,540,559,580,601,619,640,660,680,699,720,739,760,781,800,819,840,859,879,899,920,940,959,979,999,1019,1039,1059,1079,1099,1119,1140,1160,1179,1199],"xSR":741.5,"ySR":469.95,"xT1":424.9,"yT1":0,"xT2":1058.1,"yT2":0,"toosoon":0,"cond_shown":"randomdotsizeEA","ratio_trial":900,"smaller_num":"18","larger_num":"20","correct_side":1,"subjID":"eyleendanielarodriguezacero7","gender":"1","age":"11","school":"sexto"},{"start_time":1551887758017,"click_time":1551887760631,"finger_time":1551887758791,"fix_duration":1065.9527859299885,"trial":39,"RT":774,"MT":1840,"sideResp":1,"stimulus":"img/750/randomdotsizeEA/L/1_Ratio_750_L_20_R_15.png","xmouse":[787,787,787,787,787,787,787,787,787,787,787,787,787,787,787,787,787,787,788,788,788,788,788,788,788,788,788,788,788,788,788,788,788,788,791,792,795,796,796,791,783,773,755,749,746,745,743,743,742,742,742,742,740,738,736,732,724,696,681,664,647,628,604,598,595,591,585,572,569,565,563,557,552,550,548,547,546,545,544,544,542,542,541,540,540,540,540,539,539,538,537,536,536,536,536,534,533,531,531,531,530,530,530,530,530,529,529,527,526,526,526,526,526,525,525,525,525,525,525,525,525,525,525,525,525,525,525,525,525,525,524],"ymouse":[503,503,503,503,503,503,503,503,503,503,503,503,503,503,503,503,503,503,503,503,503,503,503,503,503,503,503,503,503,503,503,503,503,503,503,503,500,482,469,456,437,415,381,370,365,361,358,355,354,353,352,351,344,339,333,326,314,279,262,246,231,219,202,198,195,190,182,164,161,155,152,142,135,131,128,125,124,123,121,119,118,116,114,113,113,112,111,110,109,107,106,105,105,105,104,102,101,99,99,99,98,98,98,98,98,98,98,97,96,96,96,96,96,96,96,96,96,96,96,96,96,96,96,96,96,96,96,96,96,96,96],"timestamp_mouse":[14,37,54,74,94,114,133,153,173,193,214,233,253,273,294,313,333,355,374,393,413,434,453,475,494,513,534,553,574,595,613,634,653,673,694,714,733,753,774,793,813,833,854,873,893,913,933,953,975,993,1013,1033,1053,1074,1094,1113,1133,1153,1174,1195,1213,1233,1254,1274,1294,1314,1335,1354,1374,1393,1413,1435,1453,1473,1493,1513,1534,1553,1573,1593,1614,1634,1653,1674,1694,1713,1734,1754,1773,1794,1813,1834,1853,1873,1893,1914,1934,1953,1973,1993,2013,2033,2054,2073,2093,2114,2134,2154,2174,2193,2213,2233,2253,2275,2294,2315,2334,2353,2373,2394,2413,2433,2454,2474,2494,2514,2533,2554,2573,2593,2614],"xSR":741.5,"ySR":469.95,"xT1":424.9,"yT1":0,"xT2":1058.1,"yT2":0,"toosoon":0,"cond_shown":"randomdotsizeEA","ratio_trial":750,"smaller_num":"15","larger_num":"20","correct_side":1,"subjID":"eyleendanielarodriguezacero7","gender":"1","age":"11","school":"sexto"},{"start_time":1551887768600,"click_time":1551887769932,"finger_time":1551887769490,"fix_duration":907.7479901878166,"trial":40,"RT":890,"MT":442,"sideResp":1,"stimulus":"img/250/randomdotsizeEA/L/5_Ratio_250_L_24_R_6.png","xmouse":[802,802,802,802,802,802,803,803,804,804,804,804,804,804,804,804,804,804,804,804,804,804,804,804,804,804,804,804,804,804,804,804,804,804,804,804,804,804,804,804,804,804,804,804,804,803,796,785,744,729,713,700,685,648,630,618,601,594,552,534,513,501,495,492,489,485,479],"ymouse":[475,475,475,475,475,475,474,473,472,472,472,472,472,472,472,472,472,472,472,472,472,472,472,472,472,472,472,472,472,472,472,472,472,472,472,472,472,472,472,472,472,472,472,472,467,461,447,424,360,342,325,312,298,266,249,238,218,210,167,150,138,130,125,121,115,105,94],"timestamp_mouse":[10,30,50,70,91,110,131,151,172,191,210,230,250,270,290,310,331,351,371,391,412,430,450,470,492,512,530,550,570,590,611,631,652,671,691,710,732,750,771,791,812,830,850,871,890,911,930,951,970,991,1011,1030,1050,1071,1090,1112,1130,1150,1170,1190,1210,1232,1250,1270,1290,1312,1332],"xSR":741.5,"ySR":469.95,"xT1":424.9,"yT1":0,"xT2":1058.1,"yT2":0,"toosoon":0,"cond_shown":"randomdotsizeEA","ratio_trial":250,"smaller_num":"6","larger_num":"24","correct_side":1,"subjID":"eyleendanielarodriguezacero7","gender":"1","age":"11","school":"sexto"},{"start_time":1551887771894,"click_time":1551887773050,"finger_time":1551887772051,"fix_duration":1363.4483420950403,"trial":41,"RT":157,"MT":999,"sideResp":2,"stimulus":"img/250/equaldotanddens/R/8_Ratio_250_L_1_R_4.png","xmouse":[835,835,835,835,835,838,839,845,846,846,846,846,846,846,846,846,846,846,846,846,846,846,846,846,846,846,846,846,846,846,846,846,846,846,846,846,846,849,858,887,921,943,1000,1019,1023,1025,1027,1028,1028,1028,1028,1028,1028,1030,1039,1048,1056,1066],"ymouse":[536,536,536,536,536,536,535,531,530,530,530,530,530,530,530,530,530,530,530,530,530,530,530,530,530,530,530,530,530,530,530,530,530,530,530,530,530,522,476,404,338,296,186,145,127,114,100,91,70,67,65,65,65,65,69,73,75,78],"timestamp_mouse":[16,36,57,76,96,117,137,157,176,197,216,237,256,276,296,318,336,357,376,396,418,436,458,476,497,516,536,557,576,597,617,637,657,677,698,717,736,756,776,798,816,836,858,876,896,916,937,956,976,998,1016,1037,1057,1076,1097,1116,1137,1156],"xSR":741.5,"ySR":469.95,"xT1":424.9,"yT1":0,"xT2":1058.1,"yT2":0,"toosoon":0,"cond_shown":"equaldotanddens","ratio_trial":250,"smaller_num":"1","larger_num":"4","correct_side":2,"subjID":"eyleendanielarodriguezacero7","gender":"1","age":"11","school":"sexto"},{"start_time":1551887775231,"click_time":1551887776590,"finger_time":1551887776090,"fix_duration":1300.3659879469533,"trial":42,"RT":859,"MT":500,"sideResp":1,"stimulus":"img/500/equaldotsize/L/4_Ratio_500_L_18_R_9.png","xmouse":[784,784,784,784,784,784,784,784,784,784,784,784,784,784,784,784,784,784,784,784,784,784,784,784,784,784,784,784,784,784,774,771,770,769,769,769,769,769,769,769,769,758,745,726,703,694,677,666,658,652,648,633,620,607,592,587,582,582,582,580,574,569,561,551,541,535,528,524],"ymouse":[525,525,525,525,525,525,525,525,525,525,525,525,525,525,525,525,525,525,525,525,525,525,525,525,525,525,525,525,525,525,526,526,526,526,526,526,526,526,526,525,522,489,468,432,380,357,318,297,285,277,273,253,231,200,163,132,103,99,97,96,89,84,77,68,59,55,51,50],"timestamp_mouse":[21,40,59,79,101,120,141,160,180,199,219,240,259,280,299,320,340,359,380,400,420,439,459,480,500,519,539,559,579,600,620,639,660,679,699,719,739,761,779,800,820,839,859,880,899,920,939,960,979,999,1019,1040,1059,1080,1100,1119,1140,1160,1179,1199,1221,1239,1259,1291,1299,1320,1340,1359],"xSR":741.5,"ySR":469.95,"xT1":424.9,"yT1":0,"xT2":1058.1,"yT2":0,"toosoon":0,"cond_shown":"equaldotsize","ratio_trial":500,"smaller_num":"9","larger_num":"18","correct_side":1,"subjID":"eyleendanielarodriguezacero7","gender":"1","age":"11","school":"sexto"},{"start_time":1551887778160,"click_time":1551887779570,"finger_time":1551887779250,"fix_duration":688.0555005236827,"trial":43,"RT":1090,"MT":320,"sideResp":1,"stimulus":"img/250/randomdotsizeEA/L/2_Ratio_250_L_16_R_4.png","xmouse":[790,790,790,790,790,790,790,790,790,790,790,790,790,790,790,790,790,790,790,790,790,790,790,790,790,790,790,790,790,790,790,790,790,790,790,790,790,790,790,790,790,790,790,790,790,790,790,791,791,792,792,792,794,799,803,809,810,810,809,804,786,776,762,738,708,613,573,550,535,524,515],"ymouse":[530,530,530,530,530,530,530,530,530,530,530,530,530,530,530,530,530,530,530,530,530,530,530,530,530,530,530,530,530,530,530,530,530,530,530,530,530,530,530,530,530,530,530,530,530,530,521,516,513,511,505,501,494,482,466,422,404,386,369,353,322,309,293,273,247,174,146,130,119,109,97],"timestamp_mouse":[11,35,50,70,91,112,131,150,170,190,211,232,251,271,290,310,331,350,370,392,411,432,450,471,492,511,531,550,571,590,611,632,651,671,690,711,730,751,770,790,810,830,850,870,890,911,930,952,971,990,1010,1030,1051,1070,1090,1111,1130,1152,1172,1190,1211,1231,1250,1270,1290,1310,1330,1351,1371,1392,1410],"xSR":741.5,"ySR":469.95,"xT1":424.9,"yT1":0,"xT2":1058.1,"yT2":0,"toosoon":0,"cond_shown":"randomdotsizeEA","ratio_trial":250,"smaller_num":"4","larger_num":"16","correct_side":1,"subjID":"eyleendanielarodriguezacero7","gender":"1","age":"11","school":"sexto"},{"start_time":1551887784469,"click_time":1551887787012,"finger_time":1551887785251,"fix_duration":1116.5458714059716,"trial":44,"RT":782,"MT":1761,"sideResp":2,"stimulus":"img/500/equaldotsize/R/15_Ratio_500_L_1_R_2.png","xmouse":[781,781,781,781,781,781,781,781,781,781,781,781,781,781,781,781,781,781,781,781,781,781,781,781,781,781,781,781,781,781,781,781,781,784,785,788,790,794,799,804,808,813,817,821,829,835,839,845,848,852,854,858,867,877,888,916,925,930,934,937,944,948,952,959,969,977,977,977,975,973,971,971,971,971,971,971,971,971,971,971,971,971,971,971,971,982,998,1019,1041,1060,1086,1091,1096,1098,1103,1107,1108,1110,1113,1118,1120,1121,1121,1121,1123,1126,1126,1130,1131,1132,1134,1134,1134,1134,1134,1134,1134,1134,1134,1134,1134,1134,1134,1134,1134,1134,1134,1135],"ymouse":[538,538,538,538,538,538,538,538,538,538,538,538,538,538,538,538,538,538,538,538,538,538,538,538,538,538,538,538,538,538,538,538,538,537,536,526,516,500,479,444,430,416,404,393,371,357,342,331,327,321,319,316,310,303,297,280,274,272,269,268,263,262,259,256,252,242,242,241,241,241,241,241,241,241,241,241,241,241,241,241,241,241,241,241,241,235,228,220,211,202,181,170,160,155,144,134,131,126,117,110,105,104,104,103,103,102,102,101,101,101,100,100,100,100,100,100,100,100,100,100,100,100,100,100,100,100,100,96],"timestamp_mouse":[9,21,41,61,82,102,121,141,163,182,202,223,241,261,282,301,321,343,361,381,403,422,441,462,483,501,521,541,563,582,601,622,641,663,681,701,721,742,761,782,801,822,842,861,882,901,922,941,961,983,1001,1021,1042,1063,1082,1101,1121,1141,1162,1181,1201,1221,1242,1262,1282,1301,1321,1343,1361,1382,1401,1422,1441,1461,1482,1501,1522,1542,1562,1582,1602,1621,1641,1661,1683,1701,1722,1742,1761,1781,1802,1821,1842,1861,1882,1901,1921,1941,1961,1981,2003,2021,2041,2062,2083,2101,2122,2141,2161,2182,2201,2222,2242,2262,2282,2301,2321,2343,2363,2381,2401,2421,2441,2461,2481,2503,2522,2543],"xSR":741.5,"ySR":469.95,"xT1":424.9,"yT1":0,"xT2":1058.1,"yT2":0,"toosoon":0,"cond_shown":"equaldotsize","ratio_trial":500,"smaller_num":"1","larger_num":"2","correct_side":2,"subjID":"eyleendanielarodriguezacero7","gender":"1","age":"11","school":"sexto"},{"start_time":1551887807089,"click_time":1551887808070,"finger_time":1551887807770,"fix_duration":436.48487596704456,"trial":45,"RT":681,"MT":300,"sideResp":1,"stimulus":"img/500/equaldotanddens/L/4_Ratio_500_L_18_R_9.png","xmouse":[773,773,773,773,773,773,773,773,773,773,773,773,773,773,773,773,773,773,773,773,773,773,773,773,773,773,773,773,773,773,772,770,766,754,739,733,725,711,696,679,677,674,672,669,646,625,588,552,534,513],"ymouse":[552,552,552,552,552,552,552,552,552,552,552,552,552,552,552,552,552,552,552,552,552,552,552,552,552,552,552,552,552,552,552,552,552,539,508,476,429,378,343,305,301,293,287,282,252,230,182,133,112,84],"timestamp_mouse":[8,22,42,62,83,101,122,141,161,182,202,221,242,262,282,302,321,341,361,381,401,421,441,461,483,501,523,542,561,581,602,622,641,662,681,702,723,742,762,782,802,821,841,861,881,902,921,941,962,981],"xSR":741.5,"ySR":469.95,"xT1":424.9,"yT1":0,"xT2":1058.1,"yT2":0,"toosoon":0,"cond_shown":"equaldotanddens","ratio_trial":500,"smaller_num":"9","larger_num":"18","correct_side":1,"subjID":"eyleendanielarodriguezacero7","gender":"1","age":"11","school":"sexto"},{"start_time":1551887810645,"click_time":1551887811750,"finger_time":1551887811390,"fix_duration":1433.199240299511,"trial":46,"RT":745,"MT":360,"sideResp":2,"stimulus":"img/500/equaldotanddens/R/2_Ratio_500_L_3_R_6.png","xmouse":[823,823,823,823,823,823,823,823,823,823,823,823,823,823,823,823,823,823,823,823,823,823,823,823,823,823,823,823,823,820,818,814,811,810,809,808,835,900,966,996,1016,1016,1014,1013,1013,1036,1044,1051,1056,1061,1069,1076,1087,1102,1116,1123],"ymouse":[550,550,550,550,550,550,550,550,550,550,550,550,550,550,550,550,550,550,550,550,550,550,550,550,550,550,550,550,550,551,553,554,555,555,555,555,535,514,495,476,430,418,406,392,376,329,307,287,266,246,204,181,157,135,115,99],"timestamp_mouse":[10,33,45,67,86,105,126,145,165,187,205,226,246,265,285,305,325,345,365,386,405,425,445,465,486,506,526,545,566,585,606,626,645,666,686,707,725,745,766,785,807,825,846,865,885,907,925,945,967,985,1006,1025,1046,1065,1086,1105],"xSR":741.5,"ySR":469.95,"xT1":424.9,"yT1":0,"xT2":1058.1,"yT2":0,"toosoon":0,"cond_shown":"equaldotanddens","ratio_trial":500,"smaller_num":"3","larger_num":"6","correct_side":2,"subjID":"eyleendanielarodriguezacero7","gender":"1","age":"11","school":"sexto"},{"start_time":1551887813575,"click_time":1551887814712,"finger_time":1551887814332,"fix_duration":1142.5850078717565,"trial":47,"RT":757,"MT":380,"sideResp":1,"stimulus":"img/900/equaldotanddens/R/15_Ratio_900_L_9_R_10.png","xmouse":[786,787,787,787,787,788,788,788,789,789,789,789,789,789,789,789,789,789,789,790,790,790,790,790,790,790,790,790,790,790,790,790,790,789,783,770,754,731,708,667,658,652,649,646,643,639,633,619,599,518,489,471,462,458,457,457,457],"ymouse":[560,560,560,560,560,559,559,558,556,556,556,556,556,556,556,556,556,556,556,555,554,554,554,554,554,554,554,554,554,554,554,553,552,545,535,516,492,461,430,373,360,349,343,332,327,320,311,296,276,209,185,167,155,141,115,104,96],"timestamp_mouse":[15,37,56,77,95,116,136,155,176,195,216,235,256,275,295,315,335,355,376,397,415,435,455,475,497,516,536,556,575,597,616,636,656,677,695,716,737,757,775,796,816,835,856,877,895,916,935,956,975,995,1016,1037,1056,1075,1096,1115,1137],"xSR":741.5,"ySR":469.95,"xT1":424.9,"yT1":0,"xT2":1058.1,"yT2":0,"toosoon":0,"cond_shown":"equaldotanddens","ratio_trial":900,"smaller_num":"9","larger_num":"10","correct_side":2,"subjID":"eyleendanielarodriguezacero7","gender":"1","age":"11","school":"sexto"},{"start_time":1551887815824,"click_time":1551887817091,"finger_time":1551887816651,"fix_duration":250,"trial":48,"RT":827,"MT":440,"sideResp":1,"stimulus":"img/750/equaldotsize/L/9_Ratio_750_L_4_R_3.png","xmouse":[753,753,753,753,753,753,753,753,753,753,753,753,753,753,753,753,753,753,753,753,753,753,753,753,753,753,753,753,753,753,753,753,753,753,753,753,753,757,761,773,809,853,859,861,861,861,861,852,833,796,762,693,666,646,632,616,601,566,549,541,538,538,533,524],"ymouse":[552,552,552,552,552,552,552,552,552,552,552,552,552,552,552,552,552,552,552,552,552,552,552,552,552,552,552,552,552,552,552,552,552,552,552,552,552,541,526,506,476,439,433,431,431,431,431,427,414,386,359,295,261,231,198,165,137,83,64,55,49,46,37,31],"timestamp_mouse":[10,27,46,66,87,106,126,147,166,186,206,226,246,266,286,306,326,346,368,388,406,427,446,467,487,506,527,547,568,586,606,627,646,666,687,706,727,747,767,787,807,827,846,867,887,908,926,946,966,987,1007,1028,1046,1066,1087,1106,1127,1148,1166,1186,1207,1228,1247,1267],"xSR":741.5,"ySR":469.95,"xT1":424.9,"yT1":0,"xT2":1058.1,"yT2":0,"toosoon":0,"cond_shown":"equaldotsize","ratio_trial":750,"smaller_num":"3","larger_num":"4","correct_side":1,"subjID":"eyleendanielarodriguezacero7","gender":"1","age":"11","school":"sexto"},{"start_time":1551887819905,"click_time":1551887820930,"finger_time":1551887820732,"fix_duration":692.4430148475749,"trial":49,"RT":827,"MT":198,"sideResp":1,"stimulus":"img/750/randomdotsizeEA/R/15_Ratio_750_L_9_R_12.png","xmouse":[812,812,812,812,812,812,812,812,812,812,812,812,812,812,812,812,812,812,812,812,812,812,812,812,812,812,812,812,812,812,812,812,812,812,812,812,812,812,809,799,779,724,652,548,529,517,508,497,481,476,472,471],"ymouse":[534,534,534,534,534,534,534,534,534,534,534,534,534,534,534,534,534,534,534,534,534,534,534,534,534,534,534,534,534,534,534,534,534,534,534,534,534,534,532,523,497,444,386,252,222,204,182,156,124,112,102,95],"timestamp_mouse":[8,33,45,65,85,106,125,146,166,187,206,225,247,265,287,306,326,347,366,386,406,427,445,465,487,505,525,545,565,585,605,626,645,667,685,706,726,747,765,786,806,827,846,866,886,905,927,945,966,985,1005,1025],"xSR":741.5,"ySR":469.95,"xT1":424.9,"yT1":0,"xT2":1058.1,"yT2":0,"toosoon":0,"cond_shown":"randomdotsizeEA","ratio_trial":750,"smaller_num":"9","larger_num":"12","correct_side":2,"subjID":"eyleendanielarodriguezacero7","gender":"1","age":"11","school":"sexto"},{"start_time":1551887823223,"click_time":1551887824150,"finger_time":1551887823810,"fix_duration":1469.4020647389282,"trial":50,"RT":587,"MT":340,"sideResp":2,"stimulus":"img/250/equaldotanddens/R/9_Ratio_250_L_3_R_12.png","xmouse":[754,754,754,754,754,754,754,754,754,754,754,754,754,754,754,754,754,754,754,754,754,754,754,754,754,754,754,759,780,816,854,929,943,958,973,987,1000,1028,1039,1050,1059,1071,1091,1096,1102,1106,1111],"ymouse":[497,497,497,497,497,497,497,497,497,497,497,497,497,497,497,497,497,497,497,497,497,497,497,497,497,497,497,497,484,458,435,379,363,343,323,306,292,251,232,213,194,176,147,133,120,110,98],"timestamp_mouse":[16,33,47,67,89,108,128,148,167,187,209,228,248,267,287,307,327,347,369,387,407,428,448,467,488,507,528,548,567,587,608,629,648,667,687,709,727,748,767,787,808,828,848,867,888,907,927],"xSR":741.5,"ySR":469.95,"xT1":424.9,"yT1":0,"xT2":1058.1,"yT2":0,"toosoon":0,"cond_shown":"equaldotanddens","ratio_trial":250,"smaller_num":"3","larger_num":"12","correct_side":2,"subjID":"eyleendanielarodriguezacero7","gender":"1","age":"11","school":"sexto"},{"start_time":1551887826338,"click_time":1551887827370,"finger_time":1551887827070,"fix_duration":965.8338112633584,"trial":51,"RT":732,"MT":300,"sideResp":1,"stimulus":"img/500/equaldotsize/L/13_Ratio_500_L_12_R_6.png","xmouse":[819,819,819,819,819,819,819,819,819,819,819,819,819,819,819,819,819,819,819,819,819,819,819,819,819,819,819,819,819,819,819,819,819,819,819,817,798,769,742,721,708,683,670,655,640,605,589,571,557,544,533,495],"ymouse":[512,512,512,512,512,512,512,512,512,512,512,512,512,512,512,512,512,512,512,512,512,512,512,512,512,512,512,512,512,512,512,512,512,512,512,499,437,377,329,295,275,228,205,183,162,121,103,88,77,68,62,51],"timestamp_mouse":[13,34,54,73,92,113,133,152,174,192,212,232,252,272,292,312,333,352,374,392,412,433,452,474,492,512,533,553,574,593,613,634,653,674,693,713,732,753,773,793,813,833,852,872,893,914,933,953,972,992,1012,1032],"xSR":741.5,"ySR":469.95,"xT1":424.9,"yT1":0,"xT2":1058.1,"yT2":0,"toosoon":0,"cond_shown":"equaldotsize","ratio_trial":500,"smaller_num":"6","larger_num":"12","correct_side":1,"subjID":"eyleendanielarodriguezacero7","gender":"1","age":"11","school":"sexto"},{"start_time":1551887829131,"click_time":1551887830452,"finger_time":1551887830190,"fix_duration":1219.4535532371895,"trial":52,"RT":1059,"MT":262,"sideResp":1,"stimulus":"img/900/randomdotsizeEA/R/13_Ratio_900_L_18_R_20.png","xmouse":[831,831,831,831,831,831,831,831,831,831,831,831,831,831,831,831,831,831,831,831,831,831,831,831,831,831,831,831,831,831,831,831,831,831,831,831,831,831,831,831,831,831,831,831,831,831,830,820,814,809,803,783,767,748,709,670,634,582,563,548,538,522,513,508,504,500,490],"ymouse":[520,520,520,520,520,520,520,520,520,520,520,520,520,520,520,520,520,520,520,520,520,520,520,520,520,520,520,520,520,520,520,520,520,520,520,520,520,520,520,520,520,520,520,520,520,520,521,521,521,521,518,500,483,460,414,375,341,286,262,240,223,194,171,156,139,120,87],"timestamp_mouse":[1,20,39,59,80,100,121,140,160,179,200,219,240,259,280,299,320,339,359,380,400,419,440,459,480,499,519,539,559,579,599,620,640,659,679,699,720,739,761,779,800,821,839,859,880,901,920,939,960,980,999,1020,1040,1059,1079,1100,1119,1140,1159,1179,1199,1221,1239,1259,1281,1301,1321],"xSR":741.5,"ySR":469.95,"xT1":424.9,"yT1":0,"xT2":1058.1,"yT2":0,"toosoon":0,"cond_shown":"randomdotsizeEA","ratio_trial":900,"smaller_num":"18","larger_num":"20","correct_side":2,"subjID":"eyleendanielarodriguezacero7","gender":"1","age":"11","school":"sexto"},{"start_time":1551887832162,"click_time":1551887833952,"finger_time":1551887832852,"fix_duration":989.5280349290725,"trial":53,"RT":690,"MT":1100,"sideResp":2,"stimulus":"img/250/equaldotsize/R/6_Ratio_250_L_6_R_24.png","xmouse":[765,765,765,765,765,765,765,765,765,765,765,765,765,765,765,765,765,765,765,765,765,765,765,765,765,765,765,765,765,765,765,775,799,839,937,956,967,973,976,981,994,1000,1007,1014,1030,1043,1054,1063,1071,1077,1084,1088,1090,1090,1090,1090,1090,1090,1091,1091,1091,1091,1091,1091,1090,1090,1091,1091,1091,1092,1093,1094,1094,1094,1094,1096,1096,1096,1096,1096,1096,1096,1096,1096,1096,1096,1096,1096,1097,1101],"ymouse":[531,531,531,531,531,531,531,531,531,531,531,531,531,531,531,531,531,531,531,531,531,531,531,531,531,531,531,531,531,531,531,527,509,475,408,394,384,378,370,358,325,313,301,287,256,232,212,195,178,159,134,121,115,111,109,109,109,108,108,108,108,108,112,116,120,120,119,118,115,113,110,109,108,105,103,101,101,101,101,101,101,101,101,101,101,101,101,101,100,96],"timestamp_mouse":[9,34,48,69,88,108,129,148,168,189,209,228,248,268,288,309,328,349,368,389,408,429,449,468,488,508,528,548,568,588,609,629,648,669,690,709,728,749,769,789,808,829,848,870,890,909,928,948,968,989,1008,1028,1050,1068,1088,1108,1128,1148,1169,1188,1208,1229,1248,1268,1289,1309,1329,1349,1369,1390,1409,1429,1448,1470,1489,1510,1528,1548,1568,1588,1609,1629,1648,1669,1689,1709,1728,1749,1768,1790],"xSR":741.5,"ySR":469.95,"xT1":424.9,"yT1":0,"xT2":1058.1,"yT2":0,"toosoon":0,"cond_shown":"equaldotsize","ratio_trial":250,"smaller_num":"6","larger_num":"24","correct_side":2,"subjID":"eyleendanielarodriguezacero7","gender":"1","age":"11","school":"sexto"},{"start_time":1551887835737,"click_time":1551887836870,"finger_time":1551887836550,"fix_duration":904.0242228987678,"trial":54,"RT":813,"MT":320,"sideResp":1,"stimulus":"img/900/equaldotsize/L/8_Ratio_900_L_20_R_18.png","xmouse":[821,821,821,821,821,821,821,821,821,821,821,821,821,821,821,821,821,821,821,821,821,821,821,821,821,821,821,821,821,821,821,821,821,821,821,821,821,821,820,817,809,785,765,742,719,667,642,625,605,588,555,541,522,500,485,478,467],"ymouse":[501,501,501,501,501,501,501,501,501,501,501,501,501,501,501,501,501,501,501,501,501,501,501,501,501,501,501,501,501,501,501,501,501,501,501,501,501,501,493,484,461,419,392,365,338,284,257,238,219,204,177,167,150,128,110,100,72],"timestamp_mouse":[15,35,53,74,93,113,135,153,174,195,213,234,255,273,294,315,334,354,374,393,414,433,454,473,495,513,534,553,574,593,614,634,654,674,694,714,733,754,774,794,813,834,853,873,893,915,933,954,974,994,1015,1033,1053,1074,1094,1113,1133],"xSR":741.5,"ySR":469.95,"xT1":424.9,"yT1":0,"xT2":1058.1,"yT2":0,"toosoon":0,"cond_shown":"equaldotsize","ratio_trial":900,"smaller_num":"18","larger_num":"20","correct_side":1,"subjID":"eyleendanielarodriguezacero7","gender":"1","age":"11","school":"sexto"},{"start_time":1551887840441,"click_time":1551887841591,"finger_time":1551887841352,"fix_duration":328.2772738156924,"trial":55,"RT":911,"MT":239,"sideResp":2,"stimulus":"img/900/equaldotanddens/R/12_Ratio_900_L_18_R_20.png","xmouse":[807,807,807,807,807,807,807,807,807,807,807,807,807,807,807,807,807,807,807,807,807,807,807,807,807,807,807,807,807,807,807,807,807,807,807,807,807,807,807,807,807,807,814,822,841,867,957,977,995,1009,1029,1034,1040,1046,1056,1069,1107,1117],"ymouse":[558,558,558,558,558,558,558,558,558,558,558,558,558,558,558,558,558,558,558,558,558,558,558,558,558,558,558,558,558,558,558,558,558,558,558,558,558,558,558,558,558,558,545,534,509,480,387,361,339,318,277,261,244,225,203,178,111,91],"timestamp_mouse":[11,38,49,70,90,110,131,149,169,190,210,230,250,269,291,311,329,349,369,390,409,430,451,470,489,509,530,549,569,589,610,631,649,670,690,710,731,750,770,790,810,829,850,869,890,911,930,949,971,991,1010,1029,1049,1070,1091,1111,1130,1150],"xSR":741.5,"ySR":469.95,"xT1":424.9,"yT1":0,"xT2":1058.1,"yT2":0,"toosoon":0,"cond_shown":"equaldotanddens","ratio_trial":900,"smaller_num":"18","larger_num":"20","correct_side":2,"subjID":"eyleendanielarodriguezacero7","gender":"1","age":"11","school":"sexto"},{"start_time":1551887851590,"click_time":1551887852652,"finger_time":1551887852470,"fix_duration":1358.1501520381373,"trial":56,"RT":880,"MT":182,"sideResp":2,"stimulus":"img/900/equaldotsize/L/10_Ratio_900_L_20_R_18.png","xmouse":[821,821,821,821,821,821,821,821,821,821,821,821,821,821,821,821,821,821,821,821,821,821,821,821,821,821,821,821,821,821,821,821,821,821,821,821,821,821,821,821,821,821,827,833,892,914,937,968,974,999,1008,1018,1032,1069],"ymouse":[522,522,522,522,522,522,522,522,522,522,522,522,522,522,522,522,522,522,522,522,522,522,522,522,522,522,522,522,522,522,522,522,522,522,522,522,522,522,522,522,522,522,509,498,400,358,304,249,238,181,162,143,121,71],"timestamp_mouse":[9,28,42,60,80,100,120,141,160,180,200,220,241,261,280,300,321,340,360,380,400,420,440,460,480,501,520,541,560,580,600,620,641,660,680,700,720,742,761,781,801,821,841,861,880,900,920,941,960,981,1001,1022,1041,1062],"xSR":741.5,"ySR":469.95,"xT1":424.9,"yT1":0,"xT2":1058.1,"yT2":0,"toosoon":0,"cond_shown":"equaldotsize","ratio_trial":900,"smaller_num":"18","larger_num":"20","correct_side":1,"subjID":"eyleendanielarodriguezacero7","gender":"1","age":"11","school":"sexto"},{"start_time":1551887855055,"click_time":1551887855751,"finger_time":1551887855570,"fix_duration":1442.221722317312,"trial":57,"RT":515,"MT":181,"sideResp":2,"stimulus":"img/250/equaldotsize/R/6_Ratio_250_L_6_R_24.png","xmouse":[788,788,788,788,788,788,788,788,788,788,788,788,788,788,788,788,788,788,788,788,788,788,788,788,788,831,894,964,1026,1064,1089,1096,1101,1105,1113],"ymouse":[508,508,508,508,508,508,508,508,508,508,508,508,508,508,508,508,508,508,508,508,508,508,508,508,506,454,382,303,236,195,155,140,129,115,92],"timestamp_mouse":[32,36,56,75,95,115,135,155,176,196,216,236,255,277,296,315,336,355,376,395,415,435,455,476,496,515,535,556,577,595,615,636,657,676,696],"xSR":741.5,"ySR":469.95,"xT1":424.9,"yT1":0,"xT2":1058.1,"yT2":0,"toosoon":0,"cond_shown":"equaldotsize","ratio_trial":250,"smaller_num":"6","larger_num":"24","correct_side":2,"subjID":"eyleendanielarodriguezacero7","gender":"1","age":"11","school":"sexto"},{"start_time":1551887857910,"click_time":1551887859090,"finger_time":1551887858771,"fix_duration":1256.411751395645,"trial":58,"RT":861,"MT":319,"sideResp":2,"stimulus":"img/500/equaldotsize/R/2_Ratio_500_L_3_R_6.png","xmouse":[827,827,827,827,827,827,827,827,827,827,827,827,827,827,827,827,827,827,827,827,827,827,827,827,827,827,827,827,827,827,827,827,827,827,827,827,827,827,827,827,827,827,827,841,884,956,1041,1160,1174,1178,1179,1180,1182,1185,1185,1185,1185,1184,1171,1151],"ymouse":[471,471,471,471,471,471,471,471,471,471,471,471,471,471,471,471,471,471,471,471,471,471,471,471,471,471,471,471,471,471,471,471,471,471,471,471,471,471,471,471,471,471,471,449,389,312,230,126,111,103,99,95,90,65,56,49,47,47,47,51],"timestamp_mouse":[8,20,40,60,81,100,120,141,160,181,200,220,240,261,281,300,322,341,362,381,400,420,440,461,480,501,520,542,560,580,600,621,640,660,680,701,721,740,760,780,800,820,840,861,881,901,920,941,961,981,1001,1021,1040,1061,1080,1101,1121,1141,1160,1180],"xSR":741.5,"ySR":469.95,"xT1":424.9,"yT1":0,"xT2":1058.1,"yT2":0,"toosoon":0,"cond_shown":"equaldotsize","ratio_trial":500,"smaller_num":"3","larger_num":"6","correct_side":2,"subjID":"eyleendanielarodriguezacero7","gender":"1","age":"11","school":"sexto"},{"start_time":1551887861069,"click_time":1551887865510,"finger_time":1551887861950,"fix_duration":1296.8750575843994,"trial":59,"RT":881,"MT":3560,"sideResp":1,"stimulus":"img/250/equaldotsize/L/14_Ratio_250_L_12_R_3.png","xmouse":[802,802,802,802,802,802,802,802,802,802,802,802,802,802,802,802,802,802,802,802,802,802,802,802,802,802,802,802,802,802,802,802,802,802,802,802,802,802,802,802,802,801,798,788,729,620,607,604,602,599,593,582,570,554,536,504,504,504,504,504,504,504,504,504,504,504,504,504,504,504,504,504,504,504,504,504,504,504,504,504,504,504,504,504,504,504,504,504,504,504,504,504,504,504,504,504,504,504,504,504,504,504,506,532,588,788,859,904,942,990,1006,1021,1037,1051,1071,1071,1071,1071,1068,1048,1021,949,870,793,631,606,595,589,581,572,557,551,546,544,544,544,544,544,544,544,545,546,546,546,546,546,546,546,546,546,546,546,546,546,549,552,554,555,555,558,561,561,562,565,575,717,888,1095,1318,1551,1551,1551,1551,1551,1551,1551,1551,1551,1551,1551,1551,1551,1551,1551,1551,1551,1551,1551,1551,1551,1359,1230,1094,991,896,779,702,642,607,590,578,576,576,576,571,567,562,558,553,544,540,538,537,537,537,537,536,531,529,529,527,526,521],"ymouse":[503,503,503,503,503,503,503,503,503,503,503,503,503,503,503,503,503,503,503,503,503,503,503,503,503,503,503,503,503,503,503,503,503,503,503,503,503,503,503,503,500,497,489,476,426,362,352,346,332,313,268,244,220,199,177,145,145,145,145,145,145,145,145,145,145,145,145,145,145,145,145,145,145,145,145,145,145,145,145,145,145,145,145,145,145,145,145,145,145,145,145,145,145,145,145,145,145,145,145,145,145,145,145,155,176,258,289,317,342,380,397,418,443,464,492,492,492,492,488,473,458,417,376,333,242,225,217,213,204,195,171,157,137,123,114,109,107,107,107,106,102,101,100,100,100,100,100,100,100,100,100,100,100,99,99,99,99,99,99,99,99,99,99,99,100,128,186,273,371,496,496,496,496,496,496,496,496,496,496,496,496,496,496,496,496,496,496,496,496,496,627,494,354,255,174,95,54,23,9,6,5,5,5,5,11,15,20,24,30,38,42,47,49,49,49,49,49,48,48,48,48,48,48],"timestamp_mouse":[8,21,41,62,81,101,123,142,163,181,202,221,242,261,281,302,321,342,362,382,401,422,441,461,481,501,521,542,561,582,601,622,641,661,682,701,723,741,761,781,802,823,842,861,881,901,921,943,963,983,1002,1022,1042,1062,1082,1102,1121,1141,1161,1181,1202,1223,1242,1263,1281,1302,1321,1341,1362,1382,1402,1421,1441,1461,1481,1502,1523,1541,1561,1581,1602,1621,1641,1661,1681,1702,1722,1743,1763,1782,1802,1821,1841,1861,1881,1901,1921,1941,1963,1982,2001,2021,2041,2062,2082,2102,2121,2141,2162,2182,2201,2223,2242,2261,2282,2301,2322,2341,2361,2383,2401,2422,2442,2461,2482,2501,2521,2541,2562,2582,2601,2622,2641,2661,2682,2702,2722,2741,2761,2781,2802,2822,2842,2863,2882,2902,2922,2941,2961,2983,3003,3021,3041,3061,3081,3101,3121,3141,3162,3181,3201,3222,3241,3261,3281,3302,3321,3343,3363,3383,3401,3422,3441,3462,3481,3502,3521,3541,3561,3582,3602,3622,3643,3661,3682,3702,3722,3742,3761,3782,3801,3821,3842,3862,3882,3902,3922,3942,3963,3981,4001,4022,4042,4061,4082,4101,4122,4141,4161,4182,4201,4221,4241,4261,4283,4302,4321,4342,4362,4382,4401,4421,4441],"xSR":741.5,"ySR":469.95,"xT1":424.9,"yT1":0,"xT2":1058.1,"yT2":0,"toosoon":0,"cond_shown":"equaldotsize","ratio_trial":250,"smaller_num":"3","larger_num":"12","correct_side":1,"subjID":"eyleendanielarodriguezacero7","gender":"1","age":"11","school":"sexto"},{"start_time":1551887867515,"click_time":1551887868350,"finger_time":1551887868252,"fix_duration":1143.6777916028577,"trial":60,"RT":737,"MT":98,"sideResp":1,"stimulus":"img/250/equaldotsize/L/14_Ratio_250_L_12_R_3.png","xmouse":[813,813,813,813,813,813,813,813,813,813,813,813,813,813,813,813,813,813,814,815,817,819,820,820,820,820,820,820,820,820,820,820,820,820,821,821,808,766,709,635,568,511],"ymouse":[549,549,549,549,549,549,549,549,549,549,549,549,549,549,549,549,549,549,548,546,545,543,542,542,542,542,542,542,542,542,542,542,542,542,537,529,461,392,320,236,163,98],"timestamp_mouse":[17,37,55,75,95,115,136,157,175,196,217,236,255,277,295,316,335,357,376,395,417,436,456,477,496,516,536,555,576,595,615,636,656,675,695,716,737,755,776,796,815,835],"xSR":741.5,"ySR":469.95,"xT1":424.9,"yT1":0,"xT2":1058.1,"yT2":0,"toosoon":0,"cond_shown":"equaldotsize","ratio_trial":250,"smaller_num":"3","larger_num":"12","correct_side":1,"subjID":"eyleendanielarodriguezacero7","gender":"1","age":"11","school":"sexto"},{"start_time":1551887872568,"click_time":1551887873571,"finger_time":1551887873370,"fix_duration":1456.7193891080003,"trial":61,"RT":802,"MT":201,"sideResp":2,"stimulus":"img/750/equaldotsize/R/11_Ratio_750_L_12_R_16.png","xmouse":[798,798,798,798,798,798,798,798,798,798,798,798,798,798,798,798,798,798,798,798,798,798,798,798,798,798,798,798,798,798,798,798,798,798,798,798,799,803,812,829,850,864,875,885,889,913,938,955,976,1032,1090],"ymouse":[523,523,523,523,523,523,523,523,523,523,523,523,523,523,523,523,523,523,523,523,523,523,523,523,523,523,523,523,523,523,523,523,523,523,523,523,522,521,517,505,476,456,423,375,343,257,224,204,180,134,87],"timestamp_mouse":[10,22,44,62,82,103,123,144,162,182,202,222,242,262,282,302,322,342,364,383,402,424,444,462,482,502,522,542,562,582,602,622,642,663,682,702,722,742,762,782,802,822,842,864,884,903,922,942,963,983,1003],"xSR":741.5,"ySR":469.95,"xT1":424.9,"yT1":0,"xT2":1058.1,"yT2":0,"toosoon":0,"cond_shown":"equaldotsize","ratio_trial":750,"smaller_num":"12","larger_num":"16","correct_side":2,"subjID":"eyleendanielarodriguezacero7","gender":"1","age":"11","school":"sexto"},{"start_time":1551887876142,"click_time":1551887877211,"finger_time":1551887876811,"fix_duration":250,"trial":62,"RT":669,"MT":400,"sideResp":2,"stimulus":"img/250/equaldotsize/R/12_Ratio_250_L_5_R_20.png","xmouse":[775,775,775,775,775,775,775,775,775,775,775,775,775,775,775,775,775,775,775,775,775,775,775,775,775,775,775,775,775,775,775,785,821,889,960,1090,1125,1141,1154,1166,1182,1184,1190,1198,1212,1220,1223,1220,1213,1207,1203,1187,1173,1153],"ymouse":[541,541,541,541,541,541,541,541,541,541,541,541,541,541,541,541,541,541,541,541,541,541,541,541,541,541,541,541,541,541,541,540,536,517,494,423,393,372,352,332,282,266,251,232,210,187,150,133,114,103,97,90,83,74],"timestamp_mouse":[9,36,50,68,88,109,128,149,168,190,209,229,249,268,289,309,329,350,368,389,408,428,449,468,489,509,529,549,568,588,609,629,649,669,689,709,729,749,768,788,809,828,849,868,888,909,929,948,968,988,1008,1029,1048,1069],"xSR":741.5,"ySR":469.95,"xT1":424.9,"yT1":0,"xT2":1058.1,"yT2":0,"toosoon":0,"cond_shown":"equaldotsize","ratio_trial":250,"smaller_num":"5","larger_num":"20","correct_side":2,"subjID":"eyleendanielarodriguezacero7","gender":"1","age":"11","school":"sexto"},{"start_time":1551887878303,"click_time":1551887879430,"finger_time":1551887879130,"fix_duration":250,"trial":63,"RT":827,"MT":300,"sideResp":2,"stimulus":"img/250/equaldotanddens/R/4_Ratio_250_L_3_R_12.png","xmouse":[820,820,820,820,820,820,820,820,820,820,820,820,820,820,820,820,820,820,820,820,820,820,820,820,820,820,820,820,820,819,817,813,812,810,810,809,806,805,805,814,838,874,958,1015,1044,1070,1086,1112,1121,1130,1137,1146,1151,1156,1156,1153,1148],"ymouse":[517,517,517,517,517,517,517,517,517,517,517,517,517,517,517,517,517,517,517,517,517,517,517,517,517,517,517,517,517,517,517,518,518,518,518,517,513,513,513,509,498,479,417,361,322,286,262,215,200,184,172,157,144,118,110,100,92],"timestamp_mouse":[21,34,47,68,89,107,127,149,167,187,207,228,249,268,289,307,327,347,367,388,408,428,447,467,487,507,528,547,568,589,609,627,647,668,688,707,729,748,768,787,808,827,848,867,887,909,928,948,967,988,1008,1028,1047,1067,1087,1107,1127],"xSR":741.5,"ySR":469.95,"xT1":424.9,"yT1":0,"xT2":1058.1,"yT2":0,"toosoon":0,"cond_shown":"equaldotanddens","ratio_trial":250,"smaller_num":"3","larger_num":"12","correct_side":2,"subjID":"eyleendanielarodriguezacero7","gender":"1","age":"11","school":"sexto"},{"start_time":1551887881537,"click_time":1551887882651,"finger_time":1551887882331,"fix_duration":1345.1864351000645,"trial":64,"RT":794,"MT":320,"sideResp":1,"stimulus":"img/900/equaldotanddens/L/8_Ratio_900_L_20_R_18.png","xmouse":[771,771,771,771,771,771,771,771,771,771,771,771,771,771,771,771,771,771,771,771,771,771,771,771,771,771,771,771,771,771,771,771,771,771,771,771,771,771,771,768,733,722,713,708,704,699,687,678,669,656,607,586,564,545,526,508],"ymouse":[505,505,505,505,505,505,505,505,505,505,505,505,505,505,505,505,505,505,505,505,505,505,505,505,505,505,505,505,505,505,505,505,505,505,505,505,505,497,489,445,362,344,334,323,313,299,263,244,228,214,175,158,137,117,95,75],"timestamp_mouse":[13,34,54,74,94,114,134,153,174,195,213,234,253,273,294,314,334,354,375,393,413,433,453,474,494,513,534,555,573,593,614,634,653,673,693,714,734,754,773,794,815,833,853,873,893,913,934,955,974,994,1014,1033,1054,1073,1095,1114],"xSR":741.5,"ySR":469.95,"xT1":424.9,"yT1":0,"xT2":1058.1,"yT2":0,"toosoon":0,"cond_shown":"equaldotanddens","ratio_trial":900,"smaller_num":"18","larger_num":"20","correct_side":1,"subjID":"eyleendanielarodriguezacero7","gender":"1","age":"11","school":"sexto"},{"start_time":1551887884689,"click_time":1551887885911,"finger_time":1551887885551,"fix_duration":1398.2357470944514,"trial":65,"RT":862,"MT":360,"sideResp":2,"stimulus":"img/500/randomdotsizeEA/R/12_Ratio_500_L_1_R_2.png","xmouse":[784,784,785,787,787,787,787,787,787,787,787,787,787,787,788,789,789,789,789,789,789,789,789,789,791,791,791,791,791,796,808,817,821,824,824,824,824,824,824,824,824,826,828,871,913,955,993,1028,1059,1105,1125,1141,1155,1166,1183,1186,1188,1188,1188,1171,1161,1150],"ymouse":[501,501,501,501,500,500,500,500,500,500,500,500,500,500,500,500,500,500,500,500,500,500,500,500,500,500,500,500,500,500,500,500,500,500,500,500,500,500,500,500,500,498,498,487,471,446,425,401,379,339,322,307,293,281,250,234,217,197,176,127,109,94],"timestamp_mouse":[8,27,42,62,83,102,121,141,162,183,201,221,241,261,282,301,322,341,361,383,401,422,441,462,482,501,522,541,561,581,601,622,641,662,682,701,721,741,763,782,801,822,842,862,881,901,922,941,961,981,1002,1023,1043,1062,1081,1101,1122,1141,1161,1181,1202,1222],"xSR":741.5,"ySR":469.95,"xT1":424.9,"yT1":0,"xT2":1058.1,"yT2":0,"toosoon":0,"cond_shown":"randomdotsizeEA","ratio_trial":500,"smaller_num":"1","larger_num":"2","correct_side":2,"subjID":"eyleendanielarodriguezacero7","gender":"1","age":"11","school":"sexto"},{"start_time":1551887888046,"click_time":1551887889091,"finger_time":1551887888751,"fix_duration":1293.493838948942,"trial":66,"RT":705,"MT":340,"sideResp":1,"stimulus":"img/250/randomdotsizeEA/L/3_Ratio_250_L_8_R_2.png","xmouse":[826,826,826,826,826,826,826,826,827,827,827,827,827,827,827,827,827,827,827,827,827,827,827,827,827,827,827,827,827,827,827,828,816,784,750,678,668,662,659,657,652,652,650,649,646,639,595,572,556,544,536,511,502],"ymouse":[513,513,513,513,513,513,513,513,513,513,513,513,513,513,513,513,513,513,513,513,513,513,513,513,513,513,513,513,513,513,513,513,509,499,471,311,265,241,223,208,191,185,180,174,166,155,130,126,125,125,122,105,96],"timestamp_mouse":[10,32,44,65,86,104,125,144,165,184,206,226,245,266,285,304,324,344,366,385,405,424,444,466,486,505,526,544,565,586,604,624,645,665,685,705,724,744,764,786,806,825,845,865,884,904,924,944,964,985,1004,1024,1045],"xSR":741.5,"ySR":469.95,"xT1":424.9,"