[{"start_time":1551886998329,"click_time":1551887000495,"finger_time":1551887000155,"fix_duration":647.5368612771442,"trial":0,"RT":1826,"MT":340,"sideResp":2,"stimulus":[],"xmouse":[787,787,787,787,787,787,787,787,787,787,787,787,787,787,787,787,787,787,787,787,787,787,786,786,786,786,786,786,786,786,786,786,786,786,786,786,786,786,786,786,786,786,786,786,786,786,786,786,786,786,786,786,786,786,786,786,786,786,786,786,786,786,786,786,786,786,786,786,786,786,786,786,786,786,786,786,786,786,786,786,786,786,786,786,786,786,786,786,786,786,791,895,936,975,992,1006,1036,1048,1058,1069,1079,1097,1109,1110,1110,1110,1102,1092,1088],"ymouse":[516,516,516,516,516,516,516,516,516,516,516,516,516,516,516,516,516,516,516,516,516,516,516,514,514,514,514,514,514,514,514,514,514,514,514,514,514,514,514,514,514,514,514,514,514,514,514,514,514,514,514,514,514,514,514,514,514,514,514,514,514,514,514,514,514,514,514,514,514,514,514,514,514,514,514,514,514,514,514,514,514,514,514,514,514,514,514,514,514,514,506,433,389,320,288,268,230,215,205,197,189,174,163,160,158,155,135,115,98],"timestamp_mouse":[9,26,46,66,87,106,126,146,167,186,206,226,246,267,286,306,326,346,368,387,406,426,448,466,487,507,527,547,567,587,606,627,647,667,687,707,727,747,767,787,807,827,846,867,887,907,927,947,966,987,1006,1026,1046,1066,1087,1107,1127,1147,1166,1187,1206,1226,1246,1267,1287,1306,1327,1346,1366,1386,1406,1426,1446,1466,1487,1507,1527,1548,1566,1587,1606,1626,1647,1666,1687,1707,1726,1746,1766,1786,1807,1826,1847,1866,1886,1906,1926,1946,1966,1986,2007,2026,2046,2066,2086,2106,2126,2146,2166],"xSR":741.5,"ySR":469.95,"xT1":424.9,"yT1":0,"xT2":1058.1,"yT2":0,"toosoon":0,"cond_shown":"Congruent","ratio_trial":300,"L_num":5,"L_den":25,"R_num":6,"R_den":12,"correct_side":2,"subjID":"eyleendanielarodriguezacero7","gender":"1","age":"11","school":"sexto","test":{"fix_dur":[250,1500],"timestim":1000,"targets_dim":[100,100],"targets_relative_coord":[0.3,0.7],"size_stim":[880,420],"start_dim":[100,100],"size_start":[300,300],"size_fix":60,"samplingrate":20,"img_types":["Congruent","Incongruent"],"ratios":[100,200,300],"rep_conds":19,"nTrials":120,"trials_to_rest":500,"Trials_order":[16,66,118,82,84,60,78,101,69,72,14,65,107,13,49,55,21,8,25,109,10,94,112,1,51,46,15,54,47,29,113,50,39,24,7,76,56,23,110,105,81,80,88,58,95,64,52,20,90,59,79,26,116,34,114,19,61,31,102,111,77,74,30,41,12,119,2,73,33,100,57,71,22,68,18,115,35,9,3,28,106,89,86,91,38,93,42,6,32,4,62,92,53,17,98,43,40,97,36,103,96,63,27,75,108,44,67,5,85,45,70,99,87,0,11,83,104,37,48,117],"cond_shown":["Congruent","Congruent","Congruent","Congruent","Congruent","Congruent","Congruent","Incongruent","Incongruent","Congruent","Congruent","Incongruent","Incongruent","Incongruent","Incongruent","Incongruent","Incongruent","Congruent","Incongruent","Incongruent","Congruent","Congruent","Congruent","Incongruent","Incongruent","Congruent","Incongruent","Congruent","Incongruent","Incongruent","Incongruent","Congruent","Incongruent","Congruent","Incongruent","Congruent","Congruent","Incongruent","Congruent","Incongruent","Incongruent","Congruent","Congruent","Congruent","Incongruent","Congruent","Congruent","Congruent","Congruent","Incongruent","Incongruent","Congruent","Congruent","Congruent","Congruent","Incongruent","Incongruent","Incongruent","Congruent","Incongruent","Incongruent","Congruent","Congruent","Incongruent","Congruent","Incongruent","Congruent","Incongruent","Incongruent","Congruent","Incongruent","Incongruent","Congruent","Congruent","Congruent","Incongruent","Incongruent","Incongruent","Incongruent","Congruent","Congruent","Incongruent","Congruent","Incongruent","Congruent","Incongruent","Congruent","Congruent","Congruent","Congruent","Congruent","Congruent","Incongruent","Incongruent","Congruent","Incongruent","Congruent","Incongruent","Congruent","Incongruent","Congruent","Incongruent","Incongruent","Incongruent","Congruent","Congruent","Incongruent","Incongruent","Incongruent","Incongruent","Congruent","Incongruent","Incongruent","Congruent","Incongruent","Incongruent","Congruent","Incongruent","Congruent","Incongruent"],"ratio_trial":[300,100,300,300,100,100,100,300,200,100,200,300,300,100,100,100,200,200,100,100,300,300,300,100,200,300,200,100,300,300,300,200,200,100,100,300,200,300,200,200,200,200,300,300,300,300,300,200,100,300,100,200,200,300,100,100,100,100,100,200,300,200,100,300,100,300,200,100,200,300,200,300,300,200,100,100,300,200,200,300,300,300,200,100,200,200,100,100,200,300,200,200,300,300,200,100,300,100,100,100,100,200,200,200,100,200,100,300,100,200,300,200,200,100,300,300,200,100,100,200],"left_num":[5,3,4,3,6,11,15,7,7,15,8,4,8,3,10,4,7,6,2,9,24,2,1,2,4,20,7,10,13,1,8,6,7,8,6,12,3,7,3,3,4,3,4,1,13,1,4,7,11,4,4,7,7,1,1,6,12,17,3,6,4,6,3,7,1,4,3,9,7,5,6,13,24,8,11,3,1,1,14,11,24,4,3,13,8,7,10,2,12,11,3,21,13,4,21,12,1,10,10,1,6,1,14,3,2,3,9,4,3,7,20,7,1,15,8,13,15,13,4,1],"right_num":[6,4,2,11,5,4,13,8,14,13,7,2,9,11,9,8,8,3,8,6,2,10,6,8,1,9,12,3,12,3,14,3,8,2,3,2,14,8,14,11,1,9,13,11,12,3,1,18,4,2,8,2,2,11,3,11,9,10,2,3,2,7,2,8,18,6,14,20,8,7,3,12,2,2,4,7,3,3,6,2,2,2,9,12,3,6,3,6,6,1,9,2,12,2,2,9,6,8,3,8,15,2,6,11,11,14,13,2,11,6,13,4,3,13,14,12,4,12,6,2],"left_den":[25,20,5,12,20,22,25,10,10,25,15,20,10,5,25,8,10,15,4,18,30,20,5,4,30,25,10,25,26,2,10,15,10,16,12,24,6,10,10,4,30,12,20,5,26,5,10,15,22,20,8,21,21,5,2,10,24,30,6,20,20,12,6,10,2,5,10,10,10,25,20,26,30,15,22,9,2,2,30,22,30,20,12,26,15,15,25,5,15,22,12,30,26,20,30,24,5,25,25,2,12,3,30,4,5,6,15,20,5,15,25,15,2,25,10,26,25,26,8,3],"right_den":[12,16,4,20,25,10,26,20,28,26,21,4,18,22,18,20,16,15,20,10,4,25,12,20,3,18,24,10,15,15,28,15,16,5,5,10,20,20,28,20,3,20,26,22,15,6,10,27,10,4,20,15,15,22,5,22,15,15,5,6,4,10,5,20,30,12,28,25,16,14,6,15,4,6,10,30,15,10,9,10,4,4,20,20,9,9,10,12,10,5,20,4,15,4,4,15,12,16,10,20,25,15,9,20,22,20,26,4,22,9,26,6,10,26,28,15,10,20,10,15],"correct_side":[2,2,1,2,1,1,1,1,1,1,1,2,1,1,2,1,1,1,1,2,1,2,2,1,2,1,1,1,2,1,1,1,1,1,2,1,2,1,2,1,2,2,2,2,2,2,1,2,1,2,1,1,1,2,2,1,2,2,1,2,2,2,1,1,2,1,2,1,1,2,2,2,1,1,1,1,1,1,2,1,1,2,2,2,1,2,1,2,1,1,2,1,2,2,1,2,2,2,1,1,2,1,2,1,2,2,1,2,1,2,1,2,1,1,1,2,1,2,2,1],"img_shown":["img2/300/Congruent/R/C_Dist_300_LN_5_LD_25_RN_6_RD_12_1.png","img2/100/Congruent/R/C_Dist_100_LN_3_LD_20_RN_4_RD_16_1.png","img2/300/Congruent/L/C_Dist_300_LN_4_LD_5_RN_2_RD_4_0.png","img2/300/Congruent/R/C_Dist_300_LN_3_LD_12_RN_11_RD_20_1.png","img2/100/Congruent/L/C_Dist_100_LN_6_LD_20_RN_5_RD_25_0.png","img2/100/Congruent/L/C_Dist_100_LN_11_LD_22_RN_4_RD_10_0.png","img2/100/Congruent/L/C_Dist_100_LN_15_LD_25_RN_13_RD_26_0.png","img2/300/Incongruent/L/I_Dist_300_LN_7_LD_10_RN_8_RD_20_0.png","img2/200/Incongruent/L/I_Dist_200_LN_7_LD_10_RN_14_RD_28_0.png","img2/100/Congruent/L/C_Dist_100_LN_15_LD_25_RN_13_RD_26_0.png","img2/200/Congruent/L/C_Dist_200_LN_8_LD_15_RN_7_RD_21_0.png","img2/300/Incongruent/R/I_Dist_300_LN_4_LD_20_RN_2_RD_4_1.png","img2/300/Incongruent/L/I_Dist_300_LN_8_LD_10_RN_9_RD_18_0.png","img2/100/Incongruent/L/I_Dist_100_LN_3_LD_5_RN_11_RD_22_0.png","img2/100/Incongruent/R/I_Dist_100_LN_10_LD_25_RN_9_RD_18_1.png","img2/100/Incongruent/L/I_Dist_100_LN_4_LD_8_RN_8_RD_20_0.png","img2/200/Incongruent/L/I_Dist_200_LN_7_LD_10_RN_8_RD_16_0.png","img2/200/Congruent/L/C_Dist_200_LN_6_LD_15_RN_3_RD_15_0.png","img2/100/Incongruent/L/I_Dist_100_LN_2_LD_4_RN_8_RD_20_0.png","img2/100/Incongruent/R/I_Dist_100_LN_9_LD_18_RN_6_RD_10_1.png","img2/300/Congruent/L/C_Dist_300_LN_24_LD_30_RN_2_RD_4_0.png","img2/300/Congruent/R/C_Dist_300_LN_2_LD_20_RN_10_RD_25_1.png","img2/300/Congruent/R/C_Dist_300_LN_1_LD_5_RN_6_RD_12_1.png","img2/100/Incongruent/L/I_Dist_100_LN_2_LD_4_RN_8_RD_20_0.png","img2/200/Incongruent/R/I_Dist_200_LN_4_LD_30_RN_1_RD_3_1.png","img2/300/Congruent/L/C_Dist_300_LN_20_LD_25_RN_9_RD_18_0.png","img2/200/Incongruent/L/I_Dist_200_LN_7_LD_10_RN_12_RD_24_0.png","img2/100/Congruent/L/C_Dist_100_LN_10_LD_25_RN_3_RD_10_0.png","img2/300/Incongruent/R/I_Dist_300_LN_13_LD_26_RN_12_RD_15_1.png","img2/300/Incongruent/L/I_Dist_300_LN_1_LD_2_RN_3_RD_15_0.png","img2/300/Incongruent/L/I_Dist_300_LN_8_LD_10_RN_14_RD_28_0.png","img2/200/Congruent/L/C_Dist_200_LN_6_LD_15_RN_3_RD_15_0.png","img2/200/Incongruent/L/I_Dist_200_LN_7_LD_10_RN_8_RD_16_0.png","img2/100/Congruent/L/C_Dist_100_LN_8_LD_16_RN_2_RD_5_0.png","img2/100/Incongruent/R/I_Dist_100_LN_6_LD_12_RN_3_RD_5_1.png","img2/300/Congruent/L/C_Dist_300_LN_12_LD_24_RN_2_RD_10_0.png","img2/200/Congruent/R/C_Dist_200_LN_3_LD_6_RN_14_RD_20_1.png","img2/300/Incongruent/L/I_Dist_300_LN_7_LD_10_RN_8_RD_20_0.png","img2/200/Congruent/R/C_Dist_200_LN_3_LD_10_RN_14_RD_28_1.png","img2/200/Incongruent/L/I_Dist_200_LN_3_LD_4_RN_11_RD_20_0.png","img2/200/Incongruent/R/I_Dist_200_LN_4_LD_30_RN_1_RD_3_1.png","img2/200/Congruent/R/C_Dist_200_LN_3_LD_12_RN_9_RD_20_1.png","img2/300/Congruent/R/C_Dist_300_LN_4_LD_20_RN_13_RD_26_1.png","img2/300/Congruent/R/C_Dist_300_LN_1_LD_5_RN_11_RD_22_1.png","img2/300/Incongruent/R/I_Dist_300_LN_13_LD_26_RN_12_RD_15_1.png","img2/300/Congruent/R/C_Dist_300_LN_1_LD_5_RN_3_RD_6_1.png","img2/300/Congruent/L/C_Dist_300_LN_4_LD_10_RN_1_RD_10_0.png","img2/200/Congruent/R/C_Dist_200_LN_7_LD_15_RN_18_RD_27_1.png","img2/100/Congruent/L/C_Dist_100_LN_11_LD_22_RN_4_RD_10_0.png","img2/300/Incongruent/R/I_Dist_300_LN_4_LD_20_RN_2_RD_4_1.png","img2/100/Incongruent/L/I_Dist_100_LN_4_LD_8_RN_8_RD_20_0.png","img2/200/Congruent/L/C_Dist_200_LN_7_LD_21_RN_2_RD_15_0.png","img2/200/Congruent/L/C_Dist_200_LN_7_LD_21_RN_2_RD_15_0.png","img2/300/Congruent/R/C_Dist_300_LN_1_LD_5_RN_11_RD_22_1.png","img2/100/Congruent/R/C_Dist_100_LN_1_LD_2_RN_3_RD_5_1.png","img2/100/Incongruent/L/I_Dist_100_LN_6_LD_10_RN_11_RD_22_0.png","img2/100/Incongruent/R/I_Dist_100_LN_12_LD_24_RN_9_RD_15_1.png","img2/100/Incongruent/R/I_Dist_100_LN_17_LD_30_RN_10_RD_15_1.png","img2/100/Congruent/L/C_Dist_100_LN_3_LD_6_RN_2_RD_5_0.png","img2/200/Incongruent/R/I_Dist_200_LN_6_LD_20_RN_3_RD_6_1.png","img2/300/Incongruent/R/I_Dist_300_LN_4_LD_20_RN_2_RD_4_1.png","img2/200/Congruent/R/C_Dist_200_LN_6_LD_12_RN_7_RD_10_1.png","img2/100/Congruent/L/C_Dist_100_LN_3_LD_6_RN_2_RD_5_0.png","img2/300/Incongruent/L/I_Dist_300_LN_7_LD_10_RN_8_RD_20_0.png","img2/100/Congruent/R/C_Dist_100_LN_1_LD_2_RN_18_RD_30_1.png","img2/300/Incongruent/L/I_Dist_300_LN_4_LD_5_RN_6_RD_12_0.png","img2/200/Congruent/R/C_Dist_200_LN_3_LD_10_RN_14_RD_28_1.png","img2/100/Incongruent/L/I_Dist_100_LN_9_LD_10_RN_20_RD_25_0.png","img2/200/Incongruent/L/I_Dist_200_LN_7_LD_10_RN_8_RD_16_0.png","img2/300/Congruent/R/C_Dist_300_LN_5_LD_25_RN_7_RD_14_1.png","img2/200/Incongruent/R/I_Dist_200_LN_6_LD_20_RN_3_RD_6_1.png","img2/300/Incongruent/R/I_Dist_300_LN_13_LD_26_RN_12_RD_15_1.png","img2/300/Congruent/L/C_Dist_300_LN_24_LD_30_RN_2_RD_4_0.png","img2/200/Congruent/L/C_Dist_200_LN_8_LD_15_RN_2_RD_6_0.png","img2/100/Congruent/L/C_Dist_100_LN_11_LD_22_RN_4_RD_10_0.png","img2/100/Incongruent/L/I_Dist_100_LN_3_LD_9_RN_7_RD_30_0.png","img2/300/Incongruent/L/I_Dist_300_LN_1_LD_2_RN_3_RD_15_0.png","img2/200/Incongruent/L/I_Dist_200_LN_1_LD_2_RN_3_RD_10_0.png","img2/200/Incongruent/R/I_Dist_200_LN_14_LD_30_RN_6_RD_9_1.png","img2/300/Congruent/L/C_Dist_300_LN_11_LD_22_RN_2_RD_10_0.png","img2/300/Congruent/L/C_Dist_300_LN_24_LD_30_RN_2_RD_4_0.png","img2/300/Incongruent/R/I_Dist_300_LN_4_LD_20_RN_2_RD_4_1.png","img2/200/Congruent/R/C_Dist_200_LN_3_LD_12_RN_9_RD_20_1.png","img2/100/Incongruent/R/I_Dist_100_LN_13_LD_26_RN_12_RD_20_1.png","img2/200/Congruent/L/C_Dist_200_LN_8_LD_15_RN_3_RD_9_0.png","img2/200/Incongruent/R/I_Dist_200_LN_7_LD_15_RN_6_RD_9_1.png","img2/100/Congruent/L/C_Dist_100_LN_10_LD_25_RN_3_RD_10_0.png","img2/100/Congruent/R/C_Dist_100_LN_2_LD_5_RN_6_RD_12_1.png","img2/200/Congruent/L/C_Dist_200_LN_12_LD_15_RN_6_RD_10_0.png","img2/300/Congruent/L/C_Dist_300_LN_11_LD_22_RN_1_RD_5_0.png","img2/200/Congruent/R/C_Dist_200_LN_3_LD_12_RN_9_RD_20_1.png","img2/200/Congruent/L/C_Dist_200_LN_21_LD_30_RN_2_RD_4_0.png","img2/300/Incongruent/R/I_Dist_300_LN_13_LD_26_RN_12_RD_15_1.png","img2/300/Incongruent/R/I_Dist_300_LN_4_LD_20_RN_2_RD_4_1.png","img2/200/Congruent/L/C_Dist_200_LN_21_LD_30_RN_2_RD_4_0.png","img2/100/Incongruent/R/I_Dist_100_LN_12_LD_24_RN_9_RD_15_1.png","img2/300/Congruent/R/C_Dist_300_LN_1_LD_5_RN_6_RD_12_1.png","img2/100/Incongruent/R/I_Dist_100_LN_10_LD_25_RN_8_RD_16_1.png","img2/100/Congruent/L/C_Dist_100_LN_10_LD_25_RN_3_RD_10_0.png","img2/100/Incongruent/L/I_Dist_100_LN_1_LD_2_RN_8_RD_20_0.png","img2/100/Congruent/R/C_Dist_100_LN_6_LD_12_RN_15_RD_25_1.png","img2/200/Incongruent/L/I_Dist_200_LN_1_LD_3_RN_2_RD_15_0.png","img2/200/Incongruent/R/I_Dist_200_LN_14_LD_30_RN_6_RD_9_1.png","img2/200/Incongruent/L/I_Dist_200_LN_3_LD_4_RN_11_RD_20_0.png","img2/100/Congruent/R/C_Dist_100_LN_2_LD_5_RN_11_RD_22_1.png","img2/200/Congruent/R/C_Dist_200_LN_3_LD_6_RN_14_RD_20_1.png","img2/100/Incongruent/L/I_Dist_100_LN_9_LD_15_RN_13_RD_26_0.png","img2/300/Incongruent/R/I_Dist_300_LN_4_LD_20_RN_2_RD_4_1.png","img2/100/Incongruent/L/I_Dist_100_LN_3_LD_5_RN_11_RD_22_0.png","img2/200/Incongruent/R/I_Dist_200_LN_7_LD_15_RN_6_RD_9_1.png","img2/300/Congruent/L/C_Dist_300_LN_20_LD_25_RN_13_RD_26_0.png","img2/200/Incongruent/R/I_Dist_200_LN_7_LD_15_RN_4_RD_6_1.png","img2/200/Incongruent/L/I_Dist_200_LN_1_LD_2_RN_3_RD_10_0.png","img2/100/Congruent/L/C_Dist_100_LN_15_LD_25_RN_13_RD_26_0.png","img2/300/Incongruent/L/I_Dist_300_LN_8_LD_10_RN_14_RD_28_0.png","img2/300/Incongruent/R/I_Dist_300_LN_13_LD_26_RN_12_RD_15_1.png","img2/200/Congruent/L/C_Dist_200_LN_15_LD_25_RN_4_RD_10_0.png","img2/100/Incongruent/R/I_Dist_100_LN_13_LD_26_RN_12_RD_20_1.png","img2/100/Congruent/R/C_Dist_100_LN_4_LD_8_RN_6_RD_10_1.png","img2/200/Incongruent/L/I_Dist_200_LN_1_LD_3_RN_2_RD_15_0.png"],"dist100_C":[["C_Dist_100_LN_10_LD_25_RN_3_RD_10_0.png","C_Dist_100_LN_11_LD_22_RN_4_RD_10_0.png","C_Dist_100_LN_11_LD_22_RN_6_RD_15_0.png","C_Dist_100_LN_15_LD_25_RN_13_RD_26_0.png","C_Dist_100_LN_3_LD_6_RN_2_RD_5_0.png","C_Dist_100_LN_6_LD_20_RN_5_RD_25_0.png","C_Dist_100_LN_8_LD_16_RN_2_RD_5_0.png","C_Dist_100_LN_9_LD_15_RN_8_RD_16_0.png"],["C_Dist_100_LN_1_LD_2_RN_18_RD_30_1.png","C_Dist_100_LN_1_LD_2_RN_3_RD_5_1.png","C_Dist_100_LN_12_LD_30_RN_13_RD_26_1.png","C_Dist_100_LN_2_LD_5_RN_11_RD_22_1.png","C_Dist_100_LN_2_LD_5_RN_6_RD_12_1.png","C_Dist_100_LN_3_LD_20_RN_4_RD_16_1.png","C_Dist_100_LN_4_LD_10_RN_15_RD_30_1.png","C_Dist_100_LN_4_LD_8_RN_6_RD_10_1.png","C_Dist_100_LN_6_LD_12_RN_15_RD_25_1.png","C_Dist_100_LN_7_LD_14_RN_15_RD_25_1.png","C_Dist_100_LN_7_LD_14_RN_9_RD_15_1.png"]],"dist100_I":[["I_Dist_100_LN_1_LD_2_RN_8_RD_20_0.png","I_Dist_100_LN_2_LD_4_RN_6_RD_15_0.png","I_Dist_100_LN_2_LD_4_RN_8_RD_20_0.png","I_Dist_100_LN_3_LD_5_RN_11_RD_22_0.png","I_Dist_100_LN_3_LD_5_RN_8_RD_16_0.png","I_Dist_100_LN_3_LD_6_RN_4_RD_10_0.png","I_Dist_100_LN_3_LD_9_RN_7_RD_30_0.png","I_Dist_100_LN_4_LD_8_RN_8_RD_20_0.png","I_Dist_100_LN_6_LD_10_RN_11_RD_22_0.png","I_Dist_100_LN_6_LD_10_RN_13_RD_26_0.png","I_Dist_100_LN_6_LD_10_RN_7_RD_14_0.png","I_Dist_100_LN_9_LD_10_RN_20_RD_25_0.png","I_Dist_100_LN_9_LD_15_RN_13_RD_26_0.png","I_Dist_100_LN_9_LD_15_RN_14_RD_28_0.png"],["I_Dist_100_LN_10_LD_25_RN_8_RD_16_1.png","I_Dist_100_LN_10_LD_25_RN_9_RD_18_1.png","I_Dist_100_LN_11_LD_22_RN_9_RD_15_1.png","I_Dist_100_LN_12_LD_24_RN_9_RD_15_1.png","I_Dist_100_LN_12_LD_30_RN_2_RD_4_1.png","I_Dist_100_LN_13_LD_26_RN_12_RD_20_1.png","I_Dist_100_LN_13_LD_26_RN_6_RD_10_1.png","I_Dist_100_LN_17_LD_30_RN_10_RD_15_1.png","I_Dist_100_LN_6_LD_12_RN_3_RD_5_1.png","I_Dist_100_LN_8_LD_16_RN_6_RD_10_1.png","I_Dist_100_LN_8_LD_20_RN_1_RD_2_1.png","I_Dist_100_LN_9_LD_18_RN_6_RD_10_1.png"]],"dist100_S":[["E_Dist_100_LN_2_LD_12_RN_2_RD_30_0.png","E_Dist_100_LN_6_LD_10_RN_6_RD_12_0.png"],["E_Dist_100_LN_6_LD_12_RN_6_RD_10_1.png"]],"dist200_C":[["C_Dist_200_LN_11_LD_22_RN_3_RD_10_0.png","C_Dist_200_LN_12_LD_15_RN_6_RD_10_0.png","C_Dist_200_LN_12_LD_20_RN_6_RD_15_0.png","C_Dist_200_LN_14_LD_28_RN_6_RD_20_0.png","C_Dist_200_LN_15_LD_25_RN_4_RD_10_0.png","C_Dist_200_LN_16_LD_20_RN_12_RD_20_0.png","C_Dist_200_LN_16_LD_30_RN_9_RD_27_0.png","C_Dist_200_LN_20_LD_25_RN_9_RD_15_0.png","C_Dist_200_LN_21_LD_30_RN_2_RD_4_0.png","C_Dist_200_LN_4_LD_10_RN_3_RD_15_0.png","C_Dist_200_LN_4_LD_8_RN_3_RD_10_0.png","C_Dist_200_LN_6_LD_15_RN_3_RD_15_0.png","C_Dist_200_LN_7_LD_21_RN_2_RD_15_0.png","C_Dist_200_LN_8_LD_15_RN_2_RD_6_0.png","C_Dist_200_LN_8_LD_15_RN_3_RD_9_0.png","C_Dist_200_LN_8_LD_15_RN_7_RD_21_0.png","C_Dist_200_LN_9_LD_20_RN_4_RD_16_0.png"],["C_Dist_200_LN_1_LD_2_RN_21_RD_30_1.png","C_Dist_200_LN_13_LD_26_RN_14_RD_20_1.png","C_Dist_200_LN_3_LD_10_RN_11_RD_22_1.png","C_Dist_200_LN_3_LD_10_RN_14_RD_28_1.png","C_Dist_200_LN_3_LD_10_RN_7_RD_14_1.png","C_Dist_200_LN_3_LD_12_RN_9_RD_20_1.png","C_Dist_200_LN_3_LD_6_RN_14_RD_20_1.png","C_Dist_200_LN_5_LD_10_RN_14_RD_20_1.png","C_Dist_200_LN_6_LD_12_RN_7_RD_10_1.png","C_Dist_200_LN_6_LD_20_RN_11_RD_22_1.png","C_Dist_200_LN_7_LD_15_RN_18_RD_27_1.png","C_Dist_200_LN_9_LD_30_RN_13_RD_26_1.png"]],"dist200_I":[["I_Dist_200_LN_1_LD_2_RN_3_RD_10_0.png","I_Dist_200_LN_1_LD_3_RN_2_RD_15_0.png","I_Dist_200_LN_3_LD_4_RN_11_RD_20_0.png","I_Dist_200_LN_4_LD_5_RN_6_RD_10_0.png","I_Dist_200_LN_4_LD_6_RN_14_RD_30_0.png","I_Dist_200_LN_7_LD_10_RN_12_RD_24_0.png","I_Dist_200_LN_7_LD_10_RN_14_RD_28_0.png","I_Dist_200_LN_7_LD_10_RN_8_RD_16_0.png"],["I_Dist_200_LN_11_LD_20_RN_3_RD_4_1.png","I_Dist_200_LN_14_LD_30_RN_12_RD_18_1.png","I_Dist_200_LN_14_LD_30_RN_6_RD_9_1.png","I_Dist_200_LN_3_LD_10_RN_1_RD_2_1.png","I_Dist_200_LN_4_LD_30_RN_1_RD_3_1.png","I_Dist_200_LN_6_LD_20_RN_3_RD_6_1.png","I_Dist_200_LN_7_LD_15_RN_4_RD_6_1.png","I_Dist_200_LN_7_LD_15_RN_6_RD_9_1.png","I_Dist_200_LN_9_LD_15_RN_8_RD_10_1.png"]],"dist200_S":[["E_Dist_200_LN_3_LD_6_RN_3_RD_10_0.png"],["E_Dist_200_LN_3_LD_10_RN_3_RD_6_1.png"]],"dist300_C":[["C_Dist_300_LN_11_LD_22_RN_1_RD_5_0.png","C_Dist_300_LN_11_LD_22_RN_2_RD_10_0.png","C_Dist_300_LN_11_LD_22_RN_4_RD_20_0.png","C_Dist_300_LN_12_LD_24_RN_2_RD_10_0.png","C_Dist_300_LN_18_LD_20_RN_9_RD_15_0.png","C_Dist_300_LN_20_LD_25_RN_13_RD_26_0.png","C_Dist_300_LN_20_LD_25_RN_14_RD_28_0.png","C_Dist_300_LN_20_LD_25_RN_5_RD_10_0.png","C_Dist_300_LN_20_LD_25_RN_8_RD_16_0.png","C_Dist_300_LN_20_LD_25_RN_9_RD_18_0.png","C_Dist_300_LN_24_LD_30_RN_2_RD_4_0.png","C_Dist_300_LN_24_LD_30_RN_8_RD_16_0.png","C_Dist_300_LN_3_LD_6_RN_2_RD_10_0.png","C_Dist_300_LN_4_LD_10_RN_1_RD_10_0.png","C_Dist_300_LN_4_LD_5_RN_2_RD_4_0.png","C_Dist_300_LN_8_LD_16_RN_1_RD_5_0.png","C_Dist_300_LN_9_LD_10_RN_3_RD_5_0.png"],["C_Dist_300_LN_1_LD_20_RN_7_RD_20_1.png","C_Dist_300_LN_1_LD_3_RN_19_RD_30_1.png","C_Dist_300_LN_1_LD_30_RN_8_RD_24_1.png","C_Dist_300_LN_1_LD_5_RN_11_RD_22_1.png","C_Dist_300_LN_1_LD_5_RN_3_RD_6_1.png","C_Dist_300_LN_1_LD_5_RN_6_RD_12_1.png","C_Dist_300_LN_2_LD_10_RN_12_RD_24_1.png","C_Dist_300_LN_2_LD_20_RN_10_RD_25_1.png","C_Dist_300_LN_3_LD_12_RN_11_RD_20_1.png","C_Dist_300_LN_3_LD_6_RN_4_RD_5_1.png","C_Dist_300_LN_4_LD_20_RN_13_RD_26_1.png","C_Dist_300_LN_5_LD_25_RN_6_RD_12_1.png","C_Dist_300_LN_5_LD_25_RN_7_RD_14_1.png","C_Dist_300_LN_7_LD_14_RN_20_RD_25_1.png","C_Dist_300_LN_8_LD_15_RN_10_RD_12_1.png"]],"dist300_I":[["I_Dist_300_LN_1_LD_2_RN_2_RD_10_0.png","I_Dist_300_LN_1_LD_2_RN_3_RD_15_0.png","I_Dist_300_LN_2_LD_4_RN_6_RD_30_0.png","I_Dist_300_LN_3_LD_6_RN_4_RD_20_0.png","I_Dist_300_LN_4_LD_5_RN_6_RD_12_0.png","I_Dist_300_LN_4_LD_5_RN_8_RD_16_0.png","I_Dist_300_LN_7_LD_10_RN_8_RD_20_0.png","I_Dist_300_LN_8_LD_10_RN_14_RD_28_0.png","I_Dist_300_LN_8_LD_10_RN_9_RD_18_0.png"],["I_Dist_300_LN_13_LD_26_RN_12_RD_15_1.png","I_Dist_300_LN_4_LD_20_RN_2_RD_4_1.png"]],"dist300_S":[["E_Dist_300_LN_9_LD_12_RN_9_RD_20_0.png"],["E_Dist_300_LN_18_LD_30_RN_18_RD_20_1.png","E_Dist_300_LN_3_LD_10_RN_3_RD_5_1.png","E_Dist_300_LN_9_LD_20_RN_9_RD_12_1.png"]],"dist500_C":[["C_Dist_500_LN_10_LD_13_RN_7_RD_26_0.png","C_Dist_500_LN_10_LD_15_RN_4_RD_24_0.png","C_Dist_500_LN_12_LD_16_RN_3_RD_12_0.png","C_Dist_500_LN_12_LD_18_RN_4_RD_24_0.png","C_Dist_500_LN_15_LD_18_RN_5_RD_15_0.png","C_Dist_500_LN_15_LD_20_RN_1_RD_4_0.png","C_Dist_500_LN_18_LD_27_RN_1_RD_6_0.png","C_Dist_500_LN_20_LD_24_RN_1_RD_3_0.png","C_Dist_500_LN_20_LD_24_RN_3_RD_9_0.png","C_Dist_500_LN_20_LD_24_RN_7_RD_21_0.png","C_Dist_500_LN_20_LD_28_RN_3_RD_14_0.png","C_Dist_500_LN_21_LD_28_RN_6_RD_24_0.png","C_Dist_500_LN_22_LD_28_RN_2_RD_7_0.png","C_Dist_500_LN_25_LD_30_RN_9_RD_27_0.png","C_Dist_500_LN_4_LD_6_RN_1_RD_6_0.png","C_Dist_500_LN_5_LD_6_RN_2_RD_6_0.png","C_Dist_500_LN_6_LD_9_RN_1_RD_6_0.png","C_Dist_500_LN_7_LD_10_RN_1_RD_5_0.png","C_Dist_500_LN_8_LD_12_RN_1_RD_6_0.png","C_Dist_500_LN_8_LD_12_RN_4_RD_24_0.png"],["C_Dist_500_LN_1_LD_4_RN_12_RD_16_1.png","C_Dist_500_LN_1_LD_4_RN_9_RD_12_1.png","C_Dist_500_LN_1_LD_9_RN_11_RD_18_1.png","C_Dist_500_LN_10_LD_24_RN_22_RD_24_1.png","C_Dist_500_LN_2_LD_12_RN_10_RD_15_1.png","C_Dist_500_LN_2_LD_12_RN_12_RD_18_1.png","C_Dist_500_LN_2_LD_12_RN_4_RD_6_1.png","C_Dist_500_LN_2_LD_24_RN_7_RD_12_1.png","C_Dist_500_LN_2_LD_5_RN_18_RD_20_1.png","C_Dist_500_LN_2_LD_5_RN_9_RD_10_1.png","C_Dist_500_LN_2_LD_8_RN_12_RD_16_1.png","C_Dist_500_LN_2_LD_8_RN_21_RD_28_1.png","C_Dist_500_LN_3_LD_10_RN_4_RD_5_1.png","C_Dist_500_LN_3_LD_12_RN_15_RD_20_1.png","C_Dist_500_LN_3_LD_30_RN_6_RD_10_1.png","C_Dist_500_LN_3_LD_8_RN_14_RD_16_1.png","C_Dist_500_LN_4_LD_16_RN_15_RD_20_1.png","C_Dist_500_LN_4_LD_24_RN_12_RD_18_1.png","C_Dist_500_LN_5_LD_14_RN_6_RD_7_1.png","C_Dist_500_LN_7_LD_21_RN_20_RD_24_1.png","C_Dist_500_LN_7_LD_28_RN_12_RD_16_1.png","C_Dist_500_LN_7_LD_28_RN_9_RD_12_1.png","C_Dist_500_LN_9_LD_27_RN_20_RD_24_1.png"]],"dist500_I":[["I_Dist_500_LN_2_LD_3_RN_4_RD_24_0.png","I_Dist_500_LN_5_LD_6_RN_6_RD_18_0.png","I_Dist_500_LN_7_LD_8_RN_9_RD_24_0.png"],["I_Dist_500_LN_7_LD_21_RN_5_RD_6_1.png"]],"dist500_S":[["E_Dist_500_LN_6_LD_8_RN_6_RD_24_0.png"],["E_Dist_500_LN_2_LD_12_RN_2_RD_3_1.png","E_Dist_500_LN_6_LD_24_RN_6_RD_8_1.png"]]}},{"start_time":1551887003106,"click_time":1551887005195,"finger_time":1551887005096,"fix_duration":250,"trial":1,"RT":1990,"MT":99,"sideResp":2,"stimulus":[],"xmouse":[786,786,786,786,786,786,786,786,786,786,786,786,786,786,786,786,786,786,786,786,786,786,786,786,786,786,786,786,786,786,786,786,786,786,786,786,786,786,786,786,786,786,786,786,786,786,786,786,786,786,786,786,786,786,786,786,786,786,786,786,786,786,786,786,786,786,786,786,786,786,786,786,786,786,786,786,786,786,786,786,786,786,786,786,786,786,786,786,786,786,786,786,786,786,786,786,786,785,822,859,883,923,1035,1082,1130],"ymouse":[518,518,518,518,518,518,518,518,518,518,518,518,518,518,518,518,518,518,518,518,518,518,518,518,518,518,518,518,518,518,518,518,518,518,518,518,518,518,518,518,518,518,518,518,518,518,518,518,518,518,518,518,518,518,518,518,518,518,518,518,518,518,518,518,518,518,518,518,518,518,518,518,518,518,518,518,518,518,518,518,518,518,518,518,518,518,518,518,518,518,518,518,518,518,518,518,518,516,474,422,367,308,160,106,38],"timestamp_mouse":[12,32,50,69,90,109,130,149,170,189,209,229,250,270,290,309,329,349,369,390,409,430,449,470,489,509,529,550,569,589,609,629,650,670,689,709,729,750,769,789,810,829,849,869,889,909,930,949,969,989,1009,1030,1049,1069,1089,1110,1129,1149,1170,1189,1210,1229,1249,1269,1290,1310,1329,1349,1370,1389,1410,1430,1450,1469,1490,1509,1529,1550,1569,1589,1610,1630,1649,1669,1689,1709,1729,1749,1770,1790,1809,1830,1849,1869,1889,1909,1930,1949,1969,1990,2010,2030,2049,2070,2089],"xSR":741.5,"ySR":469.95,"xT1":424.9,"yT1":0,"xT2":1058.1,"yT2":0,"toosoon":0,"cond_shown":"Congruent","ratio_trial":100,"L_num":3,"L_den":20,"R_num":4,"R_den":16,"correct_side":2,"subjID":"eyleendanielarodriguezacero7","gender":"1","school":"sexto","age":"11"},{"start_time":1551887008446,"click_time":1551887010436,"finger_time":1551887010216,"fix_duration":570.1478771225234,"trial":2,"RT":1770,"MT":220,"sideResp":1,"stimulus":[],"xmouse":[832,832,832,832,832,832,832,832,832,832,832,832,832,832,832,832,832,832,832,832,832,832,832,832,832,832,832,832,832,832,832,832,832,832,832,832,832,832,832,832,832,832,832,832,832,832,832,832,832,832,832,832,832,832,832,832,832,832,832,832,832,832,832,832,832,832,832,832,832,832,832,832,832,832,832,832,832,832,832,832,832,832,832,832,832,828,812,775,736,700,654,627,602,580,576,570,563,556,541,523],"ymouse":[537,537,537,537,537,537,537,537,537,537,537,537,537,537,537,537,537,537,537,537,537,537,537,537,537,537,537,537,537,537,537,537,537,537,537,537,537,537,537,537,537,537,537,537,537,537,537,537,537,537,537,537,537,537,537,537,537,537,537,537,537,537,537,537,537,537,537,537,537,537,537,537,537,537,537,537,537,537,537,537,537,537,537,537,537,534,528,504,474,441,366,306,220,171,155,131,105,82,52,25],"timestamp_mouse":[12,41,49,69,90,110,130,149,170,190,209,230,249,269,290,311,330,349,370,389,410,429,449,469,490,509,529,550,569,589,610,630,650,669,689,709,729,750,770,790,809,830,850,870,890,909,929,950,970,990,1010,1030,1049,1069,1091,1109,1130,1149,1169,1189,1211,1229,1249,1269,1290,1309,1329,1350,1369,1389,1409,1429,1450,1470,1490,1510,1531,1550,1570,1589,1609,1629,1649,1670,1690,1708,1729,1749,1770,1789,1809,1829,1849,1869,1889,1909,1929,1949,1969,1990],"xSR":741.5,"ySR":469.95,"xT1":424.9,"yT1":0,"xT2":1058.1,"yT2":0,"toosoon":0,"cond_shown":"Congruent","ratio_trial":300,"L_num":4,"L_den":5,"R_num":2,"R_den":4,"correct_side":1,"subjID":"eyleendanielarodriguezacero7","gender":"1","school":"sexto","age":"11"},{"start_time":1551887013119,"click_time":1551887017455,"finger_time":1551887015855,"fix_duration":682.0923892362912,"trial":3,"RT":2736,"MT":1600,"sideResp":1,"stimulus":[],"xmouse":[782,782,782,782,782,782,782,782,782,782,782,782,782,782,782,782,782,782,782,782,782,782,782,782,782,782,782,782,782,782,782,782,782,782,782,782,782,782,782,782,782,782,782,782,782,782,782,782,782,782,782,782,782,782,782,782,782,782,782,782,782,782,782,782,782,782,782,782,782,782,782,782,782,782,782,782,782,782,782,782,782,782,782,782,782,782,782,782,782,782,782,782,782,782,782,782,782,782,782,782,782,782,782,782,782,782,782,782,782,782,782,782,782,782,782,782,782,782,782,782,782,782,782,782,782,782,782,782,782,782,782,782,782,782,778,764,714,685,666,655,649,644,642,639,636,631,620,613,608,605,605,605,605,605,605,605,605,605,605,605,605,605,605,605,605,605,606,608,611,615,620,633,644,674,700,726,780,808,831,850,868,894,898,898,898,898,898,898,898,896,881,852,750,692,674,664,651,645,639,632,620,607,572,546,540,522,498,493,492,492,492,493,493,493,493,493,493],"ymouse":[524,524,524,524,524,524,524,524,524,524,524,524,524,524,524,524,524,524,524,524,524,524,524,524,524,524,524,524,524,524,524,524,524,524,524,524,524,524,524,524,524,524,524,524,524,524,524,524,524,524,524,524,524,524,524,524,524,524,524,524,524,524,524,524,524,524,524,524,524,524,524,524,524,524,524,524,524,524,524,524,524,524,524,524,524,524,524,524,524,524,524,524,524,524,524,524,524,524,524,524,524,524,524,524,524,524,524,524,524,524,524,524,524,524,524,524,524,524,524,524,524,524,524,524,524,524,524,524,524,524,524,524,524,524,524,524,503,485,465,445,424,388,374,364,354,342,314,303,295,291,291,291,291,291,291,291,291,291,291,291,291,291,291,291,291,291,292,295,299,303,308,317,321,330,337,341,349,352,356,356,356,356,356,356,356,356,356,356,356,356,356,356,345,333,325,320,304,297,291,285,277,266,220,190,182,163,135,123,116,112,108,105,104,104,104,102,95],"timestamp_mouse":[17,37,56,77,97,117,137,157,176,196,217,236,257,277,296,317,336,357,376,396,417,436,456,477,497,517,536,556,576,597,616,636,657,677,696,717,737,756,777,797,816,836,858,877,896,916,936,957,976,997,1016,1036,1056,1077,1097,1117,1137,1157,1176,1196,1216,1236,1257,1276,1297,1316,1337,1357,1377,1396,1416,1436,1457,1476,1497,1516,1536,1556,1576,1596,1616,1636,1656,1676,1696,1717,1738,1757,1776,1797,1816,1836,1857,1876,1897,1917,1937,1956,1977,1997,2016,2037,2056,2077,2096,2117,2136,2157,2176,2197,2217,2236,2256,2276,2296,2316,2337,2356,2376,2397,2417,2436,2458,2477,2497,2517,2536,2556,2577,2597,2617,2637,2657,2676,2697,2716,2736,2756,2776,2797,2817,2836,2857,2876,2897,2917,2936,2956,2976,2997,3017,3036,3057,3076,3096,3117,3137,3156,3177,3197,3216,3237,3257,3277,3296,3317,3337,3357,3376,3397,3416,3436,3466,3476,3496,3517,3537,3556,3576,3596,3616,3636,3656,3676,3696,3717,3738,3756,3776,3796,3817,3836,3856,3876,3897,3916,3937,3956,3976,3997,4016,4036,4057,4077,4096,4116,4136,4156,4177,4197,4217,4236,4256,4276,4296,4317,4336],"xSR":741.5,"ySR":469.95,"xT1":424.9,"yT1":0,"xT2":1058.1,"yT2":0,"toosoon":0,"cond_shown":"Congruent","ratio_trial":300,"L_num":3,"L_den":12,"R_num":11,"R_den":20,"correct_side":2,"subjID":"eyleendanielarodriguezacero7","gender":"1","school":"sexto","age":"11"},{"start_time":1551887020216,"click_time":1551887022376,"finger_time":1551887022075,"fix_duration":717.4119534948642,"trial":4,"RT":1859,"MT":301,"sideResp":1,"stimulus":[],"xmouse":[803,803,803,803,803,803,803,803,803,803,803,803,803,803,803,803,803,803,803,803,803,803,803,803,803,803,803,803,803,803,803,803,803,803,803,803,803,803,803,803,803,803,803,803,803,803,803,803,803,803,803,803,803,803,803,803,803,803,803,803,803,803,803,803,803,803,803,803,803,803,803,803,803,803,803,803,803,803,803,803,803,803,803,803,803,803,803,803,803,803,803,803,790,770,754,733,714,684,671,657,649,641,621,609,594,576,557,525,516],"ymouse":[512,512,512,512,512,512,512,512,512,512,512,512,512,512,512,512,512,512,512,512,512,512,512,512,512,512,512,512,512,512,512,512,512,512,512,512,512,512,512,512,512,512,512,512,512,512,512,512,512,512,512,512,512,512,512,512,512,512,512,512,512,512,512,512,512,512,512,512,512,512,512,512,512,512,512,512,512,512,512,512,512,512,512,512,512,512,512,512,512,512,512,512,478,439,412,379,352,308,289,267,253,239,207,190,174,157,141,109,98],"timestamp_mouse":[1,19,39,59,80,100,119,140,160,179,199,220,239,259,279,299,319,339,359,379,399,419,439,459,479,500,519,540,559,579,600,619,639,660,679,699,720,740,759,780,799,819,840,860,880,899,919,940,959,980,1000,1020,1039,1059,1079,1099,1119,1140,1159,1179,1199,1219,1239,1259,1279,1300,1319,1339,1360,1379,1399,1419,1440,1459,1479,1499,1520,1539,1559,1580,1599,1619,1639,1660,1680,1699,1719,1739,1759,1779,1799,1819,1839,1859,1879,1899,1919,1939,1959,1979,2000,2019,2039,2059,2079,2099,2120,2139,2160],"xSR":741.5,"ySR":469.95,"xT1":424.9,"yT1":0,"xT2":1058.1,"yT2":0,"toosoon":0,"cond_shown":"Congruent","ratio_trial":100,"L_num":6,"L_den":20,"R_num":5,"R_den":25,"correct_side":1,"subjID":"eyleendanielarodriguezacero7","gender":"1","school":"sexto","age":"11"},{"start_time":1551887024971,"click_time":1551887027016,"finger_time":1551887026635,"fix_duration":1034.8283787174196,"trial":5,"RT":1664,"MT":381,"sideResp":2,"stimulus":[],"xmouse":[778,778,778,778,778,778,778,778,778,778,778,778,778,778,778,778,778,778,778,778,778,778,778,778,778,778,778,778,778,778,778,778,778,778,778,778,778,778,778,778,778,778,778,778,778,778,778,778,778,778,778,778,778,778,778,778,778,782,783,790,791,791,791,791,791,791,791,791,793,794,795,795,795,795,795,795,795,795,795,796,796,796,798,800,806,810,821,862,901,936,939,944,949,955,963,986,994,1002,1009,1037,1069,1089,1105],"ymouse":[492,492,492,492,492,492,492,492,492,492,492,492,492,492,492,492,492,492,492,492,492,492,492,492,492,492,492,492,492,492,492,492,492,492,492,492,492,492,492,492,492,492,492,492,492,492,492,492,492,492,492,492,492,492,492,492,492,492,491,488,487,487,487,487,487,487,487,487,486,484,484,484,484,484,484,484,483,483,482,480,478,475,473,468,452,441,414,335,273,221,213,202,192,182,170,147,136,126,120,114,108,100,91],"timestamp_mouse":[10,31,44,64,85,104,125,145,164,185,204,224,244,264,284,304,324,345,364,384,405,425,445,465,484,504,524,545,565,584,604,625,645,665,684,704,724,745,764,785,805,825,844,865,884,904,925,944,965,984,1005,1024,1044,1064,1084,1105,1124,1144,1165,1183,1205,1224,1244,1265,1284,1304,1325,1344,1364,1384,1405,1424,1444,1465,1484,1504,1524,1544,1564,1584,1605,1624,1644,1664,1685,1703,1724,1744,1764,1784,1804,1824,1845,1865,1884,1904,1925,1945,1964,1984,2005,2025,2044],"xSR":741.5,"ySR":469.95,"xT1":424.9,"yT1":0,"xT2":1058.1,"yT2":0,"toosoon":0,"cond_shown":"Congruent","ratio_trial":100,"L_num":11,"L_den":22,"R_num":4,"R_den":10,"correct_side":1,"subjID":"eyleendanielarodriguezacero7","gender":"1","school":"sexto","age":"11"},{"start_time":1551887029644,"click_time":1551887031716,"finger_time":1551887031376,"fix_duration":786.971264964333,"trial":6,"RT":1732,"MT":340,"sideResp":2,"stimulus":[],"xmouse":[834,834,834,834,834,834,834,834,834,834,834,834,834,834,834,834,834,834,834,834,834,834,834,834,834,834,834,834,834,834,834,834,834,834,834,834,834,834,834,834,834,834,834,834,834,834,834,834,834,834,834,834,834,834,834,834,834,834,834,834,834,834,834,834,834,834,834,834,834,834,834,834,834,834,834,834,834,834,834,834,834,834,834,834,834,834,844,866,905,929,952,962,969,976,984,997,1002,1006,1013,1022,1040,1047,1054,1059],"ymouse":[533,533,533,533,533,533,533,533,533,533,533,533,533,533,533,533,533,533,533,533,533,533,533,533,533,533,533,533,533,533,533,533,533,533,533,533,533,533,533,533,533,533,533,533,533,533,533,533,533,533,533,533,533,533,533,533,533,533,533,533,533,533,533,533,533,533,533,533,533,533,533,533,533,533,533,533,533,533,533,533,533,533,533,533,533,533,518,483,414,372,328,312,298,285,270,241,226,214,200,178,133,117,104,95],"timestamp_mouse":[12,45,51,71,92,112,132,151,171,191,212,231,251,271,291,311,332,351,371,391,412,431,452,471,491,511,531,552,572,592,612,632,652,671,691,712,731,751,772,792,811,832,852,871,892,911,931,952,972,992,1011,1031,1051,1071,1092,1111,1131,1151,1171,1192,1211,1232,1251,1271,1292,1311,1332,1352,1371,1392,1411,1432,1452,1472,1492,1512,1532,1552,1572,1591,1611,1631,1652,1672,1692,1711,1732,1750,1772,1791,1811,1831,1851,1871,1891,1911,1932,1951,1973,1991,2011,2032,2052,2071],"xSR":741.5,"ySR":469.95,"xT1":424.9,"yT1":0,"xT2":1058.1,"yT2":0,"toosoon":0,"cond_shown":"Congruent","ratio_trial":100,"L_num":15,"L_den":25,"R_num":13,"R_den":26,"correct_side":1,"subjID":"eyleendanielarodriguezacero7","gender":"1","school":"sexto","age":"11"},{"start_time":1551887034029,"click_time":1551887035675,"finger_time":1551887035415,"fix_duration":513.6679495740112,"trial":7,"RT":1386,"MT":260,"sideResp":1,"stimulus":[],"xmouse":[782,782,782,782,782,783,783,783,783,783,783,783,783,783,783,783,783,783,783,783,783,783,783,783,783,783,783,783,783,783,783,783,783,783,783,783,783,783,783,783,783,783,783,783,783,783,783,783,783,783,783,783,783,783,783,783,783,783,783,783,783,783,783,783,783,783,783,771,743,714,678,625,614,606,599,594,579,571,566,561,553,531,516],"ymouse":[534,534,534,534,534,534,534,534,534,534,534,534,534,534,534,534,534,534,534,534,534,534,534,534,534,534,534,534,534,534,534,534,534,534,534,534,534,534,534,534,534,534,534,534,534,534,534,534,534,534,534,534,534,534,534,534,534,534,534,534,534,534,534,534,534,534,534,511,472,433,386,315,293,274,258,239,194,163,147,134,122,97,78],"timestamp_mouse":[9,40,46,67,86,106,127,146,166,186,207,227,247,267,286,306,326,347,367,387,406,427,446,466,486,507,527,546,567,586,607,626,646,666,687,706,726,746,766,786,806,827,846,866,886,906,926,947,966,986,1006,1026,1046,1066,1087,1112,1127,1147,1166,1186,1207,1226,1246,1266,1287,1306,1326,1347,1366,1386,1406,1427,1446,1466,1486,1506,1526,1545,1566,1587,1606,1627,1646],"xSR":741.5,"ySR":469.95,"xT1":424.9,"yT1":0,"xT2":1058.1,"yT2":0,"toosoon":0,"cond_shown":"Incongruent","ratio_trial":300,"L_num":7,"L_den":10,"R_num":8,"R_den":20,"correct_side":1,"subjID":"eyleendanielarodriguezacero7","gender":"1","school":"sexto","age":"11"},{"start_time":1551887040017,"click_time":1551887042195,"finger_time":1551887041915,"fix_duration":1261.4290374809827,"trial":8,"RT":1898,"MT":280,"sideResp":1,"stimulus":[],"xmouse":[819,819,819,819,819,819,819,819,819,819,819,819,819,819,819,819,819,819,819,819,819,819,819,819,819,819,819,819,819,819,819,819,819,819,819,819,819,819,819,819,819,819,819,819,819,819,819,819,819,819,819,819,819,819,819,819,819,819,819,819,819,819,819,819,819,819,819,819,819,819,819,819,819,819,819,819,819,819,819,819,819,819,819,819,819,819,819,819,819,819,819,819,805,761,703,659,630,620,614,607,603,589,583,574,563,547,517,503,486],"ymouse":[521,521,521,521,521,521,521,521,521,521,521,521,521,521,521,521,521,521,521,521,521,521,521,521,521,521,521,521,521,521,521,521,521,521,521,521,521,521,521,521,521,521,521,521,521,521,521,521,521,521,521,521,521,521,521,521,521,521,521,521,521,521,521,521,521,521,521,521,521,521,521,521,521,521,521,521,521,521,521,521,521,521,521,521,521,521,521,521,521,521,521,521,519,488,448,408,347,314,292,272,254,221,209,196,180,163,130,114,88],"timestamp_mouse":[18,45,59,79,99,118,138,158,179,198,218,238,259,278,298,319,338,358,379,399,420,439,459,478,499,518,538,559,579,598,619,638,659,678,698,718,738,758,779,799,818,838,858,879,899,918,938,959,978,999,1018,1039,1058,1078,1098,1119,1138,1159,1179,1198,1219,1238,1259,1278,1298,1318,1339,1358,1379,1398,1419,1439,1458,1479,1500,1518,1538,1558,1579,1598,1619,1639,1658,1679,1699,1719,1738,1759,1779,1798,1818,1839,1858,1878,1898,1918,1938,1959,1978,1998,2018,2039,2058,2078,2098,2119,2138,2159,2178],"xSR":741.5,"ySR":469.95,"xT1":424.9,"yT1":0,"xT2":1058.1,"yT2":0,"toosoon":0,"cond_shown":"Incongruent","ratio_trial":200,"L_num":7,"L_den":10,"R_num":14,"R_den":28,"correct_side":1,"subjID":"eyleendanielarodriguezacero7","gender":"1","school":"sexto","age":"11"},{"start_time":1551887048971,"click_time":1551887050956,"finger_time":1551887050595,"fix_duration":814.7032233137388,"trial":9,"RT":1624,"MT":361,"sideResp":2,"stimulus":[],"xmouse":[783,783,783,783,783,783,783,783,783,783,783,783,783,783,783,783,783,783,783,783,783,783,783,781,779,778,778,778,778,778,778,778,778,778,778,778,778,778,778,778,778,778,778,778,778,778,778,778,778,778,778,778,778,778,774,772,772,772,772,772,772,772,772,772,772,772,772,772,772,772,772,772,772,772,772,772,772,772,772,775,776,780,784,790,813,830,847,860,867,878,884,897,909,928,965,981,994,1004,1019,1115],"ymouse":[497,497,497,497,497,497,497,497,497,497,497,497,497,497,497,497,497,497,497,497,497,497,497,499,500,500,500,500,500,500,500,500,500,500,500,500,500,500,500,500,500,500,500,500,500,500,500,500,500,500,500,500,500,500,503,504,504,504,504,504,504,504,504,504,504,504,504,504,504,504,504,504,504,504,504,504,504,504,499,484,477,467,453,434,367,329,288,254,227,192,179,161,149,135,112,102,95,89,83,50],"timestamp_mouse":[10,31,44,65,85,104,124,144,164,184,204,225,245,265,284,304,324,345,365,384,404,424,445,464,485,505,524,544,564,584,604,624,644,665,684,704,724,744,764,784,804,825,844,865,884,904,925,944,965,984,1004,1024,1044,1064,1084,1105,1125,1145,1164,1184,1204,1224,1244,1264,1284,1305,1324,1344,1364,1384,1404,1424,1444,1464,1484,1504,1524,1544,1565,1584,1604,1624,1645,1664,1685,1704,1724,1744,1764,1784,1804,1824,1845,1864,1884,1903,1924,1944,1965,1985],"xSR":741.5,"ySR":469.95,"xT1":424.9,"yT1":0,"xT2":1058.1,"yT2":0,"toosoon":0,"cond_shown":"Congruent","ratio_trial":100,"L_num":15,"L_den":25,"R_num":13,"R_den":26,"correct_side":1,"subjID":"eyleendanielarodriguezacero7","gender":"1","school":"sexto","age":"11"},{"start_time":1551887053919,"click_time":1551887056017,"finger_time":1551887055716,"fix_duration":1462.2301425396345,"trial":10,"RT":1797,"MT":301,"sideResp":1,"stimulus":[],"xmouse":[771,771,771,771,771,771,771,771,771,771,771,771,771,771,771,771,771,771,771,771,771,771,771,771,771,771,771,771,771,771,771,771,771,771,771,771,771,771,771,771,771,771,771,771,771,771,771,771,771,771,771,771,771,771,771,771,771,771,771,771,771,771,771,771,771,771,771,771,771,771,771,772,774,774,774,774,774,774,774,774,774,774,774,774,774,774,772,768,764,759,752,734,711,686,652,608,561,548,537,527,517,503,493,490,488],"ymouse":[545,545,545,545,545,545,545,545,545,545,545,545,545,545,545,545,545,545,545,545,545,545,545,545,545,545,545,545,545,545,545,545,545,545,545,545,545,545,545,545,545,545,545,545,545,545,545,545,545,545,545,545,545,545,545,545,545,545,545,545,545,545,545,545,545,545,545,545,545,545,544,541,538,538,538,538,538,538,538,538,538,538,538,538,536,524,501,487,474,461,445,421,401,380,355,325,276,256,235,213,189,148,122,108,94],"timestamp_mouse":[16,46,56,76,96,116,136,156,177,197,216,237,256,276,296,316,337,356,376,397,417,437,456,476,496,516,536,556,577,597,616,637,656,676,696,717,736,756,776,797,817,837,857,876,897,917,936,956,976,997,1016,1036,1056,1077,1097,1118,1137,1156,1177,1198,1217,1237,1256,1277,1298,1317,1336,1358,1378,1397,1416,1436,1458,1477,1497,1517,1536,1556,1578,1598,1617,1638,1658,1677,1697,1717,1737,1756,1777,1797,1818,1836,1857,1876,1896,1917,1936,1956,1976,1997,2018,2036,2057,2076,2098],"xSR":741.5,"ySR":469.95,"xT1":424.9,"yT1":0,"xT2":1058.1,"yT2":0,"toosoon":0,"cond_shown":"Congruent","ratio_trial":200,"L_num":8,"L_den":15,"R_num":7,"R_den":21,"correct_side":1,"subjID":"eyleendanielarodriguezacero7","gender":"1","school":"sexto","age":"11"},{"start_time":1551887058673,"click_time":1551887060995,"finger_time":1551887060155,"fix_duration":954.8840786609267,"trial":11,"RT":1482,"MT":840,"sideResp":1,"stimulus":[],"xmouse":[765,765,765,765,765,765,765,765,765,765,765,765,765,765,765,765,765,765,765,765,765,765,765,765,765,765,765,765,765,765,765,765,765,765,765,765,765,765,765,765,765,765,765,765,765,765,765,765,765,765,765,765,765,765,765,765,765,765,765,765,765,765,765,765,765,765,765,765,765,765,765,774,795,820,860,871,874,875,876,876,876,876,876,876,876,876,876,876,876,876,876,876,876,876,876,876,876,876,876,876,862,855,848,841,829,818,800,771,727,629,589,556,533,523,511,503,499],"ymouse":[517,517,517,517,517,517,517,517,517,517,517,517,517,517,517,517,517,517,517,517,517,517,517,517,517,517,517,517,517,517,517,517,517,517,517,517,517,517,517,517,517,517,517,517,517,517,517,517,517,517,517,517,517,517,517,517,517,517,517,517,517,517,517,517,517,517,517,517,517,517,517,510,501,492,471,457,446,443,442,442,442,442,442,442,442,442,442,442,442,442,442,442,442,442,442,442,442,442,442,442,426,421,416,411,402,392,376,342,300,221,189,161,142,131,116,103,98],"timestamp_mouse":[10,31,43,63,84,102,123,143,163,183,203,222,243,262,282,303,323,343,363,383,408,423,444,462,483,502,523,542,564,583,604,622,643,663,683,702,723,744,763,783,803,824,843,862,883,903,923,943,964,984,1003,1022,1044,1063,1083,1103,1122,1144,1164,1183,1204,1224,1244,1264,1282,1304,1324,1342,1363,1383,1402,1423,1442,1462,1482,1502,1523,1543,1562,1582,1604,1623,1643,1663,1683,1702,1722,1742,1764,1783,1804,1822,1842,1863,1883,1903,1923,1942,1962,1983,2002,2023,2043,2064,2082,2103,2122,2143,2163,2183,2202,2223,2243,2262,2283,2304,2322],"xSR":741.5,"ySR":469.95,"xT1":424.9,"yT1":0,"xT2":1058.1,"yT2":0,"toosoon":0,"cond_shown":"Incongruent","ratio_trial":300,"L_num":4,"L_den":20,"R_num":2,"R_den":4,"correct_side":2,"subjID":"eyleendanielarodriguezacero7","gender":"1","school":"sexto","age":"11"},{"start_time":1551887093724,"click_time":1551887095556,"finger_time":1551887095135,"fix_duration":687.8577196873272,"trial":12,"RT":1411,"MT":421,"sideResp":1,"stimulus":[],"xmouse":[779,779,779,779,779,779,779,779,779,779,779,779,779,779,779,779,779,779,779,779,779,779,779,779,779,779,779,779,779,779,779,779,779,779,779,779,779,779,779,779,779,779,779,779,779,779,779,779,779,779,779,779,779,779,779,779,779,779,779,779,779,779,779,779,779,779,779,779,774,765,748,720,706,697,686,673,646,637,625,611,605,597,583,565,539,517,500,495,492,492,490,480],"ymouse":[489,489,489,489,489,489,489,489,489,489,489,489,489,489,489,489,489,489,489,489,489,489,489,489,489,489,489,489,489,489,489,489,489,489,489,489,489,489,489,489,489,489,489,489,489,489,489,489,489,489,489,489,489,489,489,489,489,489,489,489,489,489,489,489,489,489,489,489,481,472,464,449,433,418,400,375,328,308,283,259,247,234,217,198,178,162,139,128,119,112,103,79],"timestamp_mouse":[13,33,52,71,92,111,132,151,172,191,213,232,251,273,304,311,333,352,372,391,411,431,452,473,491,511,531,552,572,591,612,632,653,671,691,713,731,752,773,791,812,832,851,872,893,911,932,953,973,993,1012,1032,1052,1072,1092,1113,1132,1151,1172,1192,1212,1232,1253,1272,1293,1312,1331,1353,1372,1392,1411,1431,1452,1472,1493,1512,1532,1552,1571,1591,1613,1632,1651,1672,1693,1712,1732,1752,1771,1791,1813,1831],"xSR":741.5,"ySR":469.95,"xT1":424.9,"yT1":0,"xT2":1058.1,"yT2":0,"toosoon":0,"cond_shown":"Incongruent","ratio_trial":300,"L_num":8,"L_den":10,"R_num":9,"R_den":18,"correct_side":1,"subjID":"eyleendanielarodriguezacero7","gender":"1","school":"sexto","age":"11"},{"start_time":1551887098094,"click_time":1551887100356,"finger_time":1551887100036,"fix_duration":538.6279014586022,"trial":13,"RT":1942,"MT":320,"sideResp":1,"stimulus":[],"xmouse":[788,788,788,788,788,788,788,788,788,788,788,788,788,788,788,788,788,788,788,788,788,788,788,788,788,788,788,788,788,788,788,788,788,788,788,788,788,788,788,788,788,788,788,788,788,788,788,788,788,788,788,788,788,788,788,788,788,788,788,788,788,788,788,788,788,788,788,788,788,788,788,788,788,788,788,788,788,788,788,788,788,788,788,788,788,788,788,788,788,788,788,788,788,788,787,771,751,729,680,660,641,629,620,600,582,570,558,544,525,521,520,518,514,499],"ymouse":[551,551,551,551,551,551,551,551,551,551,551,551,551,551,551,551,551,551,551,551,551,551,551,551,551,551,551,551,551,551,551,551,551,551,551,551,551,551,551,551,551,551,551,551,551,551,551,551,551,551,551,551,551,551,551,551,551,551,551,551,551,551,551,551,551,551,551,551,551,551,551,551,551,551,551,551,551,551,551,551,551,551,551,551,551,551,551,551,551,551,551,551,551,551,546,537,526,508,438,392,349,320,298,253,222,202,180,156,121,116,114,111,107,85],"timestamp_mouse":[8,22,42,62,83,102,121,142,163,182,203,222,241,262,283,301,321,342,361,383,401,422,442,462,481,502,521,541,562,582,603,621,643,663,681,702,721,742,761,783,802,822,842,862,881,902,923,941,961,982,1002,1023,1042,1061,1083,1101,1121,1142,1162,1181,1203,1223,1242,1261,1282,1303,1322,1342,1362,1382,1402,1422,1442,1461,1482,1502,1522,1543,1563,1582,1602,1622,1642,1662,1681,1703,1723,1742,1762,1782,1803,1823,1841,1862,1883,1903,1923,1942,1962,1981,2003,2022,2043,2061,2081,2102,2122,2142,2162,2181,2203,2221,2242,2262],"xSR":741.5,"ySR":469.95,"xT1":424.9,"yT1":0,"xT2":1058.1,"yT2":0,"toosoon":0,"cond_shown":"Incongruent","ratio_trial":100,"L_num":3,"L_den":5,"R_num":11,"R_den":22,"correct_side":1,"subjID":"eyleendanielarodriguezacero7","gender":"1","school":"sexto","age":"11"},{"start_time":1551887102885,"click_time":1551887105857,"finger_time":1551887105636,"fix_duration":1148.9022224787363,"trial":14,"RT":2751,"MT":221,"sideResp":2,"stimulus":[],"xmouse":[820,820,820,820,820,820,820,820,820,820,820,820,820,820,820,820,820,820,820,820,820,820,820,820,820,820,820,820,820,820,820,820,820,820,820,820,820,820,820,820,820,820,820,820,820,820,820,820,820,820,820,820,820,820,820,820,820,820,820,820,820,820,820,820,820,820,820,820,820,820,820,820,820,820,820,820,820,820,820,820,820,820,820,820,820,820,820,820,820,820,820,820,820,820,820,820,820,820,820,820,820,820,820,820,820,820,820,820,820,820,820,820,820,820,820,820,820,820,820,823,826,827,827,827,827,827,827,827,827,827,827,827,827,827,827,830,836,851,923,955,969,981,985,990,1001,1010,1021,1036,1071],"ymouse":[501,501,501,501,501,501,501,501,501,501,501,501,501,501,501,501,501,501,501,501,501,501,501,501,501,501,501,501,501,501,501,501,501,501,501,501,501,501,501,501,501,501,501,501,501,501,501,501,501,501,501,501,501,501,501,501,501,501,501,501,501,501,501,501,501,501,501,501,501,501,501,501,501,501,501,501,501,501,501,501,501,501,501,501,501,501,501,501,501,501,501,501,501,501,501,501,501,501,501,501,501,501,501,501,501,501,501,501,501,501,501,501,501,501,501,501,501,501,501,501,501,500,500,500,500,500,500,500,500,500,500,500,500,500,500,497,484,456,306,243,222,205,196,188,172,159,143,123,85],"timestamp_mouse":[12,38,50,71,90,111,132,150,172,190,211,231,251,271,292,310,331,351,371,390,410,431,450,470,491,511,531,552,572,591,610,632,651,671,690,711,731,752,771,792,812,830,850,872,892,911,930,952,970,991,1011,1032,1050,1070,1092,1112,1130,1151,1171,1191,1211,1232,1251,1270,1291,1310,1331,1351,1371,1390,1410,1432,1452,1471,1490,1512,1532,1550,1571,1592,1611,1631,1651,1671,1691,1711,1731,1751,1771,1791,1811,1831,1852,1871,1890,1912,1932,1950,1970,1992,2011,2031,2051,2071,2090,2111,2131,2151,2171,2192,2212,2230,2252,2271,2290,2312,2331,2350,2370,2390,2411,2430,2452,2472,2490,2512,2531,2550,2571,2592,2611,2631,2650,2671,2690,2711,2731,2751,2771,2790,2810,2831,2850,2870,2891,2911,2930,2951,2972],"xSR":741.5,"ySR":469.95,"xT1":424.9,"yT1":0,"xT2":1058.1,"yT2":0,"toosoon":0,"cond_shown":"Incongruent","ratio_trial":100,"L_num":10,"L_den":25,"R_num":9,"R_den":18,"correct_side":2,"subjID":"eyleendanielarodriguezacero7","gender":"1","school":"sexto","age":"11"},{"start_time":1551887108407,"click_time":1551887111395,"finger_time":1551887110916,"fix_duration":1050.8019044188757,"trial":15,"RT":2509,"MT":479,"sideResp":1,"stimulus":[],"xmouse":[761,761,761,761,761,761,761,761,761,761,761,761,761,761,761,761,761,761,761,761,761,761,761,761,761,761,761,761,761,761,761,761,761,761,761,761,761,761,761,761,761,761,761,761,761,761,761,761,761,761,761,761,761,761,761,761,761,761,761,761,761,761,761,761,761,761,761,761,761,761,761,761,761,761,761,761,761,761,761,761,761,761,761,761,761,761,761,761,761,761,761,761,761,761,761,761,761,761,761,761,761,761,761,761,761,761,761,761,761,761,761,761,761,761,761,761,761,761,761,761,761,761,761,757,751,745,736,718,705,697,692,687,677,670,658,640,623,596,581,573,564,556,543,540,537,536,535,530,525,521],"ymouse":[488,488,488,488,488,488,488,488,488,488,488,488,488,488,488,488,488,488,488,488,488,488,488,488,488,488,488,488,488,488,488,488,488,488,488,488,488,488,488,488,488,488,488,488,488,488,488,488,488,488,488,488,488,488,488,488,488,488,488,488,488,488,488,488,488,488,488,488,488,488,488,488,488,488,488,488,488,488,488,488,488,488,488,488,488,488,488,488,488,488,488,488,488,488,488,488,488,488,488,488,488,488,488,488,488,488,488,488,488,488,488,488,488,488,488,488,488,488,488,488,488,488,487,481,473,462,450,422,403,393,384,377,363,355,338,311,286,242,218,202,185,169,144,137,131,126,122,109,97,88],"timestamp_mouse":[10,31,48,73,89,110,129,149,169,190,209,229,250,270,288,309,329,349,370,390,409,428,449,469,489,508,529,549,568,589,609,629,648,669,688,710,728,748,769,790,809,829,849,869,889,910,929,948,969,988,1010,1029,1049,1069,1090,1110,1128,1148,1169,1189,1210,1229,1248,1268,1289,1308,1329,1349,1368,1388,1410,1428,1449,1470,1488,1510,1530,1549,1570,1588,1610,1629,1649,1670,1690,1709,1729,1749,1768,1790,1809,1828,1849,1869,1888,1909,1929,1949,1968,1990,2010,2029,2049,2069,2089,2108,2129,2148,2168,2189,2209,2229,2249,2269,2289,2309,2329,2348,2369,2388,2410,2429,2449,2469,2489,2509,2529,2549,2569,2589,2610,2629,2648,2668,2689,2709,2729,2749,2769,2788,2809,2829,2848,2869,2889,2909,2930,2948,2969,2988],"xSR":741.5,"ySR":469.95,"xT1":424.9,"yT1":0,"xT2":1058.1,"yT2":0,"toosoon":0,"cond_shown":"Incongruent","ratio_trial":100,"L_num":4,"L_den":8,"R_num":8,"R_den":20,"correct_side":1,"subjID":"eyleendanielarodriguezacero7","gender":"1","school":"sexto","age":"11"},{"start_time":1551887113922,"click_time":1551887115737,"finger_time":1551887115356,"fix_duration":1206.261586358097,"trial":16,"RT":1434,"MT":381,"sideResp":1,"stimulus":[],"xmouse":[822,822,822,822,822,822,822,822,822,822,822,822,822,822,822,822,822,822,822,822,822,822,822,822,822,822,822,822,822,822,822,822,822,822,822,822,822,822,822,822,822,822,822,822,822,822,822,822,822,822,822,822,822,822,822,822,822,822,822,822,822,822,822,822,822,822,822,822,816,809,781,734,722,706,684,643,612,580,566,554,544,535,531,526,525,524,524,522,517,512,506],"ymouse":[525,525,525,525,525,525,525,525,525,525,525,525,525,525,525,525,525,525,525,525,525,525,525,525,525,525,525,525,525,525,525,525,525,525,525,525,525,525,525,525,525,525,525,525,525,525,525,525,525,525,525,525,525,525,525,525,525,525,525,525,525,525,525,525,525,525,525,525,521,519,514,497,487,469,429,337,288,244,228,212,196,172,160,149,145,143,141,135,120,103,88],"timestamp_mouse":[15,34,54,73,94,114,133,154,173,194,214,233,254,273,295,314,334,354,374,395,414,434,454,473,494,513,534,553,575,594,613,634,655,674,694,714,734,753,773,795,814,833,855,874,894,915,934,955,974,995,1015,1034,1053,1074,1095,1115,1134,1154,1174,1195,1214,1234,1254,1275,1294,1315,1335,1354,1375,1394,1415,1434,1454,1474,1494,1514,1534,1554,1574,1594,1614,1634,1655,1673,1694,1714,1734,1754,1775,1794,1815],"xSR":741.5,"ySR":469.95,"xT1":424.9,"yT1":0,"xT2":1058.1,"yT2":0,"toosoon":0,"cond_shown":"Incongruent","ratio_trial":200,"L_num":7,"L_den":10,"R_num":8,"R_den":16,"correct_side":1,"subjID":"eyleendanielarodriguezacero7","gender":"1","school":"sexto","age":"11"},{"start_time":1551887118429,"click_time":1551887120516,"finger_time":1551887120156,"fix_duration":1250.287891304762,"trial":17,"RT":1727,"MT":360,"sideResp":1,"stimulus":[],"xmouse":[780,780,780,780,780,780,780,780,780,782,785,787,787,787,787,787,787,787,787,788,789,790,790,791,791,791,791,791,791,791,791,791,791,791,791,791,791,791,791,791,791,791,791,791,791,791,791,791,791,791,791,791,791,791,791,791,791,791,791,791,791,791,791,791,791,791,791,791,791,791,791,791,791,791,791,791,791,791,791,791,792,789,784,775,762,744,704,681,663,643,615,578,570,566,562,558,551,547,542,536,533,530,527,525,521],"ymouse":[559,559,559,559,559,559,559,559,559,557,554,551,551,551,551,551,551,551,551,550,549,547,546,545,545,545,545,545,545,545,545,545,545,545,545,545,545,545,545,545,545,545,545,545,545,545,545,545,545,545,545,545,545,545,545,545,545,545,545,545,545,545,545,545,545,545,545,545,545,545,545,545,545,545,545,545,545,545,545,545,544,538,535,530,524,517,499,484,469,441,396,344,330,318,305,285,241,210,192,177,165,142,125,109,95],"timestamp_mouse":[8,39,48,67,88,108,127,148,167,188,207,227,247,267,288,308,327,347,368,387,408,428,448,467,488,508,528,548,567,588,607,627,647,667,688,707,727,747,767,787,807,827,847,868,887,907,928,947,968,987,1007,1027,1048,1067,1087,1107,1128,1147,1167,1187,1208,1227,1247,1267,1287,1307,1327,1348,1367,1387,1407,1427,1448,1467,1487,1507,1527,1548,1568,1588,1607,1627,1647,1667,1687,1707,1727,1747,1767,1787,1807,1827,1847,1867,1888,1907,1927,1947,1967,1987,2007,2027,2048,2067,2087],"xSR":741.5,"ySR":469.95,"xT1":424.9,"yT1":0,"xT2":1058.1,"yT2":0,"toosoon":0,"cond_shown":"Congruent","ratio_trial":200,"L_num":6,"L_den":15,"R_num":3,"R_den":15,"correct_side":1,"subjID":"eyleendanielarodriguezacero7","gender":"1","school":"sexto","age":"11"},{"start_time":1551887122549,"click_time":1551887124696,"finger_time":1551887124216,"fix_duration":891.1504452079763,"trial":18,"RT":1667,"MT":480,"sideResp":2,"stimulus":[],"xmouse":[793,793,793,793,793,793,793,793,793,793,793,793,793,793,793,793,793,794,794,794,794,794,794,794,794,794,794,794,794,794,794,794,794,794,794,794,794,794,794,794,794,794,794,794,794,794,794,794,794,794,794,794,794,794,794,794,794,794,794,794,794,794,794,794,794,794,794,794,794,794,794,794,794,794,794,794,794,794,794,794,808,822,835,845,855,880,890,897,901,906,929,939,946,953,958,963,967,973,981,988,1000,1007,1010,1014,1018,1040,1057,1074],"ymouse":[547,547,547,547,547,547,547,547,547,547,547,547,547,547,547,547,547,547,547,547,547,547,547,547,547,547,547,547,547,547,547,547,547,547,547,547,547,547,547,547,547,547,547,547,547,547,547,547,547,547,547,547,547,547,547,547,547,547,547,547,547,547,547,547,547,547,547,547,547,547,547,547,547,547,547,547,547,547,547,546,540,533,527,521,513,492,483,477,472,468,391,360,339,320,308,288,273,252,227,206,168,146,136,125,115,88,76,69],"timestamp_mouse":[10,39,47,68,87,108,128,147,167,187,208,227,247,267,287,308,327,347,368,387,407,428,448,467,488,507,527,548,567,587,607,627,647,667,687,707,728,747,767,787,807,827,848,867,888,907,927,948,967,987,1007,1027,1047,1067,1088,1107,1128,1147,1167,1187,1207,1227,1247,1268,1288,1307,1327,1348,1368,1387,1407,1428,1447,1468,1487,1508,1528,1548,1567,1588,1607,1627,1647,1667,1687,1707,1728,1747,1767,1788,1808,1828,1847,1868,1887,1907,1928,1947,1967,1988,2007,2028,2046,2068,2087,2107,2128,2147],"xSR":741.5,"ySR":469.95,"xT1":424.9,"yT1":0,"xT2":1058.1,"yT2":0,"toosoon":0,"cond_shown":"Incongruent","ratio_trial":100,"L_num":2,"L_den":4,"R_num":8,"R_den":20,"correct_side":1,"subjID":"eyleendanielarodriguezacero7","gender":"1","school":"sexto","age":"11"},{"start_time":1551887127232,"click_time":1551887129677,"finger_time":1551887129396,"fix_duration":334.78947658682887,"trial":19,"RT":2164,"MT":281,"sideResp":2,"stimulus":[],"xmouse":[796,796,796,796,796,796,796,796,796,796,796,796,796,796,796,796,796,796,796,796,796,796,796,796,796,796,796,796,796,796,796,796,796,796,796,796,796,796,796,796,796,796,796,796,796,796,796,796,796,796,796,796,796,796,796,796,796,796,796,796,796,796,796,796,796,796,796,796,796,796,796,796,796,796,796,796,796,796,796,796,790,771,758,750,749,749,749,749,749,749,749,749,749,749,749,749,749,749,751,757,762,771,774,776,780,784,796,807,834,853,879,926,942,963,978,991,1013,1023,1027,1031,1036,1050,1063],"ymouse":[556,556,556,556,556,556,556,556,556,556,556,556,556,556,556,556,556,556,556,556,556,556,556,556,556,556,556,556,556,556,556,556,556,556,556,556,556,556,556,556,556,556,556,556,556,556,556,556,556,556,556,556,556,556,556,556,556,556,556,556,556,556,556,556,556,556,556,556,556,556,556,556,556,556,556,556,556,556,556,556,556,554,552,551,550,550,550,550,550,550,550,550,550,550,550,550,550,550,549,547,546,541,538,536,533,529,510,495,416,375,336,263,237,206,185,168,140,124,119,114,109,99,89],"timestamp_mouse":[11,24,44,64,85,104,124,144,164,184,204,224,245,264,285,305,324,344,365,384,405,424,444,464,484,505,524,545,564,584,604,624,645,664,684,704,724,744,765,785,805,824,844,864,884,904,924,944,964,985,1005,1024,1045,1064,1084,1105,1124,1144,1165,1185,1205,1224,1244,1265,1284,1305,1325,1345,1364,1384,1408,1424,1444,1464,1485,1505,1524,1544,1564,1584,1605,1624,1644,1664,1684,1705,1724,1744,1764,1784,1804,1824,1845,1865,1885,1904,1924,1944,1964,1984,2004,2024,2044,2064,2084,2104,2124,2144,2164,2185,2204,2224,2244,2264,2284,2305,2324,2345,2364,2385,2404,2425,2445],"xSR":741.5,"ySR":469.95,"xT1":424.9,"yT1":0,"xT2":1058.1,"yT2":0,"toosoon":0,"cond_shown":"Incongruent","ratio_trial":100,"L_num":9,"L_den":18,"R_num":6,"R_den":10,"correct_side":2,"subjID":"eyleendanielarodriguezacero7","gender":"1","school":"sexto","age":"11"},{"start_time":1551887133483,"click_time":1551887136897,"finger_time":1551887135256,"fix_duration":705.1434717421449,"trial":20,"RT":1773,"MT":1641,"sideResp":1,"stimulus":[],"xmouse":[821,821,821,821,821,821,821,821,821,821,821,821,821,821,821,821,821,821,821,821,821,821,821,821,821,821,821,821,821,821,821,821,821,821,821,821,821,821,821,821,821,821,821,821,821,821,821,821,821,821,821,821,821,821,821,821,821,821,821,821,821,821,821,821,821,821,821,821,820,820,820,820,820,820,820,820,820,820,820,820,820,820,820,820,820,820,825,832,842,850,861,873,882,892,897,901,909,916,930,938,946,953,962,976,982,986,987,989,992,993,995,997,999,1005,1007,1010,1011,1014,1018,1019,1020,1022,1025,1027,1029,1030,1031,1032,1034,1036,1036,1037,1037,1037,1037,1037,1037,1038,1041,1043,1044,1045,1045,1045,1046,1046,1046,1046,1046,1046,1046,1046,1046,1038,989,896,764,618,499,383,375,375,375,374,374,374,378,385,417,430,440],"ymouse":[508,508,508,508,508,508,508,508,508,508,508,508,508,508,508,508,508,508,508,508,508,508,508,508,508,508,508,508,508,508,508,508,508,508,508,508,508,508,508,508,508,508,508,508,508,508,508,508,508,508,508,508,508,508,508,508,508,508,508,508,508,508,508,508,508,508,508,508,508,508,508,508,508,508,508,508,508,508,508,508,508,508,508,508,508,506,502,492,482,470,453,438,426,415,408,401,392,380,359,345,327,318,309,286,277,269,265,260,256,253,249,244,239,230,226,220,217,212,207,204,202,200,196,194,192,191,190,188,184,182,182,181,181,180,180,180,180,179,176,176,174,174,173,173,172,172,172,172,172,172,172,172,172,178,196,213,226,230,230,229,227,227,227,227,227,221,204,182,123,103,89],"timestamp_mouse":[13,45,53,73,93,113,133,153,174,193,213,234,253,273,294,313,334,355,373,394,413,434,453,474,493,513,534,554,574,594,613,633,653,673,693,713,733,753,773,794,813,833,854,873,893,913,933,953,973,993,1014,1034,1053,1073,1093,1113,1134,1153,1175,1193,1213,1233,1253,1273,1293,1313,1333,1353,1373,1393,1414,1434,1453,1473,1494,1513,1534,1553,1573,1594,1614,1633,1654,1674,1693,1713,1733,1753,1773,1793,1813,1833,1853,1873,1893,1913,1933,1953,1972,1994,2013,2033,2053,2073,2093,2113,2133,2153,2174,2194,2213,2233,2253,2273,2293,2313,2334,2353,2373,2393,2413,2433,2454,2473,2493,2513,2533,2553,2574,2593,2613,2634,2653,2673,2693,2713,2734,2753,2774,2793,2813,2833,2853,2873,2894,2914,2933,2954,2973,2993,3013,3034,3054,3073,3093,3113,3133,3152,3172,3193,3214,3234,3254,3273,3293,3313,3333,3353,3373,3393,3414],"xSR":741.5,"ySR":469.95,"xT1":424.9,"yT1":0,"xT2":1058.1,"yT2":0,"toosoon":0,"cond_shown":"Congruent","ratio_trial":300,"L_num":24,"L_den":30,"R_num":2,"R_den":4,"correct_side":1,"subjID":"eyleendanielarodriguezacero7","gender":"1","school":"sexto","age":"11"},{"start_time":1551887141074,"click_time":1551887142918,"finger_time":1551887142556,"fix_duration":1276.0323058866238,"trial":21,"RT":1482,"MT":362,"sideResp":2,"stimulus":[],"xmouse":[777,777,777,777,777,777,777,777,777,777,777,777,777,777,777,777,777,777,777,777,777,777,777,777,777,777,777,777,777,777,777,777,777,777,777,777,777,777,777,777,777,777,777,777,777,777,777,777,777,777,777,777,777,777,777,777,777,777,777,777,777,777,777,777,777,777,777,777,777,777,777,777,777,784,809,842,881,914,935,963,971,978,986,995,1015,1025,1030,1033,1036,1049,1059,1071,1082],"ymouse":[511,511,511,511,511,511,511,511,511,511,511,511,511,511,511,511,511,511,511,511,511,511,511,511,511,511,511,511,511,511,511,511,511,511,511,511,511,511,511,511,511,511,511,511,511,511,511,511,511,511,511,511,511,511,511,511,511,511,511,511,511,511,511,511,511,511,511,511,511,511,511,511,507,499,468,434,381,334,306,272,262,252,241,228,200,186,178,171,166,144,128,111,95],"timestamp_mouse":[10,32,42,63,82,103,123,143,162,182,202,222,242,263,282,302,322,342,362,382,403,422,442,462,482,502,523,542,562,583,602,622,643,662,683,702,723,743,762,782,803,822,842,863,882,903,922,943,963,982,1002,1022,1043,1062,1082,1103,1122,1142,1162,1182,1202,1223,1242,1263,1282,1302,1322,1343,1362,1382,1403,1423,1442,1462,1482,1502,1522,1543,1562,1582,1603,1622,1643,1662,1681,1702,1722,1742,1762,1782,1802,1822,1843],"xSR":741.5,"ySR":469.95,"xT1":424.9,"yT1":0,"xT2":1058.1,"yT2":0,"toosoon":0,"cond_shown":"Congruent","ratio_trial":300,"L_num":2,"L_den":20,"R_num":10,"R_den":25,"correct_side":2,"subjID":"eyleendanielarodriguezacero7","gender":"1","school":"sexto","age":"11"},{"start_time":1551887145566,"click_time":1551887147156,"finger_time":1551887146856,"fix_duration":1247.7844581581603,"trial":22,"RT":1290,"MT":300,"sideResp":2,"stimulus":[],"xmouse":[802,802,802,802,802,802,802,802,802,802,802,802,802,802,802,802,802,802,802,802,802,802,802,802,802,802,802,802,802,802,802,802,802,802,802,802,802,802,802,802,802,802,802,802,802,802,802,802,802,802,802,802,802,802,802,802,802,802,802,802,802,801,806,822,859,872,886,893,902,917,928,936,945,953,970,979,994,1017,1039,1074],"ymouse":[498,498,498,498,498,498,498,498,498,498,498,498,498,498,498,498,498,498,498,498,498,498,498,498,498,498,498,498,498,498,498,498,498,498,498,498,498,498,498,498,498,498,498,498,498,498,498,498,498,498,498,498,498,498,498,498,498,498,498,498,498,496,489,478,441,417,373,348,326,291,267,249,233,219,194,183,166,144,125,95],"timestamp_mouse":[10,38,50,70,90,110,130,150,170,191,211,230,250,271,290,311,330,350,370,391,411,430,450,471,490,510,531,550,570,591,610,631,651,670,690,710,731,750,771,790,811,830,850,871,891,910,930,950,971,991,1011,1031,1050,1070,1090,1110,1130,1151,1170,1191,1210,1230,1250,1270,1290,1311,1330,1350,1370,1390,1410,1430,1451,1470,1490,1509,1530,1550,1571,1590],"xSR":741.5,"ySR":469.95,"xT1":424.9,"yT1":0,"xT2":1058.1,"yT2":0,"toosoon":0,"cond_shown":"Congruent","ratio_trial":300,"L_num":1,"L_den":5,"R_num":6,"R_den":12,"correct_side":2,"subjID":"eyleendanielarodriguezacero7","gender":"1","school":"sexto","age":"11"},{"start_time":1551887148569,"click_time":1551887150956,"finger_time":1551887150596,"fix_duration":250,"trial":23,"RT":2027,"MT":360,"sideResp":2,"stimulus":[],"xmouse":[763,763,763,763,763,763,763,763,763,763,763,763,763,763,763,763,763,763,763,763,763,763,763,763,763,763,763,763,763,763,763,763,763,763,763,763,763,763,763,763,763,763,763,763,763,763,763,763,763,763,763,763,763,763,763,763,763,763,763,763,763,763,763,763,763,763,763,763,763,763,763,763,763,763,763,763,763,763,763,763,763,763,763,763,763,763,763,763,763,763,763,763,763,763,765,766,769,773,782,819,837,853,871,889,936,953,965,978,986,995,1009,1019,1031,1046,1071,1080,1084,1089,1092,1102],"ymouse":[538,538,538,538,538,538,538,538,538,538,538,538,538,538,538,538,538,538,538,538,538,538,538,538,538,538,538,538,538,538,538,538,538,538,538,538,538,538,538,538,538,538,538,538,538,538,538,538,538,538,538,538,538,538,538,538,538,538,538,538,538,538,538,538,538,538,538,538,538,538,538,538,538,538,538,538,538,538,538,538,538,538,538,538,538,538,538,538,538,538,538,538,538,538,538,538,538,535,528,493,473,454,430,409,357,337,321,306,296,285,270,258,238,214,157,135,120,110,101,81],"timestamp_mouse":[10,33,47,67,88,107,128,147,168,187,207,227,247,267,288,307,327,347,367,387,407,427,447,467,487,508,527,548,567,587,607,627,647,667,687,707,727,748,767,787,808,828,848,867,888,908,928,947,967,987,1008,1028,1047,1067,1087,1108,1128,1147,1167,1187,1207,1227,1247,1267,1287,1307,1327,1348,1367,1387,1407,1428,1448,1467,1487,1507,1528,1548,1567,1587,1607,1628,1647,1667,1687,1708,1728,1748,1768,1787,1808,1828,1848,1867,1887,1907,1927,1947,1968,1987,2008,2027,2047,2067,2087,2108,2127,2147,2167,2187,2208,2227,2247,2267,2287,2307,2327,2347,2367,2387],"xSR":741.5,"ySR":469.95,"xT1":424.9,"yT1":0,"xT2":1058.1,"yT2":0,"toosoon":0,"cond_shown":"Incongruent","ratio_trial":100,"L_num":2,"L_den":4,"R_num":8,"R_den":20,"correct_side":1,"subjID":"eyleendanielarodriguezacero7","gender":"1","school":"sexto","age":"11"},{"start_time":1551887154983,"click_time":1551887158696,"finger_time":1551887156276,"fix_duration":1285.4386628700536,"trial":24,"RT":1293,"MT":2420,"sideResp":1,"stimulus":[],"xmouse":[820,818,818,818,818,818,818,818,818,818,818,818,818,818,818,818,818,818,818,818,818,818,818,818,818,818,818,818,818,818,818,818,818,818,818,818,818,818,818,818,818,818,818,818,818,818,818,818,818,818,818,818,818,818,818,818,818,818,818,818,818,818,819,825,831,838,850,862,883,898,910,922,933,951,955,958,958,958,958,958,958,958,958,958,958,958,958,958,958,958,958,958,958,958,958,958,958,958,958,958,958,958,958,958,960,962,964,965,966,966,966,966,966,966,966,966,966,966,966,967,968,969,969,969,969,969,969,969,969,969,969,969,970,970,971,971,971,971,971,971,971,971,971,971,971,971,971,971,972,973,973,973,973,973,973,973,973,973,973,973,973,971,968,942,918,893,873,858,840,834,831,828,823,798,778,752,722,686,624,593,577,565,557,544,535,524],"ymouse":[544,544,544,544,544,544,544,544,544,544,544,544,544,544,544,544,544,544,544,544,544,544,544,544,544,544,544,544,544,544,544,544,544,544,544,544,544,544,544,544,544,544,544,544,544,544,544,544,544,544,544,544,544,544,544,542,539,534,523,521,518,516,510,483,462,439,410,383,344,319,304,292,278,262,258,256,256,256,256,256,256,256,256,256,256,256,256,256,256,256,256,256,256,256,256,256,256,256,256,256,256,256,256,256,253,251,247,245,243,243,243,243,243,243,243,243,243,243,243,242,241,240,238,238,238,238,238,238,238,238,238,238,237,237,236,236,236,236,236,236,236,236,236,236,236,236,236,236,235,234,234,234,234,234,234,234,234,234,234,234,234,234,234,237,238,239,239,239,239,239,239,239,238,232,227,219,211,200,183,173,166,158,150,132,116,99],"timestamp_mouse":[13,39,53,73,93,113,134,153,173,193,213,233,253,273,293,313,333,353,373,393,413,434,453,473,493,513,533,553,573,593,613,633,653,673,693,713,733,753,774,793,813,833,853,873,893,914,934,953,973,993,1013,1034,1054,1073,1094,1114,1133,1153,1173,1194,1213,1233,1253,1273,1293,1313,1333,1353,1373,1393,1413,1434,1453,1473,1493,1513,1534,1553,1573,1594,1614,1633,1653,1673,1693,1714,1733,1753,1773,1794,1813,1833,1854,1874,1893,1913,1933,1954,1973,1993,2013,2033,2053,2074,2093,2113,2133,2153,2173,2193,2213,2233,2253,2273,2293,2313,2334,2353,2373,2394,2413,2433,2454,2473,2493,2513,2533,2554,2574,2593,2613,2633,2653,2673,2694,2714,2733,2754,2773,2793,2813,2834,2853,2873,2894,2914,2934,2953,2973,2993,3013,3033,3054,3074,3094,3113,3133,3154,3173,3193,3213,3234,3253,3273,3293,3314,3333,3353,3373,3394,3413,3433,3453,3473,3493,3513,3533,3553,3573,3594,3613,3633,3653,3672,3693,3713],"xSR":741.5,"ySR":469.95,"xT1":424.9,"yT1":0,"xT2":1058.1,"yT2":0,"toosoon":0,"cond_shown":"Incongruent","ratio_trial":200,"L_num":4,"L_den":30,"R_num":1,"R_den":3,"correct_side":2,"subjID":"eyleendanielarodriguezacero7","gender":"1","school":"sexto","age":"11"},{"start_time":1551887161100,"click_time":1551887162777,"finger_time":1551887162497,"fix_duration":1082.4661363631394,"trial":25,"RT":1397,"MT":280,"sideResp":1,"stimulus":[],"xmouse":[775,775,775,775,775,775,775,775,775,775,775,775,775,775,775,775,775,775,775,775,775,775,775,775,775,775,775,775,775,775,775,775,775,775,775,775,775,775,775,775,775,775,775,775,775,775,775,775,775,775,775,775,775,775,775,775,775,775,775,775,775,775,775,775,775,775,774,763,746,732,714,701,679,664,654,639,630,604,590,577,563,549,528,524],"ymouse":[526,526,526,526,526,526,526,526,526,526,526,526,526,526,526,526,526,526,526,526,526,526,526,526,526,526,526,526,526,526,526,526,526,526,526,526,526,526,526,526,526,526,526,526,526,526,526,526,526,526,526,526,526,526,526,526,526,526,526,526,526,526,526,526,526,526,524,514,499,481,461,441,385,341,298,250,223,181,163,148,133,118,88,82],"timestamp_mouse":[16,41,56,77,97,116,136,157,176,196,216,236,257,276,296,317,336,356,377,396,417,436,456,477,497,516,536,557,576,597,616,636,656,677,696,716,736,756,777,796,817,836,856,876,896,916,936,957,977,997,1017,1037,1056,1076,1096,1116,1136,1156,1177,1197,1216,1236,1256,1277,1296,1317,1336,1356,1376,1397,1416,1436,1456,1477,1496,1517,1536,1556,1577,1596,1616,1637,1656,1677],"xSR":741.5,"ySR":469.95,"xT1":424.9,"yT1":0,"xT2":1058.1,"yT2":0,"toosoon":0,"cond_shown":"Congruent","ratio_trial":300,"L_num":20,"L_den":25,"R_num":9,"R_den":18,"correct_side":1,"subjID":"eyleendanielarodriguezacero7","gender":"1","school":"sexto","age":"11"},{"start_time":1551887164839,"click_time":1551887168317,"finger_time":1551887168056,"fix_duration":1081.257973330608,"trial":26,"RT":3217,"MT":261,"sideResp":1,"stimulus":[],"xmouse":[783,783,783,783,783,783,783,783,783,783,783,783,783,783,783,783,783,783,783,783,783,783,783,783,783,783,783,783,783,783,783,783,783,783,783,783,783,783,783,783,783,783,783,783,783,783,783,783,783,783,783,783,783,783,783,783,783,783,783,783,783,783,783,783,783,783,783,783,783,783,783,783,783,783,783,783,783,783,783,783,783,783,783,783,783,783,783,783,783,783,783,783,783,783,783,783,783,783,783,783,783,783,783,783,783,783,783,783,783,783,783,783,783,783,783,783,783,783,783,783,783,783,783,783,783,783,783,783,783,783,783,783,783,783,783,783,783,783,783,783,783,783,783,783,783,783,783,783,783,783,783,783,783,783,783,783,783,782,763,708,693,681,669,652,620,585,566,545,531,513,505,497,489],"ymouse":[542,542,542,542,542,542,542,542,542,542,542,542,542,542,542,542,542,542,542,542,542,542,542,542,542,542,542,542,542,542,542,542,542,542,542,542,542,542,542,542,542,542,542,542,542,542,542,542,542,542,542,542,542,542,542,542,542,542,542,542,542,542,542,542,542,542,542,542,542,542,542,542,542,542,542,542,542,542,542,542,542,542,542,542,542,542,542,542,542,542,542,542,542,542,542,542,542,542,542,542,542,542,542,542,542,542,542,542,542,542,542,542,542,542,542,542,542,542,542,542,542,542,542,542,542,542,542,542,542,542,542,542,542,542,542,542,542,542,542,542,542,542,542,542,542,542,542,542,542,542,542,542,542,542,542,542,534,513,474,402,385,372,359,342,309,274,252,230,212,170,144,117,94],"timestamp_mouse":[37,57,77,98,117,137,158,178,197,217,238,257,278,297,317,337,357,378,397,417,438,457,477,497,517,538,557,577,598,617,638,658,677,697,718,737,758,778,797,817,837,857,878,897,917,937,957,977,997,1017,1037,1058,1077,1097,1117,1137,1157,1177,1197,1217,1237,1258,1278,1298,1317,1337,1358,1378,1397,1417,1437,1457,1477,1498,1517,1538,1558,1577,1598,1617,1637,1657,1678,1698,1717,1737,1758,1777,1797,1817,1838,1858,1878,1897,1917,1937,1958,1977,1998,2017,2038,2057,2078,2098,2117,2138,2158,2178,2197,2217,2237,2257,2277,2297,2317,2337,2358,2377,2397,2417,2437,2458,2477,2497,2517,2538,2558,2578,2598,2617,2638,2657,2678,2697,2717,2737,2757,2778,2797,2817,2837,2857,2878,2897,2917,2938,2958,2977,2998,3017,3037,3058,3077,3097,3117,3138,3157,3178,3197,3217,3237,3257,3278,3297,3317,3338,3357,3377,3397,3417,3437,3458,3477],"xSR":741.5,"ySR":469.95,"xT1":424.9,"yT1":0,"xT2":1058.1,"yT2":0,"toosoon":0,"cond_shown":"Incongruent","ratio_trial":200,"L_num":7,"L_den":10,"R_num":12,"R_den":24,"correct_side":1,"subjID":"eyleendanielarodriguezacero7","gender":"1","school":"sexto","age":"11"},{"start_time":1551887170887,"click_time":1551887172656,"finger_time":1551887172456,"fix_duration":1489.2098294454288,"trial":27,"RT":1569,"MT":200,"sideResp":1,"stimulus":[],"xmouse":[777,777,777,777,777,777,777,777,777,777,777,777,777,777,777,777,777,777,777,777,777,777,777,777,777,777,777,777,777,777,777,777,777,777,777,777,777,777,777,777,777,777,777,777,777,777,777,777,777,777,777,777,777,777,777,777,777,777,777,777,777,777,777,777,777,777,777,777,777,777,777,777,777,777,775,766,757,744,715,698,680,669,664,653,649,631,604,549,495],"ymouse":[511,511,511,511,511,511,511,511,511,511,511,511,511,511,511,511,511,511,511,511,511,511,511,511,511,511,511,511,511,511,511,511,511,511,511,511,511,511,511,511,511,511,511,511,511,511,511,511,511,511,511,511,511,511,511,511,511,511,511,511,511,511,511,511,511,511,511,511,511,511,511,511,511,511,507,501,493,476,423,392,373,366,359,329,320,292,224,113,36],"timestamp_mouse":[9,37,50,70,89,109,129,149,170,189,209,229,249,269,289,309,330,350,370,390,409,429,450,469,490,510,530,550,569,590,610,630,649,669,689,709,729,749,769,789,809,829,849,869,890,909,930,949,969,989,1009,1029,1050,1069,1090,1109,1131,1150,1169,1189,1210,1229,1249,1269,1289,1309,1330,1349,1369,1389,1409,1429,1450,1469,1489,1509,1529,1549,1569,1589,1609,1629,1650,1669,1690,1709,1731,1749,1769],"xSR":741.5,"ySR":469.95,"xT1":424.9,"yT1":0,"xT2":1058.1,"yT2":0,"toosoon":0,"cond_shown":"Congruent","ratio_trial":100,"L_num":10,"L_den":25,"R_num":3,"R_den":10,"correct_side":1,"subjID":"eyleendanielarodriguezacero7","gender":"1","school":"sexto","age":"11"},{"start_time":1551887174707,"click_time":1551887176296,"finger_time":1551887175937,"fix_duration":569.1951789326815,"trial":28,"RT":1230,"MT":359,"sideResp":2,"stimulus":[],"xmouse":[797,797,797,797,797,797,797,797,797,797,797,797,797,797,797,797,797,797,797,797,797,797,797,797,797,797,797,797,797,797,797,797,797,797,797,797,797,797,797,797,797,797,797,797,797,797,797,797,797,797,797,797,797,797,797,797,798,807,818,829,838,849,877,915,942,966,989,1015,1024,1033,1037,1040,1051,1058,1060,1062,1065,1074,1083,1089],"ymouse":[488,488,488,488,488,488,488,488,488,488,488,488,488,488,488,488,488,488,488,488,488,488,488,488,488,488,488,488,488,488,488,488,488,488,488,488,488,488,488,488,488,488,488,488,488,488,488,488,488,488,488,488,488,488,488,488,489,489,489,484,479,473,453,425,402,379,359,321,301,277,250,223,191,170,155,139,127,112,102,96],"timestamp_mouse":[10,34,49,69,89,109,129,149,169,189,210,229,249,269,289,310,329,349,369,390,410,430,449,469,491,510,530,550,570,590,609,629,649,669,689,709,729,749,770,789,809,831,849,869,890,911,929,950,970,990,1009,1030,1050,1071,1089,1109,1129,1149,1169,1189,1209,1230,1249,1270,1289,1309,1329,1349,1369,1389,1410,1429,1449,1469,1489,1510,1529,1550,1570,1589],"xSR":741.5,"ySR":469.95,"xT1":424.9,"yT1":0,"xT2":1058.1,"yT2":0,"toosoon":0,"cond_shown":"Incongruent","ratio_trial":300,"L_num":13,"L_den":26,"R_num":12,"R_den":15,"correct_side":2,"subjID":"eyleendanielarodriguezacero7","gender":"1","school":"sexto","age":"11"},{"start_time":1551887178384,"click_time":1551887180956,"finger_time":1551887180656,"fix_duration":805.0128378231491,"trial":29,"RT":2272,"MT":300,"sideResp":1,"stimulus":[],"xmouse":[820,820,820,820,820,820,820,820,820,820,820,820,820,820,820,820,820,820,820,820,820,820,820,820,820,820,820,820,820,820,820,820,820,820,820,820,820,820,820,820,820,820,820,820,820,820,820,820,820,820,820,820,820,820,820,820,820,820,820,820,820,820,820,820,820,820,820,820,820,820,820,820,820,820,820,820,820,820,820,820,820,820,820,820,820,820,820,820,820,820,820,820,820,820,820,820,820,820,820,820,820,820,815,808,804,794,779,771,762,759,757,756,752,740,733,721,712,700,665,629,603,582,562,534,528,524,522,520,519],"ymouse":[534,534,534,534,534,534,534,534,534,534,534,534,534,534,534,534,534,534,534,534,534,534,534,534,534,534,534,534,534,534,534,534,534,534,534,534,534,534,534,534,534,534,534,534,534,534,534,534,534,534,534,534,534,534,534,534,534,534,534,534,534,534,534,534,534,534,534,534,534,534,534,534,534,534,534,534,534,534,534,534,534,534,534,534,534,534,534,534,534,534,534,534,534,534,534,534,534,534,534,534,534,534,529,521,516,506,494,489,482,480,479,478,475,461,452,439,427,411,360,316,287,262,239,200,187,169,151,133,96],"timestamp_mouse":[13,45,53,73,92,113,133,152,173,193,214,233,253,272,293,312,333,353,372,393,413,433,453,472,494,512,533,554,573,592,614,633,653,673,693,712,732,753,773,793,812,833,852,873,892,913,932,953,972,994,1012,1033,1053,1073,1093,1113,1133,1152,1172,1192,1212,1232,1252,1272,1293,1312,1332,1353,1372,1394,1412,1432,1452,1472,1493,1513,1533,1552,1572,1592,1612,1633,1652,1672,1693,1713,1733,1752,1773,1793,1812,1834,1854,1872,1893,1914,1933,1953,1972,1992,2013,2032,2052,2072,2092,2114,2132,2152,2173,2192,2212,2232,2252,2272,2293,2312,2332,2353,2372,2392,2412,2432,2452,2472,2494,2512,2532,2552,2572],"xSR":741.5,"ySR":469.95,"xT1":424.9,"yT1":0,"xT2":1058.1,"yT2":0,"toosoon":0,"cond_shown":"Incongruent","ratio_trial":300,"L_num":1,"L_den":2,"R_num":3,"R_den":15,"correct_side":1,"subjID":"eyleendanielarodriguezacero7","gender":"1","school":"sexto","age":"11"},{"start_time":1551887183598,"click_time":1551887185216,"finger_time":1551887184956,"fix_duration":1361.207842890711,"trial":30,"RT":1358,"MT":260,"sideResp":1,"stimulus":[],"xmouse":[753,753,753,753,753,753,753,753,753,753,753,753,753,753,753,753,753,753,753,753,753,753,753,753,753,753,753,753,753,753,753,753,753,753,753,753,753,753,753,753,753,753,753,753,753,753,753,753,753,753,753,753,753,753,753,753,753,753,753,753,753,753,753,753,753,753,751,731,710,689,672,651,597,585,574,566,559,546,539,527,518],"ymouse":[537,537,537,537,537,537,537,537,537,537,537,537,537,537,537,537,537,537,537,537,537,537,537,537,537,537,537,537,537,537,537,537,537,537,537,537,537,537,537,537,537,537,537,537,537,537,537,537,537,537,537,537,537,537,537,537,537,537,537,537,537,537,537,537,537,529,521,463,423,386,357,318,225,204,184,169,156,126,110,87,72],"timestamp_mouse":[21,41,59,78,98,119,138,159,179,199,220,239,258,278,300,319,338,358,380,400,419,438,458,478,498,518,539,558,578,598,620,638,658,680,698,719,738,760,778,799,819,838,858,879,899,919,939,958,979,999,1019,1039,1060,1079,1098,1119,1139,1159,1179,1199,1219,1239,1259,1279,1298,1320,1338,1358,1378,1398,1418,1438,1458,1478,1499,1518,1539,1558,1578,1599,1618],"xSR":741.5,"ySR":469.95,"xT1":424.9,"yT1":0,"xT2":1058.1,"yT2":0,"toosoon":0,"cond_shown":"Incongruent","ratio_trial":300,"L_num":8,"L_den":10,"R_num":14,"R_den":28,"correct_side":1,"subjID":"eyleendanielarodriguezacero7","gender":"1","school":"sexto","age":"11"},{"start_time":1551887187396,"click_time":1551887189517,"finger_time":1551887189056,"fix_duration":1038.7107993911877,"trial":31,"RT":1660,"MT":461,"sideResp":1,"stimulus":[],"xmouse":[790,790,790,790,790,790,790,790,790,790,790,790,790,790,790,790,790,790,790,790,790,790,790,790,790,790,790,790,790,790,790,790,790,790,790,790,790,790,790,790,790,790,790,790,790,790,790,790,790,790,790,790,790,790,790,790,790,790,790,790,790,790,790,790,790,790,790,790,790,790,790,790,790,790,790,790,790,790,790,790,779,761,744,717,711,705,702,696,674,646,637,633,630,624,619,611,600,588,576,570,566,558,548,526,521,518,515],"ymouse":[513,513,513,513,513,513,513,513,513,513,513,513,513,513,513,513,513,513,513,513,513,513,513,513,513,513,513,513,513,513,513,513,513,513,513,513,513,513,513,513,513,513,513,513,513,513,513,513,513,513,513,513,513,513,513,513,513,513,513,513,513,513,513,513,513,513,513,513,513,513,513,513,513,513,513,513,513,513,513,511,499,486,472,447,438,427,420,410,352,296,281,274,269,256,244,227,211,197,180,172,166,153,139,113,106,102,97],"timestamp_mouse":[9,20,40,61,80,100,120,141,160,180,200,222,240,262,281,300,321,342,362,380,401,420,441,461,481,500,521,540,560,580,600,621,640,661,681,701,721,742,761,781,800,822,840,860,880,900,921,940,961,981,1000,1020,1040,1060,1082,1101,1121,1140,1161,1181,1200,1221,1242,1261,1280,1300,1321,1340,1360,1380,1401,1420,1440,1460,1481,1500,1520,1540,1560,1581,1600,1620,1641,1660,1680,1700,1720,1741,1760,1781,1800,1820,1840,1860,1881,1900,1920,1940,1960,1981,2000,2020,2040,2060,2081,2100,2120],"xSR":741.5,"ySR":469.95,"xT1":424.9,"yT1":0,"xT2":1058.1,"yT2":0,"toosoon":0,"cond_shown":"Congruent","ratio_trial":200,"L_num":6,"L_den":15,"R_num":3,"R_den":15,"correct_side":1,"subjID":"eyleendanielarodriguezacero7","gender":"1","school":"sexto","age":"11"},{"start_time":1551887191650,"click_time":1551887194356,"finger_time":1551887194017,"fix_duration":1173.7639130641085,"trial":32,"RT":2367,"MT":339,"sideResp":1,"stimulus":[],"xmouse":[766,766,766,766,766,766,766,766,766,766,766,766,766,766,766,766,766,766,766,766,766,766,766,766,766,766,766,766,766,766,766,766,766,766,766,766,766,766,766,766,766,766,766,766,766,766,766,766,766,766,766,766,766,766,766,766,766,766,766,766,766,766,766,766,766,766,766,766,766,766,766,766,766,766,766,766,766,766,766,766,766,766,766,766,766,766,766,766,766,766,766,766,766,766,766,766,766,766,766,766,766,766,766,766,766,766,766,766,766,766,766,766,768,769,769,770,770,770,769,766,755,750,743,732,715,662,598,558,545,537,526,520,508,498,489,482],"ymouse":[496,496,496,496,496,496,496,496,496,496,496,496,496,496,496,496,496,496,496,496,496,496,496,496,496,496,496,496,496,496,496,496,496,496,496,496,496,496,496,496,496,496,496,496,496,496,496,496,496,496,496,496,496,496,496,496,496,496,496,496,496,496,496,496,496,496,496,496,496,496,496,496,496,496,496,496,496,496,496,496,496,496,496,496,496,496,496,496,496,496,496,496,496,496,496,496,496,496,496,496,496,496,496,496,496,496,496,496,496,496,496,494,492,491,490,486,480,474,468,461,437,428,418,408,398,365,317,286,269,251,216,194,169,146,125,96],"timestamp_mouse":[10,38,46,66,87,106,126,146,166,186,207,226,247,267,286,306,327,346,367,386,406,427,448,467,487,506,527,546,567,587,606,627,646,666,687,706,726,747,766,786,806,827,848,866,886,907,927,947,966,987,1006,1026,1046,1068,1086,1106,1126,1146,1166,1186,1207,1228,1246,1267,1286,1306,1328,1346,1366,1386,1406,1427,1446,1467,1486,1506,1528,1547,1567,1586,1606,1627,1647,1667,1687,1706,1727,1746,1766,1786,1806,1826,1847,1867,1887,1906,1928,1946,1967,1987,2007,2028,2047,2066,2087,2106,2126,2146,2166,2186,2207,2226,2246,2266,2286,2306,2326,2346,2367,2386,2406,2426,2446,2468,2487,2506,2526,2546,2566,2586,2607,2626,2646,2666,2686,2706],"xSR":741.5,"ySR":469.95,"xT1":424.9,"yT1":0,"xT2":1058.1,"yT2":0,"toosoon":0,"cond_shown":"Incongruent","ratio_trial":200,"L_num":7,"L_den":10,"R_num":8,"R_den":16,"correct_side":1,"subjID":"eyleendanielarodriguezacero7","gender":"1","school":"sexto","age":"11"},{"start_time":1551887198007,"click_time":1551887200356,"finger_time":1551887199656,"fix_duration":1367.208939223116,"trial":33,"RT":1649,"MT":700,"sideResp":1,"stimulus":[],"xmouse":[759,759,759,759,759,759,759,759,759,759,759,759,759,759,759,759,759,759,759,759,759,759,759,759,759,759,759,759,759,759,759,759,759,759,759,759,759,759,759,759,759,759,759,759,759,759,759,759,759,759,759,759,759,759,759,759,759,759,759,759,759,759,759,759,759,759,759,759,759,759,759,759,759,759,759,759,759,759,759,760,754,745,713,697,680,661,644,612,594,581,564,553,544,542,541,541,541,541,541,540,540,540,537,534,529,524,524,523,523,523,522,521,515,513,508,504,499,491],"ymouse":[523,523,523,523,523,523,523,523,523,523,523,523,523,523,523,523,523,523,523,523,523,523,523,523,523,523,523,523,523,523,523,523,523,523,523,523,523,523,523,523,523,523,523,523,523,523,523,523,523,523,523,523,523,523,523,523,523,523,523,523,523,523,523,523,523,523,523,523,523,523,523,523,523,523,523,523,523,523,523,520,507,493,448,428,408,386,367,331,304,281,250,229,211,208,206,206,206,206,206,205,205,204,195,190,178,170,169,168,168,166,163,160,148,140,131,121,111,93],"timestamp_mouse":[9,29,49,70,89,110,129,149,170,190,210,229,249,270,290,310,330,349,370,389,409,430,449,469,490,510,529,549,571,589,609,631,649,669,690,710,729,749,770,790,809,829,849,870,890,909,929,949,971,989,1010,1029,1051,1069,1089,1109,1129,1149,1170,1189,1210,1229,1249,1269,1290,1309,1329,1349,1369,1389,1410,1429,1449,1471,1489,1509,1530,1549,1569,1589,1610,1629,1649,1669,1690,1709,1729,1749,1769,1789,1809,1829,1849,1869,1889,1910,1929,1949,1970,1990,2009,2030,2050,2070,2090,2109,2129,2149,2169,2191,2210,2229,2250,2269,2289,2310,2329,2349],"xSR":741.5,"ySR":469.95,"xT1":424.9,"yT1":0,"xT2":1058.1,"yT2":0,"toosoon":0,"cond_shown":"Congruent","ratio_trial":100,"L_num":8,"L_den":16,"R_num":2,"R_den":5,"correct_side":1,"subjID":"eyleendanielarodriguezacero7","gender":"1","school":"sexto","age":"11"},{"start_time":1551887203790,"click_time":1551887205957,"finger_time":1551887205356,"fix_duration":1451.8766711489277,"trial":34,"RT":1566,"MT":601,"sideResp":2,"stimulus":[],"xmouse":[761,761,761,761,761,761,761,761,761,761,761,761,761,761,761,761,761,761,761,761,761,761,761,761,761,761,761,761,761,761,761,761,761,761,761,761,761,761,761,761,761,761,761,761,761,761,761,761,761,761,761,761,761,761,761,761,761,761,761,761,761,761,761,761,761,761,761,761,762,762,762,762,763,769,776,785,793,803,838,860,873,902,931,956,962,967,971,978,997,1015,1027,1036,1041,1045,1047,1051,1052,1053,1053,1053,1053,1053,1053,1053,1053,1053,1053,1056,1063],"ymouse":[536,536,536,536,536,536,536,536,536,536,536,536,536,536,536,536,536,536,536,536,536,536,536,536,536,536,536,536,536,536,536,536,536,536,536,536,536,536,536,536,536,536,536,536,536,536,536,536,536,536,536,536,536,536,536,536,536,536,536,536,536,536,536,536,536,536,536,536,535,535,535,535,535,526,518,507,498,489,451,425,407,338,278,239,229,218,209,191,148,114,92,77,70,65,64,62,61,61,61,61,61,61,61,61,61,61,61,61,61],"timestamp_mouse":[10,33,46,67,86,107,126,146,167,186,206,227,246,266,286,306,326,346,366,386,406,426,446,466,486,506,526,546,568,587,608,626,647,666,687,706,727,746,767,787,807,826,846,866,886,906,926,946,966,986,1006,1026,1047,1066,1086,1106,1126,1147,1166,1186,1206,1226,1246,1266,1286,1307,1327,1346,1366,1386,1406,1428,1446,1466,1487,1506,1526,1546,1566,1586,1607,1626,1646,1666,1686,1706,1727,1747,1767,1786,1806,1826,1846,1866,1886,1907,1926,1947,1966,1986,2006,2026,2047,2066,2087,2106,2126,2147,2166],"xSR":741.5,"ySR":469.95,"xT1":424.9,"yT1":0,"xT2":1058.1,"yT2":0,"toosoon":0,"cond_shown":"Incongruent","ratio_trial":100,"L_num":6,"L_den":12,"R_num":3,"R_den":5,"correct_side":2,"subjID":"eyleendanielarodriguezacero7","gender":"1","school":"sexto","age":"11"},{"start_time":1551887207845,"click_time":1551887210538,"finger_time":1551887210137,"fix_duration":487.05487896494805,"trial":35,"RT":2292,"MT":401,"sideResp":1,"stimulus":[],"xmouse":[826,826,826,826,826,826,826,826,826,826,826,826,826,826,826,826,826,826,826,826,826,826,826,826,826,826,826,826,826,826,826,826,826,826,826,826,826,826,826,826,826,826,826,826,826,826,826,826,826,826,826,826,826,826,826,826,826,826,826,826,826,826,826,826,826,826,826,826,826,826,826,826,826,826,826,826,826,826,826,826,826,826,826,826,826,826,826,826,826,826,826,826,826,826,826,826,826,826,826,826,826,826,826,826,826,826,826,826,826,826,826,817,800,774,741,708,705,703,701,696,671,657,638,619,581,504,499,499,498,498,494,490,489,487,486],"ymouse":[527,527,527,527,527,527,527,527,527,527,527,527,527,527,527,527,527,527,527,527,527,527,527,527,527,527,527,527,527,527,527,527,527,527,527,527,527,527,527,527,527,527,527,527,527,527,527,527,527,527,527,527,527,527,527,527,527,527,527,527,527,527,527,527,527,527,527,527,527,527,527,527,527,527,527,527,527,527,527,527,527,527,527,527,527,527,527,527,527,527,527,527,527,527,527,527,527,527,527,527,527,527,527,527,527,527,527,527,527,527,527,522,510,496,488,478,476,475,472,467,453,443,422,394,310,171,158,154,150,145,128,115,109,103,99],"timestamp_mouse":[11,41,51,71,93,111,131,153,171,191,211,231,252,271,291,312,332,352,371,391,411,433,451,471,493,511,532,552,571,591,611,631,651,671,692,711,732,751,771,792,811,831,852,871,891,911,932,952,973,992,1012,1031,1052,1072,1091,1112,1132,1152,1171,1191,1211,1231,1251,1273,1292,1311,1331,1351,1371,1391,1411,1433,1451,1471,1491,1511,1533,1551,1571,1592,1612,1633,1652,1671,1691,1711,1731,1752,1771,1792,1812,1831,1851,1873,1892,1911,1932,1951,1972,1991,2011,2033,2051,2071,2092,2111,2132,2151,2171,2192,2212,2233,2251,2271,2292,2311,2332,2352,2372,2391,2412,2431,2451,2471,2492,2511,2531,2552,2571,2591,2612,2633,2651,2671,2693],"xSR":741.5,"ySR":469.95,"xT1":424.9,"yT1":0,"xT2":1058.1,"yT2":0,"toosoon":0,"cond_shown":"Congruent","ratio_trial":300,"L_num":12,"L_den":24,"R_num":2,"R_den":10,"correct_side":1,"subjID":"eyleendanielarodriguezacero7","gender":"1","school":"sexto","age":"11"},{"start_time":1551887212788,"click_time":1551887214816,"finger_time":1551887214317,"fix_duration":250,"trial":36,"RT":1529,"MT":499,"sideResp":1,"stimulus":[],"xmouse":[826,826,826,826,826,826,826,826,826,826,826,826,826,826,826,826,826,826,826,826,826,826,826,826,826,826,826,826,826,826,826,826,826,826,826,826,826,826,826,826,826,826,826,826,826,826,826,826,826,826,826,826,826,826,826,826,826,826,826,826,826,826,826,826,826,826,826,826,826,826,826,826,826,826,824,815,795,769,732,723,723,723,723,723,723,723,723,723,720,718,716,714,711,698,684,658,648,621,567,537,528,524],"ymouse":[509,509,509,509,509,509,509,509,509,509,509,509,509,509,509,509,509,509,509,509,509,509,509,509,509,509,509,509,509,509,509,509,509,509,509,509,509,509,509,509,509,509,509,509,509,509,509,509,509,509,509,509,509,509,509,509,509,509,509,509,509,509,509,509,509,509,509,509,509,509,509,509,509,509,500,481,442,399,336,312,310,309,309,309,309,309,308,307,297,293,290,287,282,264,247,221,211,185,137,113,103,99],"timestamp_mouse":[9,33,49,69,88,109,128,148,168,188,208,228,249,268,288,310,329,348,368,388,408,428,448,468,489,508,528,550,568,588,608,628,648,669,688,709,728,748,768,788,808,829,849,868,888,908,929,950,968,988,1010,1029,1048,1068,1089,1109,1128,1150,1168,1189,1208,1229,1248,1269,1292,1309,1328,1349,1368,1388,1409,1430,1449,1468,1489,1509,1529,1549,1568,1588,1609,1629,1649,1668,1688,1710,1728,1748,1768,1789,1809,1828,1848,1868,1888,1909,1928,1949,1968,1989,2009,2028],"xSR":741.5,"ySR":469.95,"xT1":424.9,"yT1":0,"xT2":1058.1,"yT2":0,"toosoon":0,"cond_shown":"Congruent","ratio_trial":200,"L_num":3,"L_den":6,"R_num":14,"R_den":20,"correct_side":2,"subjID":"eyleendanielarodriguezacero7","gender":"1","school":"sexto","age":"11"},{"start_time":1551887218771,"click_time":1551887220356,"finger_time":1551887220016,"fix_duration":1092.7552025390592,"trial":37,"RT":1245,"MT":340,"sideResp":1,"stimulus":[],"xmouse":[825,825,825,825,825,825,825,825,825,824,824,824,824,824,824,824,824,824,824,824,824,824,824,824,824,824,824,824,824,824,824,824,824,824,824,824,824,824,824,824,824,824,824,824,824,824,824,824,824,824,824,824,824,824,824,824,824,824,824,821,805,784,753,711,619,581,543,519,500,494,494,494,494,494,500,505,507,507,508,508],"ymouse":[506,506,506,506,506,506,506,506,506,506,506,506,506,506,506,506,506,506,506,506,506,506,506,506,506,506,506,506,506,506,506,506,506,506,506,506,506,506,506,506,506,506,506,506,506,506,506,506,506,506,506,506,506,506,506,506,506,506,506,506,491,476,457,436,394,379,362,347,331,312,281,253,227,206,173,160,151,140,121,79],"timestamp_mouse":[10,31,46,65,85,105,125,147,165,186,206,227,246,265,286,306,326,346,365,385,406,427,445,465,486,506,526,545,566,586,606,627,646,665,685,706,726,746,765,786,805,825,846,865,885,906,925,946,966,986,1006,1025,1046,1066,1086,1107,1125,1145,1166,1185,1205,1226,1245,1265,1285,1306,1325,1347,1365,1385,1406,1425,1445,1465,1485,1506,1525,1546,1565,1585],"xSR":741.5,"ySR":469.95,"xT1":424.9,"yT1":0,"xT2":1058.1,"yT2":0,"toosoon":0,"cond_shown":"Incongruent","ratio_trial":300,"L_num":7,"L_den":10,"R_num":8,"R_den":20,"correct_side":1,"subjID":"eyleendanielarodriguezacero7","gender":"1","school":"sexto","age":"11"},{"start_time":1551887221889,"click_time":1551887223557,"finger_time":1551887223256,"fix_duration":250,"trial":38,"RT":1367,"MT":301,"sideResp":2,"stimulus":[],"xmouse":[796,796,796,795,795,795,794,794,794,793,793,793,793,793,793,793,793,793,793,793,793,793,793,793,793,793,793,793,793,793,793,793,793,793,793,793,793,793,793,793,793,793,792,792,792,792,792,792,792,792,792,792,792,792,792,792,792,792,792,792,792,792,792,792,792,792,794,826,870,881,889,894,902,922,936,1005,1040,1062,1088,1092,1095,1102,1108,1119],"ymouse":[530,530,530,530,530,530,531,531,531,531,531,531,531,531,531,531,531,531,531,531,531,531,531,531,531,531,531,531,531,531,531,531,531,531,531,531,531,531,531,531,531,531,532,532,532,532,532,532,532,532,532,532,532,532,532,532,532,532,532,532,532,532,532,532,532,531,527,512,488,479,471,464,451,416,391,286,253,234,200,183,166,142,127,99],"timestamp_mouse":[10,29,49,67,87,108,128,147,167,187,208,227,247,269,288,308,328,347,367,387,407,428,447,468,489,507,528,547,567,587,608,627,647,667,687,708,729,748,768,787,808,829,848,867,888,908,929,947,967,988,1008,1029,1047,1068,1088,1108,1127,1147,1168,1187,1207,1229,1248,1268,1288,1308,1327,1347,1367,1387,1407,1428,1447,1467,1488,1507,1527,1548,1568,1587,1607,1628,1648,1668],"xSR":741.5,"ySR":469.95,"xT1":424.9,"yT1":0,"xT2":1058.1,"yT2":0,"toosoon":0,"cond_shown":"Congruent","ratio_trial":200,"L_num":3,"L_den":10,"R_num":14,"R_den":28,"correct_side":2,"subjID":"eyleendanielarodriguezacero7","gender":"1","school":"sexto","age":"11"},{"start_time":1551887225415,"click_time":1551887227116,"finger_time":1551887226816,"fix_duration":877.691060852454,"trial":39,"RT":1401,"MT":300,"sideResp":2,"stimulus":[],"xmouse":[827,827,827,827,827,827,827,827,827,827,827,827,827,827,827,827,827,827,827,827,827,827,827,827,827,827,827,827,827,827,827,827,827,827,827,827,827,827,827,827,827,827,827,827,827,827,827,827,827,827,827,827,827,827,827,827,827,827,827,827,827,827,827,827,827,827,827,827,827,841,868,945,1026,1036,1038,1038,1038,1047,1060,1066,1069,1070,1070,1070,1070,1072],"ymouse":[513,513,513,513,513,513,513,513,513,513,513,513,513,513,513,513,513,513,513,513,513,513,513,513,513,513,513,513,513,513,513,513,513,513,513,513,513,513,513,513,513,513,513,513,513,513,513,513,513,513,513,513,513,513,513,513,513,513,513,513,513,513,513,513,513,513,513,513,513,502,471,360,265,253,250,249,249,223,193,174,159,149,128,115,105,92],"timestamp_mouse":[10,21,41,63,81,103,121,141,161,181,201,221,242,261,282,301,322,341,361,382,402,422,441,462,481,501,522,543,561,582,601,622,641,661,681,702,722,741,763,781,801,821,842,862,882,902,922,941,962,983,1001,1021,1042,1061,1081,1103,1121,1141,1162,1182,1201,1221,1243,1262,1282,1301,1323,1341,1362,1381,1401,1421,1442,1462,1481,1501,1521,1541,1563,1582,1601,1623,1641,1662,1681,1701],"xSR":741.5,"ySR":469.95,"xT1":424.9,"yT1":0,"xT2":1058.1,"yT2":0,"toosoon":0,"cond_shown":"Incongruent","ratio_trial":200,"L_num":3,"L_den":4,"R_num":11,"R_den":20,"correct_side":1,"subjID":"eyleendanielarodriguezacero7","gender":"1","school":"sexto","age":"11"},{"start_time":1551887230102,"click_time":1551887232557,"finger_time":1551887231936,"fix_duration":761.7382540243899,"trial":40,"RT":1834,"MT":621,"sideResp":2,"stimulus":[],"xmouse":[779,779,779,779,779,779,779,779,779,779,779,779,779,779,779,779,779,779,779,779,779,779,779,779,779,779,779,779,779,779,779,779,779,779,779,779,779,779,779,779,779,779,779,779,779,779,779,779,779,779,779,779,779,779,779,779,779,779,779,779,779,779,779,779,779,779,779,779,779,779,779,779,779,779,779,779,779,779,779,779,779,779,779,779,779,779,779,780,787,795,801,807,813,813,813,813,813,813,813,813,813,813,811,811,806,801,794,787,787,791,803,822,889,960,992,1008,1019,1030,1035,1047,1070,1095,1119],"ymouse":[505,505,505,505,505,505,505,505,505,505,505,505,505,505,505,505,505,505,505,505,505,505,505,505,505,505,505,505,505,505,505,505,505,505,505,505,505,505,505,505,505,505,505,505,505,505,505,505,505,505,505,505,505,505,505,505,505,505,500,497,492,491,491,491,491,491,491,491,491,491,491,491,491,491,491,491,491,491,491,491,491,491,491,491,491,491,491,489,482,476,472,467,461,460,460,460,460,460,460,460,460,459,456,456,450,443,431,403,387,371,353,331,281,224,196,184,175,164,158,146,130,111,97],"timestamp_mouse":[14,36,55,75,94,114,134,154,175,194,214,234,254,274,294,315,334,354,374,394,415,434,454,474,494,515,534,554,574,594,615,634,656,676,695,715,736,754,775,795,814,834,854,874,895,914,936,955,975,995,1014,1036,1056,1074,1095,1114,1134,1155,1174,1194,1214,1235,1254,1275,1295,1314,1334,1354,1374,1394,1415,1434,1455,1474,1495,1514,1534,1555,1576,1594,1614,1634,1654,1675,1694,1714,1736,1754,1775,1795,1814,1834,1855,1874,1894,1914,1936,1954,1974,1994,2014,2034,2055,2074,2094,2114,2134,2154,2175,2194,2214,2234,2254,2274,2294,2314,2336,2355,2374,2394,2415,2435,2455],"xSR":741.5,"ySR":469.95,"xT1":424.9,"yT1":0,"xT2":1058.1,"yT2":0,"toosoon":0,"cond_shown":"Incongruent","ratio_trial":200,"L_num":4,"L_den":30,"R_num":1,"R_den":3,"correct_side":2,"subjID":"eyleendanielarodriguezacero7","gender":"1","school":"sexto","age":"11"},{"start_time":1551887233950,"click_time":1551887236517,"finger_time":1551887235457,"fix_duration":251.72911391217434,"trial":41,"RT":1507,"MT":1060,"sideResp":2,"stimulus":[],"xmouse":[814,814,814,814,814,814,814,814,814,814,814,814,814,814,814,814,814,814,814,814,814,814,814,814,814,814,814,814,814,814,814,814,814,814,814,814,814,814,814,814,814,814,814,814,814,814,814,814,814,814,814,814,814,814,814,814,814,814,814,814,814,814,814,814,814,814,814,814,814,814,814,814,814,816,820,855,894,932,973,992,1013,1022,1030,1034,1038,1044,1046,1048,1050,1052,1059,1065,1067,1068,1070,1070,1070,1070,1070,1070,1070,1070,1070,1073,1076,1079,1080,1080,1080,1080,1080,1080,1080,1080,1080,1080,1080,1080,1080,1080,1080,1080,1080,1080,1080,1080,1081,1081,1082],"ymouse":[528,528,528,528,528,528,528,528,528,528,528,528,528,528,528,528,528,528,528,528,528,528,528,528,528,528,528,528,528,528,528,528,528,528,528,528,528,528,528,528,528,528,528,528,528,528,528,528,528,528,528,528,528,528,528,528,528,528,528,528,528,528,528,528,528,528,528,528,528,528,528,528,528,528,524,481,428,378,325,291,252,229,215,207,199,187,183,178,173,168,151,138,133,130,128,128,128,128,128,128,128,128,127,121,115,110,109,109,109,109,109,109,109,109,109,109,109,109,109,109,109,109,109,109,109,108,104,102,99],"timestamp_mouse":[8,37,46,66,87,106,126,147,166,186,207,228,246,267,288,307,326,346,367,386,406,427,446,467,487,506,526,546,567,587,606,626,646,667,686,707,726,746,767,786,806,826,847,867,887,906,927,947,966,987,1007,1026,1046,1068,1086,1106,1127,1146,1167,1186,1207,1226,1246,1267,1286,1307,1326,1347,1366,1387,1408,1428,1446,1467,1488,1507,1527,1547,1568,1588,1607,1626,1646,1666,1687,1707,1727,1746,1766,1786,1807,1826,1846,1866,1886,1907,1926,1946,1967,1988,2006,2027,2047,2066,2086,2106,2126,2148,2166,2187,2206,2226,2246,2267,2287,2306,2328,2347,2367,2387,2407,2426,2448,2466,2486,2506,2526,2546,2567],"xSR":741.5,"ySR":469.95,"xT1":424.9,"yT1":0,"xT2":1058.1,"yT2":0,"toosoon":0,"cond_shown":"Congruent","ratio_trial":