[{"start_time":1551794830172,"click_time":1551794832261,"finger_time":1551794831721,"fix_duration":947.4234885755887,"trial":0,"RT":1549,"MT":540,"sideResp":2,"stimulus":"img/900/randomdotsizeEA/R/13_Ratio_900_L_18_R_20.png","xmouse":[785,767,764,763,763,763,763,763,763,763,763,763,763,766,767,768,768,768,768,768,768,768,767,766,765,764,764,763,763,763,763,763,763,763,763,763,763,763,763,763,763,763,763,764,764,764,766,768,768,768,768,768,768,768,768,768,768,768,768,768,768,768,768,768,768,768,768,768,768,769,770,771,771,771,771,771,773,788,804,825,845,872,910,924,927,929,935,974,985,986,986,984,974,971,971,971,971,978,982,986,992,1004,1020,1062],"ymouse":[515,515,515,515,515,515,514,514,514,513,512,511,508,502,500,498,497,494,494,494,493,491,487,486,484,483,483,483,483,483,483,483,483,483,483,483,483,483,483,483,482,478,476,475,475,473,472,468,468,468,468,468,468,468,468,468,468,468,468,468,468,468,468,468,468,468,468,468,468,465,464,464,464,464,464,463,457,430,407,385,362,338,313,304,304,302,288,227,200,180,161,149,132,128,125,122,118,113,112,112,112,110,106,94],"timestamp_mouse":[29,49,68,89,110,128,149,170,188,209,229,250,269,289,309,330,348,369,388,409,429,449,468,489,509,529,548,570,590,610,628,648,669,689,709,730,748,770,790,810,829,849,869,890,909,929,950,969,989,1009,1029,1048,1070,1089,1109,1130,1150,1170,1188,1209,1228,1249,1269,1289,1308,1329,1349,1369,1389,1410,1429,1449,1468,1489,1508,1530,1549,1569,1588,1609,1628,1649,1669,1688,1709,1729,1749,1768,1788,1809,1829,1850,1869,1889,1908,1929,1948,1968,1988,2008,2030,2049,2069,2089],"xSR":733.5,"ySR":461.5,"xT1":420.09999999999997,"yT1":0,"xT2":1046.8999999999999,"yT2":0,"toosoon":0,"cond_shown":"randomdotsizeEA","ratio_trial":900,"smaller_num":"18","larger_num":"20","correct_side":2,"subjID":"fernandaaguirrerodriguez39","gender":"1","age":"11","school":"6","test":{"fix_dur":[250,1500],"timestim":300,"targets_dim":[100,100],"targets_relative_coord":[0.3,0.7],"size_stim":[880,420],"start_dim":[100,100],"size_start":[300,300],"size_fix":60,"samplingrate":20,"img_types":["equaldotsize","equaldotanddens","randomdotsizeEA"],"ratios":[250,500,750,900],"rep_conds":9,"nTrials":120,"trials_to_rest":500,"Trials_order":[23,104,27,14,34,7,24,21,0,59,75,78,119,112,88,49,77,109,83,108,66,90,31,89,113,5,105,68,26,79,6,56,18,99,72,12,47,82,87,111,1,101,3,86,20,48,36,110,30,42,8,85,91,38,13,95,71,11,117,98,114,61,45,73,62,69,33,93,76,80,103,74,51,16,37,84,46,57,2,60,97,10,102,32,65,41,115,116,67,55,52,94,53,96,4,64,100,92,50,28,22,39,118,15,19,17,40,43,54,63,70,35,44,58,107,106,81,29,9,25],"cond_shown":["randomdotsizeEA","randomdotsizeEA","equaldotsize","randomdotsizeEA","equaldotanddens","equaldotanddens","equaldotsize","equaldotsize","equaldotsize","randomdotsizeEA","equaldotsize","equaldotsize","randomdotsizeEA","equaldotanddens","equaldotanddens","equaldotanddens","randomdotsizeEA","equaldotanddens","randomdotsizeEA","equaldotsize","equaldotsize","equaldotsize","equaldotanddens","randomdotsizeEA","randomdotsizeEA","randomdotsizeEA","equaldotsize","randomdotsizeEA","randomdotsizeEA","equaldotanddens","equaldotsize","randomdotsizeEA","equaldotsize","equaldotsize","equaldotsize","equaldotsize","randomdotsizeEA","equaldotanddens","equaldotsize","equaldotsize","equaldotanddens","randomdotsizeEA","equaldotsize","randomdotsizeEA","randomdotsizeEA","equaldotsize","equaldotsize","randomdotsizeEA","equaldotsize","equaldotsize","randomdotsizeEA","equaldotanddens","equaldotanddens","randomdotsizeEA","equaldotanddens","randomdotsizeEA","randomdotsizeEA","randomdotsizeEA","equaldotsize","randomdotsizeEA","equaldotsize","equaldotanddens","equaldotsize","equaldotanddens","randomdotsizeEA","equaldotsize","equaldotsize","equaldotsize","equaldotanddens","randomdotsizeEA","equaldotanddens","randomdotsizeEA","equaldotsize","equaldotanddens","equaldotanddens","equaldotsize","equaldotanddens","equaldotsize","randomdotsizeEA","equaldotsize","equaldotanddens","equaldotanddens","equaldotsize","randomdotsizeEA","randomdotsizeEA","randomdotsizeEA","equaldotanddens","randomdotsizeEA","equaldotanddens","equaldotanddens","equaldotanddens","equaldotanddens","randomdotsizeEA","equaldotsize","equaldotanddens","equaldotanddens","equaldotanddens","randomdotsizeEA","randomdotsizeEA","equaldotanddens","equaldotanddens","equaldotsize","equaldotanddens","equaldotsize","equaldotanddens","randomdotsizeEA","equaldotanddens","equaldotanddens","equaldotsize","equaldotsize","equaldotanddens","randomdotsizeEA","randomdotsizeEA","equaldotanddens","randomdotsizeEA","equaldotanddens","equaldotsize","randomdotsizeEA","equaldotsize","equaldotanddens"],"ratio_trial":[900,750,500,250,900,750,250,900,250,900,500,750,900,500,500,250,500,250,900,250,750,750,750,500,500,500,900,750,250,750,750,750,750,500,250,250,900,900,500,500,250,500,500,250,750,250,250,250,750,750,750,250,750,250,250,900,900,900,900,250,750,250,900,250,250,900,900,900,500,750,750,250,500,500,250,250,900,900,250,250,250,900,750,750,500,500,750,750,750,750,500,900,500,250,500,500,500,750,250,500,900,500,900,500,750,500,500,750,750,500,900,900,750,900,900,900,900,500,900,250],"smaller_num":["18","3","9","3","18","15","3","18","3","18","9","18","18","2","4","3","9","2","18","6","6","6","3","1","5","5","18","3","6","3","15","15","15","2","1","3","18","9","3","10","3","2","2","4","15","6","3","3","15","6","15","2","6","4","6","18","18","9","9","3","15","2","9","1","3","18","18","18","3","6","3","3","2","5","3","2","18","18","5","3","3","18","3","6","2","4","9","18","3","15","1","18","9","4","1","1","9","6","2","2","18","10","18","10","12","4","4","3","6","2","18","18","3","18","9","9","18","9","18","5"],"larger_num":["20","4","18","12","20","20","12","20","12","20","18","24","20","4","8","12","18","8","20","24","8","8","4","2","10","10","20","4","24","4","20","20","20","4","4","12","20","10","6","20","12","4","4","16","20","24","12","12","20","8","20","8","8","16","24","20","20","10","10","12","20","8","10","4","12","20","20","20","6","8","4","12","4","10","12","8","20","20","20","12","12","20","4","8","4","8","12","24","4","20","2","20","18","16","2","2","18","8","8","4","20","20","20","20","16","8","8","4","8","4","20","20","4","20","10","10","20","18","20","20"],"correct_side":[2,1,1,2,2,1,2,2,2,1,2,1,2,1,1,2,2,1,1,2,2,1,2,2,1,2,2,1,2,1,1,2,1,1,2,2,1,2,2,2,2,1,1,1,2,1,2,1,1,2,2,1,1,1,2,1,1,2,2,1,2,1,1,2,2,1,1,2,2,1,2,2,2,1,2,1,1,2,2,2,2,1,1,1,2,1,2,1,1,1,2,2,2,1,2,2,2,1,1,1,2,2,2,2,2,1,1,1,1,1,1,1,1,1,2,2,2,1,1,2],"img_shown":["img/900/randomdotsizeEA/R/13_Ratio_900_L_18_R_20.png","img/750/randomdotsizeEA/L/10_Ratio_750_L_4_R_3.png","img/500/equaldotsize/L/4_Ratio_500_L_18_R_9.png","img/250/randomdotsizeEA/R/11_Ratio_250_L_3_R_12.png","img/900/equaldotanddens/R/12_Ratio_900_L_18_R_20.png","img/750/equaldotanddens/L/1_Ratio_750_L_20_R_15.png","img/250/equaldotsize/R/4_Ratio_250_L_3_R_12.png","img/900/equaldotsize/R/14_Ratio_900_L_18_R_20.png","img/250/equaldotsize/R/11_Ratio_250_L_3_R_12.png","img/900/randomdotsizeEA/L/10_Ratio_900_L_20_R_18.png","img/500/equaldotsize/R/6_Ratio_500_L_9_R_18.png","img/750/equaldotsize/L/6_Ratio_750_L_24_R_18.png","img/900/randomdotsizeEA/R/13_Ratio_900_L_18_R_20.png","img/500/equaldotanddens/L/10_Ratio_500_L_4_R_2.png","img/500/equaldotanddens/L/8_Ratio_500_L_8_R_4.png","img/250/equaldotanddens/R/9_Ratio_250_L_3_R_12.png","img/500/randomdotsizeEA/R/6_Ratio_500_L_9_R_18.png","img/250/equaldotanddens/L/3_Ratio_250_L_8_R_2.png","img/900/randomdotsizeEA/L/10_Ratio_900_L_20_R_18.png","img/250/equaldotsize/R/6_Ratio_250_L_6_R_24.png","img/750/equaldotsize/R/2_Ratio_750_L_6_R_8.png","img/750/equaldotsize/L/14_Ratio_750_L_8_R_6.png","img/750/equaldotanddens/R/12_Ratio_750_L_3_R_4.png","img/500/randomdotsizeEA/R/15_Ratio_500_L_1_R_2.png","img/500/randomdotsizeEA/L/7_Ratio_500_L_10_R_5.png","img/500/randomdotsizeEA/R/14_Ratio_500_L_5_R_10.png","img/900/equaldotsize/R/12_Ratio_900_L_18_R_20.png","img/750/randomdotsizeEA/L/10_Ratio_750_L_4_R_3.png","img/250/randomdotsizeEA/R/6_Ratio_250_L_6_R_24.png","img/750/equaldotanddens/L/10_Ratio_750_L_4_R_3.png","img/750/equaldotsize/L/1_Ratio_750_L_20_R_15.png","img/750/randomdotsizeEA/R/3_Ratio_750_L_15_R_20.png","img/750/equaldotsize/L/1_Ratio_750_L_20_R_15.png","img/500/equaldotsize/L/10_Ratio_500_L_4_R_2.png","img/250/equaldotsize/R/8_Ratio_250_L_1_R_4.png","img/250/equaldotsize/R/11_Ratio_250_L_3_R_12.png","img/900/randomdotsizeEA/L/8_Ratio_900_L_20_R_18.png","img/900/equaldotanddens/R/6_Ratio_900_L_9_R_10.png","img/500/equaldotsize/R/2_Ratio_500_L_3_R_6.png","img/500/equaldotsize/R/3_Ratio_500_L_10_R_20.png","img/250/equaldotanddens/R/4_Ratio_250_L_3_R_12.png","img/500/randomdotsizeEA/L/10_Ratio_500_L_4_R_2.png","img/500/equaldotsize/L/10_Ratio_500_L_4_R_2.png","img/250/randomdotsizeEA/L/2_Ratio_250_L_16_R_4.png","img/750/randomdotsizeEA/R/5_Ratio_750_L_15_R_20.png","img/250/equaldotsize/L/5_Ratio_250_L_24_R_6.png","img/250/equaldotsize/R/11_Ratio_250_L_3_R_12.png","img/250/randomdotsizeEA/L/15_Ratio_250_L_12_R_3.png","img/750/equaldotsize/L/1_Ratio_750_L_20_R_15.png","img/750/equaldotsize/R/2_Ratio_750_L_6_R_8.png","img/750/randomdotsizeEA/R/3_Ratio_750_L_15_R_20.png","img/250/equaldotanddens/L/3_Ratio_250_L_8_R_2.png","img/750/equaldotanddens/L/13_Ratio_750_L_8_R_6.png","img/250/randomdotsizeEA/L/2_Ratio_250_L_16_R_4.png","img/250/equaldotanddens/R/6_Ratio_250_L_6_R_24.png","img/900/randomdotsizeEA/L/8_Ratio_900_L_20_R_18.png","img/900/randomdotsizeEA/L/4_Ratio_900_L_20_R_18.png","img/900/randomdotsizeEA/R/15_Ratio_900_L_9_R_10.png","img/900/equaldotsize/R/7_Ratio_900_L_9_R_10.png","img/250/randomdotsizeEA/L/14_Ratio_250_L_12_R_3.png","img/750/equaldotsize/R/4_Ratio_750_L_15_R_20.png","img/250/equaldotanddens/L/3_Ratio_250_L_8_R_2.png","img/900/equaldotsize/L/1_Ratio_900_L_10_R_9.png","img/250/equaldotanddens/R/8_Ratio_250_L_1_R_4.png","img/250/randomdotsizeEA/R/9_Ratio_250_L_3_R_12.png","img/900/equaldotsize/L/8_Ratio_900_L_20_R_18.png","img/900/equaldotsize/L/4_Ratio_900_L_20_R_18.png","img/900/equaldotsize/R/11_Ratio_900_L_18_R_20.png","img/500/equaldotanddens/R/2_Ratio_500_L_3_R_6.png","img/750/randomdotsizeEA/L/13_Ratio_750_L_8_R_6.png","img/750/equaldotanddens/R/12_Ratio_750_L_3_R_4.png","img/250/randomdotsizeEA/R/4_Ratio_250_L_3_R_12.png","img/500/equaldotsize/R/9_Ratio_500_L_2_R_4.png","img/500/equaldotanddens/L/7_Ratio_500_L_10_R_5.png","img/250/equaldotanddens/R/11_Ratio_250_L_3_R_12.png","img/250/equaldotsize/L/1_Ratio_250_L_8_R_2.png","img/900/equaldotanddens/L/4_Ratio_900_L_20_R_18.png","img/900/equaldotsize/R/13_Ratio_900_L_18_R_20.png","img/250/randomdotsizeEA/R/12_Ratio_250_L_5_R_20.png","img/250/equaldotsize/R/4_Ratio_250_L_3_R_12.png","img/250/equaldotanddens/R/11_Ratio_250_L_3_R_12.png","img/900/equaldotanddens/L/4_Ratio_900_L_20_R_18.png","img/750/equaldotsize/L/9_Ratio_750_L_4_R_3.png","img/750/randomdotsizeEA/L/14_Ratio_750_L_8_R_6.png","img/500/randomdotsizeEA/R/9_Ratio_500_L_2_R_4.png","img/500/randomdotsizeEA/L/8_Ratio_500_L_8_R_4.png","img/750/equaldotanddens/R/15_Ratio_750_L_9_R_12.png","img/750/randomdotsizeEA/L/6_Ratio_750_L_24_R_18.png","img/750/equaldotanddens/L/8_Ratio_750_L_4_R_3.png","img/750/equaldotanddens/L/1_Ratio_750_L_20_R_15.png","img/500/equaldotanddens/R/15_Ratio_500_L_1_R_2.png","img/900/equaldotanddens/R/9_Ratio_900_L_18_R_20.png","img/500/randomdotsizeEA/R/1_Ratio_500_L_9_R_18.png","img/250/equaldotsize/L/2_Ratio_250_L_16_R_4.png","img/500/equaldotanddens/R/12_Ratio_500_L_1_R_2.png","img/500/equaldotanddens/R/15_Ratio_500_L_1_R_2.png","img/500/equaldotanddens/R/1_Ratio_500_L_9_R_18.png","img/750/randomdotsizeEA/L/14_Ratio_750_L_8_R_6.png","img/250/randomdotsizeEA/L/7_Ratio_250_L_8_R_2.png","img/500/equaldotanddens/L/10_Ratio_500_L_4_R_2.png","img/900/equaldotanddens/R/14_Ratio_900_L_18_R_20.png","img/500/equaldotsize/R/3_Ratio_500_L_10_R_20.png","img/900/equaldotanddens/R/9_Ratio_900_L_18_R_20.png","img/500/equaldotsize/R/3_Ratio_500_L_10_R_20.png","img/750/equaldotanddens/R/11_Ratio_750_L_12_R_16.png","img/500/randomdotsizeEA/L/8_Ratio_500_L_8_R_4.png","img/500/equaldotanddens/L/8_Ratio_500_L_8_R_4.png","img/750/equaldotanddens/L/9_Ratio_750_L_4_R_3.png","img/750/equaldotsize/L/14_Ratio_750_L_8_R_6.png","img/500/equaldotsize/L/5_Ratio_500_L_4_R_2.png","img/900/equaldotanddens/L/4_Ratio_900_L_20_R_18.png","img/900/randomdotsizeEA/L/10_Ratio_900_L_20_R_18.png","img/750/randomdotsizeEA/L/9_Ratio_750_L_4_R_3.png","img/900/equaldotanddens/L/8_Ratio_900_L_20_R_18.png","img/900/randomdotsizeEA/R/6_Ratio_900_L_9_R_10.png","img/900/equaldotanddens/R/3_Ratio_900_L_9_R_10.png","img/900/equaldotsize/R/13_Ratio_900_L_18_R_20.png","img/500/randomdotsizeEA/L/4_Ratio_500_L_18_R_9.png","img/900/equaldotsize/L/4_Ratio_900_L_20_R_18.png","img/250/equaldotanddens/R/12_Ratio_250_L_5_R_20.png"],"Rat0":[["12_Ratio_0_L_9_R_0.png","13_Ratio_0_L_6_R_0.png","5_Ratio_0_L_2_R_0.png","6_Ratio_0_L_4_R_0.png","8_Ratio_0_L_6_R_0.png"],["1_Ratio_0_L_0_R_17.png","10_Ratio_0_L_0_R_22.png","11_Ratio_0_L_0_R_1.png","14_Ratio_0_L_0_R_24.png","15_Ratio_0_L_0_R_4.png","2_Ratio_0_L_0_R_5.png","3_Ratio_0_L_0_R_17.png","4_Ratio_0_L_0_R_7.png","7_Ratio_0_L_0_R_19.png","9_Ratio_0_L_0_R_15.png"]],"Rat250":[["1_Ratio_250_L_8_R_2.png","14_Ratio_250_L_12_R_3.png","15_Ratio_250_L_12_R_3.png","2_Ratio_250_L_16_R_4.png","3_Ratio_250_L_8_R_2.png","5_Ratio_250_L_24_R_6.png","7_Ratio_250_L_8_R_2.png"],["10_Ratio_250_L_4_R_16.png","11_Ratio_250_L_3_R_12.png","12_Ratio_250_L_5_R_20.png","13_Ratio_250_L_2_R_8.png","4_Ratio_250_L_3_R_12.png","6_Ratio_250_L_6_R_24.png","8_Ratio_250_L_1_R_4.png","9_Ratio_250_L_3_R_12.png"]],"Rat500":[["10_Ratio_500_L_4_R_2.png","11_Ratio_500_L_12_R_6.png","13_Ratio_500_L_12_R_6.png","4_Ratio_500_L_18_R_9.png","5_Ratio_500_L_4_R_2.png","7_Ratio_500_L_10_R_5.png","8_Ratio_500_L_8_R_4.png"],["1_Ratio_500_L_9_R_18.png","12_Ratio_500_L_1_R_2.png","14_Ratio_500_L_5_R_10.png","15_Ratio_500_L_1_R_2.png","2_Ratio_500_L_3_R_6.png","3_Ratio_500_L_10_R_20.png","6_Ratio_500_L_9_R_18.png","9_Ratio_500_L_2_R_4.png"]],"Rat750":[["1_Ratio_750_L_20_R_15.png","10_Ratio_750_L_4_R_3.png","13_Ratio_750_L_8_R_6.png","14_Ratio_750_L_8_R_6.png","6_Ratio_750_L_24_R_18.png","8_Ratio_750_L_4_R_3.png","9_Ratio_750_L_4_R_3.png"],["11_Ratio_750_L_12_R_16.png","12_Ratio_750_L_3_R_4.png","15_Ratio_750_L_9_R_12.png","2_Ratio_750_L_6_R_8.png","3_Ratio_750_L_15_R_20.png","4_Ratio_750_L_15_R_20.png","5_Ratio_750_L_15_R_20.png","7_Ratio_750_L_3_R_4.png"]],"Rat900":[["1_Ratio_900_L_10_R_9.png","10_Ratio_900_L_20_R_18.png","2_Ratio_900_L_20_R_18.png","4_Ratio_900_L_20_R_18.png","8_Ratio_900_L_20_R_18.png"],["11_Ratio_900_L_18_R_20.png","12_Ratio_900_L_18_R_20.png","13_Ratio_900_L_18_R_20.png","14_Ratio_900_L_18_R_20.png","15_Ratio_900_L_9_R_10.png","3_Ratio_900_L_9_R_10.png","5_Ratio_900_L_9_R_10.png","6_Ratio_900_L_9_R_10.png","7_Ratio_900_L_9_R_10.png","9_Ratio_900_L_18_R_20.png"]],"Rat1000":[["10_Ratio_1000_L_16_R_16.png","11_Ratio_1000_L_6_R_6.png","12_Ratio_1000_L_14_R_14.png","13_Ratio_1000_L_20_R_20.png","15_Ratio_1000_L_15_R_15.png","2_Ratio_1000_L_17_R_17.png","4_Ratio_1000_L_9_R_9.png","5_Ratio_1000_L_6_R_6.png","6_Ratio_1000_L_19_R_19.png","8_Ratio_1000_L_14_R_14.png","9_Ratio_1000_L_25_R_25.png"],["1_Ratio_1000_L_1_R_1.png","14_Ratio_1000_L_17_R_17.png","3_Ratio_1000_L_17_R_17.png","7_Ratio_1000_L_6_R_6.png"]]}},{"start_time":1551794834817,"click_time":1551794835941,"finger_time":1551794835561,"fix_duration":1316.793147682544,"trial":1,"RT":744,"MT":380,"sideResp":2,"stimulus":"img/750/randomdotsizeEA/L/10_Ratio_750_L_4_R_3.png","xmouse":[780,780,780,780,780,780,780,780,780,780,780,780,780,780,780,780,780,780,780,780,780,780,780,780,780,780,780,780,780,780,780,780,780,780,779,778,777,777,780,788,799,852,893,936,982,1016,1041,1074,1086,1093,1096,1097,1097,1097,1097,1097,1097],"ymouse":[499,499,499,499,499,499,499,499,499,499,499,499,499,499,499,499,499,499,499,499,499,499,499,499,499,499,499,499,499,499,499,499,499,498,496,491,481,459,447,434,419,361,325,287,250,221,200,167,150,137,130,126,118,115,112,108,98],"timestamp_mouse":[3,24,52,64,85,105,124,144,164,184,204,224,244,264,283,305,323,343,363,383,403,423,443,463,483,505,525,545,565,584,604,625,643,664,683,703,723,744,763,785,805,824,843,864,884,904,923,943,963,984,1003,1023,1044,1063,1084,1104,1124],"xSR":733.5,"ySR":461.5,"xT1":420.09999999999997,"yT1":0,"xT2":1046.8999999999999,"yT2":0,"toosoon":0,"cond_shown":"randomdotsizeEA","ratio_trial":750,"smaller_num":"3","larger_num":"4","correct_side":1,"subjID":"fernandaaguirrerodriguez39","gender":"1","age":"11","school":"6"},{"start_time":1551794841402,"click_time":1551794842581,"finger_time":1551794842120,"fix_duration":457.456002500769,"trial":2,"RT":718,"MT":461,"sideResp":1,"stimulus":"img/500/equaldotsize/L/4_Ratio_500_L_18_R_9.png","xmouse":[781,781,781,781,781,781,781,781,781,781,781,781,781,781,781,781,781,781,781,781,781,781,781,781,781,781,781,781,781,781,781,781,781,781,779,772,766,760,758,758,758,757,753,752,747,745,740,708,678,655,629,609,577,553,541,527,513,495,490,488],"ymouse":[525,525,525,525,525,525,525,525,525,525,525,525,525,525,525,525,525,525,525,525,525,525,525,525,525,525,525,525,525,525,525,525,525,514,491,469,440,385,368,359,355,352,348,347,342,340,335,319,306,294,280,268,246,226,212,193,173,131,111,94],"timestamp_mouse":[15,18,39,58,79,100,119,139,158,179,198,218,239,260,279,298,320,339,359,379,399,418,439,458,480,498,518,540,559,578,598,620,639,658,678,699,718,739,758,779,798,818,839,859,879,898,918,939,958,978,999,1018,1038,1058,1078,1098,1119,1139,1158,1178],"xSR":733.5,"ySR":461.5,"xT1":420.09999999999997,"yT1":0,"xT2":1046.8999999999999,"yT2":0,"toosoon":0,"cond_shown":"equaldotsize","ratio_trial":500,"smaller_num":"9","larger_num":"18","correct_side":1,"subjID":"fernandaaguirrerodriguez39","gender":"1","age":"11","school":"6"},{"start_time":1551794844590,"click_time":1551794845721,"finger_time":1551794845221,"fix_duration":1248.7482439993432,"trial":3,"RT":631,"MT":500,"sideResp":2,"stimulus":"img/250/randomdotsizeEA/R/11_Ratio_250_L_3_R_12.png","xmouse":[811,811,811,811,811,811,811,811,811,811,811,811,811,811,811,811,811,811,811,811,811,811,811,811,811,811,811,810,808,806,803,800,794,787,781,775,774,774,774,776,783,791,817,832,858,876,896,928,936,941,947,955,982,1014,1044,1086,1125],"ymouse":[493,493,493,493,493,493,493,493,493,493,493,493,493,493,493,493,493,493,493,493,493,493,493,493,493,493,492,488,482,475,467,454,428,408,397,389,386,383,380,372,359,344,310,292,266,253,240,221,216,212,208,202,182,159,138,107,81],"timestamp_mouse":[11,30,52,71,92,112,130,150,170,191,211,231,250,272,292,311,331,351,371,390,411,430,451,471,491,510,530,550,570,590,610,631,651,670,690,710,730,750,770,790,810,830,851,872,890,910,930,951,970,990,1010,1031,1051,1070,1090,1111,1131],"xSR":733.5,"ySR":461.5,"xT1":420.09999999999997,"yT1":0,"xT2":1046.8999999999999,"yT2":0,"toosoon":0,"cond_shown":"randomdotsizeEA","ratio_trial":250,"smaller_num":"3","larger_num":"12","correct_side":2,"subjID":"fernandaaguirrerodriguez39","gender":"1","age":"11","school":"6"},{"start_time":1551794847900,"click_time":1551794849580,"finger_time":1551794848540,"fix_duration":1238.7975960068966,"trial":4,"RT":640,"MT":1040,"sideResp":1,"stimulus":"img/900/equaldotanddens/R/12_Ratio_900_L_18_R_20.png","xmouse":[792,792,792,792,792,792,792,792,792,792,792,792,792,792,792,792,792,792,792,792,792,792,792,792,792,792,792,792,792,789,785,778,766,763,762,762,762,762,765,778,794,809,837,854,872,888,903,929,948,957,966,971,979,982,986,989,990,990,990,988,985,980,962,947,924,889,836,703,631,631,631,631,631,631,631,631,631,631,631,631,631,376,376,410,430],"ymouse":[481,481,481,481,481,481,481,481,481,481,481,481,481,481,481,480,480,480,480,480,480,480,480,480,480,480,480,480,480,477,470,463,448,443,441,439,437,430,423,412,400,385,357,346,334,322,309,283,262,250,237,227,210,202,195,191,188,188,186,184,183,179,165,153,138,117,94,36,9,9,9,9,9,9,9,9,9,9,9,9,9,38,38,55,59],"timestamp_mouse":[8,21,54,61,80,101,121,140,162,182,201,222,240,262,280,301,320,340,362,380,401,421,440,462,480,502,521,541,561,580,601,621,640,660,682,700,721,740,760,780,802,821,841,860,881,901,922,941,960,980,1000,1021,1041,1060,1080,1101,1120,1140,1161,1180,1201,1221,1240,1260,1280,1301,1320,1341,1361,1382,1402,1421,1441,1461,1480,1500,1521,1541,1561,1581,1601,1630,1640,1660,1680],"xSR":733.5,"ySR":461.5,"xT1":420.09999999999997,"yT1":0,"xT2":1046.8999999999999,"yT2":0,"toosoon":0,"cond_shown":"equaldotanddens","ratio_trial":900,"smaller_num":"18","larger_num":"20","correct_side":2,"subjID":"fernandaaguirrerodriguez39","gender":"1","age":"11","school":"6"},{"start_time":1551794853291,"click_time":1551794854380,"finger_time":1551794854000,"fix_duration":250,"trial":5,"RT":709,"MT":380,"sideResp":1,"stimulus":"img/750/equaldotanddens/L/1_Ratio_750_L_20_R_15.png","xmouse":[780,782,783,783,783,783,783,783,783,783,783,783,783,783,783,783,783,783,783,783,783,783,783,783,783,783,783,783,783,784,785,787,799,806,816,827,835,841,831,779,719,653,580,567,561,561,561,561,561,561,561,561,544,522,497],"ymouse":[534,537,538,538,538,538,538,538,538,538,538,538,538,538,538,538,538,538,538,538,538,538,538,538,538,538,538,538,538,538,537,534,514,498,476,451,425,358,320,236,184,135,84,73,67,67,67,67,67,67,67,66,66,66,66],"timestamp_mouse":[10,29,49,69,91,109,131,149,169,190,210,229,249,270,289,309,329,349,369,389,409,430,449,470,490,510,530,549,569,589,609,630,650,669,690,709,730,749,770,789,809,830,849,869,890,910,929,949,971,990,1009,1030,1050,1069,1089],"xSR":733.5,"ySR":461.5,"xT1":420.09999999999997,"yT1":0,"xT2":1046.8999999999999,"yT2":0,"toosoon":0,"cond_shown":"equaldotanddens","ratio_trial":750,"smaller_num":"15","larger_num":"20","correct_side":1,"subjID":"fernandaaguirrerodriguez39","gender":"1","age":"11","school":"6"},{"start_time":1551794856008,"click_time":1551794856861,"finger_time":1551794856680,"fix_duration":766.1615193555554,"trial":6,"RT":672,"MT":181,"sideResp":2,"stimulus":"img/250/equaldotsize/R/4_Ratio_250_L_3_R_12.png","xmouse":[802,802,802,802,802,802,802,802,802,802,802,802,802,802,802,802,802,802,802,802,802,802,802,802,802,802,802,802,802,802,802,805,812,841,876,917,992,1011,1023,1033,1040,1046,1053],"ymouse":[517,517,517,517,517,517,517,517,517,517,517,517,517,517,517,517,517,517,517,517,517,517,517,517,517,517,517,517,516,515,511,494,476,401,325,238,105,73,54,40,31,22,13],"timestamp_mouse":[13,34,52,72,92,114,132,153,172,193,212,233,254,273,293,312,332,352,374,392,412,432,453,472,493,512,533,552,572,593,612,633,654,672,693,713,732,752,772,793,813,833,853],"xSR":733.5,"ySR":461.5,"xT1":420.09999999999997,"yT1":0,"xT2":1046.8999999999999,"yT2":0,"toosoon":0,"cond_shown":"equaldotsize","ratio_trial":250,"smaller_num":"3","larger_num":"12","correct_side":2,"subjID":"fernandaaguirrerodriguez39","gender":"1","age":"11","school":"6"},{"start_time":1551794859099,"click_time":1551794860080,"finger_time":1551794859821,"fix_duration":1196.8144218042435,"trial":7,"RT":722,"MT":259,"sideResp":2,"stimulus":"img/900/equaldotsize/R/14_Ratio_900_L_18_R_20.png","xmouse":[781,778,777,777,777,777,777,777,777,777,777,777,777,777,777,777,777,777,777,777,777,777,777,777,777,777,777,777,777,777,777,776,775,775,775,775,775,775,775,780,786,795,824,844,874,909,945,1009,1033,1057],"ymouse":[492,492,492,492,492,492,492,492,492,492,492,492,492,492,492,492,492,492,492,492,492,492,492,492,492,492,492,492,492,492,492,492,491,486,477,468,459,449,445,434,424,412,378,355,320,277,227,127,85,37],"timestamp_mouse":[2,23,41,61,81,103,121,143,161,181,203,222,241,261,281,302,321,341,362,381,402,421,441,462,482,503,522,541,563,582,602,623,642,661,682,702,722,742,762,781,801,821,841,861,881,902,921,942,962,981],"xSR":733.5,"ySR":461.5,"xT1":420.09999999999997,"yT1":0,"xT2":1046.8999999999999,"yT2":0,"toosoon":0,"cond_shown":"equaldotsize","ratio_trial":900,"smaller_num":"18","larger_num":"20","correct_side":2,"subjID":"fernandaaguirrerodriguez39","gender":"1","age":"11","school":"6"},{"start_time":1551794861688,"click_time":1551794862681,"finger_time":1551794862321,"fix_duration":606.9132972692738,"trial":8,"RT":633,"MT":360,"sideResp":2,"stimulus":"img/250/equaldotsize/R/11_Ratio_250_L_3_R_12.png","xmouse":[755,757,758,758,758,759,760,761,762,765,766,766,766,766,766,766,766,766,766,767,768,768,770,773,773,775,778,780,783,787,791,795,808,817,830,847,866,904,920,937,947,955,972,979,985,990,996,1014,1040,1064],"ymouse":[521,521,521,521,521,521,521,521,523,524,525,525,525,525,525,525,525,525,525,525,525,525,525,524,523,522,518,511,503,489,473,453,399,364,325,282,243,182,161,138,124,112,93,86,80,76,73,73,77,86],"timestamp_mouse":[13,35,53,73,93,112,132,153,174,192,213,233,253,272,292,312,333,353,372,392,414,432,452,473,492,513,534,552,573,592,612,633,653,673,693,712,733,753,772,792,812,832,852,872,892,912,932,953,972,993],"xSR":733.5,"ySR":461.5,"xT1":420.09999999999997,"yT1":0,"xT2":1046.8999999999999,"yT2":0,"toosoon":0,"cond_shown":"equaldotsize","ratio_trial":250,"smaller_num":"3","larger_num":"12","correct_side":2,"subjID":"fernandaaguirrerodriguez39","gender":"1","age":"11","school":"6"},{"start_time":1551794866793,"click_time":1551794867760,"finger_time":1551794867420,"fix_duration":1351.4942474747622,"trial":9,"RT":627,"MT":340,"sideResp":2,"stimulus":"img/900/randomdotsizeEA/L/10_Ratio_900_L_20_R_18.png","xmouse":[786,786,786,786,786,786,786,786,786,786,786,786,786,786,786,786,786,786,786,786,787,787,787,787,788,788,790,792,801,809,819,832,849,887,917,934,950,972,976,976,976,976,976,977,981,989,1004,1046,1067],"ymouse":[513,513,513,513,513,513,513,513,513,513,513,513,513,514,514,514,514,514,514,514,514,514,514,514,514,514,514,513,499,484,462,437,405,330,266,223,190,124,101,89,81,79,79,78,78,78,78,83,90],"timestamp_mouse":[9,34,48,68,87,107,129,149,167,189,207,229,248,267,287,307,329,348,367,389,407,429,448,468,487,508,527,547,567,588,607,627,647,668,687,707,728,748,767,787,807,827,847,868,887,908,927,948,967],"xSR":733.5,"ySR":461.5,"xT1":420.09999999999997,"yT1":0,"xT2":1046.8999999999999,"yT2":0,"toosoon":0,"cond_shown":"randomdotsizeEA","ratio_trial":900,"smaller_num":"18","larger_num":"20","correct_side":1,"subjID":"fernandaaguirrerodriguez39","gender":"1","age":"11","school":"6"},{"start_time":1551794880454,"click_time":1551794881341,"finger_time":1551794881160,"fix_duration":1372.7331256446823,"trial":10,"RT":706,"MT":181,"sideResp":2,"stimulus":"img/500/equaldotsize/R/6_Ratio_500_L_9_R_18.png","xmouse":[800,800,800,800,800,800,800,801,802,803,803,803,803,803,803,803,803,803,803,803,803,803,803,803,803,803,803,803,803,803,803,805,811,820,831,860,882,907,929,970,992,1022,1038,1053,1078],"ymouse":[513,513,513,513,514,514,515,516,516,518,518,518,518,518,518,518,518,518,518,518,518,518,518,518,518,518,518,518,518,518,518,518,514,505,495,464,438,407,372,282,233,166,136,112,84],"timestamp_mouse":[8,42,46,67,86,108,126,146,166,187,207,226,247,266,286,307,328,346,367,387,406,426,448,467,487,508,526,547,567,587,607,626,646,666,686,706,726,747,766,787,806,826,847,867,887],"xSR":733.5,"ySR":461.5,"xT1":420.09999999999997,"yT1":0,"xT2":1046.8999999999999,"yT2":0,"toosoon":0,"cond_shown":"equaldotsize","ratio_trial":500,"smaller_num":"9","larger_num":"18","correct_side":2,"subjID":"fernandaaguirrerodriguez39","gender":"1","age":"11","school":"6"},{"start_time":1551794882692,"click_time":1551794883380,"finger_time":1551794883180,"fix_duration":250,"trial":11,"RT":488,"MT":200,"sideResp":1,"stimulus":"img/750/equaldotsize/L/6_Ratio_750_L_24_R_18.png","xmouse":[773,773,773,773,773,773,773,773,773,773,773,773,773,773,775,776,776,779,780,781,782,783,786,789,792,792,792,779,755,735,707,671,628,523,468],"ymouse":[481,481,481,481,481,481,481,481,481,481,481,481,481,481,480,480,480,479,478,477,476,475,472,469,461,454,447,427,407,393,370,335,287,120,14],"timestamp_mouse":[9,28,62,69,89,110,129,150,168,190,209,228,248,268,289,308,329,349,368,388,410,429,448,468,488,508,528,548,569,588,609,628,648,668,688],"xSR":733.5,"ySR":461.5,"xT1":420.09999999999997,"yT1":0,"xT2":1046.8999999999999,"yT2":0,"toosoon":0,"cond_shown":"equaldotsize","ratio_trial":750,"smaller_num":"18","larger_num":"24","correct_side":1,"subjID":"fernandaaguirrerodriguez39","gender":"1","age":"11","school":"6"},{"start_time":1551794886368,"click_time":1551794887861,"finger_time":1551794887181,"fix_duration":726.0386551779052,"trial":12,"RT":813,"MT":680,"sideResp":1,"stimulus":"img/900/randomdotsizeEA/R/13_Ratio_900_L_18_R_20.png","xmouse":[799,799,799,799,799,799,799,799,799,799,799,799,799,799,799,799,799,799,799,799,799,799,799,799,799,800,800,800,800,800,799,798,798,798,798,798,798,798,798,798,796,792,783,749,708,681,650,617,564,547,539,536,535,532,529,527,523,519,510,504,500,498,498,498,498,498,498,498,503,509,513,515,517,518,515],"ymouse":[525,525,525,525,525,525,525,525,525,525,525,525,525,525,525,525,525,525,525,525,525,525,525,525,524,521,516,509,492,486,482,480,480,480,480,480,480,480,473,465,451,432,411,360,310,280,249,221,184,175,171,170,170,170,169,167,164,161,153,147,143,141,141,141,141,141,140,138,131,124,119,114,108,102,98],"timestamp_mouse":[13,39,53,72,93,114,132,152,173,194,213,233,253,273,293,312,334,353,374,393,413,434,452,474,492,512,532,552,572,592,612,633,653,672,692,713,733,752,772,792,813,832,852,872,894,912,933,953,972,992,1013,1033,1052,1072,1093,1112,1132,1153,1172,1192,1213,1233,1253,1272,1294,1313,1333,1352,1373,1392,1412,1433,1452,1473,1493],"xSR":733.5,"ySR":461.5,"xT1":420.09999999999997,"yT1":0,"xT2":1046.8999999999999,"yT2":0,"toosoon":0,"cond_shown":"randomdotsizeEA","ratio_trial":900,"smaller_num":"18","larger_num":"20","correct_side":2,"subjID":"fernandaaguirrerodriguez39","gender":"1","age":"11","school":"6"},{"start_time":1551794889055,"click_time":1551794898865,"finger_time":1551794894320,"fix_duration":313.9088247439873,"trial":13,"RT":5265,"MT":4545,"sideResp":1,"stimulus":"img/500/equaldotanddens/L/10_Ratio_500_L_4_R_2.png","xmouse":[804,804,804,804,804,804,804,804,804,804,804,804,804,804,804,804,804,804,804,804,804,804,807,808,809,809,809,809,809,809,809,809,809,809,809,809,809,809,809,809,809,809,809,807,804,804,803,801,801,801,801,801,801,801,801,801,801,801,801,801,801,801,801,800,800,801,801,801,801,801,801,801,801,800,796,791,789,788,788,788,788,788,788,788,788,787,786,785,785,785,785,785,785,785,785,785,785,785,787,787,787,788,788,788,788,788,788,788,788,788,788,788,788,788,788,788,788,788,788,788,788,788,788,788,788,788,788,788,788,788,788,788,788,788,788,788,788,788,788,788,788,788,788,788,788,788,788,788,788,788,788,788,788,788,788,788,788,788,788,788,788,788,788,788,788,788,788,788,788,788,788,788,788,788,788,788,788,788,788,788,788,788,788,788,788,788,788,788,788,788,788,788,787,787,787,787,787,787,787,787,787,793,793,793,793,793,793,791,790,789,789,789,789,789,789,789,789,788,786,761,761,760,760,760,760,789,795,796,792,773,765,758,758,758,758,758,787,791,802,802,802,802,802,802,802,802,802,802,802,802,802,801,800,799,794,789,782,772,761,750,750,767,804,856,927,939,940,932,908,818,767,753,751,751,751,754,755,755,755,755,755,755,755,757,770,775,778,778,779,775,761,753,750,750,750,750,753,755,758,760,760,760,760,760,760,760,760,760,760,760,760,760,760,760,760,760,760,760,760,760,760,760,760,760,760,760,760,760,760,760,766,771,774,775,778,780,785,790,794,797,797,797,797,797,797,797,797,797,797,797,797,797,797,797,797,797,797,797,797,797,797,797,797,797,797,797,798,799,800,800,800,800,800,800,800,800,800,800,800,800,800,800,800,800,800,800,800,800,800,800,800,800,800,800,800,800,800,800,800,800,800,800,800,800,800,800,800,800,800,800,800,800,800,800,800,800,800,801,801,801,801,801,801,801,801,801,801,801,801,801,801,801,801,801,801,801,801,801,801,801,801,801,801,801,793,785,773,767,765,765,770,786,803,810,814,814,808,800,793,791,790,790,792,796,798,798,794,785,772,732,708,699,694,691,682,678,673,667,656,615,577,493,439,395,357,356,356,356,356,389,425],"ymouse":[519,519,519,519,519,519,519,519,519,519,519,519,519,519,519,519,519,519,519,519,519,517,513,509,507,507,507,507,507,507,507,507,507,507,507,507,507,507,507,507,507,507,507,507,508,508,508,509,509,509,509,509,509,509,509,509,509,509,509,509,509,509,509,509,508,508,508,508,508,508,508,508,508,508,508,508,508,508,508,508,508,508,508,508,508,508,510,510,511,516,520,521,521,521,521,522,522,522,521,521,520,520,520,520,520,520,520,520,520,520,520,520,520,519,519,519,519,519,519,519,519,519,519,519,519,519,519,519,519,519,519,519,519,519,519,519,519,519,519,519,519,519,519,519,519,519,519,519,519,519,519,519,519,519,519,519,519,519,519,519,519,519,519,519,519,519,519,519,519,519,519,519,519,519,519,519,519,519,519,519,519,519,519,519,519,519,519,519,519,519,524,527,529,529,529,529,529,529,529,529,529,526,523,523,523,523,523,525,526,527,527,527,527,527,527,527,527,527,527,524,523,523,523,523,523,523,521,521,522,531,533,531,531,531,531,531,537,537,533,534,534,534,534,534,534,534,534,533,533,532,530,530,529,528,525,522,519,513,508,505,505,506,511,519,538,545,546,547,547,521,506,500,499,499,499,499,500,500,500,500,500,500,500,502,505,507,508,508,509,509,509,509,509,509,509,509,509,509,509,510,510,510,510,510,510,510,510,510,510,510,510,510,510,510,510,510,510,510,510,510,510,510,510,510,510,510,510,510,510,510,516,523,526,527,527,527,526,525,523,523,523,523,523,523,523,523,523,523,523,523,523,523,523,523,523,523,523,523,523,523,523,523,523,523,523,523,523,523,523,523,523,523,523,523,523,523,523,523,523,523,523,523,523,523,523,523,523,523,523,523,523,523,523,523,523,523,523,523,523,523,523,523,523,523,523,523,523,523,523,523,523,523,523,523,523,523,523,522,522,522,522,522,522,522,522,522,522,522,522,522,522,522,522,522,522,522,522,522,522,522,522,522,522,522,521,520,518,517,516,516,516,517,520,522,523,524,525,525,525,525,525,523,517,505,478,463,447,427,405,348,297,270,245,223,189,179,171,167,164,159,152,130,113,94,77,76,76,76,75,67,66],"timestamp_mouse":[7,38,46,65,85,105,126,145,166,185,207,227,246,265,285,306,325,345,365,387,405,425,446,466,485,505,526,545,566,587,605,626,645,666,685,706,725,746,765,786,806,826,845,865,886,905,925,945,967,985,1005,1026,1047,1066,1086,1106,1126,1146,1166,1186,1205,1226,1246,1266,1286,1306,1326,1346,1366,1385,1406,1427,1445,1465,1485,1505,1527,1546,1565,1585,1606,1625,1645,1666,1685,1705,1725,1745,1766,1785,1805,1825,1846,1866,1886,1905,1927,1945,1965,1987,2006,2025,2045,2065,2086,2106,2126,2145,2166,2186,2206,2225,2247,2265,2286,2305,2326,2347,2365,2386,2405,2427,2446,2465,2487,2506,2526,2546,2565,2585,2606,2625,2645,2667,2685,2707,2725,2746,2766,2786,2805,2826,2845,2866,2886,2906,2926,2947,2966,2985,3006,3025,3047,3065,3086,3105,3125,3145,3166,3186,3205,3225,3247,3266,3285,3305,3326,3345,3365,3387,3405,3426,3446,3465,3487,3507,3525,3546,3565,3585,3605,3625,3647,3666,3685,3707,3725,3745,3766,3785,3805,3825,3846,3865,3885,3905,3926,3945,3965,3986,4005,4025,4045,4066,4086,4105,4125,4145,4166,4185,4205,4226,4246,4266,4285,4306,4326,4345,4365,4386,4406,4426,4446,4465,4486,4505,4525,4546,4567,4585,4606,4626,4645,4666,4685,4705,4726,4746,4765,4786,4805,4826,4845,4865,4886,4905,4925,4946,4966,4985,5005,5026,5045,5065,5085,5105,5125,5146,5165,5186,5205,5225,5246,5265,5285,5305,5325,5345,5367,5385,5405,5425,5446,5466,5485,5505,5526,5545,5565,5586,5605,5625,5646,5665,5685,5705,5725,5745,5771,5791,5811,5830,5850,5871,5892,5911,5930,5950,5970,5991,6011,6030,6050,6070,6092,6110,6131,6150,6170,6192,6212,6230,6251,6271,6290,6312,6331,6351,6370,6390,6411,6431,6450,6471,6491,6510,6530,6550,6571,6590,6611,6630,6651,6670,6690,6710,6731,6751,6770,6791,6810,6830,6851,6871,6891,6911,6932,6952,6970,6990,7012,7030,7050,7071,7091,7110,7130,7151,7170,7190,7211,7231,7251,7271,7291,7322,7331,7350,7371,7390,7410,7431,7451,7471,7490,7511,7530,7550,7571,7590,7610,7630,7650,7670,7690,7710,7730,7751,7771,7792,7811,7830,7850,7872,7890,7911,7930,7950,7970,7991,8010,8031,8051,8070,8090,8110,8130,8151,8170,8191,8211,8231,8250,8271,8292,8312,8331,8352,8370,8391,8410,8430,8450,8470,8492,8511,8531,8550,8571,8590,8611,8631,8650,8670,8690,8710,8731,8751,8771,8791,8810,8830,8850,8870,8890,8910,8930,8950,8971,8990,9011,9030,9051,9071,9091,9110,9130,9150,9172,9190,9210,9230,9250,9271,9290,9310,9331,9350,9371,9390,9411,9430,9451,9471,9491,9510,9530,9551,9572,9590,9610,9630,9651,9671,9690,9710,9730,9750,9770,9791,9810],"xSR":733.5,"ySR":461.5,"xT1":420.09999999999997,"yT1":0,"xT2":1046.8999999999999,"yT2":0,"toosoon":0,"cond_shown":"equaldotanddens","ratio_trial":500,"smaller_num":"2","larger_num":"4","correct_side":1,"subjID":"fernandaaguirrerodriguez39","gender":"1","age":"11","school":"6"},{"start_time":1551794902089,"click_time":1551794908365,"finger_time":1551794907165,"fix_duration":642.2630128102738,"trial":14,"RT":5076,"MT":1200,"sideResp":1,"stimulus":"img/500/equaldotanddens/L/8_Ratio_500_L_8_R_4.png","xmouse":[786,786,786,786,786,786,786,786,786,786,786,786,786,786,786,786,786,786,786,786,786,786,786,786,786,786,786,786,786,786,786,786,786,786,786,786,786,786,786,786,786,786,786,786,786,786,786,786,786,786,786,786,786,786,786,786,786,786,786,786,786,786,786,786,786,786,786,786,786,786,786,786,786,786,786,786,786,786,786,786,786,786,786,786,786,786,786,786,786,786,786,786,786,786,786,786,786,786,786,786,786,786,786,786,786,786,786,786,786,786,786,786,786,786,786,786,786,786,786,786,786,786,786,786,786,786,786,786,786,786,786,786,786,786,791,795,806,820,821,821,822,817,802,795,793,792,792,792,792,792,792,792,793,794,795,795,795,795,795,795,794,794,794,793,793,793,793,793,793,793,793,793,793,793,794,794,794,794,794,795,796,798,798,798,798,798,798,798,798,798,798,798,798,798,798,799,801,805,806,806,806,806,806,806,807,807,807,807,807,807,807,807,807,807,807,807,807,807,807,807,807,807,807,807,807,807,807,807,807,807,807,807,807,807,807,807,807,807,807,807,807,807,807,807,802,791,783,780,780,780,780,780,771,660,570,495,436,385,379,379,380,381,385,387,394,412,445,559,658,728,810,932,1300,1515,1515,1515,1515,1515,1515,1542,1452,1310,935,725,539,369,232,41,9,2,2,2,26,66,145,237,356,640,849,968,1055,1099,1117,1117,1117,1117,1117,1111,1038,954,853,745,553,481],"ymouse":[518,518,518,518,518,518,518,518,518,518,518,518,519,519,519,519,519,519,519,519,519,519,519,519,519,519,519,519,519,519,519,519,519,519,519,519,519,519,519,519,519,519,519,519,519,519,519,519,519,519,519,519,519,519,519,519,519,519,519,519,519,519,519,519,519,519,519,519,519,519,519,519,519,519,519,519,519,519,519,519,519,519,519,519,519,519,519,519,519,519,519,519,519,519,519,519,519,519,519,519,519,519,519,519,519,519,519,519,519,519,519,519,519,519,519,519,519,519,519,519,519,519,519,519,519,519,519,519,519,519,519,519,519,519,519,519,522,525,526,526,527,527,528,528,528,528,528,528,528,528,528,529,530,531,531,531,531,531,532,532,533,533,533,533,533,533,532,532,532,532,532,532,532,532,532,534,536,538,538,538,538,538,538,538,538,538,538,538,538,538,538,538,538,538,538,537,536,530,528,528,528,528,528,528,527,527,526,526,526,526,526,526,526,526,526,526,526,526,526,526,526,526,526,526,526,526,526,526,526,526,526,526,526,526,526,526,526,526,526,526,526,525,525,525,525,525,525,525,525,525,525,525,493,422,371,328,294,257,247,242,237,231,215,205,191,171,145,80,36,19,15,33,184,279,279,279,279,279,279,532,507,469,366,309,260,207,169,122,115,113,113,113,107,101,91,91,91,111,140,158,171,185,191,191,191,191,191,192,188,175,158,126,71,46],"timestamp_mouse":[16,38,57,77,97,117,138,156,177,196,217,236,257,276,296,317,336,356,376,397,418,436,456,477,497,518,536,557,577,596,616,636,658,676,697,718,736,758,776,796,817,837,858,876,898,917,937,958,976,996,1017,1036,1058,1076,1096,1118,1136,1156,1176,1197,1217,1236,1256,1276,1296,1318,1337,1357,1376,1396,1417,1438,1457,1476,1498,1517,1537,1557,1578,1597,1617,1636,1657,1676,1696,1716,1736,1756,1776,1796,1817,1837,1857,1878,1897,1917,1936,1957,1976,1996,2017,2037,2057,2076,2096,2117,2137,2158,2177,2197,2217,2237,2257,2277,2297,2316,2336,2357,2377,2396,2418,2436,2456,2477,2496,2517,2537,2556,2577,2597,2617,2636,2657,2676,2697,2716,2737,2756,2776,2796,2818,2836,2856,2876,2897,2917,2936,2958,2977,2996,3017,3036,3057,3076,3096,3116,3136,3156,3176,3196,3216,3237,3256,3277,3296,3316,3336,3356,3377,3396,3417,3437,3456,3477,3496,3516,3537,3557,3577,3596,3616,3636,3658,3676,3696,3717,3738,3756,3778,3797,3816,3837,3857,3877,3896,3916,3937,3956,3977,3996,4017,4036,4056,4077,4096,4116,4137,4157,4176,4198,4217,4237,4256,4277,4296,4316,4337,4356,4378,4396,4417,4436,4457,4477,4498,4517,4536,4557,4576,4596,4618,4636,4657,4678,4696,4716,4737,4756,4777,4796,4817,4837,4856,4876,4896,4917,4937,4956,4978,4996,5018,5036,5056,5076,5098,5117,5137,5156,5177,5196,5217,5236,5257,5276,5296,5317,5336,5357,5376,5396,5416,5437,5457,5476,5496,5517,5538,5557,5576,5596,5616,5637,5656,5676,5696,5718,5736,5756,5777,5796,5817,5836,5856,5876,5897,5917,5937,5956,5976,5996,6017,6037,6057,6076,6097,6116,6136,6156,6177,6196,6218,6237,6256,6276],"xSR":733.5,"ySR":461.5,"xT1":420.09999999999997,"yT1":0,"xT2":1046.8999999999999,"yT2":0,"toosoon":0,"cond_shown":"equaldotanddens","ratio_trial":500,"smaller_num":"4","larger_num":"8","correct_side":1,"subjID":"fernandaaguirrerodriguez39","gender":"1","age":"11","school":"6"},{"start_time":1551794910260,"click_time":1551794911345,"finger_time":1551794911006,"fix_duration":593.1029113703124,"trial":15,"RT":746,"MT":339,"sideResp":2,"stimulus":"img/250/equaldotanddens/R/9_Ratio_250_L_3_R_12.png","xmouse":[767,767,767,767,767,767,767,767,767,767,767,767,767,767,767,767,767,767,767,767,767,767,767,767,767,767,767,767,767,767,767,767,767,767,768,774,786,803,828,872,897,935,953,963,968,968,968,968,968,972,982,991,1000,1014,1058],"ymouse":[528,528,528,528,528,528,528,528,528,528,528,528,528,528,528,528,528,528,528,528,528,528,528,528,528,528,528,528,528,528,528,528,528,528,518,504,482,451,413,351,325,289,265,246,215,205,198,196,195,185,168,155,143,123,49],"timestamp_mouse":[8,26,45,65,85,106,126,146,166,186,205,225,245,267,286,306,325,346,365,385,405,426,445,467,486,505,527,546,566,586,606,625,646,665,686,705,726,746,766,785,806,825,846,865,885,905,925,945,967,985,1006,1025,1045,1065,1085],"xSR":733.5,"ySR":461.5,"xT1":420.09999999999997,"yT1":0,"xT2":1046.8999999999999,"yT2":0,"toosoon":0,"cond_shown":"equaldotanddens","ratio_trial":250,"smaller_num":"3","larger_num":"12","correct_side":2,"subjID":"fernandaaguirrerodriguez39","gender":"1","age":"11","school":"6"},{"start_time":1551794912597,"click_time":1551794913986,"finger_time":1551794912985,"fix_duration":250,"trial":16,"RT":388,"MT":1001,"sideResp":2,"stimulus":"img/500/randomdotsizeEA/R/6_Ratio_500_L_9_R_18.png","xmouse":[791,791,791,791,790,789,788,787,787,787,787,786,786,786,786,787,788,789,789,788,788,788,788,788,788,788,788,788,788,788,788,788,788,789,789,789,791,792,794,797,803,814,850,888,911,927,939,966,981,997,1013,1028,1060,1086,1100,1114,1129,1156,1166,1173,1180,1185,1191,1192,1192,1192,1191,1167,1151,1131],"ymouse":[496,496,496,496,496,496,497,497,497,497,497,497,497,497,493,485,478,467,463,460,458,458,458,458,458,458,458,458,458,458,458,457,456,456,455,454,449,440,438,431,422,403,352,308,279,259,240,204,188,175,163,153,130,116,111,108,106,101,100,97,96,94,93,93,92,92,89,82,76,74],"timestamp_mouse":[9,37,48,68,88,108,128,148,170,188,208,228,249,268,288,309,328,348,368,388,408,428,448,469,488,508,528,549,569,589,609,628,649,668,688,708,729,748,768,788,808,828,849,868,888,908,928,948,968,988,1009,1028,1049,1070,1088,1109,1128,1148,1168,1189,1208,1229,1248,1269,1288,1308,1329,1348,1368,1388],"xSR":733.5,"ySR":461.5,"xT1":420.09999999999997,"yT1":0,"xT2":1046.8999999999999,"yT2":0,"toosoon":0,"cond_shown":"randomdotsizeEA","ratio_trial":500,"smaller_num":"9","larger_num":"18","correct_side":2,"subjID":"fernandaaguirrerodriguez39","gender":"1","age":"11","school":"6"},{"start_time":1551794915180,"click_time":1551794915846,"finger_time":1551794915706,"fix_duration":332.7030435929034,"trial":17,"RT":526,"MT":140,"sideResp":1,"stimulus":"img/250/equaldotanddens/L/3_Ratio_250_L_8_R_2.png","xmouse":[766,766,766,766,766,767,767,767,767,767,767,768,768,768,768,769,769,769,769,770,770,770,771,771,771,771,770,764,725,691,649,600,557,506],"ymouse":[504,504,504,504,504,504,504,504,504,504,504,504,504,504,504,504,503,502,501,499,499,498,497,491,483,471,451,426,331,268,198,137,91,38],"timestamp_mouse":[9,25,45,65,85,106,125,146,166,186,205,225,246,265,285,306,326,345,365,385,405,425,445,465,485,505,526,545,566,585,605,626,645,666],"xSR":733.5,"ySR":461.5,"xT1":420.09999999999997,"yT1":0,"xT2":1046.8999999999999,"yT2":0,"toosoon":0,"cond_shown":"equaldotanddens","ratio_trial":250,"smaller_num":"2","larger_num":"8","correct_side":1,"subjID":"fernandaaguirrerodriguez39","gender":"1","age":"11","school":"6"},{"start_time":1551794917123,"click_time":1551794918467,"finger_time":1551794917526,"fix_duration":294.99025401727164,"trial":18,"RT":403,"MT":941,"sideResp":1,"stimulus":"img/900/randomdotsizeEA/L/10_Ratio_900_L_20_R_18.png","xmouse":[813,813,813,813,813,813,813,813,813,813,813,813,813,813,813,813,811,808,802,795,789,777,773,772,772,772,772,772,772,772,772,772,772,771,770,768,763,759,757,756,755,752,750,749,746,744,735,730,725,719,706,672,651,627,606,584,520,466,443,429,425,423,422,422,422,422,425,435],"ymouse":[505,505,505,505,505,505,505,505,505,505,505,505,505,505,505,505,503,496,487,472,458,433,425,422,421,421,421,421,421,421,421,421,421,418,414,409,393,379,372,366,361,338,330,320,310,300,280,265,251,239,221,191,180,170,164,158,149,141,138,136,133,132,132,130,127,123,110,99],"timestamp_mouse":[9,39,43,62,82,102,123,143,162,182,202,223,242,262,283,303,322,342,362,382,403,423,442,462,482,503,523,543,564,582,603,624,642,662,683,702,723,743,762,783,802,822,842,863,883,903,922,944,962,984,1003,1022,1042,1063,1083,1102,1123,1142,1162,1182,1202,1222,1243,1264,1282,1302,1323,1344],"xSR":733.5,"ySR":461.5,"xT1":420.09999999999997,"yT1":0,"xT2":1046.8999999999999,"yT2":0,"toosoon":0,"cond_shown":"randomdotsizeEA","ratio_trial":900,"smaller_num":"18","larger_num":"20","correct_side":1,"subjID":"fernandaaguirrerodriguez39","gender":"1","age":"11","school":"6"},{"start_time":1551794920077,"click_time":1551794921186,"finger_time":1551794920685,"fix_duration":250,"trial":19,"RT":608,"MT":501,"sideResp":2,"stimulus":"img/250/equaldotsize/R/6_Ratio_250_L_6_R_24.png","xmouse":[780,780,780,780,780,780,780,780,780,780,780,780,780,780,780,781,782,782,784,784,784,784,784,784,784,784,784,784,776,759,748,745,745,775,803,844,896,950,1035,1061,1067,1071,1075,1088,1103,1124,1145,1167,1192,1193,1193,1193,1192,1170,1150,1123],"ymouse":[511,511,511,511,511,511,511,511,511,511,511,511,511,511,511,510,508,507,503,503,503,503,503,503,503,503,502,501,496,474,444,418,389,311,278,251,227,211,186,178,176,175,173,164,152,138,122,107,83,78,77,77,76,75,73,69],"timestamp_mouse":[8,39,48,68,89,109,129,150,170,189,210,229,249,270,288,308,329,348,368,388,409,429,449,468,488,508,528,549,568,588,608,629,649,668,688,709,729,748,768,788,808,828,848,868,888,909,928,949,969,988,1009,1029,1050,1068,1089,1109],"xSR":733.5,"ySR":461.5,"xT1":420.09999999999997,"yT1":0,"xT2":1046.8999999999999,"yT2":0,"toosoon":0,"cond_shown":"equaldotsize","ratio_trial":250,"smaller_num":"6","larger_num":"24","correct_side":2,"subjID":"fernandaaguirrerodriguez39","gender":"1","age":"11","school":"6"},{"start_time":1551794922622,"click_time":1551794923565,"finger_time":1551794923146,"fix_duration":375.4671373414935,"trial":20,"RT":524,"MT":419,"sideResp":1,"stimulus":"img/750/equaldotsize/R/2_Ratio_750_L_6_R_8.png","xmouse":[778,778,778,778,778,778,778,778,778,778,778,778,778,778,778,778,778,778,778,778,778,778,778,778,780,785,790,790,790,786,781,765,757,754,751,744,727,719,715,713,711,711,711,704,687,661,553,487],"ymouse":[536,536,536,536,536,536,536,536,536,536,536,536,536,536,536,536,536,536,536,536,536,536,533,526,511,486,434,414,396,380,364,326,302,284,264,243,209,199,196,194,194,194,194,190,180,163,98,60],"timestamp_mouse":[8,23,47,64,84,104,125,143,164,185,203,223,243,264,283,303,324,344,364,384,404,423,444,463,484,504,524,543,563,583,603,623,645,663,684,703,723,743,763,783,803,824,844,863,884,904,923,943],"xSR":733.5,"ySR":461.5,"xT1":420.09999999999997,"yT1":0,"xT2":1046.8999999999999,"yT2":0,"toosoon":0,"cond_shown":"equaldotsize","ratio_trial":750,"smaller_num":"6","larger_num":"8","correct_side":2,"subjID":"fernandaaguirrerodriguez39","gender":"1","age":"11","school":"6"},{"start_time":1551794926137,"click_time":1551794927425,"finger_time":1551794926905,"fix_duration":1370.6972639146634,"trial":21,"RT":768,"MT":520,"sideResp":1,"stimulus":"img/750/equaldotsize/L/14_Ratio_750_L_8_R_6.png","xmouse":[780,780,780,780,784,763,758,758,758,758,755,752,751,752,752,753,753,753,753,753,753,753,753,753,753,753,753,753,753,753,753,753,753,753,754,754,754,754,754,750,729,714,696,676,654,619,611,606,601,595,584,577,571,563,557,543,535,529,524,522,521,521,521,521,520],"ymouse":[523,523,523,523,516,491,488,488,494,499,520,524,524,523,523,521,520,520,520,520,520,520,520,520,520,520,520,520,520,520,520,520,520,520,518,509,502,475,454,431,382,360,340,323,308,279,267,256,243,233,212,202,187,172,157,113,88,75,66,63,61,61,61,61,61],"timestamp_mouse":[15,38,48,69,89,108,129,148,169,189,208,228,248,268,288,309,328,348,368,388,408,428,448,469,489,508,528,548,569,589,610,629,648,669,689,709,729,748,768,788,808,828,849,869,890,909,928,948,968,989,1008,1028,1049,1069,1090,1108,1129,1148,1168,1190,1209,1229,1248,1268,1288],"xSR":733.5,"ySR":461.5,"xT1":420.09999999999997,"yT1":0,"xT2":1046.8999999999999,"yT2":0,"toosoon":0,"cond_shown":"equaldotsize","ratio_trial":750,"smaller_num":"6","larger_num":"8","correct_side":1,"subjID":"fernandaaguirrerodriguez39","gender":"1","age":"11","school":"6"},{"start_time":1551794929846,"click_time":1551794930867,"finger_time":1551794930507,"fix_duration":1439.629440394524,"trial":22,"RT":661,"MT":360,"sideResp":2,"stimulus":"img/750/equaldotanddens/R/12_Ratio_750_L_3_R_4.png","xmouse":[774,774,774,774,774,774,774,774,774,774,774,774,774,774,774,774,774,774,774,774,774,774,774,774,774,774,774,774,774,774,774,776,780,788,821,846,874,897,916,936,944,946,947,947,949,951,952,954,955,1002,1070],"ymouse":[500,500,500,500,500,500,500,500,500,500,500,500,500,500,500,500,500,500,500,500,500,500,500,500,500,500,500,500,500,492,482,468,444,414,315,256,203,159,125,83,68,63,63,62,57,51,48,45,44,44,44],"timestamp_mouse":[38,39,59,81,99,119,140,159,179,201,220,239,261,279,300,319,341,360,379,399,419,439,459,479,499,520,539,559,579,600,619,639,660,680,699,719,740,759,780,799,819,840,860,879,899,920,941,959,979,999,1020],"xSR":733.5,"ySR":461.5,"xT1":420.09999999999997,"yT1":0,"xT2":1046.8999999999999,"yT2":0,"toosoon":0,"cond_shown":"equaldotanddens","ratio_trial":750,"smaller_num":"3","larger_num":"4","correct_side":2,"subjID":"fernandaaguirrerodriguez39","gender":"1","age":"11","school":"6"},{"start_time":1551794933368,"click_time":1551794935085,"finger_time":1551794934706,"fix_duration":360.25305917967853,"trial":23,"RT":1338,"MT":379,"sideResp":1,"stimulus":"img/500/randomdotsizeEA/R/15_Ratio_500_L_1_R_2.png","xmouse":[780,780,780,780,780,780,780,780,780,780,780,780,780,780,780,780,780,780,780,780,780,780,780,780,780,780,780,780,780,780,780,780,780,780,780,780,780,780,780,780,780,780,780,780,780,780,780,780,780,780,780,780,780,780,780,780,780,780,780,780,780,780,780,780,780,780,779,770,738,717,688,640,564,394,326,262,244,232,220,216,212,211,211,239,281,425],"ymouse":[501,501,501,501,501,501,501,501,501,501,501,501,501,501,501,501,501,501,501,501,501,501,501,501,501,501,501,501,501,501,501,501,501,501,501,501,501,501,503,504,504,504,504,504,504,504,504,504,504,504,504,504,504,504,504,504,504,504,504,505,505,505,505,505,501,483,459,429,365,339,313,288,264,219,198,178,168,160,142,127,108,86,65,29,18,16],"timestamp_mouse":[18,40,58,78,97,118,138,159,177,198,217,239,258,278,297,318,337,358,379,397,417,439,457,477,497,517,538,558,578,597,617,638,657,679,697,717,737,757,778,797,817,837,857,877,899,918,937,957,977,997,1019,1039,1058,1077,1098,1117,1137,1157,1178,1199,1217,1239,1259,1278,1298,1317,1338,1358,1377,1397,1417,1437,1459,1477,1497,1517,1538,1557,1577,1597,1617,1638,1657,1677,1697,1717],"xSR":733.5,"ySR":461.5,"xT1":420.09999999999997,"yT1":0,"xT2":1046.8999999999999,"yT2":0,"toosoon":0,"cond_shown":"randomdotsizeEA","ratio_trial":500,"smaller_num":"1","larger_num":"2","correct_side":2,"subjID":"fernandaaguirrerodriguez39","gender":"1","age":"11","school":"6"},{"start_time":1551794937397,"click_time":1551794938665,"finger_time":1551794937435,"fix_duration":1008.2440484711378,"trial":24,"RT":38,"MT":1230,"sideResp":1,"stimulus":"img/500/randomdotsizeEA/L/7_Ratio_500_L_10_R_5.png","xmouse":[746,728,712,710,709,709,709,709,709,710,710,710,710,710,713,716,721,728,732,735,736,737,737,737,737,737,738,739,739,739,736,731,711,701,689,677,664,635,623,618,615,613,613,613,613,613,613,613,613,612,607,591,514,407,336,268,220,202,202,202,209,225,333,450],"ymouse":[542,560,578,584,585,585,585,585,585,585,585,585,585,585,585,583,580,573,568,564,561,560,560,560,559,557,552,533,518,497,476,451,378,335,268,222,187,143,130,125,122,121,121,121,121,121,121,121,121,121,120,117,106,91,80,70,61,57,57,57,57,57,57,57],"timestamp_mouse":[9,38,49,68,88,108,129,148,168,189,209,230,249,268,288,308,329,349,368,389,410,428,449,469,490,510,529,548,568,589,608,629,648,669,688,709,729,748,768,788,809,829,848,869,889,910,928,949,969,989,1009,1028,1048,1068,1088,1109,1129,1149,1168,1189,1209,1229,1248,1268],"xSR":733.5,"ySR":461.5,"xT1":420.09999999999997,"yT1":0,"xT2":1046.8999999999999,"yT2":0,"toosoon":0,"cond_shown":"randomdotsizeEA","ratio_trial":500,"smaller_num":"5","larger_num":"10","correct_side":1,"subjID":"fernandaaguirrerodriguez39","gender":"1","age":"11","school":"6"},{"start_time":1551794940032,"click_time":1551794941506,"finger_time":1551794940526,"fix_duration":484.2027005197831,"trial":25,"RT":494,"MT":980,"sideResp":2,"stimulus":"img/500/randomdotsizeEA/R/14_Ratio_500_L_5_R_10.png","xmouse":[801,801,801,801,800,800,799,798,797,795,789,786,786,786,786,786,786,786,786,785,785,783,782,782,782,782,782,782,782,780,773,768,767,765,765,763,762,761,761,761,761,761,761,761,761,761,761,761,763,775,832,892,1027,1154,1346,1346,1346,1346,1346,1346,1346,1346,1346,1346,1346,1346,1346,1346,1346,1551,1452,1314,1211,1111],"ymouse":[486,486,486,486,486,486,487,487,489,491,496,499,499,499,499,499,499,499,499,498,497,490,480,471,454,410,383,357,329,300,247,217,204,192,183,168,165,164,164,164,164,164,164,164,164,164,164,162,158,154,137,119,79,46,6,6,6,6,6,6,6,6,6,6,6,6,6,6,6,27,29,29,29,29],"timestamp_mouse":[13,36,54,74,93,114,134,154,173,193,213,235,253,274,293,314,333,353,374,394,413,434,453,473,494,514,533,553,574,594,614,633,653,674,693,713,733,753,773,794,814,835,853,874,893,914,934,954,974,994,1013,1034,1053,1074,1093,1115,1133,1153,1173,1194,1214,1234,1254,1274,1293,1313,1334,1354,1373,1394,1413,1434,1453,1474],"xSR":733.5,"ySR":461.5,"xT1":420.09999999999997,"yT1":0,"xT2":1046.8999999999999,"yT2":0,"toosoon":0,"cond_shown":"randomdotsizeEA","ratio_trial":500,"smaller_num":"5","larger_num":"10","correct_side":2,"subjID":"fernandaaguirrerodriguez39","gender":"1","age":"11","school":"6"},{"start_time":1551794943077,"click_time":1551794944025,"finger_time":1551794943606,"fix_duration":628.5312627154534,"trial":26,"RT":529,"MT":419,"sideResp":1,"stimulus":"img/900/equaldotsize/R/12_Ratio_900_L_18_R_20.png","xmouse":[801,801,801,801,801,801,801,801,801,801,801,801,801,801,801,801,801,801,801,801,801,801,801,799,798,796,792,787,773,763,755,745,735,720,717,715,714,714,714,714,714,714,714,695,665,619,548,465],"ymouse":[504,504,504,504,504,504,504,504,504,504,504,504,504,504,504,504,504,504,504,504,504,504,504,500,492,474,448,415,299,203,158,132,120,113,113,113,114,114,114,114,114,114,114,111,102,90,71,49],"timestamp_mouse":[8,28,49,68,88,109,128,148,169,188,209,229,250,268,288,308,328,350,368,388,410,428,448,469,488,508,529,549,568,588,608,628,648,670,689,708,730,749,769,790,810,828,848,868,888,909,929,948],"xSR":733.5,"ySR":461.5,"xT1":420.09999999999997,"yT1":0,"xT2":1046.8999999999999,"yT2":0,"toosoon":0,"cond_shown":"equaldotsize","ratio_trial":900,"smaller_num":"18","larger_num":"20","correct_side":2,"subjID":"fernandaaguirrerodriguez39","gender":"1","age":"11","school":"6"},{"start_time":1551794946247,"click_time":1551794948206,"finger_time":1551794947006,"fix_duration":1300.3797931861975,"trial":27,"RT":759,"MT":1200,"sideResp":1,"stimulus":"img/750/randomdotsizeEA/L/10_Ratio_750_L_4_R_3.png","xmouse":[766,766,766,766,766,766,766,766,766,766,766,766,766,766,766,766,766,766,766,766,767,767,768,768,768,768,768,768,768,768,768,768,768,768,768,768,768,769,773,787,798,814,824,833,846,850,853,853,849,839,838,837,837,837,837,837,837,837,837,837,838,838,838,838,832,816,788,740,674,531,531,531,531,531,531,531,531,531,531,531,531,531,531,531,531,531,531,531,531,531,531,531,531,531,531,531,531,476],"ymouse":[496,496,496,496,496,496,496,496,496,496,496,496,496,496,496,496,494,493,492,490,488,488,488,488,488,488,488,488,488,488,488,488,488,488,485,480,471,458,438,379,338,286,260,240,208,194,179,164,147,117,114,111,111,111,111,111,111,110,109,107,106,106,106,106,100,93,82,65,43,0,0,0,0,0,0,0,0,0,0,0,0,0,0,0,0,0,0,0,0,0,0,0,0,0,0,0,0,1],"timestamp_mouse":[35,38,58,78,99,118,138,158,179,199,219,238,258,278,298,318,338,358,378,398,420,438,459,478,498,519,539,560,578,598,620,638,658,678,699,718,739,759,779,799,818,838,859,878,899,918,940,959,979,999,1018,1038,1060,1078,1100,1120,1139,1158,1179,1198,1219,1238,1258,1279,1298,1319,1338,1358,1378,1398,1419,1438,1458,1478,1498,1518,1539,1559,1579,1599,1619,1639,1660,1679,1700,1719,1738,1759,1780,1798,1818,1838,1858,1878,1898,1919,1938,1959],"xSR":733.5,"ySR":461.5,"xT1":420.09999999999997,"yT1":0,"xT2":1046.8999999999999,"yT2":0,"toosoon":0,"cond_shown":"randomdotsizeEA","ratio_trial":750,"smaller_num":"3","larger_num":"4","correct_side":1,"subjID":"fernandaaguirrerodriguez39","gender":"1","age":"11","school":"6"},{"start_time":1551794949571,"click_time":1551794950785,"finger_time":1551794950267,"fix_duration":405.6186589242796,"trial":28,"RT":696,"MT":518,"sideResp":2,"stimulus":"img/250/randomdotsizeEA/R/6_Ratio_250_L_6_R_24.png","xmouse":[775,775,775,775,775,775,775,775,775,775,775,775,775,775,775,775,775,775,775,775,775,775,775,775,775,775,775,775,775,775,776,776,776,775,767,767,767,772,802,826,849,871,894,934,953,972,984,1002,1037,1052,1064,1069,1070,1070,1070,1070,1070,1070,1078,1092,1109],"ymouse":[504,504,504,504,504,504,504,504,504,504,504,504,504,504,504,504,504,504,504,504,504,504,504,504,504,504,504,504,504,504,503,501,492,482,431,409,387,366,320,297,278,261,245,211,196,180,170,158,137,127,120,118,117,117,117,117,117,116,109,104,98],"timestamp_mouse":[14,34,55,74,95,114,136,156,174,194,214,234,255,274,294,315,334,355,374,394,415,434,454,476,494,514,535,555,576,594,615,635,654,674,696,714,734,755,774,794,814,834,855,874,894,914,934,955,975,994,1015,1034,1054,1075,1094,1114,1136,1154,1175,1194,1214],"xSR":733.5,"ySR":461.5,"xT1":420.09999999999997,"yT1":0,"xT2":1046.8999999999999,"yT2":0,"toosoon":0,"cond_shown":"randomdotsizeEA","ratio_trial":250,"smaller_num":"6","larger_num":"24","correct_side":2,"subjID":"fernandaaguirrerodriguez39","gender":"1","age":"11","school":"6"},{"start_time":1551794951896,"click_time":1551794953305,"finger_time":1551794952645,"fix_duration":250,"trial":29,"RT":749,"MT":660,"sideResp":1,"stimulus":"img/750/equaldotanddens/L/10_Ratio_750_L_4_R_3.png","xmouse":[801,801,801,801,801,801,801,801,801,801,801,800,799,797,796,792,791,788,788,788,788,788,788,788,788,788,788,787,785,785,785,784,783,781,780,780,780,780,780,780,780,777,773,771,771,769,766,747,730,717,707,699,694,694,694,694,694,690,686,676,668,660,644,635,625,614,601,565,539,523,512],"ymouse":[551,551,551,551,551,551,551,551,551,551,551,550,545,540,534,528,523,518,518,518,518,518,518,518,518,517,516,509,504,502,500,498,490,486,480,474,465,438,413,394,376,358,324,312,303,291,281,255,234,220,208,200,195,194,194,194,194,190,185,173,161,146,115,98,83,68,55,30,18,14,12],"timestamp_mouse":[11,34,49,70,90,110,131,149,169,190,209,229,250,269,290,309,329,349,369,389,410,430,449,470,490,509,531,549,569,589,610,630,649,669,690,709,731,749,769,789,809,829,849,869,889,910,929,950,969,989,1009,1029,1049,1070,1089,1110,1131,1149,1169,1189,1209,1230,1250,1269,1289,1309,1331,1349,1370,1389,1409],"xSR":733.5,"ySR":461.5,"xT1":420.09999999999997,"yT1":0,"xT2":1046.8999999999999,"yT2":0,"toosoon":0,"cond_shown":"equaldotanddens","ratio_trial":750,"smaller_num":"3","larger_num":"4","correct_side":1,"subjID":"fernandaaguirrerodriguez39","gender":"1","age":"11","school":"6"},{"start_time":1551794955832,"click_time":1551794956870,"finger_time":1551794956488,"fix_duration":1282.2083057326536,"trial":30,"RT":656,"MT":382,"sideResp":1,"stimulus":"img/750/equaldotsize/L/1_Ratio_750_L_20_R_15.png","xmouse":[792,792,792,792,792,792,792,792,792,792,792,792,792,792,792,792,792,792,792,792,792,792,792,792,792,792,792,792,792,792,790,783,777,769,761,746,740,738,737,736,722,711,691,679,670,654,647,640,626,606,544,496],"ymouse":[524,524,524,524,524,524,524,524,524,524,524,524,524,524,524,524,524,524,524,524,524,524,524,524,524,524,524,524,524,524,508,479,457,434,409,357,327,300,272,244,191,169,142,127,118,110,108,108,108,108,104,98],"timestamp_mouse":[34,36,56,77,96,117,137,157,177,196,217,237,256,277,297,317,336,357,377,396,416,436,457,477,497,516,537,557,576,596,616,637,656,676,696,716,736,757,777,797,816,837,856,876,896,916,936,956,976,997,1016,1038],"xSR":733.5,"ySR":461.5,"xT1":420.09999999999997,"yT1":0,"xT2":1046.8999999999999,"yT2":0,"toosoon":0,"cond_shown":"equaldotsize","ratio_trial":750,"smaller_num":"15","larger_num":"20","correct_side":1,"subjID":"fernandaaguirrerodriguez39","gender":"1","age":"11","school":"6"},{"start_time":1551794958215,"click_time":1551794959430,"finger_time":1551794958848,"fix_duration":406.95987343229723,"trial":31,"RT":633,"MT":582,"sideResp":2,"stimulus":"img/750/randomdotsizeEA/R/3_Ratio_750_L_15_R_20.png","xmouse":[828,828,828,828,828,828,828,828,828,828,828,828,828,828,828,828,828,828,828,828,828,828,828,828,828,828,824,817,809,798,789,776,768,764,760,757,752,747,743,736,729,715,710,709,709,709,714,717,722,728,736,767,784,804,824,848,874,934,967,1007,1048],"ymouse":[532,532,532,532,532,532,532,532,532,532,532,532,532,532,532,532,532,532,532,532,532,532,532,532,532,532,529,518,508,495,483,461,449,442,434,429,415,404,392,378,362,326,305,276,257,241,212,201,193,184,178,152,138,123,107,91,77,54,45,35,25],"timestamp_mouse":[14,39,54,74,93,113,133,153,173,193,214,234,253,273,293,313,334,353,373,395,414,434,453,473,494,513,533,553,574,593,613,633,653,673,693,713,734,753,773,793,814,833,853,873,893,913,933,953,973,993,1015,1034,1053,1073,1094,1114,1133,1153,1174,1193,1215],"xSR":733.5,"ySR":461.5,"xT1":420.09999999999997,"yT1":0,"xT2":1046.8999999999999,"yT2":0,"toosoon":0,"cond_shown":"randomdotsizeEA","ratio_trial":750,"smaller_num":"15","larger_num":"20","correct_side":2,"subjID":"fernandaaguirrerodriguez39","gender":"1","age":"11","school":"6"},{"start_time":1551794960988,"click_time":1551794961848,"finger_time":1551794961329,"fix_duration":558.0208454834645,"trial":32,"RT":341,"MT":519,"sideResp":1,"stimulus":"img/750/equaldotsize/L/1_Ratio_750_L_20_R_15.png","xmouse":[751,751,751,751,751,751,751,751,751,751,751,751,751,751,751,751,751,751,749,747,743,738,736,734,729,727,727,726,721,718,713,704,693,675,664,658,654,648,633,620,598,562,523,448],"ymouse":[468,468,468,468,468,468,468,468,468,468,468,468,468,468,468,468,465,459,445,436,427,418,412,406,388,374,362,347,309,290,270,251,232,207,197,192,190,186,176,167,156,143,130,99],"timestamp_mouse":[1,29,41,61,80,100,120,141,160,180,201,220,240,260,280,300,322,341,360,380,400,420,440,460,481,500,521,540,560,581,601,620,640,660,680,701,720,740,760,780,800,821,841,860],"xSR":733.5,"ySR":461.5,"xT1":420.09999999999997,"yT1":0,"xT2":1046.8999999999999,"yT2":0,"toosoon":0,"cond_shown":"equaldotsize","ratio_trial":750,"smaller_num":"15","larger_num":"20","correct_side":1,"subjID":"fernandaaguirrerodriguez39","gender":"1","age":"11","school":"6"},{"start_time":1551794963817,"click_time":1551794964788,"finger_time":1551794964328,"fix_duration":968.4251093255536,"trial":33,"RT":511,"MT":460,"sideResp":1,"stimulus":"img/500/equaldotsize/L/10_Ratio_500_L_4_R_2.png","xmouse":[797,797,797,797,797,797,797,797,797,797,797,797,797,797,797,797,793,791,787,786,785,784,784,783,783,783,783,783,783,783,783,777,772,761,748,734,705,694,688,684,681,678,674,669,659,643,581,538,478],"ymouse":[513,513,513,513,513,513,513,513,513,513,513,513,513,513,513,513,506,502,497,496,494,488,483,471,462,448,408,381,351,320,285,203,170,129,105,88,63,61,60,60,60,60,60,60,60,60,60,60,60],"timestamp_mouse":[11,31,51,72,92,112,132,151,171,191,211,231,251,272,291,311,331,351,371,391,411,431,452,471,491,511,531,551,571,591,611,631,652,671,691,711,731,751,771,791,811,831,851,872,891,911,931,952,971],"xSR":733.5,"ySR":461.5,"xT1":420.09999999999997,"yT1":0,"xT2":1046.8999999999999,"yT2":0,"toosoon":0,"cond_shown":"equaldotsize","ratio_trial":500,"smaller_num":"2","larger_num":"4","correct_side":1,"subjID":"fernandaaguirrerodriguez39","gender":"1","age":"11","school":"6"},{"start_time":1551794966100,"click_time":1551794967409,"finger_time":1551794966789,"fix_duration":250,"trial":34,"RT":689,"MT":620,"sideResp":2,"stimulus":"img/250/equaldotsize/R/8_Ratio_250_L_1_R_4.png","xmouse":[781,781,781,781,781,781,781,781,781,781,781,781,781,781,781,781,781,781,781,781,781,781,781,781,781,781,781,781,781,782,782,782,782,780,779,779,779,779,779,785,794,802,824,832,844,853,862,878,883,889,893,899,910,917,925,935,951,991,1017,1027,1037,1044,1044,1044,1066,1079],"ymouse":[506,506,506,506,506,506,506,506,506,506,506,506,506,506,506,506,506,506,506,506,506,506,506,506,506,506,506,506,506,505,499,492,477,468,458,447,431,386,359,317,285,257,201,184,167,155,146,131,123,112,104,96,85,81,75,68,57,34,18,10,3,0,0,0,0,6],"timestamp_mouse":[9,34,48,68,89,109,128,148,168,188,209,228,248,268,289,308,329,348,368,388,408,429,448,468,488,510,529,549,568,588,609,628,648,668,689,709,728,748,768,788,808,828,848,869,889,909,928,949,968,988,1008,1028,1049,1068,1088,1108,1128,1148,1168,1188,1208,1229,1249,1268,1288,1309],"xSR":733.5,"ySR":461.5,"xT1":420.09999999999997,"yT1":0,"xT2":1046.8999999999999,"yT2":0,"toosoon":0,"cond_shown":"equaldotsize","ratio_trial":250,"smaller_num":"1","larger_num":"4","correct_side":2,"subjID":"fernandaaguirrerodriguez39","gender":"1","age":"11","school":"6"},{"start_time":1551794969677,"click_time":1551794970728,"finger_time":1551794970248,"fix_duration":1428.3242716301406,"trial":35,"RT":571,"MT":480,"sideResp":2,"stimulus":"img/250/equaldotsize/R/11_Ratio_250_L_3_R_12.png","xmouse":[807,807,807,807,807,807,807,807,807,807,807,807,807,806,806,806,806,805,804,804,804,804,804,803,802,800,796,792,786,786,788,799,817,851,865,872,878,885,885,885,885,885,885,885,885,885,937,960,996,1021,1031,1044,1058],"ymouse":[516,516,516,516,516,516,516,516,516,516,516,516,516,515,515,515,514,512,506,505,505,505,504,498,493,486,476,463,412,382,345,287,227,100,51,27,13,2,2,2,2,2,2,2,2,2,0,5,11,11,11,11,11],"timestamp_mouse":[11,35,51,71,93,112,131,151,172,191,211,232,251,271,291,311,331,352,371,392,412,431,451,471,492,511,531,551,571,591,611,631,651,672,691,712,731,752,771,792,811,832,852,871,892,911,932,952,971,991,1011,1032,1051],"xSR":733.5,"ySR":461.5,"xT1":420.09999999999997,"yT1":0,"xT2":1046.8999999999999,"yT2":0,"toosoon":0,"cond_shown":"equaldotsize","ratio_trial":250,"smaller_num":"3","larger_num":"12","correct_side":2,"subjID":"fernandaaguirrerodriguez39","gender":"1","age":"11","school":"6"},{"start_time":1551794972874,"click_time":1551794974228,"finger_time":1551794973470,"fix_duration":1203.0378306448295,"trial":36,"RT":596,"MT":758,"sideResp":1,"stimulus":"img/900/randomdotsizeEA/L/8_Ratio_900_L_20_R_18.png","xmouse":[780,780,780,780,780,780,780,780,780,780,780,780,780,780,780,780,780,780,779,779,779,779,779,779,780,780,780,782,786,795,799,805,811,823,825,825,823,814,787,766,752,734,712,668,645,628,622,621,621,621,620,615,605,562,522,475,429,388,333,317,317,317,317,320,333,357,399,465],"ymouse":[508,508,508,508,508,508,508,508,508,508,508,508,508,508,508,508,508,508,507,507,507,507,507,506,505,503,502,497,481,457,442,424,400,344,317,292,268,243,205,187,177,168,156,139,135,133,131,131,131,131,131,130,128,122,118,112,105,95,80,73,73,73,73,67,61,54,49,47],"timestamp_mouse":[14,42,54,75,94,114,135,154,174,195,214,234,254,275,294,314,334,354,374,395,414,434,455,475,494,516,534,554,574,595,614,634,654,674,694,714,734,754,774,795,814,834,855,875,895,914,934,954,974,995,1014,1034,1054,1074,1094,1115,1134,1154,1174,1194,1214,1235,1254,1274,1294,1315,1334,1354],"xSR":733.5,"ySR":461.5,"xT1":420.09999999999997,"yT1":0,"xT2":1046.8999999999999,"yT2":0,"toosoon":0,"cond_shown":"randomdotsizeEA","ratio_trial":900,"smaller_num":"18","larger_num":"20","correct_side":1,"subjID":"fernandaaguirrerodriguez39","gender":"1","age":"11","school":"6"},{"start_time":1551794976014,"click_time":1551794977028,"finger_time":1551794976448,"fix_duration":865.4763715771836,"trial":37,"RT":434,"MT":580,"sideResp":2,"stimulus":"img/900/equaldotanddens/R/6_Ratio_900_L_9_R_10.png","xmouse":[790,790,790,790,790,790,790,790,790,790,790,790,790,790,790,790,790,791,792,793,794,794,794,794,794,794,794,794,794,794,794,794,794,802,815,833,868,892,913,930,944,962,966,967,967,967,971,980,999,1029,1075],"ymouse":[497,497,497,497,497,497,497,497,497,497,497,497,497,497,497,497,491,486,483,475,466,457,456,455,455,455,455,455,454,452,445,414,389,333,285,239,172,138,112,87,67,45,43,43,43,43,43,42,41,41,41],"timestamp_mouse":[14,36,55,75,95,115,134,154,174,195,214,234,254,275,294,315,334,354,374,394,414,434,454,474,494,515,535,555,574,594,615,634,655,674,694,714,734,754,774,795,814,834,855,874,895,914,935,954,975,994,1014],"xSR":733.5,"ySR":461.5,"xT1":420.09999999999997,"yT1":0,"xT2":1046.8999999999999,"yT2":0,"toosoon":0,"cond_shown":"equaldotanddens","ratio_trial":900,"smaller_num":"9","larger_num":"10","correct_side":2,"subjID":"fernandaaguirrerodriguez39","gender":"1","age":"11","school":"6"},{"start_time":1551794978627,"click_time":1551794979469,"finger_time":1551794979008,"fix_duration":837.4573253354989,"trial":38,"RT":381,"MT":461,"sideResp":2,"stimulus":"img/500/equaldotsize/R/2_Ratio_500_L_3_R_6.png","xmouse":[769,769,769,769,769,769,769,769,769,769,769,769,771,772,776,780,784,788,794,799,805,818,828,835,837,839,839,842,849,862,878,922,951,966,973,976,976,978,985,1000,1017,1045,1058],"ymouse":[534,534,534,534,534,534,534,534,534,534,534,534,529,524,516,508,491,481,469,458,443,411,383,360,337,317,273,252,227,199,166,97,69,59,56,56,56,56,56,59,61,64,64],"timestamp_mouse":[8,37,41,62,82,102,121,141,161,182,201,221,241,261,282,301,321,341,361,381,401,421,441,461,482,501,522,541,562,581,601,621,641,661,681,702,722,741,761,781,802,821,842],"xSR":733.5,"ySR":461.5,"xT1":420.09999999999997,"yT1":0,"xT2":1046.8999999999999,"yT2":0,"toosoon":0,"cond_shown":"equaldotsize","ratio_trial":500,"smaller_num":"3","larger_num":"6","correct_side":2,"subjID":"fernandaaguirrerodriguez39","gender":"1","age":"11","school":"6"},{"start_time":1551794980439,"click_time":1551794981309,"finger_time":1551794980908,"fix_duration":250,"trial":39,"RT":469,"MT":401,"sideResp":2,"stimulus":"img/500/equaldotsize/R/3_Ratio_500_L_10_R_20.png","xmouse":[757,757,757,757,757,757,757,757,757,757,757,757,757,757,757,757,757,757,757,757,757,758,760,766,771,779,783,790,800,812,844,879,903,925,946,977,989,1000,1010,1021,1032,1038,1043,1051],"ymouse":[547,547,547,547,547,547,547,547,547,547,547,547,547,547,547,547,547,543,538,531,513,496,481,461,438,389,363,341,318,296,248,209,189,169,154,128,118,108,101,94,89,88,87,86],"timestamp_mouse":[10,30,49,70,89,109,129,149,169,189,209,229,249,270,290,309,329,349,369,390,409,430,449,469,490,510,529,549,569,589,609,629,649,670,689,709,729,749,769,790,809,829,849,869],"xSR":733.5,"ySR":461.5,"xT1":420.09999999999997,"yT1":0,"xT2":1046.8999999999999,"yT2":0,"toosoon":0,"cond_shown":"equaldotsize","ratio_trial":500,"smaller_num":"10","larger_num":"20","correct_side":2,"subjID":"fernandaaguirrerodriguez39","gender":"1","age":"11","school":"6"},{"start_time":1551794983452,"click_time":1551794984348,"finger_time":1551794983908,"fix_duration":1301.9237507870305,"trial":40,"RT":456,"MT":440,"sideResp":2,"stimulus":"img/250/equaldotanddens/R/4_Ratio_250_L_3_R_12.png","xmouse":[795,795,795,795,794,794,794,794,794,794,793,793,793,793,793,793,793,793,793,792,791,791,791,791,795,802,812,824,836,859,870,888,900,912,931,938,946,954,959,963,968,973,987,1007,1069],"ymouse":[490,490,490,490,490,490,490,490,490,490,490,490,490,490,490,490,490,490,490,489,482,472,459,447,404,371,333,292,253,206,186,164,153,143,125,116,107,100,95,92,88,84,76,69,57],"timestamp_mouse":[20,46,56,76,97,117,137,156,176,196,216,236,257,277,297,316,337,356,376,396,417,436,456,476,496,516,536,556,576,596,617,636,656,676,696,716,736,756,778,796,816,837,856,877,896],"xSR":733.5,"ySR":461.5,"xT1":420.09999999999997,"yT1":0,"xT2":1046.8999999999999,"yT2":0,"toosoon":0,"cond_shown":"equaldotanddens","ratio_trial":250,"smaller_num":"3","larger_num":"12","correct_side":2,"subjID":"fernandaaguirrerodriguez39","gender":"1","age":"11","school":"6"},{"start_time":1551794985824,"click_time":1551794986868,"finger_time":1551794986168,"fix_duration":793.1820189547078,"trial":41,"RT":344,"MT":700,"sideResp":1,"stimulus":"img/500/randomdotsizeEA/L/10_Ratio_500_L_4_R_2.png","xmouse":[778,778,778,778,778,778,778,778,778,778,778,778,778,778,778,780,789,794,801,805,809,816,819,820,820,821,817,815,814,813,809,796,775,748,726,707,679,668,655,639,620,582,565,544,529,515,484,463,443,427,420,420,435],"ymouse":[504,504,504,504,504,504,504,504,504,504,504,504,504,504,502,496,468,452,436,421,407,377,359,352,342,331,312,305,295,285,271,245,229,215,207,201,193,192,190,188,185,177,171,164,158,152,137,125,114,104,98,93,83],"timestamp_mouse":[8,37,45,64,84,104,124,144,164,184,204,224,244,266,284,304,324,344,364,384,405,424,444,464,484,504,524,544,564,584,604,624,645,664,685,704,725,744,764,784,804,824,845,864,884,904,924,944,964,984,1005,1024,1044],"xSR":733.5,"ySR":461.5,"xT1":420.09999999999997,"yT1":0,"xT2":1046.8999999999999,"yT2":0,"toosoon":0,"cond_shown":"randomdotsizeEA","ratio_trial":500,"smaller_num":"2","larger_num":"4","correct_side":1,"subjID":"fernandaaguirrerodriguez39","gender":"1","age":"11","school":"6"},{"start_time":1551794988462,"click_time":1551794989348,"finger_time":1551794988808,"fix_duration":693.0093498633615,"trial":42,"RT":346,"MT":540,"sideResp":1,"stimulus":"img/500/equaldotsize/L/10_Ratio_500_L_4_R_2.png","xmouse":[813,813,813,813,813,813,813,813,813,813,813,813,812,812,807,803,798,793,786,767,749,736,728,722,718,718,718,717,713,698,684,672,658,651,643,640,638,636,633,621,599,561,529,496,448],"ymouse":[522,522,522,522,522,522,522,522,522,522,522,522,521,518,502,489,471,452,429,386,356,338,326,315,297,286,273,256,237,201,182,168,158,154,153,154,155,156,156,153,147,134,120,106,81],"timestamp_mouse":[10,34,47,66,86,106,126,146,166,186,206,226,247,266,286,306,328,346,367,386,406,426,447,467,487,507,526,546,566,586,607,627,646,666,686,706,727,746,767,786,807,826,846,866,886],"xSR":733.5,"ySR":461.5,"xT1":420.09999999999997,"yT1":0,"xT2":1046.8999999999999,"yT2":0,"toosoon":0,"cond_shown":"equaldotsize","ratio_trial":500,"smaller_num":"2","larger_num":"4","correct_side":1,"subjID":"fernandaaguirrerodriguez39","gender":"1","age":"11","school":"6"},{"start_time":1551794990539,"click_time":1551794991269,"finger_time":1551794990888,"fix_duration":250,"trial":43,"RT":349,"MT":381,"sideResp":1,"stimulus":"img/250/randomdotsizeEA/L/2_Ratio_250_L_16_R_4.png","xmouse":[820,820,820,820,820,820,820,820,820,820,820,820,820,820,820,812,790,768,748,729,712,709,709,709,713,714,713,711,709,706,690,675,654,632,608,546,516],"ymouse":[540,540,540,540,540,540,540,540,540,540,540,540,540,540,539,523,486,449,410,371,310,284,259,235,216,193,188,186,182,177,161,150,138,126,116,96,88],"timestamp_mouse":[12,39,50,70,89,110,129,149,170,189,209,230,250,269,289,309,329,349,370,389,410,429,450,470,489,509,529,549,569,589,609,629,650,670,689,709,730],"xSR":733.5,"ySR":461.5,"xT1":420.09999999999997,"yT1":0,"xT2":1046.8999999999999,"yT2":0,"toosoon":0,"cond_shown":"randomdotsizeEA","ratio_trial":250,"smaller_num":"4","larger_num":"16","correct_side":1,"subjID":"fernandaaguirrerodriguez39","gender":"1","age":"11","school":"6"},{"start_time":1551794992996,"click_time":1551794993828,"finger_time":1551794993328,"fix_duration":846.5455410606403,"trial":44,"RT":332,"MT":500,"sideResp":1,"stimulus":"img/750/randomdotsizeEA/R/5_Ratio_750_L_15_R_20.png","xmouse":[796,796,796,796,796,796,796,796,796,796,796,796,796,797,797,790,777,735,714,696,680,666,649,643,642,642,641,632,626,620,610,602,585,573,564,555,545,512,494,478,461,448],"ymouse":[548,548,548,548,548,548,548,548,548,548,548,548,548,548,523,492,455,370,335,306,277,256,225,214,208,200,193,174,165,157,152,148,144,140,138,135,132,123,115,109,102,94],"timestamp_mouse":[12,34,52,72,92,114,132,153,173,192,213,233,252,272,292,312,332,352,372,393,413,433,452,472,492,512,532,552,572,592,612,632,652,673,692,712,732,752,772,792,812,832],"xSR":733.5,"ySR":461.5,"xT1":420.09999999999997,"yT1":0,"xT2":1046.8999999999999,"yT2":0,"toosoon":0,"cond_shown":"randomdotsizeEA","ratio_trial":750,"smaller_num":"15","larger_num":"20","correct_side":2,"subjID":"fernandaaguirrerodriguez39","gender":"1","age":"11","school":"6"},{"start_time":1551794995211,"click_time":1551794996069,"finger_time":1551794995548,"fix_duration":561.4160117170021,"trial":45,"RT":337,"MT":521,"sideResp":1,"stimulus":"img/250/equaldotsize/L/5_Ratio_250_L_24_R_6.png","xmouse":[778,776,775,775,775,775,775,775,775,775,775,775,775,775,775,775,774,774,774,774,774,774,774,774,774,773,754,730,700,658,610,610,610,610,610,610,610,610,610,610,610,610,478],"ymouse":[489,489,493,495,495,495,495,495,495,495,495,495,495,495,495,491,459,447,439,435,432,424,415,405,384,347,240,181,128,77,21,21,21,21,21,21,21,21,21,21,21,21,11],"timestamp_mouse":[18,37,58,77,97,118,137,157,178,197,217,237,257,278,297,317,337,358,377,397,419,437,457,477,497,517,537,557,578,597,617,637,657,677,699,718,738,757,777,797,818,837,858],"xSR":733.5,"ySR":461.5,"xT1":420.09999999999997,"yT1":0,"xT2":1046.8999999999999,"yT2":0,"toosoon":0,"cond_shown":"equaldotsize","ratio_trial":250,"smaller_num":"6","larger_num":"24","correct_side":1,"subjID":"fernandaaguirrerodriguez39","gender":"1","age":"11","school":"6"},{"start_time":1551794998289,"click_time":1551794999149,"finger_time":1551794998708,"fix_duration":539.7102672468466,"trial":46,"RT":419,"MT":441,"sideResp":2,"stimulus":"img/250/equaldotsize/R/11_Ratio_250_L_3_R_12.png","xmouse":[781,781,781,781,781,781,781,781,781,781,783,785,785,785,785,785,785,785,785,784,779,773,770,766,762,760,758,756,755,757,765,776,791,835,872,911,949,975,993,1020,1026,1033,1045,1065],"ymouse":[496,496,496,496,496,496,496,496,496,498,498,499,499,499,499,499,499,499,499,492,473,450,420,367,348,330,313,299,267,242,222,203,186,150,129,107,92,82,76,62,58,53,48,46],"timestamp_mouse":[1,19,43,60,80,100,120,139,160,180,199,219,240,259,281,300,320,340,360,380,399,419,439,459,479,500,520,540,559,580,599,619,639,660,680,699,719,739,759,779,799,819,839,860],"xSR":733.5,"ySR":461.5,"xT1":420.09999999999997,"yT1":0,"xT2":1046.8999999999999,"yT2":0,"toosoon":0,"cond_shown":"equaldotsize","ratio_trial":250,"smaller_num":"3","larger_num":"12","correct_side":2,"subjID":"fernandaaguirrerodriguez39","gender":"1","age":"11","school":"6"},{"start_time":1551795001229,"click_time":1551795002129,"finger_time":1551795001648,"fix_duration":1238.8252285071678,"trial":47,"RT":419,"MT":481,"sideResp":1,"stimulus":"img/250/randomdotsizeEA/L/15_Ratio_250_L_12_R_3.png","xmouse":[782,782,782,782,782,782,782,782,782,782,782,782,782,782,782,782,782,782,782,782,782,782,780,779,777,774,768,763,754,739,721,672,643,611,594,580,559,545,530,513,497,467,449,440,434,431],"ymouse":[511,511,511,510,509,509,509,509,509,509,509,509,509,508,508,506,501,494,485,478,467,460,430,415,397,380,340,320,299,277,256,222,208,194,190,186,178,172,165,157,147,129,116,108,100,94],"timestamp_mouse":[1,33,39,59,79,99,119,140,161,180,199,220,240,259,279,300,319,340,360,379,399,419,439,459,480,499,519,539,559,579,600,619,639,659,679,699,719,739,760,779,800,819,839,859,879,900],"xSR":733.5,"ySR":461.5,"xT1":420.09999999999997,"yT1":0,"xT2":1046.8999999999999,"yT2":0,"toosoon":0,"cond_shown":"randomdotsizeEA","ratio_trial":250,"smaller_num":"3","larger_num":"12","correct_side":1,"subjID":"fernandaaguirrerodriguez39","gender":"1","age":"11","school":"6"},{"start_time":1551795004993,"click_time":1551795005908,"finger_time":1551795005429,"fix_duration":1282.932639252724,"trial":48,"RT":436,"MT":479,"sideResp":1,"stimulus":"img/750/equaldotsize/L/1_Ratio_750_L_20_R_15.png","xmouse":[770,770,770,770,770,770,770,770,770,770,770,770,770,770,770,770,770,770,770,770,770,766,755,741,730,716,697,663,649,638,627,617,607,603,601,599,595,584,578,572,562,554,541,530,526,520],"ymouse":[512,512,512,512,512,512,512,512,512,512,512,512,512,512,512,510,506,498,494,487,476,455,406,364,339,314,282,231,212,198,184,176,166,161,159,155,150,136,130,125,117,111,103,98,96,94],"timestamp_mouse":[16,38,56,75,96,115,136,155,175,195,216,236,256,275,295,315,336,355,375,396,415,436,455,475,495,516,535,555,575,595,615,636,655,675,695,716,735,755,776,795,815,835,855,875,895,915],"xSR":733.5,"ySR":461.5,"xT1":420.09999999999997,"yT1":0,"xT2":1046.8999999999999,"yT2":0,"toosoon":0,"cond_shown":"equaldotsize","ratio_trial":750,"smaller_num":"15","larger_num":"20","correct_side":1,"subjID":"fernandaaguirrerodriguez39","gender":"1","age":"11","school":"6"},{"start_time":1551795010253,"click_time":1551795011189,"finger_time":1551795010669,"fix_duration":1044.103671255077,"trial":49,"RT":416,"MT":520,"sideResp":2,"stimulus":"img/750/equaldotsize/R/2_Ratio_750_L_6_R_8.png","xmouse":[784,784,784,784,784,784,784,784,784,784,784,784,784,784,783,782,780,779,778,775,765,753,746,743,741,741,741,741,740,738,737,737,739,745,777,798,823,852,876,916,940,955,969,981,1018,1043,1076],"ymouse":[524,524,524,524,524,524,524,524,524,524,524,524,524,524,524,524,522,519,508,493,417,326,282,258,234,229,224,218,212,197,190,185,179,170,156,150,146,141,136,125,118,116,113,111,103,99,94],"timestamp_mouse":[15,41,57,75,95,116,135,155,176,196,216,236,255,275,296,315,335,355,376,395,416,435,455,476,495,516,536,555,575,595,615,635,657,676,696,715,735,755,775,795,815,835,856,875,895,915,935],"xSR":733.5,"ySR":461.5,"xT1":420.09999999999997,"yT1":0,"xT2":1046.8999999999999,"yT2":0,"toosoon":0,"cond_shown":"equaldotsize","ratio_trial":750,"smaller_num":"6","larger_num":"8","correct_side":2,"subjID":"fernandaaguirrerodriguez39","gender":"1","age":"11","school":"6"},{"start_time":1551795012301,"click_time":1551795013468,"finger_time":1551795012648,"fix_duration":250,"trial":50,"RT":347,"MT":820,"sideResp":2,"stimulus":"img/750/randomdotsizeEA/R/3_Ratio_750_L_15_R_20.png","xmouse":[803,803,803,803,803,803,803,803,803,803,803,803,803,803,803,803,803,803,803,803,803,803,803,801,797,792,788,782,780,777,776,776,776,776,776,780,794,822,958,1095,1179,1233,1260,1260,1260,1260,1260,1260,1260,1260,1260,1260,1258,1250,1241,1229,1211,1160,1121],"ymouse":[523,523,523,523,523,523,523,523,523,523,523,523,523,523,519,515,501,459,422,392,359,323,267,246,235,227,221,213,211,209,209,208,205,202,200,195,188,176,138,104,81,65,58,58,58,58,58,58,58,58,58,58,58,58,58,58,58,58,58],"timestamp_mouse":[10,34,47,68,87,107,127,148,168,187,207,228,249,268,288,308,327,347,367,387,407,428,447,467,487,508,529,547,567,587,607,627,647,668,687,707,729,747,768,787,807,827,847,867,887,908,927,947,967,988,1007,1029,1047,1068,1087,1108,1127,1147,1167],"xSR":733.5,"ySR":461.5,"xT1":420.09999999999997,"yT1":0,"xT2":1046.8999999999999,"yT2":0,"toosoon":0,"cond_shown":"randomdotsizeEA","ratio_trial":750,"smaller_num":"15","larger_num":"20","correct_side":2,"subjID":"fernandaaguirrerodriguez39","gender":"1","age":"11","school":"6"},{"start_time":1551795015395,"click_time":1551795016372,"finger_time":1551795015828,"fix_duration":865.787962055133,"trial":51,"RT":433,"MT":544,"sideResp":1,"stimulus":"img/250/equaldotanddens/L/3_Ratio_250_L_8_R_2.png","xmouse":[790,790,790,790,790,790,790,790,790,790,790,790,790,790,790,790,790,790,789,789,789,789,775,760,748,732,716,695,682,671,661,650,619,590,569,546,520,486,476,468,464,461,461,461,461,460,460,462,464],"ymouse":[502,502,502,502,502,502,502,502,502,502,502,502,502,502,502,502,502,502,489,482,466,446,396,363,343,322,303,278,264,252,240,228,204,188,176,164,148,127,118,112,109,107,107,107,107,106,105,100,98],"timestamp_mouse":[22,37,53,74,93,113,133,153,174,194,213,234,253,273,293,313,333,353,373,393,413,433,456,477,496,516,536,556,576,598,617,637,656,676,696,717,737,757,776,796,816,837,857,877,897,916,937,956,976],"xSR":733.5,"ySR":461.5,"xT1":420.09999999999997,"yT1":0,"xT2":1046.8999999999999,"yT2":0,"toosoon":0,"cond_shown":"equaldotanddens","ratio_trial":250,"smaller_num":"2","larger_num":"8","correct_side":1,"subjID":"fernandaaguirrerodriguez39","gender":"1","age":"11","school":"6"},{"start_time":1551795019294,"click_time":1551795020472,"finger_time":1551795019811,"fix_duration":1341.924794265541,"trial":52,"RT":517,"MT":661,"sideResp":1,"stimulus":"img/750/equaldotanddens/L/13_Ratio_750_L_8_R_6.png","xmouse":[817,817,817,817,817,817,817,817,817,817,817,817,817,817,817,817,817,817,817,817,817,817,813,801,788,774,756,724,704,692,683,675,669,667,664,660,654,634,616,603,593,584,563,554,545,536,534,532,531,530,530,530,530,530,529,529,526,522,518],"ymouse":[528,528,528,528,528,528,528,528,528,528,528,528,528,528,528,528,528,528,528,528,528,526,513,498,480,460,433,386,354,337,325,316,313,311,306,296,283,249,224,209,193,171,112,81,59,43,40,40,40,40,40,40,40,40,40,43,47,52,55],"timestamp_mouse":[18,40,58,78,99,118,139,157,177,198,217,238,258,277,299,318,338,357,378,398,417,437,458,477,497,517,538,557,578,597,619,638,657,678,697,717,739,757,777,798,818,838,857,878,897,918,938,957,977,997,1017,1039,1058,1078,1097,1118,1139,1157,1178],"xSR":733.5,"ySR":461.5,"xT1":420.09999999999997,"yT1":0,"xT2":1046.8999999999999,"yT2":0,"toosoon":0,"cond_shown":"equaldotanddens","ratio_trial":750,"smaller_num":"6","larger_num":"8","correct_side":1,"subjID":"fernandaaguirrerodriguez39","gender":"1","age":"11","school":"6"},{"start_time":1551795022708,"click_time":1551795023332,"finger_time":1551795023091,"fix_duration":834.8275372337213,"trial":53,"RT":383,"MT":241,"sideResp":1,"stimulus":"img/250/randomdotsizeEA/L/2_Ratio_250_L_16_R_4.png","xmouse":[778,778,778,778,778,778,778,778,778,778,778,778,778,778,778,778,778,778,778,777,770,758,735,720,706,689,671,632,597,566,537,511],"ymouse":[505,505,505,505,505,505,505,505,506,507,508,508,508,508,508,508,504,493,464,437,412,385,340,317,299,276,250,196,144,100,68,42],"timestamp_mouse":[4,29,43,64,84,104,123,143,165,185,204,223,243,264,284,303,324,344,364,383,404,423,443,463,483,504,524,543,564,583,604,624],"xSR":733.5,"ySR":461.5,"xT1":420.09999999999997,"yT1":0,"xT2":1046.8999999999999,"yT2":0,"toosoon":0,"cond_shown":"randomdotsizeEA","ratio_trial":250,"smaller_num":"4","larger_num":"16","correct_side":1,"subjID":"fernandaaguirrerodriguez39","gender":"1","age":"11","school":"6"},{"start_time":1551795024403,"click_time":1551795025191,"finger_time":1551795024831,"fix_duration":250,"trial":54,"RT":428,"MT":360,"sideResp":2,"stimulus":"img/250/equaldotanddens/R/6_Ratio_250_L_6_R_24.png","xmouse":[794,794,794,794,794,794,794,794,794,794,794,794,794,794,794,794,794,794,794,794,794,794,794,794,801,812,823,842,852,858,862,864,868,872,877,883,894,950,1010,1078],"ymouse":[516,516,516,516,516,516,516,516,516,516,516,516,516,516,516,516,516,516,508,498,474,436,287,191,145,104,71,31,21,17,14,12,6,4,3,2,2,4,12,22],"timestamp_mouse":[9,39,48,69,89,109,128,148,169,188,209,228,249,269,288,308,328,349,369,388,409,428,448,469,488,509,528,548,569,589,608,630,648,669,688,708,730,749,769,788],"xSR":733.5,"ySR":461.5,"xT1":420.09999999999997,"yT1":0,"xT2":1046.8999999999999,"yT2":0,"toosoon":0,"cond_shown":"equaldotanddens","ratio_trial":250,"smaller_num":"6","larger_num":"24","correct_side":2,"subjID":"fernandaaguirrerodriguez39","gender":"1","age":"11","school":"6"},{"start_time":1551795027694,"click_time":1551795029333,"finger_time":1551795028291,"fix_duration":1441.7151321345752,"trial":55,"RT":597,"MT":1042,"sideResp":2,"stimulus":"img/900/randomdotsizeEA/L/8_Ratio_900_L_20_R_18.png","xmouse":[807,807,807,807,807,807,807,807,807,807,807,807,807,807,807,807,807,807,807,807,807,807,807,807,807,807,805,799,790,770,759,743,712,698,685,677,673,670,670,670,673,678,685,688,690,693,703,729,757,779,801,827,890,923,961,1021,1021,1021,1021,1021,1021,1021,1021,1021,1021,1021,1021,1021,1021,1021,1021,1021,1291,1290,1286,1271,1250,1199,1170,1159,1151,1144],"ymouse":[496,496,496,496,496,496,496,496,496,496,496,496,496,496,496,496,496,496,496,496,496,496,496,496,496,496,493,479,462,429,404,369,301,275,254,238,223,192,169,153,139,126,107,104,101,98,94,84,75,67,62,54,37,28,21,3,3,3,3,3,3,3,3,3,3,3,3,3,3,3,3,3,3,6,8,11,12,18,27,30,32,34],"timestamp_mouse":[18,39,58,77,98,119,138,157,179,198,218,237,257,278,297,319,338,358,379,398,418,437,458,478,497,518,538,557,578,597,617,638,657,677,697,717,738,757,778,797,819,838,857,878,897,918,938,957,978,997,1018,1037,1057,1078,1097,1118,1138,1158,1178,1198,1218,1237,1257,1278,1298,1319,1338,1358,1378,1399,1419,1437,1457,1478,1497,1517,1537,1557,1577,1599,1618,1639],"xSR":733.5,"ySR":461.5,"xT1":420.09999999999997,"yT1":0,"xT2":1046.8999999999999,"yT2":0,"toosoon":0,"cond_shown":"randomdotsizeEA","ratio_trial":900,"smaller_num":"18","larger_num":"20","correct_side":1,"subjID":"fernandaaguirrerodriguez39","gender":"1","age":"11","school":"6"},{"start_time":1551795030798,"click_time":1551795031692,"finger_time":1551795031192,"fix_duration":306.42697877856307,"trial":56,"RT":394,"MT":500,"sideResp":1,"stimulus":"img/900/randomdotsizeEA/L/4_Ratio_900_L_20_R_18.png","xmouse":[779,779,779,779,779,779,779,779,779,779,779,779,779,779,779,779,776,767,756,735,711,683,611,569,550,537,527,505,492,477,460,442,415,406,404,403,401,395,394,394,394,394,399,416,433],"ymouse":[507,507,507,507,507,507,507,507,507,507,507,507,507,507,507,507,503,489,473,450,425,397,330,292,271,253,239,209,195,183,168,154,130,120,114,108,102,90,86,84,83,80,76,71,66],"timestamp_mouse":[14,37,55,73,93,114,134,153,173,193,213,234,255,273,294,313,333,353,374,394,413,434,453,473,493,514,534,553,573,594,613,635,653,674,693,713,734,753,774,793,814,833,854,873,893],"xSR":733.5,"ySR":461.5,"xT1":420.09999999999997,"yT1":0,"xT2":1046.8999999999999,"yT2":0,"toosoon":0,"cond_shown":"randomdotsizeEA","ratio_trial":900,"smaller_num":"18","larger_num":"20","correct_side":1,"subjID":"fernandaaguirrerodriguez39","gender":"1","age":"11","school":"6"},{"start_time":1551795033203,"click_time":1551795033632,"finger_time":1551795033492,"fix_duration":670.0316705594234,"trial":57,"RT":289,"MT":140,"sideResp":1,"stimulus":"img/900/randomdotsizeEA/R/15_Ratio_900_L_9_R_10.png","xmouse":[791,791,791,791,791,791,791,791,791,791,791,789,783,772,761,743,711,631,591,559,531,515],"ymouse":[489,489,489,489,489,489,489,489,489,489,489,489,480,462,444,416,372,271,214,154,108,79],"timestamp_mouse":[9,37,49,70,88,109,129,148,169,190,208,229,248,270,289,308,328,348,369,389,409,429],"xSR":733.5,"ySR":461.5,"xT1":420.09999999999997,"yT1":0,"xT2":1046.8999999999999,"yT2":0,"toosoon":0,"cond_shown":"randomdotsizeEA","ratio_trial":900,"smaller_num":"9","larger_num":"10","correct_side":2,"subjID":"fernandaaguirrerodriguez39","gender":"1","age":"11","school":"6"},{"start_time":1551795035248,"click_time":1551795035872,"finger_time":1551795035512,"fix_duration":575.2691283599223,"trial":58,"RT":264,"MT":360,"sideResp":2,"stimulus":"img/900/equaldotsize/R/7_Ratio_900_L_9_R_10.png","xmouse":[766,766,766,766,766,766,766,766,766,766,766,766,770,780,797,847,879,909,937,966,997,1006,1008,1010,1011,1011,1011,1011,1011,1011,1028,1054],"ymouse":[469,469,469,469,469,469,469,469,469,469,469,469,464,448,426,362,318,272,222,171,103,69,56,46,42,42,42,42,41,41,41,41],"timestamp_mouse":[8,37,44,63,83,104,124,145,164,183,205,223,243,264,283,304,324,344,364,384,403,423,444,464,483,504,523,545,564,583,603,624],"xSR":733.5,"ySR":461.5,"xT1":420.09999999999997,"yT1":0,"xT2":1046.8999999999999,"yT2":0,"toosoon":0,"cond_shown":"equaldotsize","ratio_trial":900,"smaller_num":"9","larger_num":"10","correct_side":2,"subjID":"fernandaaguirrerodriguez39","gender":"1","age":"11","school":"6"},{"start_time":1551795038679,"click_time":1551795039312,"finger_time":1551795039193,"fix_duration":1366.4513779301221,"trial":59,"RT":514,"MT":119,"sideResp":1,"stimulus":"img/250/randomdotsizeEA/L/14_Ratio_250_L_12_R_3.png","xmouse":[760,760,760,760,760,760,760,760,760,760,760,760,760,760,760,760,760,760,760,760,761,761,760,756,753,748,738,720,654,596,551,510],"ymouse":[528,528,528,528,528,528,528,528,528,528,528,528,528,528,528,528,528,528,528,528,526,515,508,488,472,453,423,377,258,183,132,86],"timestamp_mouse":[12,36,53,72,93,112,133,154,172,192,213,232,254,274,293,313,333,353,372,393,413,433,453,472,492,514,533,553,572,593,613,633],"xSR":733.5,"ySR":461.5,"xT1":420.09999999999997,"yT1":0,"xT2":1046.8999999999999,"yT2":0,"toosoon":0,"cond_shown":"randomdotsizeEA","ratio_trial":250,"smaller_num":"3","larger_num":"12","correct_side":1,"subjID":"fernandaaguirrerodriguez39","gender":"1","age":"11","school":"6"},{"start_time":1551795040724,"click_time":1551795041612,"finger_time":1551795041172,"fix_duration":250,"trial":60,"RT":448,"MT":440,"sideResp":2,"stimulus":"img/750/equaldotsize/R/4_Ratio_750_L_15_R_20.png","xmouse":[793,793,793,793,793,793,793,793,793,793,793,793,793,793,793,793,793,793,793,793,791,779,766,752,738,720,688,668,634,616,606,600,600,601,608,616,657,719,781,854,919,1007,1027,1043,1049],"ymouse":[492,492,492,492,492,492,492,492,492,492,492,492,492,492,492,492,492,492,492,493,492,464,441,420,398,373,329,303,264,248,238,223,216,208,196,186,163,139,123,103,93,80,78,78,78],"timestamp_mouse":[8,44,48,67,87,107,128,147,169,187,208,228,248,268,288,309,328,348,369,388,407,427,448,467,487,508,527,548,567,587,608,627,648,667,687,708,727,748,767,787,808,827,848,867,887],"xSR":733.5,"ySR":461.5,"xT1":420.09999999999997,"yT1":0,"xT2":1046.8999999999999,"yT2":0,"toosoon":0,"cond_shown":"equaldotsize","ratio_trial":750,"smaller_num":"15","larger_num":"20","correct_side":2,"subjID":"fernandaaguirrerodriguez39","gender":"1","age":"11","school":"6"},{"start_time":1551795043551,"click_time":1551795044193,"finger_time":1551795044072,"fix_duration":958.9278733714216,"trial":61,"RT":521,"MT":121,"sideResp":1,"stimulus":"img/250/equaldotanddens/L/3_Ratio_250_L_8_R_2.png","xmouse":[812,812,812,812,812,812,812,812,812,812,812,812,812,812,812,812,812,812,812,812,812,812,812,809,803,766,735,662,613,568,497,477,465],"ymouse":[518,518,518,518,518,518,518,518,518,518,518,518,518,518,518,518,518,518,518,518,518,518,518,513,504,463,436,376,332,267,151,112,89],"timestamp_mouse":[9,30,41,60,80,100,121,140,160,180,200,220,240,261,281,300,320,341,362,381,400,420,442,460,481,501,521,540,561,580,600,621,641],"xSR":733.5,"ySR":461.5,"xT1":420.09999999999997,"yT1":0,"xT2":1046.8999999999999,"yT2":0,"toosoon":0,"cond_shown":"equaldotanddens","ratio_trial":250,"smaller_num":"2","larger_num":"8","correct_side":1,"subjID":"fernandaaguirrerodriguez39","gender":"1","age":"11","school":"6"},{"start_time":1551795045740,"click_time":1551795046572,"finger_time":1551795046072,"fix_duration":506.00228816052794,"trial":62,"RT":332,"MT":500,"sideResp":1,"stimulus":"img/900/equaldotsize/L/1_Ratio_900_L_10_R_9.png","xmouse":[793,793,793,793,793,793,793,793,793,793,793,793,793,793,793,793,790,783,770,744,684,653,633,618,603,589,586,585,584,583,579,576,570,561,550,539,522,517,511,502,477,460],"ymouse":[480,480,480,480,480,480,480,480,480,480,480,480,480,480,479,471,452,434,407,364,294,272,257,247,237,227,223,222,222,221,217,214,210,203,196,188,173,167,157,145,111,90],"timestamp_mouse":[11,36,51,73,91,113,131,151,171,191,211,233,252,271,292,311,332,352,373,391,411,431,452,471,491,511,531,551,572,591,611,632,651,672,693,711,732,752,772,792,811,832],"xSR":733.5,"ySR":461.5,"xT1":420.09999999999997,"yT1":0,"xT2":1046.8999999999999,"yT2":0,"toosoon":0,"cond_shown":"equaldotsize","ratio_trial":900,"smaller_num":"9","larger_num":"10","correct_side":1,"subjID":"fernandaaguirrerodriguez39","gender":"1","age":"11","school":"6"},{"start_time":1551795049188,"click_time":1551795050211,"finger_time":1551795049792,"fix_duration":314.0109664249432,"trial":63,"RT":604,"MT":419,"sideResp":2,"stimulus":"img/250/equaldotanddens/R/8_Ratio_250_L_1_R_4.png","xmouse":[769,769,769,769,769,769,769,769,769,769,769,769,769,769,769,769,769,769,769,769,769,769,769,769,769,771,775,781,798,809,822,840,858,873,876,877,878,879,887,893,899,905,913,925,947,969,993,1015,1044,1052,1059,1066],"ymouse":[536,536,536,536,536,536,536,536,536,536,536,536,536,536,536,536,536,536,536,536,536,536,536,536,536,533,528,521,498,478,451,419,385,342,315,300,291,281,262,249,241,232,225,216,207,200,194,184,155,136,116,95],"timestamp_mouse":[8,36,43,64,85,103,123,145,163,184,203,225,244,264,284,304,325,345,364,385,403,425,443,464,484,503,525,543,563,583,604,624,643,663,684,704,724,743,763,783,804,823,844,863,884,904,923,944,964,984,1003,1023],"xSR":733.5,"ySR":461.5,"xT1":420.09999999999997,"yT1":0,"xT2":1046.8999999999999,"yT2":0,"toosoon":0,"cond_shown":"equaldotanddens","ratio_trial":250,"smaller_num":"1","larger_num":"4","correct_side":2,"subjID":"fernandaaguirrerodriguez39","gender":"1","age":"11","school":"6"},{"start_time":1551795051804,"click_time":1551795052532,"finger_time":1551795052211,"fix_duration":470.38786607811323,"trial":64,"RT":407,"MT":321,"sideResp":2,"stimulus":"img/250/randomdotsizeEA/R/9_Ratio_250_L_3_R_12.png","xmouse":[810,810,810,810,810,810,809,806,805,804,804,803,802,802,802,801,801,799,799,799,803,814,858,882,892,899,903,910,915,922,932,946,981,1010,1028,1044,1054],"ymouse":[511,511,511,511,510,507,505,498,496,496,495,495,493,493,493,492,492,487,476,463,442,415,339,295,271,254,239,216,203,189,176,158,131,115,105,99,95],"timestamp_mouse":[8,34,48,69,88,107,127,147,168,187,207,227,247,267,287,307,328,347,367,387,407,429,447,467,487,508,528,548,568,587,608,627,647,668,687,707,728],"xSR":733.5,"ySR":461.5,"xT1":420.09999999999997,"yT1":0,"xT2":1046.8999999999999,"yT2":0,"toosoon":0,"cond_shown":"randomdotsizeEA","ratio_trial":250,"smaller_num":"3","larger_num":"12","correct_side":2,"subjID":"fernandaaguirrerodriguez39","gender":"1","age":"11","school":"6"},{"start_time":1551795055748,"click_time":1551795056691,"finger_time":1551795056191,"fix_duration":695.9613694995228,"trial":65,"RT":443,"MT":500,"sideResp":2,"stimulus":"img/900/equaldotsize/L/8_Ratio_900_L_20_R_18.png","xmouse":[794,794,794,794,794,794,794,793,793,793,793,793,793,793,793,793,793,793,793,793,791,785,776,765,754,736,731,731,731,731,731,731,730,727,726,721,711,702,694,692,696,712,743,791,871,1029,1099,1131],"ymouse":[524,524,524,524,524,524,524,523,522,522,522,522,522,522,522,522,522,522,522,515,490,468,440,413,385,329,295,277,262,249,237,233,230,225,224,222,219,218,216,215,206,191,173,156,136,113,103,95],"timestamp_mouse":[9,35,44,64,83,104,123,143,164,184,204,224,243,263,283,303,324,344,364,383,403,423,443,463,483,503,523,543,565,584,603,623,643,663,684,703,725,743,764,783,803,824,844,864,883,903,924,943],"xSR":733.5,"ySR":461.5,"xT1":420.09999999999997,"yT1":0,"xT2":1046.8999999999999,"yT2":0,"toosoon":0,"cond_shown":"equaldotsize","ratio_trial":900,"smaller_num":"18","larger_num":"20","correct_si