[{"start_time":1551793957382,"click_time":1551793959313,"finger_time":1551793959213,"fix_duration":943.583340350114,"trial":0,"RT":1831,"MT":100,"sideResp":1,"stimulus":[],"xmouse":[790,790,790,790,789,789,789,789,789,789,789,789,789,789,789,789,789,789,789,789,789,789,789,789,789,789,789,789,789,789,789,789,789,789,789,789,789,789,789,789,789,789,789,789,789,789,789,789,789,789,789,789,789,789,789,789,789,789,789,789,789,789,789,789,789,789,789,789,789,789,789,789,789,789,789,789,789,789,789,789,789,789,789,789,789,789,789,789,789,787,764,741,707,665,625,508,463],"ymouse":[521,521,521,521,521,521,521,521,521,521,521,521,521,521,521,521,521,521,521,521,521,521,521,521,521,521,521,521,521,521,521,521,521,521,521,521,521,521,521,521,521,521,521,521,521,521,521,521,521,521,521,521,521,521,521,521,521,521,521,521,521,521,521,521,521,521,521,521,521,521,521,521,521,521,521,521,521,521,521,521,521,521,521,521,521,521,517,516,514,509,481,449,402,347,287,130,79],"timestamp_mouse":[11,31,51,71,91,112,132,151,171,191,211,231,252,271,291,311,331,351,371,392,412,431,451,472,491,511,531,551,572,591,611,631,652,672,691,711,731,752,771,792,811,831,852,872,891,912,931,951,972,991,1011,1031,1051,1072,1091,1111,1132,1151,1171,1191,1211,1232,1251,1271,1291,1312,1332,1351,1371,1391,1412,1432,1450,1471,1492,1512,1531,1551,1572,1591,1611,1632,1652,1672,1692,1711,1731,1751,1771,1792,1812,1831,1851,1871,1892,1913,1931],"xSR":733.5,"ySR":461.5,"xT1":420.09999999999997,"yT1":0,"xT2":1046.8999999999999,"yT2":0,"toosoon":0,"cond_shown":"Congruent","ratio_trial":300,"L_num":9,"L_den":10,"R_num":3,"R_den":5,"correct_side":1,"subjID":"FernandaAguirreRodriguez39","gender":"1","age":"11","school":"6","test":{"fix_dur":[250,1500],"timestim":1000,"targets_dim":[100,100],"targets_relative_coord":[0.3,0.7],"size_stim":[880,420],"start_dim":[100,100],"size_start":[300,300],"size_fix":60,"samplingrate":20,"img_types":["Congruent","Incongruent"],"ratios":[100,200,300],"rep_conds":19,"nTrials":120,"trials_to_rest":500,"Trials_order":[70,78,53,40,65,87,77,23,95,100,18,9,88,11,97,117,109,8,4,116,19,82,113,105,45,81,27,33,30,91,26,68,20,37,0,114,115,118,44,51,74,80,2,35,107,22,110,112,64,52,5,92,58,93,24,43,34,16,119,69,90,14,99,38,67,49,108,6,102,13,101,29,106,1,3,39,85,42,79,98,71,75,10,28,57,32,59,72,7,111,62,50,60,86,17,63,25,47,83,89,12,73,76,48,31,96,66,56,36,84,55,104,21,15,46,41,103,54,94,61],"cond_shown":["Congruent","Congruent","Incongruent","Congruent","Incongruent","Incongruent","Incongruent","Incongruent","Incongruent","Congruent","Congruent","Incongruent","Congruent","Incongruent","Incongruent","Incongruent","Incongruent","Congruent","Congruent","Congruent","Incongruent","Congruent","Incongruent","Incongruent","Incongruent","Incongruent","Incongruent","Incongruent","Congruent","Incongruent","Congruent","Congruent","Congruent","Incongruent","Congruent","Congruent","Incongruent","Congruent","Congruent","Incongruent","Congruent","Congruent","Congruent","Incongruent","Incongruent","Congruent","Congruent","Congruent","Congruent","Congruent","Incongruent","Congruent","Congruent","Incongruent","Congruent","Incongruent","Congruent","Congruent","Incongruent","Incongruent","Congruent","Congruent","Incongruent","Congruent","Incongruent","Incongruent","Congruent","Congruent","Congruent","Incongruent","Incongruent","Incongruent","Congruent","Incongruent","Incongruent","Incongruent","Incongruent","Congruent","Incongruent","Congruent","Incongruent","Incongruent","Congruent","Congruent","Incongruent","Congruent","Incongruent","Congruent","Incongruent","Incongruent","Congruent","Congruent","Congruent","Congruent","Incongruent","Incongruent","Incongruent","Incongruent","Incongruent","Incongruent","Congruent","Incongruent","Congruent","Congruent","Incongruent","Congruent","Congruent","Congruent","Congruent","Congruent","Incongruent","Congruent","Incongruent","Incongruent","Congruent","Incongruent","Incongruent","Congruent","Congruent","Incongruent"],"ratio_trial":[300,100,300,300,300,200,300,300,300,300,100,200,300,300,100,200,100,200,300,200,100,300,300,200,200,200,200,200,100,100,200,200,200,100,100,100,100,300,200,200,200,200,200,300,300,300,200,300,300,300,300,200,300,200,100,100,300,300,300,200,100,200,200,200,100,100,100,100,100,100,300,300,300,100,200,200,100,100,100,200,300,200,300,300,200,200,300,100,100,200,200,200,100,200,300,200,100,300,300,300,100,100,300,100,100,100,100,200,100,100,100,200,200,200,300,300,100,100,300,100],"left_num":[9,7,13,4,4,7,8,13,8,20,11,7,3,4,9,3,12,9,5,5,9,4,8,7,3,7,3,4,2,8,7,15,4,9,8,9,3,7,9,3,1,9,3,7,4,2,8,3,3,9,4,20,1,1,4,2,11,1,4,3,8,3,11,16,4,12,1,4,6,8,4,4,2,2,7,4,11,6,9,8,4,7,1,12,7,6,4,9,2,6,15,4,6,8,13,14,2,13,1,4,4,10,4,3,6,3,2,8,3,3,2,6,7,4,11,2,9,4,1,3],"right_num":[3,9,12,2,8,14,14,12,9,8,4,8,4,2,20,11,9,4,6,14,14,13,14,8,11,8,1,1,11,1,2,4,3,6,2,8,7,20,13,1,21,4,14,8,2,12,3,11,11,3,6,9,11,3,6,6,1,6,6,1,2,7,3,12,8,9,18,15,15,1,6,2,12,8,4,1,9,5,20,7,2,4,6,2,4,3,2,8,8,3,4,3,5,2,12,6,8,12,3,2,15,9,2,2,3,4,11,3,4,4,6,7,12,1,2,6,6,6,11,11],"left_den":[10,14,26,5,5,10,10,26,10,25,22,10,6,20,10,4,24,20,25,10,15,20,10,10,4,10,10,30,5,20,21,25,10,18,16,15,9,14,30,10,2,20,10,10,20,10,15,12,12,10,5,25,5,2,8,4,22,5,5,10,16,10,20,20,8,24,2,10,12,20,5,20,10,4,15,30,22,20,10,15,20,15,5,24,15,15,20,15,4,20,25,10,20,15,26,30,4,26,2,20,10,25,5,6,12,20,5,15,20,20,4,12,10,30,22,4,18,8,5,5],"right_den":[5,15,15,4,16,28,28,15,18,16,10,16,5,4,25,20,15,16,12,20,28,26,28,16,20,16,2,3,22,2,15,10,15,10,5,16,30,25,26,2,30,16,28,20,4,24,9,20,20,5,12,15,22,10,10,15,5,12,12,2,5,14,4,20,20,15,30,30,25,2,12,4,24,20,6,3,15,25,25,21,4,6,12,10,6,15,4,16,20,6,10,15,25,6,15,9,20,15,15,4,30,18,4,5,5,16,22,9,16,16,15,10,24,3,10,30,10,10,22,22],"correct_side":[1,2,2,1,1,1,1,2,1,1,1,1,2,2,1,1,2,1,2,2,1,2,1,1,1,1,2,2,2,2,1,1,1,2,1,1,1,2,2,2,2,1,2,1,2,2,1,2,2,1,1,1,2,1,2,1,1,2,1,2,1,2,2,1,1,2,2,2,2,2,1,2,2,1,2,2,2,1,1,1,2,2,2,1,2,1,2,1,1,2,1,1,1,1,2,2,1,2,1,2,2,2,1,1,2,2,2,1,2,2,1,2,1,2,1,1,2,2,2,1],"img_shown":["img2/300/Congruent/L/C_Dist_300_LN_9_LD_10_RN_3_RD_5_0.png","img2/100/Congruent/R/C_Dist_100_LN_7_LD_14_RN_9_RD_15_1.png","img2/300/Incongruent/R/I_Dist_300_LN_13_LD_26_RN_12_RD_15_1.png","img2/300/Congruent/L/C_Dist_300_LN_4_LD_5_RN_2_RD_4_0.png","img2/300/Incongruent/L/I_Dist_300_LN_4_LD_5_RN_8_RD_16_0.png","img2/200/Incongruent/L/I_Dist_200_LN_7_LD_10_RN_14_RD_28_0.png","img2/300/Incongruent/L/I_Dist_300_LN_8_LD_10_RN_14_RD_28_0.png","img2/300/Incongruent/R/I_Dist_300_LN_13_LD_26_RN_12_RD_15_1.png","img2/300/Incongruent/L/I_Dist_300_LN_8_LD_10_RN_9_RD_18_0.png","img2/300/Congruent/L/C_Dist_300_LN_20_LD_25_RN_8_RD_16_0.png","img2/100/Congruent/L/C_Dist_100_LN_11_LD_22_RN_4_RD_10_0.png","img2/200/Incongruent/L/I_Dist_200_LN_7_LD_10_RN_8_RD_16_0.png","img2/300/Congruent/R/C_Dist_300_LN_3_LD_6_RN_4_RD_5_1.png","img2/300/Incongruent/R/I_Dist_300_LN_4_LD_20_RN_2_RD_4_1.png","img2/100/Incongruent/L/I_Dist_100_LN_9_LD_10_RN_20_RD_25_0.png","img2/200/Incongruent/L/I_Dist_200_LN_3_LD_4_RN_11_RD_20_0.png","img2/100/Incongruent/R/I_Dist_100_LN_12_LD_24_RN_9_RD_15_1.png","img2/200/Congruent/L/C_Dist_200_LN_9_LD_20_RN_4_RD_16_0.png","img2/300/Congruent/R/C_Dist_300_LN_5_LD_25_RN_6_RD_12_1.png","img2/200/Congruent/R/C_Dist_200_LN_5_LD_10_RN_14_RD_20_1.png","img2/100/Incongruent/L/I_Dist_100_LN_9_LD_15_RN_14_RD_28_0.png","img2/300/Congruent/R/C_Dist_300_LN_4_LD_20_RN_13_RD_26_1.png","img2/300/Incongruent/L/I_Dist_300_LN_8_LD_10_RN_14_RD_28_0.png","img2/200/Incongruent/L/I_Dist_200_LN_7_LD_10_RN_8_RD_16_0.png","img2/200/Incongruent/L/I_Dist_200_LN_3_LD_4_RN_11_RD_20_0.png","img2/200/Incongruent/L/I_Dist_200_LN_7_LD_10_RN_8_RD_16_0.png","img2/200/Incongruent/R/I_Dist_200_LN_3_LD_10_RN_1_RD_2_1.png","img2/200/Incongruent/R/I_Dist_200_LN_4_LD_30_RN_1_RD_3_1.png","img2/100/Congruent/R/C_Dist_100_LN_2_LD_5_RN_11_RD_22_1.png","img2/100/Incongruent/R/I_Dist_100_LN_8_LD_20_RN_1_RD_2_1.png","img2/200/Congruent/L/C_Dist_200_LN_7_LD_21_RN_2_RD_15_0.png","img2/200/Congruent/L/C_Dist_200_LN_15_LD_25_RN_4_RD_10_0.png","img2/200/Congruent/L/C_Dist_200_LN_4_LD_10_RN_3_RD_15_0.png","img2/100/Incongruent/R/I_Dist_100_LN_9_LD_18_RN_6_RD_10_1.png","img2/100/Congruent/L/C_Dist_100_LN_8_LD_16_RN_2_RD_5_0.png","img2/100/Congruent/L/C_Dist_100_LN_9_LD_15_RN_8_RD_16_0.png","img2/100/Incongruent/L/I_Dist_100_LN_3_LD_9_RN_7_RD_30_0.png","img2/300/Congruent/R/C_Dist_300_LN_7_LD_14_RN_20_RD_25_1.png","img2/200/Congruent/R/C_Dist_200_LN_9_LD_30_RN_13_RD_26_1.png","img2/200/Incongruent/R/I_Dist_200_LN_3_LD_10_RN_1_RD_2_1.png","img2/200/Congruent/R/C_Dist_200_LN_1_LD_2_RN_21_RD_30_1.png","img2/200/Congruent/L/C_Dist_200_LN_9_LD_20_RN_4_RD_16_0.png","img2/200/Congruent/R/C_Dist_200_LN_3_LD_10_RN_14_RD_28_1.png","img2/300/Incongruent/L/I_Dist_300_LN_7_LD_10_RN_8_RD_20_0.png","img2/300/Incongruent/R/I_Dist_300_LN_4_LD_20_RN_2_RD_4_1.png","img2/300/Congruent/R/C_Dist_300_LN_2_LD_10_RN_12_RD_24_1.png","img2/200/Congruent/L/C_Dist_200_LN_8_LD_15_RN_3_RD_9_0.png","img2/300/Congruent/R/C_Dist_300_LN_3_LD_12_RN_11_RD_20_1.png","img2/300/Congruent/R/C_Dist_300_LN_3_LD_12_RN_11_RD_20_1.png","img2/300/Congruent/L/C_Dist_300_LN_9_LD_10_RN_3_RD_5_0.png","img2/300/Incongruent/L/I_Dist_300_LN_4_LD_5_RN_6_RD_12_0.png","img2/200/Congruent/L/C_Dist_200_LN_20_LD_25_RN_9_RD_15_0.png","img2/300/Congruent/R/C_Dist_300_LN_1_LD_5_RN_11_RD_22_1.png","img2/200/Incongruent/L/I_Dist_200_LN_1_LD_2_RN_3_RD_10_0.png","img2/100/Congruent/R/C_Dist_100_LN_4_LD_8_RN_6_RD_10_1.png","img2/100/Incongruent/L/I_Dist_100_LN_2_LD_4_RN_6_RD_15_0.png","img2/300/Congruent/L/C_Dist_300_LN_11_LD_22_RN_1_RD_5_0.png","img2/300/Congruent/R/C_Dist_300_LN_1_LD_5_RN_6_RD_12_1.png","img2/300/Incongruent/L/I_Dist_300_LN_4_LD_5_RN_6_RD_12_0.png","img2/200/Incongruent/R/I_Dist_200_LN_3_LD_10_RN_1_RD_2_1.png","img2/100/Congruent/L/C_Dist_100_LN_8_LD_16_RN_2_RD_5_0.png","img2/200/Congruent/R/C_Dist_200_LN_3_LD_10_RN_7_RD_14_1.png","img2/200/Incongruent/R/I_Dist_200_LN_11_LD_20_RN_3_RD_4_1.png","img2/200/Congruent/L/C_Dist_200_LN_16_LD_20_RN_12_RD_20_0.png","img2/100/Incongruent/L/I_Dist_100_LN_4_LD_8_RN_8_RD_20_0.png","img2/100/Incongruent/R/I_Dist_100_LN_12_LD_24_RN_9_RD_15_1.png","img2/100/Congruent/R/C_Dist_100_LN_1_LD_2_RN_18_RD_30_1.png","img2/100/Congruent/R/C_Dist_100_LN_4_LD_10_RN_15_RD_30_1.png","img2/100/Congruent/R/C_Dist_100_LN_6_LD_12_RN_15_RD_25_1.png","img2/100/Incongruent/R/I_Dist_100_LN_8_LD_20_RN_1_RD_2_1.png","img2/300/Incongruent/L/I_Dist_300_LN_4_LD_5_RN_6_RD_12_0.png","img2/300/Incongruent/R/I_Dist_300_LN_4_LD_20_RN_2_RD_4_1.png","img2/300/Congruent/R/C_Dist_300_LN_2_LD_10_RN_12_RD_24_1.png","img2/100/Incongruent/L/I_Dist_100_LN_2_LD_4_RN_8_RD_20_0.png","img2/200/Incongruent/R/I_Dist_200_LN_7_LD_15_RN_4_RD_6_1.png","img2/200/Incongruent/R/I_Dist_200_LN_4_LD_30_RN_1_RD_3_1.png","img2/100/Incongruent/R/I_Dist_100_LN_11_LD_22_RN_9_RD_15_1.png","img2/100/Congruent/L/C_Dist_100_LN_6_LD_20_RN_5_RD_25_0.png","img2/100/Incongruent/L/I_Dist_100_LN_9_LD_10_RN_20_RD_25_0.png","img2/200/Congruent/L/C_Dist_200_LN_8_LD_15_RN_7_RD_21_0.png","img2/300/Incongruent/R/I_Dist_300_LN_4_LD_20_RN_2_RD_4_1.png","img2/200/Incongruent/R/I_Dist_200_LN_7_LD_15_RN_4_RD_6_1.png","img2/300/Congruent/R/C_Dist_300_LN_1_LD_5_RN_6_RD_12_1.png","img2/300/Congruent/L/C_Dist_300_LN_12_LD_24_RN_2_RD_10_0.png","img2/200/Incongruent/R/I_Dist_200_LN_7_LD_15_RN_4_RD_6_1.png","img2/200/Congruent/L/C_Dist_200_LN_6_LD_15_RN_3_RD_15_0.png","img2/300/Incongruent/R/I_Dist_300_LN_4_LD_20_RN_2_RD_4_1.png","img2/100/Congruent/L/C_Dist_100_LN_9_LD_15_RN_8_RD_16_0.png","img2/100/Incongruent/L/I_Dist_100_LN_2_LD_4_RN_8_RD_20_0.png","img2/200/Incongruent/R/I_Dist_200_LN_6_LD_20_RN_3_RD_6_1.png","img2/200/Congruent/L/C_Dist_200_LN_15_LD_25_RN_4_RD_10_0.png","img2/200/Congruent/L/C_Dist_200_LN_4_LD_10_RN_3_RD_15_0.png","img2/100/Congruent/L/C_Dist_100_LN_6_LD_20_RN_5_RD_25_0.png","img2/200/Congruent/L/C_Dist_200_LN_8_LD_15_RN_2_RD_6_0.png","img2/300/Incongruent/R/I_Dist_300_LN_13_LD_26_RN_12_RD_15_1.png","img2/200/Incongruent/R/I_Dist_200_LN_14_LD_30_RN_6_RD_9_1.png","img2/100/Incongruent/L/I_Dist_100_LN_2_LD_4_RN_8_RD_20_0.png","img2/300/Incongruent/R/I_Dist_300_LN_13_LD_26_RN_12_RD_15_1.png","img2/300/Incongruent/L/I_Dist_300_LN_1_LD_2_RN_3_RD_15_0.png","img2/300/Incongruent/R/I_Dist_300_LN_4_LD_20_RN_2_RD_4_1.png","img2/100/Congruent/R/C_Dist_100_LN_4_LD_10_RN_15_RD_30_1.png","img2/100/Incongruent/R/I_Dist_100_LN_10_LD_25_RN_9_RD_18_1.png","img2/300/Congruent/L/C_Dist_300_LN_4_LD_5_RN_2_RD_4_0.png","img2/100/Congruent/L/C_Dist_100_LN_3_LD_6_RN_2_RD_5_0.png","img2/100/Incongruent/R/I_Dist_100_LN_6_LD_12_RN_3_RD_5_1.png","img2/100/Congruent/R/C_Dist_100_LN_3_LD_20_RN_4_RD_16_1.png","img2/100/Congruent/R/C_Dist_100_LN_2_LD_5_RN_11_RD_22_1.png","img2/200/Congruent/L/C_Dist_200_LN_8_LD_15_RN_3_RD_9_0.png","img2/100/Congruent/R/C_Dist_100_LN_3_LD_20_RN_4_RD_16_1.png","img2/100/Congruent/R/C_Dist_100_LN_3_LD_20_RN_4_RD_16_1.png","img2/100/Incongruent/L/I_Dist_100_LN_2_LD_4_RN_6_RD_15_0.png","img2/200/Congruent/R/C_Dist_200_LN_6_LD_12_RN_7_RD_10_1.png","img2/200/Incongruent/L/I_Dist_200_LN_7_LD_10_RN_12_RD_24_0.png","img2/200/Incongruent/R/I_Dist_200_LN_4_LD_30_RN_1_RD_3_1.png","img2/300/Congruent/L/C_Dist_300_LN_11_LD_22_RN_2_RD_10_0.png","img2/300/Incongruent/L/I_Dist_300_LN_2_LD_4_RN_6_RD_30_0.png","img2/100/Incongruent/R/I_Dist_100_LN_9_LD_18_RN_6_RD_10_1.png","img2/100/Congruent/R/C_Dist_100_LN_4_LD_8_RN_6_RD_10_1.png","img2/300/Congruent/R/C_Dist_300_LN_1_LD_5_RN_11_RD_22_1.png","img2/100/Incongruent/L/I_Dist_100_LN_3_LD_5_RN_11_RD_22_0.png"],"dist100_C":[["C_Dist_100_LN_10_LD_25_RN_3_RD_10_0.png","C_Dist_100_LN_11_LD_22_RN_4_RD_10_0.png","C_Dist_100_LN_11_LD_22_RN_6_RD_15_0.png","C_Dist_100_LN_15_LD_25_RN_13_RD_26_0.png","C_Dist_100_LN_3_LD_6_RN_2_RD_5_0.png","C_Dist_100_LN_6_LD_20_RN_5_RD_25_0.png","C_Dist_100_LN_8_LD_16_RN_2_RD_5_0.png","C_Dist_100_LN_9_LD_15_RN_8_RD_16_0.png"],["C_Dist_100_LN_1_LD_2_RN_18_RD_30_1.png","C_Dist_100_LN_1_LD_2_RN_3_RD_5_1.png","C_Dist_100_LN_12_LD_30_RN_13_RD_26_1.png","C_Dist_100_LN_2_LD_5_RN_11_RD_22_1.png","C_Dist_100_LN_2_LD_5_RN_6_RD_12_1.png","C_Dist_100_LN_3_LD_20_RN_4_RD_16_1.png","C_Dist_100_LN_4_LD_10_RN_15_RD_30_1.png","C_Dist_100_LN_4_LD_8_RN_6_RD_10_1.png","C_Dist_100_LN_6_LD_12_RN_15_RD_25_1.png","C_Dist_100_LN_7_LD_14_RN_15_RD_25_1.png","C_Dist_100_LN_7_LD_14_RN_9_RD_15_1.png"]],"dist100_I":[["I_Dist_100_LN_1_LD_2_RN_8_RD_20_0.png","I_Dist_100_LN_2_LD_4_RN_6_RD_15_0.png","I_Dist_100_LN_2_LD_4_RN_8_RD_20_0.png","I_Dist_100_LN_3_LD_5_RN_11_RD_22_0.png","I_Dist_100_LN_3_LD_5_RN_8_RD_16_0.png","I_Dist_100_LN_3_LD_6_RN_4_RD_10_0.png","I_Dist_100_LN_3_LD_9_RN_7_RD_30_0.png","I_Dist_100_LN_4_LD_8_RN_8_RD_20_0.png","I_Dist_100_LN_6_LD_10_RN_11_RD_22_0.png","I_Dist_100_LN_6_LD_10_RN_13_RD_26_0.png","I_Dist_100_LN_6_LD_10_RN_7_RD_14_0.png","I_Dist_100_LN_9_LD_10_RN_20_RD_25_0.png","I_Dist_100_LN_9_LD_15_RN_13_RD_26_0.png","I_Dist_100_LN_9_LD_15_RN_14_RD_28_0.png"],["I_Dist_100_LN_10_LD_25_RN_8_RD_16_1.png","I_Dist_100_LN_10_LD_25_RN_9_RD_18_1.png","I_Dist_100_LN_11_LD_22_RN_9_RD_15_1.png","I_Dist_100_LN_12_LD_24_RN_9_RD_15_1.png","I_Dist_100_LN_12_LD_30_RN_2_RD_4_1.png","I_Dist_100_LN_13_LD_26_RN_12_RD_20_1.png","I_Dist_100_LN_13_LD_26_RN_6_RD_10_1.png","I_Dist_100_LN_17_LD_30_RN_10_RD_15_1.png","I_Dist_100_LN_6_LD_12_RN_3_RD_5_1.png","I_Dist_100_LN_8_LD_16_RN_6_RD_10_1.png","I_Dist_100_LN_8_LD_20_RN_1_RD_2_1.png","I_Dist_100_LN_9_LD_18_RN_6_RD_10_1.png"]],"dist100_S":[["E_Dist_100_LN_2_LD_12_RN_2_RD_30_0.png","E_Dist_100_LN_6_LD_10_RN_6_RD_12_0.png"],["E_Dist_100_LN_6_LD_12_RN_6_RD_10_1.png"]],"dist200_C":[["C_Dist_200_LN_11_LD_22_RN_3_RD_10_0.png","C_Dist_200_LN_12_LD_15_RN_6_RD_10_0.png","C_Dist_200_LN_12_LD_20_RN_6_RD_15_0.png","C_Dist_200_LN_14_LD_28_RN_6_RD_20_0.png","C_Dist_200_LN_15_LD_25_RN_4_RD_10_0.png","C_Dist_200_LN_16_LD_20_RN_12_RD_20_0.png","C_Dist_200_LN_16_LD_30_RN_9_RD_27_0.png","C_Dist_200_LN_20_LD_25_RN_9_RD_15_0.png","C_Dist_200_LN_21_LD_30_RN_2_RD_4_0.png","C_Dist_200_LN_4_LD_10_RN_3_RD_15_0.png","C_Dist_200_LN_4_LD_8_RN_3_RD_10_0.png","C_Dist_200_LN_6_LD_15_RN_3_RD_15_0.png","C_Dist_200_LN_7_LD_21_RN_2_RD_15_0.png","C_Dist_200_LN_8_LD_15_RN_2_RD_6_0.png","C_Dist_200_LN_8_LD_15_RN_3_RD_9_0.png","C_Dist_200_LN_8_LD_15_RN_7_RD_21_0.png","C_Dist_200_LN_9_LD_20_RN_4_RD_16_0.png"],["C_Dist_200_LN_1_LD_2_RN_21_RD_30_1.png","C_Dist_200_LN_13_LD_26_RN_14_RD_20_1.png","C_Dist_200_LN_3_LD_10_RN_11_RD_22_1.png","C_Dist_200_LN_3_LD_10_RN_14_RD_28_1.png","C_Dist_200_LN_3_LD_10_RN_7_RD_14_1.png","C_Dist_200_LN_3_LD_12_RN_9_RD_20_1.png","C_Dist_200_LN_3_LD_6_RN_14_RD_20_1.png","C_Dist_200_LN_5_LD_10_RN_14_RD_20_1.png","C_Dist_200_LN_6_LD_12_RN_7_RD_10_1.png","C_Dist_200_LN_6_LD_20_RN_11_RD_22_1.png","C_Dist_200_LN_7_LD_15_RN_18_RD_27_1.png","C_Dist_200_LN_9_LD_30_RN_13_RD_26_1.png"]],"dist200_I":[["I_Dist_200_LN_1_LD_2_RN_3_RD_10_0.png","I_Dist_200_LN_1_LD_3_RN_2_RD_15_0.png","I_Dist_200_LN_3_LD_4_RN_11_RD_20_0.png","I_Dist_200_LN_4_LD_5_RN_6_RD_10_0.png","I_Dist_200_LN_4_LD_6_RN_14_RD_30_0.png","I_Dist_200_LN_7_LD_10_RN_12_RD_24_0.png","I_Dist_200_LN_7_LD_10_RN_14_RD_28_0.png","I_Dist_200_LN_7_LD_10_RN_8_RD_16_0.png"],["I_Dist_200_LN_11_LD_20_RN_3_RD_4_1.png","I_Dist_200_LN_14_LD_30_RN_12_RD_18_1.png","I_Dist_200_LN_14_LD_30_RN_6_RD_9_1.png","I_Dist_200_LN_3_LD_10_RN_1_RD_2_1.png","I_Dist_200_LN_4_LD_30_RN_1_RD_3_1.png","I_Dist_200_LN_6_LD_20_RN_3_RD_6_1.png","I_Dist_200_LN_7_LD_15_RN_4_RD_6_1.png","I_Dist_200_LN_7_LD_15_RN_6_RD_9_1.png","I_Dist_200_LN_9_LD_15_RN_8_RD_10_1.png"]],"dist200_S":[["E_Dist_200_LN_3_LD_6_RN_3_RD_10_0.png"],["E_Dist_200_LN_3_LD_10_RN_3_RD_6_1.png"]],"dist300_C":[["C_Dist_300_LN_11_LD_22_RN_1_RD_5_0.png","C_Dist_300_LN_11_LD_22_RN_2_RD_10_0.png","C_Dist_300_LN_11_LD_22_RN_4_RD_20_0.png","C_Dist_300_LN_12_LD_24_RN_2_RD_10_0.png","C_Dist_300_LN_18_LD_20_RN_9_RD_15_0.png","C_Dist_300_LN_20_LD_25_RN_13_RD_26_0.png","C_Dist_300_LN_20_LD_25_RN_14_RD_28_0.png","C_Dist_300_LN_20_LD_25_RN_5_RD_10_0.png","C_Dist_300_LN_20_LD_25_RN_8_RD_16_0.png","C_Dist_300_LN_20_LD_25_RN_9_RD_18_0.png","C_Dist_300_LN_24_LD_30_RN_2_RD_4_0.png","C_Dist_300_LN_24_LD_30_RN_8_RD_16_0.png","C_Dist_300_LN_3_LD_6_RN_2_RD_10_0.png","C_Dist_300_LN_4_LD_10_RN_1_RD_10_0.png","C_Dist_300_LN_4_LD_5_RN_2_RD_4_0.png","C_Dist_300_LN_8_LD_16_RN_1_RD_5_0.png","C_Dist_300_LN_9_LD_10_RN_3_RD_5_0.png"],["C_Dist_300_LN_1_LD_20_RN_7_RD_20_1.png","C_Dist_300_LN_1_LD_3_RN_19_RD_30_1.png","C_Dist_300_LN_1_LD_30_RN_8_RD_24_1.png","C_Dist_300_LN_1_LD_5_RN_11_RD_22_1.png","C_Dist_300_LN_1_LD_5_RN_3_RD_6_1.png","C_Dist_300_LN_1_LD_5_RN_6_RD_12_1.png","C_Dist_300_LN_2_LD_10_RN_12_RD_24_1.png","C_Dist_300_LN_2_LD_20_RN_10_RD_25_1.png","C_Dist_300_LN_3_LD_12_RN_11_RD_20_1.png","C_Dist_300_LN_3_LD_6_RN_4_RD_5_1.png","C_Dist_300_LN_4_LD_20_RN_13_RD_26_1.png","C_Dist_300_LN_5_LD_25_RN_6_RD_12_1.png","C_Dist_300_LN_5_LD_25_RN_7_RD_14_1.png","C_Dist_300_LN_7_LD_14_RN_20_RD_25_1.png","C_Dist_300_LN_8_LD_15_RN_10_RD_12_1.png"]],"dist300_I":[["I_Dist_300_LN_1_LD_2_RN_2_RD_10_0.png","I_Dist_300_LN_1_LD_2_RN_3_RD_15_0.png","I_Dist_300_LN_2_LD_4_RN_6_RD_30_0.png","I_Dist_300_LN_3_LD_6_RN_4_RD_20_0.png","I_Dist_300_LN_4_LD_5_RN_6_RD_12_0.png","I_Dist_300_LN_4_LD_5_RN_8_RD_16_0.png","I_Dist_300_LN_7_LD_10_RN_8_RD_20_0.png","I_Dist_300_LN_8_LD_10_RN_14_RD_28_0.png","I_Dist_300_LN_8_LD_10_RN_9_RD_18_0.png"],["I_Dist_300_LN_13_LD_26_RN_12_RD_15_1.png","I_Dist_300_LN_4_LD_20_RN_2_RD_4_1.png"]],"dist300_S":[["E_Dist_300_LN_9_LD_12_RN_9_RD_20_0.png"],["E_Dist_300_LN_18_LD_30_RN_18_RD_20_1.png","E_Dist_300_LN_3_LD_10_RN_3_RD_5_1.png","E_Dist_300_LN_9_LD_20_RN_9_RD_12_1.png"]],"dist500_C":[["C_Dist_500_LN_10_LD_13_RN_7_RD_26_0.png","C_Dist_500_LN_10_LD_15_RN_4_RD_24_0.png","C_Dist_500_LN_12_LD_16_RN_3_RD_12_0.png","C_Dist_500_LN_12_LD_18_RN_4_RD_24_0.png","C_Dist_500_LN_15_LD_18_RN_5_RD_15_0.png","C_Dist_500_LN_15_LD_20_RN_1_RD_4_0.png","C_Dist_500_LN_18_LD_27_RN_1_RD_6_0.png","C_Dist_500_LN_20_LD_24_RN_1_RD_3_0.png","C_Dist_500_LN_20_LD_24_RN_3_RD_9_0.png","C_Dist_500_LN_20_LD_24_RN_7_RD_21_0.png","C_Dist_500_LN_20_LD_28_RN_3_RD_14_0.png","C_Dist_500_LN_21_LD_28_RN_6_RD_24_0.png","C_Dist_500_LN_22_LD_28_RN_2_RD_7_0.png","C_Dist_500_LN_25_LD_30_RN_9_RD_27_0.png","C_Dist_500_LN_4_LD_6_RN_1_RD_6_0.png","C_Dist_500_LN_5_LD_6_RN_2_RD_6_0.png","C_Dist_500_LN_6_LD_9_RN_1_RD_6_0.png","C_Dist_500_LN_7_LD_10_RN_1_RD_5_0.png","C_Dist_500_LN_8_LD_12_RN_1_RD_6_0.png","C_Dist_500_LN_8_LD_12_RN_4_RD_24_0.png"],["C_Dist_500_LN_1_LD_4_RN_12_RD_16_1.png","C_Dist_500_LN_1_LD_4_RN_9_RD_12_1.png","C_Dist_500_LN_1_LD_9_RN_11_RD_18_1.png","C_Dist_500_LN_10_LD_24_RN_22_RD_24_1.png","C_Dist_500_LN_2_LD_12_RN_10_RD_15_1.png","C_Dist_500_LN_2_LD_12_RN_12_RD_18_1.png","C_Dist_500_LN_2_LD_12_RN_4_RD_6_1.png","C_Dist_500_LN_2_LD_24_RN_7_RD_12_1.png","C_Dist_500_LN_2_LD_5_RN_18_RD_20_1.png","C_Dist_500_LN_2_LD_5_RN_9_RD_10_1.png","C_Dist_500_LN_2_LD_8_RN_12_RD_16_1.png","C_Dist_500_LN_2_LD_8_RN_21_RD_28_1.png","C_Dist_500_LN_3_LD_10_RN_4_RD_5_1.png","C_Dist_500_LN_3_LD_12_RN_15_RD_20_1.png","C_Dist_500_LN_3_LD_30_RN_6_RD_10_1.png","C_Dist_500_LN_3_LD_8_RN_14_RD_16_1.png","C_Dist_500_LN_4_LD_16_RN_15_RD_20_1.png","C_Dist_500_LN_4_LD_24_RN_12_RD_18_1.png","C_Dist_500_LN_5_LD_14_RN_6_RD_7_1.png","C_Dist_500_LN_7_LD_21_RN_20_RD_24_1.png","C_Dist_500_LN_7_LD_28_RN_12_RD_16_1.png","C_Dist_500_LN_7_LD_28_RN_9_RD_12_1.png","C_Dist_500_LN_9_LD_27_RN_20_RD_24_1.png"]],"dist500_I":[["I_Dist_500_LN_2_LD_3_RN_4_RD_24_0.png","I_Dist_500_LN_5_LD_6_RN_6_RD_18_0.png","I_Dist_500_LN_7_LD_8_RN_9_RD_24_0.png"],["I_Dist_500_LN_7_LD_21_RN_5_RD_6_1.png"]],"dist500_S":[["E_Dist_500_LN_6_LD_8_RN_6_RD_24_0.png"],["E_Dist_500_LN_2_LD_12_RN_2_RD_3_1.png","E_Dist_500_LN_6_LD_24_RN_6_RD_8_1.png"]]}},{"start_time":1551793963646,"click_time":1551793965613,"finger_time":1551793965473,"fix_duration":250,"trial":1,"RT":1827,"MT":140,"sideResp":1,"stimulus":[],"xmouse":[777,777,777,777,777,777,777,777,777,777,777,777,777,777,777,777,777,777,777,777,777,777,777,777,777,777,777,777,777,777,777,777,777,777,777,777,777,777,777,777,777,777,777,777,777,777,777,777,777,777,777,777,777,777,777,777,777,777,777,777,777,777,777,777,777,777,777,777,777,777,777,777,777,777,777,777,777,777,777,777,777,778,778,779,779,779,777,775,775,775,775,772,759,743,716,672,630,546,509],"ymouse":[502,502,502,502,502,502,502,502,502,502,502,502,502,502,502,502,502,502,502,502,502,502,502,502,502,502,502,502,502,502,502,502,502,502,502,502,502,502,502,502,502,502,502,502,502,502,502,502,502,502,502,502,502,502,502,502,502,502,502,502,502,502,502,502,502,502,502,502,502,502,502,502,502,502,502,502,502,502,502,502,498,494,488,474,469,466,464,462,462,462,462,460,435,400,350,285,225,117,60],"timestamp_mouse":[9,27,47,67,87,108,128,148,167,187,208,227,249,267,288,307,327,348,367,388,407,427,447,467,487,507,528,547,567,587,608,628,647,668,687,708,728,748,768,788,807,827,847,867,888,908,926,948,968,987,1007,1027,1047,1067,1088,1106,1128,1147,1167,1187,1207,1228,1247,1267,1288,1308,1328,1348,1367,1387,1408,1428,1447,1468,1488,1508,1527,1547,1568,1588,1607,1628,1647,1667,1687,1708,1727,1748,1768,1788,1807,1827,1848,1867,1888,1907,1927,1949,1967],"xSR":733.5,"ySR":461.5,"xT1":420.09999999999997,"yT1":0,"xT2":1046.8999999999999,"yT2":0,"toosoon":0,"cond_shown":"Congruent","ratio_trial":100,"L_num":7,"L_den":14,"R_num":9,"R_den":15,"correct_side":2,"subjID":"FernandaAguirreRodriguez39","gender":"1","school":"6","age":"11"},{"start_time":1551793968551,"click_time":1551793970334,"finger_time":1551793969933,"fix_duration":1455.2715425936096,"trial":2,"RT":1382,"MT":401,"sideResp":2,"stimulus":[],"xmouse":[806,803,803,803,803,803,803,803,803,803,801,801,801,801,805,811,814,814,814,813,812,812,811,811,811,811,811,811,811,811,811,811,811,811,811,811,811,811,811,811,811,811,811,811,811,811,811,811,811,811,811,811,811,811,811,811,811,811,811,811,811,811,811,811,811,811,811,812,825,834,847,862,887,899,912,923,932,946,960,965,967,969,972,983,994,1005,1019,1045,1055,1065],"ymouse":[534,534,534,534,534,534,534,534,534,534,534,534,534,534,534,534,534,534,534,534,534,534,535,535,535,535,535,535,535,535,535,535,535,535,535,535,535,535,535,535,535,535,535,535,535,535,535,535,535,535,535,535,535,535,535,535,535,535,535,535,535,535,535,535,535,535,535,532,507,485,454,419,372,355,337,319,304,280,257,249,247,245,241,232,224,214,200,152,122,89],"timestamp_mouse":[1,23,45,62,82,102,122,142,161,182,202,222,242,262,282,302,322,343,361,383,402,422,443,462,483,502,522,542,563,581,602,622,642,662,682,702,723,742,762,782,802,822,842,863,883,902,922,942,962,982,1002,1022,1042,1062,1082,1102,1122,1142,1162,1182,1202,1222,1242,1263,1282,1302,1323,1342,1362,1382,1402,1423,1443,1461,1482,1502,1522,1542,1563,1582,1603,1622,1642,1662,1682,1703,1723,1744,1762,1782],"xSR":733.5,"ySR":461.5,"xT1":420.09999999999997,"yT1":0,"xT2":1046.8999999999999,"yT2":0,"toosoon":0,"cond_shown":"Incongruent","ratio_trial":300,"L_num":13,"L_den":26,"R_num":12,"R_den":15,"correct_side":2,"subjID":"FernandaAguirreRodriguez39","gender":"1","school":"6","age":"11"},{"start_time":1551793972258,"click_time":1551793974095,"finger_time":1551793973673,"fix_duration":784.72878616819,"trial":3,"RT":1415,"MT":422,"sideResp":1,"stimulus":[],"xmouse":[787,787,787,787,787,787,787,787,787,787,787,787,787,787,787,787,787,787,787,787,787,787,787,787,787,787,787,787,787,787,787,787,787,787,787,787,787,787,787,787,787,787,787,787,787,787,787,787,787,787,787,787,787,787,787,787,787,787,787,787,787,787,787,787,787,787,787,787,781,771,751,746,711,695,680,670,660,652,650,649,646,642,624,614,599,584,557,546,541,534,528,511],"ymouse":[495,495,495,495,495,495,495,495,495,495,495,495,495,495,495,495,495,495,495,495,495,495,495,495,495,495,495,495,495,495,495,495,495,495,495,495,495,495,495,495,495,495,495,495,495,495,495,495,495,495,495,495,495,495,495,495,495,495,495,495,495,495,495,495,495,495,495,490,478,464,436,429,378,355,333,316,301,287,283,279,276,272,261,254,242,229,183,158,136,114,94,67],"timestamp_mouse":[15,36,55,76,95,116,136,156,175,195,215,236,255,275,295,316,336,356,375,395,415,436,456,475,495,515,536,556,575,595,616,635,655,675,695,715,735,756,775,795,815,836,855,875,896,915,936,955,975,995,1015,1035,1056,1076,1095,1115,1135,1155,1175,1195,1215,1235,1255,1276,1296,1316,1335,1355,1375,1396,1415,1435,1456,1475,1495,1515,1535,1555,1575,1596,1615,1635,1655,1675,1695,1716,1736,1755,1775,1796,1815,1837],"xSR":733.5,"ySR":461.5,"xT1":420.09999999999997,"yT1":0,"xT2":1046.8999999999999,"yT2":0,"toosoon":0,"cond_shown":"Congruent","ratio_trial":300,"L_num":4,"L_den":5,"R_num":2,"R_den":4,"correct_side":1,"subjID":"FernandaAguirreRodriguez39","gender":"1","school":"6","age":"11"},{"start_time":1551793976423,"click_time":1551793978513,"finger_time":1551793977913,"fix_duration":1029.8328677527707,"trial":4,"RT":1490,"MT":600,"sideResp":1,"stimulus":[],"xmouse":[768,768,768,768,768,768,768,768,768,768,768,768,768,768,768,768,768,768,768,768,768,768,768,768,768,768,768,768,768,768,768,768,768,768,768,768,768,768,768,768,768,768,768,768,768,770,771,773,775,776,776,776,776,776,776,776,776,776,776,776,776,776,776,776,776,776,776,776,776,776,776,776,776,776,767,758,743,723,700,650,627,602,571,531,526,524,522,522,522,522,517,514,513,516,516,516,515,514,512,511,510,508,506,502,497],"ymouse":[503,503,503,503,503,503,503,503,503,503,503,503,503,503,503,503,503,503,503,503,503,504,504,504,504,504,504,504,504,504,504,504,504,504,504,504,504,504,504,504,504,504,504,504,502,497,492,488,485,481,481,481,481,481,481,481,481,481,481,481,481,481,481,481,481,481,481,481,481,481,481,481,480,478,459,447,432,418,402,364,343,314,283,244,234,229,224,218,199,176,160,151,145,133,130,127,125,122,120,119,116,113,110,105,94],"timestamp_mouse":[11,33,50,70,90,111,131,150,171,190,211,230,251,270,291,310,330,351,370,391,410,431,450,470,490,511,530,550,571,590,610,630,650,670,690,710,731,750,771,790,810,831,851,871,891,910,931,950,971,990,1011,1031,1050,1071,1091,1111,1131,1151,1171,1190,1210,1231,1251,1272,1290,1310,1331,1349,1371,1390,1410,1430,1451,1470,1490,1510,1530,1550,1571,1590,1610,1631,1650,1672,1690,1710,1731,1750,1772,1790,1810,1830,1850,1871,1890,1911,1930,1951,1971,1990,2010,2036,2050,2070,2090],"xSR":733.5,"ySR":461.5,"xT1":420.09999999999997,"yT1":0,"xT2":1046.8999999999999,"yT2":0,"toosoon":0,"cond_shown":"Incongruent","ratio_trial":300,"L_num":4,"L_den":5,"R_num":8,"R_den":16,"correct_side":1,"subjID":"FernandaAguirreRodriguez39","gender":"1","school":"6","age":"11"},{"start_time":1551793979985,"click_time":1551793982394,"finger_time":1551793981353,"fix_duration":250,"trial":5,"RT":1368,"MT":1041,"sideResp":1,"stimulus":[],"xmouse":[759,759,759,759,759,759,759,759,759,759,759,759,759,759,759,759,759,759,759,759,759,759,759,759,759,759,759,759,759,759,759,759,759,759,759,759,759,759,759,759,759,759,759,759,759,759,759,759,759,759,759,759,759,759,759,759,759,759,759,759,759,759,759,759,759,759,762,771,782,795,827,842,856,871,877,877,879,885,891,896,901,904,908,915,924,944,956,966,980,993,1014,1018,1019,1019,1019,1019,1013,1003,989,969,921,895,873,852,834,810,806,800,787,768,715,684,648,622,599,575,556,548,542,534,517],"ymouse":[471,471,471,471,471,471,471,471,471,471,471,471,471,471,471,471,471,471,471,471,471,471,471,471,471,471,471,471,471,471,471,471,471,471,471,471,471,471,471,471,471,471,471,471,471,471,471,471,471,471,471,471,471,471,471,471,471,471,471,471,471,471,471,471,471,471,471,465,458,448,416,392,364,329,305,263,251,236,223,210,188,176,166,154,143,128,121,115,108,102,92,91,90,90,90,90,92,95,97,100,107,110,115,118,120,122,123,124,124,124,124,119,114,111,107,101,96,95,94,93,90],"timestamp_mouse":[8,28,54,68,88,108,128,148,169,188,209,228,248,268,288,309,328,348,368,388,408,428,448,469,488,509,529,549,569,588,609,628,648,668,688,708,728,748,768,788,808,828,848,868,888,909,928,948,968,989,1009,1028,1048,1069,1088,1108,1130,1148,1169,1189,1208,1228,1248,1268,1288,1308,1328,1348,1368,1389,1409,1427,1448,1468,1488,1509,1528,1548,1569,1589,1610,1628,1648,1668,1688,1709,1728,1748,1769,1789,1808,1828,1848,1869,1888,1908,1928,1948,1969,1989,2009,2028,2048,2068,2088,2109,2128,2148,2168,2188,2209,2228,2248,2269,2289,2309,2328,2348,2368,2388,2409],"xSR":733.5,"ySR":461.5,"xT1":420.09999999999997,"yT1":0,"xT2":1046.8999999999999,"yT2":0,"toosoon":0,"cond_shown":"Incongruent","ratio_trial":200,"L_num":7,"L_den":10,"R_num":14,"R_den":28,"correct_side":1,"subjID":"FernandaAguirreRodriguez39","gender":"1","school":"6","age":"11"},{"start_time":1551793984989,"click_time":1551793986754,"finger_time":1551793986353,"fix_duration":1054.4781107545948,"trial":6,"RT":1364,"MT":401,"sideResp":1,"stimulus":[],"xmouse":[770,770,770,770,770,773,793,802,807,807,807,807,807,807,807,807,807,807,807,807,806,806,806,806,806,806,806,806,806,806,806,806,806,806,806,806,806,806,805,804,803,803,803,803,803,803,803,803,803,803,803,803,803,803,803,803,803,803,803,803,803,803,803,803,803,800,785,766,741,716,675,665,657,649,637,603,571,541,519,506,494,490,488,485,483,478,472,470,469],"ymouse":[503,503,503,503,503,503,501,501,501,501,501,501,501,501,501,501,501,501,501,501,501,501,501,501,501,501,501,501,501,501,501,501,501,501,501,501,501,501,501,501,502,502,502,502,502,502,502,502,502,502,502,502,502,502,502,502,502,502,502,502,502,502,502,502,502,502,489,475,457,438,398,381,366,349,317,246,199,167,147,133,116,112,109,108,107,105,102,100,97],"timestamp_mouse":[8,24,45,64,84,104,125,144,164,184,204,224,245,265,284,305,325,344,364,384,404,424,444,464,484,504,524,544,565,584,604,624,645,665,684,704,724,745,765,784,805,824,845,864,884,904,925,944,965,984,1005,1024,1044,1065,1085,1104,1125,1145,1164,1184,1205,1225,1245,1265,1284,1304,1325,1344,1364,1384,1405,1423,1444,1464,1484,1506,1524,1543,1564,1585,1605,1624,1644,1665,1683,1704,1725,1744,1764],"xSR":733.5,"ySR":461.5,"xT1":420.09999999999997,"yT1":0,"xT2":1046.8999999999999,"yT2":0,"toosoon":0,"cond_shown":"Incongruent","ratio_trial":300,"L_num":8,"L_den":10,"R_num":14,"R_den":28,"correct_side":1,"subjID":"FernandaAguirreRodriguez39","gender":"1","school":"6","age":"11"},{"start_time":1551793988446,"click_time":1551793990413,"finger_time":1551793989913,"fix_duration":250,"trial":7,"RT":1467,"MT":500,"sideResp":2,"stimulus":[],"xmouse":[769,769,769,769,769,769,769,769,769,769,769,767,766,765,765,765,765,765,765,765,765,765,765,765,765,765,765,765,765,765,765,765,765,765,765,765,765,765,765,765,765,765,765,765,765,765,765,765,765,765,765,765,765,765,765,765,765,765,765,765,765,765,765,765,765,765,765,765,765,766,772,780,799,806,814,823,830,840,842,847,851,855,878,889,904,923,944,967,1002,1012,1016,1020,1022,1029,1033,1037,1044,1053,1067],"ymouse":[491,491,491,491,491,491,491,491,492,492,492,494,495,495,496,496,496,496,496,496,496,496,496,496,496,496,496,496,496,496,496,496,496,496,496,496,496,496,496,496,496,496,496,496,496,496,496,496,496,496,496,496,496,496,496,496,496,496,496,496,496,496,496,496,496,496,496,496,496,493,489,482,466,455,443,431,417,384,373,364,356,347,316,300,280,258,238,213,180,170,164,158,154,146,142,137,127,113,89],"timestamp_mouse":[10,28,48,67,87,107,127,147,167,187,207,228,247,267,288,307,327,348,367,387,407,428,448,468,487,507,528,548,568,588,607,628,648,667,687,708,727,747,768,787,807,828,847,868,886,907,928,947,967,987,1007,1027,1048,1068,1088,1108,1128,1147,1168,1188,1208,1227,1247,1267,1287,1307,1328,1347,1367,1387,1407,1428,1448,1467,1487,1508,1527,1548,1567,1587,1608,1628,1648,1667,1687,1707,1727,1747,1767,1787,1807,1828,1847,1868,1887,1907,1928,1947,1966],"xSR":733.5,"ySR":461.5,"xT1":420.09999999999997,"yT1":0,"xT2":1046.8999999999999,"yT2":0,"toosoon":0,"cond_shown":"Incongruent","ratio_trial":300,"L_num":13,"L_den":26,"R_num":12,"R_den":15,"correct_side":2,"subjID":"FernandaAguirreRodriguez39","gender":"1","school":"6","age":"11"},{"start_time":1551793991946,"click_time":1551793994954,"finger_time":1551793993333,"fix_duration":250,"trial":8,"RT":1387,"MT":1621,"sideResp":1,"stimulus":[],"xmouse":[776,776,776,776,776,776,776,776,776,776,776,776,776,776,776,776,776,776,776,776,776,776,776,776,776,776,776,776,776,776,776,776,776,776,776,776,776,776,776,776,776,776,776,776,776,776,776,776,776,776,776,776,776,776,776,776,776,776,776,776,776,776,776,776,776,776,778,785,792,800,808,821,836,902,960,1018,1067,1116,1172,1179,1182,1185,1191,1196,1199,1202,1202,1195,1192,1187,1181,1173,1165,1150,1142,1135,1126,1117,1095,1095,1094,1094,1073,1050,1019,962,883,777,455,361,294,259,241,233,233,233,233,233,233,233,233,233,233,233,233,233,233,233,233,332,339,343,348,353,358,365,372,393,400,405,408,413,416,416,416,416,416,416,417,419,423],"ymouse":[500,500,500,500,500,500,500,500,500,500,500,500,500,500,500,500,500,500,500,500,500,500,500,500,500,500,500,500,500,500,500,500,500,500,500,500,500,500,500,500,500,500,500,500,500,500,500,500,500,500,500,500,500,500,500,500,500,500,500,500,500,500,500,500,500,500,499,482,466,447,428,405,386,345,315,291,269,249,216,209,202,195,174,163,151,140,129,121,121,121,124,127,131,140,148,160,179,214,350,380,404,421,452,460,465,465,465,451,356,311,260,205,150,47,6,6,6,6,6,6,6,6,6,6,6,6,6,6,6,13,22,25,29,31,31,31,31,31,31,31,31,31,31,31,31,31,31,31,31,31,31],"timestamp_mouse":[8,31,48,67,87,108,128,147,167,187,207,228,248,268,287,307,327,347,368,387,406,428,448,467,488,507,528,547,567,588,608,628,648,667,687,707,727,747,768,787,807,827,847,867,888,908,927,947,968,988,1007,1027,1047,1068,1087,1107,1128,1147,1167,1188,1208,1227,1248,1268,1288,1308,1328,1348,1368,1387,1408,1428,1448,1467,1487,1508,1528,1547,1567,1587,1608,1627,1648,1667,1688,1707,1727,1749,1767,1787,1807,1827,1847,1867,1887,1907,1928,1947,1968,1987,2007,2027,2049,2067,2087,2107,2128,2148,2168,2187,2207,2227,2247,2267,2287,2308,2327,2347,2368,2387,2407,2428,2448,2468,2487,2508,2527,2547,2567,2587,2607,2627,2648,2667,2687,2707,2728,2748,2767,2787,2808,2828,2848,2868,2887,2908,2928,2948,2968,2987,3008],"xSR":733.5,"ySR":461.5,"xT1":420.09999999999997,"yT1":0,"xT2":1046.8999999999999,"yT2":0,"toosoon":0,"cond_shown":"Incongruent","ratio_trial":300,"L_num":8,"L_den":10,"R_num":9,"R_den":18,"correct_side":1,"subjID":"FernandaAguirreRodriguez39","gender":"1","school":"6","age":"11"},{"start_time":1551793997948,"click_time":1551793999355,"finger_time":1551793999215,"fix_duration":250,"trial":9,"RT":1267,"MT":140,"sideResp":1,"stimulus":[],"xmouse":[819,818,815,813,809,809,809,808,808,808,808,808,808,808,808,808,808,808,808,808,808,808,808,808,808,808,808,808,808,808,808,808,808,808,808,808,808,808,808,808,808,808,808,808,808,808,808,808,808,807,804,797,780,773,772,772,772,772,772,772,772,772,771,770,763,752,734,678,566,503,454],"ymouse":[484,484,486,487,489,489,489,491,491,491,491,491,491,491,491,491,491,491,491,491,491,491,491,491,491,491,491,491,491,491,491,491,491,491,491,491,491,491,491,491,491,491,491,491,491,491,491,491,491,491,488,482,469,465,464,464,464,464,464,464,464,464,463,455,437,416,391,314,185,121,70],"timestamp_mouse":[8,27,47,68,87,109,127,147,168,189,207,227,248,267,287,309,328,347,367,387,408,429,447,467,488,507,527,549,567,587,608,628,648,667,688,708,728,747,768,787,807,828,847,867,888,907,928,948,968,987,1008,1028,1048,1067,1087,1107,1127,1147,1167,1188,1208,1227,1248,1267,1289,1308,1329,1347,1367,1387,1407],"xSR":733.5,"ySR":461.5,"xT1":420.09999999999997,"yT1":0,"xT2":1046.8999999999999,"yT2":0,"toosoon":0,"cond_shown":"Congruent","ratio_trial":300,"L_num":20,"L_den":25,"R_num":8,"R_den":16,"correct_side":1,"subjID":"FernandaAguirreRodriguez39","gender":"1","school":"6","age":"11"},{"start_time":1551794002064,"click_time":1551794004136,"finger_time":1551794003735,"fix_duration":1448.8890749901827,"trial":10,"RT":1671,"MT":401,"sideResp":1,"stimulus":[],"xmouse":[798,799,799,799,799,797,792,789,789,789,789,789,789,789,789,789,789,789,789,789,789,789,789,789,789,789,789,789,789,789,789,789,789,789,789,789,789,789,789,789,789,789,789,789,789,789,789,789,789,789,789,789,789,789,789,789,789,789,789,789,789,789,789,789,789,789,789,789,789,789,789,789,789,789,789,789,789,789,789,789,789,789,781,775,767,760,740,725,706,688,671,646,610,595,581,566,552,528,519,510,498,493,470,458],"ymouse":[483,483,483,483,484,486,489,491,491,491,491,491,491,491,491,491,491,491,491,491,491,491,491,491,491,491,491,491,491,491,491,491,491,491,491,491,491,491,491,491,491,491,491,491,491,491,491,491,491,491,491,491,491,491,491,491,491,491,491,491,491,491,491,491,491,491,491,491,491,491,491,491,491,491,491,491,491,491,491,491,487,485,463,447,429,409,365,341,318,297,283,263,239,230,221,213,206,194,188,183,170,163,106,81],"timestamp_mouse":[12,35,52,73,92,111,131,152,171,192,211,232,251,271,293,312,332,352,371,393,412,431,452,471,492,512,532,552,572,592,611,631,651,672,692,712,731,751,771,791,813,832,851,871,892,912,932,951,973,992,1011,1032,1052,1072,1093,1112,1132,1153,1171,1192,1212,1232,1253,1271,1292,1313,1332,1352,1372,1393,1411,1431,1452,1471,1492,1512,1532,1551,1571,1591,1613,1632,1651,1671,1691,1711,1733,1751,1771,1792,1811,1832,1851,1871,1892,1911,1931,1951,1971,1991,2012,2033,2052,2072],"xSR":733.5,"ySR":461.5,"xT1":420.09999999999997,"yT1":0,"xT2":1046.8999999999999,"yT2":0,"toosoon":0,"cond_shown":"Congruent","ratio_trial":100,"L_num":11,"L_den":22,"R_num":4,"R_den":10,"correct_side":1,"subjID":"FernandaAguirreRodriguez39","gender":"1","school":"6","age":"11"},{"start_time":1551794005939,"click_time":1551794007976,"finger_time":1551794007516,"fix_duration":722.147138658984,"trial":11,"RT":1577,"MT":460,"sideResp":1,"stimulus":[],"xmouse":[750,750,750,750,750,750,750,750,750,750,750,750,750,750,750,750,750,750,750,750,750,750,750,750,750,750,750,750,750,750,750,750,750,750,750,750,750,750,750,750,750,750,750,750,750,750,750,750,750,750,750,750,750,750,750,750,750,750,750,750,750,750,750,750,750,750,750,750,750,750,750,750,750,750,750,748,746,738,712,698,683,662,625,609,599,590,580,572,558,554,548,542,524,517,508,497,482,451,445,442,437,433],"ymouse":[516,516,516,516,516,516,516,516,516,516,516,516,516,516,516,516,516,516,516,516,516,516,516,516,516,516,516,516,516,516,516,516,516,516,516,516,516,516,516,516,516,516,516,516,516,516,516,516,516,516,516,516,516,516,516,516,516,516,516,516,516,516,516,516,516,516,516,516,516,516,516,516,516,516,516,512,508,496,455,429,401,364,308,285,268,256,243,232,211,205,199,193,180,176,169,163,155,138,128,118,107,99],"timestamp_mouse":[16,36,56,77,97,117,137,156,176,197,218,236,257,276,297,316,337,356,377,397,416,436,457,477,496,516,536,556,577,596,616,637,658,676,696,716,737,757,777,797,816,836,856,877,896,918,937,957,977,997,1016,1036,1057,1076,1098,1117,1137,1157,1177,1196,1217,1236,1257,1278,1297,1317,1336,1357,1378,1396,1416,1438,1457,1478,1496,1516,1537,1556,1577,1596,1616,1637,1657,1676,1696,1716,1736,1756,1777,1797,1817,1836,1857,1876,1897,1916,1936,1958,1976,1996,2017,2037],"xSR":733.5,"ySR":461.5,"xT1":420.09999999999997,"yT1":0,"xT2":1046.8999999999999,"yT2":0,"toosoon":0,"cond_shown":"Incongruent","ratio_trial":200,"L_num":7,"L_den":10,"R_num":8,"R_den":16,"correct_side":1,"subjID":"FernandaAguirreRodriguez39","gender":"1","school":"6","age":"11"},{"start_time":1551794011828,"click_time":1551794014635,"finger_time":1551794013335,"fix_duration":590.193954712945,"trial":12,"RT":1507,"MT":1300,"sideResp":2,"stimulus":[],"xmouse":[742,742,742,742,742,742,742,742,742,742,742,742,742,742,742,742,742,742,742,742,742,742,742,742,742,742,742,742,742,742,742,742,742,742,742,742,742,742,742,742,742,742,742,742,742,742,742,742,742,742,742,742,742,742,742,742,742,742,742,742,742,742,742,742,742,742,742,742,742,742,742,742,742,742,742,739,731,726,725,725,725,725,725,725,725,725,725,725,725,725,725,725,725,725,725,725,725,725,725,725,725,728,762,868,897,917,934,955,1003,1015,1020,1024,1033,1049,1089,1098,1103,1108,1125,1137,1155,1176,1191,1194,1191,1190,1189,1189,1187,1178,1169,1158,1144,1113,1111,1111,1111,1111,1111,1106,1098],"ymouse":[465,465,465,465,465,465,465,465,465,465,465,465,465,465,465,465,465,465,465,465,465,465,465,465,465,465,465,465,465,465,465,465,465,465,465,465,465,465,465,465,465,465,465,465,465,465,465,465,465,465,465,465,465,465,465,465,465,465,465,465,465,465,465,465,465,465,465,465,465,465,465,465,465,465,463,455,447,444,444,444,444,444,444,444,444,444,444,444,444,444,444,444,444,444,444,444,444,444,444,444,443,441,432,419,413,410,406,400,386,384,382,380,374,365,329,311,289,261,209,184,159,133,114,99,99,99,99,99,99,100,101,104,106,108,108,108,108,108,108,106,94],"timestamp_mouse":[8,28,48,68,88,107,128,148,167,187,207,227,248,267,288,308,328,348,368,387,407,427,447,469,487,507,528,547,569,587,607,627,648,668,687,708,727,747,768,788,808,827,848,868,887,907,927,947,969,987,1007,1028,1049,1067,1087,1108,1127,1147,1168,1187,1208,1228,1247,1267,1288,1309,1328,1347,1368,1389,1407,1428,1447,1467,1488,1507,1527,1548,1568,1588,1608,1627,1648,1668,1687,1708,1727,1748,1768,1787,1808,1827,1848,1868,1887,1907,1927,1947,1968,1988,2008,2028,2047,2068,2087,2107,2127,2147,2168,2187,2207,2228,2247,2267,2289,2307,2328,2347,2368,2387,2407,2428,2447,2468,2487,2507,2529,2548,2567,2587,2607,2628,2648,2668,2687,2708,2728,2747,2768,2787,2807],"xSR":733.5,"ySR":461.5,"xT1":420.09999999999997,"yT1":0,"xT2":1046.8999999999999,"yT2":0,"toosoon":0,"cond_shown":"Congruent","ratio_trial":300,"L_num":3,"L_den":6,"R_num":4,"R_den":5,"correct_side":2,"subjID":"FernandaAguirreRodriguez39","gender":"1","school":"6","age":"11"},{"start_time":1551794016700,"click_time":1551794018136,"finger_time":1551794017535,"fix_duration":743.9185074600016,"trial":13,"RT":835,"MT":601,"sideResp":2,"stimulus":[],"xmouse":[807,807,807,807,807,807,807,807,807,807,807,807,807,807,807,807,807,807,807,807,807,807,807,807,807,807,807,807,807,807,807,807,807,807,807,807,807,807,807,807,822,839,862,886,923,936,948,964,981,997,1044,1058,1069,1080,1098,1110,1125,1143,1163,1198,1203,1207,1209,1211,1211,1210,1201,1193,1182,1168,1152,1145],"ymouse":[487,487,487,487,487,487,487,487,487,487,487,487,487,487,487,487,487,487,487,487,487,487,487,487,487,487,487,487,487,487,487,487,487,487,487,487,487,487,487,485,475,468,461,454,436,429,421,413,403,391,357,343,331,315,284,264,238,207,170,94,78,66,60,59,59,61,67,73,81,88,94,95],"timestamp_mouse":[16,35,56,76,95,116,135,155,176,195,215,236,255,276,295,316,337,356,376,396,415,435,456,475,495,516,535,556,575,595,616,635,655,675,696,715,735,755,775,795,816,835,855,875,896,915,942,956,975,996,1015,1035,1056,1076,1096,1115,1136,1156,1176,1196,1215,1236,1255,1275,1296,1315,1336,1355,1376,1395,1415,1436],"xSR":733.5,"ySR":461.5,"xT1":420.09999999999997,"yT1":0,"xT2":1046.8999999999999,"yT2":0,"toosoon":0,"cond_shown":"Incongruent","ratio_trial":300,"L_num":4,"L_den":20,"R_num":2,"R_den":4,"correct_side":2,"subjID":"FernandaAguirreRodriguez39","gender":"1","school":"6","age":"11"},{"start_time":1551794020562,"click_time":1551794022115,"finger_time":1551794021615,"fix_duration":1344.6042532152815,"trial":14,"RT":1053,"MT":500,"sideResp":2,"stimulus":[],"xmouse":[800,800,800,800,800,800,800,799,798,798,798,798,798,798,798,798,798,798,798,798,798,798,798,798,798,798,798,798,798,798,798,798,798,798,798,798,798,798,798,798,798,798,798,798,798,798,798,802,808,814,822,833,861,873,887,907,930,939,948,953,957,964,970,977,982,992,1010,1014,1017,1020,1021,1026,1031,1039,1048,1056,1071,1082],"ymouse":[515,515,515,515,515,515,515,515,514,514,514,514,514,514,514,514,514,514,514,514,514,514,514,514,514,514,514,514,514,514,514,514,514,514,514,514,514,514,514,514,514,514,514,514,514,514,514,509,502,495,484,471,441,427,410,384,349,334,317,302,288,265,253,241,230,217,185,176,171,167,165,156,149,139,127,119,101,92],"timestamp_mouse":[14,34,61,75,94,113,133,155,175,194,213,234,253,273,293,313,333,354,373,394,414,433,454,474,493,514,534,554,575,595,614,634,653,673,694,714,734,754,773,794,813,834,855,873,894,915,933,953,973,993,1013,1033,1053,1073,1093,1114,1134,1153,1173,1193,1214,1235,1253,1275,1294,1313,1334,1353,1373,1394,1414,1434,1453,1473,1494,1513,1535,1553],"xSR":733.5,"ySR":461.5,"xT1":420.09999999999997,"yT1":0,"xT2":1046.8999999999999,"yT2":0,"toosoon":0,"cond_shown":"Incongruent","ratio_trial":100,"L_num":9,"L_den":10,"R_num":20,"R_den":25,"correct_side":1,"subjID":"FernandaAguirreRodriguez39","gender":"1","school":"6","age":"11"},{"start_time":1551794026461,"click_time":1551794028115,"finger_time":1551794028015,"fix_duration":822.650330082583,"trial":15,"RT":1554,"MT":100,"sideResp":1,"stimulus":[],"xmouse":[781,781,781,781,778,769,761,761,761,761,761,761,761,761,761,761,761,761,761,761,761,761,761,761,761,761,761,761,761,761,761,761,761,761,761,761,761,761,761,761,761,761,761,761,761,761,761,761,761,761,761,761,761,761,761,761,761,761,761,761,761,761,761,761,761,761,761,761,761,761,761,761,761,761,761,753,736,686,655,622,584,505,482],"ymouse":[528,528,528,528,530,533,533,533,533,533,533,533,533,533,533,533,533,533,533,533,533,533,533,533,533,533,533,533,533,533,533,533,533,533,533,533,533,533,533,533,533,533,533,533,533,533,533,533,533,533,533,533,533,533,533,533,533,533,533,533,533,533,533,533,533,533,533,533,533,533,533,533,533,532,521,504,473,385,325,266,209,103,80],"timestamp_mouse":[14,37,54,74,94,115,135,154,174,194,214,235,254,274,294,315,334,354,374,395,414,434,455,474,494,514,534,556,574,594,616,635,654,676,695,715,735,754,775,794,814,835,854,875,894,914,935,954,974,994,1015,1036,1054,1074,1094,1115,1134,1154,1175,1196,1215,1235,1254,1274,1296,1314,1335,1356,1375,1394,1414,1435,1456,1474,1495,1514,1534,1554,1574,1594,1614,1635,1654],"xSR":733.5,"ySR":461.5,"xT1":420.09999999999997,"yT1":0,"xT2":1046.8999999999999,"yT2":0,"toosoon":0,"cond_shown":"Incongruent","ratio_trial":200,"L_num":3,"L_den":4,"R_num":11,"R_den":20,"correct_side":1,"subjID":"FernandaAguirreRodriguez39","gender":"1","school":"6","age":"11"},{"start_time":1551794030525,"click_time":1551794032415,"finger_time":1551794032075,"fix_duration":1028.680761280252,"trial":16,"RT":1550,"MT":340,"sideResp":2,"stimulus":[],"xmouse":[782,782,782,782,782,782,782,782,782,782,782,782,782,782,782,782,782,782,782,782,782,782,782,782,782,782,782,782,782,782,782,782,782,782,782,782,782,782,782,782,782,782,782,782,782,782,782,782,782,782,782,782,782,782,782,782,782,782,782,782,782,782,782,782,782,782,782,782,782,781,787,791,795,799,801,803,806,812,826,851,862,874,886,895,918,931,942,959,976,1019,1034,1051,1069,1105,1123],"ymouse":[507,507,507,507,507,507,507,507,507,507,507,507,507,507,507,507,507,507,507,507,507,507,507,507,507,507,507,507,507,507,507,507,507,507,507,507,507,507,507,507,507,507,507,507,507,507,507,507,507,507,507,507,507,507,507,507,507,507,507,507,507,507,507,507,507,507,507,507,507,505,498,494,490,484,479,475,467,455,433,397,378,357,336,316,277,259,245,226,207,174,164,150,134,101,84],"timestamp_mouse":[10,35,50,71,91,111,131,150,171,190,211,230,251,272,291,311,330,352,371,390,411,431,451,470,490,511,530,550,571,590,612,632,651,670,690,711,731,750,770,791,811,830,850,871,892,911,930,952,971,990,1010,1030,1050,1070,1090,1111,1130,1152,1171,1190,1212,1231,1251,1271,1291,1312,1330,1350,1372,1392,1410,1431,1450,1471,1490,1512,1530,1550,1570,1590,1611,1632,1650,1671,1690,1710,1730,1750,1770,1790,1810,1830,1850,1872,1890],"xSR":733.5,"ySR":461.5,"xT1":420.09999999999997,"yT1":0,"xT2":1046.8999999999999,"yT2":0,"toosoon":0,"cond_shown":"Incongruent","ratio_trial":100,"L_num":12,"L_den":24,"R_num":9,"R_den":15,"correct_side":2,"subjID":"FernandaAguirreRodriguez39","gender":"1","school":"6","age":"11"},{"start_time":1551794034797,"click_time":1551794043397,"finger_time":1551794036296,"fix_duration":1341.658075617665,"trial":17,"RT":1499,"MT":7101,"sideResp":2,"stimulus":[],"xmouse":[758,759,760,760,760,760,760,760,760,760,760,760,760,760,760,760,760,760,760,760,760,760,760,760,760,760,760,760,760,760,760,760,760,760,760,760,760,760,760,760,760,760,760,760,760,760,760,760,760,760,760,760,760,760,760,760,760,760,760,760,760,760,760,760,760,760,760,761,762,762,759,756,751,743,738,713,700,682,661,602,568,538,519,507,501,501,501,501,501,501,501,501,501,502,511,541,559,579,600,619,652,664,671,677,684,686,688,692,695,707,714,722,730,739,749,775,789,805,824,845,902,923,936,944,950,957,957,957,957,957,957,956,953,938,918,850,799,757,722,658,618,569,518,487,480,495,513,531,548,572,579,588,601,623,648,757,777,784,782,745,703,650,611,588,582,634,739,880,1031,1232,1271,1278,1276,1254,1019,887,760,657,586,545,525,525,538,572,682,856,927,963,974,974,908,810,690,544,517,498,515,550,599,665,674,674,664,640,551,528,523,523,536,644,722,788,824,838,818,760,674,579,495,446,433,438,475,577,807,1093,1182,1220,1225,1225,1202,1165,1103,1017,763,660,579,538,529,544,609,710,834,958,1192,1223,1227,1228,1226,1197,1006,852,687,511,375,257,257,272,325,401,602,707,799,869,927,938,938,932,906,751,624,499,399,350,345,436,546,671,798,914,1047,1068,1075,1075,1075,1041,980,888,762,634,444,431,434,501,922,1102,1248,1328,1344,1336,1290,1200,1089,896,788,678,673,674,691,726,843,880,902,907,907,797,694,610,576,574,643,727,819,954,987,1049,1049,1040,1012,947,716,588,414,374,306,296,296,305,327,432,508,595,685,814,856,973,981,982,981,955,928,900,876,861,883,928,993,1067,1130,1182,1182,1182,1170,1124,988,752,642,537,436,349,258,250,250,252,304,335,370,393,408,427,442,462,489,545,673,760,852,955,1042,1111,1174,1185,1189,1192,1195,1195,1195,1195,1194,1193,1193,1193,1193,1193,1193,1193,1193,1193,1193,1189,1185,1179,1176,1171,1155,1143,1128,1112,1094,1081,1057,1050,1045,1043,1043,1043,1043,1043,1044,1050],"ymouse":[506,506,505,505,505,505,505,505,505,505,505,505,505,505,505,505,505,505,505,505,505,505,505,505,505,505,505,505,505,505,505,505,505,505,505,505,505,505,505,505,505,505,505,505,505,505,505,505,505,505,505,505,505,505,505,505,505,505,505,505,505,505,505,505,505,505,505,503,502,499,488,482,474,466,461,439,427,411,393,342,314,288,271,260,253,252,252,252,252,252,252,252,252,253,260,282,296,309,320,331,347,352,356,360,366,369,371,373,374,374,374,374,374,374,371,358,347,335,321,304,258,240,226,214,205,194,193,192,192,192,192,194,199,217,235,272,293,303,305,301,286,262,232,208,176,169,165,164,164,180,195,217,243,272,291,308,308,305,300,283,274,264,257,257,257,266,279,300,319,354,363,366,366,366,336,317,298,283,274,267,265,265,265,270,286,310,320,327,332,332,340,340,337,322,317,313,311,311,311,311,313,313,315,317,317,314,313,312,311,301,301,301,301,303,309,310,310,310,310,310,308,308,308,308,328,362,375,380,381,381,382,382,382,375,339,323,312,307,305,306,316,329,346,362,394,400,400,401,401,401,396,374,344,315,295,274,274,274,274,284,313,323,336,344,354,356,356,359,360,359,338,320,306,299,298,298,309,327,346,362,379,381,381,381,381,381,372,357,332,310,281,279,279,279,320,340,361,368,368,367,359,345,332,307,293,283,282,282,282,282,282,285,289,290,290,293,280,267,262,262,262,262,262,262,262,272,272,272,272,272,265,247,221,213,203,202,202,202,202,210,220,233,246,265,272,288,290,290,292,295,295,293,285,279,269,262,262,275,294,318,319,319,320,320,306,272,258,248,244,244,244,244,244,244,244,244,244,247,251,260,264,267,270,287,315,326,326,326,328,330,330,328,324,320,308,306,304,303,302,302,302,302,302,302,302,302,302,302,302,295,285,273,263,253,218,198,180,161,144,133,113,106,102,99,96,96,96,95,95,94],"timestamp_mouse":[28,39,58,79,100,119,138,159,179,199,219,238,258,279,298,318,338,359,379,398,420,439,458,479,498,518,538,559,580,598,618,638,660,679,698,718,738,760,779,799,819,838,859,879,899,919,940,959,978,998,1018,1039,1060,1079,1099,1118,1139,1160,1179,1199,1219,1239,1258,1278,1299,1319,1339,1359,1379,1398,1418,1439,1459,1478,1499,1520,1538,1558,1579,1599,1618,1638,1658,1678,1699,1719,1738,1759,1779,1799,1818,1839,1859,1878,1898,1918,1939,1958,1979,1998,2018,2038,2059,2078,2099,2118,2138,2158,2178,2199,2218,2238,2259,2278,2299,2318,2338,2359,2379,2398,2418,2438,2459,2478,2498,2520,2539,2559,2578,2599,2618,2639,2658,2679,2698,2718,2738,2758,2778,2799,2818,2839,2859,2878,2900,2918,2938,2959,2978,3000,3018,3038,3058,3078,3098,3118,3138,3159,3178,3199,3218,3238,3259,3278,3298,3318,3338,3360,3378,3399,3418,3439,3459,3478,3500,3518,3538,3559,3578,3599,3618,3638,3658,3680,3700,3718,3738,3759,3778,3798,3818,3839,3858,3878,3900,3919,3938,3959,3978,3998,4018,4038,4059,4078,4099,4118,4138,4158,4178,4199,4218,4238,4258,4279,4299,4318,4338,4359,4379,4398,4418,4438,4459,4479,4498,4518,4538,4559,4579,4598,4618,4638,4659,4679,4700,4718,4739,4759,4778,4799,4818,4838,4858,4879,4899,4918,4938,4959,4978,4999,5018,5038,5058,5078,5098,5118,5138,5158,5179,5198,5218,5238,5258,5278,5299,5320,5338,5358,5378,5399,5418,5439,5459,5478,5498,5518,5538,5559,5578,5599,5618,5639,5660,5679,5698,5719,5743,5759,5779,5798,5820,5839,5858,5878,5900,5918,5939,5958,5979,5999,6018,6038,6059,6078,6098,6118,6139,6159,6179,6198,6218,6238,6258,6278,6298,6319,6338,6358,6379,6398,6418,6439,6459,6478,6499,6518,6538,6559,6578,6598,6618,6638,6658,6679,6698,6719,6738,6758,6779,6798,6818,6839,6859,6879,6899,6919,6938,6958,6979,6999,7018,7038,7059,7078,7099,7118,7138,7159,7178,7200,7218,7238,7259,7279,7298,7318,7338,7360,7379,7398,7418,7438,7458,7479,7499,7518,7538,7560,7579,7599,7618,7638,7659,7679,7700,7718,7738,7759,7778,7798,7818,7840,7858,7879,7899,7919,7938,7958,7979,8000,8018,8039,8059,8079,8099,8120,8138,8158,8178,8200,8218,8239,8258,8280,8299,8318,8338,8358,8378,8399,8418,8438,8458,8478,8500,8518,8538,8559,8579,8600],"xSR":733.5,"ySR":461.5,"xT1":420.09999999999997,"yT1":0,"xT2":1046.8999999999999,"yT2":0,"toosoon":0,"cond_shown":"Congruent","ratio_trial":200,"L_num":9,"L_den":20,"R_num":4,"R_den":16,"correct_side":1,"subjID":"FernandaAguirreRodriguez39","gender":"1","school":"6","age":"11"},{"start_time":1551794046848,"click_time":1551794048415,"finger_time":1551794046976,"fix_duration":1232.260215016659,"trial":18,"RT":128,"MT":1439,"sideResp":2,"stimulus":[],"xmouse":[784,784,784,784,783,783,783,783,783,783,783,783,783,783,784,784,784,784,784,784,784,784,784,784,785,786,787,789,789,790,790,790,790,790,790,793,796,801,815,824,834,845,864,896,915,932,946,974,984,993,1005,1022,1066,1081,1094,1105,1112,1117,1119,1119,1119,1119,1119,1119,1119,1119,1119,1116,1113,1110,1109,1107,1107,1101,1093,1084,1076,1068,1058],"ymouse":[504,498,487,480,468,463,461,458,458,458,458,458,458,458,458,458,458,458,458,458,458,458,458,462,465,469,474,485,491,496,498,499,499,499,499,498,494,484,462,446,432,419,399,374,360,349,341,325,317,311,303,292,255,239,222,207,195,184,181,181,181,181,181,178,173,167,158,138,124,112,104,100,100,100,102,103,103,103,97],"timestamp_mouse":[7,27,47,67,87,107,128,148,167,187,209,227,248,268,287,308,327,348,367,388,408,428,447,468,488,508,528,548,567,587,607,628,648,667,687,709,728,747,767,788,807,828,847,867,887,908,928,948,967,987,1008,1027,1049,1067,1087,1107,1128,1148,1167,1187,1209,1228,1247,1268,1287,1307,1328,1348,1367,1387,1408,1427,1447,1469,1487,1508,1527,1547,1567],"xSR":733.5,"ySR":461.5,"xT1":420.09999999999997,"yT1":0,"xT2":1046.8999999999999,"yT2":0,"toosoon":0,"cond_shown":"Congruent","ratio_trial":300,"L_num":5,"L_den":25,"R_num":6,"R_den":12,"correct_side":2,"subjID":"FernandaAguirreRodriguez39","gender":"1","school":"6","age":"11"},{"start_time":1551794050200,"click_time":1551794051475,"finger_time":1551794051015,"fix_duration":463.7282743874329,"trial":19,"RT":815,"MT":460,"sideResp":2,"stimulus":[],"xmouse":[804,804,804,804,804,804,804,804,804,804,804,804,804,804,804,804,804,804,804,804,804,804,804,804,804,804,804,804,804,804,804,805,805,805,805,805,806,807,809,809,827,845,864,881,905,923,931,936,939,942,948,952,955,958,961,968,975,981,988,996,1010,1024,1044,1108],"ymouse":[499,499,499,499,499,499,499,499,499,499,499,499,499,499,499,499,499,499,499,499,499,499,499,499,499,499,499,499,499,499,499,499,499,499,499,499,499,499,497,496,454,412,371,337,302,277,267,262,258,255,245,237,231,225,215,197,186,177,168,158,137,124,109,68],"timestamp_mouse":[15,35,55,75,96,115,135,156,176,195,217,235,255,276,296,316,336,357,375,397,415,435,456,475,495,516,535,556,576,595,615,635,655,675,695,716,735,755,775,795,815,835,855,876,896,915,935,955,975,995,1015,1037,1055,1075,1095,1115,1135,1156,1175,1195,1215,1236,1256,1275],"xSR":733.5,"ySR":461.5,"xT1":420.09999999999997,"yT1":0,"xT2":1046.8999999999999,"yT2":0,"toosoon":0,"cond_shown":"Congruent","ratio_trial":200,"L_num":5,"L_den":10,"R_num":14,"R_den":20,"correct_side":2,"subjID":"FernandaAguirreRodriguez39","gender":"1","school":"6","age":"11"},{"start_time":1551794056931,"click_time":1551794058778,"finger_time":1551794058357,"fix_duration":1434.7967736582812,"trial":20,"RT":1426,"MT":421,"sideResp":2,"stimulus":[],"xmouse":[770,770,770,770,770,770,770,770,770,770,770,770,770,770,770,770,770,769,768,768,768,768,768,768,768,768,768,768,768,768,768,768,768,768,768,768,768,768,768,768,768,768,768,768,768,768,768,768,768,768,768,768,768,768,768,768,768,768,768,768,768,768,768,768,768,768,768,768,771,776,778,779,779,783,792,813,842,875,944,961,961,961,961,961,961,961,961,961,961,961,961,961,1047],"ymouse":[513,513,513,513,513,513,513,513,513,513,513,513,513,513,513,514,515,515,515,515,515,515,515,515,515,515,515,515,515,515,515,515,515,515,515,515,515,515,515,515,515,515,515,515,515,515,515,515,515,515,515,515,515,515,515,515,515,515,515,515,515,515,515,515,515,515,515,514,502,482,466,446,423,374,338,288,228,172,41,7,7,7,7,7,7,7,7,7,7,7,7,7,3],"timestamp_mouse":[8,30,45,64,84,104,124,145,164,184,204,226,245,264,284,304,324,344,365,384,404,425,445,465,484,504,525,544,565,584,604,624,645,664,685,704,724,746,764,784,805,824,845,864,884,904,926,945,964,985,1004,1027,1048,1066,1087,1108,1128,1146,1166,1188,1206,1228,1246,1266,1286,1308,1326,1346,1367,1387,1406,1426,1446,1467,1486,1506,1527,1546,1567,1587,1606,1626,1646,1668,1686,1707,1727,1748,1766,1787,1807,1827,1847],"xSR":733.5,"ySR":461.5,"xT1":420.09999999999997,"yT1":0,"xT2":1046.8999999999999,"yT2":0,"toosoon":0,"cond_shown":"Incongruent","ratio_trial":100,"L_num":9,"L_den":15,"R_num":14,"R_den":28,"correct_side":1,"subjID":"FernandaAguirreRodriguez39","gender":"1","school":"6","age":"11"},{"start_time":1551794062820,"click_time":1551794064337,"finger_time":1551794064258,"fix_duration":1441.1079722804495,"trial":21,"RT":1438,"MT":79,"sideResp":2,"stimulus":[],"xmouse":[752,752,752,752,752,752,752,752,752,752,752,752,752,752,752,752,752,752,752,752,752,752,752,752,752,752,752,752,752,752,752,752,752,752,752,752,752,752,752,752,752,752,752,752,752,752,752,752,752,752,752,752,752,752,752,752,752,752,752,752,752,752,752,752,752,752,752,754,771,785,810,847,886,1032,1093,1145],"ymouse":[547,547,548,548,548,548,548,548,548,548,548,549,549,549,549,549,549,549,549,549,549,549,549,549,549,549,549,549,549,549,549,549,549,549,549,549,549,549,549,549,549,549,549,549,549,549,549,549,549,549,549,549,549,549,549,549,549,549,549,549,549,549,549,549,549,549,549,546,525,505,476,431,385,217,145,71],"timestamp_mouse":[18,37,57,79,98,117,137,157,178,197,217,238,257,277,297,319,337,358,379,398,419,438,458,478,498,517,537,557,578,597,618,638,657,679,698,719,738,758,778,799,818,837,858,879,897,918,939,957,978,998,1019,1037,1057,1079,1097,1118,1137,1159,1179,1198,1218,1238,1258,1279,1299,1317,1337,1357,1378,1397,1417,1438,1457,1478,1497,1517],"xSR":733.5,"ySR":461.5,"xT1":420.09999999999997,"yT1":0,"xT2":1046.8999999999999,"yT2":0,"toosoon":0,"cond_shown":"Congruent","ratio_trial":300,"L_num":4,"L_den":20,"R_num":13,"R_den":26,"correct_side":2,"subjID":"FernandaAguirreRodriguez39","gender":"1","school":"6","age":"11"},{"start_time":1551794067692,"click_time":1551794068759,"finger_time":1551794067737,"fix_duration":1292.2650133391423,"trial":22,"RT":45,"MT":1022,"sideResp":1,"stimulus":[],"xmouse":[789,784,784,784,784,784,784,784,784,784,784,784,784,784,784,784,785,785,785,785,785,785,785,785,784,783,781,779,776,770,769,769,769,769,769,769,769,768,767,765,740,723,698,672,641,573,536,503,477,443,439,439,439],"ymouse":[536,562,569,571,572,572,572,572,572,572,570,566,562,559,557,555,554,553,551,550,549,548,548,547,543,542,538,535,532,522,521,520,519,519,519,519,519,517,515,513,476,456,427,395,360,284,245,210,180,129,115,104,94],"timestamp_mouse":[27,45,66,87,105,126,145,165,187,207,227,245,266,287,305,326,347,366,385,405,426,446,466,485,506,525,547,566,586,606,626,645,666,685,706,726,747,765,786,805,827,845,865,886,906,925,945,965,985,1008,1025,1045,1067],"xSR":733.5,"ySR":461.5,"xT1":420.09999999999997,"yT1":0,"xT2":1046.8999999999999,"yT2":0,"toosoon":0,"cond_shown":"Incongruent","ratio_trial":300,"L_num":8,"L_den":10,"R_num":14,"R_den":28,"correct_side":1,"subjID":"FernandaAguirreRodriguez39","gender":"1","school":"6","age":"11"},{"start_time":1551794069826,"click_time":1551794071999,"finger_time":1551794071439,"fix_duration":306.2340821341558,"trial":23,"RT":1613,"MT":560,"sideResp":1,"stimulus":[],"xmouse":[784,784,784,784,784,784,784,784,784,784,784,784,784,784,784,784,784,784,784,784,784,784,784,784,784,784,784,784,784,784,784,784,784,784,784,784,784,784,784,784,784,784,784,784,784,784,784,784,784,784,784,784,784,784,784,784,784,784,784,784,784,784,784,784,784,784,784,784,784,784,784,784,784,784,784,784,783,775,752,737,719,697,675,631,616,603,592,582,561,551,543,534,527,521,508,502,495,485,464,460,460,460,460,460,460,459,459,461,468],"ymouse":[524,524,524,524,524,524,524,524,524,524,524,524,524,524,524,524,524,524,524,524,524,524,524,524,524,524,524,524,524,524,524,524,524,524,524,524,524,524,524,524,524,524,524,524,524,524,524,524,524,524,524,524,524,524,524,524,524,524,524,524,524,524,524,524,524,524,524,524,524,524,524,524,524,524,524,524,522,518,507,498,486,473,458,420,403,383,361,337,289,265,241,216,193,172,136,126,122,120,117,117,117,117,117,117,117,115,111,106,88],"timestamp_mouse":[13,33,53,72,93,112,131,153,171,191,211,232,251,271,292,313,332,352,371,393,412,432,451,473,492,511,532,553,572,592,612,633,651,672,692,713,732,752,772,791,812,832,852,871,891,913,932,952,972,992,1011,1031,1051,1072,1092,1112,1133,1152,1172,1192,1211,1232,1252,1272,1293,1311,1332,1352,1371,1393,1412,1431,1453,1472,1491,1511,1532,1552,1572,1591,1612,1631,1651,1672,1691,1712,1731,1751,1772,1791,1811,1831,1852,1873,1892,1911,1931,1951,1972,1991,2012,2031,2051,2073,2092,2112,2132,2152,2173],"xSR":733.5,"ySR":461.5,"xT1":420.09999999999997,"yT1":0,"xT2":1046.8999999999999,"yT2":0,"toosoon":0,"cond_shown":"Incongruent","ratio_trial":200,"L_num":7,"L_den":10,"R_num":8,"R_den":16,"correct_side":1,"subjID":"FernandaAguirreRodriguez39","gender":"1","school":"6","age":"11"},{"start_time":1551794075938,"click_time":1551794078637,"finger_time":1551794077778,"fix_duration":1299.3663323854148,"trial":24,"RT":1840,"MT":859,"sideResp":1,"stimulus":[],"xmouse":[759,759,758,758,758,758,758,758,758,758,757,757,757,757,757,757,757,757,757,757,757,757,757,757,757,757,757,757,757,757,757,757,757,757,757,757,757,757,757,757,757,757,757,757,757,757,757,757,753,749,746,744,744,744,744,744,744,744,744,744,744,744,744,744,744,744,744,744,744,744,744,744,744,744,744,744,744,744,744,744,744,744,744,744,744,744,744,744,744,742,736,727,692,661,617,568,511,391,391,391,391,391,391,391,391,391,391,391,391,391,391,61,85,119,133,145,154,162,177,196,223,259,339,382,416,442,463,483,491,491,491,491,490,467,445],"ymouse":[522,522,522,522,522,522,522,522,522,522,522,522,522,522,522,522,522,522,522,522,522,522,522,522,522,522,522,522,522,522,522,522,522,522,522,522,522,522,522,522,522,522,522,522,522,522,522,522,527,533,536,539,539,539,539,539,539,539,539,539,539,539,539,539,539,539,538,537,531,529,528,528,528,528,528,528,528,528,528,528,528,527,527,526,526,526,526,525,523,519,511,500,453,416,360,294,208,2,2,2,2,2,2,2,2,2,2,2,2,2,2,42,82,140,162,174,180,180,178,170,165,161,160,154,149,141,133,122,116,116,116,115,115,105,96],"timestamp_mouse":[27,39,60,79,101,120,139,161,179,199,220,239,259,279,299,321,340,359,379,400,419,439,460,480,499,521,539,559,580,601,619,639,660,680,700,720,739,760,780,799,820,841,859,880,900,919,940,959,981,999,1020,1039,1060,1079,1100,1119,1140,1159,1179,1200,1220,1240,1260,1281,1299,1321,1340,1359,1381,1399,1420,1440,1459,1479,1499,1519,1539,1559,1581,1601,1620,1641,1660,1680,1699,1720,1740,1759,1779,1799,1819,1840,1861,1879,1900,1920,1939,1961,1979,1999,2020,2040,2060,2079,2100,2120,2140,2160,2180,2200,2220,2240,2259,2279,2299,2320,2340,2360,2381,2399,2421,2440,2460,2479,2500,2520,2540,2561,2580,2600,2620,2640,2659,2681,2699],"xSR":733.5,"ySR":461.5,"xT1":420.09999999999997,"yT1":0,"xT2":1046.8999999999999,"yT2":0,"toosoon":0,"cond_shown":"Incongruent","ratio_trial":200,"L_num":3,"L_den":4,"R_num":11,"R_den":20,"correct_side":1,"subjID":"FernandaAguirreRodriguez39","gender":"1","school":"6","age":"11"},{"start_time":1551794081290,"click_time":1551794082758,"finger_time":1551794082678,"fix_duration":250,"trial":25,"RT":1388,"MT":80,"sideResp":1,"stimulus":[],"xmouse":[786,786,786,786,786,786,786,786,785,785,785,786,786,786,786,786,786,786,786,786,786,786,786,786,786,786,786,786,786,786,786,786,786,786,786,786,786,786,786,786,786,786,786,786,786,786,786,786,786,786,786,786,786,786,786,786,786,786,786,786,786,786,786,786,786,786,786,782,771,751,641,583,518,458],"ymouse":[536,536,536,536,536,536,536,536,537,537,537,538,538,538,538,538,538,538,538,538,538,538,538,538,538,538,538,538,538,538,538,538,538,538,538,538,538,538,538,538,538,538,538,538,538,538,538,538,538,538,538,538,538,538,538,538,538,538,538,538,538,538,538,538,538,538,537,520,496,457,299,230,162,92],"timestamp_mouse":[12,36,48,67,87,108,127,147,168,189,207,228,247,267,287,309,327,349,369,389,408,427,448,468,488,507,527,549,568,588,608,627,647,667,688,708,729,747,768,788,808,829,849,868,889,908,928,948,968,989,1007,1027,1049,1067,1087,1108,1128,1149,1168,1187,1207,1228,1247,1267,1289,1308,1327,1349,1367,1388,1408,1428,1447,1468],"xSR":733.5,"ySR":461.5,"xT1":420.09999999999997,"yT1":0,"xT2":1046.8999999999999,"yT2":0,"toosoon":0,"cond_shown":"Incongruent","ratio_trial":200,"L_num":7,"L_den":10,"R_num":8,"R_den":16,"correct_side":1,"subjID":"FernandaAguirreRodriguez39","gender":"1","school":"6","age":"11"},{"start_time":1551794085271,"click_time":1551794087377,"finger_time":1551794086737,"fix_duration":1272.5656699648644,"trial":26,"RT":1466,"MT":640,"sideResp":2,"stimulus":[],"xmouse":[764,764,766,767,767,767,767,767,767,767,767,767,767,767,767,767,767,767,767,767,767,767,767,767,767,767,767,767,767,767,767,767,767,767,767,767,767,767,767,767,767,767,767,767,767,767,767,767,767,767,767,767,767,767,767,767,767,767,767,767,767,767,767,767,767,767,767,767,767,767,765,750,739,728,714,702,695,695,695,695,695,695,695,695,695,695,695,695,695,695,695,695,695,695,698,711,762,799,835,882,962,1061,1098,1122,1134,1140],"ymouse":[511,514,522,523,523,523,523,523,523,523,523,523,523,523,523,523,523,523,523,523,523,523,523,523,523,523,523,523,523,523,523,523,523,523,523,523,523,523,523,523,523,523,523,523,523,523,523,523,523,523,523,523,523,523,523,523,523,523,523,523,523,523,523,523,523,523,523,523,521,520,515,491,475,461,450,442,436,436,436,436,436,436,436,436,436,435,433,427,425,425,425,425,425,424,421,412,386,364,338,304,249,176,146,122,108,98],"timestamp_mouse":[6,27,48,72,86,106,127,146,166,188,206,227,248,267,288,306,326,347,367,386,408,426,447,468,486,508,528,546,567,586,608,626,646,666,686,706,726,748,766,786,806,826,847,866,887,906,926,947,967,986,1006,1026,1046,1067,1087,1107,1127,1147,1167,1187,1207,1227,1247,1268,1288,1307,1326,1346,1368,1386,1407,1427,1447,1466,1487,1507,1527,1546,1567,1586,1607,1627,1646,1667,1687,1706,1726,1747,1766,1787,1806,1826,1846,1866,1887,1907,1926,1946,1967,1987,2007,2027,2046,2066,2087,2106],"xSR":733.5,"ySR":461.5,"xT1":420.09999999999997,"yT1":0,"xT2":1046.8999999999999,"yT2":0,"toosoon":0,"cond_shown":"Incongruent","ratio_trial":200,"L_num":3,"L_den":10,"R_num":1,"R_den":2,"correct_side":2,"subjID":"FernandaAguirreRodriguez39","gender":"1","school":"6","age":"11"},{"start_time":1551794089357,"click_time":1551794091298,"finger_time":1551794090758,"fix_duration":916.7769483439713,"trial":27,"RT":1401,"MT":540,"sideResp":2,"stimulus":[],"xmouse":[806,807,807,808,808,808,808,808,808,808,808,808,808,808,808,808,808,808,808,808,808,807,806,800,796,795,792,792,792,792,792,792,792,792,792,792,792,792,792,792,792,792,792,792,792,792,792,792,792,792,792,792,792,792,792,792,792,792,792,792,792,792,792,792,792,796,799,804,820,831,839,847,859,862,866,870,877,889,899,911,928,943,960,993,1007,1018,1024,1036,1038,1039,1039,1039,1039,1039,1039,1039,1042,1079],"ymouse":[499,500,500,500,497,496,494,494,494,494,494,494,494,494,494,494,494,494,494,494,494,494,494,497,498,499,500,500,500,500,499,497,496,496,496,496,496,496,496,495,493,492,491,491,491,491,491,491,491,491,491,491,491,491,491,491,491,491,491,491,491,491,491,491,491,489,487,484,472,462,454,442,419,410,402,388,363,321,296,270,241,217,191,135,109,84,68,42,39,38,38,38,38,38,38,38,38,45],"timestamp_mouse":[2,21,41,60,81,101,120,142,161,181,201,221,240,262,280,302,320,341,361,380,400,420,440,460,481,501,520,541,561,581,601,621,642,661,681,700,721,740,760,781,800,821,840,861,882,900,920,941,960,980,1001,1020,1041,1062,1080,1100,1121,1140,1160,1181,1201,1221,1240,1260,1282,1300,1320,1340,1362,1380,1401,1420,1441,1460,1480,1500,1520,1542,1560,1580,1602,1622,1641,1660,1681,1700,1720,1742,1760,1781,1801,1820,1841,1860,1882,1901,1921,1941],"xSR":733.5,"ySR":461.5,"xT1":420.09999999999997,"yT1":0,"xT2":1046.8999999999999,"yT2":0,"toosoon":0,"cond_shown":"Incongruent","ratio_trial":200,"L_num":4,"L_den":30,"R_num":1,"R_den":3,"correct_side":2,"subjID":"FernandaAguirreRodriguez39","gender":"1","school":"6","age":"11"},{"start_time":1551794093198,"click_time":1551794095119,"finger_time":1551794094757,"fix_duration":758.9007799035148,"trial":28,"RT":1559,"MT":362,"sideResp":1,"stimulus":[],"xmouse":[810,809,809,809,809,809,810,810,810,810,810,810,810,810,810,810,810,810,810,810,810,810,810,810,810,810,810,810,810,810,810,810,811,812,812,812,812,812,812,812,812,812,813,814,815,816,816,816,816,816,816,816,816,816,816,816,816,816,816,816,816,816,816,816,816,816,816,816,816,816,816,816,816,816,817,816,810,798,778,758,719,700,680,661,640,586,569,557,551,549,546,544,538,533,520,513,503],"ymouse":[490,494,494,494,495,495,495,495,495,495,495,495,495,495,495,495,495,495,495,495,495,495,495,495,495,495,495,495,495,495,495,495,495,495,495,495,495,495,495,495,495,495,495,494,494,494,494,494,494,494,494,494,494,494,494,494,494,494,494,494,494,494,494,494,494,494,494,494,494,494,494,494,494,494,493,485,479,469,455,440,403,380,356,337,316,280,268,258,251,241,215,199,181,161,132,118,96],"timestamp_mouse":[1,30,40,59,81,100,119,140,159,179,201,219,239,260,279,300,321,339,359,379,399,420,439,461,479,500,519,539,560,579,600,619,639,660,681,700,719,740,760,781,800,821,839,859,879,900,919,939,959,981,1001,1020,1040,1060,1080,1101,1119,1140,1159,1180,1201,1220,1239,1261,1279,1300,1320,1339,1360,1379,1400,1421,1441,1459,1480,1500,1520,1539,1559,1580,1600,1619,1639,1659,1679,1701,1719,1739,1759,1779,1800,1819,1839,1860,1879,1899,1921],"xSR":733.5,"ySR":461.5,"xT1":420.09999999999997,"yT1":0,"xT2":1046.8999999999999,"yT2":0,"toosoon":0,"cond_shown":"Congruent","ratio_trial":100,"L_num":2,"L_den":5,"R_num":11,"R_den":22,"correct_side":2,"subjID":"FernandaAguirreRodriguez39","gender":"1","school":"6","age":"11"},{"start_time":1551794099943,"click_time":1551794101677,"finger_time":1551794101358,"fix_duration":904.968654389941,"trial":29,"RT":1415,"MT":319,"sideResp":2,"stimulus":[],"xmouse":[764,764,764,765,766,767,768,768,768,768,768,768,770,770,770,770,770,770,770,770,770,770,770,770,770,770,770,770,770,770,770,770,770,770,770,770,770,770,770,770,770,770,770,770,770,770,770,770,770,770,770,770,770,770,770,770,770,770,770,770,770,770,770,770,770,771,773,783,794,804,813,820,834,842,850,861,872,905,919,936,956,971,1002,1019,1034,1050,1064],"ymouse":[520,520,520,520,519,519,518,518,518,518,518,518,517,517,517,517,517,517,517,517,517,517,517,517,517,517,517,517,517,517,517,517,517,517,517,517,517,517,517,517,517,517,517,517,517,517,517,517,517,517,517,517,517,517,517,517,517,517,517,517,517,517,517,517,516,514,507,487,474,463,451,442,427,417,405,390,376,336,316,296,270,249,198,167,143,114,90],"timestamp_mouse":[14,35,54,75,95,115,136,154,174,196,214,234,255,274,295,314,335,354,374,394,414,434,454,476,494,514,535,555,575,595,614,634,655,674,695,715,734,756,774,795,814,836,854,875,895,915,934,954,975,995,1014,1035,1055,1074,1096,1114,1135,1154,1176,1194,1215,1236,1255,1275,1295,1314,1335,1355,1374,1394,1415,1435,1455,1474,1495,1514,1534,1556,1575,1594,1614,1634,1655,1674,1694,1715,1734],"xSR":733.5,"ySR":461.5,"xT1":420.09999999999997,"yT1":0,"xT2":1046.8999999999999,"yT2":0,"toosoon":0,"cond_shown":"Incongruent","ratio_trial":100,"L_num":8,"L_den":20,"R_num":1,"R_den":2,"correct_side":2,"subjID":"FernandaAguirreRodriguez39","gender":"1","school":"6","age":"11"},{"start_time":1551794103545,"click_time":1551794105638,"finger_time":1551794104898,"fix_duration":765.4549954463449,"trial":30,"RT":1353,"MT":740,"sideResp":1,"stimulus":[],"xmouse":[804,804,804,804,804,804,804,804,804,804,804,804,804,804,804,804,804,804,804,804,804,804,804,804,804,804,804,804,804,804,804,804,804,804,804,804,804,804,804,804,804,804,804,804,804,804,804,804,804,804,804,804,804,804,804,804,804,804,804,804,804,804,804,804,804,804,804,804,798,788,775,754,707,692,681,675,672,669,665,658,640,619,568,545,525,512,503,499,498,495,492,488,485,484,484,484,484,482,482,482,482,482,482,482,482],"ymouse":[489,489,489,489,489,489,489,489,489,489,489,489,489,489,489,489,489,489,489,489,489,489,489,489,489,489,489,489,489,489,489,489,489,489,489,489,489,489,489,489,489,489,489,489,489,489,489,489,489,489,489,489,489,489,489,489,489,489,489,489,489,489,489,489,488,486,476,457,424,401,370,335,275,259,246,239,236,232,230,230,225,221,213,207,201,195,191,185,181,175,167,155,145,127,119,112,107,101,101,101,101,101,101,100,98],"timestamp_mouse":[13,32,54,72,92,114,132,153,172,192,212,234,254,272,292,312,333,352,373,392,413,432,452,473,494,512,532,553,573,592,613,633,652,672,694,714,732,753,772,794,813,833,852,874,893,913,934,952,974,992,1013,1032,1053,1072,1092,1114,1132,1152,1172,1193,1212,1233,1253,1274,1292,1312,1332,1353,1372,1392,1412,1433,1453,1472,1492,1512,1532,1552,1572,1592,1613,1633,1653,1672,1692,1713,1733,1753,1772,1792,1813,1833,1853,1872,1893,1912,1933,1953,1972,1994,2012,2032,2052,2073,2093],"xSR":733.5,"ySR":461.5,"xT1":420.09999999999997,"yT1":0,"xT2":1046.8999999999999,"yT2":0,"toosoon":0,"cond_shown":"Congruent","ratio_trial":200,"L_num":7,"L_den":21,"R_num":2,"R_den":15,"correct_side":1,"subjID":"FernandaAguirreRodriguez39","gender":"1","school":"6","age":"11"},{"start_time":1551794106830,"click_time":1551794108717,"finger_time":1551794108237,"fix_duration":250,"trial":31,"RT":1407,"MT":480,"sideResp":1,"stimulus":[],"xmouse":[769,769,769,769,769,769,772,776,796,801,801,801,801,799,788,785,785,785,785,785,785,785,785,785,785,785,785,785,785,785,785,785,785,785,785,785,785,785,785,785,785,785,785,785,785,785,784,784,785,786,786,786,786,786,786,786,786,786,786,786,786,786,786,786,786,786,786,786,781,775,763,743,713,674,564,540,528,523,520,519,518,516,514,513,513,513,513,515,516,516,516,515,512,505,500],"ymouse":[541,541,541,541,541,541,541,541,538,537,537,537,537,536,535,534,534,534,534,534,534,534,534,534,534,534,534,534,534,534,534,534,534,534,534,534,534,534,534,534,534,534,534,534,534,534,533,532,531,531,531,531,531,531,531,531,531,531,531,531,531,531,531,531,531,529,525,519,489,468,441,409,369,324,248,230,217,206,189,185,181,178,175,172,167,162,156,150,137,131,125,119,112,101,99],"timestamp_mouse":[9,27,47,69,87,109,127,148,168,188,208,229,247,268,288,307,328,348,367,388,407,427,447,468,487,508,527,548,568,588,609,627,647,669,687,709,727,747,768,788,809,828,849,867,889,907,929,948,968,989,1007,1027,1048,1067,1087,1107,1127,1148,1168,1187,1209,1227,1247,1267,1288,1307,1328,1347,1369,1387,1407,1428,1447,1467,1487,1507,1528,1547,1568,1587,1608,1628,1647,1667,1688,1707,1729,1748,1768,1787,1808,1827,1849,1868,1887],"xSR":733.5,"ySR":461.5,"xT1":420.09999999999997,"yT1":0,"xT2":1046.8999999999999,"yT2":0,"toosoon":0,"cond_shown":"Congruent","ratio_trial":200,"L_num":15,"L_den":25,"R_num":4,"R_den":10,"correct_side":1,"subjID":"FernandaAguirreRodriguez39","gender":"1","school":"6","age":"11"},{"start_time":1551794110006,"click_time":1551794111937,"finger_time":1551794111518,"fix_duration":267.7509275741243,"trial":32,"RT":1512,"MT":419,"sideResp":1,"stimulus":[],"xmouse":[761,761,761,761,761,761,761,761,761,761,761,761,761,761,761,761,761,761,761,761,761,761,761,761,761,761,761,761,761,761,761,761,761,761,761,761,761,761,761,761,761,761,761,761,761,761,762,762,763,763,763,763,763,763,763,763,763,763,763,764,764,764,764,764,764,765,765,765,765,765,765,765,765,765,765,760,753,745,728,709,665,647,633,624,619,617,616,612,607,587,577,562,544,526,477,460,448],"ymouse":[498,498,498,499,499,499,499,499,499,499,499,499,499,499,499,499,499,499,499,499,499,499,499,499,499,499,499,499,499,499,499,499,499,499,499,499,499,499,499,499,499,499,499,499,499,499,499,499,499,499,499,499,499,499,499,499,499,499,499,498,498,498,498,498,497,494,490,487,484,481,479,479,479,478,476,443,414,386,351,316,248,225,209,200,194,191,189,183,177,161,153,145,137,130,108,100,93],"timestamp_mouse":[12,42,51,72,91,112,131,152,171,191,211,233,252,272,292,312,332,352,371,392,412,432,452,471,491,512,533,551,571,592,612,631,653,671,692,712,733,751,771,791,811,832,852,871,892,912,932,951,972,991,1011,1031,1052,1072,1092,1112,1132,1151,1172,1192,1212,1233,1252,1273,1291,1312,1331,1352,1371,1392,1413,1431,1452,1471,1491,1512,1531,1552,1572,1592,1612,1633,1651,1672,1691,1711,1731,1751,1771,1792,1811,1831,1851,1872,1892,1911,1931],"xSR":733.5,"ySR":461.5,"xT1":420.09999999999997,"yT1":0,"xT2":1046.8999999999999,"yT2":0,"toosoon":0,"cond_shown":"Congruent","ratio_trial":200,"L_num":4,"L_den":10,"R_num":3,"R_den":15,"correct_side":1,"subjID":"FernandaAguirreRodriguez39","gender":"1","school":"6","age":"11"},{"start_time":1551794114026,"click_time":1551794116337,"finger_time":1551794115378,"fix_duration":946.611746257885,"trial":33,"RT":1352,"MT":959,"sideResp":1,"stimulus":[],"xmouse":[745,745,745,745,745,745,745,745,745,745,745,745,745,745,745,745,745,745,745,745,745,745,745,745,745,745,745,745,745,745,745,745,745,745,745,745,745,745,745,745,745,745,745,745,745,745,745,745,745,745,745,745,745,745,745,745,745,745,745,745,745,745,745,745,748,754,765,781,828,858,894,929,956,1000,1017,1032,1044,1054,1064,1065,1066,1066,1066,1066,1064,1058,1053,1045,1023,1013,1002,993,984,962,948,936,921,906,869,847,825,800,770,701,686,676,667,658,643,633,618,600,577,496,467,445],"ymouse":[484,484,484,484,484,484,484,484,484,484,484,484,484,484,484,484,484,484,484,484,484,484,484,484,484,484,484,484,484,484,484,484,484,484,484,484,484,484,484,484,484,484,484,484,484,484,484,484,484,484,484,484,484,484,484,484,484,484,484,484,484,484,484,484,479,475,466,452,409,376,338,299,269,214,196,181,168,157,147,145,145,145,145,145,144,147,151,157,176,187,201,213,223,246,253,257,259,259,251,243,233,221,205,164,152,140,129,120,110,108,108,108,108,107,104,99],"timestamp_mouse":[13,32,52,72,91,112,132,152,172,193,211,231,252,272,293,312,332,351,373,392,412,432,452,471,492,512,532,553,572,592,611,633,652,671,692,711,732,753,771,792,812,832,852,871,892,912,931,952,971,992,1011,1031,1053,1071,1091,1112,1133,1152,1171,1192,1211,1233,1251,1271,1292,1311,1331,1352,1372,1391,1411,1431,1452,1472,1492,1511,1531,1552,1572,1591,1611,1632,1652,1671,1693,1711,1731,1752,1772,1791,1811,1832,1852,1872,1891,1911,1932,1952,1972,1991,2011,2031,2051,2072,2091,2111,2132,2152,2172,2191,2212,2231,2252,2272,2291,2311],"xSR":733.5,"ySR":461.5,"xT1":420.09999999999997,"yT1":0,"xT2":1046.8999999999999,"yT2":0,"toosoon":0,"cond_shown":"Incongruent","ratio_trial":100,"L_num":9,"L_den":18,"R_num":6,"R_den":10,"correct_side":2,"subjID":"FernandaAguirreRodriguez39","gender":"1","school":"6","age":"11"},{"start_time":1551794125634,"click_time":1551794127238,"finger_time":1551794126960,"fix_duration":594.2450912998185,"trial":34,"RT":1326,"MT":278,"sideResp":1,"stimulus":[],"xmouse":[771,773,775,777,777,777,777,777,777,777,777,777,777,777,777,777,777,777,777,777,777,777,777,777,777,777,777,777,777,777,777,777,777,777,777,777,777,777,777,777,777,777,777,777,777,777,777,777,777,777,777,777,777,777,777,777,777,777,777,777,777,777,779,779,780,780,778,769,745,736,732,731,730,724,713,695,669,625,516,465,430],"ymouse":[516,517,517,517,516,516,516,516,516,516,516,516,516,516,516,516,516,516,516,516,516,516,516,516,516,516,516,516,516,516,516,516,516,516,516,516,516,516,516,516,516,516,516,516,516,516,516,516,516,516,516,516,516,516,516,516,516,516,516,516,516,516,514,511,489,472,453,432,397,388,385,383,383,371,356,336,311,266,165,110,68],"timestamp_mouse":[9,25,44,64,84,105,126,144,165,184,205,224,245,265,285,304,325,344,365,385,404,424,444,465,484,504,524,546,564,585,606,624,644,666,685,705,724,745,764,784,806,825,844,864,884,905,926,944,965,986,1005,1025,1045,1064,1086,1105,1124,1146,1165,1184,1204,1226,1245,1264,1284,1304,1326,1345,1365,1384,1404,1426,1444,1465,1484,1504,1525,1545,1565,1584,1604],"xSR":733.5,"ySR":461.5,"xT1":420.09999999999997,"yT1":0,"xT2":1046.8999999999999,"yT2":0,"toosoon":0,"cond_shown":"Congruent","ratio_trial":100,"L_num":8,"L_den":16,"R_num":2,"R_den":5,"correct_side":1,"subjID":"FernandaAguirreRodriguez39","gender":"1","school":"6","age":"11"},{"start_time":1551794134087,"click_time":1551794136058,"finger_time":1551794135578,"fix_duration":1387.998292259462,"trial":35,"RT":1491,"MT":480,"sideResp":1,"stimulus":[],"xmouse":[794,794,794,794,794,794,794,794,794,794,794,794,794,794,794,794,794,794,794,794,794,794,794,794,794,794,794,794,794,794,794,794,794,794,794,794,794,794,794,794,794,794,794,794,794,794,794,794,794,794,794,794,794,794,794,794,794,794,794,794,794,794,794,794,794,794,794,794,794,794,794,794,787,752,679,505,440,399,377,367,367,369,373,375,376,381,387,392,400,408,419,423,425,427,429,431,431,433,438],"ymouse":[529,529,529,529,529,529,529,529,529,529,529,529,529,529,529,529,529,529,529,529,529,529,529,529,529,529,529,529,529,529,529,529,529,529,529,529,529,529,529,529,529,529,529,529,529,529,529,529,529,529,529,529,529,529,529,529,529,529,529,529,529,529,529,529,529,529,529,529,529,529,529,529,519,503,472,389,344,300,263,220,184,172,164,159,157,151,147,144,140,135,127,123,121,118,116,113,110,106,97],"timestamp_mouse":[11,41,51,72,92,111,132,152,171,191,211,232,251,271,292,311,332,352,371,392,411,432,452,472,492,513,532,551,571,591,611,631,651,672,691,713,732,751,773,791,813,832,853,872,891,912,931,952,971,991,1012,1031,1051,1072,1092,1111,1132,1151,1171,1192,1211,1233,1251,1271,1292,1311,1331,1351,1371,1391,1411,1432,1451,1472,1491,1513,1531,1552,1572,1591,1612,1631,1651,1672,1692,1712,1731,1751,1772,1791,1811,1832,1851,1872,1891,1911,1931,1952,1971],"xSR":733.5,"ySR":461.5,"xT1":420.09999999999997,"yT1":0,"xT2":1046.8999999999999,"yT2":0,"toosoon":0,"cond_shown":"Congruent","ratio_trial":100,"L_num":9,"L_den":15,"R_num":8,"R_den":16,"correct_side":1,"subjID":"FernandaAguirreRodriguez39","gender":"1","school":"6","age":"11"},{"start_time":1551794137270,"click_time":1551794139378,"finger_time":1551794138699,"fix_duration":250,"trial":36,"RT":1429,"MT":679,"sideResp":2,"stimulus":[],"xmouse":[809,809,809,809,809,809,809,809,809,809,809,809,809,809,809,809,809,809,809,809,809,809,809,809,809,809,809,809,809,809,809,809,809,809,809,809,809,809,809,809,809,809,809,809,809,809,809,809,809,809,809,809,809,809,809,809,809,809,809,809,809,809,809,809,809,809,808,801,791,779,764,728,727,727,727,727,726,731,743,761,807,869,942,988,1015,1030,1036,1038,1038,1038,1038,1038,1038,1039,1040,1041,1041,1041,1041,1041,1042,1047,1049,1053,1056,1063],"ymouse":[527,527,527,527,527,527,527,527,527,527,527,527,527,527,527,527,527,527,527,527,527,527,527,527,527,527,527,527,527,527,527,527,527,527,527,527,527,527,527,527,527,527,527,527,527,527,527,527,527,527,527,527,527,527,527,527,527,527,527,527,527,527,527,527,527,527,519,507,493,480,463,436,435,435,435,435,429,420,405,383,325,261,203,169,146,132,125,123,123,123,123,123,123,123,123,122,122,122,122,121,120,112,110,106,103,95],"timestamp_mouse":[9,28,49,70,89,108,129,149,168,189,210,228,248,269,288,309,328,349,368,390,408,429,449,468,489,508,529,548,568,588,609,629,648,668,689,708,729,749,768,788,809,828,848,869,889,908,928,948,968,988,1009,1028,1048,1069,1088,1108,1128,1149,1169,1188,1208,1229,1249,1268,1289,1308,1328,1348,1369,1388,1409,1429,1448,1469,1488,1508,1530,1548,1568,1588,1609,1629,1648,1668,1689,1708,1729,1749,1770,1789,1809,1829,1850,1868,1889,1908,1928,1949,1968,1989,2008,2028,2048,2068,2089,2108],"xSR":733.5,"ySR":461.5,"xT1":420.09999999999997,"yT1":0,"xT2":1046.8999999999999,"yT2":0,"toosoon":0,"cond_shown":"Incongruent","ratio_trial":100,"L_num":3,"L_den":9,"R_num":7,"R_den":30,"correct_side":1,"subjID":"FernandaAguirreRodriguez39","gender":"1","school":"6","age":"11"},{"start_time":1551794143592,"click_time":1551794145200,"finger_time":1551794144698,"fix_duration":250,"trial":37,"RT":1106,"MT":502,"sideResp":2,"stimulus":[],"xmouse":[777,777,777,777,777,777,777,777,777,777,777,777,777,777,777,777,777,777,777,777,777,777,777,777,777,777,777,777,777,777,777,777,777,777,777,777,777,777,777,777,777,777,777,777,777,777,777,777,777,777,777,780,784,786,794,823,840,853,861,864,867,870,873,876,877,900,917,934,949,967,1007,1035,1052,1061,1065,1070,1071,1074,1078,1085,1092],"ymouse":[508,508,508,508,508,508,508,508,508,508,508,508,508,508,508,508,508,508,508,508,508,508,508,508,508,508,508,508,508,508,508,508,508,508,508,508,508,508,508,508,508,508,508,508,508,508,508,508,508,508,508,501,492,485,469,429,407,389,371,358,346,341,339,336,334,315,302,286,268,246,202,174,161,153,146,140,138,132,126,114,93],"timestamp_mouse":[9,28,47,67,88,106,126,146,166,188,207,226,248,266,286,308,326,348,367,387,408,426,446,466,487,507,526,546,566,587,606,627,647,667,687,706,726,747,767,786,806,826,847,868,887,907,927,946,968,987,1006,1026,1047,1066,1088,1106,1126,1146,1166,1186,1207,1226,1246,1267,1286,1306,1326,1347,1367,1386,1407,1426,1446,1466,1486,1507,1526,1546,1567,1586,1607],"xSR":733.5,"ySR":461.5,"xT1":420.09999999999997,"yT1":0,"xT2":1046.8999999999999,"yT2":0,"toosoon":0,"cond_shown":"Congruent","ratio_trial":300,"L_num":7,"L_den":14,"R_num":20,"R_den":25,"correct_side":2,"subjID":"FernandaAguirreRodriguez39","gender":"1","school":"6","age":"11"},{"start_time":1551794148470,"click_time":1551794150799,"finger_time":1551794150378,"fix_duration":1249.203097517848,"trial":38,"RT":1908,"MT":421,"sideResp":2,"stimulus":[],"xmouse":[798,798,798,798,798,798,798,798,798,798,798,798,798,798,798,798,798,798,798,798,798,798,798,798,798,798,798,798,798,798,798,798,798,798,798,798,798,798,798,798,798,798,798,798,798,798,798,798,798,798,798,798,798,798,798,798,798,798,798,798,798,798,798,798,798,798,798,798,798,798,798,798,798,798,798,798,798,798,798,798,798,798,798,798,798,798,798,798,798,798,798,798,798,798,814,849,887,966,1001,1027,1053,1089,1090,1091,1091,1091,1091,1089,1083,1081,1081,1086,1093,1099,1103,1108,1111],"ymouse":[521,521,521,521,521,521,521,521,521,521,521,521,521,521,521,521,521,521,521,521,521,521,521,521,521,521,521,521,521,521,521,521,521,521,521,521,521,521,521,521,521,521,521,521,521,521,521,521,521,521,521,521,521,521,521,521,521,521,521,521,521,521,521,521,521,521,521,521,521,521,521,521,521,521,521,521,521,521,521,521,521,521,521,521,521,521,521,521,521,521,521,521,521,521,515,490,464,403,372,346,327,294,286,278,271,261,235,217,195,178,161,153,139,130,121,111,98],"timestamp_mouse":[8,29,57,69,89,109,129,148,170,188,209,228,248,268,288,309,328,348,369,388,409,428,448,470,489,509,528,548,569,589,609,629,650,668,689,709,728,748,770,789,809,829,849,870,888,909,930,949,968,989,1010,1028,1048,1069,1089,1110,1128,1149,1168,1188,1209,1229,1249,1270,1289,1309,1328,1350,1370,1388,1410,1428,1448,1469,1489,1508,1529,1550,1569,1589,1608,1629,1649,1669,1689,1709,1728,1748,1768,1789,1809,1828,1850,1868,1888,1908,1929,1948,1969,1988,2009,2029,2048,2068,2089,2108,2129,2148,2168,2189,2208,2228,2248,2268,2289,2308,2329],"xSR":733.5,"ySR":461.5,"xT1":420.09999999999997,"yT1":0,"xT2":1046.8999999999999,"yT2":0,"toosoon":0,"cond_shown":"Congruent","ratio_trial":200,"L_num":9,"L_den":30,"R_num":13,"R_den":26,"correct_side":2,"subjID":"FernandaAguirreRodriguez39","gender":"1","school":"6","age":"11"},{"start_time":1551794156600,"click_time":1551794158599,"finger_time":1551794158198,"fix_duration":379.8339592848463,"trial":39,"RT":1598,"MT":401,"sideResp":2,"stimulus":[],"xmouse":[792,792,791,790,790,790,790,788,787,781,779,779,779,779,779,779,779,779,779,779,779,779,779,779,779,779,779,779,779,779,779,779,779,779,779,779,779,779,779,779,779,779,779,779,779,779,779,779,779,779,779,779,779,779,779,779,779,779,779,779,779,779,779,779,779,779,779,779,779,779,779,779,779,779,772,764,751,740,734,733,731,730,726,721,699,688,681,679,679,704,735,772,805,837,868,962,1005,1047,1083,1141],"ymouse":[494,494,502,504,505,505,505,507,508,515,517,518,519,519,519,519,519,519,519,519,519,519,519,519,519,519,519,519,519,519,519,519,519,519,519,519,519,519,519,519,519,519,519,519,519,519,519,519,519,519,519,519,519,519,519,519,519,519,519,519,519,519,519,519,519,519,519,519,519,519,519,519,519,519,510,504,495,493,489,488,486,484,478,473,443,427,414,404,398,388,381,373,364,355,345,291,258,216,167,64],"timestamp_mouse":[32,39,58,78,98,118,139,159,179,199,219,239,259,278,299,319,338,358,378,398,418,438,458,478,498,519,539,559,578,600,618,640,658,680,699,718,738,759,779,798,820,838,858,878,898,918,938,958,979,998,1018,1038,1058,1078,1099,1119,1138,1158,1178,1198,1219,1239,1259,1280,1298,1318,1339,1358,1379,1399,1420,1438,1459,1480,1498,1518,1538,1560,1578,1598,1618,1638,1658,1678,1699,1718,1738,1759,1778,1798,1818,1838,1859,1880,1898,1919,1938,1958,1978,1999],"xSR":733.5,"ySR":461.5,"xT1":420.09999999999997,"yT1":0,"xT2":1046.8999999999999,"yT2":0,"toosoon":0,"cond_shown":"Incongruent","ratio_trial":200,"L_num":3,"L_den":10,"R_num":1,"R_den":2,"correct_side":2,"subjID":"FernandaAguirreRodriguez39","gender":"1","school":"6","age":"11"},{"start_time":1551794160211,"click_time":1551794162039,"finger_time":1551794161880,"fix_duration":791.8432036396499,"trial":40,"RT":1669,"MT":159,"sideResp":2,"stimulus":[],"xmouse":[818,818,818,818,818,818,818,818,818,818,818,818,818,818,818,818,818,818,818,818,818,818,818,818,818,818,818,818,818,818,818,818,818,818,818,818,818,818,818,818,818,818,818,818,818,818,818,818,818,818,818,818,818,818,818,818,818,818,818,818,818,818,818,818,818,818,818,818,818,819,821,823,824,825,825,825,825,825,825,825,825,825,830,834,848,888,921,957,992,1030,1088,1109],"ymouse":[516,516,516,516,516,516,516,516,516,516,516,516,516,516,516,516,516,516,516,516,516,516,516,516,516,516,516,516,516,516,516,516,516,516,516,516,516,516,516,516,516,516,516,516,516,516,516,516,516,516,516,516,516,516,516,516,516,516,516,516,516,516,516,516,516,516,516,516,516,507,503,498,494,491,488,488,488,488,488,488,488,488,485,480,467,432,400,359,314,257,147,98],"timestamp_mouse":[8,27,47,67,88,107,128,147,168,188,208,227,249,267,287,308,327,347,368,387,407,427,447,467,487,507,527,548,567,587,607,628,647,667,688,707,727,747,769,789,807,828,849,868,888,908,928,948,967,987,1007,1029,1047,1067,1087,1108,1127,1148,1167,1189,1207,1228,1247,1268,1289,1307,1328,1348,1369,1388,1407,1427,1447,1468,1487,1507,1527,1547,1567,1589,1608,1627,1647,1669,1687,1707,1727,1748,1768,1787,1807,1828],"xSR":733.5,"ySR":461.5,"xT1":420.09999999999997,"yT1":0,"xT2":1046.8999999999999,"yT2":0,"toosoon":0,"cond_shown":"Congruent","ratio_trial":200,"L_num":1,"L_den":2,"R_num":21,"R_den":30,"correct_side":2,"subjID":"FernandaAguirreRodriguez39","gender":"1","school":"6","age":"11"},{"start_time":1551794163834,"click_time":1551794165779,"finger_time":1551794163898,"fix_duration":634.798527438038,"trial":41,"RT":64,"MT":1881,"sideResp":1,"stimulus":[],"xmouse":[833,833,833,834,834,834,834,834,834,834,834,834,834,834,834,834,834,834,834,834,834,834,834,834,834,834,834,834,834,834,834,834,834,834,834,834,834,834,834,834,834,834,831,811,804,799,798,798,798,798,798,798,798,798,798,798,798,798,798,798,798,798,798,798,798,798,798,798,798,798,798,798,798,798,798,798,797,793,782,771,759,745,715,656,619,587,561,543,521,515,509,502,499,498,497,497,499,501],"ymouse":[517,517,517,517,517,517,517,517,517,517,517,517,517,517,517,517,517,517,517,517,517,517,517,517,517,517,517,517,517,517,517,517,517,517,517,517,517,517,517,517,517,517,519,524,526,526,526,526,526,526,526,526,526,526,526,526,526,526,526,526,526,526,526,526,526,526,526,526,526,526,526,526,526,526,524,520,512,502,470,449,428,405,368,317,291,269,251,237,212,203,191,179,169,160,133,118,104,89],"timestamp_mouse":[10,28,46,64,84,105,125,144,165,184,204,224,244,265,285,305,324,344,365,384,404,424,444,465,485,504,524,544,565,584,604,624,644,665,684,704,726,744,765,784,804,824,844,864,885,904,925,945,964,986,1004,1025,1045,1066,1084,1105,1125,1144,1165,1185,1206,1225,1245,1265,1284,1304,1324,1346,1365,1384,1404,1426,1445,1464,1484,1504,1524,1544,1565,1584,1606,1624,1645,1665,1684,1704,1725,1744,1765,1784,1804,1824,1844,1864,1884,1904,1924,1944],"xSR":733.5,"ySR":461.5,"xT1":420.09999999999997,"yT1":0,"xT2":1046.8999999999999,"yT2":0,"toosoon":0,"cond_shown":"Congruent","ratio_trial":200,"L_num":9,"L_den":20,"R_num":4,"R_den":16,"correct_side":1,"subjID":"FernandaAguirreRodriguez39","gender":"1","school":"6","age":"11"},{"start_time":1551794167973,"click_time":1551794169198,"finger_time":1551794168799,"fix_duration":1413.253981330682,"trial":42,"RT":826,"MT":399,"sideResp":2,"stimulus":[],"xmouse":[805,805,805,805,804,804,804,804,804,804,804,804,804,804,804,804,804,804,804,804,804,804,804,804,804,804,804,804,804,804,804,804,804,804,804,804,804,806,811,817,824,841,854,874,902,937,985,993,1000,1007,1011,1024,1028,1031,1032,1034,1036,1037,1037,1038,1040,1049],"ymouse":[525,525,525,525,525,525,525,525,525,525,525,525,525,525,525,525,525,525,525,525,525,525,525,525,525,525,525,525,525,525,525,525,525,525,525,525,524,513,499,486,470,441,423,403,381,360,318,307,295,283,274,255,248,241,234,222,207,165,149,130,118,92],"timestamp_mouse":[8,26,45,66,87,105,126,145,165,186,205,225,246,265,285,305,325,346,366,386,405,426,445,467,486,506,525,546,565,587,605,625,645,665,685,705,725,745,765,786,805,826,845,866,885,907,926,945,966,986,1005,1026,1045,1065,1085,1105,1125,1146,1165,1186,1206,1225],"xSR":733.5,"ySR":461.5,"xT1":420.09999999999997,"yT1":0,"xT2":1046.8999999999999,"yT2":0,"toosoon":0,"cond_shown":"Congruent","ratio_trial":200,"L_num":3,"L_den":10,"R_num":14,"R_den":28,"correct_side":2,"subjID":"FernandaAguirreRodriguez39","gender":"1","school":"6","age":"11"},{"start_time":1551794171090,"click_time":1551794173478,"finger_time":1551794172878,"fix_duration":951.9099437632998,"trial":43,"RT":1788,"MT":600,"sideResp":2,"stimulus":[],"xmouse":[816,816,816,816,816,816,816,816,816,816,816,816,816,816,816,816,816,816,816,816,816,816,815,815,815,815,815,815,815,815,815,815,815,815,815,815,815,815,815,815,815,815,815,815,815,815,815,815,815,813,808,792,791,791,791,791,791,791,791,791,791,791,791,791,791,791,791,791,791,791,790,789,789,788,788,788,788,788,788,788,788,788,788,788,788,788,788,793,805,832,878,899,918,930,936,941,948,951,952,952,952,952,953,956,962,962,962,962,962,1006,1010,1013,1016,1022,1028,1032,1038,1042,1044,1047],"ymouse":[553,553,553,553,553,553,553,553,553,553,553,553,553,553,553,553,553,553,553,553,553,553,552,552,552,552,552,552,552,552,552,552,552,552,552,552,552,552,552,552,552,552,552,552,552,552,552,552,552,552,550,549,548,548,548,548,548,548,548,548,548,548,548,548,548,548,548,548,548,548,548,543,541,540,539,538,538,538,538,538,538,538,538,538,538,538,532,517,491,426,311,247,182,126,82,49,14,8,6,5,5,5,4,3,0,0,0,0,0,2,8,11,14,17,17,17,20,21,22,24],"timestamp_mouse":[9,36,49,68,88,109,129,149,170,188,209,228,249,270,288,309,328,349,370,388,408,428,448,468,488,510,528,548,570,588,608,629,648,669,688,710,730,748,768,788,809,829,850,869,889,908,929,948,969,989,1008,1029,1050,1068,1088,1108,1128,1149,1170,1189,1208,1229,1248,1269,1288,1308,1328,1350,1368,1388,1408,1430,1449,1469,1488,1510,1528,1548,1569,1588,1608,1628,1650,1669,1689,1708,1728,1748,1768,1788,1809,1828,1848,1868,1888,1909,1928,1948,1969,1989,2009,2028,2048,2069,2088,2109,2129,2149,2168,2189,2209,2228,2248,2268,2289,2308,2329,2349,2369,2388],"xSR":733.5,"ySR":461.5,"xT1":420.09999999999997,"yT1":0,"xT2":1046.8999999999999,"yT2":0,"toosoon":0,"cond_shown":"Incongruent","ratio_trial":300,"L_num":7,"L_den":10,"R_num":8,"R_den":20,"correct_side":1,"subjID":"FernandaAguirreRodriguez39","gender":"1","school":"6","age":"11"},{"start_time":1551794182403,"click_time":1551794184499,"finger_time":1551794183859,"fix_duration":863.5847614397511,"trial":44,"RT":1456,"MT":640,"sideResp":2,"stimulus":[],"xmouse":[773,773,773,773,773,773,774,774,776,776,776,776,776,776,776,776,776,776,776,776,776,776,776,776,776,776,776,776,776,776,776,776,776,776,776,776,776,776,776,776,776,776,776,776,776,776,776,776,776,776,776,776,776,776,776,776,776,776,776,776,776,776,776,776,776,776,776,778,783,800,812,825,839,862,899,920,941,964,986,1019,1028,1035,1040,1044,1048,1048,1048,1048,1047,1040,1034,1031,1030,1030,1035,1043,1051,1060,1068,1075,1088,1093,1100,1105,1118],"ymouse":[541,541,541,541,541,541,541,540,539,539,539,539,539,539,539,539,539,539,539,539,539,539,539,539,539,539,539,539,539,539,539,539,539,539,539,539,539,539,539,539,539,539,539,539,539,539,539,539,539,539,539,539,539,539,539,539,539,539,539,539,539,539,539,539,539,539,539,537,532,513,499,484,472,450,418,401,385,368,351,319,303,291,282,275,269,269,269,269,268,268,270,271,271,271,264,256,248,237,226,210,178,158,140,120,75],"timestamp_mouse":[16,35,57,77,96,117,137,157,177,196,217,236,257,277,297,316,337,357,377,397,416,437,457,475,495,517,537,557,577,596,617,636,657,676,695,717,737,757,775,796,817,836,856,877,896,916,937,956,976,996,1016,1036,1055,1077,1096,1116,1136,1157,1176,1197,1216,1237,1257,1275,1296,1316,1