[{"start_time":1551883032948,"click_time":1551883052173,"finger_time":1551883032952,"fix_duration":1292.1772410196793,"trial":0,"RT":4,"MT":19221,"sideResp":2,"stimulus":[],"xmouse":[829,829,829,829,830,829,823,821,821,821,820,817,815,812,809,805,800,798,797,794,791,788,786,786,785,785,785,785,785,785,785,785,785,785,785,785,785,785,785,785,785,785,785,785,785,785,808,833,854,866,873,874,874,874,874,874,874,874,874,874,874,874,874,874,874,874,874,874,874,874,874,874,874,874,874,874,875,866,836,782,707,603,588,586,599,656,827,888,917,922,922,922,923,922,920,917,912,910,908,905,903,887,866,830,770,748,741,741,741,743,750,766,770,771,771,771,774,778,780,781,781,781,781,782,783,785,788,792,799,803,805,807,808,809,809,809,809,809,806,801,796,792,792,792,792,792,792,792,792,792,792,792,792,792,792,792,792,792,792,792,792,792,792,792,792,792,792,792,792,792,792,792,792,792,792,792,792,792,792,792,792,792,792,792,792,792,792,792,792,792,792,792,792,792,792,792,792,792,792,792,792,792,792,792,792,792,792,792,792,792,792,792,792,792,792,792,790,784,781,780,779,776,775,775,775,775,775,775,775,775,775,775,775,775,779,781,784,784,785,786,788,791,793,794,797,800,806,806,806,806,806,806,802,800,800,800,800,800,800,800,800,800,800,800,800,800,800,800,800,800,800,800,800,812,823,832,828,811,787,762,735,698,685,681,679,679,679,679,679,679,679,679,679,679,679,679,679,679,679,679,679,679,681,688,712,725,740,749,753,756,759,764,764,764,764,764,764,764,764,766,771,777,779,779,779,779,779,782,789,794,799,801,801,801,801,801,801,801,801,801,801,801,801,802,802,800,799,799,799,799,799,799,799,799,799,799,799,799,799,799,799,798,793,788,784,782,782,782,782,782,782,782,782,782,782,782,782,782,782,782,782,782,782,782,782,782,782,782,782,782,782,782,782,782,782,782,782,782,782,782,782,782,782,782,782,782,782,782,782,782,782,782,782,782,782,782,782,782,782,782,782,782,782,782,782,782,782,782,782,782,782,782,782,782,782,782,782,782,782,782,782,782,782,782,782,782,782,782,782,782,781,781,781,781,781,781,781,781,781,781,781,781,781,781,781,781,781,781,781,781,781,781,781,781,781,781,781,781,781,781,781,781,781,781,781,781,781,781,781,781,781,781,781,781,781,781,781,781,781,781,781,781,781,781,781,781,781,781,781,781,781,781,781,781,781,781,781,781,781,781,781,781,781,781,781,781,781,781,781,781,781,781,781,781,781,781,781,781,781,781,781,781,781,781,781,781,781,781,781,781,781,781,781,781,781,781,781,781,781,781,781,781,781,781,781,781,781,781,781,781,781,781,781,781,781,781,781,781,781,781,781,781,781,781,781,781,781,781,781,781,781,781,781,781,781,781,781,781,781,781,781,781,781,781,781,781,781,781,781,781,781,781,781,781,781,781,781,781,781,781,781,781,781,781,781,781,781,781,781,781,781,781,781,781,781,781,781,781,781,781,781,781,781,781,781,781,781,781,781,781,781,781,781,781,781,788,847,847,847,847,847,847,847,847,847,847,847,847,847,847,847,847,847,847,847,847,847,847,847,847,847,847,847,847,847,847,847,847,847,847,847,847,847,847,847,847,847,847,847,847,847,847,847,847,847,847,847,847,847,847,847,847,847,847,847,847,847,847,847,847,847,847,847,847,847,847,847,847,847,847,847,847,847,847,847,847,847,847,847,847,847,847,847,847,847,847,847,847,847,847,847,847,847,847,847,847,847,847,847,847,847,847,847,847,847,847,847,847,847,847,847,847,847,847,847,847,847,847,847,847,847,847,847,847,847,847,847,847,847,847,847,847,847,847,847,847,847,847,847,847,847,847,847,847,847,847,847,847,847,847,847,847,847,847,847,847,847,847,847,847,847,847,847,847,847,847,847,847,847,847,847,847,847,847,847,847,847,847,847,847,847,847,847,847,847,847,847,847,847,847,847,847,847,847,847,847,847,847,847,847,847,847,847,847,847,847,847,847,847,847,847,847,847,847,847,847,847,847,847,847,847,847,847,847,847,847,847,847,847,847,847,847,847,847,847,847,847,847,847,847,847,847,847,847,847,847,847,847,847,847,847,847,847,847,847,847,847,847,847,847,847,847,847,847,847,847,847,847,847,847,847,847,847,847,847,847,847,847,847,847,847,847,847,847,847,847,847,847,847,847,847,847,847,847,847,847,847,847,847,1015,1035,1086],"ymouse":[589,589,589,589,589,579,565,563,562,560,558,550,546,540,534,527,517,513,508,500,494,485,482,479,478,477,477,477,477,477,477,477,477,478,478,478,478,478,478,478,478,478,478,478,478,478,491,499,507,509,512,512,512,512,512,512,512,512,512,512,512,512,512,512,512,512,512,513,515,518,518,520,520,520,520,518,486,458,418,385,367,362,367,373,419,489,626,661,673,676,676,676,676,663,650,636,624,620,618,616,614,601,590,576,559,552,550,550,550,549,549,548,547,547,547,547,546,545,545,545,545,545,545,544,544,541,539,538,536,535,534,534,533,533,533,533,533,533,531,530,530,530,530,530,530,530,530,530,530,530,530,530,530,530,530,530,530,530,530,530,530,530,530,530,530,530,530,530,530,530,530,530,530,530,529,529,529,529,529,529,529,529,529,529,529,529,529,529,529,529,529,529,529,529,529,529,529,529,529,529,529,529,529,529,529,529,529,529,529,529,529,529,529,529,529,529,529,529,528,528,528,528,528,528,528,528,528,528,528,528,528,528,528,528,524,522,519,518,518,517,517,517,516,516,514,514,513,513,513,512,512,512,513,513,513,513,513,513,513,513,513,513,513,513,513,513,513,513,513,513,513,513,515,520,520,522,531,540,547,551,554,558,558,558,559,559,559,559,559,559,559,559,559,559,559,559,559,559,559,559,559,559,560,562,562,561,553,548,544,540,535,531,530,528,528,528,528,528,528,525,523,522,522,522,522,522,522,519,512,507,502,500,500,500,500,500,500,500,500,500,500,500,500,500,501,505,507,507,507,507,507,507,507,507,507,507,507,507,507,507,507,507,509,510,511,512,512,512,512,512,512,512,512,512,512,512,512,512,512,512,512,512,512,512,512,512,512,512,512,512,512,512,512,512,512,512,512,512,512,512,512,512,512,512,512,512,512,512,512,512,512,512,512,512,512,512,512,512,512,512,512,512,512,512,512,512,512,512,512,512,512,512,512,512,512,512,512,512,512,512,512,512,512,512,512,512,512,512,512,512,513,514,514,514,514,514,514,514,514,514,514,514,514,514,514,514,514,514,514,514,514,514,514,514,514,514,514,514,514,514,514,514,514,514,514,514,514,514,514,514,514,514,514,514,514,514,514,514,514,514,514,514,514,514,514,514,514,514,514,514,514,514,514,514,514,514,514,514,514,514,514,514,514,514,514,514,514,514,514,514,514,514,514,514,514,514,514,514,514,514,514,514,514,514,514,514,514,514,514,514,514,514,514,514,514,514,514,514,514,514,514,514,514,514,514,514,514,514,514,514,514,514,514,514,514,514,514,514,514,514,514,514,514,514,514,514,514,514,514,514,514,514,514,514,514,514,514,514,514,514,514,514,514,514,514,514,514,514,514,514,514,514,514,514,514,514,514,514,514,514,514,514,514,514,514,514,514,514,514,514,514,514,514,514,514,514,514,514,514,514,514,514,514,514,514,514,514,514,514,514,514,514,514,514,514,482,82,82,82,82,82,82,82,82,82,82,82,82,82,82,82,82,82,82,82,82,82,82,82,82,82,82,82,82,82,82,82,82,82,82,82,82,82,82,82,82,82,82,82,82,82,82,82,82,82,82,82,82,82,82,82,82,82,82,82,82,82,82,82,82,82,82,82,82,82,82,82,82,82,82,82,82,82,82,82,82,82,82,82,82,82,82,82,82,82,82,82,82,82,82,82,82,82,82,82,82,82,82,82,82,82,82,82,82,82,82,82,82,82,82,82,82,82,82,82,82,82,82,82,82,82,82,82,82,82,82,82,82,82,82,82,82,82,82,82,82,82,82,82,82,82,82,82,82,82,82,82,82,82,82,82,82,82,82,82,82,82,82,82,82,82,82,82,82,82,82,82,82,82,82,82,82,82,82,82,82,82,82,82,82,82,82,82,82,82,82,82,82,82,82,82,82,82,82,82,82,82,82,82,82,82,82,82,82,82,82,82,82,82,82,82,82,82,82,82,82,82,82,82,82,82,82,82,82,82,82,82,82,82,82,82,82,82,82,82,82,82,82,82,82,82,82,82,82,82,82,82,82,82,82,82,82,82,82,82,82,82,82,82,82,82,82,82,82,82,82,82,82,82,82,82,82,82,82,82,82,82,82,82,82,82,82,82,82,82,82,82,82,82,82,82,82,82,82,82,82,82,82,82,0,11,30],"timestamp_mouse":[4,25,45,64,85,104,125,146,166,184,205,224,244,264,285,306,324,344,365,385,405,425,445,464,485,504,524,544,565,585,605,624,645,666,685,705,724,744,765,784,804,824,844,864,884,905,925,945,964,985,1004,1024,1044,1064,1085,1105,1124,1144,1166,1185,1205,1225,1245,1264,1285,1305,1324,1345,1365,1385,1405,1425,1445,1464,1484,1504,1524,1545,1564,1584,1606,1624,1645,1665,1684,1704,1724,1744,1765,1784,1805,1825,1844,1864,1885,1905,1925,1944,1964,1985,2005,2024,2045,2064,2085,2106,2125,2144,2164,2184,2205,2224,2245,2264,2285,2304,2324,2345,2365,2384,2404,2425,2445,2465,2484,2504,2524,2545,2564,2585,2604,2624,2644,2664,2684,2704,2725,2745,2765,2786,2805,2824,2845,2865,2884,2904,2924,2944,2964,2984,3004,3024,3044,3066,3084,3105,3125,3145,3164,3184,3204,3224,3245,3264,3284,3305,3324,3345,3364,3384,3404,3424,3444,3464,3485,3504,3524,3545,3564,3584,3604,3624,3644,3664,3684,3705,3724,3744,3764,3785,3804,3824,3845,3865,3885,3904,3924,3944,3964,3985,4004,4024,4045,4065,4085,4105,4124,4144,4166,4185,4204,4224,4244,4265,4284,4304,4325,4344,4366,4384,4405,4424,4446,4465,4485,4505,4526,4545,4565,4585,4605,4625,4644,4664,4686,4705,4725,4745,4765,4784,4805,4824,4844,4865,4884,4906,4925,4944,4964,4985,5005,5024,5045,5064,5085,5106,5124,5144,5164,5185,5204,5224,5245,5265,5284,5305,5325,5344,5364,5384,5404,5425,5444,5465,5486,5504,5524,5545,5566,5584,5605,5624,5645,5665,5684,5704,5724,5744,5765,5784,5804,5824,5844,5864,5884,5905,5924,5945,5965,5984,6005,6024,6044,6064,6084,6105,6124,6145,6164,6184,6205,6224,6246,6264,6285,6304,6325,6345,6365,6384,6405,6425,6445,6464,6484,6505,6524,6544,6564,6584,6606,6624,6644,6666,6685,6705,6725,6745,6764,6784,6804,6824,6845,6865,6885,6905,6925,6944,6964,6985,7004,7024,7044,7065,7085,7104,7124,7146,7164,7185,7205,7224,7244,7264,7286,7304,7324,7345,7365,7385,7404,7424,7444,7465,7484,7504,7524,7544,7564,7584,7605,7625,7644,7664,7685,7705,7726,7745,7764,7784,7804,7824,7846,7865,7884,7904,7925,7944,7965,7984,8004,8024,8044,8064,8084,8104,8124,8145,8165,8184,8204,8224,8244,8266,8284,8304,8325,8345,8365,8384,8404,8424,8445,8466,8484,8504,8524,8545,8564,8584,8604,8625,8644,8665,8684,8704,8724,8744,8764,8785,8804,8825,8844,8865,8884,8905,8924,8944,8965,8985,9005,9024,9045,9065,9085,9105,9124,9145,9164,9186,9204,9224,9244,9264,9285,9305,9324,9344,9365,9384,9404,9425,9444,9465,9485,9505,9524,9544,9565,9584,9604,9625,9645,9664,9685,9705,9724,9744,9765,9784,9805,9824,9844,9864,9886,9905,9924,9945,9966,9985,10004,10024,10044,10064,10086,10105,10125,10145,10165,10185,10204,10224,10245,10265,10284,10305,10324,10344,10365,10385,10404,10424,10445,10465,10485,10504,10524,10544,10566,10585,10604,10625,10645,10665,10685,10704,10724,10744,10764,10784,10805,10824,10844,10865,10884,10905,10925,10944,10964,10984,11005,11025,11044,11065,11084,11104,11124,11145,11164,11186,11205,11224,11246,11264,11284,11305,11325,11345,11364,11386,11404,11426,11445,11465,11484,11504,11525,11546,11564,11585,11605,11625,11644,11664,11686,11705,11724,11745,11764,11784,11804,11824,11846,11864,11884,11905,11924,11945,11965,11984,12005,12024,12044,12064,12085,12104,12124,12144,12164,12185,12205,12224,12244,12264,12284,12304,12324,12344,12365,12384,12404,12424,12444,12465,12484,12505,12526,12544,12564,12586,12604,12624,12645,12665,12684,12704,12724,12745,12764,12784,12805,12824,12844,12865,12884,12905,12924,12944,12965,12985,13006,13024,13044,13064,13085,13104,13124,13144,13164,13185,13205,13225,13245,13264,13285,13305,13325,13344,13365,13384,13405,13424,13445,13464,13486,13505,13524,13545,13565,13584,13606,13625,13644,13664,13685,13704,13724,13744,13765,13785,13806,13824,13845,13865,13884,13905,13925,13944,13966,13984,14005,14025,14044,14065,14084,14104,14124,14145,14164,14184,14204,14225,14244,14264,14284,14306,14324,14345,14365,14384,14405,14425,14445,14465,14484,14504,14525,14544,14565,14585,14605,14625,14645,14664,14685,14706,14725,14744,14764,14785,14805,14824,14844,14865,14884,14905,14925,14944,14964,14985,15004,15024,15045,15064,15085,15105,15124,15145,15165,15184,15204,15224,15244,15264,15284,15305,15324,15345,15364,15385,15405,15425,15445,15466,15484,15505,15525,15545,15564,15586,15605,15625,15644,15665,15684,15705,15724,15744,15765,15785,15804,15825,15844,15864,15885,15905,15925,15944,15964,15986,16004,16025,16045,16065,16084,16105,16126,16145,16165,16184,16205,16225,16244,16264,16284,16304,16325,16345,16364,16385,16404,16425,16444,16465,16485,16505,16524,16545,16564,16584,16605,16625,16645,16664,16684,16705,16725,16745,16765,16785,16806,16824,16844,16865,16884,16905,16925,16944,16964,16984,17004,17025,17045,17064,17085,17105,17126,17146,17164,17184,17204,17225,17244,17264,17284,17304,17325,17344,17364,17384,17404,17424,17445,17464,17484,17505,17524,17544,17564,17584,17605,17625,17645,17664,17684,17706,17724,17745,17764,17785,17804,17824,17844,17865,17885,17906,17924,17944,17965,17984,18005,18024,18044,18065,18084,18105,18124,18145,18165,18185,18205,18226,18245,18264,18284,18304,18325,18344,18364,18385,18404,18425,18444,18464,18485,18504,18525,18545,18565,18584,18605,18624,18645,18664,18685,18704,18724,18744,18765,18785,18804,18825,18845,18865,18884,18905,18924,18945,18965,18984,19004,19025,19044,19064,19084,19104,19125,19144,19165,19184,19204,19224],"xSR":741.5,"ySR":469.95,"xT1":424.9,"yT1":0,"xT2":1058.1,"yT2":0,"toosoon":0,"cond_shown":"Congruent","ratio_trial":300,"L_num":5,"L_den":25,"R_num":6,"R_den":12,"correct_side":2,"subjID":"gabrielabernaljimenez38","gender":"1","age":"11","school":"6","test":{"fix_dur":[250,1500],"timestim":1000,"targets_dim":[100,100],"targets_relative_coord":[0.3,0.7],"size_stim":[880,420],"start_dim":[100,100],"size_start":[300,300],"size_fix":60,"samplingrate":20,"img_types":["Congruent","Incongruent"],"ratios":[100,200,300],"rep_conds":19,"nTrials":120,"trials_to_rest":500,"Trials_order":[112,87,9,70,117,76,64,23,82,101,3,31,34,79,52,25,29,81,80,5,93,73,46,92,36,115,42,104,59,33,98,60,37,41,103,55,26,114,16,105,28,119,86,113,62,69,67,45,2,66,97,10,49,24,74,72,111,43,0,50,38,20,44,47,83,77,63,53,7,68,58,56,106,30,22,32,15,14,4,65,13,88,75,8,6,54,99,90,108,100,21,94,96,51,118,107,1,71,39,95,85,35,19,61,11,84,40,78,12,116,48,18,102,17,109,110,27,91,57,89],"cond_shown":["Congruent","Incongruent","Incongruent","Congruent","Incongruent","Congruent","Congruent","Incongruent","Congruent","Incongruent","Incongruent","Incongruent","Congruent","Incongruent","Congruent","Incongruent","Incongruent","Incongruent","Congruent","Incongruent","Incongruent","Incongruent","Congruent","Congruent","Congruent","Incongruent","Congruent","Congruent","Incongruent","Incongruent","Congruent","Congruent","Incongruent","Incongruent","Incongruent","Incongruent","Congruent","Congruent","Congruent","Incongruent","Congruent","Incongruent","Congruent","Incongruent","Congruent","Incongruent","Incongruent","Incongruent","Congruent","Congruent","Incongruent","Congruent","Incongruent","Congruent","Congruent","Congruent","Incongruent","Incongruent","Congruent","Congruent","Congruent","Congruent","Congruent","Incongruent","Incongruent","Incongruent","Incongruent","Incongruent","Incongruent","Congruent","Congruent","Congruent","Congruent","Congruent","Congruent","Congruent","Incongruent","Congruent","Congruent","Incongruent","Incongruent","Congruent","Incongruent","Congruent","Congruent","Congruent","Incongruent","Congruent","Congruent","Congruent","Incongruent","Congruent","Congruent","Incongruent","Congruent","Incongruent","Incongruent","Incongruent","Incongruent","Incongruent","Incongruent","Incongruent","Incongruent","Incongruent","Incongruent","Congruent","Congruent","Congruent","Congruent","Congruent","Congruent","Congruent","Congruent","Incongruent","Incongruent","Congruent","Incongruent","Incongruent","Incongruent","Incongruent"],"ratio_trial":[300,200,200,300,200,300,300,300,300,300,200,100,300,100,300,100,300,200,200,300,200,100,300,200,100,100,100,200,300,200,200,100,100,300,100,100,200,100,300,200,300,300,200,300,200,200,100,200,200,100,100,300,100,100,200,100,200,100,100,200,200,200,200,300,300,300,200,300,100,200,300,200,300,100,300,200,200,200,300,300,100,300,200,200,100,100,200,100,100,300,200,300,100,200,300,300,100,300,200,300,100,300,100,100,300,100,300,100,100,200,100,100,100,300,100,200,200,100,200,300],"left_num":[5,7,11,1,7,1,12,4,5,4,11,8,20,3,8,6,3,14,3,1,1,17,20,15,6,17,7,6,13,7,7,8,2,13,3,10,21,8,24,1,5,13,1,8,8,14,6,14,4,11,13,12,2,2,6,15,11,6,2,3,20,8,3,3,3,8,1,4,11,4,20,3,3,10,1,15,1,6,20,4,4,3,1,14,12,7,1,11,9,11,14,5,2,4,20,4,12,13,7,1,10,1,6,6,3,2,20,9,6,12,3,1,11,13,1,4,1,3,6,13],"right_num":[6,8,3,3,6,11,2,2,6,6,3,1,9,4,10,13,4,12,14,2,3,10,13,4,5,10,9,7,12,6,18,2,8,12,4,8,2,2,2,3,6,12,21,14,2,12,7,12,3,4,12,2,8,6,7,13,3,3,11,14,9,2,14,4,4,14,2,2,9,3,14,14,11,3,8,4,3,11,9,2,8,4,2,6,13,9,2,6,8,4,6,7,11,14,9,6,9,12,12,2,8,2,13,3,4,6,9,8,15,6,4,3,4,12,8,3,2,4,3,12],"left_den":[25,10,20,5,15,5,24,20,25,5,20,20,25,6,15,10,6,30,6,2,2,30,25,25,20,30,14,12,26,15,15,16,4,26,6,25,30,16,30,2,25,26,2,10,15,30,10,30,10,22,26,24,4,5,12,25,20,12,5,6,25,15,6,6,6,10,3,20,22,10,25,10,12,25,30,25,2,20,25,20,8,6,3,28,30,14,3,22,15,22,30,25,5,6,25,5,24,26,10,2,25,2,10,12,6,5,25,15,12,15,20,2,22,26,2,10,3,6,20,26],"right_den":[12,16,4,6,9,22,10,4,12,12,4,2,18,10,12,26,20,18,20,10,10,15,26,10,25,15,15,10,15,9,27,5,20,15,10,16,4,5,4,10,12,15,30,28,6,18,14,18,15,10,20,10,20,12,10,26,4,5,22,20,15,6,20,20,20,28,15,4,15,15,28,28,20,10,24,10,10,22,18,4,20,5,15,20,26,15,15,15,16,20,9,14,22,30,18,12,15,15,24,10,16,10,26,5,20,12,18,16,25,10,16,5,10,15,20,15,15,10,6,15],"correct_side":[2,1,2,2,2,2,1,2,2,1,2,2,1,1,2,1,1,2,2,1,1,2,1,1,1,2,2,2,2,2,2,1,1,2,1,2,1,1,1,1,2,2,2,1,1,2,1,2,1,1,2,1,1,2,2,1,2,2,2,2,1,1,2,1,1,1,1,2,2,1,1,2,2,1,2,1,1,2,1,2,1,2,1,1,2,2,1,1,1,1,2,2,2,1,1,1,2,2,1,1,2,1,1,2,1,2,1,1,2,1,2,2,1,2,1,1,1,1,2,2],"img_shown":["img2/300/Congruent/R/C_Dist_300_LN_5_LD_25_RN_6_RD_12_1.png","img2/200/Incongruent/L/I_Dist_200_LN_7_LD_10_RN_8_RD_16_0.png","img2/200/Incongruent/R/I_Dist_200_LN_11_LD_20_RN_3_RD_4_1.png","img2/300/Congruent/R/C_Dist_300_LN_1_LD_5_RN_3_RD_6_1.png","img2/200/Incongruent/R/I_Dist_200_LN_7_LD_15_RN_6_RD_9_1.png","img2/300/Congruent/R/C_Dist_300_LN_1_LD_5_RN_11_RD_22_1.png","img2/300/Congruent/L/C_Dist_300_LN_12_LD_24_RN_2_RD_10_0.png","img2/300/Incongruent/R/I_Dist_300_LN_4_LD_20_RN_2_RD_4_1.png","img2/300/Congruent/R/C_Dist_300_LN_5_LD_25_RN_6_RD_12_1.png","img2/300/Incongruent/L/I_Dist_300_LN_4_LD_5_RN_6_RD_12_0.png","img2/200/Incongruent/R/I_Dist_200_LN_11_LD_20_RN_3_RD_4_1.png","img2/100/Incongruent/R/I_Dist_100_LN_8_LD_20_RN_1_RD_2_1.png","img2/300/Congruent/L/C_Dist_300_LN_20_LD_25_RN_9_RD_18_0.png","img2/100/Incongruent/L/I_Dist_100_LN_3_LD_6_RN_4_RD_10_0.png","img2/300/Congruent/R/C_Dist_300_LN_8_LD_15_RN_10_RD_12_1.png","img2/100/Incongruent/L/I_Dist_100_LN_6_LD_10_RN_13_RD_26_0.png","img2/300/Incongruent/L/I_Dist_300_LN_3_LD_6_RN_4_RD_20_0.png","img2/200/Incongruent/R/I_Dist_200_LN_14_LD_30_RN_12_RD_18_1.png","img2/200/Congruent/R/C_Dist_200_LN_3_LD_6_RN_14_RD_20_1.png","img2/300/Incongruent/L/I_Dist_300_LN_1_LD_2_RN_2_RD_10_0.png","img2/200/Incongruent/L/I_Dist_200_LN_1_LD_2_RN_3_RD_10_0.png","img2/100/Incongruent/R/I_Dist_100_LN_17_LD_30_RN_10_RD_15_1.png","img2/300/Congruent/L/C_Dist_300_LN_20_LD_25_RN_13_RD_26_0.png","img2/200/Congruent/L/C_Dist_200_LN_15_LD_25_RN_4_RD_10_0.png","img2/100/Congruent/L/C_Dist_100_LN_6_LD_20_RN_5_RD_25_0.png","img2/100/Incongruent/R/I_Dist_100_LN_17_LD_30_RN_10_RD_15_1.png","img2/100/Congruent/R/C_Dist_100_LN_7_LD_14_RN_9_RD_15_1.png","img2/200/Congruent/R/C_Dist_200_LN_6_LD_12_RN_7_RD_10_1.png","img2/300/Incongruent/R/I_Dist_300_LN_13_LD_26_RN_12_RD_15_1.png","img2/200/Incongruent/R/I_Dist_200_LN_7_LD_15_RN_6_RD_9_1.png","img2/200/Congruent/R/C_Dist_200_LN_7_LD_15_RN_18_RD_27_1.png","img2/100/Congruent/L/C_Dist_100_LN_8_LD_16_RN_2_RD_5_0.png","img2/100/Incongruent/L/I_Dist_100_LN_2_LD_4_RN_8_RD_20_0.png","img2/300/Incongruent/R/I_Dist_300_LN_13_LD_26_RN_12_RD_15_1.png","img2/100/Incongruent/L/I_Dist_100_LN_3_LD_6_RN_4_RD_10_0.png","img2/100/Incongruent/R/I_Dist_100_LN_10_LD_25_RN_8_RD_16_1.png","img2/200/Congruent/L/C_Dist_200_LN_21_LD_30_RN_2_RD_4_0.png","img2/100/Congruent/L/C_Dist_100_LN_8_LD_16_RN_2_RD_5_0.png","img2/300/Congruent/L/C_Dist_300_LN_24_LD_30_RN_2_RD_4_0.png","img2/200/Incongruent/L/I_Dist_200_LN_1_LD_2_RN_3_RD_10_0.png","img2/300/Congruent/R/C_Dist_300_LN_5_LD_25_RN_6_RD_12_1.png","img2/300/Incongruent/R/I_Dist_300_LN_13_LD_26_RN_12_RD_15_1.png","img2/200/Congruent/R/C_Dist_200_LN_1_LD_2_RN_21_RD_30_1.png","img2/300/Incongruent/L/I_Dist_300_LN_8_LD_10_RN_14_RD_28_0.png","img2/200/Congruent/L/C_Dist_200_LN_8_LD_15_RN_2_RD_6_0.png","img2/200/Incongruent/R/I_Dist_200_LN_14_LD_30_RN_12_RD_18_1.png","img2/100/Incongruent/L/I_Dist_100_LN_6_LD_10_RN_7_RD_14_0.png","img2/200/Incongruent/R/I_Dist_200_LN_14_LD_30_RN_12_RD_18_1.png","img2/200/Congruent/L/C_Dist_200_LN_4_LD_10_RN_3_RD_15_0.png","img2/100/Congruent/L/C_Dist_100_LN_11_LD_22_RN_4_RD_10_0.png","img2/100/Incongruent/R/I_Dist_100_LN_13_LD_26_RN_12_RD_20_1.png","img2/300/Congruent/L/C_Dist_300_LN_12_LD_24_RN_2_RD_10_0.png","img2/100/Incongruent/L/I_Dist_100_LN_2_LD_4_RN_8_RD_20_0.png","img2/100/Congruent/R/C_Dist_100_LN_2_LD_5_RN_6_RD_12_1.png","img2/200/Congruent/R/C_Dist_200_LN_6_LD_12_RN_7_RD_10_1.png","img2/100/Congruent/L/C_Dist_100_LN_15_LD_25_RN_13_RD_26_0.png","img2/200/Incongruent/R/I_Dist_200_LN_11_LD_20_RN_3_RD_4_1.png","img2/100/Incongruent/R/I_Dist_100_LN_6_LD_12_RN_3_RD_5_1.png","img2/100/Congruent/R/C_Dist_100_LN_2_LD_5_RN_11_RD_22_1.png","img2/200/Congruent/R/C_Dist_200_LN_3_LD_6_RN_14_RD_20_1.png","img2/200/Congruent/L/C_Dist_200_LN_20_LD_25_RN_9_RD_15_0.png","img2/200/Congruent/L/C_Dist_200_LN_8_LD_15_RN_2_RD_6_0.png","img2/200/Congruent/R/C_Dist_200_LN_3_LD_6_RN_14_RD_20_1.png","img2/300/Incongruent/L/I_Dist_300_LN_3_LD_6_RN_4_RD_20_0.png","img2/300/Incongruent/L/I_Dist_300_LN_3_LD_6_RN_4_RD_20_0.png","img2/300/Incongruent/L/I_Dist_300_LN_8_LD_10_RN_14_RD_28_0.png","img2/200/Incongruent/L/I_Dist_200_LN_1_LD_3_RN_2_RD_15_0.png","img2/300/Incongruent/R/I_Dist_300_LN_4_LD_20_RN_2_RD_4_1.png","img2/100/Incongruent/R/I_Dist_100_LN_11_LD_22_RN_9_RD_15_1.png","img2/200/Congruent/L/C_Dist_200_LN_4_LD_10_RN_3_RD_15_0.png","img2/300/Congruent/L/C_Dist_300_LN_20_LD_25_RN_14_RD_28_0.png","img2/200/Congruent/R/C_Dist_200_LN_3_LD_10_RN_14_RD_28_1.png","img2/300/Congruent/R/C_Dist_300_LN_3_LD_12_RN_11_RD_20_1.png","img2/100/Congruent/L/C_Dist_100_LN_10_LD_25_RN_3_RD_10_0.png","img2/300/Congruent/R/C_Dist_300_LN_1_LD_30_RN_8_RD_24_1.png","img2/200/Congruent/L/C_Dist_200_LN_15_LD_25_RN_4_RD_10_0.png","img2/200/Incongruent/L/I_Dist_200_LN_1_LD_2_RN_3_RD_10_0.png","img2/200/Congruent/R/C_Dist_200_LN_6_LD_20_RN_11_RD_22_1.png","img2/300/Congruent/L/C_Dist_300_LN_20_LD_25_RN_9_RD_18_0.png","img2/300/Incongruent/R/I_Dist_300_LN_4_LD_20_RN_2_RD_4_1.png","img2/100/Incongruent/L/I_Dist_100_LN_4_LD_8_RN_8_RD_20_0.png","img2/300/Congruent/R/C_Dist_300_LN_3_LD_6_RN_4_RD_5_1.png","img2/200/Incongruent/L/I_Dist_200_LN_1_LD_3_RN_2_RD_15_0.png","img2/200/Congruent/L/C_Dist_200_LN_14_LD_28_RN_6_RD_20_0.png","img2/100/Congruent/R/C_Dist_100_LN_12_LD_30_RN_13_RD_26_1.png","img2/100/Congruent/R/C_Dist_100_LN_7_LD_14_RN_9_RD_15_1.png","img2/200/Incongruent/L/I_Dist_200_LN_1_LD_3_RN_2_RD_15_0.png","img2/100/Congruent/L/C_Dist_100_LN_11_LD_22_RN_6_RD_15_0.png","img2/100/Congruent/L/C_Dist_100_LN_9_LD_15_RN_8_RD_16_0.png","img2/300/Congruent/L/C_Dist_300_LN_11_LD_22_RN_4_RD_20_0.png","img2/200/Incongruent/R/I_Dist_200_LN_14_LD_30_RN_6_RD_9_1.png","img2/300/Congruent/R/C_Dist_300_LN_5_LD_25_RN_7_RD_14_1.png","img2/100/Congruent/R/C_Dist_100_LN_2_LD_5_RN_11_RD_22_1.png","img2/200/Incongruent/L/I_Dist_200_LN_4_LD_6_RN_14_RD_30_0.png","img2/300/Congruent/L/C_Dist_300_LN_20_LD_25_RN_9_RD_18_0.png","img2/300/Incongruent/L/I_Dist_300_LN_4_LD_5_RN_6_RD_12_0.png","img2/100/Incongruent/R/I_Dist_100_LN_12_LD_24_RN_9_RD_15_1.png","img2/300/Incongruent/R/I_Dist_300_LN_13_LD_26_RN_12_RD_15_1.png","img2/200/Incongruent/L/I_Dist_200_LN_7_LD_10_RN_12_RD_24_0.png","img2/300/Incongruent/L/I_Dist_300_LN_1_LD_2_RN_2_RD_10_0.png","img2/100/Incongruent/R/I_Dist_100_LN_10_LD_25_RN_8_RD_16_1.png","img2/300/Incongruent/L/I_Dist_300_LN_1_LD_2_RN_2_RD_10_0.png","img2/100/Incongruent/L/I_Dist_100_LN_6_LD_10_RN_13_RD_26_0.png","img2/100/Incongruent/R/I_Dist_100_LN_6_LD_12_RN_3_RD_5_1.png","img2/300/Incongruent/L/I_Dist_300_LN_3_LD_6_RN_4_RD_20_0.png","img2/100/Congruent/R/C_Dist_100_LN_2_LD_5_RN_6_RD_12_1.png","img2/300/Congruent/L/C_Dist_300_LN_20_LD_25_RN_9_RD_18_0.png","img2/100/Congruent/L/C_Dist_100_LN_9_LD_15_RN_8_RD_16_0.png","img2/100/Congruent/R/C_Dist_100_LN_6_LD_12_RN_15_RD_25_1.png","img2/200/Congruent/L/C_Dist_200_LN_12_LD_15_RN_6_RD_10_0.png","img2/100/Congruent/R/C_Dist_100_LN_3_LD_20_RN_4_RD_16_1.png","img2/100/Congruent/R/C_Dist_100_LN_1_LD_2_RN_3_RD_5_1.png","img2/100/Congruent/L/C_Dist_100_LN_11_LD_22_RN_4_RD_10_0.png","img2/300/Incongruent/R/I_Dist_300_LN_13_LD_26_RN_12_RD_15_1.png","img2/100/Incongruent/L/I_Dist_100_LN_1_LD_2_RN_8_RD_20_0.png","img2/200/Congruent/L/C_Dist_200_LN_4_LD_10_RN_3_RD_15_0.png","img2/200/Incongruent/L/I_Dist_200_LN_1_LD_3_RN_2_RD_15_0.png","img2/100/Incongruent/L/I_Dist_100_LN_3_LD_6_RN_4_RD_10_0.png","img2/200/Incongruent/R/I_Dist_200_LN_6_LD_20_RN_3_RD_6_1.png","img2/300/Incongruent/R/I_Dist_300_LN_13_LD_26_RN_12_RD_15_1.png"],"dist100_C":[["C_Dist_100_LN_10_LD_25_RN_3_RD_10_0.png","C_Dist_100_LN_11_LD_22_RN_4_RD_10_0.png","C_Dist_100_LN_11_LD_22_RN_6_RD_15_0.png","C_Dist_100_LN_15_LD_25_RN_13_RD_26_0.png","C_Dist_100_LN_3_LD_6_RN_2_RD_5_0.png","C_Dist_100_LN_6_LD_20_RN_5_RD_25_0.png","C_Dist_100_LN_8_LD_16_RN_2_RD_5_0.png","C_Dist_100_LN_9_LD_15_RN_8_RD_16_0.png"],["C_Dist_100_LN_1_LD_2_RN_18_RD_30_1.png","C_Dist_100_LN_1_LD_2_RN_3_RD_5_1.png","C_Dist_100_LN_12_LD_30_RN_13_RD_26_1.png","C_Dist_100_LN_2_LD_5_RN_11_RD_22_1.png","C_Dist_100_LN_2_LD_5_RN_6_RD_12_1.png","C_Dist_100_LN_3_LD_20_RN_4_RD_16_1.png","C_Dist_100_LN_4_LD_10_RN_15_RD_30_1.png","C_Dist_100_LN_4_LD_8_RN_6_RD_10_1.png","C_Dist_100_LN_6_LD_12_RN_15_RD_25_1.png","C_Dist_100_LN_7_LD_14_RN_15_RD_25_1.png","C_Dist_100_LN_7_LD_14_RN_9_RD_15_1.png"]],"dist100_I":[["I_Dist_100_LN_1_LD_2_RN_8_RD_20_0.png","I_Dist_100_LN_2_LD_4_RN_6_RD_15_0.png","I_Dist_100_LN_2_LD_4_RN_8_RD_20_0.png","I_Dist_100_LN_3_LD_5_RN_11_RD_22_0.png","I_Dist_100_LN_3_LD_5_RN_8_RD_16_0.png","I_Dist_100_LN_3_LD_6_RN_4_RD_10_0.png","I_Dist_100_LN_3_LD_9_RN_7_RD_30_0.png","I_Dist_100_LN_4_LD_8_RN_8_RD_20_0.png","I_Dist_100_LN_6_LD_10_RN_11_RD_22_0.png","I_Dist_100_LN_6_LD_10_RN_13_RD_26_0.png","I_Dist_100_LN_6_LD_10_RN_7_RD_14_0.png","I_Dist_100_LN_9_LD_10_RN_20_RD_25_0.png","I_Dist_100_LN_9_LD_15_RN_13_RD_26_0.png","I_Dist_100_LN_9_LD_15_RN_14_RD_28_0.png"],["I_Dist_100_LN_10_LD_25_RN_8_RD_16_1.png","I_Dist_100_LN_10_LD_25_RN_9_RD_18_1.png","I_Dist_100_LN_11_LD_22_RN_9_RD_15_1.png","I_Dist_100_LN_12_LD_24_RN_9_RD_15_1.png","I_Dist_100_LN_12_LD_30_RN_2_RD_4_1.png","I_Dist_100_LN_13_LD_26_RN_12_RD_20_1.png","I_Dist_100_LN_13_LD_26_RN_6_RD_10_1.png","I_Dist_100_LN_17_LD_30_RN_10_RD_15_1.png","I_Dist_100_LN_6_LD_12_RN_3_RD_5_1.png","I_Dist_100_LN_8_LD_16_RN_6_RD_10_1.png","I_Dist_100_LN_8_LD_20_RN_1_RD_2_1.png","I_Dist_100_LN_9_LD_18_RN_6_RD_10_1.png"]],"dist100_S":[["E_Dist_100_LN_2_LD_12_RN_2_RD_30_0.png","E_Dist_100_LN_6_LD_10_RN_6_RD_12_0.png"],["E_Dist_100_LN_6_LD_12_RN_6_RD_10_1.png"]],"dist200_C":[["C_Dist_200_LN_11_LD_22_RN_3_RD_10_0.png","C_Dist_200_LN_12_LD_15_RN_6_RD_10_0.png","C_Dist_200_LN_12_LD_20_RN_6_RD_15_0.png","C_Dist_200_LN_14_LD_28_RN_6_RD_20_0.png","C_Dist_200_LN_15_LD_25_RN_4_RD_10_0.png","C_Dist_200_LN_16_LD_20_RN_12_RD_20_0.png","C_Dist_200_LN_16_LD_30_RN_9_RD_27_0.png","C_Dist_200_LN_20_LD_25_RN_9_RD_15_0.png","C_Dist_200_LN_21_LD_30_RN_2_RD_4_0.png","C_Dist_200_LN_4_LD_10_RN_3_RD_15_0.png","C_Dist_200_LN_4_LD_8_RN_3_RD_10_0.png","C_Dist_200_LN_6_LD_15_RN_3_RD_15_0.png","C_Dist_200_LN_7_LD_21_RN_2_RD_15_0.png","C_Dist_200_LN_8_LD_15_RN_2_RD_6_0.png","C_Dist_200_LN_8_LD_15_RN_3_RD_9_0.png","C_Dist_200_LN_8_LD_15_RN_7_RD_21_0.png","C_Dist_200_LN_9_LD_20_RN_4_RD_16_0.png"],["C_Dist_200_LN_1_LD_2_RN_21_RD_30_1.png","C_Dist_200_LN_13_LD_26_RN_14_RD_20_1.png","C_Dist_200_LN_3_LD_10_RN_11_RD_22_1.png","C_Dist_200_LN_3_LD_10_RN_14_RD_28_1.png","C_Dist_200_LN_3_LD_10_RN_7_RD_14_1.png","C_Dist_200_LN_3_LD_12_RN_9_RD_20_1.png","C_Dist_200_LN_3_LD_6_RN_14_RD_20_1.png","C_Dist_200_LN_5_LD_10_RN_14_RD_20_1.png","C_Dist_200_LN_6_LD_12_RN_7_RD_10_1.png","C_Dist_200_LN_6_LD_20_RN_11_RD_22_1.png","C_Dist_200_LN_7_LD_15_RN_18_RD_27_1.png","C_Dist_200_LN_9_LD_30_RN_13_RD_26_1.png"]],"dist200_I":[["I_Dist_200_LN_1_LD_2_RN_3_RD_10_0.png","I_Dist_200_LN_1_LD_3_RN_2_RD_15_0.png","I_Dist_200_LN_3_LD_4_RN_11_RD_20_0.png","I_Dist_200_LN_4_LD_5_RN_6_RD_10_0.png","I_Dist_200_LN_4_LD_6_RN_14_RD_30_0.png","I_Dist_200_LN_7_LD_10_RN_12_RD_24_0.png","I_Dist_200_LN_7_LD_10_RN_14_RD_28_0.png","I_Dist_200_LN_7_LD_10_RN_8_RD_16_0.png"],["I_Dist_200_LN_11_LD_20_RN_3_RD_4_1.png","I_Dist_200_LN_14_LD_30_RN_12_RD_18_1.png","I_Dist_200_LN_14_LD_30_RN_6_RD_9_1.png","I_Dist_200_LN_3_LD_10_RN_1_RD_2_1.png","I_Dist_200_LN_4_LD_30_RN_1_RD_3_1.png","I_Dist_200_LN_6_LD_20_RN_3_RD_6_1.png","I_Dist_200_LN_7_LD_15_RN_4_RD_6_1.png","I_Dist_200_LN_7_LD_15_RN_6_RD_9_1.png","I_Dist_200_LN_9_LD_15_RN_8_RD_10_1.png"]],"dist200_S":[["E_Dist_200_LN_3_LD_6_RN_3_RD_10_0.png"],["E_Dist_200_LN_3_LD_10_RN_3_RD_6_1.png"]],"dist300_C":[["C_Dist_300_LN_11_LD_22_RN_1_RD_5_0.png","C_Dist_300_LN_11_LD_22_RN_2_RD_10_0.png","C_Dist_300_LN_11_LD_22_RN_4_RD_20_0.png","C_Dist_300_LN_12_LD_24_RN_2_RD_10_0.png","C_Dist_300_LN_18_LD_20_RN_9_RD_15_0.png","C_Dist_300_LN_20_LD_25_RN_13_RD_26_0.png","C_Dist_300_LN_20_LD_25_RN_14_RD_28_0.png","C_Dist_300_LN_20_LD_25_RN_5_RD_10_0.png","C_Dist_300_LN_20_LD_25_RN_8_RD_16_0.png","C_Dist_300_LN_20_LD_25_RN_9_RD_18_0.png","C_Dist_300_LN_24_LD_30_RN_2_RD_4_0.png","C_Dist_300_LN_24_LD_30_RN_8_RD_16_0.png","C_Dist_300_LN_3_LD_6_RN_2_RD_10_0.png","C_Dist_300_LN_4_LD_10_RN_1_RD_10_0.png","C_Dist_300_LN_4_LD_5_RN_2_RD_4_0.png","C_Dist_300_LN_8_LD_16_RN_1_RD_5_0.png","C_Dist_300_LN_9_LD_10_RN_3_RD_5_0.png"],["C_Dist_300_LN_1_LD_20_RN_7_RD_20_1.png","C_Dist_300_LN_1_LD_3_RN_19_RD_30_1.png","C_Dist_300_LN_1_LD_30_RN_8_RD_24_1.png","C_Dist_300_LN_1_LD_5_RN_11_RD_22_1.png","C_Dist_300_LN_1_LD_5_RN_3_RD_6_1.png","C_Dist_300_LN_1_LD_5_RN_6_RD_12_1.png","C_Dist_300_LN_2_LD_10_RN_12_RD_24_1.png","C_Dist_300_LN_2_LD_20_RN_10_RD_25_1.png","C_Dist_300_LN_3_LD_12_RN_11_RD_20_1.png","C_Dist_300_LN_3_LD_6_RN_4_RD_5_1.png","C_Dist_300_LN_4_LD_20_RN_13_RD_26_1.png","C_Dist_300_LN_5_LD_25_RN_6_RD_12_1.png","C_Dist_300_LN_5_LD_25_RN_7_RD_14_1.png","C_Dist_300_LN_7_LD_14_RN_20_RD_25_1.png","C_Dist_300_LN_8_LD_15_RN_10_RD_12_1.png"]],"dist300_I":[["I_Dist_300_LN_1_LD_2_RN_2_RD_10_0.png","I_Dist_300_LN_1_LD_2_RN_3_RD_15_0.png","I_Dist_300_LN_2_LD_4_RN_6_RD_30_0.png","I_Dist_300_LN_3_LD_6_RN_4_RD_20_0.png","I_Dist_300_LN_4_LD_5_RN_6_RD_12_0.png","I_Dist_300_LN_4_LD_5_RN_8_RD_16_0.png","I_Dist_300_LN_7_LD_10_RN_8_RD_20_0.png","I_Dist_300_LN_8_LD_10_RN_14_RD_28_0.png","I_Dist_300_LN_8_LD_10_RN_9_RD_18_0.png"],["I_Dist_300_LN_13_LD_26_RN_12_RD_15_1.png","I_Dist_300_LN_4_LD_20_RN_2_RD_4_1.png"]],"dist300_S":[["E_Dist_300_LN_9_LD_12_RN_9_RD_20_0.png"],["E_Dist_300_LN_18_LD_30_RN_18_RD_20_1.png","E_Dist_300_LN_3_LD_10_RN_3_RD_5_1.png","E_Dist_300_LN_9_LD_20_RN_9_RD_12_1.png"]],"dist500_C":[["C_Dist_500_LN_10_LD_13_RN_7_RD_26_0.png","C_Dist_500_LN_10_LD_15_RN_4_RD_24_0.png","C_Dist_500_LN_12_LD_16_RN_3_RD_12_0.png","C_Dist_500_LN_12_LD_18_RN_4_RD_24_0.png","C_Dist_500_LN_15_LD_18_RN_5_RD_15_0.png","C_Dist_500_LN_15_LD_20_RN_1_RD_4_0.png","C_Dist_500_LN_18_LD_27_RN_1_RD_6_0.png","C_Dist_500_LN_20_LD_24_RN_1_RD_3_0.png","C_Dist_500_LN_20_LD_24_RN_3_RD_9_0.png","C_Dist_500_LN_20_LD_24_RN_7_RD_21_0.png","C_Dist_500_LN_20_LD_28_RN_3_RD_14_0.png","C_Dist_500_LN_21_LD_28_RN_6_RD_24_0.png","C_Dist_500_LN_22_LD_28_RN_2_RD_7_0.png","C_Dist_500_LN_25_LD_30_RN_9_RD_27_0.png","C_Dist_500_LN_4_LD_6_RN_1_RD_6_0.png","C_Dist_500_LN_5_LD_6_RN_2_RD_6_0.png","C_Dist_500_LN_6_LD_9_RN_1_RD_6_0.png","C_Dist_500_LN_7_LD_10_RN_1_RD_5_0.png","C_Dist_500_LN_8_LD_12_RN_1_RD_6_0.png","C_Dist_500_LN_8_LD_12_RN_4_RD_24_0.png"],["C_Dist_500_LN_1_LD_4_RN_12_RD_16_1.png","C_Dist_500_LN_1_LD_4_RN_9_RD_12_1.png","C_Dist_500_LN_1_LD_9_RN_11_RD_18_1.png","C_Dist_500_LN_10_LD_24_RN_22_RD_24_1.png","C_Dist_500_LN_2_LD_12_RN_10_RD_15_1.png","C_Dist_500_LN_2_LD_12_RN_12_RD_18_1.png","C_Dist_500_LN_2_LD_12_RN_4_RD_6_1.png","C_Dist_500_LN_2_LD_24_RN_7_RD_12_1.png","C_Dist_500_LN_2_LD_5_RN_18_RD_20_1.png","C_Dist_500_LN_2_LD_5_RN_9_RD_10_1.png","C_Dist_500_LN_2_LD_8_RN_12_RD_16_1.png","C_Dist_500_LN_2_LD_8_RN_21_RD_28_1.png","C_Dist_500_LN_3_LD_10_RN_4_RD_5_1.png","C_Dist_500_LN_3_LD_12_RN_15_RD_20_1.png","C_Dist_500_LN_3_LD_30_RN_6_RD_10_1.png","C_Dist_500_LN_3_LD_8_RN_14_RD_16_1.png","C_Dist_500_LN_4_LD_16_RN_15_RD_20_1.png","C_Dist_500_LN_4_LD_24_RN_12_RD_18_1.png","C_Dist_500_LN_5_LD_14_RN_6_RD_7_1.png","C_Dist_500_LN_7_LD_21_RN_20_RD_24_1.png","C_Dist_500_LN_7_LD_28_RN_12_RD_16_1.png","C_Dist_500_LN_7_LD_28_RN_9_RD_12_1.png","C_Dist_500_LN_9_LD_27_RN_20_RD_24_1.png"]],"dist500_I":[["I_Dist_500_LN_2_LD_3_RN_4_RD_24_0.png","I_Dist_500_LN_5_LD_6_RN_6_RD_18_0.png","I_Dist_500_LN_7_LD_8_RN_9_RD_24_0.png"],["I_Dist_500_LN_7_LD_21_RN_5_RD_6_1.png"]],"dist500_S":[["E_Dist_500_LN_6_LD_8_RN_6_RD_24_0.png"],["E_Dist_500_LN_2_LD_12_RN_2_RD_3_1.png","E_Dist_500_LN_6_LD_24_RN_6_RD_8_1.png"]]}},{"start_time":1551883054424,"click_time":1551883056134,"finger_time":1551883055813,"fix_duration":250,"trial":1,"RT":1389,"MT":321,"sideResp":1,"stimulus":[],"xmouse":[767,767,767,767,767,767,768,769,769,769,769,769,769,769,769,769,769,769,769,769,769,769,769,769,769,769,769,769,769,769,769,769,769,769,769,769,769,769,769,769,769,769,769,769,769,769,769,769,769,769,769,769,769,769,769,769,769,769,769,769,769,769,769,769,769,769,769,770,771,771,762,744,672,640,605,605,605,605,605,605,605,605,605,605,475,464],"ymouse":[514,514,514,514,514,514,514,514,514,514,514,514,514,514,514,514,514,514,514,514,514,514,514,514,514,514,514,514,514,514,514,514,514,514,514,514,514,514,514,514,514,514,514,514,514,514,514,514,514,514,514,514,514,514,514,514,514,514,514,514,514,514,514,514,508,503,499,491,476,459,422,382,227,121,23,23,23,23,23,23,23,23,23,23,0,19],"timestamp_mouse":[9,37,48,68,88,109,129,149,168,188,208,228,248,268,288,308,328,348,368,389,408,429,448,470,489,509,530,548,568,589,608,628,648,669,688,709,729,748,768,789,808,829,848,869,889,908,929,948,968,989,1009,1028,1048,1068,1088,1108,1129,1148,1169,1188,1208,1229,1249,1269,1288,1308,1328,1348,1368,1389,1409,1430,1449,1469,1488,1508,1528,1549,1569,1589,1608,1629,1649,1669,1688,1710],"xSR":741.5,"ySR":469.95,"xT1":424.9,"yT1":0,"xT2":1058.1,"yT2":0,"toosoon":0,"cond_shown":"Incongruent","ratio_trial":200,"L_num":7,"L_den":10,"R_num":8,"R_den":16,"correct_side":1,"subjID":"gabrielabernaljimenez38","gender":"1","school":"6","age":"11"},{"start_time":1551883057673,"click_time":1551883058572,"finger_time":1551883058234,"fix_duration":559.3177453455673,"trial":2,"RT":561,"MT":338,"sideResp":1,"stimulus":[],"xmouse":[795,796,797,797,797,797,798,798,798,798,798,798,798,798,798,799,800,800,800,800,800,800,800,802,802,802,798,793,774,761,744,726,701,637,602,566,555,533,530,530,530,530,527,521],"ymouse":[501,499,498,498,498,498,496,496,495,494,494,494,494,494,492,491,490,490,490,490,490,490,490,485,479,471,445,426,373,336,298,255,215,143,116,90,84,75,74,74,74,74,74,74],"timestamp_mouse":[40,60,80,99,119,140,160,180,200,219,240,259,280,300,319,339,361,380,399,421,440,459,480,500,521,539,561,579,599,619,640,660,680,699,720,739,759,780,800,820,840,859,880,899],"xSR":741.5,"ySR":469.95,"xT1":424.9,"yT1":0,"xT2":1058.1,"yT2":0,"toosoon":0,"cond_shown":"Incongruent","ratio_trial":200,"L_num":11,"L_den":20,"R_num":3,"R_den":4,"correct_side":2,"subjID":"gabrielabernaljimenez38","gender":"1","school":"6","age":"11"},{"start_time":1551883059934,"click_time":1551883061634,"finger_time":1551883061272,"fix_duration":578.1160366448114,"trial":3,"RT":1338,"MT":362,"sideResp":2,"stimulus":[],"xmouse":[777,777,777,777,777,777,777,777,777,781,782,784,786,788,788,788,789,791,791,791,791,791,791,791,791,791,791,791,791,791,791,791,791,791,791,791,791,791,791,791,791,791,791,791,791,791,791,791,791,791,791,791,791,791,791,791,791,791,791,791,791,791,792,794,794,797,801,840,908,990,1068,1133,1184,1186,1186,1186,1186,1186,1186,1186,1185,1178,1163,1159,1152,1146],"ymouse":[525,525,525,525,525,525,525,525,525,522,521,519,518,516,516,516,516,515,515,515,515,515,515,515,515,515,515,515,515,515,515,515,515,515,515,515,515,515,515,515,515,515,515,515,515,515,515,515,515,515,515,515,515,515,515,515,515,515,515,515,515,515,515,511,508,503,497,466,416,354,285,232,185,181,181,181,181,181,179,160,141,126,108,104,101,98],"timestamp_mouse":[1,18,38,58,78,99,118,138,158,178,198,220,238,258,278,299,318,338,358,379,398,419,438,458,479,498,518,539,558,580,599,618,638,659,678,699,719,738,759,778,799,819,838,860,878,898,919,938,960,978,998,1018,1039,1058,1079,1098,1119,1139,1159,1178,1199,1219,1238,1259,1278,1298,1318,1338,1358,1379,1399,1418,1439,1460,1478,1498,1519,1539,1559,1578,1599,1618,1638,1658,1679,1700],"xSR":741.5,"ySR":469.95,"xT1":424.9,"yT1":0,"xT2":1058.1,"yT2":0,"toosoon":0,"cond_shown":"Congruent","ratio_trial":300,"L_num":1,"L_den":5,"R_num":3,"R_den":6,"correct_side":2,"subjID":"gabrielabernaljimenez38","gender":"1","school":"6","age":"11"},{"start_time":1551883063832,"click_time":1551883065153,"finger_time":1551883064654,"fix_duration":1196.8996424292627,"trial":4,"RT":822,"MT":499,"sideResp":2,"stimulus":[],"xmouse":[799,799,799,799,799,799,799,799,799,799,800,800,800,800,800,800,800,800,800,800,800,798,795,795,795,795,795,795,795,795,795,795,795,795,795,795,795,795,795,795,801,811,849,878,906,934,960,999,1012,1028,1035,1043,1062,1066,1067,1067,1067,1067,1067,1067,1067,1067,1067,1067,1069,1077,1090],"ymouse":[505,505,505,505,505,505,505,505,505,505,503,502,502,501,501,501,501,500,498,494,492,489,485,485,485,485,485,485,485,485,485,485,485,485,485,485,485,485,485,483,474,463,412,373,337,298,266,212,194,169,160,150,132,127,121,113,109,109,109,109,109,109,109,109,108,103,94],"timestamp_mouse":[8,20,50,61,80,100,120,141,160,180,201,220,242,260,281,300,321,340,362,381,401,422,440,460,480,500,522,541,560,581,601,622,641,660,680,701,721,740,760,780,800,822,841,860,881,900,921,940,960,981,1001,1021,1041,1061,1080,1100,1122,1141,1160,1180,1200,1221,1240,1260,1281,1302,1321],"xSR":741.5,"ySR":469.95,"xT1":424.9,"yT1":0,"xT2":1058.1,"yT2":0,"toosoon":0,"cond_shown":"Incongruent","ratio_trial":200,"L_num":7,"L_den":15,"R_num":6,"R_den":9,"correct_side":2,"subjID":"gabrielabernaljimenez38","gender":"1","school":"6","age":"11"},{"start_time":1551883066777,"click_time":1551883067934,"finger_time":1551883067493,"fix_duration":603.4081187646124,"trial":5,"RT":716,"MT":441,"sideResp":2,"stimulus":[],"xmouse":[788,788,788,788,788,788,788,788,788,788,788,788,788,788,788,788,788,788,788,788,788,788,788,788,786,783,782,782,782,782,782,782,782,782,802,829,875,940,994,1066,1087,1098,1111,1116,1125,1129,1135,1137,1141,1144,1146,1146,1146,1146,1146,1145,1142,1140],"ymouse":[515,515,515,515,515,515,515,515,515,515,515,515,515,515,515,515,515,515,515,515,515,515,512,507,483,475,474,474,474,474,474,474,474,474,471,466,453,436,415,373,353,337,310,296,266,248,226,208,192,161,147,137,129,121,115,110,103,98],"timestamp_mouse":[16,35,56,75,95,115,135,155,177,195,215,235,255,275,296,316,336,355,376,395,415,435,457,475,495,515,536,556,576,595,615,635,655,676,696,716,735,755,775,795,816,835,855,876,895,915,935,955,976,995,1015,1035,1056,1075,1095,1116,1136,1156],"xSR":741.5,"ySR":469.95,"xT1":424.9,"yT1":0,"xT2":1058.1,"yT2":0,"toosoon":0,"cond_shown":"Congruent","ratio_trial":300,"L_num":1,"L_den":5,"R_num":11,"R_den":22,"correct_side":2,"subjID":"gabrielabernaljimenez38","gender":"1","school":"6","age":"11"},{"start_time":1551883070096,"click_time":1551883071072,"finger_time":1551883070672,"fix_duration":1141.8250336173785,"trial":6,"RT":576,"MT":400,"sideResp":1,"stimulus":[],"xmouse":[794,794,794,795,795,796,796,796,798,798,798,798,798,799,799,800,800,800,800,800,800,800,800,800,800,800,798,794,775,756,734,707,677,627,613,605,594,588,564,551,544,541,541,541,541,541,541,539,524],"ymouse":[514,514,514,514,514,513,513,513,512,512,512,512,511,511,510,510,510,510,510,510,510,510,506,504,501,498,491,477,431,385,317,262,216,159,146,137,122,114,80,67,58,55,55,55,55,55,55,55,56],"timestamp_mouse":[17,42,57,76,96,116,136,157,176,197,216,236,257,276,298,317,336,358,378,396,417,436,456,476,497,516,536,556,576,596,616,636,657,676,696,717,736,756,776,796,817,837,857,877,897,917,936,957,976],"xSR":741.5,"ySR":469.95,"xT1":424.9,"yT1":0,"xT2":1058.1,"yT2":0,"toosoon":0,"cond_shown":"Congruent","ratio_trial":300,"L_num":12,"L_den":24,"R_num":2,"R_den":10,"correct_side":1,"subjID":"gabrielabernaljimenez38","gender":"1","school":"6","age":"11"},{"start_time":1551883074007,"click_time":1551883075292,"finger_time":1551883074373,"fix_duration":833.8308630627209,"trial":7,"RT":366,"MT":919,"sideResp":2,"stimulus":[],"xmouse":[821,821,821,821,822,823,825,827,829,830,831,832,833,834,835,836,837,840,848,850,850,848,845,838,831,825,825,824,832,845,877,898,916,936,940,941,942,942,942,943,955,966,976,991,996,1001,1003,1011,1022,1022,1022,1022,1022,1022,1022,1023,1024,1031,1039,1044,1045,1046,1049,1058,1059],"ymouse":[531,531,531,531,530,527,524,521,515,513,511,508,506,501,497,495,488,479,451,437,426,418,413,406,400,396,394,394,382,367,333,309,290,262,253,248,245,245,245,243,228,212,198,161,147,135,115,70,37,36,36,36,36,36,36,36,38,49,59,63,64,64,64,67,67],"timestamp_mouse":[10,30,45,67,86,105,126,146,165,186,205,225,245,265,286,307,325,345,366,385,407,425,446,465,485,505,525,545,565,586,605,625,646,665,685,705,727,745,765,786,805,825,846,865,885,906,926,946,965,985,1007,1026,1045,1067,1087,1106,1126,1145,1165,1185,1207,1226,1245,1265,1285],"xSR":741.5,"ySR":469.95,"xT1":424.9,"yT1":0,"xT2":1058.1,"yT2":0,"toosoon":0,"cond_shown":"Incongruent","ratio_trial":300,"L_num":4,"L_den":20,"R_num":2,"R_den":4,"correct_side":2,"subjID":"gabrielabernaljimenez38","gender":"1","school":"6","age":"11"},{"start_time":1551883077791,"click_time":1551883079033,"finger_time":1551883078672,"fix_duration":1118.986299081929,"trial":8,"RT":881,"MT":361,"sideResp":2,"stimulus":[],"xmouse":[782,782,782,782,782,782,782,782,782,782,782,782,782,782,782,782,782,782,782,782,782,782,782,782,782,782,782,782,782,782,782,782,782,782,782,782,782,782,782,782,782,782,782,795,883,947,1021,1103,1182,1300,1322,1334,1334,1334,1334,1334,1334,1334,1334,1327,1302,1245,1143],"ymouse":[493,493,493,493,493,493,493,493,493,493,493,493,493,493,493,493,493,493,493,493,493,493,493,493,493,493,493,493,493,493,493,493,493,493,493,493,493,493,493,493,493,493,492,481,422,373,316,258,200,118,98,84,84,84,84,84,84,84,84,76,68,52,28],"timestamp_mouse":[9,34,42,62,81,101,121,141,161,181,201,221,241,262,281,302,321,342,361,381,401,423,442,462,482,501,522,541,561,582,602,621,642,661,681,703,722,741,761,781,801,821,842,862,881,901,921,941,961,982,1001,1021,1042,1062,1082,1101,1122,1143,1162,1181,1202,1221,1241],"xSR":741.5,"ySR":469.95,"xT1":424.9,"yT1":0,"xT2":1058.1,"yT2":0,"toosoon":0,"cond_shown":"Congruent","ratio_trial":300,"L_num":5,"L_den":25,"R_num":6,"R_den":12,"correct_side":2,"subjID":"gabrielabernaljimenez38","gender":"1","school":"6","age":"11"},{"start_time":1551883080663,"click_time":1551883081492,"finger_time":1551883081372,"fix_duration":530.8478620251094,"trial":9,"RT":709,"MT":120,"sideResp":1,"stimulus":[],"xmouse":[779,779,779,779,779,779,779,779,779,779,779,779,779,779,779,779,779,779,779,779,779,779,779,779,779,779,779,779,779,779,779,779,779,776,774,751,731,704,657,614,539,510],"ymouse":[529,529,529,529,529,529,529,529,529,529,529,529,529,529,529,529,529,529,529,528,521,521,521,521,521,521,521,521,521,521,521,521,521,514,504,431,383,325,246,192,104,73],"timestamp_mouse":[10,39,49,69,90,111,129,149,169,189,209,229,249,270,289,309,329,349,369,390,409,429,449,470,490,509,530,550,570,590,609,630,650,670,689,709,729,749,769,790,810,829],"xSR":741.5,"ySR":469.95,"xT1":424.9,"yT1":0,"xT2":1058.1,"yT2":0,"toosoon":0,"cond_shown":"Incongruent","ratio_trial":300,"L_num":4,"L_den":5,"R_num":6,"R_den":12,"correct_side":1,"subjID":"gabrielabernaljimenez38","gender":"1","school":"6","age":"11"},{"start_time":1551883083003,"click_time":1551883083572,"finger_time":1551883083432,"fix_duration":250,"trial":10,"RT":429,"MT":140,"sideResp":1,"stimulus":[],"xmouse":[807,807,807,807,807,807,807,807,807,807,807,807,807,807,807,807,807,807,807,807,807,800,790,753,729,695,656,611,501],"ymouse":[507,507,507,507,507,507,507,507,507,507,507,507,507,507,507,507,507,507,502,494,483,462,443,399,368,324,271,208,82],"timestamp_mouse":[10,34,50,70,89,109,129,149,169,189,209,229,249,269,289,309,329,349,370,390,409,429,449,469,489,509,529,550,569],"xSR":741.5,"ySR":469.95,"xT1":424.9,"yT1":0,"xT2":1058.1,"yT2":0,"toosoon":0,"cond_shown":"Incongruent","ratio_trial":200,"L_num":11,"L_den":20,"R_num":3,"R_den":4,"correct_side":2,"subjID":"gabrielabernaljimenez38","gender":"1","school":"6","age":"11"},{"start_time":1551883085464,"click_time":1551883086671,"finger_time":1551883085852,"fix_duration":250,"trial":11,"RT":388,"MT":819,"sideResp":2,"stimulus":[],"xmouse":[809,809,809,809,809,809,809,809,809,809,809,809,809,809,809,809,809,818,826,845,863,866,867,867,867,867,867,867,867,867,867,867,871,882,896,938,962,981,991,992,992,992,992,992,993,1003,1034,1046,1094,1118,1141,1141,1141,1141,1141,1141,1135,1120,1090,1074,1062],"ymouse":[495,495,495,495,495,495,495,495,495,495,495,495,495,495,495,495,495,485,476,454,428,423,421,421,421,421,421,421,421,421,421,421,417,403,387,344,319,303,291,289,289,289,289,289,289,287,266,255,212,180,134,124,122,122,122,122,122,119,109,104,99],"timestamp_mouse":[8,38,47,67,88,107,127,148,166,188,207,226,248,268,286,308,327,347,367,388,407,428,447,467,488,507,526,547,567,588,607,626,647,666,687,706,728,748,767,787,807,827,847,867,888,907,927,948,967,987,1007,1027,1047,1066,1087,1107,1128,1147,1167,1188,1206],"xSR":741.5,"ySR":469.95,"xT1":424.9,"yT1":0,"xT2":1058.1,"yT2":0,"toosoon":0,"cond_shown":"Incongruent","ratio_trial":100,"L_num":8,"L_den":20,"R_num":1,"R_den":2,"correct_side":2,"subjID":"gabrielabernaljimenez38","gender":"1","school":"6","age":"11"},{"start_time":1551883089183,"click_time":1551883090111,"finger_time":1551883089792,"fix_duration":250,"trial":12,"RT":609,"MT":319,"sideResp":1,"stimulus":[],"xmouse":[791,791,791,791,791,791,791,791,791,791,791,791,791,791,791,791,791,791,791,791,791,791,791,791,791,791,791,791,791,774,745,702,675,649,581,548,548,548,548,548,548,548,548,548,548,548,482],"ymouse":[553,553,553,553,553,553,553,553,553,553,553,553,553,553,553,553,553,553,553,553,553,553,553,553,553,553,553,553,549,519,468,362,288,208,62,8,8,8,8,8,8,8,8,8,8,8,7],"timestamp_mouse":[10,35,49,69,88,108,127,148,169,189,209,228,248,267,288,308,329,348,368,388,408,429,449,467,488,507,529,549,569,588,609,628,649,667,688,708,729,748,768,789,808,828,848,868,889,907,928],"xSR":741.5,"ySR":469.95,"xT1":424.9,"yT1":0,"xT2":1058.1,"yT2":0,"toosoon":0,"cond_shown":"Congruent","ratio_trial":300,"L_num":20,"L_den":25,"R_num":9,"R_den":18,"correct_side":1,"subjID":"gabrielabernaljimenez38","gender":"1","school":"6","age":"11"},{"start_time":1551883091797,"click_time":1551883092511,"finger_time":1551883092171,"fix_duration":604.6487099870675,"trial":13,"RT":374,"MT":340,"sideResp":2,"stimulus":[],"xmouse":[782,782,782,782,782,782,782,782,782,782,782,782,782,785,789,791,800,816,874,901,919,920,920,920,920,920,920,920,919,919,924,943,965,1010,1034,1063],"ymouse":[524,524,524,524,524,524,524,524,524,524,524,524,524,523,522,521,516,506,466,441,418,413,410,405,405,405,405,405,387,367,345,309,274,218,169,99],"timestamp_mouse":[15,38,55,75,95,113,134,154,173,195,215,233,254,274,294,314,334,353,374,394,414,435,455,474,494,513,534,554,574,594,614,634,655,673,694,714],"xSR":741.5,"ySR":469.95,"xT1":424.9,"yT1":0,"xT2":1058.1,"yT2":0,"toosoon":0,"cond_shown":"Incongruent","ratio_trial":100,"L_num":3,"L_den":6,"R_num":4,"R_den":10,"correct_side":1,"subjID":"gabrielabernaljimenez38","gender":"1","school":"6","age":"11"},{"start_time":1551883093652,"click_time":1551883094751,"finger_time":1551883093991,"fix_duration":260.6354826178412,"trial":14,"RT":339,"MT":760,"sideResp":1,"stimulus":[],"xmouse":[756,756,758,758,759,760,763,764,764,764,764,764,764,765,765,765,760,750,732,720,693,676,653,630,610,575,566,555,538,531,525,523,521,520,520,520,521,522,524,529,532,532,532,532,532,532,532,532,532,532,532,532,532,532,465],"ymouse":[524,524,523,522,521,520,518,518,518,518,518,518,518,516,512,477,445,414,374,358,329,315,298,284,271,239,229,218,201,197,190,186,178,170,163,153,151,144,122,88,13,13,13,13,13,13,13,13,13,13,13,13,13,13,2],"timestamp_mouse":[19,39,59,78,99,119,139,158,180,198,219,239,259,279,300,319,339,359,379,399,419,439,459,479,500,519,539,559,579,600,618,639,659,679,700,718,739,759,779,800,819,839,859,879,899,920,940,959,980,1000,1019,1039,1060,1079,1099],"xSR":741.5,"ySR":469.95,"xT1":424.9,"yT1":0,"xT2":1058.1,"yT2":0,"toosoon":0,"cond_shown":"Congruent","ratio_trial":300,"L_num":8,"L_den":15,"R_num":10,"R_den":12,"correct_side":2,"subjID":"gabrielabernaljimenez38","gender":"1","school":"6","age":"11"},{"start_time":1551883096774,"click_time":1551883097471,"finger_time":1551883097331,"fix_duration":1002.0589607113704,"trial":15,"RT":557,"MT":140,"sideResp":2,"stimulus":[],"xmouse":[798,798,798,798,798,798,798,798,798,798,798,798,798,798,798,798,798,798,798,798,798,798,798,798,798,799,805,815,839,916,953,987,1026,1055,1102],"ymouse":[484,484,484,484,484,484,484,484,484,484,484,484,484,484,484,484,484,484,484,484,484,484,484,484,484,484,477,460,432,343,300,259,204,165,98],"timestamp_mouse":[18,37,56,78,97,118,137,157,177,196,217,237,257,278,297,317,337,356,377,398,416,438,457,477,497,517,537,557,578,597,618,637,657,677,697],"xSR":741.5,"ySR":469.95,"xT1":424.9,"yT1":0,"xT2":1058.1,"yT2":0,"toosoon":0,"cond_shown":"Incongruent","ratio_trial":100,"L_num":6,"L_den":10,"R_num":13,"R_den":26,"correct_side":1,"subjID":"gabrielabernaljimenez38","gender":"1","school":"6","age":"11"},{"start_time":1551883099169,"click_time":1551883101112,"finger_time":1551883100071,"fix_duration":396.91217576223903,"trial":16,"RT":902,"MT":1041,"sideResp":1,"stimulus":[],"xmouse":[802,802,802,802,802,802,802,802,802,802,802,802,802,802,802,802,802,802,802,802,802,802,802,802,802,802,802,802,802,802,802,802,802,802,802,802,802,802,802,802,802,802,802,803,815,870,909,952,986,1004,1012,1014,1014,1014,1014,1014,1014,1014,1014,1014,1014,1014,1014,1014,1014,1014,1014,1014,1014,1014,1014,1014,1014,1014,1014,1013,1004,994,978,952,872,820,772,730,723,723,723,723,722,720,701,679,651,600,575,542,528,513],"ymouse":[514,514,514,514,514,514,514,514,514,514,514,514,514,514,514,514,514,514,514,514,514,514,514,514,514,514,514,514,514,514,514,514,514,514,514,514,514,514,514,514,514,514,514,511,494,417,353,278,198,138,77,58,48,48,48,48,48,48,48,48,48,48,48,48,48,48,48,48,48,48,48,48,48,48,48,47,48,49,50,50,40,33,22,15,13,13,13,13,13,13,14,16,21,27,30,35,37,39],"timestamp_mouse":[10,21,42,63,82,102,122,143,161,183,203,222,241,262,281,302,322,343,361,382,403,422,442,462,482,502,522,541,561,582,603,622,642,662,683,701,722,743,761,782,802,823,843,862,882,902,922,942,963,983,1003,1023,1043,1062,1082,1103,1123,1142,1162,1181,1203,1222,1243,1263,1283,1303,1323,1343,1361,1382,1402,1422,1443,1462,1481,1502,1522,1542,1562,1583,1602,1621,1642,1662,1683,1703,1723,1742,1762,1783,1802,1823,1843,1862,1883,1902,1922,1943],"xSR":741.5,"ySR":469.95,"xT1":424.9,"yT1":0,"xT2":1058.1,"yT2":0,"toosoon":0,"cond_shown":"Incongruent","ratio_trial":300,"L_num":3,"L_den":6,"R_num":4,"R_den":20,"correct_side":1,"subjID":"gabrielabernaljimenez38","gender":"1","school":"6","age":"11"},{"start_time":1551883103398,"click_time":1551883105491,"finger_time":1551883104952,"fix_duration":783.1398414810044,"trial":17,"RT":1554,"MT":539,"sideResp":1,"stimulus":[],"xmouse":[774,774,774,774,774,774,774,774,774,774,774,774,774,774,774,774,774,774,774,774,774,774,774,774,774,774,774,774,774,774,774,774,774,774,774,774,774,774,774,774,774,774,774,774,774,774,774,774,774,774,774,774,774,774,774,774,774,774,774,774,774,774,774,774,774,774,774,774,774,774,774,774,774,774,774,774,774,755,709,666,601,574,556,544,544,544,544,544,544,544,544,544,545,549,549,546,537,523,496,488,487,484,483,479,477],"ymouse":[494,494,494,494,494,494,494,494,494,494,494,494,494,494,494,494,494,494,494,494,494,494,494,494,494,494,494,494,494,494,494,494,494,494,494,494,494,494,494,494,494,494,494,494,494,494,494,494,494,494,494,494,494,494,494,494,494,494,494,494,494,494,494,494,494,494,494,494,494,494,494,494,494,494,494,494,494,465,416,376,325,301,279,254,251,250,250,250,250,250,250,248,243,227,215,199,180,159,127,115,113,110,108,100,95],"timestamp_mouse":[13,37,54,73,94,114,134,152,173,192,214,232,253,273,292,313,334,353,373,393,412,433,452,474,492,513,533,553,573,593,614,632,653,673,693,713,733,753,772,793,813,833,853,873,893,913,932,954,972,994,1014,1033,1053,1073,1094,1112,1132,1153,1173,1193,1212,1234,1253,1273,1294,1312,1334,1354,1373,1393,1413,1434,1453,1474,1494,1513,1532,1554,1573,1593,1613,1634,1654,1673,1693,1713,1733,1754,1773,1794,1813,1833,1853,1873,1893,1913,1933,1953,1972,1992,2014,2033,2054,2072,2093],"xSR":741.5,"ySR":469.95,"xT1":424.9,"yT1":0,"xT2":1058.1,"yT2":0,"toosoon":0,"cond_shown":"Incongruent","ratio_trial":200,"L_num":14,"L_den":30,"R_num":12,"R_den":18,"correct_side":2,"subjID":"gabrielabernaljimenez38","gender":"1","school":"6","age":"11"},{"start_time":1551883107599,"click_time":1551883108371,"finger_time":1551883108031,"fix_duration":945.1727992870291,"trial":18,"RT":432,"MT":340,"sideResp":2,"stimulus":[],"xmouse":[772,772,772,772,772,772,772,772,772,772,772,772,772,772,772,772,772,774,788,810,835,882,904,942,960,986,1005,1026,1048,1054,1060,1064,1066,1068,1071,1071,1072,1073,1078],"ymouse":[523,523,523,523,523,523,523,523,523,523,523,523,523,523,523,523,523,523,519,511,503,484,473,442,419,372,335,296,248,232,219,202,187,144,129,124,118,111,77],"timestamp_mouse":[12,38,52,72,92,112,132,152,171,193,212,233,253,272,292,312,333,353,372,393,413,432,452,473,492,512,532,553,572,592,612,632,652,672,692,712,733,752,772],"xSR":741.5,"ySR":469.95,"xT1":424.9,"yT1":0,"xT2":1058.1,"yT2":0,"toosoon":0,"cond_shown":"Congruent","ratio_trial":200,"L_num":3,"L_den":6,"R_num":14,"R_den":20,"correct_side":2,"subjID":"gabrielabernaljimenez38","gender":"1","school":"6","age":"11"},{"start_time":1551883110251,"click_time":1551883111731,"finger_time":1551883110710,"fix_duration":838.6467703069985,"trial":19,"RT":459,"MT":1021,"sideResp":1,"stimulus":[],"xmouse":[805,805,805,805,805,805,805,805,805,805,805,805,805,805,805,805,805,805,805,805,811,825,837,843,847,853,858,866,879,908,941,952,956,957,957,957,957,957,957,957,957,957,957,961,968,978,979,979,979,979,979,972,957,939,912,807,752,711,675,665,661,660,654,644,626,596,589,584,578,573,560,550,537,520],"ymouse":[504,504,504,504,504,504,504,504,504,504,504,504,504,504,504,504,504,504,504,504,494,479,468,459,454,445,439,431,419,392,351,334,325,321,321,321,321,321,321,321,321,321,321,313,302,285,284,284,284,284,284,284,285,286,286,286,277,265,252,246,243,238,229,217,200,177,169,157,137,122,92,77,63,55],"timestamp_mouse":[32,40,59,80,101,119,140,161,180,200,221,240,261,280,300,319,340,360,380,401,420,440,459,480,501,520,540,560,580,601,620,640,660,680,701,720,740,759,780,799,820,840,860,880,901,920,941,961,981,1000,1021,1040,1060,1081,1101,1120,1140,1161,1180,1200,1220,1240,1261,1280,1300,1319,1340,1361,1380,1400,1421,1440,1460,1480],"xSR":741.5,"ySR":469.95,"xT1":424.9,"yT1":0,"xT2":1058.1,"yT2":0,"toosoon":0,"cond_shown":"Incongruent","ratio_trial":300,"L_num":1,"L_den":2,"R_num":2,"R_den":10,"correct_side":1,"subjID":"gabrielabernaljimenez38","gender":"1","school":"6","age":"11"},{"start_time":1551883114869,"click_time":1551883116411,"finger_time":1551883115511,"fix_duration":556.2995722506114,"trial":20,"RT":642,"MT":900,"sideResp":1,"stimulus":[],"xmouse":[809,809,809,809,809,809,809,809,809,809,809,809,809,809,809,809,809,809,809,809,809,809,809,809,809,809,809,811,815,825,838,840,842,843,844,848,854,861,876,892,917,927,932,934,935,941,956,962,971,982,986,986,986,986,986,986,986,986,981,946,892,866,842,817,785,704,667,640,616,612,611,610,601,584,563,519,507,499],"ymouse":[551,551,551,551,551,551,551,551,551,551,551,551,551,551,551,551,551,551,551,551,551,551,551,551,551,551,551,548,537,515,487,478,470,467,464,453,442,429,402,375,320,298,285,278,276,269,255,251,244,234,230,230,230,230,230,230,230,230,230,233,240,240,240,240,238,215,203,192,182,179,179,179,172,160,148,115,104,90],"timestamp_mouse":[11,35,42,63,82,102,121,143,161,183,203,223,241,262,282,302,323,341,362,382,403,423,441,462,482,502,522,542,562,583,602,622,642,663,683,701,722,742,762,783,802,822,842,862,881,901,921,942,962,982,1003,1023,1043,1063,1082,1102,1122,1141,1162,1182,1202,1222,1243,1263,1282,1301,1323,1342,1362,1383,1402,1422,1443,1462,1483,1502,1522,1542],"xSR":741.5,"ySR":469.95,"xT1":424.9,"yT1":0,"xT2":1058.1,"yT2":0,"toosoon":0,"cond_shown":"Incongruent","ratio_trial":200,"L_num":1,"L_den":2,"R_num":3,"R_den":10,"correct_side":1,"subjID":"gabrielabernaljimenez38","gender":"1","school":"6","age":"11"},{"start_time":1551883118145,"click_time":1551883119352,"finger_time":1551883118871,"fix_duration":611.7502556689916,"trial":21,"RT":726,"MT":481,"sideResp":1,"stimulus":[],"xmouse":[788,788,788,788,788,788,788,788,788,788,788,788,788,788,788,788,788,788,788,788,788,788,788,788,788,788,788,788,788,788,788,788,788,788,788,783,759,726,676,631,591,526,507,496,496,496,496,496,496,496,496,496,498,501,503,503,500,498,495,492,490],"ymouse":[519,519,519,519,519,519,519,519,519,519,519,519,519,519,519,519,519,519,519,519,519,519,519,519,519,519,519,519,519,519,519,519,519,519,503,481,440,404,366,329,295,224,202,184,183,175,167,163,160,157,154,151,145,140,132,128,119,114,108,102,96],"timestamp_mouse":[8,26,52,67,86,107,126,146,165,187,207,226,247,267,286,307,327,346,366,387,407,427,445,467,486,506,526,546,567,586,607,626,646,665,686,707,726,746,766,786,806,825,847,866,886,906,926,946,967,987,1007,1025,1046,1067,1086,1106,1126,1146,1167,1186,1207],"xSR":741.5,"ySR":469.95,"xT1":424.9,"yT1":0,"xT2":1058.1,"yT2":0,"toosoon":0,"cond_shown":"Incongruent","ratio_trial":100,"L_num":17,"L_den":30,"R_num":10,"R_den":15,"correct_side":2,"subjID":"gabrielabernaljimenez38","gender":"1","school":"6","age":"11"},{"start_time":1551883122571,"click_time":1551883123711,"finger_time":1551883123291,"fix_duration":918.9506188615168,"trial":22,"RT":720,"MT":420,"sideResp":1,"stimulus":[],"xmouse":[779,779,779,779,779,779,779,779,779,779,779,779,779,779,779,779,779,779,779,779,779,779,779,779,779,779,779,779,779,779,779,779,779,779,779,773,763,748,728,704,656,632,610,588,576,565,565,565,565,565,565,565,565,565,565,561,542,516],"ymouse":[535,535,535,535,535,535,535,535,535,535,535,535,535,535,535,535,535,535,535,535,535,535,535,535,535,535,535,535,535,535,535,535,535,534,526,493,466,437,400,358,257,200,151,101,83,69,69,69,69,69,69,69,69,69,69,68,65,62],"timestamp_mouse":[10,21,40,61,81,100,120,139,161,179,200,220,239,261,280,300,319,340,360,380,400,420,440,460,479,500,520,539,560,580,599,620,640,660,680,701,720,740,760,780,800,820,840,860,880,900,919,940,961,980,1000,1020,1039,1061,1080,1099,1120,1140],"xSR":741.5,"ySR":469.95,"xT1":424.9,"yT1":0,"xT2":1058.1,"yT2":0,"toosoon":0,"cond_shown":"Congruent","ratio_trial":300,"L_num":20,"L_den":25,"R_num":13,"R_den":26,"correct_side":1,"subjID":"gabrielabernaljimenez38","gender":"1","school":"6","age":"11"},{"start_time":1551883125145,"click_time":1551883126331,"finger_time":1551883126012,"fix_duration":453.0049767792621,"trial":23,"RT":867,"MT":319,"sideResp":1,"stimulus":[],"xmouse":[777,777,777,777,777,777,777,777,777,777,777,777,777,777,777,777,777,777,777,777,777,777,777,777,777,777,777,777,777,777,777,777,777,777,777,777,777,777,777,777,777,777,757,738,652,582,481,462,453,448,448,446,445,443,438,435,432,435,443,452],"ymouse":[493,493,493,493,493,493,493,493,493,493,493,493,493,493,493,493,493,493,493,493,493,493,493,493,493,493,493,493,493,493,493,493,493,493,493,493,493,493,493,493,493,493,473,452,370,312,216,192,176,170,169,166,164,160,149,141,126,115,104,93],"timestamp_mouse":[8,39,46,66,86,106,126,146,167,186,205,227,245,266,285,306,326,346,366,386,407,427,445,466,486,505,525,546,566,586,606,626,646,667,687,706,726,745,766,785,806,825,846,867,887,907,926,946,966,986,1006,1026,1047,1066,1085,1106,1126,1146,1166,1186],"xSR":741.5,"ySR":469.95,"xT1":424.9,"yT1":0,"xT2":1058.1,"yT2":0,"toosoon":0,"cond_shown":"Congruent","ratio_trial":200,"L_num":15,"L_den":25,"R_num":4,"R_den":10,"correct_side":1,"subjID":"gabrielabernaljimenez38","gender":"1","school":"6","age":"11"},{"start_time":1551883129239,"click_time":1551883130391,"finger_time":1551883130011,"fix_duration":1066.4664037957825,"trial":24,"RT":772,"MT":380,"sideResp":2,"stimulus":[],"xmouse":[774,774,774,774,774,774,774,774,774,775,775,775,775,775,775,775,775,775,775,775,775,775,775,775,775,775,775,775,775,775,775,775,775,775,775,775,785,798,815,822,836,857,867,879,894,912,949,967,980,1001,1016,1042,1054,1064,1072,1078,1084,1084],"ymouse":[510,510,510,510,510,510,510,510,510,510,510,510,510,510,510,510,510,510,510,510,510,510,510,510,510,510,510,510,510,510,510,510,510,510,510,510,496,479,451,442,419,393,382,371,357,341,303,282,262,233,213,175,159,143,130,117,100,97],"timestamp_mouse":[13,34,52,73,93,112,132,152,173,193,212,231,252,271,292,312,331,353,372,392,412,432,452,471,492,512,532,553,572,592,612,632,651,672,692,712,732,752,772,792,811,831,851,872,893,913,932,953,973,992,1012,1032,1052,1073,1092,1113,1132,1152],"xSR":741.5,"ySR":469.95,"xT1":424.9,"yT1":0,"xT2":1058.1,"yT2":0,"toosoon":0,"cond_shown":"Congruent","ratio_trial":100,"L_num":6,"L_den":20,"R_num":5,"R_den":25,"correct_side":1,"subjID":"gabrielabernaljimenez38","gender":"1","school":"6","age":"11"},{"start_time":1551883132227,"click_time":1551883133011,"finger_time":1551883132532,"fix_duration":755.5198937003668,"trial":25,"RT":305,"MT":479,"sideResp":1,"stimulus":[],"xmouse":[769,769,769,769,769,769,769,769,769,769,769,769,769,765,759,750,738,701,676,642,588,566,539,528,520,515,510,506,505,504,503,503,503,503,503,503,503,503,503,502],"ymouse":[487,487,487,487,487,487,487,487,487,487,487,487,487,482,470,456,435,383,350,309,251,228,192,176,165,153,144,131,128,120,112,112,112,112,112,112,112,107,102,96],"timestamp_mouse":[4,24,44,65,84,104,124,144,164,184,204,224,244,264,284,305,324,344,364,384,404,424,444,465,484,505,525,544,565,584,604,625,644,665,684,705,725,744,764,784],"xSR":741.5,"ySR":469.95,"xT1":424.9,"yT1":0,"xT2":1058.1,"yT2":0,"toosoon":0,"cond_shown":"Incongruent","ratio_trial":100,"L_num":17,"L_den":30,"R_num":10,"R_den":15,"correct_side":2,"subjID":"gabrielabernaljimenez38","gender":"1","school":"6","age":"11"},{"start_time":1551883137594,"click_time":1551883139371,"finger_time":1551883138551,"fix_duration":1481.5377995520794,"trial":26,"RT":957,"MT":820,"sideResp":2,"stimulus":[],"xmouse":[789,789,789,789,789,789,789,791,795,796,796,796,796,796,796,796,796,796,796,796,796,796,796,796,796,796,796,796,796,796,796,796,796,796,796,796,796,796,796,796,796,796,796,798,805,814,829,849,886,904,920,937,945,949,951,954,956,957,959,959,959,959,960,965,966,970,974,976,977,977,978,981,984,1011,1032,1055,1077,1083,1095,1097,1099,1099,1099,1099,1099,1099,1099,1100,1126],"ymouse":[536,536,536,536,536,536,536,533,528,527,527,527,527,527,527,527,527,527,527,527,527,527,527,527,527,527,527,527,527,527,527,527,527,527,527,527,527,527,527,527,527,527,527,524,515,503,487,470,442,426,415,398,391,386,381,375,369,364,353,340,336,328,323,308,299,280,256,242,234,233,231,228,224,211,200,189,177,174,165,161,157,156,156,156,156,154,152,137,30],"timestamp_mouse":[32,38,56,77,97,116,137,157,177,196,218,238,258,277,297,317,338,357,377,397,416,438,456,477,498,518,538,557,577,598,617,637,657,677,698,717,737,758,777,797,818,837,857,876,897,920,937,957,977,997,1018,1037,1057,1077,1097,1117,1137,1158,1177,1198,1217,1237,1257,1278,1297,1316,1336,1358,1377,1397,1418,1436,1457,1477,1497,1518,1537,1558,1577,1597,1617,1637,1658,1678,1697,1718,1737,1758,1777],"xSR":741.5,"ySR":469.95,"xT1":424.9,"yT1":0,"xT2":1058.1,"yT2":0,"toosoon":0,"cond_shown":"Congruent","ratio_trial":100,"L_num":7,"L_den":14,"R_num":9,"R_den":15,"correct_side":2,"subjID":"gabrielabernaljimenez38","gender":"1","school":"6","age":"11"},{"start_time":1551883143662,"click_time":1551883144751,"finger_time":1551883144151,"fix_duration":870.6334748726985,"trial":27,"RT":489,"MT":600,"sideResp":2,"stimulus":[],"xmouse":[787,787,787,787,787,787,787,787,787,787,787,787,787,787,787,787,798,807,817,820,820,820,820,820,822,832,842,856,865,875,895,902,909,918,928,958,971,985,1000,1005,1016,1023,1028,1032,1035,1041,1043,1046,1049,1051,1054,1054,1056,1060,1067],"ymouse":[516,516,516,516,516,516,516,516,516,516,516,516,516,516,516,516,503,494,484,480,477,475,472,470,467,457,448,430,409,392,359,347,333,316,299,260,245,226,207,196,176,165,156,149,141,128,122,118,112,109,105,105,103,100,97],"timestamp_mouse":[9,38,50,68,90,110,129,149,170,188,209,229,249,269,290,309,329,350,369,390,409,429,450,469,489,509,529,549,569,590,609,629,649,670,689,709,729,749,769,790,809,829,849,869,890,909,929,949,969,990,1010,1029,1049,1068,1089],"xSR":741.5,"ySR":469.95,"xT1":424.9,"yT1":0,"xT2":1058.1,"yT2":0,"toosoon":0,"cond_shown":"Congruent","ratio_trial":200,"L_num":6,"L_den":12,"R_num":7,"R_den":10,"correct_side":2,"subjID":"gabrielabernaljimenez38","gender":"1","school":"6","age":"11"},{"start_time":1551883146597,"click_time":1551883147410,"finger_time":1551883147191,"fix_duration":365.2418632625856,"trial":28,"RT":594,"MT":219,"sideResp":1,"stimulus":[],"xmouse":[786,786,786,786,786,786,786,786,786,786,786,786,786,786,786,786,786,786,786,786,786,786,786,786,786,786,786,786,785,771,738,710,688,657,641,626,611,596,562,547,524],"ymouse":[502,502,502,502,502,502,502,502,502,502,502,502,502,502,502,502,502,502,502,502,502,502,502,502,502,502,502,502,500,468,403,353,311,255,226,205,184,165,120,99,70],"timestamp_mouse":[14,39,54,73,94,114,133,154,173,195,214,234,254,273,293,313,334,354,373,393,414,433,453,474,494,514,535,553,573,594,613,634,655,674,693,713,733,754,773,794,813],"xSR":741.5,"ySR":469.95,"xT1":424.9,"yT1":0,"xT2":1058.1,"yT2":0,"toosoon":0,"cond_shown":"Incongruent","ratio_trial":300,"L_num":13,"L_den":26,"R_num":12,"R_den":15,"correct_side":2,"subjID":"gabrielabernaljimenez38","gender":"1","school":"6","age":"11"},{"start_time":1551883149163,"click_time":1551883150532,"finger_time":1551883149991,"fix_duration":391.6511368553574,"trial":29,"RT":828,"MT":541,"sideResp":2,"stimulus":[],"xmouse":[785,785,785,785,785,785,785,785,785,785,785,785,785,785,785,785,785,785,785,785,785,785,785,785,785,785,785,785,785,785,785,785,785,785,787,794,798,803,809,816,838,852,875,884,927,975,997,1007,1011,1013,1015,1015,1017,1019,1022,1030,1032,1036,1040,1044,1053,1057,1063,1066,1068,1076,1080,1084,1090],"ymouse":[529,529,529,529,529,529,529,529,529,529,529,529,529,529,529,529,529,529,529,529,529,529,529,529,529,529,529,529,529,529,529,529,529,528,527,519,516,511,505,499,481,470,448,439,376,331,312,302,296,292,288,286,283,279,271,253,242,230,217,203,174,160,144,135,129,116,110,105,99],"timestamp_mouse":[10,37,61,68,87,108,128,147,168,188,207,228,248,268,287,307,327,348,367,389,407,428,449,468,488,507,528,548,567,588,607,629,649,669,688,707,728,749,768,788,808,828,848,868,888,907,927,948,968,988,1008,1029,1047,1067,1088,1107,1127,1147,1167,1188,1208,1227,1247,1267,1287,1308,1327,1348,1369],"xSR":741.5,"ySR":469.95,"xT1":424.9,"yT1":0,"xT2":1058.1,"yT2":0,"toosoon":0,"cond_shown":"Incongruent","ratio_trial":200,"L_num":7,"L_den":15,"R_num":6,"R_den":9,"correct_side":2,"subjID":"gabrielabernaljimenez38","gender":"1","school":"6","age":"11"},{"start_time":1551883158061,"click_time":1551883159170,"finger_time":1551883158670,"fix_duration":250,"trial":30,"RT":609,"MT":500,"sideResp":2,"stimulus":[],"xmouse":[773,773,773,773,773,773,773,773,773,773,773,773,773,773,773,773,773,773,773,773,773,773,773,773,773,773,773,773,777,785,864,924,976,1013,1037,1053,1082,1108,1157,1188,1213,1208,1208,1208,1208,1208,1208,1208,1208,1208,1208,1208,1208,1208,1208,1115],"ymouse":[520,520,520,520,520,520,520,520,520,520,520,520,520,520,520,520,520,520,520,520,520,520,520,520,520,520,520,520,520,519,503,492,480,466,450,430,346,269,160,102,12,5,5,5,5,5,5,5,5,5,5,5,5,5,5,11],"timestamp_mouse":[11,42,51,70,89,110,129,149,170,189,209,229,250,269,289,309,329,349,370,390,410,429,449,469,490,509,530,549,570,590,609,629,650,669,690,710,730,750,769,790,810,830,851,869,889,910,930,949,969,989,1011,1029,1049,1070,1090,1109],"xSR":741.5,"ySR":469.95,"xT1":424.9,"yT1":0,"xT2":1058.1,"yT2":0,"toosoon":0,"cond_shown":"Congruent","ratio_trial":200,"L_num":7,"L_den":15,"R_num":18,"R_den":27,"correct_side":2,"subjID":"gabrielabernaljimenez38","gender":"1","school":"6","age":"11"},{"start_time":1551883163579,"click_time":1551883164812,"finger_time":1551883164352,"fix_duration":348.77943541549826,"trial":31,"RT":773,"MT":460,"sideResp":1,"stimulus":[],"xmouse":[811,811,811,811,811,811,811,811,811,811,811,811,811,811,811,811,811,811,811,811,811,813,813,814,815,815,815,815,815,815,815,815,815,815,815,815,799,761,695,554,470,395,359,349,354,359,362,363,363,355,354,354,354,354,354,354,354,355,360,393,413,433],"ymouse":[527,527,527,527,527,527,527,527,527,527,527,527,527,527,527,527,527,527,527,527,527,527,527,527,528,528,528,528,528,528,528,528,528,528,528,528,517,496,463,378,321,260,215,178,131,102,75,54,33,4,0,0,0,0,0,0,0,0,4,24,33,41],"timestamp_mouse":[29,31,53,71,91,111,131,152,173,192,211,232,251,271,292,311,332,352,373,391,411,431,452,473,491,512,531,551,572,591,612,633,652,672,691,711,732,752,773,792,811,832,852,872,891,911,932,951,971,991,1013,1031,1051,1071,1091,1112,1132,1151,1172,1191,1211,1232],"xSR":741.5,"ySR":469.95,"xT1":424.9,"yT1":0,"xT2":1058.1,"yT2":0,"toosoon":0,"cond_shown":"Congruent","ratio_trial":100,"L_num":8,"L_den":16,"R_num":2,"R_den":5,"correct_side":1,"subjID":"gabrielabernaljimenez38","gender":"1","school":"6","age":"11"},{"start_time":1551883168168,"click_time":1551883169391,"finger_time":1551883168890,"fix_duration":1334.7349450080242,"trial":32,"RT":722,"MT":501,"sideResp":2,"stimulus":[],"xmouse":[767,767,767,767,767,767,767,767,767,767,767,767,767,767,767,767,767,767,767,767,767,767,767,767,767,767,767,767,767,767,767,767,767,774,783,827,856,880,907,940,1041,1117,1142,1211,1242,1264,1265,1265,1265,1265,1265,1265,1265,1258,1250,1226,1215,1204,1191,1182,1164,1156],"ymouse":[538,538,538,538,538,538,538,538,538,538,538,538,538,538,538,538,538,538,538,538,538,538,538,538,538,538,538,538,538,538,538,538,538,530,523,498,481,466,447,426,365,314,297,248,223,202,199,198,197,197,197,197,197,191,185,170,162,152,141,130,108,99],"timestamp_mouse":[8,23,46,62,83,102,123,144,162,183,203,222,243,263,283,302,324,342,363,383,403,424,442,464,482,503,522,544,564,584,603,623,642,662,683,702,722,743,763,784,802,822,842,863,884,902,923,943,962,982,1003,1023,1043,1063,1082,1102,1122,1143,1163,1183,1202,1223],"xSR":741.5,"ySR":469.95,"xT1":424.9,"yT1":0,"xT2":1058.1,"yT2":0,"toosoon":0,"cond_shown":"Incongruent","ratio_trial":100,"L_num":2,"L_den":4,"R_num":8,"R_den":20,"correct_side":1,"subjID":"gabrielabernaljimenez38","gender":"1","school":"6","age":"11"},{"start_time":1551883171279,"click_time":1551883172751,"finger_time":1551883172331,"fix_duration":427.9056014184456,"trial":33,"RT":1052,"MT":420,"sideResp":2,"stimulus":[],"xmouse":[780,780,780,780,780,780,780,780,780,780,780,780,780,780,780,780,780,780,780,780,780,780,780,780,780,780,780,780,780,780,780,780,780,780,780,780,780,780,780,780,780,780,780,780,780,780,780,780,780,780,785,797,820,855,927,949,967,996,1007,1011,1011,1011,1011,1011,1011,1011,1011,1011,1011,1011,1011,1014,1034,1061],"ymouse":[492,492,492,492,492,492,492,492,492,492,492,492,492,492,492,492,492,492,492,492,492,492,492,492,492,492,492,492,492,492,492,492,492,492,492,492,492,492,492,492,492,492,492,492,492,492,492,492,492,492,490,481,462,428,321,248,190,121,93,79,79,79,79,79,79,79,79,79,79,79,79,79,80,84],"timestamp_mouse":[13,39,52,71,93,111,133,152,171,192,211,232,252,272,291,312,333,352,371,393,412,433,452,472,492,511,532,553,571,592,613,631,653,671,691,713,733,751,772,792,811,832,853,871,891,913,932,952,971,993,1011,1032,1052,1071,1091,1112,1132,1152,1172,1191,1213,1232,1251,1272,1292,1312,1331,1351,1372,1392,1412,1431,1451,1471],"xSR":741.5,"ySR":469.95,"xT1":424.9,"yT1":0,"xT2":1058.1,"yT2":0,"toosoon":0,"cond_shown":"Incongruent","ratio_trial":300,"L_num":13,"L_den":26,"R_num":12,"R_den":15,"correct_side":2,"subjID":"gabrielabernaljimenez38","gender":"1","school":"6","age":"11"},{"start_time":1551883175052,"click_time":1551883176852,"finger_time":1551883175811,"fix_duration":1480.296195323213,"trial":34,"RT":759,"MT":1041,"sideResp":1,"stimulus":[],"xmouse":[804,804,804,804,804,804,804,804,804,804,804,804,804,804,804,804,804,804,804,804,804,804,804,804,804,804,804,804,804,804,804,804,804,804,814,831,837,840,841,841,841,841,841,841,837,822,793,782,747,724,698,690,682,672,654,609,587,563,541,525,512,512,512,512,512,512,512,512,512,512,512,512,514,514,514,517,521,524,525,526,526,526,526,526,526,526,526,526,526,519],"ymouse":[511,511,511,511,511,511,511,511,511,511,511,511,511,511,511,511,511,511,511,511,511,511,511,511,511,511,511,511,511,511,511,511,511,511,501,481,475,468,466,466,466,466,466,466,465,463,459,457,452,449,445,442,439,432,419,376,343,312,277,248,226,226,226,226,226,226,226,226,226,226,200,182,168,162,157,141,127,113,105,100,97,97,97,97,97,97,97,97,96,88],"timestamp_mouse":[33,39,58,78,99,119,139,159,180,198,218,238,260,278,298,319,338,358,379,400,418,438,460,479,500,518,538,559,578,598,619,638,659,678,699,718,738,759,780,800,819,838,858,878,898,918,939,959,979,999,1019,1038,1059,1079,1100,1118,1139,1159,1180,1199,1220,1238,1258,1278,1299,1319,1339,1358,1378,1398,1420,1439,1458,1478,1499,1519,1539,1558,1579,1599,1619,1638,1660,1678,1699,1719,1738,1759,1779,1800],"xSR":741.5,"ySR":469.95,"xT1":424.9,"yT1":0,"xT2":1058.1,"yT2":0,"toosoon":0,"cond_shown":"Incongruent","ratio_trial":100,"L_num":3,"L_den":6,"R_num":4,"R_den":10,"correct_side":1,"subjID":"gabrielabernaljimenez38","gender":"1","school":"6","age":"11"},{"start_time":1551883179078,"click_time":1551883181051,"finger_time":1551883180611,"fix_duration":705.9920675926921,"trial":35,"RT":1533,"MT":440,"sideResp":1,"stimulus":[],"xmouse":[782,782,782,782,782,782,782,782,782,782,782,783,783,783,784,784,784,784,784,784,784,784,784,784,785,785,785,785,785,785,785,785,785,785,785,785,785,785,785,785,785,785,785,785,785,785,785,785,785,785,785,785,785,785,785,785,785,785,785,785,785,785,785,785,785,785,785,785,785,785,785,785,785,785,785,776,752,701,658,587,569,563,561,560,557,552,549,549,548,544,539,529,515,503,491,491,491,491,491],"ymouse":[524,524,524,524,524,524,524,524,524,524,524,524,524,524,524,524,524,524,524,524,524,524,524,524,525,525,525,525,525,525,525,525,525,525,525,525,525,525,525,525,525,525,525,525,525,525,525,525,525,525,525,525,525,525,525,525,525,525,525,525,525,525,525,525,525,525,525,525,525,525,525,525,525,525,525,498,456,398,349,270,249,237,231,225,213,206,201,198,195,181,166,149,133,121,109,108,106,103,97],"timestamp_mouse":[13,40,54,72,94,113,132,154,172,192,213,233,253,273,293,312,334,353,372,392,413,432,453,473,493,513,533,553,574,594,612,632,652,674,694,713,732,753,773,794,812,833,853,873,892,913,934,953,973,993,1013,1033,1053,1072,1092,1113,1132,1152,1174,1192,1212,1232,1253,1272,1293,1312,1332,1354,1372,1393,1413,1433,1452,1473,1492,1513,1533,1552,1573,1592,1612,1632,1652,1674,1693,1713,1732,1753,1773,1792,1812,1833,1852,1873,1892,1912,1933,1953,1973],"xSR":741.5,"ySR":469.95,"xT1":424.9,"yT1":0,"xT2":1058.1,"yT2":0,"toosoon":0,"cond_shown":"Incongruent","ratio_trial":100,"L_num":10,"L_den":25,"R_num":8,"R_den":16,"correct_side":2,"subjID":"gabrielabernaljimenez38","gender":"1","school":"6","age":"11"},{"start_time":1551883187438,"click_time":1551883188370,"finger_time":1551883187870,"fix_duration":645.5903804603979,"trial":36,"RT":432,"MT":500,"sideResp":1,"stimulus":[],"xmouse":[791,791,791,791,791,791,791,791,791,791,791,791,791,791,791,791,791,791,791,793,794,795,792,787,781,776,759,746,731,699,670,616,583,557,544,537,535,535,535,535,535,535,535,535,534,530,503],"ymouse":[506,506,506,506,506,506,506,506,506,506,506,506,506,506,506,506,506,506,505,492,479,448,436,425,415,406,381,363,342,296,252,164,117,81,61,51,48,48,48,48,48,48,48,48,47,47,47],"timestamp_mouse":[14,33,53,72,92,113,132,152,172,193,213,232,252,272,292,312,332,352,372,392,412,432,452,472,492,512,532,554,573,592,613,632,652,673,692,714,733,754,774,793,812,832,852,873,892,913,932],"xSR":741.5,"ySR":469.95,"xT1":424.9,"yT1":0,"xT2":1058.1,"yT2":0,"toosoon":0,"cond_shown":"Congruent","ratio_trial":200,"L_num":21,"L_den":30,"R_num":2,"R_den":4,"correct_side":1,"subjID":"gabrielabernaljimenez38","gender":"1","school":"6","age":"11"},{"start_time":1551883190659,"click_time":1551883191710,"finger_time":1551883191070,"fix_duration":1247.338008124438,"trial":37,"RT":411,"MT":640,"sideResp":1,"stimulus":[],"xmouse":[781,781,781,781,781,781,781,781,781,781,781,781,781,781,781,781,781,781,782,783,784,784,784,783,779,768,762,756,748,742,726,714,695,669,640,594,576,551,543,543,543,543,543,543,543,543,543,543,543,543,543,423,429],"ymouse":[489,489,489,489,489,489,489,489,489,489,489,489,489,489,489,489,489,489,488,483,468,458,449,442,436,423,419,414,408,401,380,358,324,281,235,151,105,48,24,24,24,24,24,24,24,24,24,24,24,24,24,6,17],"timestamp_mouse":[11,34,51,73,93,112,131,151,172,191,212,232,252,272,291,311,331,351,372,392,411,431,451,471,493,511,532,552,571,591,611,631,651,672,692,712,732,751,771,791,811,832,851,872,891,911,931,952,972,991,1012,1031,1051],"xSR":741.5,"ySR":469.95,"xT1":424.9,"yT1":0,"xT2":1058.1,"yT2":0,"toosoon":0,"cond_shown":"Congruent","ratio_trial":100,"L_num":8,"L_den":16,"R_num":2,"R_den":5,"correct_side":1,"subjID":"gabrielabernaljimenez38","gender":"1","school":"6","age":"11"},{"start_time":1551883194907,"click_time":1551883195410,"finger_time":1551883195230,"fix_duration":515.3376329010706,"trial":38,"RT":323,"MT":180,"sideResp":1,"stimulus":[],"xmouse":[797,797,797,797,797,797,797,797,797,797,797,797,797,797,792,782,764,749,730,728,723,715,687,578,515,449],"ymouse":[509,509,509,509,509,509,509,509,509,509,509,509,509,507,493,473,443,427,412,410,404,387,347,209,136,61],"timestamp_mouse":[10,33,44,65,83,103,124,143,164,183,204,224,244,263,283,304,323,344,364,384,403,424,443,463,484,503],"xSR":741.5,"ySR":469.95,"xT1":424.9,"yT1":0,"xT2":1058.1,"yT2":0,"toosoon":0,"cond_shown":"Congruent","ratio_trial":300,"L_num":24,"L_den":30,"R_num":2,"R_den":4,"correct_side":1,"subjID":"gabrielabernaljimenez38","gender":"1","school":"6","age":"11"},{"start_time":1551883205973,"click_time":1551883206831,"finger_time":1551883206431,"fix_duration":860.1564018405065,"trial":39,"RT":458,"MT":400,"sideResp":2,"stimulus":[],"xmouse":[778,778,778,778,778,778,778,778,778,778,778,778,778,778,778,778,778,778,779,787,794,800,809,819,845,868,892,909,921,937,947,956,967,976,1010,1037,1059,1097,1119,1133,1133,1128,1114],"ymouse":[526,526,526,526,526,526,526,526,526,526,526,526,526,526,526,526,526,524,519,499,489,478,462,446,407,373,333,304,285,259,248,237,225,218,203,191,181,160,144,127,123,112,98],"timestamp_mouse":[31,37,57,78,99,117,137,159,177,199,219,238,257,279,299,317,339,357,377,397,417,437,458,477,497,517,537,557,579,597,618,638,659,678,698,718,737,759,779,798,818,838,857],"xSR":741.5,"ySR":469.95,"xT1":424.9,"yT1":0,"xT2":1058.1,"yT2":0,"toosoon":0,"cond_shown":"Incongruent","ratio_trial":200,"L_num":1,"L_den":2,"R_num":3,"R_den":10,"correct_side":1,"subjID":"gabrielabernaljimenez38","gender":"1","school":"6","age":"11"},{"start_time":1551883208440,"click_time":1551883209712,"finger_time":1551883209270,"fix_duration":446.96681877811363,"trial":40,"RT":830,"MT":442,"sideResp":2,"stimulus":[],"xmouse":[795,795,795,795,795,795,795,795,795,795,795,795,795,795,795,795,795,795,795,795,795,795,795,795,795,795,795,795,795,795,795,795,795,795,795,795,795,799,804,815,829,880,916,981,1055,1122,1242,1282,1302,1314,1316,1316,1316,1316,1316,1315,1315,1315,1315,1315,1315,1315,1315,1137],"ymouse":[518,518,518,518,518,518,518,518,518,518,518,518,518,518,518,518,518,518,518,518,518,518,518,518,518,518,518,518,518,518,518,518,518,518,518,518,516,510,505,496,486,456,436,408,381,356,320,304,292,273,261,238,211,151,88,5,5,5,5,5,5,5,5,22],"timestamp_mouse":[11,36,51,71,90,111,131,152,172,190,211,231,252,272,290,311,332,350,370,392,410,431,451,471,491,512,530,551,572,590,612,632,652,672,691,711,731,751,771,791,811,830,850,870,891,911,931,951,970,990,1011,1031,1051,1072,1092,1112,1130,1151,1171,1190,1211,1232,1251,1272],"xSR":741.5,"ySR":469.95,"xT1":424.9,"yT1":0,"xT2":1058.1,"yT2":0,"toosoon":0,"cond_shown":"Congruent","ratio_trial":300,"L_num":5,"L_den":25,"R_num":6,"R_den":12,"correct_side":2,"subjID":"gabrielabernaljimenez38","gender":"1","school":"6","age":"11"},{"start_time":1551883211041,"click_time":1551883211651,"finger_time":1551883211551,"fix_duration":327.95511103666274,"trial":41,"RT":510,"MT":100,"sideResp":1,"stimulus":[],"xmouse":[782,782,782,782,782,782,782,782,782,782,782,782,782,782,782,782,782,782,782,782,782,782,782,782,777,754,648,588,511,483,467],"ymouse":[521,521,521,521,521,521,521,521,521,521,521,521,521,521,521,521,521,521,521,521,521,521,521,519,506,468,333,263,175,132,95],"timestamp_mouse":[10,31,51,70,89,109,129,150,169,190,209,230,250,270,290,311,330,349,369,390,410,429,450,470,490,510,530,551,569,590,610],"xSR":741.5,"ySR":469.95,"xT1":424.9,"yT1":0,"xT2":1058.1,"yT2":0,"toosoon":0,"cond_shown":"Incongruent","ratio_trial":300,"L_num":13,"L_den":26,"R_num":12,"R_den":15,"correct_side":2,"subjID":"gabrielabernaljimenez38","gender":"1","school":"6","age":"11"},{"start_time":1551883214330,"click_time":1551883215511,"finger_time":1551883215070,"fix_duration":1459.4293553189198,"trial":42,"RT":740,"MT":441,"sideResp":2,"stimulus":[],"xmouse":[795,795,795,795,795,795,795,795,795,795,795,795,795,795,795,795,795,795,795,795,795,795,795,795,795,795,796,809,815,820,822,822,822,822,822,826,832,872,910,960,1014,1103,1129,1135,1137,1134,1132,1132,1132,1132,1132,1132,1132,1132,1132,1132,1132,1132,1132,1132],"ymouse":[514,514,514,514,514,514,514,514,514,514,514,514,514,514,514,514,514,514,514,514,514,514,514,514,514,514,513,500,494,489,487,485,485,485,485,481,475,449,424,388,341,239,189,153,125,104,102,102,102,102,102,102,102,102,102,102,102,102,102,99],"timestamp_mouse":[9,21,41,61,80,102,120,141,161,181,201,220,241,260,281,302,322,341,360,381,401,421,441,461,481,501,521,541,561,581,600,620,642,661,681,701,721,740,760,780,801,822,841,861,880,901,922,941,961,981,1002,1022,1041,1061,1081,1101,1121,1142,1161,1181],"xSR":741.5,"ySR":469.95,"xT1":424.9,"yT1":0,"xT2":1058.1,"yT2":0,"toosoon":0,"cond_shown":"Congruent","ratio_trial":200,"L_num":1,"L_den":2,"R_num":21,"R_den":30,"correct_side":2,"subjID":"gabrielabernaljimenez38","gender":"1","school":"6","age":"11"},{"start_time":1551883217446,"click_time":1551883218731,"finger_time":1551883218391,"fix_duration":612.4163836486163,"trial":43,"RT":945,"MT":340,"sideResp":1,"stimulus":[],"xmouse":[818,818,818,818,818,818,818,818,818,818,818,818,818,818,818,818,818,818,818,818,818,818,818,818,818,818,818,818,818,818,818,818,818,818,818,818,818,818,818,818,818,816,805,798,796,795,789,777,747,716,693,664,659,658,658,658,658,658,657,656,650,627,606,564,507],"ymouse":[559,559,559,559,559,559,559,559,559,559,559,559,559,559,559,559,559,559,559,559,559,559,559,559,559,559,559,559,559,559,559,559,559,559,559,559,559,559,559,559,559,555,538,525,517,512,476,436,331,258,211,171,165,164,164,164,164,164,164,163,152,122,98,63,25],"timestamp_mouse":[21,37,46,65,84,105,124,145,165,185,205,226,245,266,286,306,325,345,365,385,404,425,444,466,485,505,526,545,566,586,605,625,645,666,686,705,724,746,766,785,805,826,844,866,885,904,925,945,965,984,1005,1026,1045,1065,1084,1105,1125,1145,1165,1185,1204,1225,1245,1265,1284],"xSR":741.5,"ySR":469.95,"xT1":424.9,"yT1":0,"xT2":1058.1,"yT2":0,"toosoon":0,"cond_shown":"Incongruent","ratio_trial":300,"L_num":8,"L_den":10,"R_num":14,"R_den":28,"correct_side":1,"subjID":"gabrielabernaljimenez38","gender":"1","school":"6","age":"11"},{"start_time":1551883220955,"click_time":1551883222212,"finger_time":1551883221391,"fix_duration":1063.7710942692863,"trial":44,"RT":436,"MT":821,"sideResp":2,"stimulus":[],"xmouse":[789,791,791,796,799,801,801,799,798,798,798,798,798,798,798,798,798,798,798,798,799,805,810,815,818,826,829,831,834,837,845,852,859,869,874,883,888,901,914,927,963,993,1024,1062,1079,1089,1089,1089,1089,1089,1089,1087,1085,1080,1079,1074,1072,1072,1071,1071,1076,1080,1085],"ymouse":[493,494,494,496,497,497,497,496,495,495,495,495,495,495,495,495,495,495,495,492,481,469,457,442,430,408,398,392,386,381,373,369,363,357,353,344,338,330,323,317,307,302,297,289,283,277,276,275,271,266,247,239,230,216,212,192,177,168,161,152,126,112,99],"timestamp_mouse":[16,48,56,75,96,116,136,157,177,195,217,237,255,277,295,317,337,355,377,396,415,436,455,477,496,516,536,555,575,596,616,636,655,675,695,716,735,755,777,797,816,836,856,877,897,916,935,955,975,997,1016,1036,1056,1076,1095,1115,1135,1155,1175,1195,1216,1236,1257],"xSR":741.5,"ySR":469.95,"xT1":424.9,"yT1":0,"xT2":1058.1,"yT2":0,"toosoon":0,"cond_shown":"Congruent","ratio_trial":200,"L_num":8,"L_den":15,"R_num":2,"R_den":6,"correct_side":1,"subjID":"gabrielabernaljimenez38","gender":"1","school":"6","age":"11"},{"start_time":1551883223748,"click_time":1551883224730,"finger_time":1551883224131,"fix_duration":536.0586986332403,"trial":45,"RT":383,"MT":599,"sideResp":1,"stimulus":[],"xmouse":[797,797,797,797,797,797,797,797,797,797,797,797,797,797,797,797,790,780,770,761,755,750,747,744,737,730,717,712,706,698,690,671,664,659,656,651,629,622,616,614,613,603,597,593,579,566,551,541,533,521],"ymouse":[495,495,495,495,495,495,495,495,495,495,495,495,495,495,495,495,490,483,474,467,462,452,436,417,384,360,313,292,263,236,217,186,177,172,169,167,155,152,149,148,147,138,132,125,109,94,73,60,49,34],"timestamp_mouse":[10,38,43,63,83,104,123,144,163,183,204,223,244,263,284,302,322,342,362,383,403,423,442,463,483,503,523,543,563,583,603,623,642,663,683,703,723,742,762,782,803,823,844,863,883,903,923,942,963,982],"xSR":741.5,"ySR":469.95,"xT1":424.9,"yT1":0,"xT2":1058.1,"yT2":0,"toosoon":0,"cond_shown":"Incongruent","ratio_trial":200,"L_num":14,"L_den":30,"R_num":12,"R_den":18,"correct_side":2,"subjID":"gabrielabernaljimenez38","gender":"1","school":"6","age":"11"},{"start_time":1551883227332,"click_time":1551883228032,"finger_time":1551883227651,"fix_duration":1060.951416298237,"trial":46,"RT":319,"MT":381,"sideResp":1,"stimulus":[],"xmouse":[783,783,783,783,783,783,783,783,783,783,783,779,777,771,765,754,743,737,735,733,730,720,711,699,674,656,622,606,596,593,591,579,568,549,516],"ymouse":[529,529,529,529,529,529,529,529,529,529,529,524,518,506,492,467,433,414,395,376,357,311,285,261,216,187,146,131,123,120,118,108,99,86,65],"timestamp_mouse":[19,38,60,80,99,118,138,159,180,200,219,239,260,279,299,319,338,358,378,398,419,438,460,479,499,519,539,559,579,599,620,638,659,679,700],"xSR":741.5,"ySR":469.95,"xT1":424.9,"yT1":0,"xT2":1058.1,"yT2":0,"toosoon":0,"cond_shown":"Incongruent","ratio_trial":100,"L_num":6,"L_den":10,"R_num":7,"R_den":14,"correct_side":1,"subjID":"gabrielabernaljimenez38","gender":"1","school":"6","age":"11"},{"start_time":1551883237789,"click_time":1551883242152,"finger_time":1551883239152,"fix_duration":575.6201684984248,"trial":47,"RT":1363,"MT":3000,"sideResp":2,"stimulus":[],"xmouse":[781,781,781,781,781,781,781,781,781,781,781,781,781,781,781,781,781,781,781,781,781,781,781,781,781,781,781,781,781,781,781,781,781,781,781,781,781,781,781,781,781,781,781,781,781,781,781,781,781,781,781,781,781,781,781,781,781,781,788,797,801,805,809,811,821,824,828,835,843,862,878,906,915,944,976,994,1010,1025,1037,1056,1063,1065,1068,1070,1070,1071,1074,1076,1076,1068,1055,1038,1005,983,946,926,902,871,833,762,728,721,706,704,704,704,699,682,665,619,596,574,542,526,507,503,501,500,499,497,496,495,494,494,494,494,498,505,524,575,605,633,667,692,768,795,814,825,830,832,832,831,828,827,827,827,827,827,827,827,827,827,827,827,827,827,826,821,801,724,615,528,451,390,340,336,335,334,333,332,332,332,332,332,332,332,332,332,332,332,335,345,382,411,473,517,575,640,761,791,813,829,848,859,871,878,888,902,927,934,939,941,944,948,983,1007,1026,1046,1058,1067,1071,1071,1072,1072,1073,1073,1073,1073,1073],"ymouse":[518,518,518,518,518,518,518,518,518,518,518,518,518,518,518,518,518,518,518,518,518,518,518,518,518,518,518,518,518,518,518,518,518,518,518,518,518,518,518,518,518,518,518,518,518,518,518,518,518,518,518,518,518,518,518,518,518,518,516,513,511,508,504,502,494,491,486,477,469,454,444,429,422,399,366,342,319,292,264,218,194,190,180,177,176,176,176,179,181,191,199,206,212,213,212,207,196,183,166,126,108,103,95,94,94,94,94,94,97,105,112,118,128,132,141,144,148,150,152,154,155,156,157,157,157,157,157,157,154,146,146,146,152,161,201,220,234,245,254,263,267,272,281,288,292,292,292,292,292,292,292,292,292,292,292,292,292,290,279,245,211,189,171,157,150,150,150,151,151,153,153,153,153,153,153,153,153,153,153,153,153,153,153,155,162,170,181,196,228,235,237,238,238,235,231,228,223,216,198,190,181,173,167,164,158,153,146,139,134,128,128,128,128,128,126,121,114,108,96],"timestamp_mouse":[9,31,43,62,83,102,123,142,162,182,201,221,242,261,282,301,322,342,363,382,403,422,443,463,481,502,523,541,562,582,602,622,643,662,682,702,722,742,762,783,802,822,843,863,882,903,923,942,961,982,1001,1023,1042,1063,1081,1103,1122,1141,1163,1181,1202,1222,1243,1262,1282,1301,1321,1342,1363,1382,1403,1421,1442,1462,1482,1501,1521,1543,1562,1581,1602,1622,1642,1661,1682,1701,1722,1742,1762,1781,1802,1822,1841,1861,1881,1901,1922,1942,1963,1982,2002,2022,2043,2061,2082,2101,2122,2142,2162,2181,2202,2222,2241,2262,2282,2301,2322,2341,2362,2382,2401,2422,2442,2462,2482,2501,2523,2542,2562,2582,2603,2622,2643,2662,2682,2702,2722,2742,2762,2782,2801,2822,2841,2861,2882,2903,2923,2942,2961,2982,3002,3022,3043,3061,3082,3102,3122,3142,3162,3181,3202,3221,3242,3262,3283,3302,3322,3341,3362,3383,3402,3422,3443,3462,3482,3502,3521,3542,3563,3581,3601,3622,3642,3661,3682,3701,3722,3742,3763,3783,3802,3821,3842,3862,3882,3901,3921,3941,3964,3981,4002,4022,4041,4062,4082,4101,4123,4142,4161,4182,4202,4221,4242,4263,4283,4301,4323,4342,4363],"xSR":741.5,"ySR":469.95,"xT1":424.9,"yT1":0,"xT2":1058.1,"yT2":0,"toosoon":0,"cond_shown":"Incongruent","ratio_trial":200,"L_num":14,"L_den":30,"R_num":12,"R_den":18,"correct_side":2,"subjID":"gabrielabernaljimenez38","gender":"1","school":"6","age":"11"},{"start_time":1551883247485,"click_time":1551883253051,"finger_time":1551883252550,"fix_duration":873.5718001879549,"trial":48,"RT":5065,"MT":501,"sideResp":2,"stimulus":[],"xmouse":[791,791,791,791,791,791,791,791,791,791,791,791,791,791,791,789,783,781,780,780,780,780,780,780,780,780,780,780,780,780,780,780,780,780,780,780,780,780,780,780,780,780,780,780,780,780,780,780,780,780,780,780,780,780,780,780,780,780,780,780,780,780,780,780,780,780,780,780,780,780,780,780,780,780,780,780,780,780,780,780,780,780,780,780,780,780,780,780,780,780,780,780,780,780,780,780,780,780,780,780,780,780,780,780,780,780,780,780,780,780,780,780,780,780,780,780,780,780,780,780,780,780,780,780,780,780,780,780,780,780,780,780,780,780,780,780,780,780,780,780,780,780,780,780,780,780,780,780,780,780,780,780,780,780,780,780,780,780,780,780,780,780,780,780,780,780,780,780,780,780,780,780,780,780,780,780,780,780,780,780,780,780,780,780,780,780,780,780,780,780,780,780,780,780,780,780,780,780,780,780,780,780,780,780,780,780,780,780,780,780,780,780,780,780,780,780,780,780,780,780,780,780,780,780,780,780,780,780,780,780,780,780,780,780,780,780,780,780,780,780,780,780,780,780,780,780,780,780,780,780,780,781,804,889,976,976,976,981,993,1033,1083,1133,1176,1193,1180,1170,1168,1167,1167,1169,1169,1169,1169,1161,1153,1147,1138,1136,1129],"ymouse":[510,510,510,510,510,510,510,510,510,510,510,510,510,510,510,510,512,512,512,512,512,512,512,512,512,512,512,512,512,512,512,512,512,512,512,512,512,512,512,512,512,512,512,512,512,512,512,512,512,512,512,512,512,512,512,512,512,512,512,512,512,512,512,512,512,512,512,512,512,512,512,512,512,512,512,512,512,512,512,512,512,512,512,512,512,512,512,512,512,512,512,512,512,512,512,512,512,512,512,512,512,512,512,512,512,512,512,512,512,512,512,512,512,512,512,512,512,512,512,512,512,512,512,512,512,512,512,512,512,512,512,512,512,512,512,512,512,512,512,512,512,512,512,512,512,512,512,512,512,512,512,512,512,512,512,512,512,512,512,512,512,512,512,512,512,512,512,512,512,512,512,512,512,512,512,512,512,512,512,512,512,512,512,512,512,512,512,512,512,512,512,512,512,512,512,512,512,512,512,512,512,512,512,512,512,512,512,512,512,512,512,512,512,512,512,512,512,512,512,512,512,512,512,512,512,512,512,512,512,512,512,512,512,512,512,512,512,512,512,512,512,512,512,512,512,512,512,512,512,512,512,509,492,447,405,405,405,394,379,345,318,288,256,202,183,177,177,177,177,177,177,176,176,166,155,143,124,119,99],"timestamp_mouse":[20,38,46,66,86,106,126,145,166,186,205,226,245,266,285,305,326,345,366,387,406,426,447,467,486,506,525,545,567,586,606,627,646,666,687,705,725,746,767,785,807,827,846,866,886,907,926,946,966,985,1006,1026,1046,1066,1086,1107,1127,1145,1167,1185,1206,1226,1246,1267,1285,1306,1327,1346,1366,1386,1406,1426,1446,1467,1486,1506,1527,1546,1567,1587,1605,1627,1647,1665,1685,1707,1725,1745,1767,1786,1805,1826,1847,1866,1887,1905,1927,1946,1966,1986,2006,2026,2046,2066,2086,2106,2125,2146,2165,2186,2207,2226,2246,2266,2286,2306,2327,2347,2367,2385,2406,2425,2447,2467,2485,2507,2526,2547,2565,2587,2606,2625,2647,2665,2685,2706,2725,2746,2767,2787,2806,2825,2847,2866,2885,2906,2926,2945,2966,2987,3005,3026,3047,3067,3087,3105,3125,3147,3167,3187,3207,3227,3245,3265,3286,3306,3326,3347,3366,3385,3405,3427,3447,3465,3487,3507,3526,3547,3566,3586,3606,3627,3645,3667,3687,3706,3726,3746,3766,3787,3806,3825,3847,3867,3886,3907,3925,3947,3967,3987,4005,4026,4046,4067,4087,4107,4127,4147,4166,4187,4207,4226,4246,4265,4285,4306,4326,4347,4367,4386,4407,4425,4445,4466,4487,4507,4527,4547,4566,4587,4606,4627,4646,4666,4687,4706,4726,4747,4767,4786,4806,4826,4846,4865,4887,4905,4926,4946,4966,4985,5007,5025,5046,5065,5086,5105,5126,5147,5166,5186,5205,5226,5246,5267,5286,5307,5326,5346,5365,5386,5406,5426,5447,5467,5487,5507,5525,5546,5566],"xSR":741.5,"ySR":469.95,"xT1":424.9,"yT1":0,"xT2":1058.1,"yT2":0,"toosoon":0,"cond_shown":"Congruent","ratio_trial":200,"L_num":4,"L_den":10,"R_num":3,"R_den":15,"correct_side":1,"subjID":"gabrielabernaljimenez38","gender":"1","school":"6","age":"11"},{"start_time":1551883257359,"click_time":1551883258171,"finger_time":1551883257771,"fix_duration":687.1300243090112,"trial":49,"RT":412,"MT":400,"sideResp":1,"stimulus":[],"xmouse":[818,818,818,818,818,818,818,818,818,818,818,818,818,818,818,818,818,818,812,804,731,673,602,573,557,548,545,542,538,526,523,519,518,516,516,516,517,517,517,518,519],"ymouse":[512,512,512,512,512,512,512,512,512,512,512,512,512,512,512,512,512,512,504,494,425,381,326,302,289,279,276,267,255,217,203,186,173,157,149,139,137,133,128,114,89],"timestamp_mouse":[12,42,52,72,93,112,132,152,172,192,211,233,252,272,292,313,332,352,371,392,412,432,451,472,492,512,531,553,571,594,613,631,652,673,691,712,731,752,772,791,812],"xSR":741.5,"ySR":469.95,"xT1":424.9,"yT1":0,"xT2":1058.1,"yT2":0,"toosoon":0,"cond_shown":"Congruent","ratio_trial":100,"L_num":11,"L_den":22,"R_num":4,"R_den":10,"correct_side":1,"subjID":"gabrielabernaljimenez38","gender":"1","school":"6","age":"11"},{"start_time":1551883259595,"click_time":1551883260511,"finger_time":1551883260210,"fix_duration":462.15020616952086,"trial":50,"RT":615,"MT":301,"sideResp":2,"stimulus":[],"xmouse":[822,822,822,822,822,822,822,822,822,822,822,822,822,822,822,822,822,822,816,814,812,811,811,811,811,811,811,810,810,810,818,825,836,871,894,925,956,978,1003,1010,1016,1024,1031,1052,1066,1079],"ymouse":[506,506,506,506,506,506,506,506,506,506,506,506,506,506,506,506,506,505,500,499,498,498,498,498,498,498,498,495,491,484,464,450,431,389,362,329,298,275,243,228,214,194,182,143,120,99],"timestamp_mouse":[15,41,56,76,97,117,137,156,176,196,217,235,257,276,296,317,336,357,376,397,416,436,457,476,496,517,535,557,575,596,615,636,656,676,695,715,735,756,775,796,816,836,855,876,896,916],"xSR":741.5,"ySR":469.95,"xT1":424.9,"yT1":0,"xT2":1058.1,"yT2":0,"toosoon":0,"cond_shown":"Incongruent","ratio_trial":100,"L_num":13,"L_den":26,"R_num":12,"R_den":20,"correct_side":2,"subjID":"gabrielabernaljimenez38","gender":"1","school":"6","age":"11"},{"start_time":1551883262106,"click_time":1551883262771,"finger_time":1551883262451,"fix_duration":753.485393019692,"trial":51,"RT":345,"MT":320,"sideResp":1,"stimulus":[],"xmouse":[759,758,758,758,758,758,758,758,758,758,758,758,756,756,755,752,748,733,700,686,675,665,643,633,622,606,594,584,559,550,538,527,516,493],"ymouse":[486,486,486,486,486,486,486,486,486,486,486,486,486,485,485,482,476,463,424,404,386,367,326,304,277,241,215,193,151,138,126,116,106,83],"timestamp_mouse":[13,35,45,66,86,105,126,146,164,185,206,224,245,265,285,304,325,345,365,385,405,424,446,465,486,504,524,545,565,585,604,625,646,665],"xSR":741.5,"ySR":469.95,"xT1":424.9,"yT1":0,"xT2":1058.1,"yT2":0,"toosoon":0,"cond_shown":"Congruent","ratio_trial":300,"L_num":12,"L_den":24,"R_num":2,"R_den":10,"correct_side":1,"subjID":"gabrielabernaljimenez38","gender":"1","school":"6","age":"11"},{"start_time":1551883263763,"click_time":1551883265111,"finger_time":1551883264631,"fix_duration":250,"trial":52,"RT":868,"MT":480,"sideResp":2,"stimulus":[],"xmouse":[781,781,781,784,785,786,786,786,786,786,786,786,786,786,786,786,786,788,790,791,791,791,791,791,791,791,791,791,791,791,791,793,793,793,793,793,793,793,793,793,794,811,819,859,901,992,1027,1054,1070,1081,1101,1106,1113,1122,1126,1135,1139,1145,1150,1155,1161,1163,1163,1163,1163,1163,1162,1156],"ymouse":[530,530,530,526,525,525,525,525,525,525,525,525,525,525,525,525,521,519,514,511,509,508,508,508,508,508,508,508,508,508,508,505,505,503,503,503,503,503,503,503,502,495,490,473,449,387,348,310,281,261,233,225,216,203,196,181,171,153,131,106,59,42,33,29,29,28,28,28],"timestamp_mouse":[8,41,48,68,87,108,128,148,168,188,208,228,249,269,288,308,327,347,368,388,407,428,449,468,487,507,529,548,569,589,607,628,647,667,689,709,727,748,767,789,807,828,848,868,888,908,927,949,968,988,1008,1028,1047,1069,1087,1108,1127,1149,1168,1188,1208,1229,1248,1268,1288,1308,1327,1348],"xSR":741.5,"ySR":469.95,"xT1":424.9,"yT1":0,"xT2":1058.1,"yT2":0,"toosoon":0,"cond_shown":"Incongruent","ratio_trial":100,"L_num":2,"L_den":4,"R_num":8,"R_den":20,"correct_side":1,"subjID":"gabrielabernaljimenez38","gender":"1","school":"6","age":"11"},{"start_time":1551883270458,"click_time":1551883271810,"finger_time":1551883270890,"fix_duration":1405.9730038645623,"trial":53,"RT":432,"MT":920,"sideResp":2,"stimulus":[],"xmouse":[795,795,795,795,795,795,795,795,795,795,795,795,795,795,795,795,795,795,794,792,774,762,751,742,739,739,739,739,739,739,739,739,739,739,739,739,739,739,738,743,767,787,808,836,862,909,938,966,1018,1054,1132,1161,1177,1185,1190,1195,1198,1203,1205,1206,1203,1191,1176,1166,1161,1161,1160,1157],"ymouse":[502,502,502,502,502,502,502,502,502,502,502,502,502,502,502,502,502,502,501,497,472,459,448,441,438,438,438,438,438,438,438,438,438,438,438,438,438,438,437,433,418,404,389,367,346,309,287,267,239,221,189,176,166,160,154,143,134,119,110,104,97,94,89,87,86,85,85,85],"timestamp_mouse":[13,42,54,73,93,112,132,152,172,194,