[{"start_time":1551794175259,"click_time":1551794177603,"finger_time":1551794177102,"fix_duration":454.59580788415576,"trial":0,"RT":1843,"MT":501,"sideResp":1,"stimulus":[],"xmouse":[787,787,787,787,787,787,786,786,786,786,786,786,786,786,786,786,786,786,786,786,786,786,786,786,786,786,786,786,786,786,786,786,786,786,786,786,786,786,786,786,786,786,786,786,786,786,786,786,786,786,786,786,786,786,786,786,786,786,786,786,786,786,786,786,786,786,786,783,779,777,777,777,776,776,776,776,776,776,776,776,776,776,776,776,776,776,776,776,776,776,773,766,737,725,711,697,680,643,627,620,615,611,604,599,592,585,579,576,558,547,536,533,527,523,519,516,513,504],"ymouse":[529,529,529,529,529,529,529,529,529,529,529,529,529,529,529,529,529,529,529,529,529,529,529,529,529,529,529,529,529,529,529,529,529,529,529,529,529,529,529,529,529,529,529,529,529,529,529,529,529,529,529,529,529,529,529,529,529,529,529,529,529,529,529,529,529,529,529,529,529,529,529,529,526,524,523,522,522,522,521,521,521,521,521,521,521,521,521,521,521,521,518,512,480,469,453,435,409,341,318,301,284,262,227,213,199,189,178,174,155,147,138,135,126,121,115,111,105,82],"timestamp_mouse":[9,22,42,62,82,102,123,142,163,183,203,222,242,263,283,302,322,342,362,382,403,423,442,462,483,503,522,542,563,582,602,623,643,663,682,702,723,742,762,782,802,823,842,862,882,902,922,943,963,982,1002,1023,1042,1062,1083,1103,1122,1143,1163,1183,1202,1224,1242,1262,1282,1303,1323,1343,1362,1382,1404,1422,1442,1463,1482,1502,1523,1542,1562,1582,1604,1623,1642,1662,1682,1702,1722,1742,1762,1782,1802,1822,1843,1862,1883,1902,1923,1943,1962,1982,2003,2022,2043,2062,2082,2102,2122,2142,2162,2182,2203,2223,2243,2262,2282,2303,2322,2344],"xSR":741.5,"ySR":469.95,"xT1":424.9,"yT1":0,"xT2":1058.1,"yT2":0,"toosoon":0,"cond_shown":"Incongruent","ratio_trial":300,"L_num":4,"L_den":20,"R_num":2,"R_den":4,"correct_side":2,"subjID":"gabrielagranadosbustos19","gender":"1","age":"11","school":"6","test":{"fix_dur":[250,1500],"timestim":1000,"targets_dim":[100,100],"targets_relative_coord":[0.3,0.7],"size_stim":[880,420],"start_dim":[100,100],"size_start":[300,300],"size_fix":60,"samplingrate":20,"img_types":["Congruent","Incongruent"],"ratios":[100,200,300],"rep_conds":19,"nTrials":120,"trials_to_rest":500,"Trials_order":[119,116,37,49,77,108,102,78,73,68,29,14,55,84,56,33,57,70,15,40,44,112,88,91,100,63,45,38,87,67,65,92,104,115,81,62,83,17,12,71,117,2,101,75,64,23,50,93,89,36,99,43,118,21,4,111,24,18,8,34,76,47,31,35,19,53,114,96,105,42,94,106,39,41,46,79,69,60,113,97,22,59,1,20,74,110,86,3,28,5,25,58,109,98,90,7,54,13,30,51,26,72,10,61,85,80,52,48,0,9,27,82,103,95,66,11,32,16,107,6],"cond_shown":["Incongruent","Congruent","Incongruent","Incongruent","Incongruent","Congruent","Congruent","Congruent","Incongruent","Congruent","Incongruent","Congruent","Incongruent","Congruent","Congruent","Incongruent","Incongruent","Congruent","Incongruent","Congruent","Congruent","Congruent","Congruent","Incongruent","Congruent","Incongruent","Incongruent","Congruent","Incongruent","Incongruent","Incongruent","Congruent","Congruent","Incongruent","Incongruent","Congruent","Incongruent","Incongruent","Congruent","Incongruent","Incongruent","Congruent","Incongruent","Incongruent","Congruent","Incongruent","Congruent","Incongruent","Incongruent","Congruent","Incongruent","Incongruent","Congruent","Incongruent","Congruent","Incongruent","Congruent","Congruent","Congruent","Congruent","Congruent","Incongruent","Incongruent","Incongruent","Incongruent","Incongruent","Congruent","Congruent","Incongruent","Congruent","Congruent","Congruent","Incongruent","Incongruent","Congruent","Incongruent","Incongruent","Congruent","Incongruent","Incongruent","Congruent","Incongruent","Incongruent","Congruent","Congruent","Congruent","Congruent","Incongruent","Congruent","Incongruent","Incongruent","Congruent","Incongruent","Congruent","Congruent","Incongruent","Congruent","Incongruent","Congruent","Incongruent","Congruent","Congruent","Congruent","Incongruent","Incongruent","Congruent","Congruent","Congruent","Congruent","Incongruent","Incongruent","Congruent","Incongruent","Incongruent","Congruent","Incongruent","Congruent","Congruent","Incongruent","Congruent"],"ratio_trial":[300,200,100,100,300,100,100,100,100,200,300,200,100,100,200,200,200,300,200,300,200,300,300,100,300,200,200,200,200,100,300,200,200,100,200,200,300,300,100,300,200,200,300,200,300,300,200,200,300,100,200,100,300,200,300,200,100,100,200,300,300,300,100,300,100,300,100,100,200,100,300,300,200,300,300,100,200,100,300,100,300,300,100,200,200,200,200,200,300,300,100,300,100,200,100,100,100,100,100,200,200,100,300,100,100,200,300,100,100,200,200,300,100,300,100,300,200,300,300,100],"left_num":[4,9,8,3,4,6,15,4,6,16,4,7,2,10,16,1,3,1,4,8,7,1,1,6,7,7,6,3,4,6,3,12,7,3,14,3,13,1,15,8,7,16,1,3,2,1,3,3,13,11,1,3,1,14,24,1,1,8,13,20,9,4,9,2,6,8,3,9,7,4,3,11,6,4,5,11,3,8,13,13,4,1,12,8,6,14,8,7,3,3,9,1,9,13,12,9,9,3,9,6,9,6,20,10,3,12,1,7,10,4,7,1,10,4,1,8,3,20,4,10],"right_num":[2,13,6,4,2,5,13,6,3,9,2,18,8,3,12,2,1,3,6,10,2,11,6,3,20,4,3,14,6,11,4,6,18,11,6,9,12,3,13,14,12,12,2,1,12,2,9,11,12,4,2,7,19,12,8,3,18,2,14,5,3,2,20,6,11,14,4,8,12,15,11,1,3,6,7,9,1,2,12,6,13,2,2,2,3,6,2,14,11,4,20,3,6,14,13,20,8,11,8,3,4,5,8,9,4,6,6,9,3,6,14,19,8,2,18,9,11,9,2,3],"left_den":[20,30,16,6,20,20,25,8,12,30,20,15,4,25,20,3,10,5,5,15,21,5,5,12,14,15,20,10,5,10,6,15,15,5,30,12,26,2,25,10,10,20,2,10,10,2,12,4,26,22,3,9,3,30,30,2,2,16,26,25,10,20,10,4,10,10,20,15,10,10,12,22,20,5,25,22,10,16,26,26,20,2,30,15,15,28,15,10,12,6,10,5,18,26,30,10,15,5,15,20,20,20,25,25,6,15,5,14,25,5,10,3,25,20,2,10,10,25,20,25],"right_den":[4,26,10,10,4,25,26,10,5,27,4,27,20,10,20,15,2,6,10,12,15,22,12,5,25,6,6,28,10,22,20,10,27,22,9,20,15,15,26,28,24,20,10,2,24,10,20,20,15,10,15,30,30,18,16,10,30,5,20,10,5,4,25,30,22,28,16,16,24,30,20,5,6,12,14,15,2,5,15,10,26,10,4,6,15,20,6,28,20,20,25,6,10,20,26,25,16,22,16,6,16,25,16,18,10,10,12,15,10,10,28,30,16,4,30,18,22,18,4,10],"correct_side":[2,2,2,1,2,1,1,2,2,1,2,2,1,1,1,1,2,2,1,2,1,2,2,2,2,2,2,2,1,1,1,1,2,1,2,2,2,1,1,1,1,1,1,2,2,1,2,1,2,1,1,1,2,2,1,1,2,1,2,1,1,2,1,1,1,1,2,1,1,2,2,1,2,1,2,2,2,1,2,2,2,1,2,1,1,1,1,1,2,1,1,2,2,2,2,1,1,1,1,2,1,1,1,2,1,1,2,2,1,1,1,2,2,2,2,1,2,1,2,1],"img_shown":["img2/300/Incongruent/R/I_Dist_300_LN_4_LD_20_RN_2_RD_4_1.png","img2/200/Congruent/R/C_Dist_200_LN_9_LD_30_RN_13_RD_26_1.png","img2/100/Incongruent/R/I_Dist_100_LN_8_LD_16_RN_6_RD_10_1.png","img2/100/Incongruent/L/I_Dist_100_LN_3_LD_6_RN_4_RD_10_0.png","img2/300/Incongruent/R/I_Dist_300_LN_4_LD_20_RN_2_RD_4_1.png","img2/100/Congruent/L/C_Dist_100_LN_6_LD_20_RN_5_RD_25_0.png","img2/100/Congruent/L/C_Dist_100_LN_15_LD_25_RN_13_RD_26_0.png","img2/100/Congruent/R/C_Dist_100_LN_4_LD_8_RN_6_RD_10_1.png","img2/100/Incongruent/R/I_Dist_100_LN_6_LD_12_RN_3_RD_5_1.png","img2/200/Congruent/L/C_Dist_200_LN_16_LD_30_RN_9_RD_27_0.png","img2/300/Incongruent/R/I_Dist_300_LN_4_LD_20_RN_2_RD_4_1.png","img2/200/Congruent/R/C_Dist_200_LN_7_LD_15_RN_18_RD_27_1.png","img2/100/Incongruent/L/I_Dist_100_LN_2_LD_4_RN_8_RD_20_0.png","img2/100/Congruent/L/C_Dist_100_LN_10_LD_25_RN_3_RD_10_0.png","img2/200/Congruent/L/C_Dist_200_LN_16_LD_20_RN_12_RD_20_0.png","img2/200/Incongruent/L/I_Dist_200_LN_1_LD_3_RN_2_RD_15_0.png","img2/200/Incongruent/R/I_Dist_200_LN_3_LD_10_RN_1_RD_2_1.png","img2/300/Congruent/R/C_Dist_300_LN_1_LD_5_RN_3_RD_6_1.png","img2/200/Incongruent/L/I_Dist_200_LN_4_LD_5_RN_6_RD_10_0.png","img2/300/Congruent/R/C_Dist_300_LN_8_LD_15_RN_10_RD_12_1.png","img2/200/Congruent/L/C_Dist_200_LN_7_LD_21_RN_2_RD_15_0.png","img2/300/Congruent/R/C_Dist_300_LN_1_LD_5_RN_11_RD_22_1.png","img2/300/Congruent/R/C_Dist_300_LN_1_LD_5_RN_6_RD_12_1.png","img2/100/Incongruent/R/I_Dist_100_LN_6_LD_12_RN_3_RD_5_1.png","img2/300/Congruent/R/C_Dist_300_LN_7_LD_14_RN_20_RD_25_1.png","img2/200/Incongruent/R/I_Dist_200_LN_7_LD_15_RN_4_RD_6_1.png","img2/200/Incongruent/R/I_Dist_200_LN_6_LD_20_RN_3_RD_6_1.png","img2/200/Congruent/R/C_Dist_200_LN_3_LD_10_RN_14_RD_28_1.png","img2/200/Incongruent/L/I_Dist_200_LN_4_LD_5_RN_6_RD_10_0.png","img2/100/Incongruent/L/I_Dist_100_LN_6_LD_10_RN_11_RD_22_0.png","img2/300/Incongruent/L/I_Dist_300_LN_3_LD_6_RN_4_RD_20_0.png","img2/200/Congruent/L/C_Dist_200_LN_12_LD_15_RN_6_RD_10_0.png","img2/200/Congruent/R/C_Dist_200_LN_7_LD_15_RN_18_RD_27_1.png","img2/100/Incongruent/L/I_Dist_100_LN_3_LD_5_RN_11_RD_22_0.png","img2/200/Incongruent/R/I_Dist_200_LN_14_LD_30_RN_6_RD_9_1.png","img2/200/Congruent/R/C_Dist_200_LN_3_LD_12_RN_9_RD_20_1.png","img2/300/Incongruent/R/I_Dist_300_LN_13_LD_26_RN_12_RD_15_1.png","img2/300/Incongruent/L/I_Dist_300_LN_1_LD_2_RN_3_RD_15_0.png","img2/100/Congruent/L/C_Dist_100_LN_15_LD_25_RN_13_RD_26_0.png","img2/300/Incongruent/L/I_Dist_300_LN_8_LD_10_RN_14_RD_28_0.png","img2/200/Incongruent/L/I_Dist_200_LN_7_LD_10_RN_12_RD_24_0.png","img2/200/Congruent/L/C_Dist_200_LN_16_LD_20_RN_12_RD_20_0.png","img2/300/Incongruent/L/I_Dist_300_LN_1_LD_2_RN_2_RD_10_0.png","img2/200/Incongruent/R/I_Dist_200_LN_3_LD_10_RN_1_RD_2_1.png","img2/300/Congruent/R/C_Dist_300_LN_2_LD_10_RN_12_RD_24_1.png","img2/300/Incongruent/L/I_Dist_300_LN_1_LD_2_RN_2_RD_10_0.png","img2/200/Congruent/R/C_Dist_200_LN_3_LD_12_RN_9_RD_20_1.png","img2/200/Incongruent/L/I_Dist_200_LN_3_LD_4_RN_11_RD_20_0.png","img2/300/Incongruent/R/I_Dist_300_LN_13_LD_26_RN_12_RD_15_1.png","img2/100/Congruent/L/C_Dist_100_LN_11_LD_22_RN_4_RD_10_0.png","img2/200/Incongruent/L/I_Dist_200_LN_1_LD_3_RN_2_RD_15_0.png","img2/100/Incongruent/L/I_Dist_100_LN_3_LD_9_RN_7_RD_30_0.png","img2/300/Congruent/R/C_Dist_300_LN_1_LD_3_RN_19_RD_30_1.png","img2/200/Incongruent/R/I_Dist_200_LN_14_LD_30_RN_12_RD_18_1.png","img2/300/Congruent/L/C_Dist_300_LN_24_LD_30_RN_8_RD_16_0.png","img2/200/Incongruent/L/I_Dist_200_LN_1_LD_2_RN_3_RD_10_0.png","img2/100/Congruent/R/C_Dist_100_LN_1_LD_2_RN_18_RD_30_1.png","img2/100/Congruent/L/C_Dist_100_LN_8_LD_16_RN_2_RD_5_0.png","img2/200/Congruent/R/C_Dist_200_LN_13_LD_26_RN_14_RD_20_1.png","img2/300/Congruent/L/C_Dist_300_LN_20_LD_25_RN_5_RD_10_0.png","img2/300/Congruent/L/C_Dist_300_LN_9_LD_10_RN_3_RD_5_0.png","img2/300/Incongruent/R/I_Dist_300_LN_4_LD_20_RN_2_RD_4_1.png","img2/100/Incongruent/L/I_Dist_100_LN_9_LD_10_RN_20_RD_25_0.png","img2/300/Incongruent/L/I_Dist_300_LN_2_LD_4_RN_6_RD_30_0.png","img2/100/Incongruent/L/I_Dist_100_LN_6_LD_10_RN_11_RD_22_0.png","img2/300/Incongruent/L/I_Dist_300_LN_8_LD_10_RN_14_RD_28_0.png","img2/100/Congruent/R/C_Dist_100_LN_3_LD_20_RN_4_RD_16_1.png","img2/100/Congruent/L/C_Dist_100_LN_9_LD_15_RN_8_RD_16_0.png","img2/200/Incongruent/L/I_Dist_200_LN_7_LD_10_RN_12_RD_24_0.png","img2/100/Congruent/R/C_Dist_100_LN_4_LD_10_RN_15_RD_30_1.png","img2/300/Congruent/R/C_Dist_300_LN_3_LD_12_RN_11_RD_20_1.png","img2/300/Congruent/L/C_Dist_300_LN_11_LD_22_RN_1_RD_5_0.png","img2/200/Incongruent/R/I_Dist_200_LN_6_LD_20_RN_3_RD_6_1.png","img2/300/Incongruent/L/I_Dist_300_LN_4_LD_5_RN_6_RD_12_0.png","img2/300/Congruent/R/C_Dist_300_LN_5_LD_25_RN_7_RD_14_1.png","img2/100/Incongruent/R/I_Dist_100_LN_11_LD_22_RN_9_RD_15_1.png","img2/200/Incongruent/R/I_Dist_200_LN_3_LD_10_RN_1_RD_2_1.png","img2/100/Congruent/L/C_Dist_100_LN_8_LD_16_RN_2_RD_5_0.png","img2/300/Incongruent/R/I_Dist_300_LN_13_LD_26_RN_12_RD_15_1.png","img2/100/Incongruent/R/I_Dist_100_LN_13_LD_26_RN_6_RD_10_1.png","img2/300/Congruent/R/C_Dist_300_LN_4_LD_20_RN_13_RD_26_1.png","img2/300/Incongruent/L/I_Dist_300_LN_1_LD_2_RN_2_RD_10_0.png","img2/100/Incongruent/R/I_Dist_100_LN_12_LD_30_RN_2_RD_4_1.png","img2/200/Congruent/L/C_Dist_200_LN_8_LD_15_RN_2_RD_6_0.png","img2/200/Congruent/L/C_Dist_200_LN_6_LD_15_RN_3_RD_15_0.png","img2/200/Congruent/L/C_Dist_200_LN_14_LD_28_RN_6_RD_20_0.png","img2/200/Congruent/L/C_Dist_200_LN_8_LD_15_RN_2_RD_6_0.png","img2/200/Incongruent/L/I_Dist_200_LN_7_LD_10_RN_14_RD_28_0.png","img2/300/Congruent/R/C_Dist_300_LN_3_LD_12_RN_11_RD_20_1.png","img2/300/Incongruent/L/I_Dist_300_LN_3_LD_6_RN_4_RD_20_0.png","img2/100/Incongruent/L/I_Dist_100_LN_9_LD_10_RN_20_RD_25_0.png","img2/300/Congruent/R/C_Dist_300_LN_1_LD_5_RN_3_RD_6_1.png","img2/100/Incongruent/R/I_Dist_100_LN_9_LD_18_RN_6_RD_10_1.png","img2/200/Congruent/R/C_Dist_200_LN_13_LD_26_RN_14_RD_20_1.png","img2/100/Congruent/R/C_Dist_100_LN_12_LD_30_RN_13_RD_26_1.png","img2/100/Incongruent/L/I_Dist_100_LN_9_LD_10_RN_20_RD_25_0.png","img2/100/Congruent/L/C_Dist_100_LN_9_LD_15_RN_8_RD_16_0.png","img2/100/Incongruent/L/I_Dist_100_LN_3_LD_5_RN_11_RD_22_0.png","img2/100/Congruent/L/C_Dist_100_LN_9_LD_15_RN_8_RD_16_0.png","img2/200/Incongruent/R/I_Dist_200_LN_6_LD_20_RN_3_RD_6_1.png","img2/200/Congruent/L/C_Dist_200_LN_9_LD_20_RN_4_RD_16_0.png","img2/100/Congruent/L/C_Dist_100_LN_6_LD_20_RN_5_RD_25_0.png","img2/300/Congruent/L/C_Dist_300_LN_20_LD_25_RN_8_RD_16_0.png","img2/100/Incongruent/R/I_Dist_100_LN_10_LD_25_RN_9_RD_18_1.png","img2/100/Incongruent/L/I_Dist_100_LN_3_LD_6_RN_4_RD_10_0.png","img2/200/Congruent/L/C_Dist_200_LN_12_LD_15_RN_6_RD_10_0.png","img2/300/Congruent/R/C_Dist_300_LN_1_LD_5_RN_6_RD_12_1.png","img2/100/Congruent/R/C_Dist_100_LN_7_LD_14_RN_9_RD_15_1.png","img2/100/Congruent/L/C_Dist_100_LN_10_LD_25_RN_3_RD_10_0.png","img2/200/Incongruent/L/I_Dist_200_LN_4_LD_5_RN_6_RD_10_0.png","img2/200/Incongruent/L/I_Dist_200_LN_7_LD_10_RN_14_RD_28_0.png","img2/300/Congruent/R/C_Dist_300_LN_1_LD_3_RN_19_RD_30_1.png","img2/100/Incongruent/R/I_Dist_100_LN_10_LD_25_RN_8_RD_16_1.png","img2/300/Incongruent/R/I_Dist_300_LN_4_LD_20_RN_2_RD_4_1.png","img2/100/Congruent/R/C_Dist_100_LN_1_LD_2_RN_18_RD_30_1.png","img2/300/Incongruent/L/I_Dist_300_LN_8_LD_10_RN_9_RD_18_0.png","img2/200/Congruent/R/C_Dist_200_LN_3_LD_10_RN_11_RD_22_1.png","img2/300/Congruent/L/C_Dist_300_LN_20_LD_25_RN_9_RD_18_0.png","img2/300/Incongruent/R/I_Dist_300_LN_4_LD_20_RN_2_RD_4_1.png","img2/100/Congruent/L/C_Dist_100_LN_10_LD_25_RN_3_RD_10_0.png"],"dist100_C":[["C_Dist_100_LN_10_LD_25_RN_3_RD_10_0.png","C_Dist_100_LN_11_LD_22_RN_4_RD_10_0.png","C_Dist_100_LN_11_LD_22_RN_6_RD_15_0.png","C_Dist_100_LN_15_LD_25_RN_13_RD_26_0.png","C_Dist_100_LN_3_LD_6_RN_2_RD_5_0.png","C_Dist_100_LN_6_LD_20_RN_5_RD_25_0.png","C_Dist_100_LN_8_LD_16_RN_2_RD_5_0.png","C_Dist_100_LN_9_LD_15_RN_8_RD_16_0.png"],["C_Dist_100_LN_1_LD_2_RN_18_RD_30_1.png","C_Dist_100_LN_1_LD_2_RN_3_RD_5_1.png","C_Dist_100_LN_12_LD_30_RN_13_RD_26_1.png","C_Dist_100_LN_2_LD_5_RN_11_RD_22_1.png","C_Dist_100_LN_2_LD_5_RN_6_RD_12_1.png","C_Dist_100_LN_3_LD_20_RN_4_RD_16_1.png","C_Dist_100_LN_4_LD_10_RN_15_RD_30_1.png","C_Dist_100_LN_4_LD_8_RN_6_RD_10_1.png","C_Dist_100_LN_6_LD_12_RN_15_RD_25_1.png","C_Dist_100_LN_7_LD_14_RN_15_RD_25_1.png","C_Dist_100_LN_7_LD_14_RN_9_RD_15_1.png"]],"dist100_I":[["I_Dist_100_LN_1_LD_2_RN_8_RD_20_0.png","I_Dist_100_LN_2_LD_4_RN_6_RD_15_0.png","I_Dist_100_LN_2_LD_4_RN_8_RD_20_0.png","I_Dist_100_LN_3_LD_5_RN_11_RD_22_0.png","I_Dist_100_LN_3_LD_5_RN_8_RD_16_0.png","I_Dist_100_LN_3_LD_6_RN_4_RD_10_0.png","I_Dist_100_LN_3_LD_9_RN_7_RD_30_0.png","I_Dist_100_LN_4_LD_8_RN_8_RD_20_0.png","I_Dist_100_LN_6_LD_10_RN_11_RD_22_0.png","I_Dist_100_LN_6_LD_10_RN_13_RD_26_0.png","I_Dist_100_LN_6_LD_10_RN_7_RD_14_0.png","I_Dist_100_LN_9_LD_10_RN_20_RD_25_0.png","I_Dist_100_LN_9_LD_15_RN_13_RD_26_0.png","I_Dist_100_LN_9_LD_15_RN_14_RD_28_0.png"],["I_Dist_100_LN_10_LD_25_RN_8_RD_16_1.png","I_Dist_100_LN_10_LD_25_RN_9_RD_18_1.png","I_Dist_100_LN_11_LD_22_RN_9_RD_15_1.png","I_Dist_100_LN_12_LD_24_RN_9_RD_15_1.png","I_Dist_100_LN_12_LD_30_RN_2_RD_4_1.png","I_Dist_100_LN_13_LD_26_RN_12_RD_20_1.png","I_Dist_100_LN_13_LD_26_RN_6_RD_10_1.png","I_Dist_100_LN_17_LD_30_RN_10_RD_15_1.png","I_Dist_100_LN_6_LD_12_RN_3_RD_5_1.png","I_Dist_100_LN_8_LD_16_RN_6_RD_10_1.png","I_Dist_100_LN_8_LD_20_RN_1_RD_2_1.png","I_Dist_100_LN_9_LD_18_RN_6_RD_10_1.png"]],"dist100_S":[["E_Dist_100_LN_2_LD_12_RN_2_RD_30_0.png","E_Dist_100_LN_6_LD_10_RN_6_RD_12_0.png"],["E_Dist_100_LN_6_LD_12_RN_6_RD_10_1.png"]],"dist200_C":[["C_Dist_200_LN_11_LD_22_RN_3_RD_10_0.png","C_Dist_200_LN_12_LD_15_RN_6_RD_10_0.png","C_Dist_200_LN_12_LD_20_RN_6_RD_15_0.png","C_Dist_200_LN_14_LD_28_RN_6_RD_20_0.png","C_Dist_200_LN_15_LD_25_RN_4_RD_10_0.png","C_Dist_200_LN_16_LD_20_RN_12_RD_20_0.png","C_Dist_200_LN_16_LD_30_RN_9_RD_27_0.png","C_Dist_200_LN_20_LD_25_RN_9_RD_15_0.png","C_Dist_200_LN_21_LD_30_RN_2_RD_4_0.png","C_Dist_200_LN_4_LD_10_RN_3_RD_15_0.png","C_Dist_200_LN_4_LD_8_RN_3_RD_10_0.png","C_Dist_200_LN_6_LD_15_RN_3_RD_15_0.png","C_Dist_200_LN_7_LD_21_RN_2_RD_15_0.png","C_Dist_200_LN_8_LD_15_RN_2_RD_6_0.png","C_Dist_200_LN_8_LD_15_RN_3_RD_9_0.png","C_Dist_200_LN_8_LD_15_RN_7_RD_21_0.png","C_Dist_200_LN_9_LD_20_RN_4_RD_16_0.png"],["C_Dist_200_LN_1_LD_2_RN_21_RD_30_1.png","C_Dist_200_LN_13_LD_26_RN_14_RD_20_1.png","C_Dist_200_LN_3_LD_10_RN_11_RD_22_1.png","C_Dist_200_LN_3_LD_10_RN_14_RD_28_1.png","C_Dist_200_LN_3_LD_10_RN_7_RD_14_1.png","C_Dist_200_LN_3_LD_12_RN_9_RD_20_1.png","C_Dist_200_LN_3_LD_6_RN_14_RD_20_1.png","C_Dist_200_LN_5_LD_10_RN_14_RD_20_1.png","C_Dist_200_LN_6_LD_12_RN_7_RD_10_1.png","C_Dist_200_LN_6_LD_20_RN_11_RD_22_1.png","C_Dist_200_LN_7_LD_15_RN_18_RD_27_1.png","C_Dist_200_LN_9_LD_30_RN_13_RD_26_1.png"]],"dist200_I":[["I_Dist_200_LN_1_LD_2_RN_3_RD_10_0.png","I_Dist_200_LN_1_LD_3_RN_2_RD_15_0.png","I_Dist_200_LN_3_LD_4_RN_11_RD_20_0.png","I_Dist_200_LN_4_LD_5_RN_6_RD_10_0.png","I_Dist_200_LN_4_LD_6_RN_14_RD_30_0.png","I_Dist_200_LN_7_LD_10_RN_12_RD_24_0.png","I_Dist_200_LN_7_LD_10_RN_14_RD_28_0.png","I_Dist_200_LN_7_LD_10_RN_8_RD_16_0.png"],["I_Dist_200_LN_11_LD_20_RN_3_RD_4_1.png","I_Dist_200_LN_14_LD_30_RN_12_RD_18_1.png","I_Dist_200_LN_14_LD_30_RN_6_RD_9_1.png","I_Dist_200_LN_3_LD_10_RN_1_RD_2_1.png","I_Dist_200_LN_4_LD_30_RN_1_RD_3_1.png","I_Dist_200_LN_6_LD_20_RN_3_RD_6_1.png","I_Dist_200_LN_7_LD_15_RN_4_RD_6_1.png","I_Dist_200_LN_7_LD_15_RN_6_RD_9_1.png","I_Dist_200_LN_9_LD_15_RN_8_RD_10_1.png"]],"dist200_S":[["E_Dist_200_LN_3_LD_6_RN_3_RD_10_0.png"],["E_Dist_200_LN_3_LD_10_RN_3_RD_6_1.png"]],"dist300_C":[["C_Dist_300_LN_11_LD_22_RN_1_RD_5_0.png","C_Dist_300_LN_11_LD_22_RN_2_RD_10_0.png","C_Dist_300_LN_11_LD_22_RN_4_RD_20_0.png","C_Dist_300_LN_12_LD_24_RN_2_RD_10_0.png","C_Dist_300_LN_18_LD_20_RN_9_RD_15_0.png","C_Dist_300_LN_20_LD_25_RN_13_RD_26_0.png","C_Dist_300_LN_20_LD_25_RN_14_RD_28_0.png","C_Dist_300_LN_20_LD_25_RN_5_RD_10_0.png","C_Dist_300_LN_20_LD_25_RN_8_RD_16_0.png","C_Dist_300_LN_20_LD_25_RN_9_RD_18_0.png","C_Dist_300_LN_24_LD_30_RN_2_RD_4_0.png","C_Dist_300_LN_24_LD_30_RN_8_RD_16_0.png","C_Dist_300_LN_3_LD_6_RN_2_RD_10_0.png","C_Dist_300_LN_4_LD_10_RN_1_RD_10_0.png","C_Dist_300_LN_4_LD_5_RN_2_RD_4_0.png","C_Dist_300_LN_8_LD_16_RN_1_RD_5_0.png","C_Dist_300_LN_9_LD_10_RN_3_RD_5_0.png"],["C_Dist_300_LN_1_LD_20_RN_7_RD_20_1.png","C_Dist_300_LN_1_LD_3_RN_19_RD_30_1.png","C_Dist_300_LN_1_LD_30_RN_8_RD_24_1.png","C_Dist_300_LN_1_LD_5_RN_11_RD_22_1.png","C_Dist_300_LN_1_LD_5_RN_3_RD_6_1.png","C_Dist_300_LN_1_LD_5_RN_6_RD_12_1.png","C_Dist_300_LN_2_LD_10_RN_12_RD_24_1.png","C_Dist_300_LN_2_LD_20_RN_10_RD_25_1.png","C_Dist_300_LN_3_LD_12_RN_11_RD_20_1.png","C_Dist_300_LN_3_LD_6_RN_4_RD_5_1.png","C_Dist_300_LN_4_LD_20_RN_13_RD_26_1.png","C_Dist_300_LN_5_LD_25_RN_6_RD_12_1.png","C_Dist_300_LN_5_LD_25_RN_7_RD_14_1.png","C_Dist_300_LN_7_LD_14_RN_20_RD_25_1.png","C_Dist_300_LN_8_LD_15_RN_10_RD_12_1.png"]],"dist300_I":[["I_Dist_300_LN_1_LD_2_RN_2_RD_10_0.png","I_Dist_300_LN_1_LD_2_RN_3_RD_15_0.png","I_Dist_300_LN_2_LD_4_RN_6_RD_30_0.png","I_Dist_300_LN_3_LD_6_RN_4_RD_20_0.png","I_Dist_300_LN_4_LD_5_RN_6_RD_12_0.png","I_Dist_300_LN_4_LD_5_RN_8_RD_16_0.png","I_Dist_300_LN_7_LD_10_RN_8_RD_20_0.png","I_Dist_300_LN_8_LD_10_RN_14_RD_28_0.png","I_Dist_300_LN_8_LD_10_RN_9_RD_18_0.png"],["I_Dist_300_LN_13_LD_26_RN_12_RD_15_1.png","I_Dist_300_LN_4_LD_20_RN_2_RD_4_1.png"]],"dist300_S":[["E_Dist_300_LN_9_LD_12_RN_9_RD_20_0.png"],["E_Dist_300_LN_18_LD_30_RN_18_RD_20_1.png","E_Dist_300_LN_3_LD_10_RN_3_RD_5_1.png","E_Dist_300_LN_9_LD_20_RN_9_RD_12_1.png"]],"dist500_C":[["C_Dist_500_LN_10_LD_13_RN_7_RD_26_0.png","C_Dist_500_LN_10_LD_15_RN_4_RD_24_0.png","C_Dist_500_LN_12_LD_16_RN_3_RD_12_0.png","C_Dist_500_LN_12_LD_18_RN_4_RD_24_0.png","C_Dist_500_LN_15_LD_18_RN_5_RD_15_0.png","C_Dist_500_LN_15_LD_20_RN_1_RD_4_0.png","C_Dist_500_LN_18_LD_27_RN_1_RD_6_0.png","C_Dist_500_LN_20_LD_24_RN_1_RD_3_0.png","C_Dist_500_LN_20_LD_24_RN_3_RD_9_0.png","C_Dist_500_LN_20_LD_24_RN_7_RD_21_0.png","C_Dist_500_LN_20_LD_28_RN_3_RD_14_0.png","C_Dist_500_LN_21_LD_28_RN_6_RD_24_0.png","C_Dist_500_LN_22_LD_28_RN_2_RD_7_0.png","C_Dist_500_LN_25_LD_30_RN_9_RD_27_0.png","C_Dist_500_LN_4_LD_6_RN_1_RD_6_0.png","C_Dist_500_LN_5_LD_6_RN_2_RD_6_0.png","C_Dist_500_LN_6_LD_9_RN_1_RD_6_0.png","C_Dist_500_LN_7_LD_10_RN_1_RD_5_0.png","C_Dist_500_LN_8_LD_12_RN_1_RD_6_0.png","C_Dist_500_LN_8_LD_12_RN_4_RD_24_0.png"],["C_Dist_500_LN_1_LD_4_RN_12_RD_16_1.png","C_Dist_500_LN_1_LD_4_RN_9_RD_12_1.png","C_Dist_500_LN_1_LD_9_RN_11_RD_18_1.png","C_Dist_500_LN_10_LD_24_RN_22_RD_24_1.png","C_Dist_500_LN_2_LD_12_RN_10_RD_15_1.png","C_Dist_500_LN_2_LD_12_RN_12_RD_18_1.png","C_Dist_500_LN_2_LD_12_RN_4_RD_6_1.png","C_Dist_500_LN_2_LD_24_RN_7_RD_12_1.png","C_Dist_500_LN_2_LD_5_RN_18_RD_20_1.png","C_Dist_500_LN_2_LD_5_RN_9_RD_10_1.png","C_Dist_500_LN_2_LD_8_RN_12_RD_16_1.png","C_Dist_500_LN_2_LD_8_RN_21_RD_28_1.png","C_Dist_500_LN_3_LD_10_RN_4_RD_5_1.png","C_Dist_500_LN_3_LD_12_RN_15_RD_20_1.png","C_Dist_500_LN_3_LD_30_RN_6_RD_10_1.png","C_Dist_500_LN_3_LD_8_RN_14_RD_16_1.png","C_Dist_500_LN_4_LD_16_RN_15_RD_20_1.png","C_Dist_500_LN_4_LD_24_RN_12_RD_18_1.png","C_Dist_500_LN_5_LD_14_RN_6_RD_7_1.png","C_Dist_500_LN_7_LD_21_RN_20_RD_24_1.png","C_Dist_500_LN_7_LD_28_RN_12_RD_16_1.png","C_Dist_500_LN_7_LD_28_RN_9_RD_12_1.png","C_Dist_500_LN_9_LD_27_RN_20_RD_24_1.png"]],"dist500_I":[["I_Dist_500_LN_2_LD_3_RN_4_RD_24_0.png","I_Dist_500_LN_5_LD_6_RN_6_RD_18_0.png","I_Dist_500_LN_7_LD_8_RN_9_RD_24_0.png"],["I_Dist_500_LN_7_LD_21_RN_5_RD_6_1.png"]],"dist500_S":[["E_Dist_500_LN_6_LD_8_RN_6_RD_24_0.png"],["E_Dist_500_LN_2_LD_12_RN_2_RD_3_1.png","E_Dist_500_LN_6_LD_24_RN_6_RD_8_1.png"]]}},{"start_time":1551794184189,"click_time":1551794186523,"finger_time":1551794186181,"fix_duration":946.6291384046494,"trial":1,"RT":1992,"MT":342,"sideResp":2,"stimulus":[],"xmouse":[805,805,805,805,805,805,805,805,805,805,805,805,805,805,805,805,805,805,805,805,805,805,805,805,805,805,805,805,805,805,805,805,805,805,805,805,805,805,805,805,805,805,805,805,805,805,805,805,805,805,805,805,805,805,805,805,805,805,805,805,805,805,805,805,805,805,805,805,805,805,805,805,805,805,805,805,805,805,805,805,805,805,805,805,805,805,805,805,805,805,805,805,805,805,805,805,805,811,821,860,904,949,1032,1053,1062,1067,1071,1073,1074,1076,1079,1082,1086,1089,1091,1091,1092],"ymouse":[498,498,498,498,498,498,498,498,498,498,498,498,498,498,498,498,498,498,498,498,498,498,498,498,498,498,498,498,498,498,498,498,498,498,498,498,498,498,498,498,498,498,498,498,498,498,498,498,498,498,498,498,498,498,498,498,498,498,498,498,498,498,498,498,498,498,498,498,498,498,498,498,498,498,498,498,498,498,498,498,498,498,498,498,498,498,498,498,498,498,498,498,498,498,498,498,498,493,481,432,383,327,226,194,176,163,155,150,149,145,140,134,122,114,107,102,92],"timestamp_mouse":[18,33,63,73,92,113,132,152,173,192,212,232,252,272,294,313,332,352,374,393,412,434,453,473,493,512,532,552,574,592,612,632,654,672,692,712,732,753,772,794,812,832,853,874,893,913,932,952,972,992,1012,1032,1053,1073,1092,1113,1133,1152,1173,1194,1213,1233,1254,1273,1293,1313,1332,1352,1372,1392,1413,1433,1452,1472,1493,1513,1533,1552,1573,1594,1613,1633,1652,1672,1693,1713,1733,1753,1772,1792,1813,1833,1853,1874,1893,1912,1933,1952,1972,1992,2013,2033,2052,2072,2092,2114,2133,2153,2172,2193,2213,2232,2252,2273,2292,2313,2334],"xSR":741.5,"ySR":469.95,"xT1":424.9,"yT1":0,"xT2":1058.1,"yT2":0,"toosoon":0,"cond_shown":"Congruent","ratio_trial":200,"L_num":9,"L_den":30,"R_num":13,"R_den":26,"correct_side":2,"subjID":"gabrielagranadosbustos19","gender":"1","school":"6","age":"11"},{"start_time":1551794188187,"click_time":1551794189781,"finger_time":1551794189541,"fix_duration":663.3000320044074,"trial":2,"RT":1354,"MT":240,"sideResp":2,"stimulus":[],"xmouse":[805,804,804,803,803,803,802,802,802,802,802,802,802,802,802,802,802,802,802,802,802,802,802,802,802,802,802,802,802,802,802,802,802,802,802,802,802,802,802,802,802,802,802,802,802,802,802,802,802,802,802,802,802,802,802,802,802,802,802,802,802,802,802,802,802,802,802,818,835,872,917,962,1031,1049,1060,1061,1063,1063,1068,1071],"ymouse":[487,487,487,487,487,487,487,487,487,487,487,487,487,487,487,487,487,487,487,487,487,487,487,487,487,487,487,487,487,487,487,487,487,487,487,487,487,487,487,487,487,487,487,487,487,487,487,487,487,487,487,487,487,487,487,487,487,487,487,487,487,487,487,487,487,487,486,469,447,392,320,245,157,137,125,123,121,119,106,97],"timestamp_mouse":[14,34,54,74,96,114,135,155,174,195,215,234,254,274,295,316,334,354,374,394,414,435,455,474,494,514,535,554,574,596,614,634,654,675,694,714,735,755,776,795,814,834,855,875,894,914,934,955,975,994,1015,1035,1055,1074,1094,1115,1134,1155,1175,1195,1216,1234,1254,1276,1295,1316,1334,1354,1374,1395,1415,1436,1454,1475,1494,1514,1536,1555,1574,1594],"xSR":741.5,"ySR":469.95,"xT1":424.9,"yT1":0,"xT2":1058.1,"yT2":0,"toosoon":0,"cond_shown":"Incongruent","ratio_trial":100,"L_num":8,"L_den":16,"R_num":6,"R_den":10,"correct_side":2,"subjID":"gabrielagranadosbustos19","gender":"1","school":"6","age":"11"},{"start_time":1551794192163,"click_time":1551794194642,"finger_time":1551794193682,"fix_duration":1261.0006981246963,"trial":3,"RT":1519,"MT":960,"sideResp":1,"stimulus":[],"xmouse":[792,792,792,792,792,793,793,793,793,793,793,793,793,793,793,793,793,793,793,793,793,793,793,793,793,793,793,793,793,793,793,793,793,793,793,793,793,793,793,793,791,790,788,787,787,787,787,787,787,787,787,787,787,787,787,787,787,787,787,787,787,787,787,787,787,787,787,787,787,787,787,787,787,798,818,849,882,949,1007,1016,1019,1020,1022,1035,1039,1041,1042,1046,1053,1056,1058,1058,1058,1058,1058,1058,1058,1058,1058,1042,1013,977,950,923,851,789,724,642,569,550,543,542,542,539,535,535,535,535,535,535,535,533,527,518],"ymouse":[528,528,530,531,531,531,531,531,531,531,531,531,531,531,531,531,531,531,531,531,531,531,531,531,531,531,531,531,531,531,531,531,531,531,531,531,531,531,531,531,530,530,528,527,527,527,527,527,527,527,527,527,527,527,527,527,527,527,527,527,527,527,527,527,527,527,527,527,527,527,527,527,524,515,499,474,442,351,248,227,217,211,203,185,180,177,175,172,169,168,167,167,167,167,167,167,167,167,167,177,193,210,222,226,216,191,161,127,95,88,82,82,80,76,72,72,72,72,72,72,72,71,71,70],"timestamp_mouse":[32,38,59,79,99,120,138,158,178,199,218,238,260,278,299,320,338,358,379,399,420,438,458,479,499,518,538,559,579,598,618,638,658,678,699,718,738,760,779,799,819,839,858,879,900,919,939,958,979,999,1018,1038,1059,1079,1099,1118,1139,1160,1178,1200,1218,1238,1259,1279,1299,1319,1338,1358,1378,1398,1419,1439,1459,1478,1500,1519,1539,1558,1579,1598,1618,1638,1659,1678,1698,1718,1738,1758,1779,1798,1819,1839,1859,1878,1898,1918,1938,1958,1979,1998,2018,2039,2058,2078,2099,2119,2138,2159,2179,2198,2218,2239,2258,2279,2298,2318,2339,2358,2378,2399,2418,2439,2458,2478],"xSR":741.5,"ySR":469.95,"xT1":424.9,"yT1":0,"xT2":1058.1,"yT2":0,"toosoon":0,"cond_shown":"Incongruent","ratio_trial":100,"L_num":3,"L_den":6,"R_num":4,"R_den":10,"correct_side":1,"subjID":"gabrielagranadosbustos19","gender":"1","school":"6","age":"11"},{"start_time":1551794197165,"click_time":1551794199461,"finger_time":1551794199161,"fix_duration":1482.0616284465882,"trial":4,"RT":1996,"MT":300,"sideResp":2,"stimulus":[],"xmouse":[794,794,794,794,794,794,794,794,794,793,792,792,792,792,792,792,792,792,792,792,792,792,792,792,792,792,792,792,792,792,792,792,792,792,792,792,792,792,792,792,792,792,792,792,792,792,792,792,792,792,792,792,792,792,792,792,792,792,792,792,792,792,792,792,792,792,792,792,792,792,792,792,792,792,792,792,792,792,792,792,792,792,792,792,789,789,789,789,789,789,789,789,789,789,789,789,789,811,826,853,871,893,925,964,1034,1047,1055,1058,1063,1093,1109,1121,1128,1131,1131],"ymouse":[508,508,508,508,508,508,508,508,508,508,508,508,508,508,508,508,509,511,512,512,512,512,512,512,512,512,512,512,512,512,512,512,512,512,512,512,512,512,512,512,512,512,512,512,512,512,512,512,512,512,512,512,512,512,512,512,512,512,512,512,512,512,512,512,512,512,512,512,512,512,512,512,512,512,512,512,512,512,512,512,512,512,512,512,516,516,516,516,516,516,516,516,516,516,516,516,516,502,490,439,396,354,316,288,256,247,239,233,227,196,175,144,119,104,69],"timestamp_mouse":[33,36,56,76,96,116,137,157,177,196,216,237,257,276,296,316,338,358,376,396,417,438,457,477,496,516,537,556,577,596,616,637,657,676,697,717,736,757,776,796,817,837,857,876,897,916,938,956,976,998,1018,1036,1058,1077,1097,1116,1138,1157,1177,1196,1216,1237,1256,1277,1297,1316,1337,1356,1377,1397,1417,1436,1456,1476,1497,1516,1537,1558,1576,1596,1617,1637,1657,1677,1696,1716,1736,1756,1776,1797,1816,1836,1857,1877,1897,1916,1937,1956,1977,1996,2017,2036,2058,2077,2096,2116,2136,2157,2177,2196,2216,2237,2256,2277,2296],"xSR":741.5,"ySR":469.95,"xT1":424.9,"yT1":0,"xT2":1058.1,"yT2":0,"toosoon":0,"cond_shown":"Incongruent","ratio_trial":300,"L_num":4,"L_den":20,"R_num":2,"R_den":4,"correct_side":2,"subjID":"gabrielagranadosbustos19","gender":"1","school":"6","age":"11"},{"start_time":1551794200964,"click_time":1551794203022,"finger_time":1551794202602,"fix_duration":600.4674381677969,"trial":5,"RT":1638,"MT":420,"sideResp":1,"stimulus":[],"xmouse":[789,789,789,789,789,789,789,789,789,789,789,789,789,789,789,789,789,789,789,789,789,789,789,789,789,789,789,789,789,789,789,789,789,789,789,789,789,789,789,789,789,789,789,789,789,789,789,789,789,789,789,789,789,789,789,789,789,789,789,789,789,789,789,789,789,789,789,789,789,789,789,789,789,789,789,789,788,786,781,774,755,721,704,652,616,613,610,608,608,608,608,608,608,608,608,608,608,608,608,533,529,527,524],"ymouse":[535,535,535,535,535,535,535,535,535,535,535,535,535,535,535,535,535,535,535,535,535,535,535,535,535,535,535,535,535,535,535,535,535,535,535,535,535,535,535,535,535,535,535,535,535,535,535,535,535,535,535,535,535,535,535,535,535,535,535,535,535,535,535,535,535,535,535,535,535,535,535,535,535,535,535,535,536,536,536,535,479,380,339,219,105,82,59,39,16,16,16,16,16,16,16,16,16,16,16,15,21,25,31],"timestamp_mouse":[31,37,57,78,97,119,139,158,178,197,219,238,257,278,298,318,338,357,377,397,418,437,457,477,498,517,538,557,577,597,617,638,657,677,698,718,739,758,778,799,818,837,857,879,898,918,937,957,977,997,1017,1037,1057,1079,1097,1117,1137,1157,1177,1197,1217,1237,1257,1279,1297,1318,1338,1359,1378,1398,1418,1437,1457,1478,1497,1517,1537,1558,1578,1597,1617,1638,1657,1678,1698,1717,1737,1758,1777,1797,1817,1837,1858,1878,1898,1918,1938,1957,1977,1997,2017,2038,2058],"xSR":741.5,"ySR":469.95,"xT1":424.9,"yT1":0,"xT2":1058.1,"yT2":0,"toosoon":0,"cond_shown":"Congruent","ratio_trial":100,"L_num":6,"L_den":20,"R_num":5,"R_den":25,"correct_side":1,"subjID":"gabrielagranadosbustos19","gender":"1","school":"6","age":"11"},{"start_time":1551794205156,"click_time":1551794207001,"finger_time":1551794206661,"fix_duration":1292.6969421644399,"trial":6,"RT":1505,"MT":340,"sideResp":1,"stimulus":[],"xmouse":[780,780,780,780,780,780,780,780,780,780,780,780,780,780,780,780,780,780,780,780,780,780,780,780,780,780,780,781,781,781,781,781,781,781,781,781,781,781,781,781,781,781,781,781,781,781,781,781,781,781,781,781,781,781,781,781,781,781,781,781,781,781,781,781,781,781,781,781,781,781,781,781,781,777,764,719,599,554,518,494,473,431,403,388,383,383,387,390,390,391,392,422,444],"ymouse":[508,508,508,508,508,508,508,508,508,508,508,508,508,508,508,508,508,508,508,508,508,508,508,508,508,508,508,508,508,508,508,508,508,508,508,508,508,508,508,508,508,508,508,508,508,508,508,508,508,508,508,508,508,508,508,508,508,508,508,508,508,508,508,508,508,508,508,508,508,508,508,508,508,506,496,461,364,323,283,251,210,115,65,43,32,25,15,12,12,12,12,20,27],"timestamp_mouse":[9,42,45,65,85,105,126,145,166,187,206,226,245,265,287,306,326,345,366,385,406,426,445,466,485,507,525,545,566,587,606,625,645,665,686,705,726,745,765,785,805,826,846,866,886,905,925,945,967,986,1006,1025,1046,1066,1087,1105,1126,1146,1166,1185,1206,1227,1246,1265,1286,1305,1325,1345,1365,1385,1406,1425,1445,1466,1486,1505,1525,1546,1565,1585,1607,1626,1646,1665,1685,1706,1725,1745,1766,1785,1806,1825,1845],"xSR":741.5,"ySR":469.95,"xT1":424.9,"yT1":0,"xT2":1058.1,"yT2":0,"toosoon":0,"cond_shown":"Congruent","ratio_trial":100,"L_num":15,"L_den":25,"R_num":13,"R_den":26,"correct_side":1,"subjID":"gabrielagranadosbustos19","gender":"1","school":"6","age":"11"},{"start_time":1551794209392,"click_time":1551794210942,"finger_time":1551794210881,"fix_duration":1408.4569736264614,"trial":7,"RT":1489,"MT":61,"sideResp":1,"stimulus":[],"xmouse":[807,807,807,807,807,807,807,807,807,807,807,807,807,807,807,807,807,807,807,807,807,807,807,807,807,807,807,807,807,807,807,807,807,807,807,807,807,807,807,807,807,807,807,807,807,807,807,807,807,807,807,807,807,807,807,807,807,807,807,807,807,807,807,807,807,807,807,807,807,807,807,805,800,773,726,608,562,515],"ymouse":[513,513,513,513,513,513,513,513,513,513,513,513,513,513,513,513,513,513,513,513,513,513,513,513,513,513,513,513,513,513,513,513,513,513,513,513,513,513,513,513,513,513,513,513,513,513,513,513,513,513,513,513,513,513,513,513,513,513,513,513,513,513,513,513,513,513,513,513,513,513,513,513,513,488,424,193,91,1],"timestamp_mouse":[10,36,49,70,89,110,130,149,169,190,209,229,249,269,289,309,329,349,371,390,409,429,449,470,489,509,530,549,570,589,609,630,650,669,689,709,729,750,771,789,809,829,849,870,889,909,930,949,971,989,1010,1030,1051,1070,1089,1109,1131,1149,1170,1189,1209,1230,1251,1270,1290,1309,1331,1350,1369,1389,1409,1430,1450,1469,1489,1510,1530,1549],"xSR":741.5,"ySR":469.95,"xT1":424.9,"yT1":0,"xT2":1058.1,"yT2":0,"toosoon":0,"cond_shown":"Congruent","ratio_trial":100,"L_num":4,"L_den":8,"R_num":6,"R_den":10,"correct_side":2,"subjID":"gabrielagranadosbustos19","gender":"1","school":"6","age":"11"},{"start_time":1551794217173,"click_time":1551794219203,"finger_time":1551794218823,"fix_duration":669.7696752550451,"trial":8,"RT":1650,"MT":380,"sideResp":2,"stimulus":[],"xmouse":[773,773,773,773,773,773,773,773,773,773,773,773,773,773,773,773,773,773,773,773,773,773,773,773,773,773,773,773,773,773,773,773,773,773,773,773,773,773,773,773,773,773,773,773,773,773,773,773,773,773,773,773,773,773,773,773,773,773,773,773,773,773,773,773,773,773,773,773,773,773,773,774,772,766,760,751,748,748,748,748,748,755,783,846,928,1040,1153,1200,1220,1224,1225,1225,1225,1227,1230,1230,1226,1226,1226,1226,1226,1125],"ymouse":[512,512,512,512,512,512,512,512,512,512,512,512,512,512,512,512,512,512,512,512,512,512,512,512,512,512,512,512,512,512,512,512,512,512,512,512,512,512,512,512,512,512,512,512,512,512,512,512,512,512,512,512,512,512,512,512,512,512,512,512,512,512,512,512,512,512,512,512,512,512,512,512,506,500,496,488,486,486,486,486,486,483,465,420,364,278,169,110,79,71,68,67,66,54,33,14,0,0,0,0,0,3],"timestamp_mouse":[9,44,48,68,88,108,128,148,168,188,209,228,248,269,289,309,329,349,368,388,409,428,448,470,489,509,529,548,568,588,608,628,649,668,688,708,728,749,769,788,809,828,848,868,889,909,928,948,969,988,1010,1028,1048,1069,1088,1108,1128,1148,1169,1188,1208,1228,1248,1269,1288,1309,1328,1348,1368,1388,1409,1428,1449,1468,1488,1509,1528,1548,1570,1588,1608,1628,1650,1669,1688,1708,1728,1748,1769,1789,1808,1828,1848,1868,1890,1908,1929,1948,1969,1989,2008,2030],"xSR":741.5,"ySR":469.95,"xT1":424.9,"yT1":0,"xT2":1058.1,"yT2":0,"toosoon":0,"cond_shown":"Incongruent","ratio_trial":100,"L_num":6,"L_den":12,"R_num":3,"R_den":5,"correct_side":2,"subjID":"gabrielagranadosbustos19","gender":"1","school":"6","age":"11"},{"start_time":1551794221511,"click_time":1551794224721,"finger_time":1551794223041,"fix_duration":1168.1649449267102,"trial":9,"RT":1530,"MT":1680,"sideResp":2,"stimulus":[],"xmouse":[798,798,798,798,798,798,798,798,798,798,798,798,798,798,798,798,798,798,798,798,798,798,798,798,798,798,798,798,798,798,798,798,797,796,796,796,796,796,796,796,796,796,796,796,796,796,796,796,796,796,796,796,796,796,796,795,794,793,793,793,793,793,793,793,793,793,793,793,793,793,793,793,793,793,793,802,824,847,858,869,885,888,892,902,917,956,965,968,970,973,981,989,995,1002,1007,1020,1032,1046,1060,1069,1078,1080,1087,1092,1096,1103,1105,1105,1106,1106,1106,1106,1106,1106,1106,1106,1106,1107,1107,1107,1107,1107,1107,1107,1107,1107,1107,1107,1107,1107,1107,1107,1107,1107,1107,1107,1107,1107,1107,1107,1107,1107,1107,1107,1107,1107,1107,1107,1107,1107,1107,1107,1107,1107,1107,1107,1107,1107,1108,1108,1108],"ymouse":[515,515,515,515,515,515,515,515,515,515,515,515,515,515,515,515,515,515,515,515,515,515,515,515,515,515,515,515,515,515,515,515,515,515,515,515,515,515,515,515,515,515,515,515,515,515,515,515,515,515,515,515,515,515,515,515,515,515,515,515,515,515,515,515,515,515,515,515,515,515,515,515,515,515,515,499,467,425,400,380,355,349,345,334,316,290,285,283,281,280,274,269,264,258,254,239,224,210,197,189,174,170,159,152,146,134,132,130,128,125,120,117,116,113,111,109,108,107,107,105,103,103,103,103,102,101,101,101,101,101,101,101,101,101,101,101,101,101,101,101,101,101,101,101,101,101,101,101,101,101,101,101,101,101,101,101,101,101,100,100,99],"timestamp_mouse":[11,30,51,71,92,110,130,151,171,192,211,231,251,270,290,311,332,352,371,391,410,431,451,470,491,511,530,551,571,590,610,630,650,670,690,711,730,750,770,790,810,831,851,871,890,910,930,950,970,990,1010,1030,1050,1070,1090,1111,1130,1150,1170,1190,1210,1230,1250,1270,1290,1310,1331,1350,1370,1390,1410,1430,1450,1471,1490,1510,1530,1550,1570,1590,1610,1630,1651,1670,1690,1710,1730,1751,1771,1791,1810,1831,1850,1870,1891,1910,1931,1951,1970,1991,2010,2031,2051,2071,2090,2110,2130,2152,2170,2191,2210,2231,2250,2272,2290,2310,2331,2350,2371,2391,2410,2431,2450,2470,2491,2510,2530,2551,2570,2591,2610,2630,2652,2671,2690,2710,2731,2751,2770,2791,2810,2830,2850,2870,2890,2911,2930,2950,2970,2992,3011,3031,3050,3070,3091,3111,3131,3150,3170,3190,3210],"xSR":741.5,"ySR":469.95,"xT1":424.9,"yT1":0,"xT2":1058.1,"yT2":0,"toosoon":0,"cond_shown":"Congruent","ratio_trial":200,"L_num":16,"L_den":30,"R_num":9,"R_den":27,"correct_side":1,"subjID":"gabrielagranadosbustos19","gender":"1","school":"6","age":"11"},{"start_time":1551794227161,"click_time":1551794228662,"finger_time":1551794227942,"fix_duration":1377.9237928505954,"trial":10,"RT":781,"MT":720,"sideResp":2,"stimulus":[],"xmouse":[799,799,799,799,799,799,799,799,799,799,799,799,799,799,799,799,799,799,799,799,799,799,799,797,782,781,781,781,781,781,781,781,781,781,781,781,785,796,809,810,811,811,811,811,811,811,811,811,811,811,811,811,811,811,811,811,811,811,811,813,823,855,881,913,963,974,981,986,996,1003,1021,1038,1054,1057,1057,1060],"ymouse":[525,525,525,525,525,525,525,525,525,525,525,525,525,525,525,525,525,525,525,525,525,525,525,525,524,524,524,524,524,524,524,524,524,524,524,530,536,549,569,578,586,589,589,589,589,589,589,589,589,589,589,589,589,589,589,588,576,559,524,503,467,378,329,282,210,187,166,151,134,125,110,99,90,87,87,85],"timestamp_mouse":[8,21,43,60,81,100,121,140,161,180,200,221,242,260,280,300,321,342,360,380,400,421,440,460,480,500,520,541,561,580,600,622,640,661,680,700,720,740,760,781,801,820,841,860,882,900,920,940,961,980,1001,1021,1040,1060,1081,1101,1121,1140,1160,1180,1200,1220,1241,1260,1281,1300,1321,1340,1360,1380,1400,1420,1442,1461,1481,1500],"xSR":741.5,"ySR":469.95,"xT1":424.9,"yT1":0,"xT2":1058.1,"yT2":0,"toosoon":0,"cond_shown":"Incongruent","ratio_trial":300,"L_num":4,"L_den":20,"R_num":2,"R_den":4,"correct_side":2,"subjID":"gabrielagranadosbustos19","gender":"1","school":"6","age":"11"},{"start_time":1551794229801,"click_time":1551794231661,"finger_time":1551794231341,"fix_duration":479.60623936648227,"trial":11,"RT":1540,"MT":320,"sideResp":1,"stimulus":[],"xmouse":[816,816,816,815,814,812,811,809,808,808,808,808,808,808,808,808,808,808,808,808,808,808,808,808,808,808,808,808,808,808,808,808,808,808,808,808,808,808,808,808,808,808,808,808,808,808,808,808,808,808,808,808,808,808,808,808,808,808,808,808,808,808,808,808,808,808,808,808,808,808,808,808,808,808,805,797,772,681,638,586,559,547,534,534,534,534,534,534,534,534,534,534,526,522],"ymouse":[536,536,536,531,528,524,520,516,515,515,515,515,515,515,515,515,515,515,515,515,515,515,515,515,515,515,515,515,515,515,515,515,515,515,515,515,515,515,515,515,515,515,515,515,515,515,515,515,515,515,515,515,515,515,515,515,515,515,515,515,515,515,515,515,515,515,515,515,515,515,515,515,515,515,508,499,471,383,315,215,158,131,100,97,95,94,94,91,91,91,91,90,84,82],"timestamp_mouse":[9,20,41,60,81,100,121,141,161,181,200,221,241,260,281,301,320,340,361,381,400,422,440,461,480,501,521,541,560,580,601,621,641,660,680,701,721,741,760,781,800,820,840,860,881,902,920,941,962,980,1000,1021,1040,1060,1080,1100,1120,1142,1161,1182,1200,1221,1240,1261,1280,1301,1320,1341,1361,1380,1400,1420,1441,1460,1481,1502,1520,1540,1560,1580,1600,1620,1640,1661,1680,1700,1721,1740,1760,1780,1800,1821,1840,1860],"xSR":741.5,"ySR":469.95,"xT1":424.9,"yT1":0,"xT2":1058.1,"yT2":0,"toosoon":0,"cond_shown":"Congruent","ratio_trial":200,"L_num":7,"L_den":15,"R_num":18,"R_den":27,"correct_side":2,"subjID":"gabrielagranadosbustos19","gender":"1","school":"6","age":"11"},{"start_time":1551794235324,"click_time":1551794239441,"finger_time":1551794237881,"fix_duration":282.6207071022451,"trial":12,"RT":2557,"MT":1560,"sideResp":1,"stimulus":[],"xmouse":[791,791,791,791,791,791,791,791,791,791,791,791,791,791,791,791,791,791,791,791,791,791,791,791,791,791,791,791,791,791,791,791,791,791,791,791,791,791,791,791,791,791,791,791,791,791,791,791,791,791,791,791,791,791,791,791,791,791,791,791,791,791,791,791,791,791,791,791,791,791,791,791,791,791,791,791,791,791,791,791,791,791,791,791,791,791,791,791,791,791,791,791,791,791,791,791,791,791,791,791,791,791,791,791,791,791,791,791,791,791,791,791,791,791,791,791,791,791,791,791,793,794,796,797,799,820,836,856,879,886,899,909,919,926,930,935,937,939,940,940,944,946,948,951,956,958,962,965,966,968,968,968,968,968,967,964,963,961,947,929,877,838,794,739,702,638,610,609,601,598,595,578,567,554,542,534,531,531,529,528,528,526,526,525,525,523,522,522,521,520,520,520,520,520,519,519,519,519,519,519,518,518,518,517,517,517],"ymouse":[527,527,527,527,527,527,527,527,527,527,527,527,527,527,527,527,527,527,527,527,527,527,527,527,527,527,527,527,527,527,527,527,527,527,527,527,527,527,527,527,527,527,527,527,527,527,527,527,527,527,527,527,527,527,527,527,527,527,527,527,527,527,527,527,527,527,527,527,527,527,527,527,527,527,527,527,527,527,527,527,527,527,527,527,527,527,527,527,527,527,527,527,527,527,527,527,527,527,527,527,527,527,527,527,527,527,527,527,527,527,527,527,527,527,527,527,527,527,527,527,525,523,522,520,517,500,490,480,467,463,447,431,414,399,382,349,335,327,320,316,304,297,292,287,279,274,266,261,259,256,254,252,251,250,248,246,245,242,232,226,210,202,196,188,180,163,155,154,152,151,150,146,142,139,137,135,134,134,133,133,133,132,131,128,128,123,121,120,119,117,117,115,115,113,113,112,109,108,107,105,102,101,101,100,100,99],"timestamp_mouse":[35,36,58,78,98,116,138,158,176,197,217,238,257,277,296,317,337,358,377,397,417,438,458,478,497,517,536,557,576,597,616,638,657,677,696,717,737,756,778,798,816,837,856,877,896,917,937,958,976,997,1017,1036,1058,1078,1097,1117,1136,1157,1177,1197,1217,1236,1257,1277,1296,1317,1338,1357,1377,1398,1416,1437,1457,1476,1497,1518,1536,1557,1578,1598,1616,1638,1656,1677,1697,1718,1737,1757,1777,1797,1817,1837,1857,1878,1897,1917,1937,1958,1978,1997,2017,2038,2057,2077,2096,2118,2137,2156,2177,2197,2217,2238,2256,2277,2298,2316,2338,2357,2377,2396,2416,2437,2458,2478,2497,2517,2538,2557,2577,2597,2617,2636,2657,2678,2698,2719,2737,2756,2778,2798,2817,2837,2857,2877,2898,2917,2937,2957,2977,2997,3018,3036,3057,3077,3097,3118,3136,3157,3178,3197,3219,3237,3257,3278,3297,3318,3336,3357,3377,3396,3417,3438,3457,3477,3498,3518,3537,3558,3577,3597,3617,3638,3657,3678,3698,3718,3737,3757,3777,3796,3817,3838,3857,3878,3898,3917,3936,3958,3978,3997,4018,4037,4058,4077,4097,4117],"xSR":741.5,"ySR":469.95,"xT1":424.9,"yT1":0,"xT2":1058.1,"yT2":0,"toosoon":0,"cond_shown":"Incongruent","ratio_trial":100,"L_num":2,"L_den":4,"R_num":8,"R_den":20,"correct_side":1,"subjID":"gabrielagranadosbustos19","gender":"1","school":"6","age":"11"},{"start_time":1551794243805,"click_time":1551794245141,"finger_time":1551794244740,"fix_duration":1281.4798294833367,"trial":13,"RT":935,"MT":401,"sideResp":2,"stimulus":[],"xmouse":[791,791,791,791,791,791,791,791,791,791,791,791,791,791,791,791,791,791,791,791,791,791,791,791,791,791,791,791,791,791,791,791,791,791,791,791,791,791,791,791,791,791,791,791,782,764,741,724,789,886,948,985,1000,1032,1050,1067,1076,1085,1093,1104,1115,1129,1133,1133,1133,1133,1133],"ymouse":[509,509,509,509,509,509,509,509,509,509,509,509,509,509,509,509,509,509,509,509,509,509,509,509,509,509,509,509,509,509,509,509,509,509,509,509,509,509,509,509,509,509,509,509,509,509,509,497,432,352,311,297,292,284,279,273,271,267,263,255,239,203,146,126,113,103,96],"timestamp_mouse":[17,38,56,76,95,116,137,156,177,195,217,237,255,277,297,315,336,356,375,397,417,436,456,476,497,516,536,555,577,597,616,636,655,676,696,716,737,756,777,795,817,837,855,876,896,917,935,957,975,996,1016,1037,1055,1075,1097,1117,1136,1156,1175,1195,1216,1237,1256,1276,1296,1317,1336],"xSR":741.5,"ySR":469.95,"xT1":424.9,"yT1":0,"xT2":1058.1,"yT2":0,"toosoon":0,"cond_shown":"Congruent","ratio_trial":100,"L_num":10,"L_den":25,"R_num":3,"R_den":10,"correct_side":1,"subjID":"gabrielagranadosbustos19","gender":"1","school":"6","age":"11"},{"start_time":1551794247400,"click_time":1551794249582,"finger_time":1551794248902,"fix_duration":1317.5560442724889,"trial":14,"RT":1502,"MT":680,"sideResp":1,"stimulus":[],"xmouse":[744,748,748,758,773,778,781,781,781,781,781,781,781,781,781,781,781,781,781,781,781,781,781,781,781,781,781,781,781,781,781,781,781,781,781,781,781,781,781,781,781,781,781,781,781,781,781,781,781,781,781,781,781,781,781,781,781,781,781,781,781,781,781,781,781,781,781,781,781,781,781,781,781,773,752,731,709,706,691,679,679,677,676,676,673,672,667,659,651,647,645,643,640,639,632,627,623,619,608,570,563,559,556,554,548,543,537,531,527,518],"ymouse":[538,537,537,529,521,518,517,517,517,517,517,517,517,517,517,517,517,517,517,517,517,517,517,517,517,517,517,517,517,517,517,517,517,517,517,517,517,517,517,517,517,517,517,517,517,517,517,517,517,517,517,517,517,517,517,517,517,517,517,517,517,517,517,517,517,517,517,517,517,517,517,517,517,517,517,517,522,523,531,537,537,536,532,528,490,437,365,313,253,231,207,193,184,182,174,170,166,163,158,141,137,132,127,121,102,89,81,75,71,65],"timestamp_mouse":[1,35,41,60,81,101,121,142,161,181,201,221,241,261,282,300,321,342,362,380,401,422,440,462,480,500,522,541,561,582,600,621,642,661,682,702,721,742,762,780,802,821,841,862,882,904,922,941,960,981,1001,1020,1041,1061,1082,1100,1120,1142,1160,1182,1200,1221,1241,1261,1282,1301,1321,1341,1362,1382,1401,1421,1441,1462,1482,1502,1521,1540,1560,1580,1601,1621,1641,1660,1680,1701,1721,1742,1762,1780,1801,1822,1842,1861,1882,1901,1921,1941,1960,1981,2001,2021,2041,2062,2082,2100,2121,2141,2162,2182],"xSR":741.5,"ySR":469.95,"xT1":424.9,"yT1":0,"xT2":1058.1,"yT2":0,"toosoon":0,"cond_shown":"Congruent","ratio_trial":200,"L_num":16,"L_den":20,"R_num":12,"R_den":20,"correct_side":1,"subjID":"gabrielagranadosbustos19","gender":"1","school":"6","age":"11"},{"start_time":1551794251811,"click_time":1551794254361,"finger_time":1551794253660,"fix_duration":1429.1032572358188,"trial":15,"RT":1849,"MT":701,"sideResp":1,"stimulus":[],"xmouse":[808,808,808,808,808,808,808,808,808,808,808,808,808,808,808,808,808,808,808,808,808,808,808,808,808,808,808,808,808,808,808,808,808,808,808,808,808,808,808,808,808,808,808,808,808,808,808,808,808,808,808,808,808,808,808,808,808,808,808,808,808,808,808,808,808,808,808,808,808,808,808,808,808,808,805,803,800,794,794,794,794,794,794,794,794,794,794,794,788,779,763,743,718,678,668,662,661,656,634,612,589,576,566,555,548,541,534,531,531,531,531,529,526,515,511,507,502,492,490,487,486,486,485,484,484,484,484,484],"ymouse":[523,523,523,523,523,523,523,523,523,523,523,523,523,523,523,523,523,523,523,523,523,523,523,523,523,523,523,523,523,523,523,523,523,523,523,523,523,523,523,523,523,523,523,523,523,523,523,523,523,523,523,523,523,523,523,523,523,523,523,523,523,523,523,523,523,523,523,523,523,523,523,523,523,523,523,523,523,524,524,524,524,524,524,524,524,524,524,524,524,524,524,524,513,485,475,469,467,456,418,386,354,328,306,268,251,234,218,205,201,200,199,196,190,177,172,164,156,143,139,135,132,129,124,114,108,103,100,95],"timestamp_mouse":[10,34,50,71,90,110,130,150,170,190,210,230,250,269,289,310,330,350,370,390,411,431,450,470,491,510,530,550,570,589,610,630,651,669,690,711,730,751,769,790,811,830,850,869,889,909,930,950,969,990,1011,1030,1050,1070,1090,1111,1129,1151,1170,1191,1210,1230,1249,1271,1291,1310,1330,1351,1371,1390,1410,1431,1451,1470,1490,1510,1529,1550,1570,1591,1610,1631,1651,1670,1691,1709,1730,1750,1770,1791,1811,1831,1849,1870,1891,1909,1930,1950,1970,1989,2010,2030,2050,2070,2089,2110,2129,2150,2170,2189,2210,2230,2251,2270,2290,2310,2330,2351,2371,2390,2411,2430,2451,2471,2491,2511,2531,2550],"xSR":741.5,"ySR":469.95,"xT1":424.9,"yT1":0,"xT2":1058.1,"yT2":0,"toosoon":0,"cond_shown":"Incongruent","ratio_trial":200,"L_num":1,"L_den":3,"R_num":2,"R_den":15,"correct_side":1,"subjID":"gabrielagranadosbustos19","gender":"1","school":"6","age":"11"},{"start_time":1551794258406,"click_time":1551794260201,"finger_time":1551794260101,"fix_duration":1203.3790222732953,"trial":16,"RT":1695,"MT":100,"sideResp":2,"stimulus":[],"xmouse":[795,795,795,795,795,795,795,795,795,795,795,795,795,795,795,795,795,795,795,795,795,795,795,795,795,795,795,795,795,795,795,795,795,795,795,795,795,795,795,795,795,795,795,795,795,795,795,795,795,795,795,795,795,795,795,795,795,795,795,795,795,795,795,795,795,795,795,795,795,795,795,795,795,795,795,795,795,795,795,795,795,795,806,835,943,1002,1043,1063,1071,1075],"ymouse":[518,518,518,518,518,518,518,518,518,518,518,518,518,518,518,518,518,518,518,518,518,518,518,518,518,518,518,518,518,518,518,518,518,518,518,518,518,518,518,518,518,518,518,518,518,518,518,518,518,518,518,518,518,518,518,518,518,518,518,518,518,518,518,518,518,518,518,518,518,518,518,518,518,518,518,518,518,518,518,518,518,518,509,470,312,235,176,136,109,84],"timestamp_mouse":[15,44,56,76,95,116,135,155,174,196,215,235,256,275,294,316,335,354,375,396,415,435,455,475,494,516,535,554,575,596,615,635,654,675,696,715,736,756,775,795,815,836,855,874,895,916,936,955,975,996,1016,1035,1055,1076,1095,1115,1136,1156,1174,1195,1215,1236,1254,1275,1295,1314,1336,1355,1376,1396,1415,1436,1455,1474,1495,1515,1535,1555,1574,1596,1615,1635,1656,1675,1695,1714,1736,1754,1775,1794],"xSR":741.5,"ySR":469.95,"xT1":424.9,"yT1":0,"xT2":1058.1,"yT2":0,"toosoon":0,"cond_shown":"Incongruent","ratio_trial":200,"L_num":3,"L_den":10,"R_num":1,"R_den":2,"correct_side":2,"subjID":"gabrielagranadosbustos19","gender":"1","school":"6","age":"11"},{"start_time":1551794261318,"click_time":1551794265501,"finger_time":1551794262802,"fix_duration":315.88170286272856,"trial":17,"RT":1484,"MT":2699,"sideResp":2,"stimulus":[],"xmouse":[793,792,792,792,792,792,792,792,792,792,792,792,792,792,792,792,792,792,792,792,792,792,792,792,792,792,792,792,792,792,792,792,792,792,792,792,792,792,792,792,792,792,792,792,792,792,792,792,792,792,792,792,792,792,792,792,792,792,792,792,792,792,792,792,792,792,792,792,792,792,792,791,796,833,913,945,979,982,983,982,977,966,954,946,942,942,942,950,967,1023,1077,1106,1117,1120,1120,1117,1113,1098,1078,1060,1055,1045,1032,1018,984,967,944,915,869,839,767,734,708,685,648,634,620,598,583,570,558,556,555,553,540,535,532,531,530,530,530,530,530,530,530,530,530,530,530,540,547,560,579,607,633,680,698,704,708,715,718,724,732,742,754,778,795,811,826,839,840,840,840,840,840,840,840,844,853,907,961,1028,1114,1188,1311,1339,1358,1360,1360,1361,1362,1362,1362,1362,1362,1362,1362,1362,1362,1362,1362,1362,1362,1362,1361,1357,1356,1353,1352,1345,1337,1324,1305,1283,1262,1214,1181,1147,1108,1078],"ymouse":[534,534,534,534,534,534,534,534,534,534,534,534,534,534,534,534,534,534,534,534,534,534,534,534,534,534,534,534,534,534,534,534,534,534,534,534,534,534,534,534,534,534,534,534,534,534,534,534,534,534,534,534,534,534,534,534,534,534,534,534,534,534,534,534,534,534,534,534,534,534,534,534,529,484,314,231,156,149,147,147,147,147,147,147,147,147,147,147,145,131,118,112,111,111,111,111,111,112,114,119,122,128,133,139,154,159,166,170,170,170,161,158,154,151,145,141,139,133,128,122,116,114,113,112,105,102,100,97,96,96,96,96,96,96,96,96,96,96,95,103,111,121,135,152,172,210,237,247,259,291,317,355,389,413,442,492,525,552,572,586,587,587,587,587,587,587,587,587,581,562,539,500,447,390,302,285,271,269,267,262,259,258,258,258,258,258,258,258,258,258,258,258,258,258,257,257,257,257,257,257,254,247,235,219,205,171,146,124,104,91],"timestamp_mouse":[3,26,48,75,84,103,124,143,164,182,204,223,243,263,284,302,323,343,362,383,403,422,443,464,482,503,522,543,562,583,603,623,644,662,684,703,722,744,763,783,802,824,843,863,882,904,923,943,962,983,1002,1023,1043,1062,1084,1103,1122,1143,1163,1184,1202,1223,1243,1264,1283,1303,1324,1344,1362,1384,1403,1423,1443,1462,1484,1502,1523,1544,1564,1583,1602,1623,1644,1663,1684,1703,1724,1743,1762,1784,1803,1823,1844,1863,1883,1902,1923,1943,1963,1984,2002,2023,2043,2063,2083,2103,2124,2144,2163,2183,2203,2224,2244,2263,2283,2303,2323,2343,2363,2384,2404,2423,2442,2463,2483,2502,2522,2543,2563,2584,2603,2624,2643,2664,2683,2703,2723,2743,2762,2783,2802,2824,2844,2863,2883,2903,2924,2943,2963,2984,3002,3023,3044,3063,3083,3103,3123,3144,3163,3184,3202,3223,3243,3263,3282,3303,3323,3344,3363,3384,3403,3423,3444,3464,3484,3503,3523,3543,3563,3584,3602,3623,3643,3664,3684,3702,3724,3744,3762,3783,3803,3823,3843,3863,3884,3902,3923,3944,3964,3984,4002,4023,4043,4063,4083,4103,4123,4144,4164,4183],"xSR":741.5,"ySR":469.95,"xT1":424.9,"yT1":0,"xT2":1058.1,"yT2":0,"toosoon":0,"cond_shown":"Congruent","ratio_trial":300,"L_num":1,"L_den":5,"R_num":3,"R_den":6,"correct_side":2,"subjID":"gabrielagranadosbustos19","gender":"1","school":"6","age":"11"},{"start_time":1551794267042,"click_time":1551794269142,"finger_time":1551794268820,"fix_duration":619.786900453287,"trial":18,"RT":1778,"MT":322,"sideResp":1,"stimulus":[],"xmouse":[785,785,785,785,785,785,785,785,785,785,785,785,785,785,785,785,785,785,785,785,785,785,785,785,785,785,785,785,785,785,785,785,785,785,785,785,785,785,785,785,785,785,785,785,785,785,785,785,785,785,785,785,785,785,785,785,785,785,785,785,785,785,785,785,785,785,785,785,785,785,785,785,785,785,785,785,785,785,785,785,785,785,785,785,785,784,784,781,777,730,686,642,603,583,569,567,566,564,556,542,539,537,534,532,526,522],"ymouse":[514,514,514,514,514,514,514,514,514,514,514,514,514,514,514,514,514,514,514,514,514,514,514,514,514,514,514,514,514,514,514,514,514,514,514,514,514,514,514,514,514,514,514,514,514,514,514,514,514,514,514,514,514,514,514,514,514,514,514,514,514,514,514,514,514,514,514,514,514,514,514,514,514,514,514,514,514,514,514,514,514,514,514,514,514,508,506,496,484,386,306,236,181,160,132,125,120,110,95,78,75,71,68,67,64,63],"timestamp_mouse":[1,20,43,60,79,99,118,139,160,179,198,220,239,258,280,299,319,338,358,380,398,419,439,459,478,500,519,540,559,580,598,620,639,660,680,700,720,740,760,779,800,820,838,859,879,899,920,938,959,978,1000,1020,1040,1060,1080,1098,1120,1139,1160,1180,1198,1220,1240,1259,1279,1300,1319,1339,1359,1380,1399,1419,1440,1459,1479,1500,1519,1540,1560,1580,1600,1620,1640,1658,1678,1699,1719,1740,1759,1778,1799,1819,1840,1859,1879,1899,1920,1940,1958,1979,1999,2019,2039,2060,2079,2100],"xSR":741.5,"ySR":469.95,"xT1":424.9,"yT1":0,"xT2":1058.1,"yT2":0,"toosoon":0,"cond_shown":"Incongruent","ratio_trial":200,"L_num":4,"L_den":5,"R_num":6,"R_den":10,"correct_side":1,"subjID":"gabrielagranadosbustos19","gender":"1","school":"6","age":"11"},{"start_time":1551794270453,"click_time":1551794273381,"finger_time":1551794272741,"fix_duration":330.16748293142484,"trial":19,"RT":2288,"MT":640,"sideResp":2,"stimulus":[],"xmouse":[809,809,809,809,809,809,809,809,809,809,809,809,809,809,809,809,809,809,809,809,810,810,811,812,813,813,813,813,813,814,814,814,814,814,814,814,814,814,814,814,814,814,814,814,814,814,814,814,814,814,814,814,814,814,814,814,814,814,814,814,814,814,814,814,814,814,814,814,814,814,814,814,814,814,814,814,814,814,814,814,814,814,814,814,814,814,814,814,814,814,814,814,814,815,815,815,815,815,815,815,815,815,815,815,815,815,815,815,815,815,815,820,823,840,865,884,952,1084,1209,1229,1236,1237,1237,1237,1237,1237,1237,1237,1237,1237,1237,1237,1237,1214,1190,1159,1107,1087,1076,1068,1066,1066,1066,1066,1072,1081,1089],"ymouse":[522,522,522,522,522,522,522,522,522,522,522,522,522,522,522,522,522,522,522,522,522,520,518,514,512,511,511,511,511,510,510,510,510,510,510,510,510,510,510,510,510,510,510,510,510,510,510,510,510,510,510,510,510,510,510,510,510,510,510,510,510,510,510,510,510,510,510,510,510,510,510,510,510,510,510,510,510,510,510,510,510,510,510,510,510,510,510,510,510,510,510,510,510,510,510,509,509,509,509,509,509,509,509,509,509,509,509,509,509,509,509,508,507,504,492,484,452,403,373,369,366,366,366,366,366,366,366,366,366,366,366,366,366,356,345,337,327,323,319,305,278,249,221,195,138,107,84],"timestamp_mouse":[8,32,49,67,89,109,128,148,168,189,207,229,248,268,289,308,328,348,368,388,409,428,448,468,487,508,528,547,568,587,607,628,647,668,688,708,729,749,767,787,809,829,848,868,888,909,928,949,968,987,1009,1028,1048,1068,1088,1108,1129,1149,1168,1188,1208,1228,1248,1268,1289,1308,1327,1349,1369,1388,1408,1428,1448,1469,1488,1507,1529,1547,1567,1589,1609,1627,1648,1668,1687,1709,1728,1749,1769,1789,1809,1828,1848,1867,1889,1909,1927,1949,1968,1987,2009,2027,2048,2068,2088,2109,2128,2149,2169,2188,2208,2229,2249,2268,2288,2308,2327,2348,2369,2388,2408,2428,2447,2467,2488,2508,2528,2549,2568,2587,2608,2627,2647,2668,2688,2708,2729,2748,2769,2788,2809,2828,2848,2868,2888,2907,2928],"xSR":741.5,"ySR":469.95,"xT1":424.9,"yT1":0,"xT2":1058.1,"yT2":0,"toosoon":0,"cond_shown":"Congruent","ratio_trial":300,"L_num":8,"L_den":15,"R_num":10,"R_den":12,"correct_side":2,"subjID":"gabrielagranadosbustos19","gender":"1","school":"6","age":"11"},{"start_time":1551794277542,"click_time":1551794280401,"finger_time":1551794279101,"fix_duration":1259.2679079723503,"trial":20,"RT":1559,"MT":1300,"sideResp":1,"stimulus":[],"xmouse":[782,782,782,782,782,782,782,782,782,782,782,782,782,782,782,782,782,782,782,782,782,782,782,782,782,782,782,782,782,782,782,782,782,782,782,782,782,782,782,782,782,782,782,782,782,782,782,782,782,782,782,782,782,782,782,782,782,782,782,782,782,782,782,782,782,782,782,782,782,782,782,782,782,782,782,783,803,832,865,888,904,904,904,904,904,904,904,904,904,904,904,904,904,905,904,896,879,875,872,867,858,852,847,836,823,801,795,795,795,795,795,795,795,795,795,795,795,795,795,795,795,795,795,794,792,784,779,776,776,776,776,776,776,779,786,787,782,779,776,760,666,590,509,428],"ymouse":[518,518,518,518,518,518,518,518,518,518,518,518,518,518,518,518,518,518,518,518,518,518,518,518,518,518,518,518,518,518,518,518,518,518,518,518,518,518,518,518,518,518,518,518,518,518,518,518,518,518,518,518,518,518,518,518,518,518,518,518,518,518,518,518,518,518,518,518,518,518,518,518,518,518,518,519,529,541,557,567,574,574,574,574,574,574,574,574,574,574,574,574,574,574,570,561,543,538,531,523,512,504,498,487,473,450,444,443,443,443,443,443,443,443,443,443,443,443,443,443,443,443,443,443,454,489,507,521,527,528,528,528,529,534,557,608,622,628,628,602,384,240,116,27],"timestamp_mouse":[1,19,41,60,80,98,120,140,160,180,199,218,240,260,279,299,319,339,360,379,399,419,440,458,479,499,519,539,558,579,599,619,638,659,680,699,719,740,760,779,800,820,838,859,880,900,919,939,960,979,999,1019,1038,1059,1080,1098,1120,1138,1160,1180,1199,1219,1238,1260,1279,1299,1318,1340,1358,1380,1398,1420,1439,1459,1480,1498,1519,1539,1559,1578,1598,1618,1639,1659,1679,1699,1719,1739,1759,1779,1800,1820,1839,1859,1879,1899,1919,1939,1960,1979,1999,2018,2038,2058,2079,2099,2119,2139,2160,2180,2199,2219,2240,2259,2280,2299,2318,2338,2359,2379,2399,2419,2440,2460,2480,2499,2520,2539,2560,2578,2600,2619,2638,2660,2679,2700,2719,2739,2760,2779,2799,2818,2839,2859],"xSR":741.5,"ySR":469.95,"xT1":424.9,"yT1":0,"xT2":1058.1,"yT2":0,"toosoon":0,"cond_shown":"Congruent","ratio_trial":200,"L_num":7,"L_den":21,"R_num":2,"R_den":15,"correct_side":1,"subjID":"gabrielagranadosbustos19","gender":"1","school":"6","age":"11"},{"start_time":1551794284228,"click_time":1551794286861,"finger_time":1551794286220,"fix_duration":626.2652821147436,"trial":21,"RT":1992,"MT":641,"sideResp":1,"stimulus":[],"xmouse":[752,752,752,752,752,752,752,752,752,752,752,752,752,752,752,752,752,752,752,752,752,752,752,752,752,752,752,752,752,752,752,752,752,752,752,752,752,752,752,752,752,752,752,752,752,752,752,752,752,752,752,752,752,752,752,752,752,752,752,752,752,752,752,752,752,752,752,752,752,752,752,752,752,752,752,752,752,752,752,752,752,752,752,752,752,752,752,752,752,752,752,752,752,752,752,752,752,761,777,798,799,793,784,777,774,773,770,767,757,748,738,682,653,626,603,582,536,512,481,444,420,403,402,402,402,402,402,403,406,409,411,426],"ymouse":[517,517,517,517,517,517,517,517,517,517,517,517,517,517,517,517,517,517,517,517,517,517,517,517,517,517,517,517,517,517,517,517,517,517,517,517,517,517,517,517,517,517,517,517,517,517,517,517,517,517,517,517,517,517,517,517,517,517,517,517,517,517,517,517,517,517,517,517,517,517,517,517,517,517,517,517,517,517,517,517,517,517,517,517,517,517,517,517,517,517,517,517,517,517,517,517,517,513,496,468,465,451,438,429,424,422,416,411,396,381,369,328,304,281,262,249,221,207,189,168,149,112,108,108,108,108,108,106,106,105,104,95],"timestamp_mouse":[14,42,54,74,92,113,133,154,172,192,214,232,254,273,293,313,334,352,373,394,413,433,452,473,493,513,533,553,573,593,613,633,653,674,693,713,732,752,772,793,813,833,853,872,893,913,932,953,973,992,1014,1033,1054,1073,1093,1114,1133,1154,1173,1192,1212,1232,1253,1274,1292,1313,1333,1353,1372,1393,1413,1433,1453,1472,1493,1513,1533,1554,1574,1592,1612,1632,1652,1674,1693,1713,1733,1754,1773,1792,1812,1832,1852,1874,1894,1913,1933,1953,1973,1992,2014,2032,2062,2073,2093,2113,2133,2153,2172,2193,2214,2233,2252,2273,2292,2312,2333,2353,2373,2394,2413,2433,2453,2473,2493,2513,2534,2553,2573,2593,2613,2633],"xSR":741.5,"ySR":469.95,"xT1":424.9,"yT1":0,"xT2":1058.1,"yT2":0,"toosoon":0,"cond_shown":"Congruent","ratio_trial":300,"L_num":1,"L_den":5,"R_num":11,"R_den":22,"correct_side":2,"subjID":"gabrielagranadosbustos19","gender":"1","school":"6","age":"11"},{"start_time":1551794288717,"click_time":1551794291741,"finger_time":1551794290121,"fix_duration":674.260659308364,"trial":22,"RT":1404,"MT":1620,"sideResp":1,"stimulus":[],"xmouse":[786,786,786,786,786,786,786,786,786,784,784,784,784,784,784,784,783,783,783,783,783,783,783,783,783,783,783,783,783,783,783,783,783,783,783,783,783,783,783,783,783,783,783,783,783,783,783,783,783,783,783,783,783,783,783,783,783,783,783,783,783,783,783,782,782,779,774,770,769,766,757,747,735,696,689,659,643,626,593,586,582,581,580,570,560,555,540,522,512,505,499,494,486,484,482,479,477,474,473,472,472,472,471,471,471,471,471,471,471,471,471,471,471,471,471,471,471,471,471,471,471,471,471,471,471,471,471,471,471,471,471,471,471,471,471,471,471,471,471,471,471,471,471,471,471,471,471,471,471,471,471,471],"ymouse":[517,517,517,517,517,517,517,517,517,515,515,515,515,515,515,514,512,511,511,511,511,511,511,511,511,511,511,511,511,511,511,511,511,511,511,511,511,511,511,511,511,511,511,511,511,511,511,511,511,511,511,511,511,511,511,511,511,511,511,511,511,511,511,508,507,498,489,482,480,475,461,442,428,393,388,367,355,343,323,319,316,314,311,294,276,270,247,214,197,186,177,171,161,157,152,145,141,134,129,126,124,122,121,116,112,111,110,109,109,109,109,109,109,109,109,109,109,109,107,106,106,105,104,104,104,104,103,103,102,102,102,101,100,100,100,100,100,100,100,100,100,100,100,100,100,100,100,100,100,100,100,99],"timestamp_mouse":[8,23,44,65,84,105,124,144,165,184,204,224,245,265,283,304,325,345,364,385,404,423,444,463,484,505,524,544,564,585,603,624,645,664,683,705,725,743,765,784,803,825,845,863,884,905,923,945,963,984,1005,1024,1044,1064,1084,1105,1124,1144,1163,1185,1203,1224,1245,1263,1285,1305,1324,1345,1363,1384,1404,1424,1443,1463,1484,1504,1525,1545,1564,1584,1604,1624,1645,1664,1684,1703,1724,1745,1764,1783,1804,1824,1845,1863,1883,1904,1924,1945,1964,1985,2004,2025,2043,2063,2084,2105,2124,2144,2165,2183,2203,2225,2245,2264,2285,2305,2323,2345,2364,2384,2404,2423,2444,2464,2484,2503,2524,2545,2564,2583,2604,2624,2645,2664,2684,2704,2723,2744,2764,2784,2805,2824,2843,2864,2884,2904,2925,2944,2964,2984,3005,3024],"xSR":741.5,"ySR":469.95,"xT1":424.9,"yT1":0,"xT2":1058.1,"yT2":0,"toosoon":0,"cond_shown":"Congruent","ratio_trial":300,"L_num":1,"L_den":5,"R_num":6,"R_den":12,"correct_side":2,"subjID":"gabrielagranadosbustos19","gender":"1","school":"6","age":"11"},{"start_time":1551794293370,"click_time":1551794294641,"finger_time":1551794294301,"fix_duration":267.08421790877867,"trial":23,"RT":931,"MT":340,"sideResp":2,"stimulus":[],"xmouse":[784,784,784,784,784,784,784,784,784,784,784,784,784,784,784,784,784,784,784,784,784,784,784,784,784,784,784,784,784,784,784,784,784,784,784,784,784,784,784,784,784,784,784,784,783,798,839,887,929,956,987,1001,1019,1032,1042,1060,1070,1078,1080,1081,1081,1081,1081,1081],"ymouse":[534,534,534,534,534,534,534,534,534,534,534,534,534,534,534,534,534,534,534,534,534,534,534,534,534,534,534,534,534,534,534,534,534,534,534,534,534,534,534,534,534,534,534,534,532,505,440,372,312,273,226,210,189,176,166,146,133,118,112,110,110,108,104,95],"timestamp_mouse":[10,40,52,71,91,111,130,152,170,192,211,231,251,271,290,312,331,351,370,391,411,431,451,471,492,510,530,551,570,592,610,630,652,671,691,711,731,750,772,791,812,831,852,871,890,911,931,950,972,991,1012,1032,1051,1072,1091,1111,1131,1151,1171,1191,1211,1231,1251,1271],"xSR":741.5,"ySR":469.95,"xT1":424.9,"yT1":0,"xT2":1058.1,"yT2":0,"toosoon":0,"cond_shown":"Incongruent","ratio_trial":100,"L_num":6,"L_den":12,"R_num":3,"R_den":5,"correct_side":2,"subjID":"gabrielagranadosbustos19","gender":"1","school":"6","age":"11"},{"start_time":1551794296193,"click_time":1551794299083,"finger_time":1551794297601,"fix_duration":930.4950984356364,"trial":24,"RT":1408,"MT":1482,"sideResp":2,"stimulus":[],"xmouse":[806,806,806,806,806,806,806,806,806,806,806,806,806,806,806,806,806,806,806,806,806,806,806,806,806,806,806,806,806,806,806,806,806,806,806,806,806,806,806,806,806,806,807,807,807,807,807,807,807,807,807,807,807,807,807,807,807,807,807,807,807,807,807,807,807,807,807,807,807,804,776,758,733,702,667,655,654,648,638,617,604,594,586,584,584,584,584,584,584,584,584,584,584,584,584,584,584,584,584,584,584,584,584,584,594,619,662,772,844,899,950,954,954,949,929,923,920,920,920,920,918,918,925,952,1065,1142,1237,1368,1434,1506,1515,1513,1504,1492,1460,1450,1442,1433,1423,1389,1363,1322,1287,1243,1154],"ymouse":[525,525,525,525,525,525,525,525,525,525,525,525,525,525,525,525,525,525,525,525,525,525,525,525,525,525,525,525,525,525,525,525,525,525,525,525,525,525,525,525,525,525,526,526,526,526,526,526,526,526,526,526,526,526,526,526,526,526,526,526,526,526,526,526,526,526,526,526,526,519,443,381,309,249,198,179,176,167,151,125,116,110,105,105,105,105,105,105,105,105,105,105,105,105,105,105,105,105,105,105,105,105,105,105,114,132,157,212,252,290,399,437,463,482,518,531,538,540,540,541,545,547,553,561,563,549,517,460,414,329,303,285,267,252,223,213,202,191,182,167,156,138,122,103,65],"timestamp_mouse":[8,43,48,69,89,109,128,147,168,188,207,228,249,267,288,308,327,347,369,387,408,428,449,469,489,508,527,549,568,588,608,629,647,668,688,709,728,749,768,787,809,829,847,869,888,908,928,947,969,987,1009,1028,1048,1068,1087,1109,1128,1148,1168,1187,1208,1227,1249,1269,1288,1308,1329,1348,1367,1387,1408,1429,1449,1469,1488,1507,1528,1548,1568,1589,1608,1628,1649,1668,1688,1708,1728,1749,1768,1788,1807,1828,1849,1868,1888,1907,1928,1948,1967,1987,2008,2028,2048,2068,2089,2108,2128,2149,2169,2189,2209,2228,2248,2269,2289,2307,2328,2349,2368,2387,2407,2428,2447,2469,2489,2508,2528,2549,2569,2589,2608,2628,2649,2667,2689,2708,2728,2748,2767,2788,2808,2828,2847,2868,2889],"xSR":741.5,"ySR":469.95,"xT1":424.9,"yT1":0,"xT2":1058.1,"yT2":0,"toosoon":0,"cond_shown":"Congruent","ratio_trial":300,"L_num":7,"L_den":14,"R_num":20,"R_den":25,"correct_side":2,"subjID":"gabrielagranadosbustos19","gender":"1","school":"6","age":"11"},{"start_time":1551794302609,"click_time":1551794305941,"finger_time":1551794304461,"fix_duration":908.9828561976464,"trial":25,"RT":1852,"MT":1480,"sideResp":2,"stimulus":[],"xmouse":[765,765,765,765,765,765,768,770,782,804,806,807,808,808,808,808,808,808,808,808,808,808,808,808,808,808,808,808,808,808,808,808,808,808,808,808,808,808,808,808,808,808,808,808,808,808,808,808,808,808,808,808,808,808,808,808,808,808,808,808,808,808,808,808,808,808,808,808,808,808,808,808,808,808,808,808,808,808,808,808,808,808,808,808,808,808,808,808,808,808,813,830,850,866,882,885,885,885,886,889,896,905,914,921,930,931,932,933,936,945,951,957,959,961,962,965,969,979,988,998,1009,1010,1013,1013,1014,1014,1014,1014,1014,1014,1014,1014,1014,1015,1017,1020,1020,1020,1020,1020,1020,1020,1020,1024,1047,1074,1114,1158,1197,1236,1249,1255,1263,1273,1293,1296,1295,1284,1271,1235,1216,1198,1170,1163,1159,1159,1155],"ymouse":[544,544,544,544,544,544,541,539,525,506,504,503,502,502,502,502,502,502,502,502,502,502,502,502,502,502,502,502,502,502,502,502,502,502,502,502,502,502,502,502,502,502,502,502,502,502,502,502,502,502,502,502,502,502,502,502,502,502,502,502,502,502,502,502,502,502,502,502,502,502,502,502,502,502,502,502,502,502,502,502,502,502,502,502,502,502,502,502,502,502,496,477,456,440,423,420,420,420,419,412,399,378,359,344,323,317,312,308,300,273,256,242,236,232,228,220,210,196,179,165,145,142,138,136,135,134,134,134,134,134,134,134,134,133,129,126,125,125,125,125,131,141,155,186,235,262,286,301,306,303,298,295,288,274,236,219,201,189,177,152,139,127,111,107,103,101,98],"timestamp_mouse":[12,37,52,72,93,112,132,155,173,192,212,231,253,271,292,312,333,351,373,391,412,433,451,473,492,511,533,551,572,592,611,633,651,673,692,712,733,751,771,792,812,832,852,873,891,912,932,952,972,992,1013,1033,1051,1071,1092,1112,1133,1151,1172,1192,1211,1232,1251,1272,1292,1312,1331,1353,1372,1392,1411,1433,1452,1472,1491,1512,1531,1552,1572,1592,1611,1632,1652,1672,1692,1711,1731,1751,1772,1792,1813,1831,1852,1873,1892,1912,1931,1951,1973,1992,2013,2031,2052,2071,2092,2112,2132,2153,2172,2193,2212,2232,2252,2273,2292,2313,2332,2352,2373,2392,2412,2433,2452,2472,2491,2511,2533,2552,2573,2592,2611,2631,2652,2672,2692,2712,2732,2752,2772,2791,2813,2833,2853,2872,2892,2911,2932,2953,2973,2992,3013,3031,3051,3073,3091,3112,3133,3152,3173,3192,3211,3232,3252,3273,3292,3312,3332],"xSR":741.5,"ySR":469.95,"xT1":424.9,"yT1":0,"xT2":1058.1,"yT2":0,"toosoon":0,"cond_shown":"Incongruent","ratio_trial":200,"L_num":7,"L_den":15,"R_num":4,"R_den":6,"correct_side":2,"subjID":"gabrielagranadosbustos19","gender":"1","school":"6","age":"11"},{"start_time":1551794310231,"click_time":1551794311202,"finger_time":1551794310961,"fix_duration":1027.90753150622,"trial":26,"RT":730,"MT":241,"sideResp":2,"stimulus":[],"xmouse":[762,762,762,762,762,762,762,762,762,762,762,762,762,762,762,762,762,762,762,762,762,762,762,762,762,762,762,762,762,762,762,762,762,765,783,803,823,850,894,984,1011,1021,1028,1034,1039,1043,1054,1071,1088],"ymouse":[506,506,506,506,506,506,506,506,506,506,506,506,506,506,506,506,506,506,506,506,506,506,506,506,506,506,506,506,506,506,506,506,506,504,491,477,460,429,373,261,228,216,207,196,186,178,158,127,96],"timestamp_mouse":[10,39,51,70,90,111,129,151,169,190,209,230,250,270,289,310,329,351,369,390,410,430,450,471,489,510,530,551,569,589,609,630,649,670,690,710,730,750,769,789,811,830,850,871,891,909,930,951,971],"xSR":741.5,"ySR":469.95,"xT1":424.9,"yT1":0,"xT2":1058.1,"yT2":0,"toosoon":0,"cond_shown":"Incongruent","ratio_trial":200,"L_num":6,"L_den":20,"R_num":3,"R_den":6,"correct_side":2,"subjID":"gabrielagranadosbustos19","gender":"1","school":"6","age":"11"},{"start_time":1551794313201,"click_time":1551794314942,"finger_time":1551794314641,"fix_duration":1319.7204994557264,"trial":27,"RT":1440,"MT":301,"sideResp":1,"stimulus":[],"xmouse":[808,808,808,808,808,808,808,808,808,808,808,808,808,808,808,808,808,808,808,808,808,808,808,808,808,808,808,808,808,808,808,808,808,808,808,808,808,808,808,808,808,808,808,808,808,808,808,808,808,808,808,808,808,808,808,808,808,808,808,808,808,808,808,808,808,808,808,808,808,808,808,809,778,761,739,714,682,594,531,510,476,447,437,431,430,430,430,430],"ymouse":[538,538,538,538,538,538,538,538,538,538,538,538,538,538,538,538,538,538,538,538,538,538,538,538,538,538,538,538,538,538,538,538,538,538,538,538,538,538,538,538,538,538,538,538,538,538,538,538,538,538,538,538,538,538,538,538,538,538,538,538,538,538,538,538,538,538,538,539,540,542,542,539,460,420,380,345,309,239,194,182,158,137,129,121,121,121,120,99],"timestamp_mouse":[2,19,45,61,80,100,120,140,160,179,199,221,239,261,280,299,321,341,360,381,400,420,439,461,481,500,520,540,559,580,599,619,641,660,679,701,720,741,761,780,799,820,840,861,879,901,920,941,961,981,1000,1020,1039,1061,1079,1101,1120,1140,1159,1179,1201,1220,1240,1261,1280,1301,1319,1341,1360,1381,1401,1421,1440,1460,1480,1499,1521,1540,1560,1580,1600,1621,1639,1660,1680,1701,1721,1741],"xSR":741.5,"ySR":469.95,"xT1":424.9,"yT1":0,"xT2":1058.1,"yT2":0,"toosoon":0,"cond_shown":"Congruent","ratio_trial":200,"L_num":3,"L_den":10,"R_num":14,"R_den":28,"correct_side":2,"subjID":"gabrielagranadosbustos19","gender":"1","school":"6","age":"11"},{"start_time":1551794316135,"click_time":1551794318101,"finger_time":1551794317902,"fix_duration":473.9982104181434,"trial":28,"RT":1767,"MT":199,"sideResp":1,"stimulus":[],"xmouse":[784,784,784,784,784,784,784,784,784,784,784,784,784,784,784,784,784,784,784,784,784,784,784,784,784,784,784,784,784,784,784,784,784,784,784,784,784,784,784,784,784,784,784,784,784,784,784,784,784,784,784,784,784,784,784,784,784,784,784,784,784,784,784,784,784,784,784,784,784,784,784,784,784,784,784,784,784,784,784,784,782,780,778,775,775,773,771,771,768,758,727,710,672,651,620,539,505,481,460],"ymouse":[509,509,509,509,509,509,509,509,509,509,509,509,509,509,509,509,509,509,509,509,509,509,509,509,509,509,509,509,509,509,509,509,509,509,509,509,509,509,509,509,509,509,509,509,509,509,509,509,509,509,509,509,509,509,509,509,509,509,509,509,509,509,509,509,509,509,509,509,509,509,509,509,509,509,509,509,509,508,505,500,491,485,481,479,477,475,473,472,468,456,411,388,337,303,263,160,126,104,87],"timestamp_mouse":[10,37,46,67,87,105,126,147,165,187,206,226,246,267,286,305,327,347,366,386,405,427,447,465,487,505,527,546,567,587,605,626,647,666,687,705,727,747,766,787,807,826,846,866,885,906,927,947,966,987,1006,1027,1046,1065,1087,1107,1125,1147,1167,1186,1207,1226,1246,1267,1286,1306,1326,1347,1366,1387,1405,1426,1447,1465,1486,1507,1525,1545,1566,1586,1607,1626,1645,1666,1687,1705,1726,1747,1767,1787,1806,1825,1846,1867,1887,1906,1926,1946,1966],"xSR":741.5,"ySR":469.95,"xT1":424.9,"yT1":0,"xT2":1058.1,"yT2":0,"toosoon":0,"cond_shown":"Incongruent","ratio_trial":200,"L_num":4,"L_den":5,"R_num":6,"R_den":10,"correct_side":1,"subjID":"gabrielagranadosbustos19","gender":"1","school":"6","age":"11"},{"start_time":1551794319388,"click_time":1551794337021,"finger_time":1551794336561,"fix_duration":485.6309093881944,"trial":29,"RT":17173,"MT":460,"sideResp":2,"stimulus":[],"xmouse":[793,793,793,793,793,793,793,793,793,793,793,793,793,793,793,793,793,793,793,793,793,793,793,793,793,793,793,793,793,793,793,793,793,793,793,793,793,793,793,793,793,793,793,793,793,793,793,793,793,793,793,793,793,793,793,793,793,793,793,793,793,793,793,793,793,793,793,793,793,793,793,793,793,793,793,793,793,793,793,793,793,793,793,793,793,793,793,793,793,793,793,793,793,793,793,793,793,793,793,793,793,793,793,793,793,793,793,793,793,793,793,793,793,793,793,793,793,793,793,793,793,793,793,793,793,793,793,793,793,793,793,793,793,793,793,793,793,793,793,793,793,793,793,793,793,793,793,793,793,793,793,793,793,793,793,793,793,793,793,793,793,793,793,793,793,793,793,793,793,793,793,793,793,793,793,793,793,793,793,793,793,793,793,793,793,793,793,793,793,793,793,793,793,793,793,793,793,793,793,793,793,793,793,793,793,793,793,793,793,793,793,793,793,793,793,793,793,793,793,793,793,793,793,793,793,793,793,793,793,793,793,793,793,793,793,793,793,793,793,793,793,793,793,793,793,793,793,793,793,793,793,793,793,793,793,793,793,793,793,793,793,793,793,793,793,793,793,793,793,793,793,793,793,793,793,793,793,793,793,793,793,793,793,793,793,793,793,793,793,793,793,793,793,793,793,793,793,793,793,793,793,793,793,793,793,793,793,793,793,793,793,793,793,793,793,793,793,793,793,793,793,793,793,793,793,793,793,793,793,793,793,793,793,793,793,793,793,793,793,793,793,793,793,793,793,793,793,793,793,793,793,793,793,793,793,793,793,793,793,793,793,793,793,793,793,793,793,793,793,793,793,793,793,793,793,793,793,793,793,793,793,793,793,793,793,793,793,793,793,793,793,793,793,793,793,793,793,793,793,793,793,793,793,793,793,793,793,793,793,793,793,793,793,793,793,793,793,793,793,793,793,793,793,793,793,793,793,793,793,793,793,793,793,793,793,793,793,793,793,793,793,793,793,793,793,793,793,793,793,793,793,793,793,793,793,793,793,793,793,793,793,793,793,793,793,793,793,793,793,793,793,793,793,793,793,793,793,793,793,793,793,793,793,793,793,793,793,793,793,793,793,793,793,793,793,793,793,793,793,793,793,793,793,793,793,793,793,793,793,793,793,793,793,793,793,793,793,793,793,793,793,793,793,793,793,793,793,793,793,793,793,793,793,793,793,793,793,793,793,793,793,793,793,793,793,793,793,793,793,793,793,793,793,793,793,793,793,793,793,793,793,793,793,793,793,793,793,793,793,793,793,793,793,793,793,793,793,793,793,793,793,793,793,793,793,793,793,793,793,793,793,793,793,793,793,793,793,793,793,793,793,793,793,793,793,793,793,793,793,793,793,793,793,793,793,793,793,793,793,793,793,793,793,793,793,793,793,793,793,793,793,793,793,793,793,793,793,793,793,793,793,793,793,793,793,793,793,793,793,793,793,793,793,793,793,793,793,793,793,793,793,793,793,793,793,793,793,793,793,793,793,793,793,793,793,793,793,793,793,793,793,793,793,793,793,793,793,793,793,793,793,793,793,793,793,793,793,793,793,793,793,793,793,793,793,793,793,793,793,793,793,793,793,793,793,793,793,793,793,793,793,793,793,793,793,793,793,793,793,793,793,793,793,793,793,793,793,793,793,793,793,793,793,793,793,793,793,793,793,793,793,793,793,793,793,793,793,793,793,793,793,793,793,793,793,793,793,793,793,793,793,793,793,793,793,793,793,793,793,793,793,793,793,793,793,793,793,793,793,793,793,793,793,793,793,793,793,793,793,793,793,793,793,793,793,793,793,793,793,793,793,793,793,793,793,793,793,793,793,793,793,793,793,793,793,793,793,793,793,793,793,793,793,793,793,793,793,793,793,793,793,793,793,793,793,793,793,793,793,793,793,793,793,793,793,793,793,814,852,1137,1369,1488,1572,1572,1572,1572,1572,1572,1572,1572,1551,1500,1500,1500,1500,1500,1500,1500,1500,1500,1500,1156],"ymouse":[509,509,509,509,509,509,509,509,509,509,509,509,509,509,509,509,509,509,509,509,509,509,509,509,509,509,509,509,509,509,509,509,509,509,509,509,509,509,509,509,509,509,509,509,509,509,509,509,509,509,509,509,509,509,509,509,509,509,509,509,509,509,509,509,509,509,509,509,509,509,509,509,509,509,509,509,509,509,509,509,509,509,509,509,509,509,509,509,509,509,509,509,509,509,509,509,509,509,509,509,509,509,509,509,509,509,509,509,509,509,509,509,509,509,509,509,509,509,509,509,509,509,509,509,509,509,509,509,509,509,509,509,509,509,509,509,509,509,509,509,509,509,509,509,509,509,509,509,509,509,509,509,509,509,509,509,509,509,509,509,509,509,509,509,509,509,509,509,509,509,509,509,509,509,509,509,509,509,509,509,509,509,509,509,509,509,509,509,509,509,509,509,509,509,509,509,509,509,509,509,509,509,509,509,509,509,509,509,509,509,509,509,509,509,509,509,509,509,509,509,509,509,509,509,509,509,509,509,509,509,509,509,509,509,509,509,509,509,509,509,509,509,509,509,509,509,509,509,509,509,509,509,509,509,509,509,509,509,509,509,509,509,509,509,509,509,509,509,509,509,509,509,509,509,509,509,509,509,509,509,509,509,509,509,509,509,509,509,509,509,509,509,509,509,509,509,509,509,509,509,509,509,509,509,509,509,509,509,509,509,509,509,509,509,509,509,509,509,509,509,509,509,509,509,509,509,509,509,509,509,509,509,509,509,509,509,509,509,509,509,509,509,509,509,509,509,509,509,509,509,509,509,509,509,509,509,509,509,509,509,509,509,509,509,509,509,509,509,509,509,509,509,509,509,509,509,509,509,509,509,509,509,509,509,509,509,509,509,509,509,509,509,509,509,509,509,509,509,509,509,509,509,509,509,509,509,509,509,509,509,509,509,509,509,509,509,509,509,509,509,509,509,509,509,509,509,509,509,509,509,509,509,509,509,509,509,509,509,509,509,509,509,509,509,509,509,509,509,509,509,509,509,509,509,509,509,509,509,509,509,509,509,509,509,509,509,509,509,509,509,509,509,509,509,509,509,509,509,509,509,509,509,509,509,509,509,509,509,509,509,509,509,509,509,509,509,509,509,509,509,509,509,509,509,509,509,509,509,509,509,509,509,509,509,509,509,509,509,509,509,509,509,509,509,509,509,509,509,509,509,509,509,509,509,509,509,509,509,509,509,509,509,509,509,509,509,509,509,509,509,509,509,509,509,509,509,509,509,509,509,509,509,509,509,509,509,509,509,509,509,509,509,509,509,509,509,509,509,509,509,509,509,509,509,509,509,509,509,509,509,509,509,509,509,509,509,509,509,509,509,509,509,509,509,509,509,509,509,509,509,509,509,509,509,509,509,509,509,509,509,509,509,509,509,509,509,509,509,509,509,509,509,509,509,509,509,509,509,509,509,509,509,509,509,509,509,509,509,509,509,509,509,509,509,509,509,509,509,509,509,509,509,509,509,509,509,509,509,509,509,509,509,509,509,509,509,509,509,509,509,509,509,509,509,509,509,509,509,509,509,509,509,509,509,509,509,509,509,509,509,509,509,509,509,509,509,509,509,509,509,509,509,509,509,509,509,509,509,509,509,509,509,509,509,509,509,509,509,509,509,509,509,509,509,509,509,509,509,509,509,509,509,509,509,509,509,509,509,509,509,509,509,509,509,509,509,509,509,509,509,509,509,509,509,509,509,509,509,509,509,509,509,509,509,509,509,509,509,509,509,509,509,509,509,509,509,509,509,509,509,509,509,509,509,509,509,509,509,509,509,509,509,509,509,509,509,509,509,509,509,509,509,509,509,509,509,509,509,509,509,509,509,509,509,509,509,509,509,509,509,509,509,509,509,509,509,509,509,509,509,509,509,509,509,509,509,509,509,509,509,509,509,509,509,509,509,509,494,484,440,458,472,472,472,472,472,472,472,472,472,53,11,11,11,11,11,11,11,11,11,11,13],"timestamp_mouse":[12,33,52,73,94,113,132,153,174,192,213,233,253,273,292,313,332,353,373,392,413,432,453,472,492,513,532,553,573,594,613,634,653,673,693,714,733,753,773,792,814,833,853,874,894,913,933,952,973,994,1014,1033,1053,1073,1094,1113,1133,1153,1173,1193,1213,1232,1253,1273,1294,1314,1334,1353,1373,1394,1413,1433,1452,1472,1493,1512,1533,1552,1573,1594,1613,1634,1653,1674,1693,1712,1733,1753,1773,1793,1814,1834,1853,1873,1892,1913,1933,1953,1972,1993,2013,2034,2053,2073,2093,2113,2133,2153,2173,2192,2214,2232,2254,2273,2294,2313,2333,2353,2373,2394,2412,2432,2452,2473,2493,2512,2533,2556,2574,2594,2612,2633,2653,2672,2693,2713,2732,2753,2774,2793,2813,2832,2853,2874,2894,2912,2932,2952,2973,2993,3014,3033,3052,3074,3093,3113,3133,3152,3174,3193,3213,3234,3253,3272,3294,3313,3333,3354,3373,3393,3412,3433,3453,3472,3494,3513,3532,3553,3574,3594,3614,3634,3653,3672,3694,3714,3734,3752,3772,3794,3813,3833,3854,3874,3894,3912,3933,3954,3973,3994,4012,4034,4054,4073,4092,4113,4134,4153,4173,4194,4212,4232,4253,4274,4292,4314,4333,4354,4374,4394,4412,4432,4453,4473,4492,4514,4534,4553,4573,4593,4614,4633,4654,4674,4693,4712,4734,4753,4774,4793,4813,4834,4853,4873,4894,4914,4933,4953,4974,4993,5013,5033,5052,5074,5094,5114,5133,5153,5174,5193,5213,5234,5253,5272,5293,5313,5333,5354,5372,5393,5414,5433,5454,5473,5493,5514,5533,5553,5574,5593,5613,5634,5652,5673,5694,5714,5733,5752,5773,5792,5814,5832,5852,5873,5892,5913,5933,5954,5974,5994,6013,6032,6054,6073,6092,6114,6133,6154,6173,6193,6214,6234,6253,6274,6294,6313,6333,6352,6374,6394,6414,6433,6452,6473,6494,6513,6533,6553,6572,6594,6614,6634,6653,6674,6692,6712,6734,6753,6772,6793,6814,6834,6854,6873,6893,6913,6934,6953,6974,6994,7013,7032,7053,7073,7093,7114,7133,7154,7174,7194,7213,7233,7254,7274,7294,7314,7333,7354,7373,7393,7413,7434,7454,7473,7493,7513,7534,7554,7572,7594,7614,7632,7653,7674,7694,7714,7733,7754,7773,7792,7812,7833,7853,7874,7892,7913,7933,7953,7973,7993,8013,8034,8052,8074,8092,8113,8132,8153,8173,8193,8212,8233,8253,8272,8294,8312,8333,8353,8373,8394,8412,8433,8453,8473,8492,8514,8534,8552,8573,8593,8613,8634,8652,8674,8694,8712,8733,8753,8773,8792,8814,8833,8852,8874,8892,8913,8932,8954,8974,8993,9014,9033,9053,9073,9093,9114,9132,9152,9173,9194,9214,9233,9253,9273,9292,9314,9332,9354,9373,9392,9414,9434,9453,9473,9493,9512,9534,9553,9572,9594,9614,9632,9654,9672,9693,9712,9734,9754,9772,9794,9812,9832,9853,9874,9894,9912,9932,9953,9974,9993,10013,10034,10052,10073,10093,10112,10134,10154,10173,10192,10212,10233,10254,10273,10294,10314,10333,10352,10373,10394,10412,10433,10454,10473,10493,10514,10534,10553,10573,10594,10612,10633,10653,10673,10694,10713,10733,10753,10772,10793,10813,10832,10854,10873,10892,10913,10934,10954,10972,10994,11013,11033,11053,11074,11093,11114,11133,11153,11173,11193,11212,11233,11254,11272,11294,11313,11332,11354,11373,11393,11414,11434,11453,11473,11493,11513,11533,11553,11573,11593,11612,11634,11653,11673,11692,11713,11733,11754,11773,11794,11812,11834,11853,11873,11892,11914,11933,11953,11974,11993,12014,12032,12054,12073,12094,12114,12134,12153,12174,12192,12214,12232,12253,12273,12294,12312,12333,12353,12374,12392,12413,12433,12452,12473,12492,12514,12532,12553,12573,12593,12613,12633,12654,12673,12693,12713,12733,12752,12773,12793,12813,12834,12852,12873,12893,12912,12932,12953,12972,12994,13013,13033,13053,13073,13093,13112,13132,13154,13173,13193,13214,13234,13253,13273,13293,13312,13334,13354,13374,13393,13413,13433,13452,13473,13493,13513,13533,13554,13573,13593,13613,13634,13652,13674,13694,13713,13733,13754,13774,13793,13813,13832,13853,13873,13892,13913,13934,13952,13973,13992,14012,14033,14052,14073,14094,14114,14134,14153,14173,14194,14213,14232,14253,14274,14293,14313,14334,14352,14373,14394,14413,14434,14453,14473,14493,14513,14534,14554,14573,14593,14612,14634,14652,14674,14693,14713,14733,14754,14773,14793,14813,14833,14854,14872,14894,14913,14933,14953,14974,14993,15013,15033,15053,15072,15092,15114,15133,15153,15173,15193,15214,15233,15253,15272,15294,15314,15333,15353,15373,15393,15412,15434,15454,15473,15494,15513,15533,15552,15574,15594,15612,15634,15653,15673,15692,15713,15733,15754,15774,15793,15813,15833,15853,15874,15894,15912,15934,15952,15974,15994,16012,16034,16054,16073,16093,16113,16133,16153,16172,16194,16214,16233,16254,16273,16294,16313,16332,16354,16372,16392,16413,16434,16453,16474,16492,16514,16534,16553,16572,16594,16612,16634,16653,16673,16693,16714,16732,16753,16772,16793,16813,16833,16854,16873,16893,16913,16933,16952,16973,16993,17013,17033,17052,17073,17092,17113,17133,17154,17173,17193,17213,17233,17254,17273,17294,17313,17333,17354,17374,17392,17413,17433,17453,17472,17494,17514,17534,17553,17574,17593,17614,17632],"xSR":741.5,"ySR":469.95,"xT1":424.9,"yT1":0,"xT2":1058.1,"yT2":0,"toosoon":0,"cond_shown":"Incongruent","ratio_trial":100,"L_num":6,"L_den":10,"R_num":11,"R_den":22,"correct_side":1,"subjID":"gabrielagranadosbustos19","gender":"1","school":"6","age":"11"},{"start_time":1551794339515,"click_time":1551794341741,"finger_time":1551794341402,"fix_duration":1173.341236730616,"trial":30,"RT":1887,"MT":339,"sideResp":1,"stimulus":[],"xmouse":[802,802,802,802,802,802,802,802,802,802,802,802,802,802,802,802,802,802,802,802,802,802,802,802,802,802,802,802,802,802,802,802,802,802,802,802,802,802,802,802,802,802,802,802,802,802,802,802,802,802,802,802,802,802,802,802,802,802,802,802,802,802,802,802,802,802,802,802,802,802,802,802,802,802,802,802,802,802,802,802,802,802,802,802,802,802,802,802,802,802,802,802,799,780,709,677,647,624,587,569,546,536,531,518,503,489,479,473,469,467,466,464],"ymouse":[514,514,514,514,514,514,514,514,514,514,514,514,514,514,514,514,514,514,514,514,514,514,514,514,514,514,514,514,514,514,514,514,514,514,514,514,514,514,514,514,514,514,514,514,514,514,514,514,514,514,514,514,514,514,514,514,514,514,514,514,514,514,514,514,514,514,514,514,514,514,514,514,514,514,514,514,514,514,514,514,514,514,514,514,514,514,514,514,514,514,514,514,514,514,491,464,427,383,313,283,248,231,214,177,155,137,126,118,113,110,104,93],"timestamp_mouse":[9,34,45,66,86,107,127,145,166,185,206,226,245,267,287,305,327,347,366,385,406,427,446,466,486,506,527,547,566,585,607,625,646,666,687,706,726,746,767,786,806,827,846,867,885,907,925,947,966,987,1006,1026,1046,1066,1085,1107,1125,1146,1166,1185,1207,1227,1246,1266,1286,1306,1327,1345,1366,1385,1405,1427,1446,1465,1486,1507,1527,1546,1566,1587,1605,1627,1645,1666,1687,1705,1727,1746,1767,1787,1805,1826,1845,1866,1887,1906,1925,1945,1967,1986,2006,2026,2045,2067,2085,2107,2126,2147,2167,2186,2207,2226],"xSR":741.5,"ySR":469.95,"xT1":424.9,"yT1":0,"xT2":1058.1,"yT2":0,"toosoon":0,"cond_shown":"Incongruent","ratio_trial":300,"L_num":3,"L_den":6,"R_num":4,"R_den":20,"correct_side":1,"subjID":"gabrielagranadosbustos19","gender":"1","school":"6","age":"11"},{"start_time":1551794342958,"click_time":1551794349881,"finger_time":1551794344481,"fix_duration":296.3253838481887,"trial":31,"RT":1523,"MT":5400,"sideResp":2,"stimulus":[],"xmouse":[782,782,782,782,782,782,782,782,782,782,782,782,782,782,782,782,782,782,782,782,782,782,782,782,782,782,782,782,782,782,782,782,782,782,782,782,782,782,782,782,782,782,782,782,782,782,782,782,782,782,782,782,782,782,782,782,782,782,782,782,782,782,782,782,782,782,782,782,782,782,782,782,782,773,768,754,729,626,585,546,516,495,485,485,485,485,485,485,485,485,487,496,531,562,598,629,657,687,692,692,692,692,692,694,694,694,695,712,727,743,758,773,789,790,791,793,800,808,810,811,811,811,811,811,811,811,811,811,811,821,853,916,1092,1183,1270,1343,1410,1575,1575,1575,1575,1575,1575,1575,1575,1575,1575,1575,1575,1575,1575,1575,1575,1566,1542,1509,1464,1386,1376,1375,1375,1375,1375,1375,1375,1374,1375,1400,1413,1424,1434,1443,1447,1447,1447,1445,1442,1422,1410,1391,1361,1324,1257,1235,1219,1208,1198,1171,1159,1153,1149,1146,1128,1108,1085,1064,1048,1020,1010,993,975,960,944,938,932,919,871,789,758,729,696,664,574,522,471,423,387,341,341,352,373,392,423,432,452,484,536,666,709,738,756,765,766,766,766,766,768,776,783,789,793,794,797,798,798,798,798,798,798,798,798,798,798,800,801,805,807,808,808,808,808,808,808,809,810,812,817,825,913,1030,1184,1330,1457,1553,1553,1553,1553,1553,1553,1581,1578,1575,1573,1563,1552,1537,1518,1486,1459,1430,1392,1357,1297,1275,1260,1255,1254,1254,1254,1253,1253,1253,1244,1219,1182,1146,1105,1062,1062,1062,1062,1062,1062,1062,1062,744,753,763,772,784,803,825,874,887,896,903,907,925,939,956,979,998,1022,1031,1035,1038,1039,1039,1040,1042,1043,1047,1059,1066,1073,1085,1089],"ymouse":[520,520,520,520,520,520,520,520,520,520,520,520,520,520,520,520,520,520,520,520,520,520,520,520,520,520,520,520,520,520,520,520,520,520,520,520,520,520,520,520,520,520,520,520,520,520,520,520,520,520,520,520,520,520,520,520,520,520,520,520,520,520,520,520,520,520,520,520,520,520,520,520,520,516,511,493,460,355,321,289,264,248,239,239,239,239,239,239,239,242,251,273,346,390,429,453,474,491,492,492,492,492,492,492,492,492,492,487,484,481,480,480,480,480,480,481,485,491,493,493,493,493,493,493,493,493,493,494,497,507,517,527,538,536,521,501,473,353,353,353,353,353,353,353,353,353,353,353,353,353,353,353,353,283,266,244,219,174,168,167,167,167,167,167,167,167,169,200,221,244,264,280,289,290,292,298,304,330,344,362,387,417,476,495,510,523,535,565,573,576,578,580,587,596,606,617,627,640,643,648,653,655,657,658,658,660,666,666,666,666,666,664,651,644,633,613,587,504,476,447,416,400,387,387,387,396,411,466,486,498,505,510,511,511,511,511,511,511,509,507,507,506,505,505,505,505,505,505,505,505,505,505,505,506,510,516,518,519,519,519,519,520,521,526,530,533,539,542,550,552,554,559,559,558,558,558,558,558,558,401,391,382,376,354,343,335,325,311,300,287,272,257,235,231,229,229,229,229,229,234,246,270,391,480,571,640,690,716,716,716,716,716,716,716,716,709,676,632,610,584,558,529,480,461,446,434,428,408,391,376,360,346,307,284,269,251,229,192,175,162,155,147,130,124,115,101,97],"timestamp_mouse":[10,23,43,62,84,103,124,143,164,183,204,224,244,262,284,303,324,342,362,383,403,422,444,462,483,504,523,544,562,582,603,622,644,663,684,702,723,744,763,784,804,824,842,863,884,904,923,943,962,983,1002,1024,1042,1064,1084,1103,1123,1142,1163,1183,1203,1223,1242,1264,1283,1304,1324,1342,1363,1383,1402,1423,1443,1462,1484,1503,1523,1542,1564,1582,1603,1624,1643,1663,1683,1702,1724,1743,1763,1783,1804,1824,1842,1864,1883,1903,1923,1943,1964,1983,2002,2023,2043,2064,2084,2102,2123,2143,2163,2183,2203,2223,2243,2263,2284,2303,2324,2342,2363,2383,2404,2423,2444,2462,2483,2503,2523,2542,2562,2584,2603,2622,2644,2664,2683,2702,2723,2743,2763,2783,2802,2824,2843,2862,2883,2903,2923,2943,2964,2983,3004,3023,3043,3063,3082,3103,3123,3143,3164,3183,3203,3223,3243,3263,3283,3303,3324,3343,3364,3383,3404,3423,3443,3463,3482,3503,3524,3542,3562,3583,3603,3624,3643,3663,3683,3702,3723,3743,3763,3782,3803,3824,3843,3862,3882,3902,3923,3943,3964,3983,4004,4023,4042,4062,4083,4104,4122,4142,4162,4183,4203,4223,4243,4262,4282,4303,4323,4343,4363,4383,4403,4423,4443,4463,4483,4503,4522,4542,4562,4582,4602,4623,4642,4663,4684,4703,4723,4743,4764,4783,4804,4824,4844,4863,4883,4904,4922,4943,4964,4984,5004,5023,5043,5062,5083,5104,5123,5143,5163,5183,5204,5223,5243,5263,5284,5303,5323,5342,5362,5383,5404,5423,5443,5462,5483,5503,5524,5543,5563,5584,5603,5624,5643,5664,5683,5702,5724,5743,5764,5783,5803,5823,5842,5863,5884,5903,5922,5943,5963,5983,6003,6024,6043,6062,6083,6102,6124,6144,6163,6184,6203,6224,6244,6264,6284,6304,6323,6343,6362,6384,6404,6423,6443,6463,6483,6503,6522,6544,6563,6583,6602,6623,6643,6662,6682,6703,6724,6743,6763,6783,6803,6823,6844,6863,6882,6903,6923],"xSR":741.5,"ySR":469.95,"xT1":424.9,"yT1":0,"xT2":1058.1,"yT2":0,"toosoon":0,"cond_shown":"Congruent","ratio_trial":200,"L_num":12,"L_den":15,"R_num":6,"R_den":10,"correct_side":1,"subjID":"gabrielagranadosbustos19","gender":"1","school":"6","age":"11"},{"start_time":1551794352134,"click_time":1551794353321,"finger_time":1551794352982,"fix_duration":1452.8859349575894,"trial":32,"RT":848,"MT":339,"sideResp":1,"stimulus":[],"xmouse":[789,791,791,795,795,795,795,795,795,795,795,795,795,795,795,795,795,795,795,795,795,795,795,795,795,795,795,795,795,795,795,795,795,795,795,795,795,795,793,772,753,744,738,728,699,683,677,668,661,646,638,630,625,621,604,591,580,567,554,522],"ymouse":[547,547,547,547,547,547,547,547,547,547,547,547,547,547,547,547,547,547,547,547,547,547,547,547,547,547,547,547,547,547,547,547,547,547,547,547,547,547,547,548,546,536,519,486,390,338,315,296,281,244,225,209,195,181,150,136,124,112,99,79],"timestamp_mouse":[10,35,47,66,87,107,126,147,166,188,207,227,247,268,288,307,326,347,368,388,408,427,448,466,488,508,528,548,567,586,608,627,646,667,688,707,728,747,766,787,808,828,848,867,887,907,927,947,966,988,1007,1027,1046,1068,1086,1107,1126,1147,1168,1187],"xSR":741.5,"ySR":469.95,"xT1":424.9,"yT1":0,"xT2":1058.1,"yT2":0,"toosoon":0,"cond_shown":"Congruent","ratio_trial":200,"L_num":7,"L_den":15,"R_num":18,"R_den":27,"correct_side":2,"subjID":"gabrielagranadosbustos19","gender":"1","school":"6","age":"11"},{"start_time":1551794355251,"click_time":1551794356441,"finger_time":1551794356322,"fix_duration":969.073958706435,"trial":33,"RT":1071,"MT":119,"sideResp":1,"stimulus":[],"xmouse":[789,789,789,789,789,789,789,789,789,789,789,789,789,789,789,789,789,789,789,789,789,789,789,789,789,789,789,789,789,789,789,789,789,789,789,789,789,789,789,789,789,789,789,789,789,789,789,789,789,789,789,788,786,737,704,671,641,610,525,505],"ymouse":[519,519,519,519,519,519,519,519,519,519,519,519,519,519,519,519,519,519,519,519,519,519,519,519,519,519,519,519,519,519,519,519,519,519,519,519,519,519,519,519,519,519,519,519,519,519,519,519,519,519,519,514,499,359,293,235,179,137,58,40],"timestamp_mouse":[10,33,51,70,89,111,130,149,170,191,210,229,250,271,290,311,330,349,370,391,409,431,450,470,490,511,530,550,570,589,610,631,651,670,691,710,730,750,771,790,809,830,849,870,889,910,929,951,971,990,1011,1031,1052,1071,1090,1110,1130,1152,1171,1190],"xSR":741.5,"ySR":469.95,"xT1":424.9,"yT1":0,"xT2":1058.1,"yT2":0,"toosoon":0,"cond_shown":"Incongruent","ratio_trial":100,"L_num":3,"L_den":5,"R_num":11,"R_den":22,"correct_side":1,"subjID":"gabrielagranadosbustos19","gender":"1","school":"6","age":"11"},{"start_time":1551794359649,"click_time":1551794361422,"finger_time":1551794361062,"fix_duration":386.4430131933718,"trial":34,"RT":1413,"MT":360,"sideResp":2,"stimulus":[],"xmouse":[810,810,810,810,810,810,810,810,810,810,810,810,810,810,810,810,810,810,810,810,810,810,810,810,810,810,810,810,810,810,810,810,810,810,810,810,810,810,810,810,810,810,810,810,810,810,810,810,810,810,810,810,810,810,810,810,810,810,810,810,810,810,810,810,810,810,812,813,814,827,835,846,865,895,964,987,1003,1014,1023,1051,1067,1084,1098,1110,1131,1136,1140,1142,1143],"ymouse":[512,512,512,512,512,512,512,512,512,512,512,512,512,512,512,512,512,512,512,512,512,512,512,512,512,512,512,512,512,512,512,512,512,512,512,512,512,512,512,512,512,512,512,512,512,512,512,512,512,512,512,512,512,512,512,512,512,512,512,512,512,512,512,512,512,512,512,512,512,482,463,443,419,386,328,312,301,294,287,262,242,221,204,190,153,139,122,106,95],"timestamp_mouse":[12,41,54,72,92,112,132,152,172,194,212,234,252,273,292,312,334,354,372,393,414,433,453,472,494,513,533,553,574,592,612,634,654,672,693,714,733,754,772,793,812,832,853,873,892,914,932,953,974,993,1012,1033,1053,1074,1092,1114,1134,1153,1172,1193,1213,1234,1254,1272,1293,1314,1332,1352,1373,1393,1413,1433,1452,1473,1492,1513,1533,1553,1574,1593,1613,1634,1652,1673,1692,1713,1733,1753,1773],"xSR":741.5,"ySR":469.95,"xT1":424.9,"yT1":0,"xT2":1058.1,"yT2":0,"toosoon":0,"cond_shown":"Incongruent","ratio_trial":200,"L_num":14,"L_den":30,"R_num":6,"R_den":9,"correct_side":2,"subjID":"gabrielagranadosbustos19","gender":"1","school":"6","age":"11"},{"start_time":1551794363815,"click_time":1551794365361,"finger_time":1551794365001,"fix_duration":1471.1858623606504,"trial":35,"RT":1186,"MT":360,"sideResp":1,"stimulus":[],"xmouse":[770,770,770,770,770,770,770,770,770,770,770,770,770,770,770,770,770,770,770,770,770,770,770,770,770,770,770,770,770,770,770,770,770,770,770,770,770,770,770,770,770,770,770,770,770,770,770,770,770,770,770,770,770,770,770,770,769,759,747,724,689,555,486,415,339,252,203,195,195,195,197,197,198,202,220,275,388,437],"ymouse":[521,521,521,521,521,521,521,521,521,521,521,521,521,521,521,521,521,521,521,521,521,521,521,521,521,521,521,521,521,521,521,521,521,521,521,521,521,521,521,521,521,521,521,521,521,521,521,521,521,521,521,521,521,521,521,521,521,511,496,474,444,362,322,276,225,161,108,91,83,78,75,73,71,69,67,67,69,69],