[{"start_time":1551794813104,"click_time":1551794815459,"finger_time":1551794814137,"fix_duration":682.8929247979008,"trial":0,"RT":1033,"MT":1322,"sideResp":2,"stimulus":"img/250/randomdotsizeEA/R/6_Ratio_250_L_6_R_24.png","xmouse":[788,788,788,788,788,788,788,788,788,788,788,788,788,788,788,788,788,788,788,788,788,788,788,788,788,788,788,788,788,788,788,788,788,788,788,788,788,788,788,788,788,788,788,788,788,788,788,789,775,759,741,714,699,687,687,687,687,687,687,686,682,680,679,689,693,697,702,706,709,718,725,728,732,736,736,736,736,736,736,737,737,738,740,743,744,745,745,745,745,745,746,756,776,802,871,905,934,957,982,986,988,992,1000,1012,1036,1039,1039,1039,1039,1040,1040,1040,1040,1050,1055,1058,1064],"ymouse":[555,555,555,555,555,555,555,555,555,555,555,555,555,555,555,555,555,555,555,555,555,555,555,555,555,555,555,555,555,555,555,555,555,555,555,555,555,555,555,555,555,555,555,555,555,555,555,554,552,548,547,549,552,556,556,556,556,556,556,556,556,558,565,574,576,576,576,576,576,571,566,564,559,551,550,548,548,547,545,543,542,539,536,531,530,529,529,529,529,529,527,519,502,475,372,303,236,180,132,124,120,113,96,75,47,45,45,45,45,45,45,45,45,45,45,45,45],"timestamp_mouse":[13,54,74,94,114,133,154,173,195,213,235,254,275,294,314,335,353,373,394,414,435,454,474,494,514,534,553,575,594,615,635,654,674,693,715,735,755,775,794,813,835,854,874,894,913,935,955,974,994,1015,1033,1055,1074,1094,1115,1134,1154,1174,1195,1215,1234,1254,1275,1295,1313,1334,1354,1374,1393,1415,1434,1454,1474,1494,1513,1534,1554,1574,1595,1613,1634,1655,1674,1694,1714,1735,1754,1774,1795,1815,1834,1853,1874,1893,1913,1935,1954,1974,1995,2013,2034,2055,2074,2094,2115,2135,2154,2174,2195,2214,2234,2254,2275,2295,2314,2333,2354],"xSR":741.5,"ySR":501.8,"xT1":424.9,"yT1":0,"xT2":1058.1,"yT2":0,"toosoon":0,"cond_shown":"randomdotsizeEA","ratio_trial":250,"smaller_num":"6","larger_num":"24","correct_side":2,"subjID":"gabrielagranadosbustos19","gender":"1","age":"11","school":"6","test":{"fix_dur":[250,1500],"timestim":300,"targets_dim":[100,100],"targets_relative_coord":[0.3,0.7],"size_stim":[880,420],"start_dim":[100,100],"size_start":[300,300],"size_fix":60,"samplingrate":20,"img_types":["equaldotsize","equaldotanddens","randomdotsizeEA"],"ratios":[250,500,750,900],"rep_conds":9,"nTrials":120,"trials_to_rest":500,"Trials_order":[38,29,111,102,8,103,9,100,60,66,76,117,16,83,71,84,92,59,21,118,114,5,11,33,91,10,108,17,78,18,51,47,106,72,19,67,68,13,12,90,107,65,74,81,63,48,37,39,40,99,93,97,28,1,25,23,80,57,98,32,46,56,0,101,94,73,7,85,35,119,75,116,14,34,110,24,96,45,113,2,82,112,115,58,87,50,44,26,42,27,64,69,31,36,89,6,55,4,105,43,79,52,49,22,88,61,3,109,53,20,104,95,77,15,30,70,62,86,54,41],"cond_shown":["randomdotsizeEA","randomdotsizeEA","equaldotsize","equaldotsize","randomdotsizeEA","equaldotanddens","equaldotsize","equaldotanddens","equaldotsize","equaldotsize","equaldotanddens","equaldotsize","equaldotanddens","randomdotsizeEA","randomdotsizeEA","equaldotsize","randomdotsizeEA","randomdotsizeEA","equaldotsize","equaldotanddens","equaldotsize","randomdotsizeEA","randomdotsizeEA","equaldotsize","equaldotanddens","equaldotanddens","equaldotsize","randomdotsizeEA","equaldotsize","equaldotsize","equaldotsize","randomdotsizeEA","equaldotanddens","equaldotsize","equaldotanddens","equaldotanddens","randomdotsizeEA","equaldotanddens","equaldotsize","equaldotsize","randomdotsizeEA","randomdotsizeEA","randomdotsizeEA","equaldotsize","equaldotsize","equaldotsize","equaldotanddens","equaldotsize","equaldotanddens","equaldotsize","equaldotsize","equaldotanddens","equaldotanddens","equaldotanddens","equaldotanddens","randomdotsizeEA","randomdotsizeEA","equaldotsize","randomdotsizeEA","randomdotsizeEA","equaldotanddens","randomdotsizeEA","equaldotsize","randomdotsizeEA","equaldotanddens","equaldotanddens","equaldotanddens","equaldotanddens","randomdotsizeEA","randomdotsizeEA","equaldotsize","randomdotsizeEA","randomdotsizeEA","equaldotanddens","randomdotsizeEA","equaldotsize","equaldotsize","equaldotsize","randomdotsizeEA","randomdotsizeEA","equaldotanddens","equaldotanddens","equaldotanddens","equaldotanddens","equaldotsize","randomdotsizeEA","randomdotsizeEA","randomdotsizeEA","equaldotsize","equaldotsize","equaldotanddens","equaldotsize","equaldotanddens","equaldotsize","randomdotsizeEA","equaldotsize","equaldotanddens","equaldotanddens","equaldotsize","equaldotanddens","equaldotanddens","equaldotanddens","equaldotanddens","equaldotanddens","equaldotanddens","equaldotanddens","equaldotsize","equaldotanddens","randomdotsizeEA","randomdotsizeEA","randomdotsizeEA","randomdotsizeEA","randomdotsizeEA","equaldotsize","equaldotsize","equaldotanddens","randomdotsizeEA","randomdotsizeEA","equaldotsize","randomdotsizeEA"],"ratio_trial":[250,500,500,750,750,750,900,500,250,750,500,900,500,900,900,250,750,900,900,900,750,500,900,900,750,900,250,500,750,750,500,900,900,250,750,750,750,250,250,750,900,500,250,900,500,250,250,500,500,500,900,250,500,250,250,900,750,900,250,750,900,750,250,500,900,250,750,250,900,900,500,750,250,900,250,250,250,900,500,250,900,500,750,900,500,250,750,250,750,500,500,900,750,250,500,750,750,500,900,750,750,500,250,900,500,250,500,250,500,750,750,900,500,500,750,900,250,250,750,500],"smaller_num":["6","5","2","15","18","15","18","9","3","15","2","18","9","18","9","3","6","9","18","18","6","4","9","18","3","9","2","2","3","12","5","18","18","1","15","3","6","4","3","3","9","1","3","9","10","4","3","9","4","10","18","3","9","3","3","18","3","9","3","15","9","15","5","6","18","4","3","3","18","18","1","15","3","18","2","1","2","18","5","2","18","2","3","18","6","6","9","3","3","1","1","9","6","5","10","3","15","5","9","15","3","1","6","9","9","3","5","4","9","3","15","9","1","3","3","18","3","2","6","6"],"larger_num":["24","10","4","20","24","20","20","18","12","20","4","20","18","20","10","12","8","10","20","20","8","8","10","20","4","10","8","4","4","16","10","20","20","4","20","4","8","16","12","4","10","2","12","10","20","16","12","18","8","20","20","12","18","12","12","20","4","10","12","20","10","20","20","12","20","16","4","12","20","20","2","20","12","20","8","4","8","20","10","8","20","4","4","20","12","24","12","12","4","2","2","10","8","20","20","4","20","10","10","20","4","2","24","10","18","12","10","16","18","4","20","10","2","6","4","20","12","8","8","12"],"correct_side":[2,2,1,1,1,2,2,2,2,1,1,2,1,2,2,1,2,2,1,2,2,1,1,1,2,2,1,2,2,2,1,1,1,2,2,2,2,1,2,2,2,2,1,2,2,2,2,2,1,2,2,1,2,1,2,2,2,2,1,2,2,2,2,1,2,2,1,2,1,1,2,2,1,2,1,2,2,1,1,2,2,2,2,1,1,1,2,2,2,2,2,2,1,2,2,2,2,2,1,2,1,2,2,2,2,1,1,2,1,2,2,2,2,2,1,1,2,1,1,1],"img_shown":["img/250/randomdotsizeEA/R/6_Ratio_250_L_6_R_24.png","img/500/randomdotsizeEA/R/14_Ratio_500_L_5_R_10.png","img/500/equaldotsize/L/10_Ratio_500_L_4_R_2.png","img/750/equaldotsize/L/1_Ratio_750_L_20_R_15.png","img/750/randomdotsizeEA/L/6_Ratio_750_L_24_R_18.png","img/750/equaldotanddens/R/3_Ratio_750_L_15_R_20.png","img/900/equaldotsize/R/9_Ratio_900_L_18_R_20.png","img/500/equaldotanddens/R/6_Ratio_500_L_9_R_18.png","img/250/equaldotsize/R/9_Ratio_250_L_3_R_12.png","img/750/equaldotsize/L/1_Ratio_750_L_20_R_15.png","img/500/equaldotanddens/L/5_Ratio_500_L_4_R_2.png","img/900/equaldotsize/R/14_Ratio_900_L_18_R_20.png","img/500/equaldotanddens/L/4_Ratio_500_L_18_R_9.png","img/900/randomdotsizeEA/R/13_Ratio_900_L_18_R_20.png","img/900/randomdotsizeEA/R/6_Ratio_900_L_9_R_10.png","img/250/equaldotsize/L/14_Ratio_250_L_12_R_3.png","img/750/randomdotsizeEA/R/2_Ratio_750_L_6_R_8.png","img/900/randomdotsizeEA/R/5_Ratio_900_L_9_R_10.png","img/900/equaldotsize/L/10_Ratio_900_L_20_R_18.png","img/900/equaldotanddens/R/14_Ratio_900_L_18_R_20.png","img/750/equaldotsize/R/2_Ratio_750_L_6_R_8.png","img/500/randomdotsizeEA/L/8_Ratio_500_L_8_R_4.png","img/900/randomdotsizeEA/L/1_Ratio_900_L_10_R_9.png","img/900/equaldotsize/L/2_Ratio_900_L_20_R_18.png","img/750/equaldotanddens/R/12_Ratio_750_L_3_R_4.png","img/900/equaldotanddens/R/15_Ratio_900_L_9_R_10.png","img/250/equaldotsize/L/3_Ratio_250_L_8_R_2.png","img/500/randomdotsizeEA/R/9_Ratio_500_L_2_R_4.png","img/750/equaldotsize/R/12_Ratio_750_L_3_R_4.png","img/750/equaldotsize/R/11_Ratio_750_L_12_R_16.png","img/500/equaldotsize/L/7_Ratio_500_L_10_R_5.png","img/900/randomdotsizeEA/L/4_Ratio_900_L_20_R_18.png","img/900/equaldotanddens/L/4_Ratio_900_L_20_R_18.png","img/250/equaldotsize/R/8_Ratio_250_L_1_R_4.png","img/750/equaldotanddens/R/3_Ratio_750_L_15_R_20.png","img/750/equaldotanddens/R/12_Ratio_750_L_3_R_4.png","img/750/randomdotsizeEA/R/2_Ratio_750_L_6_R_8.png","img/250/equaldotanddens/L/2_Ratio_250_L_16_R_4.png","img/250/equaldotsize/R/4_Ratio_250_L_3_R_12.png","img/750/equaldotsize/R/12_Ratio_750_L_3_R_4.png","img/900/randomdotsizeEA/R/7_Ratio_900_L_9_R_10.png","img/500/randomdotsizeEA/R/12_Ratio_500_L_1_R_2.png","img/250/randomdotsizeEA/L/15_Ratio_250_L_12_R_3.png","img/900/equaldotsize/R/15_Ratio_900_L_9_R_10.png","img/500/equaldotsize/R/3_Ratio_500_L_10_R_20.png","img/250/equaldotsize/R/10_Ratio_250_L_4_R_16.png","img/250/equaldotanddens/R/9_Ratio_250_L_3_R_12.png","img/500/equaldotsize/R/1_Ratio_500_L_9_R_18.png","img/500/equaldotanddens/L/8_Ratio_500_L_8_R_4.png","img/500/equaldotsize/R/3_Ratio_500_L_10_R_20.png","img/900/equaldotsize/R/14_Ratio_900_L_18_R_20.png","img/250/equaldotanddens/L/14_Ratio_250_L_12_R_3.png","img/500/equaldotanddens/R/1_Ratio_500_L_9_R_18.png","img/250/equaldotanddens/L/15_Ratio_250_L_12_R_3.png","img/250/equaldotanddens/R/9_Ratio_250_L_3_R_12.png","img/900/randomdotsizeEA/R/14_Ratio_900_L_18_R_20.png","img/750/randomdotsizeEA/R/12_Ratio_750_L_3_R_4.png","img/900/equaldotsize/R/7_Ratio_900_L_9_R_10.png","img/250/randomdotsizeEA/L/14_Ratio_250_L_12_R_3.png","img/750/randomdotsizeEA/R/5_Ratio_750_L_15_R_20.png","img/900/equaldotanddens/R/3_Ratio_900_L_9_R_10.png","img/750/randomdotsizeEA/R/3_Ratio_750_L_15_R_20.png","img/250/equaldotsize/R/12_Ratio_250_L_5_R_20.png","img/500/randomdotsizeEA/L/11_Ratio_500_L_12_R_6.png","img/900/equaldotanddens/R/11_Ratio_900_L_18_R_20.png","img/250/equaldotanddens/R/10_Ratio_250_L_4_R_16.png","img/750/equaldotanddens/L/9_Ratio_750_L_4_R_3.png","img/250/equaldotanddens/R/9_Ratio_250_L_3_R_12.png","img/900/randomdotsizeEA/L/10_Ratio_900_L_20_R_18.png","img/900/randomdotsizeEA/L/8_Ratio_900_L_20_R_18.png","img/500/equaldotsize/R/15_Ratio_500_L_1_R_2.png","img/750/randomdotsizeEA/R/4_Ratio_750_L_15_R_20.png","img/250/randomdotsizeEA/L/14_Ratio_250_L_12_R_3.png","img/900/equaldotanddens/R/13_Ratio_900_L_18_R_20.png","img/250/randomdotsizeEA/L/7_Ratio_250_L_8_R_2.png","img/250/equaldotsize/R/8_Ratio_250_L_1_R_4.png","img/250/equaldotsize/R/13_Ratio_250_L_2_R_8.png","img/900/equaldotsize/L/2_Ratio_900_L_20_R_18.png","img/500/randomdotsizeEA/L/7_Ratio_500_L_10_R_5.png","img/250/randomdotsizeEA/R/13_Ratio_250_L_2_R_8.png","img/900/equaldotanddens/R/13_Ratio_900_L_18_R_20.png","img/500/equaldotanddens/R/9_Ratio_500_L_2_R_4.png","img/750/equaldotanddens/R/12_Ratio_750_L_3_R_4.png","img/900/equaldotanddens/L/8_Ratio_900_L_20_R_18.png","img/500/equaldotsize/L/13_Ratio_500_L_12_R_6.png","img/250/randomdotsizeEA/L/5_Ratio_250_L_24_R_6.png","img/750/randomdotsizeEA/R/15_Ratio_750_L_9_R_12.png","img/250/randomdotsizeEA/R/4_Ratio_250_L_3_R_12.png","img/750/equaldotsize/R/7_Ratio_750_L_3_R_4.png","img/500/equaldotsize/R/12_Ratio_500_L_1_R_2.png","img/500/equaldotanddens/R/12_Ratio_500_L_1_R_2.png","img/900/equaldotsize/R/3_Ratio_900_L_9_R_10.png","img/750/equaldotanddens/L/13_Ratio_750_L_8_R_6.png","img/250/equaldotsize/R/12_Ratio_250_L_5_R_20.png","img/500/randomdotsizeEA/R/3_Ratio_500_L_10_R_20.png","img/750/equaldotsize/R/7_Ratio_750_L_3_R_4.png","img/750/equaldotanddens/R/5_Ratio_750_L_15_R_20.png","img/500/equaldotanddens/R/14_Ratio_500_L_5_R_10.png","img/900/equaldotsize/L/1_Ratio_900_L_10_R_9.png","img/750/equaldotanddens/R/4_Ratio_750_L_15_R_20.png","img/750/equaldotanddens/L/8_Ratio_750_L_4_R_3.png","img/500/equaldotanddens/R/12_Ratio_500_L_1_R_2.png","img/250/equaldotanddens/R/6_Ratio_250_L_6_R_24.png","img/900/equaldotanddens/R/6_Ratio_900_L_9_R_10.png","img/500/equaldotanddens/R/1_Ratio_500_L_9_R_18.png","img/250/equaldotanddens/L/14_Ratio_250_L_12_R_3.png","img/500/equaldotsize/L/7_Ratio_500_L_10_R_5.png","img/250/equaldotanddens/R/10_Ratio_250_L_4_R_16.png","img/500/randomdotsizeEA/L/4_Ratio_500_L_18_R_9.png","img/750/randomdotsizeEA/R/12_Ratio_750_L_3_R_4.png","img/750/randomdotsizeEA/R/4_Ratio_750_L_15_R_20.png","img/900/randomdotsizeEA/R/5_Ratio_900_L_9_R_10.png","img/500/randomdotsizeEA/R/15_Ratio_500_L_1_R_2.png","img/500/equaldotsize/R/2_Ratio_500_L_3_R_6.png","img/750/equaldotsize/L/10_Ratio_750_L_4_R_3.png","img/900/equaldotanddens/L/10_Ratio_900_L_20_R_18.png","img/250/randomdotsizeEA/R/4_Ratio_250_L_3_R_12.png","img/250/randomdotsizeEA/L/7_Ratio_250_L_8_R_2.png","img/750/equaldotsize/L/13_Ratio_750_L_8_R_6.png","img/500/randomdotsizeEA/L/13_Ratio_500_L_12_R_6.png"],"Rat0":[["12_Ratio_0_L_9_R_0.png","13_Ratio_0_L_6_R_0.png","5_Ratio_0_L_2_R_0.png","6_Ratio_0_L_4_R_0.png","8_Ratio_0_L_6_R_0.png"],["1_Ratio_0_L_0_R_17.png","10_Ratio_0_L_0_R_22.png","11_Ratio_0_L_0_R_1.png","14_Ratio_0_L_0_R_24.png","15_Ratio_0_L_0_R_4.png","2_Ratio_0_L_0_R_5.png","3_Ratio_0_L_0_R_17.png","4_Ratio_0_L_0_R_7.png","7_Ratio_0_L_0_R_19.png","9_Ratio_0_L_0_R_15.png"]],"Rat250":[["1_Ratio_250_L_8_R_2.png","14_Ratio_250_L_12_R_3.png","15_Ratio_250_L_12_R_3.png","2_Ratio_250_L_16_R_4.png","3_Ratio_250_L_8_R_2.png","5_Ratio_250_L_24_R_6.png","7_Ratio_250_L_8_R_2.png"],["10_Ratio_250_L_4_R_16.png","11_Ratio_250_L_3_R_12.png","12_Ratio_250_L_5_R_20.png","13_Ratio_250_L_2_R_8.png","4_Ratio_250_L_3_R_12.png","6_Ratio_250_L_6_R_24.png","8_Ratio_250_L_1_R_4.png","9_Ratio_250_L_3_R_12.png"]],"Rat500":[["10_Ratio_500_L_4_R_2.png","11_Ratio_500_L_12_R_6.png","13_Ratio_500_L_12_R_6.png","4_Ratio_500_L_18_R_9.png","5_Ratio_500_L_4_R_2.png","7_Ratio_500_L_10_R_5.png","8_Ratio_500_L_8_R_4.png"],["1_Ratio_500_L_9_R_18.png","12_Ratio_500_L_1_R_2.png","14_Ratio_500_L_5_R_10.png","15_Ratio_500_L_1_R_2.png","2_Ratio_500_L_3_R_6.png","3_Ratio_500_L_10_R_20.png","6_Ratio_500_L_9_R_18.png","9_Ratio_500_L_2_R_4.png"]],"Rat750":[["1_Ratio_750_L_20_R_15.png","10_Ratio_750_L_4_R_3.png","13_Ratio_750_L_8_R_6.png","14_Ratio_750_L_8_R_6.png","6_Ratio_750_L_24_R_18.png","8_Ratio_750_L_4_R_3.png","9_Ratio_750_L_4_R_3.png"],["11_Ratio_750_L_12_R_16.png","12_Ratio_750_L_3_R_4.png","15_Ratio_750_L_9_R_12.png","2_Ratio_750_L_6_R_8.png","3_Ratio_750_L_15_R_20.png","4_Ratio_750_L_15_R_20.png","5_Ratio_750_L_15_R_20.png","7_Ratio_750_L_3_R_4.png"]],"Rat900":[["1_Ratio_900_L_10_R_9.png","10_Ratio_900_L_20_R_18.png","2_Ratio_900_L_20_R_18.png","4_Ratio_900_L_20_R_18.png","8_Ratio_900_L_20_R_18.png"],["11_Ratio_900_L_18_R_20.png","12_Ratio_900_L_18_R_20.png","13_Ratio_900_L_18_R_20.png","14_Ratio_900_L_18_R_20.png","15_Ratio_900_L_9_R_10.png","3_Ratio_900_L_9_R_10.png","5_Ratio_900_L_9_R_10.png","6_Ratio_900_L_9_R_10.png","7_Ratio_900_L_9_R_10.png","9_Ratio_900_L_18_R_20.png"]],"Rat1000":[["10_Ratio_1000_L_16_R_16.png","11_Ratio_1000_L_6_R_6.png","12_Ratio_1000_L_14_R_14.png","13_Ratio_1000_L_20_R_20.png","15_Ratio_1000_L_15_R_15.png","2_Ratio_1000_L_17_R_17.png","4_Ratio_1000_L_9_R_9.png","5_Ratio_1000_L_6_R_6.png","6_Ratio_1000_L_19_R_19.png","8_Ratio_1000_L_14_R_14.png","9_Ratio_1000_L_25_R_25.png"],["1_Ratio_1000_L_1_R_1.png","14_Ratio_1000_L_17_R_17.png","3_Ratio_1000_L_17_R_17.png","7_Ratio_1000_L_6_R_6.png"]]}},{"start_time":1551794816989,"click_time":1551794818619,"finger_time":1551794817839,"fix_duration":647.7081083034645,"trial":1,"RT":850,"MT":780,"sideResp":2,"stimulus":"img/500/randomdotsizeEA/R/14_Ratio_500_L_5_R_10.png","xmouse":[789,789,789,789,789,789,789,789,789,789,789,789,789,789,789,789,789,789,789,789,789,789,789,789,789,789,789,789,789,789,789,789,789,789,789,789,789,789,789,789,789,779,769,756,729,692,627,615,608,605,602,592,586,580,577,574,573,573,573,573,573,573,573,573,591,702,950,1074,1176,1249,1283,1289,1289,1289,1289,1289,1268,1251,1231,1205,1177,1133],"ymouse":[518,518,518,518,518,518,518,518,518,518,518,518,518,518,518,518,518,518,518,518,518,518,518,518,518,518,518,518,518,518,518,518,518,518,518,518,518,518,518,518,516,488,466,434,379,327,251,236,228,222,215,185,172,160,153,147,144,144,144,144,144,144,144,143,151,180,193,175,154,132,119,115,115,114,111,106,76,66,58,49,44,40],"timestamp_mouse":[8,41,49,70,88,109,129,150,170,188,208,230,250,268,290,309,329,350,370,389,410,430,448,470,489,510,530,550,570,589,610,629,649,670,690,710,729,748,768,790,808,828,850,869,889,909,929,948,968,989,1009,1029,1049,1068,1088,1109,1129,1150,1168,1189,1209,1229,1249,1270,1288,1309,1329,1349,1369,1389,1409,1428,1449,1469,1490,1509,1528,1549,1569,1589,1610,1629],"xSR":741.5,"ySR":469.95,"xT1":424.9,"yT1":0,"xT2":1058.1,"yT2":0,"toosoon":0,"cond_shown":"randomdotsizeEA","ratio_trial":500,"smaller_num":"5","larger_num":"10","correct_side":2,"subjID":"gabrielagranadosbustos19","gender":"1","age":"11","school":"6"},{"start_time":1551794820272,"click_time":1551794821479,"finger_time":1551794821079,"fix_duration":832.108779825873,"trial":2,"RT":807,"MT":400,"sideResp":1,"stimulus":"img/500/equaldotsize/L/10_Ratio_500_L_4_R_2.png","xmouse":[807,807,807,807,807,807,807,807,807,807,807,807,807,807,807,807,807,807,807,807,807,807,807,807,807,807,807,807,807,807,807,807,807,807,807,807,807,805,799,783,748,727,636,604,587,579,579,576,575,574,571,571,571,571,570,569,567,550,539,528,520],"ymouse":[523,523,523,523,523,523,523,523,523,523,523,523,523,523,523,523,523,523,523,523,523,523,523,523,523,523,523,523,523,523,523,523,523,523,523,523,523,523,519,506,463,433,271,218,184,166,157,146,141,137,133,133,133,133,133,133,132,120,111,101,94],"timestamp_mouse":[11,26,46,65,86,106,126,147,167,185,206,226,247,265,286,306,326,347,365,387,407,426,447,466,487,506,525,546,566,585,607,625,646,665,686,706,727,745,766,786,807,827,846,867,885,907,927,945,965,986,1005,1026,1046,1066,1085,1107,1126,1147,1167,1185,1207],"xSR":741.5,"ySR":469.95,"xT1":424.9,"yT1":0,"xT2":1058.1,"yT2":0,"toosoon":0,"cond_shown":"equaldotsize","ratio_trial":500,"smaller_num":"2","larger_num":"4","correct_side":1,"subjID":"gabrielagranadosbustos19","gender":"1","age":"11","school":"6"},{"start_time":1551794822481,"click_time":1551794823738,"finger_time":1551794823298,"fix_duration":422.15120642633394,"trial":3,"RT":817,"MT":440,"sideResp":1,"stimulus":"img/750/equaldotsize/L/1_Ratio_750_L_20_R_15.png","xmouse":[789,789,789,789,789,789,789,789,789,789,789,789,789,789,789,789,789,789,789,789,789,789,789,789,789,789,789,789,789,789,789,789,789,789,789,789,789,789,789,783,754,663,625,603,587,579,574,574,574,571,567,559,551,545,541,538,538,538,538,536,530,525,522],"ymouse":[526,526,526,526,526,526,526,526,526,526,526,526,526,526,526,526,526,526,526,526,526,526,526,526,526,526,526,526,526,526,526,526,526,526,526,526,526,526,526,521,446,291,248,226,209,195,181,175,173,157,140,121,96,88,82,79,79,79,79,79,79,79,79],"timestamp_mouse":[17,36,57,76,97,118,137,157,178,196,216,236,257,278,297,317,337,358,377,396,418,437,457,477,497,518,538,556,577,597,618,636,656,678,697,718,736,756,778,798,817,837,857,877,896,918,937,956,977,997,1016,1038,1058,1077,1098,1117,1138,1157,1177,1197,1217,1236,1257],"xSR":741.5,"ySR":469.95,"xT1":424.9,"yT1":0,"xT2":1058.1,"yT2":0,"toosoon":0,"cond_shown":"equaldotsize","ratio_trial":750,"smaller_num":"15","larger_num":"20","correct_side":1,"subjID":"gabrielagranadosbustos19","gender":"1","age":"11","school":"6"},{"start_time":1551794826039,"click_time":1551794827179,"finger_time":1551794826817,"fix_duration":1379.8921426481868,"trial":4,"RT":778,"MT":362,"sideResp":1,"stimulus":"img/750/randomdotsizeEA/L/6_Ratio_750_L_24_R_18.png","xmouse":[788,788,788,788,788,788,788,788,788,788,788,788,788,788,788,788,788,788,788,788,788,788,788,788,788,788,788,788,788,788,788,788,788,788,788,788,785,778,768,727,699,681,669,663,653,647,638,623,604,594,592,592,589,580,548,531,516],"ymouse":[522,522,522,522,522,522,522,522,522,522,522,522,522,522,522,522,522,522,522,522,522,522,522,522,522,522,522,522,522,522,522,522,522,522,522,518,506,470,409,245,195,166,147,138,124,114,102,91,79,75,74,74,74,74,73,71,71],"timestamp_mouse":[19,39,59,79,98,118,139,158,179,199,219,238,259,278,300,319,339,360,380,398,419,440,459,479,500,518,539,559,578,599,620,639,660,679,700,719,739,760,778,798,819,839,860,879,899,920,939,960,978,998,1020,1039,1059,1079,1099,1119,1140],"xSR":741.5,"ySR":469.95,"xT1":424.9,"yT1":0,"xT2":1058.1,"yT2":0,"toosoon":0,"cond_shown":"randomdotsizeEA","ratio_trial":750,"smaller_num":"18","larger_num":"24","correct_side":1,"subjID":"gabrielagranadosbustos19","gender":"1","age":"11","school":"6"},{"start_time":1551794828438,"click_time":1551794829438,"finger_time":1551794829117,"fix_duration":480.8564085600053,"trial":5,"RT":679,"MT":321,"sideResp":2,"stimulus":"img/750/equaldotanddens/R/3_Ratio_750_L_15_R_20.png","xmouse":[777,777,777,777,777,777,777,777,777,777,777,777,777,777,777,777,777,777,777,777,777,777,777,777,777,777,777,777,777,777,777,791,815,854,939,966,979,989,1002,1015,1023,1032,1043,1051,1063,1066,1069,1071,1086,1107],"ymouse":[529,529,529,529,529,529,529,529,529,529,529,529,529,529,529,529,529,529,529,529,529,529,529,529,529,529,529,529,529,529,529,518,500,474,402,375,351,327,301,274,261,247,228,211,175,164,157,152,124,82],"timestamp_mouse":[32,40,60,81,100,120,141,161,180,200,221,240,260,280,300,321,341,360,380,401,419,441,461,481,499,521,540,559,580,600,620,640,661,679,701,721,740,760,781,800,821,840,860,880,900,920,940,960,980,1000],"xSR":741.5,"ySR":469.95,"xT1":424.9,"yT1":0,"xT2":1058.1,"yT2":0,"toosoon":0,"cond_shown":"equaldotanddens","ratio_trial":750,"smaller_num":"15","larger_num":"20","correct_side":2,"subjID":"gabrielagranadosbustos19","gender":"1","age":"11","school":"6"},{"start_time":1551794831194,"click_time":1551794832478,"finger_time":1551794832238,"fix_duration":733.7981644149661,"trial":6,"RT":1044,"MT":240,"sideResp":1,"stimulus":"img/900/equaldotsize/R/9_Ratio_900_L_18_R_20.png","xmouse":[786,786,786,786,786,786,786,786,786,786,786,786,786,786,786,786,786,786,786,786,786,786,786,786,786,786,786,786,786,786,786,786,786,786,786,786,786,786,786,786,786,786,786,786,786,786,786,786,786,786,786,782,729,703,683,668,658,651,650,646,638,619,583,525,512],"ymouse":[519,519,519,519,519,519,519,519,519,519,519,519,519,519,519,519,519,519,519,519,519,519,519,519,519,519,519,519,519,519,519,519,519,519,519,519,519,519,519,519,519,519,519,519,519,519,519,519,519,519,516,493,322,255,207,172,151,126,120,111,98,79,56,32,26],"timestamp_mouse":[8,23,44,63,83,104,123,144,163,184,204,224,244,263,285,305,323,344,365,384,404,424,443,464,483,505,524,545,564,584,604,624,644,664,685,704,724,743,764,783,804,823,845,864,884,904,923,944,964,984,1004,1023,1044,1063,1084,1103,1124,1145,1164,1184,1205,1223,1243,1263,1284],"xSR":741.5,"ySR":469.95,"xT1":424.9,"yT1":0,"xT2":1058.1,"yT2":0,"toosoon":0,"cond_shown":"equaldotsize","ratio_trial":900,"smaller_num":"18","larger_num":"20","correct_side":2,"subjID":"gabrielagranadosbustos19","gender":"1","age":"11","school":"6"},{"start_time":1551794833942,"click_time":1551794834798,"finger_time":1551794834618,"fix_duration":482.2791498547875,"trial":7,"RT":676,"MT":180,"sideResp":2,"stimulus":"img/500/equaldotanddens/R/6_Ratio_500_L_9_R_18.png","xmouse":[801,801,801,801,801,801,801,801,801,801,801,801,801,802,802,802,802,802,802,802,802,802,802,802,803,804,804,805,806,815,827,841,875,931,1072,1114,1137,1142,1143,1143,1143,1143],"ymouse":[535,534,534,534,534,534,534,534,534,534,534,534,534,532,532,532,532,532,532,532,532,532,532,532,531,530,529,526,526,515,501,489,459,407,244,183,148,134,132,121,101,84],"timestamp_mouse":[36,56,76,96,117,137,156,177,197,217,236,256,277,297,316,336,355,377,397,416,436,457,475,496,516,536,555,576,595,617,636,657,676,697,716,735,755,776,796,816,836,856],"xSR":741.5,"ySR":469.95,"xT1":424.9,"yT1":0,"xT2":1058.1,"yT2":0,"toosoon":0,"cond_shown":"equaldotanddens","ratio_trial":500,"smaller_num":"9","larger_num":"18","correct_side":2,"subjID":"gabrielagranadosbustos19","gender":"1","age":"11","school":"6"},{"start_time":1551794837013,"click_time":1551794837878,"finger_time":1551794837679,"fix_duration":1352.0566441823612,"trial":8,"RT":666,"MT":199,"sideResp":2,"stimulus":"img/250/equaldotsize/R/9_Ratio_250_L_3_R_12.png","xmouse":[770,770,770,770,770,770,770,770,770,770,770,770,770,770,770,770,770,770,770,770,770,770,770,770,770,770,770,770,770,770,770,771,821,902,998,1075,1125,1135,1137,1139,1140,1143,1149,1149],"ymouse":[518,518,518,518,518,518,518,518,518,518,518,518,518,518,518,518,518,518,518,518,518,518,518,518,518,518,518,518,518,518,518,518,476,407,325,250,188,166,160,154,149,141,106,88],"timestamp_mouse":[9,25,46,65,85,105,125,146,166,184,206,224,246,265,285,306,326,344,365,385,406,425,445,465,486,506,525,544,565,586,605,626,645,666,684,706,725,745,766,785,805,825,845,865],"xSR":741.5,"ySR":469.95,"xT1":424.9,"yT1":0,"xT2":1058.1,"yT2":0,"toosoon":0,"cond_shown":"equaldotsize","ratio_trial":250,"smaller_num":"3","larger_num":"12","correct_side":2,"subjID":"gabrielagranadosbustos19","gender":"1","age":"11","school":"6"},{"start_time":1551794841592,"click_time":1551794842978,"finger_time":1551794842258,"fix_duration":1112.9380427719464,"trial":9,"RT":666,"MT":720,"sideResp":1,"stimulus":"img/750/equaldotsize/L/1_Ratio_750_L_20_R_15.png","xmouse":[794,794,794,794,794,794,794,794,794,794,794,794,794,794,794,794,794,794,794,794,794,794,794,794,794,794,794,794,794,794,794,791,790,783,761,734,719,705,697,681,674,661,634,582,562,557,552,546,536,512,504,502,502,502,502,502,502,502,502,502,502,502,502,502,502,502,502,502,502,502],"ymouse":[502,502,502,502,502,502,502,502,502,502,502,502,502,502,502,502,502,502,502,502,502,502,502,502,502,502,502,502,502,502,502,501,491,462,391,352,331,311,298,274,262,243,214,173,159,153,149,143,136,116,108,105,105,105,105,105,104,103,102,101,101,101,101,101,101,101,101,101,101,98],"timestamp_mouse":[17,40,47,67,86,107,127,147,166,187,206,227,246,266,287,305,327,346,366,385,406,426,446,467,487,506,527,546,566,587,605,627,646,666,685,705,725,745,766,785,806,826,846,867,886,906,927,945,966,985,1006,1027,1046,1065,1085,1106,1127,1146,1167,1187,1207,1226,1247,1266,1286,1306,1326,1347,1367,1385],"xSR":741.5,"ySR":469.95,"xT1":424.9,"yT1":0,"xT2":1058.1,"yT2":0,"toosoon":0,"cond_shown":"equaldotsize","ratio_trial":750,"smaller_num":"15","larger_num":"20","correct_side":1,"subjID":"gabrielagranadosbustos19","gender":"1","age":"11","school":"6"},{"start_time":1551794846280,"click_time":1551794847259,"finger_time":1551794846958,"fix_duration":301.7396356926534,"trial":10,"RT":678,"MT":301,"sideResp":1,"stimulus":"img/500/equaldotanddens/L/5_Ratio_500_L_4_R_2.png","xmouse":[769,769,769,769,769,769,769,769,769,769,769,769,769,769,769,769,769,769,769,769,769,769,769,769,769,769,769,769,769,769,769,769,764,756,713,677,634,596,577,575,575,575,575,575,575,575,569,560,520],"ymouse":[506,506,506,506,506,506,506,506,506,506,506,506,506,506,506,506,506,506,506,506,506,506,506,506,506,506,506,506,506,506,506,506,493,466,316,235,156,108,84,82,82,82,82,82,82,82,82,82,82],"timestamp_mouse":[18,41,59,78,98,119,139,159,178,199,219,239,258,279,298,318,338,358,377,399,417,439,459,477,498,517,539,558,579,599,618,639,658,678,698,718,738,758,778,799,819,838,858,879,899,918,937,959,978],"xSR":741.5,"ySR":469.95,"xT1":424.9,"yT1":0,"xT2":1058.1,"yT2":0,"toosoon":0,"cond_shown":"equaldotanddens","ratio_trial":500,"smaller_num":"2","larger_num":"4","correct_side":1,"subjID":"gabrielagranadosbustos19","gender":"1","age":"11","school":"6"},{"start_time":1551794849746,"click_time":1551794850738,"finger_time":1551794850398,"fix_duration":1406.1182218871402,"trial":11,"RT":652,"MT":340,"sideResp":2,"stimulus":"img/900/equaldotsize/R/14_Ratio_900_L_18_R_20.png","xmouse":[773,773,773,773,773,773,773,773,773,773,773,773,773,773,773,773,773,773,773,773,773,773,773,773,773,773,773,773,773,776,784,823,845,884,915,950,1000,1012,1025,1040,1051,1063,1070,1076,1080,1084,1088,1090,1094,1096],"ymouse":[502,502,502,502,502,502,502,502,502,502,502,502,502,502,502,502,502,502,502,502,502,502,502,502,502,502,502,502,502,502,499,482,476,462,447,424,381,362,341,310,281,234,213,182,162,144,121,111,101,95],"timestamp_mouse":[12,47,52,73,93,113,133,151,173,192,212,231,252,273,292,313,333,353,372,391,412,431,452,472,492,513,532,552,572,592,611,633,652,673,691,712,733,752,772,791,812,833,852,873,892,912,933,951,973,992],"xSR":741.5,"ySR":469.95,"xT1":424.9,"yT1":0,"xT2":1058.1,"yT2":0,"toosoon":0,"cond_shown":"equaldotsize","ratio_trial":900,"smaller_num":"18","larger_num":"20","correct_side":2,"subjID":"gabrielagranadosbustos19","gender":"1","age":"11","school":"6"},{"start_time":1551794852867,"click_time":1551794853938,"finger_time":1551794853679,"fix_duration":1367.979206573729,"trial":12,"RT":812,"MT":259,"sideResp":1,"stimulus":"img/500/equaldotanddens/L/4_Ratio_500_L_18_R_9.png","xmouse":[769,769,769,769,769,769,769,769,769,769,769,769,769,769,769,769,769,769,769,769,769,769,769,769,769,769,769,769,769,769,769,769,769,769,769,769,769,769,769,766,747,689,667,656,652,651,644,632,616,597,578,556,539,514],"ymouse":[529,529,529,529,529,529,529,529,529,529,529,529,529,529,529,529,529,529,529,529,529,529,529,529,529,529,529,529,529,529,529,529,529,529,529,529,528,515,501,479,443,378,357,343,337,333,303,274,248,221,195,157,126,90],"timestamp_mouse":[11,39,52,71,91,111,132,152,171,190,212,232,252,272,290,312,331,350,372,391,412,432,451,472,491,511,532,551,572,590,611,631,652,671,692,711,731,751,771,791,812,831,852,871,891,910,930,952,971,991,1010,1031,1052,1071],"xSR":741.5,"ySR":469.95,"xT1":424.9,"yT1":0,"xT2":1058.1,"yT2":0,"toosoon":0,"cond_shown":"equaldotanddens","ratio_trial":500,"smaller_num":"9","larger_num":"18","correct_side":1,"subjID":"gabrielagranadosbustos19","gender":"1","age":"11","school":"6"},{"start_time":1551794855912,"click_time":1551794857939,"finger_time":1551794857659,"fix_duration":1212.9817820773485,"trial":13,"RT":1747,"MT":280,"sideResp":2,"stimulus":"img/900/randomdotsizeEA/R/13_Ratio_900_L_18_R_20.png","xmouse":[778,778,778,778,778,778,778,778,778,778,778,778,778,778,778,778,778,778,778,778,778,778,778,778,778,778,778,778,778,778,778,778,778,778,778,778,778,778,778,778,778,778,778,778,778,778,778,778,778,778,778,778,778,778,778,778,778,778,778,778,778,778,778,778,778,778,778,778,778,778,778,778,778,778,778,778,778,778,778,778,778,778,778,778,778,779,785,795,812,859,871,879,894,910,927,955,965,973,989,1031,1055,1069],"ymouse":[522,522,522,522,522,522,522,522,522,522,522,522,522,522,522,522,522,522,522,522,522,522,522,522,522,522,522,522,522,522,522,522,522,522,522,522,522,522,522,522,522,522,522,522,522,522,522,522,522,522,522,522,522,522,522,522,522,522,522,522,522,522,522,522,522,522,522,522,522,522,522,522,522,522,522,522,522,522,522,522,522,522,522,522,522,513,490,469,442,388,373,362,342,323,303,275,263,242,207,129,96,72],"timestamp_mouse":[9,34,47,66,85,106,125,147,165,186,205,227,246,266,286,306,327,346,366,387,407,426,447,466,486,506,527,545,565,586,606,626,645,667,685,707,727,746,767,786,806,826,845,866,886,907,927,946,966,986,1006,1027,1046,1066,1086,1105,1127,1147,1166,1185,1206,1225,1247,1265,1286,1307,1326,1347,1365,1386,1407,1427,1446,1466,1487,1507,1525,1546,1567,1586,1606,1626,1647,1667,1686,1705,1727,1747,1766,1786,1806,1825,1845,1866,1887,1906,1926,1946,1965,1987,2005,2026],"xSR":741.5,"ySR":469.95,"xT1":424.9,"yT1":0,"xT2":1058.1,"yT2":0,"toosoon":0,"cond_shown":"randomdotsizeEA","ratio_trial":900,"smaller_num":"18","larger_num":"20","correct_side":2,"subjID":"gabrielagranadosbustos19","gender":"1","age":"11","school":"6"},{"start_time":1551794862970,"click_time":1551794865157,"finger_time":1551794864917,"fix_duration":250,"trial":14,"RT":1947,"MT":240,"sideResp":1,"stimulus":"img/900/randomdotsizeEA/R/6_Ratio_900_L_9_R_10.png","xmouse":[763,763,763,763,763,763,763,763,763,763,763,763,763,763,763,763,763,763,763,763,763,763,763,763,763,763,763,763,763,763,763,763,763,763,763,763,763,763,763,763,763,763,763,763,763,763,763,763,763,763,763,763,763,763,763,763,763,763,763,763,763,763,763,763,763,763,763,763,763,763,763,763,763,763,763,763,763,763,763,763,763,763,763,763,763,763,763,763,763,763,763,763,763,763,763,763,767,785,785,774,754,725,674,651,624,601,580,553,538,519],"ymouse":[505,505,505,505,505,505,505,505,505,505,505,505,505,505,505,505,505,505,505,505,505,505,505,505,505,505,505,505,505,505,505,505,505,505,505,505,505,505,505,505,505,505,505,505,505,505,505,505,505,505,505,505,505,505,505,505,505,505,505,505,505,505,505,505,505,505,505,505,505,505,505,505,505,505,505,505,505,505,505,505,505,505,505,505,505,505,505,505,505,505,505,505,505,505,505,505,497,451,429,406,377,336,269,235,201,174,150,117,106,96],"timestamp_mouse":[9,32,48,69,88,109,129,147,168,188,209,229,248,269,289,308,329,347,368,389,408,428,448,467,488,508,527,548,568,588,607,628,649,668,688,707,728,749,769,789,808,828,848,869,889,909,928,947,969,988,1009,1029,1048,1067,1089,1109,1129,1148,1169,1188,1209,1228,1248,1268,1288,1309,1328,1348,1369,1388,1409,1428,1448,1468,1488,1508,1529,1547,1568,1589,1609,1628,1648,1668,1688,1709,1728,1748,1768,1788,1807,1827,1848,1868,1888,1908,1929,1947,1967,1988,2008,2027,2048,2068,2087,2108,2129,2148,2168,2187],"xSR":741.5,"ySR":469.95,"xT1":424.9,"yT1":0,"xT2":1058.1,"yT2":0,"toosoon":0,"cond_shown":"randomdotsizeEA","ratio_trial":900,"smaller_num":"9","larger_num":"10","correct_side":2,"subjID":"gabrielagranadosbustos19","gender":"1","age":"11","school":"6"},{"start_time":1551794866835,"click_time":1551794867960,"finger_time":1551794867599,"fix_duration":955.0501650057957,"trial":15,"RT":764,"MT":361,"sideResp":1,"stimulus":"img/250/equaldotsize/L/14_Ratio_250_L_12_R_3.png","xmouse":[767,767,767,767,767,767,767,767,767,767,767,767,767,767,767,767,767,767,767,767,767,767,767,767,767,767,767,767,767,767,767,767,768,768,771,771,771,770,767,753,730,713,691,669,653,618,599,589,585,581,578,565,558,549,543,528,514],"ymouse":[516,516,516,516,516,516,516,516,516,516,516,516,516,516,516,516,516,516,516,516,516,516,516,516,516,516,516,516,516,516,516,516,515,511,502,488,481,474,467,447,426,410,392,368,339,217,166,142,126,107,94,75,67,60,57,57,57],"timestamp_mouse":[12,33,43,63,83,102,123,143,163,182,203,224,243,263,284,303,323,343,363,384,404,424,443,462,483,502,524,544,564,582,604,624,642,664,683,703,724,743,764,784,803,822,844,864,884,902,922,943,962,984,1003,1023,1043,1063,1083,1102,1124],"xSR":741.5,"ySR":469.95,"xT1":424.9,"yT1":0,"xT2":1058.1,"yT2":0,"toosoon":0,"cond_shown":"equaldotsize","ratio_trial":250,"smaller_num":"3","larger_num":"12","correct_side":1,"subjID":"gabrielagranadosbustos19","gender":"1","age":"11","school":"6"},{"start_time":1551794869113,"click_time":1551794872438,"finger_time":1551794870179,"fix_duration":253.91445539697878,"trial":16,"RT":1066,"MT":2259,"sideResp":2,"stimulus":"img/750/randomdotsizeEA/R/2_Ratio_750_L_6_R_8.png","xmouse":[764,765,765,765,765,765,765,765,766,766,767,767,767,768,768,768,768,768,768,768,768,768,768,768,768,768,768,768,768,768,768,768,768,768,768,768,768,768,768,768,768,768,768,768,768,768,768,768,768,768,768,766,744,709,670,612,577,567,567,567,567,567,567,567,567,567,567,567,567,572,588,675,746,806,841,859,885,901,921,941,961,999,1011,1015,1015,1015,1016,1020,1024,1029,1035,1043,1047,1047,1049,1049,1049,1049,1049,1049,1049,1049,1049,1049,1049,1050,1054,1057,1057,1058,1058,1058,1058,1058,1058,1058,1058,1058,1058,1058,1058,1058,1058,1058,1058,1058,1058,1058,1058,1058,1058,1058,1058,1058,1059,1059,1060,1060,1060,1060,1060,1060,1060,1060,1060,1060,1060,1060,1060,1060,1060,1060,1060,1060,1060,1060,1060,1060,1060,1060,1060,1060,1060,1060,1060,1060,1061],"ymouse":[509,509,509,509,509,509,509,509,509,509,509,509,509,509,509,509,509,509,509,509,509,509,509,509,509,509,509,509,509,509,509,509,509,509,509,509,509,509,509,509,509,509,509,509,509,509,509,509,509,509,509,505,479,443,404,353,325,316,316,316,316,316,316,316,316,316,316,316,316,320,329,338,338,338,338,338,326,311,291,275,261,238,231,229,229,229,225,219,210,197,180,155,149,144,139,139,138,138,138,138,138,138,138,138,137,135,125,121,119,117,116,115,115,114,114,114,114,114,113,112,110,106,105,104,104,104,104,104,104,104,104,104,104,104,104,104,101,101,101,101,101,101,101,101,101,101,101,101,101,101,101,101,101,101,101,101,101,101,101,101,101,101,101,101,101,101,98],"timestamp_mouse":[8,40,46,66,85,106,126,146,166,184,204,226,245,266,285,306,325,345,365,385,405,425,445,464,486,505,526,546,565,585,604,626,645,665,686,705,726,745,765,785,805,826,845,866,886,905,926,945,965,985,1005,1025,1045,1066,1085,1104,1125,1145,1165,1184,1206,1224,1245,1266,1286,1305,1325,1346,1364,1386,1406,1425,1445,1465,1486,1506,1525,1546,1565,1585,1604,1624,1645,1665,1685,1704,1724,1745,1764,1784,1805,1825,1845,1865,1885,1906,1925,1946,1965,1986,2006,2024,2045,2066,2085,2105,2125,2145,2165,2184,2205,2225,2244,2264,2285,2304,2325,2345,2365,2385,2406,2424,2445,2466,2485,2506,2525,2545,2566,2585,2605,2625,2645,2665,2686,2705,2725,2746,2765,2785,2806,2826,2845,2866,2885,2906,2925,2944,2966,2985,3006,3025,3046,3065,3085,3105,3125,3146,3165,3186,3206,3226,3246,3265,3284,3305,3324],"xSR":741.5,"ySR":469.95,"xT1":424.9,"yT1":0,"xT2":1058.1,"yT2":0,"toosoon":0,"cond_shown":"randomdotsizeEA","ratio_trial":750,"smaller_num":"6","larger_num":"8","correct_side":2,"subjID":"gabrielagranadosbustos19","gender":"1","age":"11","school":"6"},{"start_time":1551794874625,"click_time":1551794876438,"finger_time":1551794875698,"fix_duration":1285.0987894759114,"trial":17,"RT":1073,"MT":740,"sideResp":1,"stimulus":"img/900/randomdotsizeEA/R/5_Ratio_900_L_9_R_10.png","xmouse":[802,802,802,802,802,802,802,802,802,802,802,802,802,802,802,802,802,802,802,802,802,802,802,802,802,802,802,802,802,802,802,802,802,802,802,802,802,802,802,802,802,802,802,802,802,802,802,802,802,802,804,808,817,829,840,859,865,871,884,891,904,907,908,909,909,909,909,909,909,909,908,846,775,705,648,588,563,556,540,535,531,527,521,512,506,499,493,492,487,480,472],"ymouse":[518,518,518,518,518,518,518,518,518,518,518,518,518,518,518,518,518,518,518,518,518,518,518,518,518,518,518,518,518,518,518,518,518,518,518,518,518,518,518,518,518,518,518,518,518,518,518,518,518,518,505,491,471,449,432,406,398,391,375,367,351,348,345,344,344,344,344,344,344,344,344,349,349,335,308,263,238,231,216,211,208,205,201,193,186,170,156,150,132,116,99],"timestamp_mouse":[12,43,52,74,94,112,133,154,174,192,213,233,253,273,293,314,333,354,374,394,413,433,454,473,494,512,532,554,574,592,613,634,653,674,693,712,733,754,774,793,814,833,854,874,894,913,933,953,974,993,1013,1033,1053,1073,1094,1113,1133,1152,1173,1192,1214,1233,1253,1274,1294,1313,1333,1353,1373,1393,1414,1434,1452,1472,1494,1514,1533,1553,1574,1592,1614,1632,1653,1673,1692,1714,1733,1753,1773,1793,1813],"xSR":741.5,"ySR":469.95,"xT1":424.9,"yT1":0,"xT2":1058.1,"yT2":0,"toosoon":0,"cond_shown":"randomdotsizeEA","ratio_trial":900,"smaller_num":"9","larger_num":"10","correct_side":2,"subjID":"gabrielagranadosbustos19","gender":"1","age":"11","school":"6"},{"start_time":1551794877430,"click_time":1551794878498,"finger_time":1551794878218,"fix_duration":250,"trial":18,"RT":788,"MT":280,"sideResp":2,"stimulus":"img/900/equaldotsize/L/10_Ratio_900_L_20_R_18.png","xmouse":[761,761,768,769,769,769,769,769,769,769,769,769,769,769,769,769,769,769,769,769,772,772,772,772,772,772,772,772,772,772,772,772,772,772,772,772,785,801,815,825,840,940,989,1028,1055,1085,1099,1101,1102,1103,1106,1114,1116,1116],"ymouse":[542,542,540,540,540,540,540,540,540,540,540,540,540,540,540,540,540,540,540,540,538,538,538,538,538,538,538,538,538,538,538,538,538,538,538,538,526,502,475,457,439,368,322,279,242,202,178,172,169,166,160,124,104,94],"timestamp_mouse":[8,29,49,69,89,109,127,149,169,189,208,228,248,269,288,307,329,347,369,388,409,428,449,468,488,508,528,549,567,588,608,627,649,667,688,708,727,749,768,788,808,828,848,867,888,908,928,948,968,988,1007,1028,1048,1068],"xSR":741.5,"ySR":469.95,"xT1":424.9,"yT1":0,"xT2":1058.1,"yT2":0,"toosoon":0,"cond_shown":"equaldotsize","ratio_trial":900,"smaller_num":"18","larger_num":"20","correct_side":1,"subjID":"gabrielagranadosbustos19","gender":"1","age":"11","school":"6"},{"start_time":1551794879522,"click_time":1551794880679,"finger_time":1551794880339,"fix_duration":263.669387274162,"trial":19,"RT":817,"MT":340,"sideResp":2,"stimulus":"img/900/equaldotanddens/R/14_Ratio_900_L_18_R_20.png","xmouse":[806,806,806,806,806,806,806,806,806,806,806,806,806,806,806,806,806,806,806,806,806,806,806,806,806,806,806,806,806,806,806,806,806,806,806,806,806,806,815,839,931,1044,1068,1089,1101,1107,1115,1119,1124,1130,1133,1134,1134,1134,1134,1132,1126,1125],"ymouse":[523,523,523,523,523,523,523,523,523,523,523,523,523,523,523,523,523,523,523,523,523,523,523,523,523,523,523,523,523,523,523,523,523,523,523,523,523,523,520,511,472,352,309,270,244,230,203,185,173,158,145,134,133,131,127,119,101,97],"timestamp_mouse":[16,36,57,76,96,116,136,156,176,196,216,236,256,276,296,316,336,356,376,396,416,435,456,476,496,517,536,556,576,597,615,636,656,675,697,716,736,756,776,795,817,836,855,876,896,917,936,956,976,996,1016,1036,1056,1076,1097,1115,1136,1157],"xSR":741.5,"ySR":469.95,"xT1":424.9,"yT1":0,"xT2":1058.1,"yT2":0,"toosoon":0,"cond_shown":"equaldotanddens","ratio_trial":900,"smaller_num":"18","larger_num":"20","correct_side":2,"subjID":"gabrielagranadosbustos19","gender":"1","age":"11","school":"6"},{"start_time":1551794881709,"click_time":1551794882758,"finger_time":1551794882558,"fix_duration":250,"trial":20,"RT":849,"MT":200,"sideResp":2,"stimulus":"img/750/equaldotsize/R/2_Ratio_750_L_6_R_8.png","xmouse":[786,786,786,786,786,786,786,786,786,786,786,786,786,786,786,786,786,786,786,786,786,786,786,786,786,786,786,786,786,786,786,786,786,786,786,786,786,786,786,786,786,792,872,930,993,1044,1076,1098,1101,1101,1105,1106,1110],"ymouse":[526,526,526,526,526,526,526,526,526,526,526,526,526,526,526,526,526,526,526,526,526,526,526,526,526,526,526,526,526,526,526,526,526,526,526,526,526,526,526,526,524,516,418,351,281,224,180,140,130,123,112,101,72],"timestamp_mouse":[9,34,49,68,90,109,129,149,170,188,210,229,249,269,289,310,330,349,370,389,408,429,449,468,488,510,528,549,569,589,610,629,649,669,689,709,729,749,768,790,809,829,849,870,889,908,929,949,970,988,1009,1029,1049],"xSR":741.5,"ySR":469.95,"xT1":424.9,"yT1":0,"xT2":1058.1,"yT2":0,"toosoon":0,"cond_shown":"equaldotsize","ratio_trial":750,"smaller_num":"6","larger_num":"8","correct_side":2,"subjID":"gabrielagranadosbustos19","gender":"1","age":"11","school":"6"},{"start_time":1551794883750,"click_time":1551794885319,"finger_time":1551794884959,"fix_duration":250,"trial":21,"RT":1209,"MT":360,"sideResp":1,"stimulus":"img/500/randomdotsizeEA/L/8_Ratio_500_L_8_R_4.png","xmouse":[797,797,797,797,797,797,797,797,797,797,797,797,797,797,797,797,797,797,797,797,797,797,797,797,797,797,797,797,797,797,797,797,797,797,797,797,797,797,797,797,797,797,797,797,797,797,797,797,797,797,797,797,797,797,797,797,796,791,786,782,774,767,759,739,720,687,672,668,661,654,637,629,620,610,598,585,559,543,523],"ymouse":[524,524,524,524,524,524,524,524,524,524,524,524,524,524,524,524,524,524,524,524,524,524,524,524,524,524,524,524,524,524,524,524,524,524,524,524,524,524,524,524,524,524,524,524,524,524,524,524,524,524,524,524,524,524,524,524,518,497,485,475,458,445,423,385,349,295,270,263,250,240,209,194,179,165,150,131,96,80,66],"timestamp_mouse":[8,29,55,68,88,108,129,148,167,187,208,228,248,268,288,309,329,348,369,388,408,429,448,467,489,509,528,548,569,588,607,629,649,668,688,708,728,747,769,787,809,827,849,868,888,907,928,948,968,987,1008,1027,1048,1068,1088,1108,1128,1149,1168,1188,1209,1228,1248,1269,1287,1309,1328,1348,1369,1387,1409,1428,1448,1468,1488,1508,1528,1548,1569],"xSR":741.5,"ySR":469.95,"xT1":424.9,"yT1":0,"xT2":1058.1,"yT2":0,"toosoon":0,"cond_shown":"randomdotsizeEA","ratio_trial":500,"smaller_num":"4","larger_num":"8","correct_side":1,"subjID":"gabrielagranadosbustos19","gender":"1","age":"11","school":"6"},{"start_time":1551794887341,"click_time":1551794888438,"finger_time":1551794888158,"fix_duration":1462.1109339743168,"trial":22,"RT":817,"MT":280,"sideResp":1,"stimulus":"img/900/randomdotsizeEA/L/1_Ratio_900_L_10_R_9.png","xmouse":[804,804,804,804,804,804,804,804,804,804,804,804,804,804,804,804,804,804,804,804,804,804,804,804,804,804,804,804,804,804,804,804,804,804,804,804,804,804,793,764,713,580,519,478,455,453,452,450,448,444,437,427,425,425,428],"ymouse":[522,522,522,522,522,522,522,522,522,522,522,522,522,522,522,522,522,522,522,522,522,522,522,522,522,522,522,522,522,522,522,522,522,522,522,522,522,521,507,477,437,344,309,283,269,264,255,251,245,236,221,172,142,118,98],"timestamp_mouse":[19,42,58,77,96,117,136,158,178,198,218,237,258,278,298,317,337,358,376,398,418,437,457,478,498,517,537,556,577,598,617,637,658,677,697,717,736,758,777,797,817,837,857,878,897,918,936,957,977,997,1017,1036,1058,1077,1097],"xSR":741.5,"ySR":469.95,"xT1":424.9,"yT1":0,"xT2":1058.1,"yT2":0,"toosoon":0,"cond_shown":"randomdotsizeEA","ratio_trial":900,"smaller_num":"9","larger_num":"10","correct_side":1,"subjID":"gabrielagranadosbustos19","gender":"1","age":"11","school":"6"},{"start_time":1551794889529,"click_time":1551794891218,"finger_time":1551794890238,"fix_duration":250,"trial":23,"RT":709,"MT":980,"sideResp":1,"stimulus":"img/900/equaldotsize/L/2_Ratio_900_L_20_R_18.png","xmouse":[783,783,783,783,783,783,783,783,783,783,783,783,783,783,783,783,783,783,783,783,783,783,783,783,784,784,784,784,784,784,786,791,815,827,841,860,887,938,943,943,943,943,945,945,945,940,936,910,870,812,739,668,491,398,320,251,239,238,238,238,240,243,246,246,246,246,246,246,246,246,339,401,530,564,579,580,582,583,584,584,584,583,561,537,498],"ymouse":[519,519,519,519,519,519,519,519,519,519,519,519,519,519,519,519,519,519,519,519,519,519,519,519,519,519,519,519,519,519,519,517,499,490,476,443,402,340,335,333,333,332,324,316,302,285,280,273,273,273,273,260,189,138,92,52,42,41,38,34,29,20,3,3,3,3,3,3,3,3,52,91,144,152,153,153,151,144,143,142,140,137,113,99,87],"timestamp_mouse":[8,33,49,69,89,108,129,150,168,189,210,230,249,269,288,310,329,349,369,389,410,429,449,469,490,509,529,548,569,590,609,629,649,670,690,709,730,749,769,789,809,828,849,869,889,910,930,949,969,989,1009,1030,1049,1069,1089,1109,1129,1149,1169,1189,1210,1229,1250,1269,1290,1310,1330,1349,1368,1388,1408,1430,1449,1469,1489,1509,1529,1549,1569,1589,1609,1629,1648,1669,1689],"xSR":741.5,"ySR":469.95,"xT1":424.9,"yT1":0,"xT2":1058.1,"yT2":0,"toosoon":0,"cond_shown":"equaldotsize","ratio_trial":900,"smaller_num":"18","larger_num":"20","correct_side":1,"subjID":"gabrielagranadosbustos19","gender":"1","age":"11","school":"6"},{"start_time":1551794892665,"click_time":1551794893419,"finger_time":1551794893279,"fix_duration":764.1596437834376,"trial":24,"RT":614,"MT":140,"sideResp":2,"stimulus":"img/750/equaldotanddens/R/12_Ratio_750_L_3_R_4.png","xmouse":[776,777,777,777,777,777,778,778,778,778,778,778,778,778,778,778,778,778,778,778,778,778,778,778,778,778,778,778,778,778,816,878,955,1025,1068,1082,1083,1085],"ymouse":[492,492,494,495,496,497,497,497,497,497,497,497,497,497,497,497,497,497,497,497,497,497,497,497,497,497,497,497,497,498,466,398,305,217,154,119,107,92],"timestamp_mouse":[13,34,52,74,93,113,133,153,172,193,213,234,253,274,293,314,334,353,374,393,414,433,453,473,493,513,533,553,573,593,614,633,653,673,693,715,732,754],"xSR":741.5,"ySR":469.95,"xT1":424.9,"yT1":0,"xT2":1058.1,"yT2":0,"toosoon":0,"cond_shown":"equaldotanddens","ratio_trial":750,"smaller_num":"3","larger_num":"4","correct_side":2,"subjID":"gabrielagranadosbustos19","gender":"1","age":"11","school":"6"},{"start_time":1551794898451,"click_time":1551794899298,"finger_time":1551794899098,"fix_duration":250,"trial":25,"RT":647,"MT":200,"sideResp":2,"stimulus":"img/900/equaldotanddens/R/15_Ratio_900_L_9_R_10.png","xmouse":[794,794,794,794,794,794,794,794,794,794,794,794,794,794,794,794,794,794,794,794,794,794,794,794,794,794,794,794,794,794,795,804,869,929,981,1017,1032,1040,1043,1046,1049,1057,1079],"ymouse":[522,522,522,522,522,522,522,522,522,522,522,522,522,522,522,522,522,522,522,522,522,522,522,522,522,522,522,522,522,522,523,515,448,381,315,256,221,176,161,150,139,123,84],"timestamp_mouse":[8,27,48,67,87,108,127,148,167,188,208,227,246,268,288,306,328,348,366,386,407,426,447,467,488,507,531,548,567,587,607,628,647,668,686,707,728,747,766,787,807,826,847],"xSR":741.5,"ySR":469.95,"xT1":424.9,"yT1":0,"xT2":1058.1,"yT2":0,"toosoon":0,"cond_shown":"equaldotanddens","ratio_trial":900,"smaller_num":"9","larger_num":"10","correct_side":2,"subjID":"gabrielagranadosbustos19","gender":"1","age":"11","school":"6"},{"start_time":1551794900840,"click_time":1551794902117,"finger_time":1551794901598,"fix_duration":379.9884651461987,"trial":26,"RT":758,"MT":519,"sideResp":1,"stimulus":"img/250/equaldotsize/L/3_Ratio_250_L_8_R_2.png","xmouse":[800,800,800,800,800,800,800,800,800,800,800,800,800,800,800,800,800,800,800,800,800,800,800,800,800,800,800,800,800,800,800,800,800,799,794,786,773,755,708,689,675,665,654,640,633,620,609,583,572,565,551,535,510,499,489,488,487,486,486,486,486,486,486,487],"ymouse":[521,521,521,521,521,521,521,521,521,521,521,521,521,521,521,521,521,521,521,521,521,521,521,521,521,521,521,521,521,521,521,521,521,521,514,501,482,459,397,365,341,324,308,281,267,239,222,191,179,170,159,148,130,122,115,113,113,111,109,107,107,106,103,99],"timestamp_mouse":[24,42,57,79,99,117,138,158,179,199,217,238,259,277,299,319,339,359,379,397,418,439,458,477,499,518,538,558,579,599,618,638,658,678,699,717,738,758,778,798,817,839,858,878,898,919,937,958,977,997,1018,1038,1059,1078,1099,1117,1138,1159,1177,1198,1219,1239,1259,1277],"xSR":741.5,"ySR":469.95,"xT1":424.9,"yT1":0,"xT2":1058.1,"yT2":0,"toosoon":0,"cond_shown":"equaldotsize","ratio_trial":250,"smaller_num":"2","larger_num":"8","correct_side":1,"subjID":"gabrielagranadosbustos19","gender":"1","age":"11","school":"6"},{"start_time":1551794905273,"click_time":1551794907418,"finger_time":1551794907039,"fix_duration":592.8609006533826,"trial":27,"RT":1766,"MT":379,"sideResp":2,"stimulus":"img/500/randomdotsizeEA/R/9_Ratio_500_L_2_R_4.png","xmouse":[798,798,798,798,798,798,798,798,798,798,798,798,798,798,798,798,798,798,798,798,798,798,798,798,798,798,798,798,798,798,798,798,798,798,798,798,798,798,798,798,798,798,798,798,798,798,798,798,798,798,798,798,798,798,798,798,798,798,798,798,798,798,798,798,798,798,798,798,798,798,798,798,798,798,798,798,798,798,798,798,798,798,798,798,798,798,798,812,849,890,939,1003,1049,1062,1068,1070,1071,1072,1074,1075,1079,1081,1083,1084,1086,1089,1093,1100],"ymouse":[488,488,488,488,488,488,488,488,488,488,488,488,488,488,488,488,488,488,488,488,488,488,488,488,488,488,488,488,488,488,488,488,488,488,488,488,488,488,488,488,488,488,488,488,488,488,488,488,488,488,488,488,488,488,488,488,488,488,488,488,488,488,488,488,488,488,488,488,488,488,488,488,488,488,488,488,488,488,488,488,488,488,488,488,488,488,487,472,452,424,400,372,351,344,338,334,329,322,316,306,282,239,183,162,144,128,110,87],"timestamp_mouse":[9,26,45,65,85,105,125,145,164,185,206,225,246,264,286,306,325,345,366,385,406,426,445,464,486,504,526,546,566,585,604,625,645,666,686,704,725,744,765,786,806,826,845,865,885,906,924,945,965,985,1005,1026,1044,1066,1085,1105,1125,1145,1166,1184,1205,1225,1244,1266,1285,1305,1324,1345,1366,1384,1405,1426,1445,1464,1486,1505,1524,1546,1566,1586,1604,1625,1645,1666,1686,1704,1725,1745,1766,1786,1804,1825,1845,1865,1884,1905,1925,1945,1966,1985,2004,2026,2045,2064,2085,2106,2125,2145],"xSR":741.5,"ySR":469.95,"xT1":424.9,"yT1":0,"xT2":1058.1,"yT2":0,"toosoon":0,"cond_shown":"randomdotsizeEA","ratio_trial":500,"smaller_num":"2","larger_num":"4","correct_side":2,"subjID":"gabrielagranadosbustos19","gender":"1","age":"11","school":"6"},{"start_time":1551794909701,"click_time":1551794910898,"finger_time":1551794910419,"fix_duration":1462.6943723214306,"trial":28,"RT":718,"MT":479,"sideResp":2,"stimulus":"img/750/equaldotsize/R/12_Ratio_750_L_3_R_4.png","xmouse":[806,806,806,806,806,806,806,806,806,806,806,806,806,806,806,806,806,806,806,806,806,806,806,806,806,806,806,806,806,806,806,806,806,806,811,882,922,962,975,988,1007,1025,1026,1026,1026,1026,1026,1026,1026,1026,1032,1035,1036,1037,1037,1039,1041,1049,1056,1063],"ymouse":[494,494,494,494,494,494,494,494,494,494,494,494,494,494,494,494,494,494,494,494,494,494,494,494,494,494,494,494,494,494,494,494,494,491,485,427,395,360,344,322,289,237,228,226,226,226,226,224,219,210,174,160,153,150,148,138,129,109,94,81],"timestamp_mouse":[18,37,57,78,97,117,137,158,177,197,218,238,257,277,298,317,337,357,377,398,418,437,458,477,497,517,537,557,578,598,616,638,658,677,697,718,737,769,776,796,817,836,857,877,897,918,938,956,977,996,1017,1037,1057,1078,1098,1118,1137,1156,1178,1197],"xSR":741.5,"ySR":469.95,"xT1":424.9,"yT1":0,"xT2":1058.1,"yT2":0,"toosoon":0,"cond_shown":"equaldotsize","ratio_trial":750,"smaller_num":"3","larger_num":"4","correct_side":2,"subjID":"gabrielagranadosbustos19","gender":"1","age":"11","school":"6"},{"start_time":1551794911949,"click_time":1551794912819,"finger_time":1551794912578,"fix_duration":250,"trial":29,"RT":629,"MT":241,"sideResp":2,"stimulus":"img/750/equaldotsize/R/11_Ratio_750_L_12_R_16.png","xmouse":[775,775,775,775,775,775,775,775,775,775,775,775,775,775,775,775,775,775,775,775,775,775,775,775,775,775,775,775,775,775,795,838,912,983,1072,1088,1091,1092,1096,1110,1118,1123,1124,1124],"ymouse":[536,536,536,536,536,536,536,536,536,536,536,536,536,536,536,536,536,536,536,536,536,536,536,536,536,536,536,536,536,536,504,442,358,273,180,159,155,153,148,129,117,107,102,98],"timestamp_mouse":[9,36,48,69,88,109,130,149,169,190,209,229,250,269,290,310,329,349,370,389,409,430,449,469,489,508,529,550,568,590,610,629,650,669,689,709,729,750,768,789,809,829,848,870],"xSR":741.5,"ySR":469.95,"xT1":424.9,"yT1":0,"xT2":1058.1,"yT2":0,"toosoon":0,"cond_shown":"equaldotsize","ratio_trial":750,"smaller_num":"12","larger_num":"16","correct_side":2,"subjID":"gabrielagranadosbustos19","gender":"1","age":"11","school":"6"},{"start_time":1551794914391,"click_time":1551794915418,"finger_time":1551794915077,"fix_duration":772.1059586688112,"trial":30,"RT":686,"MT":341,"sideResp":1,"stimulus":"img/500/equaldotsize/L/7_Ratio_500_L_10_R_5.png","xmouse":[773,773,773,773,773,773,773,773,773,773,773,773,773,773,773,773,773,773,773,773,773,773,773,773,773,773,773,773,773,773,773,773,773,766,756,742,722,669,645,627,612,596,564,555,550,546,541,532,529,527,524,516],"ymouse":[516,516,516,516,516,516,516,516,516,516,516,516,516,516,516,516,516,516,516,516,516,516,516,516,516,516,516,516,516,516,516,516,499,481,464,450,435,395,375,353,330,303,245,227,210,191,168,135,125,117,108,93],"timestamp_mouse":[22,27,47,68,87,107,126,146,167,188,207,227,247,267,287,307,327,348,368,386,408,427,448,467,487,507,527,547,567,586,608,626,647,668,686,708,726,748,768,787,807,827,847,867,887,906,926,948,968,987,1007,1027],"xSR":741.5,"ySR":469.95,"xT1":424.9,"yT1":0,"xT2":1058.1,"yT2":0,"toosoon":0,"cond_shown":"equaldotsize","ratio_trial":500,"smaller_num":"5","larger_num":"10","correct_side":1,"subjID":"gabrielagranadosbustos19","gender":"1","age":"11","school":"6"},{"start_time":1551794917517,"click_time":1551794918398,"finger_time":1551794918318,"fix_duration":978.7856602473775,"trial":31,"RT":801,"MT":80,"sideResp":1,"stimulus":"img/900/randomdotsizeEA/L/4_Ratio_900_L_20_R_18.png","xmouse":[786,786,786,786,786,786,786,786,786,786,786,786,786,786,786,786,786,786,786,786,786,786,786,786,786,786,786,786,786,786,786,786,786,786,786,786,786,786,782,770,725,582,518,478,452],"ymouse":[520,520,520,520,520,520,520,520,520,520,520,520,520,520,520,520,520,520,520,520,520,520,520,520,520,520,520,520,520,520,520,520,520,520,520,520,520,520,518,500,433,251,176,119,75],"timestamp_mouse":[8,36,41,60,81,101,122,141,162,180,202,221,241,261,282,300,321,340,362,380,402,421,442,461,482,500,522,541,562,580,602,620,642,661,680,701,721,741,761,781,801,822,841,861,881],"xSR":741.5,"ySR":469.95,"xT1":424.9,"yT1":0,"xT2":1058.1,"yT2":0,"toosoon":0,"cond_shown":"randomdotsizeEA","ratio_trial":900,"smaller_num":"18","larger_num":"20","correct_side":1,"subjID":"gabrielagranadosbustos19","gender":"1","age":"11","school":"6"},{"start_time":1551794920100,"click_time":1551794921138,"finger_time":1551794920778,"fix_duration":799.6944799373686,"trial":32,"RT":678,"MT":360,"sideResp":2,"stimulus":"img/900/equaldotanddens/L/4_Ratio_900_L_20_R_18.png","xmouse":[763,763,763,763,763,763,763,763,763,763,763,763,763,763,763,763,763,763,763,763,763,763,763,763,763,763,763,763,763,763,763,763,773,836,890,945,1000,1057,1066,1073,1083,1102,1158,1194,1201,1201,1202,1200,1189,1177,1164,1152],"ymouse":[504,504,504,504,504,504,504,504,504,504,504,504,504,504,504,504,504,504,504,504,504,504,504,504,504,504,504,504,504,504,504,504,499,453,416,376,339,304,297,289,275,253,198,165,153,146,142,132,119,104,92,81],"timestamp_mouse":[18,40,58,78,98,119,138,159,179,199,219,239,257,279,298,318,338,358,378,397,418,438,458,479,498,518,539,558,579,598,619,638,659,678,698,719,738,758,778,797,817,838,858,878,897,918,938,958,978,998,1017,1038],"xSR":741.5,"ySR":469.95,"xT1":424.9,"yT1":0,"xT2":1058.1,"yT2":0,"toosoon":0,"cond_shown":"equaldotanddens","ratio_trial":900,"smaller_num":"18","larger_num":"20","correct_side":1,"subjID":"gabrielagranadosbustos19","gender":"1","age":"11","school":"6"},{"start_time":1551794922208,"click_time":1551794923679,"finger_time":1551794923318,"fix_duration":349.51652551828926,"trial":33,"RT":1110,"MT":361,"sideResp":2,"stimulus":"img/250/equaldotsize/R/8_Ratio_250_L_1_R_4.png","xmouse":[781,781,781,781,781,781,781,781,781,781,781,781,781,781,781,781,781,781,781,781,781,781,781,781,781,781,781,781,781,781,781,781,781,781,781,781,781,781,781,781,781,781,781,781,781,781,781,781,781,781,781,781,781,785,801,844,908,1031,1042,1045,1046,1047,1049,1052,1057,1062,1067,1075,1079,1081,1083,1085,1087,1087],"ymouse":[525,525,525,525,525,525,525,525,525,525,525,525,525,525,525,525,525,525,525,525,525,525,525,525,525,525,525,525,525,525,525,525,525,525,525,525,525,525,525,525,525,525,525,525,525,525,525,525,525,525,525,525,525,524,512,474,425,317,302,296,286,274,247,230,212,193,179,153,139,129,120,114,102,98],"timestamp_mouse":[12,34,50,70,90,110,130,149,170,189,210,230,251,270,289,310,331,350,370,389,411,429,450,470,490,510,530,550,570,591,609,629,650,670,690,710,730,750,770,790,811,830,850,870,891,910,930,949,971,990,1010,1030,1051,1070,1090,1110,1130,1150,1170,1191,1211,1230,1250,1271,1290,1309,1331,1350,1370,1390,1410,1429,1451,1471],"xSR":741.5,"ySR":469.95,"xT1":424.9,"yT1":0,"xT2":1058.1,"yT2":0,"toosoon":0,"cond_shown":"equaldotsize","ratio_trial":250,"smaller_num":"1","larger_num":"4","correct_side":2,"subjID":"gabrielagranadosbustos19","gender":"1","age":"11","school":"6"},{"start_time":1551794925483,"click_time":1551794926459,"finger_time":1551794926119,"fix_duration":983.2382938431797,"trial":34,"RT":636,"MT":340,"sideResp":2,"stimulus":"img/750/equaldotanddens/R/3_Ratio_750_L_15_R_20.png","xmouse":[807,807,807,807,807,807,807,807,807,807,807,807,807,807,807,807,807,807,807,807,807,807,807,807,807,807,807,807,807,808,820,870,900,942,979,992,1005,1018,1038,1042,1045,1047,1049,1050,1052,1052,1054,1056,1060],"ymouse":[523,523,523,523,523,523,523,523,523,523,523,523,523,523,523,523,523,523,523,523,523,523,523,523,523,523,523,523,523,521,506,435,391,352,305,283,261,238,207,197,187,169,158,152,137,125,111,101,86],"timestamp_mouse":[15,39,56,75,94,115,135,154,174,196,216,235,256,275,295,315,335,355,375,396,415,436,455,474,494,516,534,556,575,595,615,636,654,676,695,716,735,756,775,795,815,834,855,876,895,915,935,954,976],"xSR":741.5,"ySR":469.95,"xT1":424.9,"yT1":0,"xT2":1058.1,"yT2":0,"toosoon":0,"cond_shown":"equaldotanddens","ratio_trial":750,"smaller_num":"15","larger_num":"20","correct_side":2,"subjID":"gabrielagranadosbustos19","gender":"1","age":"11","school":"6"},{"start_time":1551794927881,"click_time":1551794928818,"finger_time":1551794928478,"fix_duration":721.3180489698539,"trial":35,"RT":597,"MT":340,"sideResp":2,"stimulus":"img/750/equaldotanddens/R/12_Ratio_750_L_3_R_4.png","xmouse":[802,802,802,802,802,802,802,802,802,802,802,802,802,802,802,802,802,802,802,802,802,802,802,802,802,802,808,812,829,912,1026,1093,1138,1158,1168,1170,1172,1176,1183,1195,1198,1198,1198,1198,1185,1165,1140],"ymouse":[496,496,496,496,496,496,496,496,496,496,496,496,496,496,496,496,496,496,496,496,496,496,496,496,496,497,497,496,487,424,323,246,180,148,124,119,113,105,90,47,28,21,20,19,19,19,19],"timestamp_mouse":[21,40,58,77,97,117,137,157,177,197,218,238,258,276,297,318,337,357,378,397,418,438,457,476,497,518,536,557,578,597,617,637,658,677,696,716,736,756,777,798,818,837,857,878,897,916,937],"xSR":741.5,"ySR":469.95,"xT1":424.9,"yT1":0,"xT2":1058.1,"yT2":0,"toosoon":0,"cond_shown":"equaldotanddens","ratio_trial":750,"smaller_num":"3","larger_num":"4","correct_side":2,"subjID":"gabrielagranadosbustos19","gender":"1","age":"11","school":"6"},{"start_time":1551794929977,"click_time":1551794931077,"finger_time":1551794930799,"fix_duration":298.2387418383569,"trial":36,"RT":822,"MT":278,"sideResp":1,"stimulus":"img/750/randomdotsizeEA/R/2_Ratio_750_L_6_R_8.png","xmouse":[782,782,782,782,782,782,782,782,782,782,782,782,782,782,782,782,782,782,782,782,782,782,782,782,782,782,782,782,782,782,782,782,782,782,782,782,782,782,782,782,781,772,761,752,749,748,748,748,748,745,700,663,628,597,560,516],"ymouse":[504,504,504,504,504,504,504,504,504,504,504,504,504,504,504,504,504,504,504,504,504,504,504,504,504,504,504,504,504,504,504,504,504,504,504,504,504,504,504,504,502,466,434,416,412,410,410,410,409,402,332,279,230,186,136,73],"timestamp_mouse":[9,34,42,61,81,101,121,142,161,182,202,221,241,261,281,301,320,341,361,382,400,422,441,460,482,502,521,541,562,580,601,620,641,661,680,701,722,741,761,781,800,822,842,861,880,902,922,942,961,982,1000,1021,1041,1061,1081,1100],"xSR":741.5,"ySR":469.95,"xT1":424.9,"yT1":0,"xT2":1058.1,"yT2":0,"toosoon":0,"cond_shown":"randomdotsizeEA","ratio_trial":750,"smaller_num":"6","larger_num":"8","correct_side":2,"subjID":"gabrielagranadosbustos19","gender":"1","age":"11","school":"6"},{"start_time":1551794939772,"click_time":1551794940797,"finger_time":1551794940439,"fix_duration":1293.9645482762264,"trial":37,"RT":667,"MT":358,"sideResp":1,"stimulus":"img/250/equaldotanddens/L/2_Ratio_250_L_16_R_4.png","xmouse":[779,782,782,782,783,783,783,783,783,783,783,783,783,783,783,783,783,783,783,783,783,783,783,783,783,783,783,783,783,783,783,774,756,727,687,637,556,532,516,503,494,476,470,461,454,448,444,444,444,444,443,442],"ymouse":[516,518,518,518,518,518,518,518,518,518,518,518,518,518,518,518,518,518,518,518,518,518,518,518,518,518,518,518,518,518,518,507,493,472,448,421,364,344,326,305,277,213,195,178,165,153,140,138,133,125,115,99],"timestamp_mouse":[7,38,47,67,87,106,126,147,167,186,206,225,247,267,287,307,327,345,366,386,407,427,446,467,486,505,526,547,566,586,606,625,646,667,686,707,726,747,766,785,806,826,847,865,886,907,926,945,966,986,1007,1025],"xSR":741.5,"ySR":469.95,"xT1":424.9,"yT1":0,"xT2":1058.1,"yT2":0,"toosoon":0,"cond_shown":"equaldotanddens","ratio_trial":250,"smaller_num":"4","larger_num":"16","correct_side":1,"subjID":"gabrielagranadosbustos19","gender":"1","age":"11","school":"6"},{"start_time":1551794942029,"click_time":1551794942919,"finger_time":1551794942658,"fix_duration":250,"trial":38,"RT":629,"MT":261,"sideResp":2,"stimulus":"img/250/equaldotsize/R/4_Ratio_250_L_3_R_12.png","xmouse":[788,788,788,788,788,788,788,788,788,788,788,788,788,788,788,788,788,788,788,788,788,788,788,788,788,788,788,788,788,795,830,886,948,1033,1050,1057,1060,1062,1068,1072,1075,1078,1079,1080,1080],"ymouse":[522,522,522,522,522,522,522,522,522,522,522,522,522,522,522,522,522,522,522,522,522,522,522,522,522,522,522,522,522,518,483,424,358,263,239,221,208,197,175,158,143,129,119,100,91],"timestamp_mouse":[8,38,50,69,90,110,130,150,168,190,208,230,249,270,289,309,330,350,368,389,408,428,449,469,489,510,529,549,569,588,609,629,648,669,688,709,728,749,769,788,810,830,850,869,890],"xSR":741.5,"ySR":469.95,"xT1":424.9,"yT1":0,"xT2":1058.1,"yT2":0,"toosoon":0,"cond_shown":"equaldotsize","ratio_trial":250,"smaller_num":"3","larger_num":"12","correct_side":2,"subjID":"gabrielagranadosbustos19","gender":"1","age":"11","school":"6"},{"start_time":1551794944236,"click_time":1551794945258,"finger_time":1551794944938,"fix_duration":437.0226021043233,"trial":39,"RT":702,"MT":320,"sideResp":2,"stimulus":"img/750/equaldotsize/R/12_Ratio_750_L_3_R_4.png","xmouse":[777,777,777,777,777,777,777,777,777,777,777,777,777,777,777,777,777,777,777,777,777,777,777,777,777,777,777,777,777,777,777,777,777,777,796,860,937,1034,1124,1201,1203,1203,1198,1184,1180,1174,1171,1168,1167,1167,1164,1158],"ymouse":[520,520,520,520,520,520,520,520,520,520,520,520,520,520,520,520,520,520,520,520,520,520,520,520,520,520,520,520,520,520,520,520,520,520,509,474,431,368,300,201,175,151,127,87,73,56,50,46,43,43,43,43],"timestamp_mouse":[10,35,42,63,81,103,122,142,162,182,203,221,242,263,283,302,323,342,363,382,402,422,442,462,482,503,521,543,562,582,602,622,642,663,681,702,722,743,763,782,802,821,843,863,882,903,921,942,961,982,1002,1022],"xSR":741.5,"ySR":469.95,"xT1":424.9,"yT1":0,"xT2":1058.1,"yT2":0,"toosoon":0,"cond_shown":"equaldotsize","ratio_trial":750,"smaller_num":"3","larger_num":"4","correct_side":2,"subjID":"gabrielagranadosbustos19","gender":"1","age":"11","school":"6"},{"start_time":1551794946351,"click_time":1551794949218,"finger_time":1551794947759,"fix_duration":492.99360375721426,"trial":40,"RT":1408,"MT":1459,"sideResp":2,"stimulus":"img/900/randomdotsizeEA/R/7_Ratio_900_L_9_R_10.png","xmouse":[796,796,796,796,796,796,796,796,796,796,796,796,796,796,796,796,796,796,796,796,796,796,796,796,796,796,796,796,796,796,796,796,796,796,796,796,796,796,796,796,796,796,796,796,796,796,796,796,796,796,796,796,796,796,796,796,796,796,796,796,796,796,796,796,796,796,796,796,796,817,847,878,907,936,939,939,939,939,942,948,957,967,978,989,989,989,989,989,989,990,992,995,996,1004,1007,1010,1012,1014,1022,1026,1028,1030,1030,1030,1030,1030,1030,1030,1030,1030,1030,1030,1030,1030,1030,1030,1033,1040,1042,1042,1042,1042,1042,1042,1042,1042,1042,1042,1046,1048,1051,1054,1055,1055,1055,1055,1055,1055,1055,1055,1056,1057,1058,1059],"ymouse":[526,526,526,526,526,526,526,526,526,526,526,526,526,526,526,526,526,526,526,526,526,526,526,526,526,526,526,526,526,526,526,526,526,526,526,526,526,526,526,526,526,526,526,526,526,526,526,526,526,526,526,526,526,526,526,526,526,526,526,526,526,526,526,526,526,526,526,526,517,485,444,398,354,294,277,269,264,263,255,240,220,193,166,129,122,119,117,117,113,109,104,97,93,82,77,74,71,69,64,62,60,60,60,60,60,60,60,60,60,60,60,60,60,60,60,60,60,60,60,60,60,60,60,60,60,60,60,60,60,60,61,62,62,62,62,62,62,62,62,62,62,63,63,63],"timestamp_mouse":[8,35,47,67,87,108,127,147,167,187,208,227,247,267,287,307,327,346,368,387,407,427,446,468,486,508,527,548,567,586,606,628,648,668,688,708,727,748,767,787,807,828,848,866,888,907,927,947,966,988,1006,1028,1048,1067,1088,1108,1127,1147,1167,1187,1207,1227,1247,1267,1287,1308,1327,1347,1367,1387,1408,1427,1448,1467,1488,1506,1527,1548,1567,1587,1606,1628,1646,1668,1687,1707,1728,1748,1767,1786,1807,1827,1847,1867,1888,1907,1927,1948,1967,1988,2008,2027,2048,2066,2087,2106,2127,2147,2168,2187,2208,2227,2247,2267,2287,2307,2327,2347,2368,2388,2407,2428,2448,2467,2486,2507,2527,2547,2568,2587,2607,2627,2647,2667,2686,2708,2726,2748,2768,2787,2807,2826,2846,2867],"xSR":741.5,"ySR":469.95,"xT1":424.9,"yT1":0,"xT2":1058.1,"yT2":0,"toosoon":0,"cond_shown":"randomdotsizeEA","ratio_trial":900,"smaller_num":"9","larger_num":"10","correct_side":2,"subjID":"gabrielagranadosbustos19","gender":"1","age":"11","school":"6"},{"start_time":1551794951573,"click_time":1551794952878,"finger_time":1551794952198,"fix_duration":1373.4304826819505,"trial":41,"RT":625,"MT":680,"sideResp":2,"stimulus":"img/500/randomdotsizeEA/R/12_Ratio_500_L_1_R_2.png","xmouse":[786,786,786,786,786,786,786,786,786,786,786,786,786,786,786,786,786,786,786,786,786,786,786,786,786,786,787,788,791,799,832,922,1184,1246,1267,1272,1272,1272,1272,1271,1269,1267,1264,1240,1200,1113,1059,1011,1009,1009,1009,1011,1014,1014,1015,1015,1017,1023,1024,1024,1026,1031,1037,1046,1054,1059],"ymouse":[518,518,518,518,518,518,518,518,518,518,518,518,518,518,518,518,518,518,518,518,518,518,518,518,518,518,518,518,514,506,486,444,320,270,241,226,216,213,213,212,210,206,203,190,173,136,114,81,73,63,55,47,43,41,40,40,40,42,42,42,42,42,42,41,40,40],"timestamp_mouse":[9,24,44,65,84,104,124,144,164,184,205,224,245,264,284,305,325,345,365,384,405,425,444,464,484,505,524,544,564,584,604,625,644,663,684,704,724,744,764,787,804,825,845,864,884,904,924,944,964,984,1004,1024,1044,1064,1084,1106,1124,1145,1164,1184,1204,1224,1245,1265,1284,1305],"xSR":741.5,"ySR":469.95,"xT1":424.9,"yT1":0,"xT2":1058.1,"yT2":0,"toosoon":0,"cond_shown":"randomdotsizeEA","ratio_trial":500,"smaller_num":"1","larger_num":"2","correct_side":2,"subjID":"gabrielagranadosbustos19","gender":"1","age":"11","school":"6"},{"start_time":1551794955034,"click_time":1551794956718,"finger_time":1551794956298,"fix_duration":1455.9013142031358,"trial":42,"RT":1264,"MT":420,"sideResp":1,"stimulus":"img/250/randomdotsizeEA/L/15_Ratio_250_L_12_R_3.png","xmouse":[761,761,761,761,762,764,764,764,764,765,765,765,765,765,765,766,766,766,766,766,766,766,766,766,766,766,766,766,766,766,766,766,766,766,767,768,769,769,769,770,770,770,770,770,771,775,776,778,779,779,779,779,779,779,779,779,779,779,779,779,781,782,782,782,782,782,779,772,766,763,758,758,758,758,758,758,758,758,758,757,723,677,608,545,497],"ymouse":[513,513,513,513,513,513,513,513,513,513,513,513,513,513,513,513,513,513,513,513,513,513,513,513,513,513,513,513,513,513,513,513,513,513,513,513,513,513,513,513,513,513,513,513,513,512,512,511,510,510,510,510,510,510,510,510,510,510,510,510,508,503,492,469,437,328,279,238,204,182,162,157,155,153,150,143,141,141,141,140,132,117,91,59,30],"timestamp_mouse":[8,40,44,63,84,104,123,143,163,184,203,223,243,264,284,303,323,344,363,384,404,424,443,464,484,503,523,544,563,583,604,623,643,663,683,703,723,744,763,783,803,823,843,863,883,903,924,943,964,983,1003,1024,1044,1064,1083,1103,1123,1144,1163,1183,1203,1224,1244,1264,1283,1303,1324,1343,1363,1384,1403,1422,1443,1463,1484,1503,1523,1543,1563,1584,1604,1623,1643,1663,1684],"xSR":741.5,"ySR":469.95,"xT1":424.9,"yT1":0,"xT2":1058.1,"yT2":0,"toosoon":0,"cond_shown":"randomdotsizeEA","ratio_trial":250,"smaller_num":"3","larger_num":"12","correct_side":1,"subjID":"gabrielagranadosbustos19","gender":"1","age":"11","school":"6"},{"start_time":1551794958389,"click_time":1551794959577,"finger_time":1551794959017,"fix_duration":889.1827803154727,"trial":43,"RT":628,"MT":560,"sideResp":2,"stimulus":"img/900/equaldotsize/R/15_Ratio_900_L_9_R_10.png","xmouse":[770,770,770,770,770,770,770,770,770,770,770,770,770,770,770,770,770,770,770,770,770,770,770,770,770,770,770,770,770,792,827,852,879,886,890,896,900,909,919,933,950,979,1002,1012,1029,1048,1067,1097,1105,1111,1112,1114,1116,1117,1117,1118,1118,1118,1117,1117],"ymouse":[509,509,509,509,509,509,509,509,509,509,509,509,509,509,509,509,509,509,509,509,509,509,509,509,509,509,509,509,509,507,502,496,473,448,423,390,362,323,307,294,281,265,251,244,234,225,216,198,192,188,186,183,173,166,158,150,143,135,113,98],"timestamp_mouse":[8,35,48,69,88,108,129,148,168,188,208,229,248,268,289,307,329,349,369,388,408,428,448,469,488,508,529,548,569,589,609,628,648,667,688,708,729,749,767,788,809,828,848,868,889,908,928,949,967,988,1008,1028,1048,1068,1088,1108,1128,1148,1168,1188],"xSR":741.5,"ySR":469.95,"xT1":424.9,"yT1":0,"xT2":1058.1,"yT2":0,"toosoon":0,"cond_shown":"equaldotsize","ratio_trial":900,"smaller_num":"9","larger_num":"10","correct_side":2,"subjID":"gabrielagranadosbustos19","gender":"1","age":"11","school":"6"},{"start_time":1551794961290,"click_time":1551794962438,"finger_time":1551794961958,"fix_duration":1130.8383973843993,"trial":44,"RT":668,"MT":480,"sideResp":2,"stimulus":"img/500/equaldotsize/R/3_Ratio_500_L_10_R_20.png","xmouse":[787,787,787,787,787,787,787,787,787,787,787,787,787,787,787,787,787,787,787,787,787,787,787,787,787,787,787,787,787,787,787,791,807,813,818,823,827,835,860,877,900,921,938,961,966,974,979,985,996,1000,1004,1009,1016,1019,1026,1036,1056,1097],"ymouse":[497,497,497,497,497,497,497,497,497,497,497,497,497,497,497,497,497,497,497,497,497,497,497,497,497,497,497,497,497,497,497,497,475,451,402,373,343,321,286,271,257,245,229,196,186,172,165,155,139,129,120,110,96,91,82,77,69,59],"timestamp_mouse":[13,39,47,67,87,108,127,148,167,188,207,228,246,268,287,307,327,348,368,388,408,427,448,467,487,508,528,548,567,587,608,628,648,668,687,708,727,748,767,787,808,828,847,867,887,907,927,948,967,988,1008,1028,1049,1067,1087,1107,1127,1148],"xSR":741.5,"ySR":469.95,"xT1":424.9,"yT1":0,"xT2":1058.1,"yT2":0,"toosoon":0,"cond_shown":"equaldotsize","ratio_trial":500,"smaller_num":"10","larger_num":"20","correct_side":2,"subjID":"gabrielagranadosbustos19","gender":"1","age":"11","school":"6"},{"start_time":1551794964124,"click_time":1551794965117,"finger_time":1551794964718,"fix_duration":925.7214889584063,"trial":45,"RT":594,"MT":399,"sideResp":2,"stimulus":"img/250/equaldotsize/R/10_Ratio_250_L_4_R_16.png","xmouse":[781,781,781,781,781,781,781,781,781,781,781,781,781,781,781,781,781,781,781,781,781,781,784,793,799,800,804,808,821,849,886,945,971,986,1002,1014,1027,1030,1033,1034,1035,1036,1036,1036,1036,1036,1043,1048,1054,1065],"ymouse":[512,512,512,512,512,512,512,512,512,512,512,512,512,512,512,512,512,512,512,512,512,512,510,507,504,503,501,497,478,437,375,274,227,198,174,150,116,105,96,91,87,83,83,83,83,83,77,73,69,64],"timestamp_mouse":[14,35,53,73,94,113,133,153,173,194,213,233,253,274,293,313,334,353,373,393,413,433,454,474,494,514,533,554,573,594,613,633,653,673,693,714,734,752,773,794,814,833,853,873,892,914,933,954,973,993],"xSR":741.5,"ySR":469.95,"xT1":424.9,"yT1":0,"xT2":1058.1,"yT2":0,"toosoon":0,"cond_shown":"equaldotsize","ratio_trial":250,"smaller_num":"4","larger_num":"16","correct_side":2,"subjID":"gabrielagranadosbustos19","gender":"1","age":"11","school":"6"},{"start_time":1551794966390,"click_time":1551794967157,"finger_time":1551794966857,"fix_duration":551.4818451686566,"trial":46,"RT":467,"MT":300,"sideResp":2,"stimulus":"img/250/equaldotanddens/R/9_Ratio_250_L_3_R_12.png","xmouse":[800,800,800,800,800,800,800,800,800,800,800,800,800,800,800,800,800,800,800,800,800,807,818,905,968,1030,1075,1102,1115,1115,1118,1122,1129,1139,1143,1146,1146,1148,1151],"ymouse":[503,503,503,503,503,503,503,503,503,503,503,503,503,503,503,503,503,503,503,503,503,503,502,470,443,413,380,346,291,272,250,230,208,172,154,139,126,113,99],"timestamp_mouse":[8,35,47,67,87,108,127,147,167,188,207,227,247,267,287,308,328,347,367,387,407,427,448,467,488,507,527,548,567,588,607,628,647,667,687,708,728,747,767],"xSR":741.5,"ySR":469.95,"xT1":424.9,"yT1":0,"xT2":1058.1,"yT2":0,"toosoon":0,"cond_shown":"equaldotanddens","ratio_trial":250,"smaller_num":"3","larger_num":"12","correct_side":2,"subjID":"gabrielagranadosbustos19","gender":"1","age":"11","school":"6"},{"start_time":1551794968742,"click_time":1551794969617,"finger_time":1551794969277,"fix_duration":784.9149001456258,"trial":47,"RT":535,"MT":340,"sideResp":2,"stimulus":"img/500/equaldotsize/R/1_Ratio_500_L_9_R_18.png","xmouse":[788,788,788,788,788,788,788,788,788,788,788,788,788,788,788,788,788,788,788,788,788,788,792,796,807,832,847,879,889,933,982,997,1010,1021,1028,1039,1044,1050,1057,1067,1078,1082,1087,1090],"ymouse":[516,516,516,516,516,516,516,516,516,516,516,516,516,516,516,516,516,516,516,516,516,516,515,513,508,497,489,471,464,439,406,387,364,333,308,269,252,229,206,173,134,119,104,91],"timestamp_mouse":[15,35,55,76,95,115,135,155,175,195,215,235,256,276,295,315,336,356,376,395,415,435,455,475,495,515,535,555,576,596,616,635,656,674,695,715,735,755,775,795,816,835,855,875],"xSR":741.5,"ySR":469.95,"xT1":424.9,"yT1":0,"xT2":1058.1,"yT2":0,"toosoon":0,"cond_shown":"equaldotsize","ratio_trial":500,"smaller_num":"9","larger_num":"18","correct_side":2,"subjID":"gabrielagranadosbustos19","gender":"1","age":"11","school":"6"},{"start_time":1551794971298,"click_time":1551794972377,"finger_time":1551794971958,"fix_duration":939.4414693215615,"trial":48,"RT":660,"MT":419,"sideResp":1,"stimulus":"img/500/equaldotanddens/L/8_Ratio_500_L_8_R_4.png","xmouse":[803,803,803,803,803,803,803,803,803,803,803,803,803,803,803,803,803,803,803,803,803,803,803,803,803,803,803,803,803,803,803,798,790,701,629,545,465,393,356,350,351,367,376,390,405,406,406,406,410,414,419,420,420,423,434],"ymouse":[513,513,513,513,513,513,513,513,513,513,513,513,513,513,513,513,513,513,513,513,513,513,513,513,513,513,513,513,513,513,513,509,499,416,357,284,215,156,119,105,101,96,93,90,90,90,90,90,90,91,92,92,92,92,90],"timestamp_mouse":[1,19,43,59,79,100,119,140,159,181,200,219,239,260,279,300,319,339,360,380,399,420,439,459,479,499,520,540,559,579,599,619,639,660,680,700,719,739,760,779,799,820,840,860,879,900,919,939,960,979,999,1020,1039,1060,1079],"xSR":741.5,"ySR":469.95,"xT1":424.9,"yT1":0,"xT2":1058.1,"yT2":0,"toosoon":0,"cond_shown":"equaldotanddens","ratio_trial":500,"smaller_num":"4","larger_num":"8","correct_side":1,"subjID":"gabrielagranadosbustos19","gender":"1","age":"11","school":"6"},{"start_time":1551794979224,"click_time":1551794980179,"finger_time":1551794979818,"fix_duration":1426.8418970046077,"trial":49,"RT":594,"MT":361,"sideResp":2,"stimulus":"img/500/equaldotsize/R/3_Ratio_500_L_10_R_20.png","xmouse":[804,804,804,804,804,804,804,804,804,804,804,804,804,804,804,804,804,804,804,804,804,804,804,804,804,804,804,803,809,837,869,898,936,948,960,967,975,982,1001,1013,1028,1034,1047,1057,1069,1079,1085,1097],"ymouse":[493,493,493,493,493,493,493,493,493,493,493,493,493,493,493,493,493,493,493,493,493,493,493,493,493,493,493,493,486,454,417,380,326,308,292,283,272,261,237,223,205,197,177,161,145,127,112,83],"timestamp_mouse":[12,34,54,73,93,114,134,153,173,193,213,233,253,273,293,313,334,353,374,393,413,434,454,473,494,514,533,554,574,594,613,634,654,673,693,715,734,754,772,793,813,833,854,872,894,913,934,954],"xSR":741.5,"ySR":469.95,"xT1":424.9,"yT1":0,"xT2":1058.1,"yT2":0,"toosoon":0,"cond_shown":"equaldotsize","ratio_trial":500,"smaller_num":"10","larger_num":"20","correct_side":2,"subjID":"gabrielagranadosbustos19","gender":"1","age":"11","school":"6"},{"start_time":1551794981249,"click_time":1551794982197,"finger_time":1551794981797,"fix_duration":250,"trial":50,"RT":548,"MT":400,"sideResp":2,"stimulus":"img/900/equaldotsize/R/14_Ratio_900_L_18_R_20.png","xmouse":[804,804,804,804,804,804,804,804,804,804,804,804,804,804,804,804,804,804,804,804,804,804,804,804,804,818,830,936,984,1018,1043,1061,1082,1089,1094,1099,1106,1122,1127,1130,1134,1134,1138,1141,1144,1144,1144,1138],"ymouse":[546,546,546,546,546,546,546,546,546,546,546,546,546,546,546,546,546,546,546,546,546,546,546,546,546,544,543,517,497,472,445,419,379,362,348,337,325,300,288,272,252,233,197,174,155,132,107,80],"timestamp_mouse":[10,34,48,69,89,109,128,149,168,189,208,228,248,269,287,308,328,349,369,388,409,428,448,469,488,509,528,548,568,588,611,629,648,669,688,708,729,749,769,789,808,829,848,868,888,909,929,948],"xSR":741.5,"ySR":469.95,"xT1":424.9,"yT1":0,"xT2":1058.1,"yT2":0,"toosoon":0,"cond_shown":"equaldotsize","ratio_trial":900,"smaller_num":"18","larger_num":"20","correct_side":2,"subjID":"gabrielagranadosbustos19","gender":"1","age":"11","school":"6"},{"start_time":1551794983593,"click_time":1551794984477,"finger_time":1551794984157,"fix_duration":475.0120135162884,"trial":51,"RT":564,"MT":320,"sideResp":1,"stimulus":"img/250/equaldotanddens/L/14_Ratio_250_L_12_R_3.png","xmouse":[810,810,810,810,810,810,810,810,810,810,810,810,810,810,810,810,810,810,810,810,810,810,810,810,810,810,810,801,796,765,665,626,593,575,565,561,558,554,550,545,534,530,524,516,508],"ymouse":[493,493,493,493,493,493,493,493,493,493,493,493,493,493,493,493,493,493,493,493,493,493,493,493,493,493,493,475,461,413,289,254,228,213,203,194,188,180,170,161,138,126,114,100,87],"timestamp_mouse":[8,24,46,65,84,104,124,145,165,185,205,224,245,264,285,305,324,344,364,384,405,424,444,465,485,504,524,544,564,585,604,624,644,664,684,705,725,744,764,785,804,824,844,865,884],"xSR":741.5,"ySR":469.95,"xT1":424.9,"yT1":0,"xT2":1058.1,"yT2":0,"toosoon":0,"cond_shown":"equaldotanddens","ratio_trial":250,"smaller_num":"3","larger_num":"12","correct_side":1,"subjID":"gabrielagranadosbustos19","gender":"1","age":"11","school":"6"},{"start_time":1551794985561,"click_time":1551794986217,"finger_time":1551794986037,"fix_duration":422.60224490632424,"trial":52,"RT":476,"MT":180,"sideResp":2,"stimulus":"img/500/equaldotanddens/R/1_Ratio_500_L_9_R_18.png","xmouse":[827,827,827,827,827,827,827,827,827,827,827,827,827,827,827,827,827,827,827,827,827,827,829,850,885,918,949,1013,1043,1071,1098,1110,1128],"ymouse":[525,525,525,525,525,525,525,525,525,525,525,525,525,525,525,525,525,525,525,525,525,525,515,479,418,364,315,232,192,160,135,122,97],"timestamp_mouse":[16,42,56,77,96,117,136,157,176,196,216,236,255,277,296,316,336,356,376,396,417,436,456,476,496,516,537,556,576,597,616,636,656],"xSR":741.5,"ySR":469.95,"xT1":424.9,"yT1":0,"xT2":1058.1,"yT2":0,"toosoon":0,"cond_shown":"equaldotanddens","ratio_trial":500,"smaller_num":"9","larger_num":"18","correct_side":2,"subjID":"gabrielagranadosbustos19","gender":"1","age":"11","school":"6"},{"start_time":1551794987514,"click_time":1551794988538,"finger_time":1551794988117,"fix_duration":515.5655101058954,"trial":53,"RT":603,"MT":421,"sideResp":1,"stimulus":"img/250/equaldotanddens/L/15_Ratio_250_L_12_R_3.png","xmouse":[792,792,792,792,792,792,792,792,792,792,792,792,792,792,792,792,792,792,792,792,792,792,792,792,792,792,792,792,792,790,728,690,589,520,460,398,398,398,398,398,398,398,398,398,398,398,398,398,398,383,422,461],"ymouse":[493,493,493,493,493,493,493,493,493,493,493,493,493,493,493,493,493,493,493,493,493,493,493,493,493,493,493,493,493,494,451,424,321,228,134,20,20,20,20,20,20,20,20,20,20,20,20,20,20,12,55,80],"timestamp_mouse":[6,33,44,63,83,103,124,143,163,183,203,224,244,264,283,303,323,344,364,383,403,423,443,464,483,503,524,543,564,583,603,624,643,664,684,704,723,744,763,784,804,823,843,863,884,903,923,944,962,983,1003,1024],"xSR":741.5,"ySR":469.95,"xT1":424.9,"yT1":0,"xT2":1058.1,"yT2":0,"toosoon":0,"cond_shown":"equaldotanddens","ratio_trial":250,"smaller_num":"3","larger_num":"12","correct_side":1,"subjID":"gabrielagranadosbustos19","gender":"1","age":"11","school":"6"},{"start_time":1551794990059,"click_time":1551794990997,"finger_time":1551794990538,"fix_duration":559.5025871579709,"trial":54,"RT":479,"MT":459,"sideResp":2,"stimulus":"img/250/equaldotanddens/R/9_Ratio_250_L_3_R_12.png","xmouse":[770,770,770,770,770,770,770,770,770,770,770,770,770,770,770,770,770,770,770,770,770,771,783,801,819,834,846,884,905,929,952,972,1017,1032,1047,1058,1066,1074,1077,1079,1080,1081,1083,1083,1084,1085,1086],"ymouse":[503,503,503,503,503,503,503,503,503,503,503,503,503,503,503,503,503,503,503,503,503,502,488,468,439,404,377,335,322,308,296,281,236,218,201,186,179,166,161,156,154,151,137,128,119,108,98],"timestamp_mouse":[18,41,58,79,98,119,139,158,178,198,218,238,258,278,299,319,338,358,379,398,418,438,458,479,498,519,538,558,578,598,618,639,658,678,698,718,739,758,778,799,818,838,859,878,899,918,938],"xSR":741.5,"ySR":469.95,"xT1":424.9,"yT1":0,"xT2":1058.1,"yT2":0,"toosoon":0,"cond_shown":"equaldotanddens","ratio_trial":250,"smaller_num":"3","larger_num":"12","correct_side":2,"subjID":"gabrielagranadosbustos19","gender":"1","age":"11","school":"6"},{"start_time":1551794994701,"click_time":1551794996197,"finger_time":1551794995838,"fix_duration":1001.5692738562816,"trial":55,"RT":1137,"MT":359,"sideResp":2,"stimulus":"img/900/randomdotsizeEA/R/14_Ratio_900_L_18_R_20.png","xmouse":[808,808,808,808,808,808,808,808,808,807,807,807,807,807,807,807,807,807,807,807,807,807,807,807,807,807,807,807,807,807,807,807,807,807,807,807,807,807,807,807,807,807,807,807,810,816,819,821,822,824,826,826,827,827,829,832,842,851,869,883,906,1023,1083,1118,1133,1141,1142,1142,1142,1142,1142,1131,1123,1112,1100],"ymouse":[527,527,527,527,527,527,527,527,527,527,527,527,527,527,527,527,527,527,527,527,527,527,527,527,527,527,527,527,527,527,527,527,527,527,527,527,525,525,525,525,525,525,524,523,520,512,508,506,503,501,497,496,495,494,493,489,479,471,450,434,409,300,247,215,195,177,175,174,169,161,154,133,118,106,92],"timestamp_mouse":[32,35,56,76,96,116,137,157,177,197,217,236,256,277,297,317,336,355,376,397,416,436,457,476,497,517,536,556,576,596,616,636,656,677,697,717,736,756,776,796,816,836,856,877,896,916,936,956,977,996,1017,1037,1057,1077,1096,1116,1137,1157,1176,1196,1217,1237,1256,1277,1296,1318,1336,1356,1377,1396,1417,1436,1457,1476,1496],"xSR":741.5,"ySR":469.95,"xT1":424.9,"yT1":0,"xT2":1058.1,"yT2":0,"toosoon":0,"cond_shown":"randomdotsizeEA","ratio_trial":900,"smaller_num":"18","larger_num":"20","correct_side":2,"subjID":"gabrielagranadosbustos19","gender":"1","age":"11","school":"6"},{"start_time":1551794997269,"click_time":1551794998437,"finger_time":1551794997898,"fix_duration":250,"trial":56,"RT":629,"MT":539,"sideResp":2,"stimulus":"img/750/randomdotsizeEA/R/12_Ratio_750_L_3_R_4.png","xmouse":[813,813,813,813,813,813,813,813,813,813,813,813,813,813,813,813,813,813,813,813,813,813,813,813,813,813,813,813,815,817,823,839,866,931,955,975,988,1002,1043,1063,1073,1074,1072,1060,1057,1056,1054,1053,1053,1054,1054,1054,1056,1070,1075,1082,1085,1088,1098],"ymouse":[495,495,495,495,495,495,495,495,495,495,495,495,495,495,495,495,495,495,495,495,495,495,495,495,495,495,495,495,495,491,479,461,436,398,386,375,364,352,316,294,275,258,238,203,192,181,172,162,144,139,139,139,138,133,130,126,123,117,80],"timestamp_mouse":[9,35,48,69,88,109,129,149,168,188,208,228,248,269,288,309,328,348,368,389,409,428,449,468,488,508,528,549,568,588,609,629,649,668,688,708,728,749,768,789,808,828,848,868,888,908,928,948,968,989,1009,1028,1049,1069,1088,1109,1128,1148,1168],"xSR":741.5,"ySR":469.95,"xT1":424.9,"yT1":0,"xT2":1058.1,"yT2":0,"toosoon":0,"cond_shown":"randomdotsizeEA","ratio_trial":750,"smaller_num":"3","larger_num":"4","correct_side":2,"subjID":"gabrielagranadosbustos19","gender":"1","age":"11","school":"6"},{"start_time":1551794999445,"click_time":1551795000517,"finger_time":1551794999997,"fix_duration":306.60591827502026,"trial":57,"RT":552,"MT":520,"sideResp":2,"stimulus":"img/900/equaldotsize/R/7_Ratio_900_L_9_R_10.png","xmouse":[786,786,786,786,786,786,786,786,786,786,786,786,786,786,786,786,786,786,786,786,786,786,786,786,786,792,822,864,923,1058,1104,1142,1166,1182,1197,1204,1213,1223,1228,1230,1230,1230,1230,1230,1210,1195,1180,1161,1159,1159,1159,1159,1158],"ymouse":[506,506,506,506,506,506,506,506,506,506,506,506,506,506,506,506,506,506,506,506,506,506,506,506,506,504,490,465,431,303,247,199,172,153,133,121,105,85,65,41,41,41,41,40,43,45,47,49,49,49,49,49,49],"timestamp_mouse":[12,37,52,72,93,113,132,153,173,193,212,233,252,272,293,313,333,353,373,392,412,433,452,472,492,513,532,552,573,593,612,632,653,672,692,713,732,752,773,792,812,832,853,872,892,912,955,973,992,1013,1033,1052,1072],"xSR":741.5,"ySR":469.95,"xT1":424.9,"yT1":0,"xT2":1058.1,"yT2":0,"toosoon":0,"cond_shown":"equaldotsize","ratio_trial":900,"smaller_num":"9","larger_num":"10","correct_side":2,"subjID":"gabrielagranadosbustos19","gender":"1","age":"11","school":"6"},{"start_time":1551795002051,"click_time":1551795003238,"finger_time":1551795002917,"fix_duration":872.8004111160141,"trial":58,"RT":866,"MT":321,"sideResp":1,"stimulus":"img/250/randomdotsizeEA/L/14_Ratio_250_L_12_R_3.png","xmouse":[788,788,788,788,788,788,788,787,787,787,787,787,787,787,787,787,787,787,787,787,787,787,787,787,787,787,787,787,787,787,787,787,787,787,787,787,787,787,787,787,786,782,778,760,704,670,639,597,556,479,459,445,439,435,431,431,431,431,431,435],"ymouse":[514,514,514,514,514,514,514,515,515,515,515,515,515,515,515,515,515,515,515,515,515,515,515,515,515,515,515,515,515,515,515,515,515,515,515,515,515,515,515,515,516,506,483,443,351,311,282,245,218,163,149,136,128,122,114,113,113,111,107,98],"timestamp_mouse":[9,42,47,67,87,107,127,146,167,187,207,226,246,266,285,307,327,346,367,386,407,427,447,466,486,506,527,547,567,586,607,627,647,666,686,707,727,746,766,786,806,826,846,866,886,907,926,946,966,986,1006,1026,1047,1066,1086,1107,1126,1146,1167,1187],"xSR":741.5,"ySR":469.95,"xT1":424.9,"yT1":0,"xT2":1058.1,"yT2":0,"toosoon":0,"cond_shown":"randomdotsizeEA","ratio_trial":250,"smaller_num":"3","larger_num":"12","correct_side":1,"subjID":"gabrielagranadosbustos19","gender":"1","age":"11","school":"6"},{"start_time":1551795004270,"click_time":1551795005617,"finger_time":1551795005217,"fix_duration":250,"trial":59,"RT":947,"MT":400,"sideResp":1,"stimulus":"img/750/randomdotsizeEA/R/5_Ratio_750_L_15_R_20.png","xmouse":[813,812,812,812,812,812,812,812,812,812,812,812,812,812,812,812,812,812,812,812,812,812,812,812,812,812,812,812,812,812,812,812,812,812,812,812,812,812,812,812,812,812,812,812,802,794,772,759,753,753,753,753,753,753,752,746,717,674,626,563,549,540,535,526,524,521,519,517],"ymouse":[508,508,508,508,508,508,508,508,508,508,508,508,508,508,508,508,508,508,508,508,508,508,508,508,508,508,508,508,508,508,508,508,508,508,508,508,508,508,508,508,508,508,508,508,501,496,474,454,436,436,436,436,436,416,397,367,296,245,204,165,153,144,137,124,117,108,103,96],"timestamp_mouse":[12,31,48,68,88,107,127,147,167,187,207,227,247,267,287,307,328,347,368,387,408,427,448,468,487,507,528,548,567,587,607,627,648,667,687,707,727,747,767,788,807,828,847,868,887,907,928,947,968,987,1007,1027,1048,1068,1086,1107,1127,1147,1167,1187,1208,1227,1247,1269,1287,1307,1327,1347],"xSR":741.5,"ySR":469.95,"xT1":424.9,"yT1":0,"xT2":1058.1,"yT2":0,"toosoon":0,"cond_shown":"randomdotsizeEA","ratio_trial":750,"smaller_num":"15","larger_num":"20","correct_side":2,"subjID":"gabrielagranadosbustos19","gender":"1","age":"11","school":"6"},{"start_time":1551795007017,"click_time":1551795008378,"finger_time":1551795007757,"fix_duration":657.6078932321831,"trial":60,"RT":740,"MT":621,"sideResp":2,"stimulus":"img/900/equaldotanddens/R/3_Ratio_900_L_9_R_10.png","xmouse":[773,773,773,773,773,773,773,773,773,773,773,773,773,773,773,773,773,773,773,773,773,773,773,773,773,773,773,773,773,773,773,773,773,773,773,772,772,811,840,855,863,868,883,892,902,915,923,929,931,937,944,953,971,984,1000,1023,1039,1055,1057,1057,1057,1057,1062,1065,1069,1076,1083,1088,1088],"ymouse":[504,504,504,504,504,504,504,504,504,504,504,504,504,504,504,504,504,504,504,504,504,504,504,504,504,504,504,504,504,504,504,504,504,504,504,504,499,439,405,385,369,354,325,309,295,284,277,270,267,261,252,241,219,205,190,176,163,147,145,145,145,144,142,141,138,133,120,100,94],"timestamp_mouse":[11,21,40,60,80,100,120,140,160,180,200,220,241,260,280,300,321,340,360,381,400,421,441,461,480,500,521,540,561,580,600,620,641,660,681,701,721,740,761,780,801,821,840,859,880,900,921,940,960,980,1001,1020,1040,1060,1080,1101,1121,1141,1160,1181,1200,1221,1240,1260,1280,1300,1320,1340,1361],"xSR":741.5,"ySR":469.95,"xT1":424.9,"yT1":0,"xT2":1058.1,"yT2":0,"toosoon":0,"cond_shown":"equaldotanddens","ratio_trial":900,"smaller_num":"9","larger_num":"10","correct_side":2,"subjID":"gabrielagranadosbustos19","gender":"1","age":"11","school":"6"},{"start_time":1551795010167,"click_time":1551795011277,"finger_time":1551795010917,"fix_duration":728.3769327370829,"trial":61,"RT":750,"MT":360,"sideResp":2,"stimulus":"img/750/randomdotsizeEA/R/3_Ratio_750_L_15_R_20.png","xmouse":[795,795,795,795,795,795,795,795,795,795,795,795,795,795,795,795,795,795,795,795,795,795,795,795,795,795,795,795,795,795,795,795,795,795,795,801,813,844,855,913,929,942,950,958,970,975,980,983,986,991,997,1007,1017,1031,1055,1068],"ymouse":[528,528,528,528,528,528,528,528,528,528,528,528,528,528,528,528,528,528,528,528,528,528,528,528,528,528,528,528,528,528,528,528,528,527,525,510,485,423,402,319,296,272,253,235,207,196,187,177,169,159,151,138,127,117,97,90],"timestamp_mouse":[10,30,51,70,90,111,130,150,171,191,210,231,251,271,289,311,331,350,370,391,410,430,450,471,490,511,530,551,570,590,609,630,651,670,690,710,731,750,771,790,811,830,851,871,890,911,931,951,970,990,1011,1030,1051,1071,1090,1110],"xSR":741.5,"ySR":469.95,"xT1":424.9,"yT1":0,"xT2":1058.1,"yT2":0,"toosoon":0,"cond_shown":"randomdotsizeEA","ratio_trial":750,"smaller_num":"15","larger_num":"20","correct_side":2,"subjID":"gabrielagranadosbustos19","gender":"1","age":"11","school":"6"},{"start_time":1551795012730,"click_time":1551795013798,"finger_time":1551795013338,"fix_duration":750.44141086079,"trial":62,"RT":608,"MT":460,"sideResp":2,"stimulus":"img/250/equaldotsize/R/12_Ratio_250_L_5_R_20.png","xmouse":[819,819,819,819,819,819,819,819,819,819,819,819,819,819,819,819,819,819,819,819,819,819,819,819,819,819,819,819,820,826,843,867,943,978,998,1013,1049,1057,1064,1068,1069,1069,1072,1074,1075,1076,1078,1080,1082,1084,1088,1094,1096,1098],"ymouse":[518,518,518,518,518,518,518,518,518,518,518,518,518,518,518,518,518,518,518,518,518,518,518,518,518,518,518,518,517,511,493,468,402,375,360,340,285,270,254,245,242,232,202,190,181,178,172,168,165,159,147,127,112,99],"timestamp_mouse":[8,34,47,69,89,108,128,147,169,188,207,228,247,269,289,307,328,348,367,387,408,428,447,469,488,508,528,548,568,587,607,627,648,668,688,708,729,747,768,787,809,829,848,869,888,908,929,948,968,987,1008,1029,1048,1068],"xSR":741.5,"ySR":469.95,"xT1":424.9,"yT1":0,"xT2":1058.1,"yT2":0,"toosoon":0,"cond_shown":"equaldotsize","ratio_trial":250,"smaller_num":"5","larger_num":"20","correct_side":2,"subjID":"gabrielagranadosbustos19","gender":"1","age":"11","school":"6"},{"start_time":1551795014990,"click_time":1551795016237,"finger_time":1551795015697,"fix_duration":250,"trial":63,"RT":707,"MT":540,"sideResp":1,"stimulus":"img/500/randomdotsizeEA/L/11_Ratio_500_L_12_R_6.png","xmouse":[809,809,809,809,809,809,809,809,809,809,809,809,809,809,809,809,809,809,809,809,809,809,809,810,810,811,812,812,812,813,813,813,813,813,799,762,712,649,595,530,521,518,518,518,518,518,518,518,518,522,522,523,523,523,521,520,520,520,520,520,520,519,515],"ymouse":[541,541,541,541,541,541,541,541,541,541,541,541,541,541,541,541,541,541,541,541,541,541,541,540,540,539,539,538,536,535,535,533,532,526,488,427,370,309,260,194,179,174,173,173,172,170,167,164,159,137,133,130,127,120,106,103,102,102,102,102,102,101,98],"timestamp_mouse":[9,33,48,69,89,107,128,148,168,187,207,228,248,267,287,309,329,348,367,388,409,429,449,467,488,508,528,547,569,589,609,628,648,669,689,707,727,749,769,787,807,828,847,869,888,908,927,949,969,988,1007,1027,1047,1068,1088,1108,1128,1147,1168,1188,1208,1228,1247],"xSR":741.5,"ySR":469.95,"xT1":424.9,"yT1":0,"xT2":1058.1,"yT2":0,"toosoon":0,"cond_shown":"randomdotsizeEA","ratio_trial":500,"smaller_num":"6","larger_num":"12","correct_side":1,"subjID":"gabrielagranadosbustos19","gender":"1","age":"11","school":"6"},{"start_time":1551795017290,"click_time":1551795018318,"finger_time":1551795017877,"fix_duration":250,"trial":64,"RT":587,"MT":441,"sideResp":2,"stimulus":"img/900/equaldotanddens/R/11_Ratio_900_L_18_R_20.png","xmouse":[804,804,804,804,804,804,804,804,804,804,804,804,804,804,804,804,804,804,804,804,804,804,804,804,804,804,804,809,819,886,916,934,949,961,971,977,984,992,1007,1032,1037,1042,1045,1048,1058,1064,1071,1078,1085,1097,1099,1101],"ymouse":[533,533,533,533,533,533,533,533,533,533,533,533,533,533,533,533,533,533,533,533,533,533,533,533,533,533,532,526,511,434,398,376,357,341,322,311,295,275,255,209,193,181,171,161,144,137,130,120,114,105,101,99],"timestamp_mouse":[9,33,49,69,88,109,127,148,168,188,207,228,249,268,288,308,327,348,367,387,409,428,448,467,488,508,527,547,568,587,608,627,648,668,688,708,727,748,769,787,807,828,848,868,888,908,928,947,968,988,1009,1028],"xSR":741.5,"ySR":469.95,"xT1":424.9,"yT1":0,"xT2":1058.1,"yT2":0,"toosoon":0,"cond_shown":"equaldotanddens","ratio_trial":900,"smaller_num":"18","larger_num":"20","correct_side":2,"subjID":"gabrielagranadosbustos19","gender":"1","age":"11","school":"6"},{"start_time":1551795019807,"click_time":1551795021779,"finger_time":1551795020357,"fix_duration":527.261191820721,"trial":65,"RT":550,"MT":1422,"sideResp":1,"stimulus":"img/250/equaldotanddens/R/10_Ratio_250_L_4_R_16.png","xmouse":[795,795,795,795,795,795,795,795,795,795,795,795,795,795,795,795,795,795,795,795,795,795,795,795,795,807,822,845,957,1004,1040,1059,1074,1092,1102,1109,1114,1117,1123,1126,1129,1132,1132,1134,1134,1135,1136,1136,1137,1137,1137,1137,1137,1137,1137,1137,1137,1137,1135,1106,1095,1058,1033,1022,1022,1022,1022,1022,1022,1022,1022,1022,1029,1034,1040,1041,1043,1044,1049,1050,1050,1042,1011,970,926,926,926,926,926,926,926,926,926,926,263,260,294,352,480],"ymouse":[515,515,515,515,515,515,515,515,515,515,515,515,515,515,515,515,515,515,515,515,515,515,515,515,515,506,491,468,389,355,330,313,295,271,256,247,237,232,222,214,208,201,198,192,184,180,177,174,172,171,171,170,170,169,169,169,169,169,166,156,153,132,116,107,107,107,107,107,107,107,106,106,106,107,109,109,110,111,113,114,119,150,228,371,549,549,549,549,549,549,549,549,549,549,617,473,315,175,31],"timestamp_mouse":[20,34,50,71,92,110,131,152,171,190,210,232,250,270,292,312,331,351,370,392,410,432,450,470,490,512,532,550,571,591,610,632,650,670,690,710,730,751,771,791,811,832,850,871,890,911,931,950,972,990,1011,1030,1050,1072,1092,1111,1130,1151,1170,1191,1211,1232,1251,1271,1292,1310,1331,1352,1371,1391,1411,1431,1451,1470,1490,1512,1530,1551,1571,1590,1611,1631,1651,1671,1690,1712,1731,1751,1772,1791,1811,1831,1851,1872,1890,1910,1931,1950,1972],"xSR":741.5,"ySR":469.95,"xT1":424.9,"yT1":0,"xT2":1058.1,"yT2":0,"toosoon":0,"cond_shown":"equaldotanddens","ratio_trial":250,"smaller_num":"4","larger_num":"16","correct_side":2,"subjID":"gabrielagranadosbustos19","gender":"1","age":"11","school":"6"},{"start_time":1551795026411,"click_time":1551795028497,"finger_time":1551795026838,"fix_duration":592.4677770685615,"trial":66,"RT":427,"MT":1659,"sideResp":1,"stimulus":"img/750/equaldotanddens/L/9_Ratio_750_L_4_R_3.png","xmouse":[748,748,748,748,748,748,748,748,748,748,748,748,750,752,762,765,773,785,794,823,839,855,868,881,920,945,960,974,991,1013,1016,1022,1028,1034,1040,1044,1046,1048,1051,1059,1060,1060,1060,1061,1061,1061,1061,1061,1061,1061,1061,1061,1061,1061,1061,1061,1061,1061,1061,1061,1061,1057,1044,1027,952,906,871,844,815,775,750,727,707,688,670,639,620,616,614,598,586,577,566,554,524,517,517,516,516,516,515,513,511,509,505,502,501,500,498,496,495,495,495,495,493],"ymouse":[560,560,560,560,560,560,560,560,560,560,560,560,559,557,552,550,546,541,535,513,501,489,478,459,391,346,315,291,267,224,213,197,182,173,164,155,151,146,140,119,117,116,116,116,116,116,116,116,116,116,116,116,116,116,116,116,116,116,116,116,116,123,138,160,228,249,263,268,271,271,271,272,272,272,272,270,267,265,264,245,233,223,212,205,191,187,186,185,184,181,176,170,162,156,144,138,133,129,122,115,111,108,106,102,94],"timestamp_mouse":[9,35,46,68,86,108,128,146,167,188,207,227,247,267,287,306,328,347,366,387,407,427,448,467,486,507,527,548,566,587,606,627,647,666,686,706,727,746,768,787,807,828,847,867,886,906,927,947,967,987,1007,1026,1046,1068,1086,1107,1128,1147,1167,1186,1207,1226,1248,1266,1288,1308,1327,1347,1367,1387,1408,