[{"start_time":1551900798393,"click_time":1551900799628,"finger_time":1551900799127,"fix_duration":302.8775014452107,"trial":0,"RT":734,"MT":501,"sideResp":1,"stimulus":"img/750/equaldotanddens/L/13_Ratio_750_L_8_R_6.png","xmouse":[782,782,782,782,782,782,782,782,782,782,782,782,782,782,782,782,782,782,782,782,782,782,782,782,782,782,782,782,782,782,782,782,782,782,782,782,776,731,687,640,638,638,638,638,638,637,635,635,634,631,621,608,590,564,546,546,545,544,544,537,529,516],"ymouse":[500,500,500,500,500,500,500,500,500,500,500,500,500,500,500,500,500,500,500,500,500,500,500,500,500,500,500,500,500,500,500,500,500,500,500,500,466,374,292,200,185,176,172,171,168,166,164,163,163,158,149,138,125,105,92,90,88,88,87,82,78,72],"timestamp_mouse":[16,34,55,74,94,115,135,154,174,194,214,236,255,275,296,315,335,354,375,395,414,436,456,474,494,515,534,555,574,594,615,636,656,674,694,714,734,755,774,794,816,834,854,874,894,914,934,954,976,994,1014,1035,1054,1075,1094,1114,1135,1154,1175,1194,1214,1234],"xSR":741.5,"ySR":469.95,"xT1":424.9,"yT1":0,"xT2":1058.1,"yT2":0,"toosoon":0,"cond_shown":"equaldotanddens","ratio_trial":750,"smaller_num":"6","larger_num":"8","correct_side":1,"subjID":"AlejandroMontealegre29","gender":"No_gender","age":"No_age","school":"No_school","test":{"fix_dur":[250,1500],"timestim":300,"targets_dim":[100,100],"targets_relative_coord":[0.3,0.7],"size_stim":[880,420],"start_dim":[100,100],"size_start":[300,300],"size_fix":60,"samplingrate":20,"img_types":["equaldotsize","equaldotanddens","randomdotsizeEA"],"ratios":[250,500,750,900],"rep_conds":9,"nTrials":120,"trials_to_rest":500,"Trials_order":[31,49,83,36,18,101,116,47,69,11,85,100,118,37,51,107,84,42,80,13,75,97,35,94,71,105,95,39,5,108,10,111,19,53,8,82,103,26,79,76,14,110,50,72,65,54,25,62,87,70,4,59,52,9,1,15,68,40,99,73,45,98,22,115,34,67,117,21,6,23,46,3,41,106,57,74,109,88,93,77,63,38,102,64,56,96,55,119,17,0,28,90,33,86,30,113,91,92,60,7,104,32,61,20,66,12,43,27,81,114,24,48,78,89,29,44,58,112,2,16],"cond_shown":["equaldotanddens","equaldotanddens","randomdotsizeEA","equaldotsize","equaldotsize","randomdotsizeEA","randomdotsizeEA","randomdotsizeEA","equaldotsize","randomdotsizeEA","equaldotanddens","equaldotanddens","equaldotanddens","equaldotanddens","equaldotsize","randomdotsizeEA","equaldotsize","equaldotsize","randomdotsizeEA","equaldotanddens","equaldotsize","equaldotanddens","randomdotsizeEA","equaldotanddens","randomdotsizeEA","equaldotsize","randomdotsizeEA","equaldotsize","randomdotsizeEA","equaldotsize","equaldotanddens","equaldotsize","equaldotanddens","randomdotsizeEA","randomdotsizeEA","equaldotanddens","equaldotanddens","randomdotsizeEA","equaldotanddens","equaldotanddens","randomdotsizeEA","randomdotsizeEA","randomdotsizeEA","equaldotsize","randomdotsizeEA","equaldotsize","equaldotanddens","randomdotsizeEA","equaldotsize","equaldotanddens","equaldotanddens","randomdotsizeEA","equaldotanddens","equaldotsize","equaldotanddens","equaldotsize","randomdotsizeEA","equaldotanddens","equaldotsize","equaldotanddens","equaldotsize","randomdotsizeEA","equaldotanddens","equaldotanddens","equaldotanddens","equaldotanddens","equaldotsize","equaldotsize","equaldotsize","randomdotsizeEA","equaldotanddens","equaldotsize","randomdotsizeEA","equaldotanddens","equaldotsize","randomdotsizeEA","equaldotanddens","equaldotanddens","equaldotsize","randomdotsizeEA","equaldotsize","randomdotsizeEA","equaldotsize","equaldotanddens","randomdotsizeEA","equaldotsize","equaldotanddens","randomdotsizeEA","randomdotsizeEA","equaldotsize","equaldotanddens","equaldotsize","equaldotsize","randomdotsizeEA","equaldotsize","randomdotsizeEA","equaldotanddens","randomdotsizeEA","equaldotsize","equaldotanddens","randomdotsizeEA","randomdotsizeEA","equaldotanddens","randomdotsizeEA","equaldotsize","equaldotsize","equaldotanddens","equaldotsize","equaldotsize","equaldotsize","equaldotsize","equaldotsize","equaldotsize","randomdotsizeEA","randomdotsizeEA","randomdotsizeEA","equaldotanddens","equaldotanddens","randomdotsizeEA","equaldotanddens"],"ratio_trial":[750,250,900,250,750,500,750,900,900,900,250,500,900,250,500,900,250,750,750,250,500,250,900,900,900,900,900,500,500,250,900,500,750,500,750,900,750,250,750,500,250,250,250,250,500,750,250,250,500,900,500,900,500,900,250,500,750,500,500,250,900,250,900,750,900,750,900,900,750,900,900,500,500,900,900,250,250,500,900,500,500,250,750,500,750,250,750,900,500,250,500,750,900,250,750,500,750,750,250,750,750,750,250,750,750,250,750,500,900,750,250,250,750,500,500,750,900,500,250,500],"smaller_num":["6","2","18","6","15","1","15","18","18","18","3","3","9","2","1","9","2","15","6","2","1","3","18","9","18","18","18","2","10","5","9","1","6","5","15","18","18","3","6","9","2","6","6","3","6","3","6","3","2","18","9","9","3","18","4","5","6","6","2","4","9","3","18","18","18","15","18","9","3","9","18","9","2","18","18","4","2","5","9","9","1","5","15","9","3","5","18","9","9","3","4","3","9","3","15","6","15","9","6","6","15","6","2","3","15","6","6","10","18","3","2","2","3","5","5","15","9","10","6","5"],"larger_num":["8","8","20","24","20","2","20","20","20","20","12","6","10","8","2","10","8","20","8","8","2","12","20","10","20","20","20","4","20","20","10","2","8","10","20","20","24","12","8","18","8","24","24","12","12","4","24","12","4","20","18","10","6","20","16","10","8","12","4","16","10","12","20","24","20","20","20","10","4","10","20","18","4","20","20","16","8","10","10","18","2","20","20","18","4","20","24","10","18","12","8","4","10","12","20","12","20","12","24","8","20","8","8","4","20","24","8","20","20","4","8","8","4","10","10","20","10","20","24","10"],"correct_side":[1,2,1,1,1,2,2,1,2,1,2,2,2,1,2,1,2,2,1,1,2,1,2,1,1,1,2,1,2,2,2,2,2,2,2,2,1,2,1,2,2,2,2,1,1,1,1,2,2,1,1,2,2,2,1,2,1,1,1,1,2,2,2,1,2,2,2,2,1,2,1,2,1,1,2,1,2,1,2,2,2,2,1,2,2,2,1,1,2,1,1,2,2,1,2,1,2,2,1,1,2,1,1,1,1,1,1,2,1,1,1,1,2,1,2,1,1,2,2,1],"img_shown":["img/750/equaldotanddens/L/13_Ratio_750_L_8_R_6.png","img/250/equaldotanddens/R/13_Ratio_250_L_2_R_8.png","img/900/randomdotsizeEA/L/10_Ratio_900_L_20_R_18.png","img/250/equaldotsize/L/5_Ratio_250_L_24_R_6.png","img/750/equaldotsize/L/1_Ratio_750_L_20_R_15.png","img/500/randomdotsizeEA/R/15_Ratio_500_L_1_R_2.png","img/750/randomdotsizeEA/R/4_Ratio_750_L_15_R_20.png","img/900/randomdotsizeEA/L/8_Ratio_900_L_20_R_18.png","img/900/equaldotsize/R/9_Ratio_900_L_18_R_20.png","img/900/randomdotsizeEA/L/4_Ratio_900_L_20_R_18.png","img/250/equaldotanddens/R/4_Ratio_250_L_3_R_12.png","img/500/equaldotanddens/R/2_Ratio_500_L_3_R_6.png","img/900/equaldotanddens/R/5_Ratio_900_L_9_R_10.png","img/250/equaldotanddens/L/1_Ratio_250_L_8_R_2.png","img/500/equaldotsize/R/15_Ratio_500_L_1_R_2.png","img/900/randomdotsizeEA/L/1_Ratio_900_L_10_R_9.png","img/250/equaldotsize/R/13_Ratio_250_L_2_R_8.png","img/750/equaldotsize/R/4_Ratio_750_L_15_R_20.png","img/750/randomdotsizeEA/L/14_Ratio_750_L_8_R_6.png","img/250/equaldotanddens/L/7_Ratio_250_L_8_R_2.png","img/500/equaldotsize/R/15_Ratio_500_L_1_R_2.png","img/250/equaldotanddens/L/15_Ratio_250_L_12_R_3.png","img/900/randomdotsizeEA/R/9_Ratio_900_L_18_R_20.png","img/900/equaldotanddens/L/1_Ratio_900_L_10_R_9.png","img/900/randomdotsizeEA/L/4_Ratio_900_L_20_R_18.png","img/900/equaldotsize/L/8_Ratio_900_L_20_R_18.png","img/900/randomdotsizeEA/R/11_Ratio_900_L_18_R_20.png","img/500/equaldotsize/L/10_Ratio_500_L_4_R_2.png","img/500/randomdotsizeEA/R/3_Ratio_500_L_10_R_20.png","img/250/equaldotsize/R/12_Ratio_250_L_5_R_20.png","img/900/equaldotanddens/R/5_Ratio_900_L_9_R_10.png","img/500/equaldotsize/R/15_Ratio_500_L_1_R_2.png","img/750/equaldotanddens/R/2_Ratio_750_L_6_R_8.png","img/500/randomdotsizeEA/R/14_Ratio_500_L_5_R_10.png","img/750/randomdotsizeEA/R/5_Ratio_750_L_15_R_20.png","img/900/equaldotanddens/R/14_Ratio_900_L_18_R_20.png","img/750/equaldotanddens/L/6_Ratio_750_L_24_R_18.png","img/250/randomdotsizeEA/R/11_Ratio_250_L_3_R_12.png","img/750/equaldotanddens/L/14_Ratio_750_L_8_R_6.png","img/500/equaldotanddens/R/6_Ratio_500_L_9_R_18.png","img/250/randomdotsizeEA/R/13_Ratio_250_L_2_R_8.png","img/250/randomdotsizeEA/R/6_Ratio_250_L_6_R_24.png","img/250/randomdotsizeEA/R/6_Ratio_250_L_6_R_24.png","img/250/equaldotsize/L/15_Ratio_250_L_12_R_3.png","img/500/randomdotsizeEA/L/11_Ratio_500_L_12_R_6.png","img/750/equaldotsize/L/10_Ratio_750_L_4_R_3.png","img/250/equaldotanddens/L/5_Ratio_250_L_24_R_6.png","img/250/randomdotsizeEA/R/4_Ratio_250_L_3_R_12.png","img/500/equaldotsize/R/9_Ratio_500_L_2_R_4.png","img/900/equaldotanddens/L/8_Ratio_900_L_20_R_18.png","img/500/equaldotanddens/L/4_Ratio_500_L_18_R_9.png","img/900/randomdotsizeEA/R/7_Ratio_900_L_9_R_10.png","img/500/equaldotanddens/R/2_Ratio_500_L_3_R_6.png","img/900/equaldotsize/R/9_Ratio_900_L_18_R_20.png","img/250/equaldotanddens/L/2_Ratio_250_L_16_R_4.png","img/500/equaldotsize/R/14_Ratio_500_L_5_R_10.png","img/750/randomdotsizeEA/L/14_Ratio_750_L_8_R_6.png","img/500/equaldotanddens/L/11_Ratio_500_L_12_R_6.png","img/500/equaldotsize/L/10_Ratio_500_L_4_R_2.png","img/250/equaldotanddens/L/2_Ratio_250_L_16_R_4.png","img/900/equaldotsize/R/15_Ratio_900_L_9_R_10.png","img/250/randomdotsizeEA/R/11_Ratio_250_L_3_R_12.png","img/900/equaldotanddens/R/12_Ratio_900_L_18_R_20.png","img/750/equaldotanddens/L/6_Ratio_750_L_24_R_18.png","img/900/equaldotanddens/R/14_Ratio_900_L_18_R_20.png","img/750/equaldotanddens/R/4_Ratio_750_L_15_R_20.png","img/900/equaldotsize/R/13_Ratio_900_L_18_R_20.png","img/900/equaldotsize/R/7_Ratio_900_L_9_R_10.png","img/750/equaldotsize/L/9_Ratio_750_L_4_R_3.png","img/900/randomdotsizeEA/R/5_Ratio_900_L_9_R_10.png","img/900/equaldotanddens/L/10_Ratio_900_L_20_R_18.png","img/500/equaldotsize/R/1_Ratio_500_L_9_R_18.png","img/500/randomdotsizeEA/L/10_Ratio_500_L_4_R_2.png","img/900/equaldotanddens/L/8_Ratio_900_L_20_R_18.png","img/900/equaldotsize/R/11_Ratio_900_L_18_R_20.png","img/250/randomdotsizeEA/L/2_Ratio_250_L_16_R_4.png","img/250/equaldotanddens/R/13_Ratio_250_L_2_R_8.png","img/500/equaldotanddens/L/7_Ratio_500_L_10_R_5.png","img/900/equaldotsize/R/6_Ratio_900_L_9_R_10.png","img/500/randomdotsizeEA/R/1_Ratio_500_L_9_R_18.png","img/500/equaldotsize/R/15_Ratio_500_L_1_R_2.png","img/250/randomdotsizeEA/R/12_Ratio_250_L_5_R_20.png","img/750/equaldotsize/L/1_Ratio_750_L_20_R_15.png","img/500/equaldotanddens/R/6_Ratio_500_L_9_R_18.png","img/750/randomdotsizeEA/R/12_Ratio_750_L_3_R_4.png","img/250/equaldotsize/R/12_Ratio_250_L_5_R_20.png","img/750/equaldotanddens/L/6_Ratio_750_L_24_R_18.png","img/900/randomdotsizeEA/L/1_Ratio_900_L_10_R_9.png","img/500/randomdotsizeEA/R/6_Ratio_500_L_9_R_18.png","img/250/equaldotsize/L/14_Ratio_250_L_12_R_3.png","img/500/equaldotanddens/L/8_Ratio_500_L_8_R_4.png","img/750/equaldotsize/R/12_Ratio_750_L_3_R_4.png","img/900/equaldotsize/R/3_Ratio_900_L_9_R_10.png","img/250/randomdotsizeEA/L/14_Ratio_250_L_12_R_3.png","img/750/equaldotsize/R/3_Ratio_750_L_15_R_20.png","img/500/randomdotsizeEA/L/13_Ratio_500_L_12_R_6.png","img/750/equaldotanddens/R/5_Ratio_750_L_15_R_20.png","img/750/randomdotsizeEA/R/15_Ratio_750_L_9_R_12.png","img/250/equaldotsize/L/5_Ratio_250_L_24_R_6.png","img/750/equaldotanddens/L/13_Ratio_750_L_8_R_6.png","img/750/randomdotsizeEA/R/3_Ratio_750_L_15_R_20.png","img/750/randomdotsizeEA/L/13_Ratio_750_L_8_R_6.png","img/250/equaldotanddens/L/3_Ratio_250_L_8_R_2.png","img/750/randomdotsizeEA/L/9_Ratio_750_L_4_R_3.png","img/750/equaldotsize/L/1_Ratio_750_L_20_R_15.png","img/250/equaldotsize/L/5_Ratio_250_L_24_R_6.png","img/750/equaldotanddens/L/14_Ratio_750_L_8_R_6.png","img/500/equaldotsize/R/3_Ratio_500_L_10_R_20.png","img/900/equaldotsize/L/8_Ratio_900_L_20_R_18.png","img/750/equaldotsize/L/8_Ratio_750_L_4_R_3.png","img/250/equaldotsize/L/3_Ratio_250_L_8_R_2.png","img/250/equaldotsize/L/1_Ratio_250_L_8_R_2.png","img/750/equaldotsize/R/12_Ratio_750_L_3_R_4.png","img/500/randomdotsizeEA/L/7_Ratio_500_L_10_R_5.png","img/500/randomdotsizeEA/R/14_Ratio_500_L_5_R_10.png","img/750/randomdotsizeEA/L/1_Ratio_750_L_20_R_15.png","img/900/equaldotanddens/L/1_Ratio_900_L_10_R_9.png","img/500/equaldotanddens/R/3_Ratio_500_L_10_R_20.png","img/250/randomdotsizeEA/R/6_Ratio_250_L_6_R_24.png","img/500/equaldotanddens/L/7_Ratio_500_L_10_R_5.png"],"Rat0":[["12_Ratio_0_L_9_R_0.png","13_Ratio_0_L_6_R_0.png","5_Ratio_0_L_2_R_0.png","6_Ratio_0_L_4_R_0.png","8_Ratio_0_L_6_R_0.png"],["1_Ratio_0_L_0_R_17.png","10_Ratio_0_L_0_R_22.png","11_Ratio_0_L_0_R_1.png","14_Ratio_0_L_0_R_24.png","15_Ratio_0_L_0_R_4.png","2_Ratio_0_L_0_R_5.png","3_Ratio_0_L_0_R_17.png","4_Ratio_0_L_0_R_7.png","7_Ratio_0_L_0_R_19.png","9_Ratio_0_L_0_R_15.png"]],"Rat250":[["1_Ratio_250_L_8_R_2.png","14_Ratio_250_L_12_R_3.png","15_Ratio_250_L_12_R_3.png","2_Ratio_250_L_16_R_4.png","3_Ratio_250_L_8_R_2.png","5_Ratio_250_L_24_R_6.png","7_Ratio_250_L_8_R_2.png"],["10_Ratio_250_L_4_R_16.png","11_Ratio_250_L_3_R_12.png","12_Ratio_250_L_5_R_20.png","13_Ratio_250_L_2_R_8.png","4_Ratio_250_L_3_R_12.png","6_Ratio_250_L_6_R_24.png","8_Ratio_250_L_1_R_4.png","9_Ratio_250_L_3_R_12.png"]],"Rat500":[["10_Ratio_500_L_4_R_2.png","11_Ratio_500_L_12_R_6.png","13_Ratio_500_L_12_R_6.png","4_Ratio_500_L_18_R_9.png","5_Ratio_500_L_4_R_2.png","7_Ratio_500_L_10_R_5.png","8_Ratio_500_L_8_R_4.png"],["1_Ratio_500_L_9_R_18.png","12_Ratio_500_L_1_R_2.png","14_Ratio_500_L_5_R_10.png","15_Ratio_500_L_1_R_2.png","2_Ratio_500_L_3_R_6.png","3_Ratio_500_L_10_R_20.png","6_Ratio_500_L_9_R_18.png","9_Ratio_500_L_2_R_4.png"]],"Rat750":[["1_Ratio_750_L_20_R_15.png","10_Ratio_750_L_4_R_3.png","13_Ratio_750_L_8_R_6.png","14_Ratio_750_L_8_R_6.png","6_Ratio_750_L_24_R_18.png","8_Ratio_750_L_4_R_3.png","9_Ratio_750_L_4_R_3.png"],["11_Ratio_750_L_12_R_16.png","12_Ratio_750_L_3_R_4.png","15_Ratio_750_L_9_R_12.png","2_Ratio_750_L_6_R_8.png","3_Ratio_750_L_15_R_20.png","4_Ratio_750_L_15_R_20.png","5_Ratio_750_L_15_R_20.png","7_Ratio_750_L_3_R_4.png"]],"Rat900":[["1_Ratio_900_L_10_R_9.png","10_Ratio_900_L_20_R_18.png","2_Ratio_900_L_20_R_18.png","4_Ratio_900_L_20_R_18.png","8_Ratio_900_L_20_R_18.png"],["11_Ratio_900_L_18_R_20.png","12_Ratio_900_L_18_R_20.png","13_Ratio_900_L_18_R_20.png","14_Ratio_900_L_18_R_20.png","15_Ratio_900_L_9_R_10.png","3_Ratio_900_L_9_R_10.png","5_Ratio_900_L_9_R_10.png","6_Ratio_900_L_9_R_10.png","7_Ratio_900_L_9_R_10.png","9_Ratio_900_L_18_R_20.png"]],"Rat1000":[["10_Ratio_1000_L_16_R_16.png","11_Ratio_1000_L_6_R_6.png","12_Ratio_1000_L_14_R_14.png","13_Ratio_1000_L_20_R_20.png","15_Ratio_1000_L_15_R_15.png","2_Ratio_1000_L_17_R_17.png","4_Ratio_1000_L_9_R_9.png","5_Ratio_1000_L_6_R_6.png","6_Ratio_1000_L_19_R_19.png","8_Ratio_1000_L_14_R_14.png","9_Ratio_1000_L_25_R_25.png"],["1_Ratio_1000_L_1_R_1.png","14_Ratio_1000_L_17_R_17.png","3_Ratio_1000_L_17_R_17.png","7_Ratio_1000_L_6_R_6.png"]]}},{"start_time":1551900801508,"click_time":1551900803348,"finger_time":1551900801627,"fix_duration":638.1510962168336,"trial":1,"RT":119,"MT":1721,"sideResp":2,"stimulus":"img/250/equaldotanddens/R/13_Ratio_250_L_2_R_8.png","xmouse":[800,802,803,803,803,803,803,803,803,803,803,803,803,803,803,803,803,805,807,808,808,810,810,811,811,811,811,811,811,811,811,811,811,811,811,811,811,811,811,826,830,834,838,839,839,853,864,875,886,901,903,908,912,917,926,928,929,931,933,935,939,940,941,943,949,953,962,965,969,978,983,990,996,1000,1002,1006,1007,1007,1007,1009,1010,1010,1012,1017,1024,1039,1047,1055,1061,1074,1087,1107,1133],"ymouse":[488,486,485,483,480,474,465,462,462,462,462,462,462,462,462,462,462,457,450,447,447,445,443,439,438,438,438,438,438,438,438,438,438,438,438,438,438,438,438,438,443,451,457,459,459,451,434,413,396,352,329,304,283,268,245,234,231,226,221,215,202,198,195,193,186,183,177,174,168,159,155,149,143,139,136,133,132,132,132,131,130,130,129,127,124,121,120,119,118,114,109,101,93],"timestamp_mouse":[0,20,40,59,79,100,119,140,161,180,200,220,240,260,279,299,320,340,359,379,399,421,440,460,479,500,520,540,559,580,601,619,639,659,679,699,719,740,760,779,800,820,839,859,879,900,919,940,959,980,999,1021,1041,1059,1080,1099,1119,1140,1160,1180,1199,1220,1240,1259,1280,1300,1319,1340,1360,1380,1400,1421,1439,1459,1480,1499,1520,1540,1559,1580,1600,1619,1640,1659,1680,1699,1719,1740,1759,1780,1799,1820,1840],"xSR":741.5,"ySR":469.95,"xT1":424.9,"yT1":0,"xT2":1058.1,"yT2":0,"toosoon":0,"cond_shown":"equaldotanddens","ratio_trial":250,"smaller_num":"2","larger_num":"8","correct_side":2,"subjID":"AlejandroMontealegre29","gender":"No_gender","age":"No_age","school":"No_school"},{"start_time":1551900805767,"click_time":1551900807607,"finger_time":1551900807167,"fix_duration":998.5232873838069,"trial":2,"RT":1400,"MT":440,"sideResp":1,"stimulus":"img/900/randomdotsizeEA/L/10_Ratio_900_L_20_R_18.png","xmouse":[780,780,780,780,780,780,780,780,780,780,780,780,780,780,780,780,780,780,780,780,780,780,780,780,780,780,780,780,780,780,780,780,780,780,780,780,780,780,780,780,780,780,780,780,780,780,780,780,780,780,780,780,780,780,780,780,780,780,780,780,780,780,780,780,780,780,780,780,775,768,731,700,660,649,640,636,631,623,618,606,592,587,587,586,584,581,576,560,552,546,534,530,523],"ymouse":[493,493,493,493,493,493,493,493,493,493,493,493,493,493,493,493,493,493,493,493,493,493,493,493,493,493,493,493,493,493,493,493,493,493,493,493,493,493,493,493,493,493,493,493,493,493,493,493,493,493,493,493,493,493,493,493,493,493,493,493,493,493,493,493,493,493,493,493,484,473,415,371,305,284,267,253,239,211,197,174,158,146,136,130,123,114,105,91,86,83,79,77,73],"timestamp_mouse":[2,22,41,60,81,101,120,141,161,182,201,221,240,262,280,301,320,340,362,381,400,420,440,461,480,502,520,540,561,580,601,622,642,662,680,701,720,742,762,782,802,821,842,862,882,900,921,940,961,980,1001,1020,1041,1060,1082,1100,1121,1142,1162,1180,1201,1221,1241,1260,1280,1302,1321,1340,1360,1381,1400,1422,1441,1460,1480,1500,1520,1540,1560,1580,1602,1622,1640,1660,1680,1700,1722,1740,1761,1781,1801,1820,1840],"xSR":741.5,"ySR":469.95,"xT1":424.9,"yT1":0,"xT2":1058.1,"yT2":0,"toosoon":0,"cond_shown":"randomdotsizeEA","ratio_trial":900,"smaller_num":"18","larger_num":"20","correct_side":1,"subjID":"AlejandroMontealegre29","gender":"No_gender","age":"No_age","school":"No_school"},{"start_time":1551900809289,"click_time":1551900810570,"finger_time":1551900810009,"fix_duration":340.4324031002192,"trial":3,"RT":720,"MT":561,"sideResp":1,"stimulus":"img/250/equaldotsize/L/5_Ratio_250_L_24_R_6.png","xmouse":[771,771,771,771,771,771,771,771,771,771,771,771,771,771,771,771,771,771,771,771,771,771,771,771,771,771,771,771,771,771,771,771,771,772,772,762,753,737,715,687,655,649,632,631,630,622,621,617,613,609,597,591,586,581,576,559,547,532,519,510,493,474,460,447],"ymouse":[494,494,494,494,494,494,494,494,494,494,494,494,494,494,494,494,494,494,494,494,494,494,494,494,494,494,494,494,494,494,494,494,494,493,488,467,451,431,405,375,341,336,327,325,325,325,325,323,320,316,307,299,289,274,256,214,189,170,155,148,133,116,102,90],"timestamp_mouse":[19,38,59,79,98,118,140,160,179,199,218,238,258,278,298,318,339,359,380,398,419,438,458,480,498,518,538,559,578,599,618,639,658,678,699,720,738,759,778,798,818,838,858,878,900,918,938,959,979,999,1018,1039,1058,1079,1099,1119,1138,1159,1178,1198,1219,1239,1259,1280],"xSR":741.5,"ySR":469.95,"xT1":424.9,"yT1":0,"xT2":1058.1,"yT2":0,"toosoon":0,"cond_shown":"equaldotsize","ratio_trial":250,"smaller_num":"6","larger_num":"24","correct_side":1,"subjID":"AlejandroMontealegre29","gender":"No_gender","age":"No_age","school":"No_school"},{"start_time":1551900812399,"click_time":1551900817169,"finger_time":1551900813088,"fix_duration":250,"trial":4,"RT":689,"MT":4081,"sideResp":1,"stimulus":"img/750/equaldotsize/L/1_Ratio_750_L_20_R_15.png","xmouse":[745,745,745,745,745,745,745,745,745,745,745,745,745,745,745,745,745,745,745,745,745,745,745,745,745,745,745,745,745,745,745,745,745,746,745,735,704,681,649,627,605,577,569,566,556,547,540,538,538,538,539,539,540,540,540,539,539,539,539,539,539,539,539,539,539,539,539,539,539,539,539,539,539,539,539,539,539,539,539,539,539,539,539,539,539,539,539,539,539,539,539,539,539,539,539,539,539,539,539,539,539,539,539,539,539,539,539,539,539,539,539,539,539,539,539,539,539,539,539,539,539,539,539,539,539,539,539,539,539,539,539,539,539,539,539,539,539,539,539,539,539,539,539,539,539,539,539,539,539,539,539,539,539,539,539,539,539,539,539,539,539,539,539,539,539,539,539,539,539,539,539,539,539,539,539,539,539,539,539,539,539,539,539,539,539,539,539,539,539,539,539,539,539,539,539,539,539,539,539,539,539,539,539,539,539,539,539,539,539,539,539,539,539,539,539,539,539,539,535,535,533,521,513,506,500,497,496,495,495,495,495,492,492,490,489,488,487,486,486],"ymouse":[472,472,472,472,472,472,472,472,472,472,472,472,472,472,472,472,472,472,472,472,472,472,472,472,472,472,472,472,472,472,472,472,472,471,468,456,417,383,337,306,275,234,222,216,206,192,185,185,185,183,182,181,181,180,180,177,177,177,177,177,177,177,177,177,177,177,177,177,177,177,177,177,177,177,177,177,177,177,177,177,177,177,177,177,177,177,177,177,177,177,177,177,177,177,177,177,177,177,177,177,177,177,177,177,177,177,177,177,177,177,177,177,177,177,177,177,177,177,177,177,177,177,177,177,177,177,177,177,177,177,177,177,177,177,177,177,177,177,177,177,177,177,177,177,177,177,177,177,177,177,177,177,177,177,177,177,177,177,177,177,177,177,177,177,177,177,177,177,177,177,177,177,177,177,177,177,177,177,177,177,177,177,177,177,177,177,177,177,177,177,177,177,177,177,177,177,177,177,177,177,177,177,177,177,177,177,177,177,177,177,177,177,177,177,177,177,177,177,176,176,175,173,169,165,160,157,154,154,154,154,154,149,146,144,140,134,121,109,93],"timestamp_mouse":[9,29,49,69,89,109,130,149,170,190,210,230,250,269,290,310,329,349,370,389,409,429,450,469,489,509,529,549,569,589,609,629,649,669,689,709,730,749,769,789,810,829,849,869,889,909,929,950,969,989,1009,1029,1049,1070,1089,1110,1129,1149,1169,1189,1210,1229,1249,1269,1289,1309,1330,1349,1370,1389,1410,1429,1449,1469,1490,1509,1530,1550,1570,1589,1610,1630,1650,1670,1689,1710,1729,1749,1770,1789,1809,1830,1849,1869,1889,1910,1929,1949,1970,1989,2009,2029,2050,2070,2090,2110,2130,2149,2170,2189,2210,2229,2250,2270,2289,2310,2329,2350,2370,2390,2410,2429,2450,2469,2490,2509,2530,2550,2569,2589,2609,2629,2649,2669,2690,2709,2729,2750,2769,2789,2809,2830,2849,2869,2889,2909,2929,2949,2969,2989,3010,3029,3049,3069,3090,3109,3130,3149,3169,3189,3210,3230,3249,3269,3290,3310,3329,3350,3369,3389,3410,3429,3450,3469,3489,3509,3529,3550,3569,3589,3609,3629,3649,3669,3690,3709,3729,3750,3769,3789,3810,3829,3849,3869,3890,3909,3930,3949,3969,3990,4009,4029,4049,4069,4088,4111,4129,4149,4170,4190,4210,4228,4249,4269,4289,4309,4329,4349,4369,4389,4409,4429,4450,4469,4490,4511,4529,4549,4569,4589,4609,4629,4649,4669,4689,4709,4729,4749,4769],"xSR":741.5,"ySR":469.95,"xT1":424.9,"yT1":0,"xT2":1058.1,"yT2":0,"toosoon":0,"cond_shown":"equaldotsize","ratio_trial":750,"smaller_num":"15","larger_num":"20","correct_side":1,"subjID":"AlejandroMontealegre29","gender":"No_gender","age":"No_age","school":"No_school"},{"start_time":1551900820403,"click_time":1551900821849,"finger_time":1551900821289,"fix_duration":534.9085500077508,"trial":5,"RT":886,"MT":560,"sideResp":2,"stimulus":"img/500/randomdotsizeEA/R/15_Ratio_500_L_1_R_2.png","xmouse":[805,805,805,805,805,804,804,803,803,802,801,801,800,800,800,800,800,800,800,800,800,800,800,800,800,799,794,792,792,792,792,792,792,792,792,792,792,792,792,792,792,792,792,792,785,780,762,752,740,732,726,722,719,719,719,719,719,721,725,736,749,776,810,847,896,944,977,1013,1025,1035,1044,1057,1066],"ymouse":[481,481,481,481,481,481,481,481,481,481,480,479,479,478,478,478,478,478,478,478,478,478,478,478,478,477,474,473,473,473,473,473,473,473,473,473,473,473,473,473,473,473,473,473,469,466,444,429,413,400,390,382,378,378,378,378,378,376,372,363,349,319,298,276,256,229,205,172,159,146,137,104,86],"timestamp_mouse":[5,25,45,65,85,105,125,146,166,185,206,226,245,265,285,306,326,345,366,386,406,426,446,465,486,505,524,546,565,586,606,626,646,666,686,706,725,745,765,786,806,825,845,865,886,906,925,945,966,985,1005,1025,1045,1066,1086,1106,1126,1145,1165,1186,1205,1225,1247,1265,1285,1306,1325,1345,1365,1386,1406,1425,1445],"xSR":741.5,"ySR":469.95,"xT1":424.9,"yT1":0,"xT2":1058.1,"yT2":0,"toosoon":0,"cond_shown":"randomdotsizeEA","ratio_trial":500,"smaller_num":"1","larger_num":"2","correct_side":2,"subjID":"AlejandroMontealegre29","gender":"No_gender","age":"No_age","school":"No_school"},{"start_time":1551900823499,"click_time":1551900825088,"finger_time":1551900824728,"fix_duration":250,"trial":6,"RT":1229,"MT":360,"sideResp":1,"stimulus":"img/750/randomdotsizeEA/R/4_Ratio_750_L_15_R_20.png","xmouse":[801,801,801,801,801,801,801,802,803,803,803,803,803,803,804,804,804,804,804,804,804,804,804,804,804,804,804,804,804,804,804,804,804,804,804,804,804,804,804,804,804,804,804,804,804,805,806,809,809,809,810,810,810,810,810,810,810,810,810,810,808,799,745,712,684,651,633,603,585,565,546,528,513,513,513,514,520,532,533,522],"ymouse":[486,486,486,486,486,486,486,486,486,486,486,486,486,486,485,485,485,485,485,485,485,485,485,485,485,485,485,485,485,485,485,485,485,485,485,485,485,485,485,485,485,485,485,485,485,484,483,481,479,479,479,479,478,478,478,478,478,478,478,478,471,466,424,399,379,353,338,312,297,283,267,251,238,237,236,232,223,188,139,79],"timestamp_mouse":[9,29,50,69,90,110,129,149,170,189,209,230,249,270,289,309,330,349,370,390,410,429,450,469,489,510,529,549,570,590,610,629,650,669,689,710,729,749,770,790,810,830,850,869,889,910,930,949,970,990,1009,1029,1049,1070,1089,1109,1129,1149,1170,1189,1209,1229,1249,1268,1289,1309,1330,1349,1369,1389,1409,1429,1449,1469,1490,1509,1530,1549,1569,1589],"xSR":741.5,"ySR":469.95,"xT1":424.9,"yT1":0,"xT2":1058.1,"yT2":0,"toosoon":0,"cond_shown":"randomdotsizeEA","ratio_trial":750,"smaller_num":"15","larger_num":"20","correct_side":2,"subjID":"AlejandroMontealegre29","gender":"No_gender","age":"No_age","school":"No_school"},{"start_time":1551900827984,"click_time":1551900830549,"finger_time":1551900829609,"fix_duration":1293.681894488092,"trial":7,"RT":1625,"MT":940,"sideResp":2,"stimulus":"img/900/randomdotsizeEA/L/8_Ratio_900_L_20_R_18.png","xmouse":[808,808,808,808,808,808,808,808,808,808,808,808,808,808,808,808,808,808,808,808,808,808,808,808,808,808,808,808,808,808,808,808,808,808,808,808,808,808,808,808,808,808,808,808,808,808,808,808,808,808,808,808,808,808,808,808,808,808,808,808,808,808,809,809,809,809,809,809,809,809,809,809,809,809,809,809,809,809,809,809,811,813,817,827,832,838,845,851,858,862,867,872,879,899,913,927,942,959,974,1002,1009,1015,1022,1034,1038,1042,1044,1046,1046,1046,1046,1046,1046,1046,1048,1048,1049,1049,1049,1049,1049,1049,1049,1050,1052,1052,1054,1056,1059],"ymouse":[493,493,493,493,493,493,493,493,493,493,493,493,493,493,493,493,493,493,493,493,493,493,493,493,493,493,493,493,493,493,493,493,493,493,493,493,493,493,493,493,493,493,493,493,493,493,493,493,493,493,493,493,493,493,493,493,493,493,493,493,493,493,491,483,480,478,477,477,477,477,477,477,477,477,477,477,477,477,477,475,473,469,465,453,446,440,433,428,419,412,403,394,382,352,335,314,291,261,232,173,156,144,135,123,117,110,105,101,98,97,97,97,97,95,93,92,91,91,91,91,91,91,91,90,90,90,89,88,88],"timestamp_mouse":[5,24,45,64,85,104,125,145,164,185,204,224,244,264,284,304,325,344,364,385,404,424,444,464,485,505,525,545,564,585,604,625,644,664,684,705,724,744,764,784,805,824,844,864,884,905,925,944,964,984,1004,1024,1044,1064,1084,1104,1125,1144,1164,1184,1204,1224,1244,1264,1284,1304,1324,1344,1364,1384,1404,1425,1444,1464,1485,1504,1524,1544,1564,1585,1604,1625,1644,1665,1685,1704,1725,1745,1765,1784,1804,1824,1845,1865,1885,1904,1924,1944,1965,1984,2004,2024,2044,2065,2084,2104,2125,2144,2165,2184,2205,2224,2244,2264,2284,2305,2325,2345,2364,2385,2404,2424,2444,2465,2485,2504,2524,2544,2565],"xSR":741.5,"ySR":469.95,"xT1":424.9,"yT1":0,"xT2":1058.1,"yT2":0,"toosoon":0,"cond_shown":"randomdotsizeEA","ratio_trial":900,"smaller_num":"18","larger_num":"20","correct_side":1,"subjID":"AlejandroMontealegre29","gender":"No_gender","age":"No_age","school":"No_school"},{"start_time":1551900833145,"click_time":1551900834268,"finger_time":1551900833908,"fix_duration":1475.2684503125324,"trial":8,"RT":763,"MT":360,"sideResp":1,"stimulus":"img/900/equaldotsize/R/9_Ratio_900_L_18_R_20.png","xmouse":[816,816,816,816,816,816,816,816,816,816,816,816,816,816,816,816,816,816,816,816,816,816,816,816,816,816,816,816,816,816,816,816,816,816,816,816,816,806,790,769,738,712,707,703,701,698,679,668,660,655,650,634,621,602,567,543,508],"ymouse":[502,502,502,502,502,502,502,502,502,502,502,502,502,502,502,502,502,502,502,502,502,502,502,502,502,502,502,502,502,502,502,502,502,502,502,502,495,481,461,437,408,390,386,383,382,380,366,358,351,344,335,306,285,248,187,154,97],"timestamp_mouse":[3,23,43,64,83,104,123,143,164,183,203,223,244,263,283,305,323,343,363,384,404,423,443,464,483,503,524,543,564,584,603,624,644,663,684,703,723,744,763,783,804,823,843,863,883,903,923,943,964,983,1003,1024,1043,1063,1083,1104,1123],"xSR":741.5,"ySR":469.95,"xT1":424.9,"yT1":0,"xT2":1058.1,"yT2":0,"toosoon":0,"cond_shown":"equaldotsize","ratio_trial":900,"smaller_num":"18","larger_num":"20","correct_side":2,"subjID":"AlejandroMontealegre29","gender":"No_gender","age":"No_age","school":"No_school"},{"start_time":1551900838952,"click_time":1551900841188,"finger_time":1551900839848,"fix_duration":1362.513817629975,"trial":9,"RT":896,"MT":1340,"sideResp":1,"stimulus":"img/900/randomdotsizeEA/L/4_Ratio_900_L_20_R_18.png","xmouse":[771,771,771,771,771,771,771,771,771,771,771,771,771,771,771,771,771,771,771,771,771,771,771,771,771,771,771,771,771,771,771,771,772,772,772,772,772,772,772,772,772,772,772,772,772,762,749,727,699,669,641,599,583,571,561,553,550,549,548,547,540,536,532,528,524,518,511,508,506,504,503,503,503,503,503,503,503,503,503,503,503,503,503,503,503,503,503,503,503,503,503,503,503,503,503,503,503,503,503,503,503,503,503,503,503,503,503,503,503,503,503,503],"ymouse":[473,473,473,473,473,473,473,473,473,473,473,473,473,473,473,473,473,473,473,473,473,473,473,473,473,473,473,473,473,473,473,473,473,473,473,473,473,473,473,473,473,473,473,470,467,455,441,423,400,372,348,308,293,280,269,258,255,253,249,242,218,204,189,176,163,150,128,120,111,104,100,100,100,100,100,100,100,100,100,100,100,100,100,100,100,100,100,100,100,100,100,100,100,100,100,100,100,100,100,100,100,100,100,100,100,100,100,100,100,100,100,96],"timestamp_mouse":[21,37,56,76,96,116,136,156,176,197,216,236,257,277,296,316,336,356,376,396,417,436,457,477,496,516,536,557,577,597,617,636,656,677,696,717,737,756,777,797,817,837,856,876,896,917,937,956,978,996,1017,1036,1057,1076,1097,1117,1136,1156,1176,1196,1216,1236,1256,1276,1296,1317,1336,1356,1377,1396,1417,1437,1457,1477,1497,1516,1536,1556,1577,1596,1617,1636,1656,1676,1697,1717,1737,1756,1777,1797,1817,1836,1857,1876,1897,1917,1936,1957,1976,1996,2017,2036,2056,2077,2096,2116,2137,2156,2177,2197,2216,2236],"xSR":741.5,"ySR":469.95,"xT1":424.9,"yT1":0,"xT2":1058.1,"yT2":0,"toosoon":0,"cond_shown":"randomdotsizeEA","ratio_trial":900,"smaller_num":"18","larger_num":"20","correct_side":1,"subjID":"AlejandroMontealegre29","gender":"No_gender","age":"No_age","school":"No_school"},{"start_time":1551900844138,"click_time":1551900845788,"finger_time":1551900844948,"fix_duration":1369.1049089247435,"trial":10,"RT":810,"MT":840,"sideResp":2,"stimulus":"img/250/equaldotanddens/R/4_Ratio_250_L_3_R_12.png","xmouse":[758,758,758,758,758,758,758,758,758,758,758,758,758,758,758,758,758,758,758,758,758,758,758,758,758,758,758,758,758,758,758,758,758,758,758,758,758,758,758,758,758,756,756,762,764,767,769,775,781,784,790,797,838,849,879,898,910,927,931,933,936,939,944,949,953,962,971,979,991,994,998,1003,1012,1020,1023,1025,1026,1026,1026,1026,1026,1030,1060],"ymouse":[489,489,489,489,489,489,489,489,489,489,489,489,489,489,489,489,489,489,489,489,489,489,489,489,489,489,489,489,489,489,489,489,489,489,489,489,489,489,489,476,466,448,416,390,367,336,305,267,256,248,239,227,182,173,148,134,123,106,98,91,85,79,68,59,56,55,53,52,50,49,48,48,47,45,45,45,45,44,44,44,44,44,53],"timestamp_mouse":[10,30,53,71,90,110,130,151,170,191,211,231,250,271,291,311,331,350,370,391,410,431,450,471,490,511,530,550,570,591,612,631,650,671,690,710,731,750,770,790,810,831,850,871,890,911,930,950,970,990,1010,1030,1051,1070,1090,1111,1131,1150,1170,1190,1211,1230,1250,1271,1290,1310,1331,1350,1370,1390,1410,1431,1450,1471,1490,1511,1530,1550,1570,1590,1610,1630,1650],"xSR":741.5,"ySR":469.95,"xT1":424.9,"yT1":0,"xT2":1058.1,"yT2":0,"toosoon":0,"cond_shown":"equaldotanddens","ratio_trial":250,"smaller_num":"3","larger_num":"12","correct_side":2,"subjID":"AlejandroMontealegre29","gender":"No_gender","age":"No_age","school":"No_school"},{"start_time":1551900847209,"click_time":1551900848508,"finger_time":1551900847988,"fix_duration":398.2283343836318,"trial":11,"RT":779,"MT":520,"sideResp":2,"stimulus":"img/500/equaldotanddens/R/2_Ratio_500_L_3_R_6.png","xmouse":[807,807,807,807,807,807,807,807,807,807,807,807,807,807,807,807,807,807,807,807,807,807,807,807,807,807,807,807,807,807,807,807,807,807,807,808,809,811,817,835,857,870,878,883,886,888,892,901,916,953,970,978,981,981,982,985,990,996,1003,1011,1020,1021,1021,1023,1045,1072],"ymouse":[499,499,499,499,499,499,499,499,499,499,499,499,499,499,499,499,499,499,499,499,499,499,499,499,499,499,499,499,499,499,499,499,499,499,499,498,494,489,481,457,424,394,368,344,311,303,294,283,271,242,220,203,192,186,181,170,159,144,128,115,103,102,102,102,102,99],"timestamp_mouse":[0,20,40,59,79,99,119,140,159,179,199,219,239,260,280,299,320,339,359,379,400,419,440,459,479,499,520,540,559,579,599,619,640,659,679,699,719,740,760,779,799,819,839,860,880,899,919,939,959,980,999,1019,1039,1059,1080,1099,1119,1139,1159,1180,1199,1219,1240,1260,1280,1299],"xSR":741.5,"ySR":469.95,"xT1":424.9,"yT1":0,"xT2":1058.1,"yT2":0,"toosoon":0,"cond_shown":"equaldotanddens","ratio_trial":500,"smaller_num":"3","larger_num":"6","correct_side":2,"subjID":"AlejandroMontealegre29","gender":"No_gender","age":"No_age","school":"No_school"},{"start_time":1551900850510,"click_time":1551900852108,"finger_time":1551900851268,"fix_duration":1001.8184785591501,"trial":12,"RT":758,"MT":840,"sideResp":2,"stimulus":"img/900/equaldotanddens/R/5_Ratio_900_L_9_R_10.png","xmouse":[793,793,793,793,793,793,793,793,793,793,793,793,793,793,793,793,793,793,793,793,793,793,793,793,793,793,792,792,793,793,794,794,796,797,800,803,805,807,809,819,828,836,846,851,856,858,861,868,876,901,913,926,945,953,965,967,969,970,972,976,977,978,986,1003,1028,1035,1037,1038,1038,1038,1038,1041,1044,1047,1050,1050,1050,1051,1057,1066],"ymouse":[503,503,503,503,503,503,503,503,503,503,503,503,503,503,503,503,503,503,503,503,503,503,503,503,503,503,503,501,498,497,495,494,490,487,479,475,470,465,460,439,420,400,368,346,304,283,264,247,234,200,184,169,143,131,114,111,107,105,103,99,97,96,95,92,85,81,79,79,79,79,77,72,65,60,56,56,56,55,55,55],"timestamp_mouse":[18,38,59,79,98,119,138,158,178,199,218,238,258,279,298,319,339,358,379,399,418,438,458,479,498,519,539,558,579,598,618,638,659,679,699,718,738,758,779,798,818,839,859,878,898,918,938,958,978,998,1019,1039,1058,1078,1098,1118,1138,1158,1178,1198,1219,1238,1259,1279,1298,1318,1339,1359,1379,1398,1418,1439,1458,1478,1498,1518,1538,1558,1579,1598],"xSR":741.5,"ySR":469.95,"xT1":424.9,"yT1":0,"xT2":1058.1,"yT2":0,"toosoon":0,"cond_shown":"equaldotanddens","ratio_trial":900,"smaller_num":"9","larger_num":"10","correct_side":2,"subjID":"AlejandroMontealegre29","gender":"No_gender","age":"No_age","school":"No_school"},{"start_time":1551900853794,"click_time":1551900854908,"finger_time":1551900854508,"fix_duration":545.9768242216247,"trial":13,"RT":714,"MT":400,"sideResp":1,"stimulus":"img/250/equaldotanddens/L/1_Ratio_250_L_8_R_2.png","xmouse":[823,823,823,823,823,823,823,823,823,823,823,823,823,823,823,823,823,823,823,823,823,823,823,823,823,823,823,823,823,823,823,823,823,819,809,721,632,565,519,494,473,473,473,473,473,472,471,471,470,470,476,484,495,508,514,511],"ymouse":[505,505,505,505,505,505,505,505,505,505,505,505,505,505,505,505,505,505,505,505,505,505,505,505,505,505,505,505,505,505,505,505,505,496,483,381,288,228,189,172,160,159,159,159,159,157,153,152,151,151,150,149,143,129,107,84],"timestamp_mouse":[15,35,54,75,95,115,134,154,174,194,214,235,254,275,294,314,335,355,374,395,414,435,454,475,494,515,535,555,574,595,614,634,655,674,694,714,734,754,774,794,814,835,854,874,894,914,934,954,975,995,1014,1034,1054,1074,1094,1114],"xSR":741.5,"ySR":469.95,"xT1":424.9,"yT1":0,"xT2":1058.1,"yT2":0,"toosoon":0,"cond_shown":"equaldotanddens","ratio_trial":250,"smaller_num":"2","larger_num":"8","correct_side":1,"subjID":"AlejandroMontealegre29","gender":"No_gender","age":"No_age","school":"No_school"},{"start_time":1551900858112,"click_time":1551900859468,"finger_time":1551900858828,"fix_duration":943.4445510918247,"trial":14,"RT":716,"MT":640,"sideResp":2,"stimulus":"img/500/equaldotsize/R/15_Ratio_500_L_1_R_2.png","xmouse":[775,775,775,775,775,775,775,775,775,775,775,775,775,775,775,775,775,775,775,775,775,775,775,775,775,775,775,775,775,775,775,775,775,775,777,788,799,807,821,859,874,892,908,924,953,966,973,982,990,1002,1012,1015,1017,1019,1019,1021,1022,1024,1027,1030,1033,1037,1041,1044,1049,1051,1057,1061],"ymouse":[485,485,485,485,485,485,485,485,485,485,485,485,485,485,485,485,485,485,485,485,485,485,485,485,485,485,485,485,485,485,485,485,485,485,483,466,445,417,389,317,293,268,245,222,179,155,134,116,102,81,59,49,42,39,37,34,33,31,30,29,28,28,28,28,28,28,29,31],"timestamp_mouse":[17,36,57,77,96,117,137,156,177,197,216,237,257,276,296,316,337,356,376,396,416,437,456,476,496,516,536,557,576,597,616,636,657,677,697,716,737,756,776,797,816,836,856,876,898,916,936,956,976,997,1017,1036,1056,1076,1097,1116,1137,1156,1176,1197,1216,1236,1256,1277,1296,1315,1336,1356],"xSR":741.5,"ySR":469.95,"xT1":424.9,"yT1":0,"xT2":1058.1,"yT2":0,"toosoon":0,"cond_shown":"equaldotsize","ratio_trial":500,"smaller_num":"1","larger_num":"2","correct_side":2,"subjID":"AlejandroMontealegre29","gender":"No_gender","age":"No_age","school":"No_school"},{"start_time":1551900861011,"click_time":1551900862488,"finger_time":1551900861828,"fix_duration":561.1370158702874,"trial":15,"RT":817,"MT":660,"sideResp":1,"stimulus":"img/900/randomdotsizeEA/L/1_Ratio_900_L_10_R_9.png","xmouse":[830,830,830,830,830,830,830,830,830,830,830,830,830,830,830,830,830,830,830,830,830,830,830,830,830,830,830,830,830,830,830,830,830,830,830,830,830,830,830,830,827,828,835,838,842,850,853,857,863,869,882,892,897,901,907,918,928,936,940,944,933,925,892,866,835,749,708,680,661,643,622,571,531,509],"ymouse":[531,531,531,531,531,531,531,531,531,531,531,531,531,531,531,531,531,531,531,531,531,531,531,531,531,531,531,531,531,531,531,531,531,531,531,531,531,519,506,473,426,412,395,387,381,375,372,367,364,360,345,336,332,324,314,304,293,283,275,264,227,216,183,164,147,111,98,93,93,93,93,88,78,71],"timestamp_mouse":[20,38,57,78,98,118,137,157,178,197,218,238,257,277,298,317,337,358,378,397,418,437,457,477,498,518,537,557,578,597,617,638,658,678,698,717,738,758,777,798,817,837,857,877,898,917,937,958,978,997,1017,1038,1057,1078,1098,1117,1137,1158,1177,1197,1217,1237,1257,1278,1297,1317,1337,1357,1377,1398,1417,1438,1457,1477],"xSR":741.5,"ySR":469.95,"xT1":424.9,"yT1":0,"xT2":1058.1,"yT2":0,"toosoon":0,"cond_shown":"randomdotsizeEA","ratio_trial":900,"smaller_num":"9","larger_num":"10","correct_side":1,"subjID":"AlejandroMontealegre29","gender":"No_gender","age":"No_age","school":"No_school"},{"start_time":1551900863679,"click_time":1551900864788,"finger_time":1551900864488,"fix_duration":250,"trial":16,"RT":809,"MT":300,"sideResp":2,"stimulus":"img/250/equaldotsize/R/13_Ratio_250_L_2_R_8.png","xmouse":[753,753,753,753,753,753,753,753,753,753,753,753,753,753,753,753,753,753,753,753,753,753,753,753,753,753,753,753,753,753,753,753,753,755,762,769,776,792,815,841,872,901,936,982,995,1006,1017,1034,1040,1042,1043,1043,1043,1048,1058,1077],"ymouse":[527,527,527,527,527,527,527,527,527,527,527,527,527,527,527,527,527,527,527,527,527,527,527,527,527,527,527,527,527,527,527,527,527,526,523,519,513,501,489,475,452,426,390,342,318,300,284,247,221,208,195,179,138,103,79,56],"timestamp_mouse":[9,29,53,69,89,110,129,150,169,189,210,229,249,270,289,310,329,350,369,390,409,430,449,469,489,510,529,550,570,590,610,630,650,669,689,709,730,749,770,789,809,830,850,869,889,910,929,949,970,989,1009,1030,1049,1069,1089,1109],"xSR":741.5,"ySR":469.95,"xT1":424.9,"yT1":0,"xT2":1058.1,"yT2":0,"toosoon":0,"cond_shown":"equaldotsize","ratio_trial":250,"smaller_num":"2","larger_num":"8","correct_side":2,"subjID":"AlejandroMontealegre29","gender":"No_gender","age":"No_age","school":"No_school"},{"start_time":1551900868189,"click_time":1551900869748,"finger_time":1551900868989,"fix_duration":938.073370300576,"trial":17,"RT":800,"MT":759,"sideResp":2,"stimulus":"img/750/equaldotsize/R/4_Ratio_750_L_15_R_20.png","xmouse":[781,781,781,781,781,781,781,781,781,781,781,781,781,781,781,782,782,782,782,782,782,782,782,780,778,775,775,775,775,775,774,774,774,774,774,774,774,774,781,788,797,817,833,873,887,892,899,906,913,917,922,934,945,968,976,983,995,1011,1043,1050,1050,1050,1050,1050,1050,1050,1050,1050,1050,1050,1050,1050,1050,1050,1050,1051,1054,1058,1069],"ymouse":[519,519,519,519,519,519,519,519,519,519,519,519,519,519,519,518,517,516,514,514,513,513,513,513,511,508,507,507,507,507,506,506,506,506,506,505,504,500,484,470,453,418,390,308,256,218,197,187,178,175,169,152,139,109,97,87,78,72,63,59,59,59,59,59,59,59,59,59,59,59,59,59,59,59,59,59,60,63,68],"timestamp_mouse":[0,19,39,59,80,99,119,139,160,179,199,220,239,260,279,300,319,339,359,379,400,419,439,460,479,500,520,540,560,579,599,619,639,659,680,699,720,739,759,779,800,819,840,859,879,899,919,939,959,980,999,1020,1040,1059,1079,1099,1119,1140,1159,1179,1199,1219,1239,1259,1279,1299,1319,1339,1359,1380,1399,1420,1440,1459,1480,1500,1519,1539,1559],"xSR":741.5,"ySR":469.95,"xT1":424.9,"yT1":0,"xT2":1058.1,"yT2":0,"toosoon":0,"cond_shown":"equaldotsize","ratio_trial":750,"smaller_num":"15","larger_num":"20","correct_side":2,"subjID":"AlejandroMontealegre29","gender":"No_gender","age":"No_age","school":"No_school"},{"start_time":1551900872820,"click_time":1551900885770,"finger_time":1551900873828,"fix_duration":250.5496603614651,"trial":18,"RT":1008,"MT":11942,"sideResp":1,"stimulus":"img/750/randomdotsizeEA/L/14_Ratio_750_L_8_R_6.png","xmouse":[772,772,771,770,770,770,770,766,764,762,762,762,759,758,758,758,758,757,754,752,750,750,750,749,748,747,747,747,747,747,747,747,747,747,747,747,747,747,747,747,747,747,748,751,755,760,768,790,807,826,844,879,893,907,917,923,931,931,931,931,931,931,931,931,931,931,931,931,931,933,933,918,908,906,906,906,906,835,751,687,687,687,687,687,687,687,687,687,687,687,687,687,687,687,687,687,687,687,687,687,687,687,687,687,687,687,687,687,687,687,687,687,687,687,687,687,687,687,687,687,687,687,687,687,687,687,687,687,687,687,687,687,687,687,687,687,687,687,687,687,687,687,687,687,687,687,687,687,687,687,687,687,687,687,687,687,687,687,687,687,687,687,687,687,687,687,687,687,687,687,687,687,687,687,687,687,687,687,687,687,687,687,687,687,687,687,687,687,687,687,687,687,687,687,687,687,687,687,687,687,687,687,687,687,687,687,687,687,687,687,687,687,687,687,687,687,687,687,687,687,687,687,687,687,687,687,687,687,687,687,687,687,687,687,687,687,687,687,687,687,687,687,687,687,687,687,687,687,687,687,687,687,687,687,687,687,687,687,687,687,687,687,687,687,687,687,687,687,687,687,687,687,687,687,687,687,687,687,687,687,687,687,687,687,687,687,687,687,687,687,687,687,687,687,687,687,687,687,687,687,687,687,687,687,687,687,687,687,687,687,687,687,687,687,687,687,687,687,687,687,687,687,687,687,687,687,687,687,687,687,687,687,687,687,687,687,687,687,687,687,687,687,687,687,687,687,687,687,687,687,687,687,687,687,687,687,687,687,687,687,687,687,687,687,687,687,687,687,687,687,687,687,687,687,687,687,687,687,687,687,687,687,687,687,687,687,687,687,687,687,687,687,687,687,687,687,687,687,687,687,687,687,687,687,687,687,687,687,687,687,687,687,687,687,687,687,687,687,687,687,687,687,687,687,687,687,687,687,687,687,687,687,687,687,687,687,687,687,687,687,687,687,687,687,687,687,687,687,687,687,687,687,687,687,687,687,687,687,687,687,687,687,687,687,687,687,687,687,687,687,687,687,687,687,687,687,687,687,687,687,687,687,687,687,687,687,687,687,687,687,687,687,687,687,687,687,687,687,687,687,687,687,687,687,687,687,687,687,687,687,687,687,687,687,687,687,687,687,687,687,687,687,687,687,687,687,687,687,687,687,687,687,687,687,687,687,687,687,687,687,687,687,687,687,687,687,687,687,687,687,687,687,687,687,687,687,687,687,687,687,687,687,687,687,687,687,687,687,687,687,687,687,687,687,687,687,687,687,687,687,687,687,687,687,687,687,687,687,687,687,687,687,687,687,687,687,687,687,687,687,778,816,841,846,846,846,846,846,843,841,838,834,825,816,813,809,805,797,784,781,781,781,781,781,781,780,779,759,743,725,701,695,684,635,596,596,596,596,596,596,596,596,596,596,596,596,596,468],"ymouse":[490,486,485,485,485,485,485,485,485,484,484,484,484,484,484,484,484,484,484,484,484,484,484,484,484,483,483,483,483,483,483,483,483,483,483,483,483,482,482,482,482,482,481,481,481,481,481,481,481,481,481,479,477,472,470,467,465,465,465,465,465,465,465,465,465,465,465,465,465,465,465,470,472,473,473,473,473,499,577,710,710,710,710,710,710,710,710,710,710,710,710,710,710,710,710,710,710,710,710,710,710,710,710,710,710,710,710,710,710,710,710,710,710,710,710,710,710,710,710,710,710,710,710,710,710,710,710,710,710,710,710,710,710,710,710,710,710,710,710,710,710,710,710,710,710,710,710,710,710,710,710,710,710,710,710,710,710,710,710,710,710,710,710,710,710,710,710,710,710,710,710,710,710,710,710,710,710,710,710,710,710,710,710,710,710,710,710,710,710,710,710,710,710,710,710,710,710,710,710,710,710,710,710,710,710,710,710,710,710,710,710,710,710,710,710,710,710,710,710,710,710,710,710,710,710,710,710,710,710,710,710,710,710,710,710,710,710,710,710,710,710,710,710,710,710,710,710,710,710,710,710,710,710,710,710,710,710,710,710,710,710,710,710,710,710,710,710,710,710,710,710,710,710,710,710,710,710,710,710,710,710,710,710,710,710,710,710,710,710,710,710,710,710,710,710,710,710,710,710,710,710,710,710,710,710,710,710,710,710,710,710,710,710,710,710,710,710,710,710,710,710,710,710,710,710,710,710,710,710,710,710,710,710,710,710,710,710,710,710,710,710,710,710,710,710,710,710,710,710,710,710,710,710,710,710,710,710,710,710,710,710,710,710,710,710,710,710,710,710,710,710,710,710,710,710,710,710,710,710,710,710,710,710,710,710,710,710,710,710,710,710,710,710,710,710,710,710,710,710,710,710,710,710,710,710,710,710,710,710,710,710,710,710,710,710,710,710,710,710,710,710,710,710,710,710,710,710,710,710,710,710,710,710,710,710,710,710,710,710,710,710,710,710,710,710,710,710,710,710,710,710,710,710,710,710,710,710,710,710,710,710,710,710,710,710,710,710,710,710,710,710,710,710,710,710,710,710,710,710,710,710,710,710,710,710,710,710,710,710,710,710,710,710,710,710,710,710,710,710,710,710,710,710,710,710,710,710,710,710,710,710,710,710,710,710,710,710,710,710,710,710,710,710,710,710,710,710,710,710,710,710,710,710,710,710,710,710,710,710,710,710,710,710,710,710,710,710,710,710,710,710,710,710,710,710,710,710,710,710,710,710,710,710,710,710,710,710,710,710,710,710,710,710,710,710,710,710,710,710,710,710,710,710,710,710,710,710,710,710,710,710,710,710,710,710,710,710,710,710,710,715,692,667,640,638,638,638,637,636,635,633,629,618,602,593,583,570,553,530,527,527,527,527,527,527,526,526,513,501,485,458,444,384,191,37,37,37,37,37,37,37,37,37,37,37,37,37,3],"timestamp_mouse":[8,33,48,69,88,109,128,148,168,189,208,228,248,268,289,308,328,348,368,389,408,428,448,468,489,508,529,548,568,589,608,628,649,669,688,709,728,749,769,789,809,829,848,869,889,908,928,948,968,989,1008,1029,1048,1069,1089,1109,1129,1149,1168,1189,1209,1229,1248,1269,1288,1308,1329,1348,1368,1388,1408,1428,1448,1468,1488,1509,1529,1548,1568,1588,1608,1629,1649,1668,1689,1708,1729,1748,1769,1788,1809,1829,1848,1869,1888,1908,1929,1948,1969,1988,2009,2028,2049,2069,2088,2108,2128,2149,2168,2188,2208,2229,2248,2268,2288,2308,2328,2349,2369,2388,2408,2429,2448,2468,2488,2509,2528,2549,2568,2589,2608,2628,2648,2668,2688,2708,2729,2748,2768,2790,2808,2829,2848,2868,2888,2908,2929,2949,2968,2989,3008,3029,3049,3068,3089,3108,3130,3148,3168,3189,3208,3229,3248,3268,3288,3308,3328,3348,3368,3388,3408,3428,3450,3468,3488,3509,3529,3549,3568,3589,3609,3632,3648,3668,3688,3708,3728,3749,3769,3788,3808,3829,3849,3868,3889,3908,3928,3949,3968,3988,4008,4028,4048,4068,4088,4108,4129,4148,4168,4189,4209,4229,4249,4268,4288,4308,4328,4348,4368,4389,4408,4428,4448,4469,4488,4509,4529,4548,4569,4588,4609,4628,4648,4668,4689,4709,4729,4749,4768,4788,4809,4828,4848,4868,4889,4909,4929,4948,4968,4989,5010,5028,5048,5068,5089,5109,5128,5148,5169,5189,5209,5228,5248,5268,5288,5308,5328,5348,5368,5389,5408,5428,5448,5468,5488,5508,5528,5548,5569,5589,5608,5628,5648,5668,5688,5709,5728,5748,5769,5788,5809,5828,5848,5868,5888,5908,5928,5948,5968,5988,6009,6029,6048,6068,6089,6108,6128,6149,6168,6189,6208,6229,6248,6268,6289,6308,6329,6349,6369,6389,6409,6428,6448,6468,6488,6508,6528,6548,6568,6588,6609,6628,6648,6668,6688,6708,6728,6748,6769,6788,6809,6828,6849,6869,6888,6908,6928,6948,6969,6989,7008,7029,7049,7068,7089,7108,7129,7148,7168,7189,7208,7229,7248,7268,7289,7309,7329,7349,7369,7388,7408,7428,7448,7470,7489,7509,7529,7548,7568,7588,7608,7628,7648,7669,7689,7708,7728,7748,7769,7788,7808,7829,7848,7869,7889,7908,7928,7948,7968,7989,8009,8028,8048,8069,8089,8108,8128,8148,8168,8188,8209,8228,8248,8268,8289,8309,8328,8348,8369,8389,8408,8429,8448,8468,8488,8508,8528,8548,8568,8589,8608,8629,8649,8668,8688,8708,8728,8748,8769,8789,8808,8828,8849,8868,8888,8909,8929,8949,8969,8989,9008,9028,9048,9068,9089,9109,9128,9149,9169,9189,9209,9229,9249,9268,9288,9308,9329,9349,9369,9389,9408,9428,9448,9469,9489,9508,9529,9549,9569,9588,9608,9628,9649,9669,9689,9709,9728,9749,9768,9788,9809,9828,9849,9868,9888,9908,9928,9949,9968,9988,10008,10028,10049,10068,10088,10108,10128,10148,10168,10188,10208,10228,10249,10269,10289,10308,10328,10348,10369,10388,10408,10428,10449,10468,10489,10509,10530,10549,10568,10588,10608,10628,10648,10668,10689,10708,10729,10749,10768,10788,10808,10828,10848,10868,10888,10908,10928,10949,10968,10988,11008,11028,11049,11068,11088,11109,11129,11148,11169,11188,11209,11228,11249,11268,11288,11308,11328,11349,11369,11390,11409,11428,11449,11468,11489,11509,11529,11548,11569,11588,11608,11629,11649,11669,11688,11709,11728,11748,11769,11788,11808,11828,11849,11868,11889,11909,11928,11950,11969,11988,12008,12028,12050,12068,12088,12108,12128,12148,12168,12188,12208,12228,12248,12268,12288,12309,12328,12349,12368,12388,12408,12428,12449,12469,12489,12509,12528,12549,12568,12588,12608,12629,12649,12668,12688,12708,12728,12749,12768,12789,12809,12828,12849,12868,12888,12908,12928,12950],"xSR":741.5,"ySR":469.95,"xT1":424.9,"yT1":0,"xT2":1058.1,"yT2":0,"toosoon":0,"cond_shown":"randomdotsizeEA","ratio_trial":750,"smaller_num":"6","larger_num":"8","correct_side":1,"subjID":"AlejandroMontealegre29","gender":"No_gender","age":"No_age","school":"No_school"},{"start_time":1551900888479,"click_time":1551900889828,"finger_time":1551900889248,"fix_duration":250,"trial":19,"RT":769,"MT":580,"sideResp":1,"stimulus":"img/250/equaldotanddens/L/7_Ratio_250_L_8_R_2.png","xmouse":[784,784,784,784,784,784,784,784,784,784,784,784,784,784,784,784,784,784,784,784,784,784,784,784,784,784,784,784,784,784,784,784,784,784,784,780,771,765,757,750,729,719,710,701,693,683,680,673,665,655,631,618,604,596,591,587,586,586,584,579,566,559,553,548,543,530,525,523],"ymouse":[522,522,522,522,522,522,522,522,522,522,522,522,522,522,522,522,522,522,522,522,522,522,522,522,522,522,522,522,522,522,522,522,522,518,515,500,482,470,457,441,403,384,365,348,335,321,316,309,302,289,258,243,228,218,212,208,207,207,204,200,187,176,164,147,129,96,83,81],"timestamp_mouse":[9,29,50,70,89,109,129,149,169,189,209,229,249,270,289,309,329,349,369,389,409,429,450,469,490,509,530,549,569,589,609,629,649,669,690,709,730,749,769,789,809,829,849,869,889,909,929,949,969,989,1009,1029,1049,1070,1089,1109,1129,1149,1169,1190,1209,1229,1250,1269,1289,1309,1330,1349],"xSR":741.5,"ySR":469.95,"xT1":424.9,"yT1":0,"xT2":1058.1,"yT2":0,"toosoon":0,"cond_shown":"equaldotanddens","ratio_trial":250,"smaller_num":"2","larger_num":"8","correct_side":1,"subjID":"AlejandroMontealegre29","gender":"No_gender","age":"No_age","school":"No_school"},{"start_time":1551900891858,"click_time":1551900893908,"finger_time":1551900892568,"fix_duration":788.0611545189967,"trial":20,"RT":710,"MT":1340,"sideResp":2,"stimulus":"img/500/equaldotsize/R/15_Ratio_500_L_1_R_2.png","xmouse":[782,782,782,782,782,782,782,782,782,782,782,782,782,782,782,782,782,782,782,782,782,782,782,782,782,782,782,782,782,782,782,784,788,795,803,817,831,864,878,892,909,946,959,977,993,1004,1013,1018,1023,1028,1033,1039,1045,1048,1049,1051,1053,1053,1053,1054,1055,1059,1061,1066,1071,1072,1073,1073,1073,1072,1072,1072,1071,1071,1071,1071,1071,1071,1071,1071,1071,1067,1062,1057,1055,1054,1054,1054,1054,1054,1054,1054,1054,1054,1054,1054,1056,1057,1057,1057,1057,1057,1059],"ymouse":[493,493,493,493,493,493,493,493,493,493,493,493,493,493,493,493,493,493,493,493,493,493,493,493,493,493,493,493,493,493,493,492,488,483,476,465,451,399,374,353,332,303,296,288,281,274,256,247,240,232,224,217,205,197,192,187,181,178,178,176,173,159,152,141,132,127,121,111,110,109,109,109,109,109,109,109,109,109,109,109,109,105,102,101,100,99,99,90,88,88,88,88,88,88,88,87,84,81,79,79,79,79,79],"timestamp_mouse":[10,31,51,71,91,110,130,150,170,191,210,230,251,271,291,310,331,350,371,390,411,431,450,471,490,511,532,551,571,591,610,630,650,671,690,710,730,751,770,790,810,831,850,871,890,912,931,950,970,992,1010,1031,1050,1070,1091,1110,1130,1150,1170,1190,1211,1231,1250,1270,1290,1311,1330,1351,1370,1390,1411,1430,1451,1470,1490,1511,1531,1551,1570,1590,1610,1631,1650,1670,1690,1711,1730,1750,1770,1791,1810,1831,1851,1871,1891,1910,1931,1950,1970,1990,2010,2030,2050],"xSR":741.5,"ySR":469.95,"xT1":424.9,"yT1":0,"xT2":1058.1,"yT2":0,"toosoon":0,"cond_shown":"equaldotsize","ratio_trial":500,"smaller_num":"1","larger_num":"2","correct_side":2,"subjID":"AlejandroMontealegre29","gender":"No_gender","age":"No_age","school":"No_school"},{"start_time":1551900896130,"click_time":1551900897068,"finger_time":1551900896728,"fix_duration":1180.1823954594256,"trial":21,"RT":598,"MT":340,"sideResp":1,"stimulus":"img/250/equaldotanddens/L/15_Ratio_250_L_12_R_3.png","xmouse":[816,816,816,816,816,816,816,816,816,816,816,816,816,816,817,818,819,820,821,822,823,824,824,825,825,825,825,825,825,825,817,811,796,739,679,642,616,596,579,578,577,576,575,562,550,534,518],"ymouse":[495,495,495,495,495,495,495,495,495,495,495,495,495,495,495,495,495,494,493,493,491,491,490,490,490,490,490,489,480,468,439,415,387,301,240,197,166,141,110,109,107,106,105,93,86,79,75],"timestamp_mouse":[18,38,58,79,98,120,138,158,178,198,218,238,259,279,298,318,338,358,378,400,418,439,458,478,499,518,538,558,578,598,618,638,658,678,698,718,738,759,778,798,818,838,859,878,898,919,938],"xSR":741.5,"ySR":469.95,"xT1":424.9,"yT1":0,"xT2":1058.1,"yT2":0,"toosoon":0,"cond_shown":"equaldotanddens","ratio_trial":250,"smaller_num":"3","larger_num":"12","correct_side":1,"subjID":"AlejandroMontealegre29","gender":"No_gender","age":"No_age","school":"No_school"},{"start_time":1551900901143,"click_time":1551900902450,"finger_time":1551900901868,"fix_duration":674.7473000380772,"trial":22,"RT":725,"MT":582,"sideResp":1,"stimulus":"img/900/randomdotsizeEA/R/9_Ratio_900_L_18_R_20.png","xmouse":[790,790,790,790,790,790,790,790,790,790,790,790,790,789,786,785,784,784,784,784,784,784,784,784,784,784,784,784,784,784,784,784,784,784,781,767,703,679,596,583,572,569,566,563,547,530,502,468,403,396,393,392,391,391,389,389,389,392,404,409,416,429,440,456,461,465],"ymouse":[515,515,515,515,515,515,515,515,515,515,515,515,515,515,515,515,515,515,515,515,515,515,515,515,515,515,515,515,515,515,515,515,515,515,515,499,456,442,378,366,356,353,350,347,326,310,287,260,176,156,148,142,138,134,127,124,120,116,110,107,107,105,104,101,100,99],"timestamp_mouse":[6,25,45,66,85,106,125,146,166,185,205,225,245,266,286,305,326,346,366,385,406,427,446,466,486,505,525,546,565,585,605,627,646,666,685,706,725,745,766,785,805,825,845,866,885,906,925,946,966,985,1005,1027,1045,1065,1085,1106,1125,1146,1166,1185,1205,1225,1245,1266,1285,1307],"xSR":741.5,"ySR":469.95,"xT1":424.9,"yT1":0,"xT2":1058.1,"yT2":0,"toosoon":0,"cond_shown":"randomdotsizeEA","ratio_trial":900,"smaller_num":"18","larger_num":"20","correct_side":2,"subjID":"AlejandroMontealegre29","gender":"No_gender","age":"No_age","school":"No_school"},{"start_time":1551900903939,"click_time":1551900905528,"finger_time":1551900904588,"fix_duration":250,"trial":23,"RT":649,"MT":940,"sideResp":2,"stimulus":"img/900/equaldotanddens/L/1_Ratio_900_L_10_R_9.png","xmouse":[759,759,759,759,759,759,759,759,759,759,759,759,759,759,759,759,759,759,759,759,759,759,759,759,759,759,759,759,759,759,759,760,759,755,733,725,723,724,730,749,761,770,776,780,786,791,799,806,815,845,862,881,899,918,953,975,982,988,991,994,998,1003,1011,1019,1035,1037,1037,1037,1037,1038,1041,1046,1050,1052,1055,1060,1064,1068,1070,1071],"ymouse":[473,473,473,473,473,473,473,473,473,473,473,473,473,473,473,473,473,473,473,473,473,473,473,473,473,473,473,473,473,473,473,473,462,456,424,410,400,395,389,374,363,352,339,329,317,310,297,289,279,256,243,229,216,202,181,166,160,156,153,151,148,144,138,133,122,121,121,121,121,121,118,115,114,113,112,109,106,102,100,97],"timestamp_mouse":[10,29,49,69,90,110,130,150,170,190,211,229,250,270,289,309,329,350,371,389,410,430,450,469,490,509,529,550,569,590,610,630,649,669,689,709,729,749,769,789,809,829,850,870,889,909,929,949,969,989,1009,1029,1049,1069,1089,1109,1129,1149,1169,1189,1209,1229,1250,1270,1289,1309,1330,1350,1369,1389,1409,1430,1449,1469,1489,1509,1529,1549,1569,1589],"xSR":741.5,"ySR":469.95,"xT1":424.9,"yT1":0,"xT2":1058.1,"yT2":0,"toosoon":0,"cond_shown":"equaldotanddens","ratio_trial":900,"smaller_num":"9","larger_num":"10","correct_side":1,"subjID":"AlejandroMontealegre29","gender":"No_gender","age":"No_age","school":"No_school"},{"start_time":1551900909087,"click_time":1551900910989,"finger_time":1551900909948,"fix_duration":1177.5987689551769,"trial":24,"RT":861,"MT":1041,"sideResp":2,"stimulus":"img/900/randomdotsizeEA/L/4_Ratio_900_L_20_R_18.png","xmouse":[766,766,766,766,766,766,766,766,766,766,766,766,766,766,766,766,766,766,766,766,766,766,766,766,766,766,766,766,766,766,766,766,766,766,766,766,766,766,766,767,763,760,758,687,607,547,507,461,390,375,372,371,371,371,371,371,380,420,442,459,472,482,485,483,476,469,461,449,449,449,449,449,449,449,468,514,587,947,1129,1298,1410,1489,1553,1553,1553,1553,1553,1553,1553,1553,1553,1553,1553,1267,1229,1153],"ymouse":[555,555,555,555,555,555,555,555,555,555,555,555,555,555,555,555,555,555,555,555,555,555,555,555,555,555,555,555,555,555,555,555,555,555,555,555,555,555,555,553,545,539,521,423,384,353,335,315,283,273,270,269,269,269,269,269,264,253,246,240,232,224,215,197,186,178,171,164,164,164,164,164,164,163,160,157,157,153,144,131,109,84,48,48,48,48,48,48,48,48,48,48,48,9,19,39],"timestamp_mouse":[3,21,42,62,82,102,122,141,161,182,202,221,243,261,282,301,322,342,362,381,402,422,441,461,482,501,522,541,562,581,602,622,642,662,682,701,721,742,761,781,801,821,842,861,881,901,922,942,962,981,1001,1021,1042,1062,1081,1101,1121,1142,1161,1181,1202,1222,1242,1261,1281,1301,1322,1343,1361,1381,1401,1421,1441,1461,1482,1501,1522,1542,1561,1581,1602,1621,1641,1661,1681,1701,1721,1741,1763,1782,1801,1821,1841,1861,1881,1902],"xSR":741.5,"ySR":469.95,"xT1":424.9,"yT1":0,"xT2":1058.1,"yT2":0,"toosoon":0,"cond_shown":"randomdotsizeEA","ratio_trial":900,"smaller_num":"18","larger_num":"20","correct_side":1,"subjID":"AlejandroMontealegre29","gender":"No_gender","age":"No_age","school":"No_school"},{"start_time":1551900916295,"click_time":1551900918368,"finger_time":1551900917228,"fix_duration":1426.2288178920433,"trial":25,"RT":933,"MT":1140,"sideResp":1,"stimulus":"img/900/equaldotsize/L/8_Ratio_900_L_20_R_18.png","xmouse":[827,827,827,827,827,827,827,827,827,827,827,827,827,827,827,827,827,827,827,827,827,827,827,827,827,827,827,827,827,827,827,827,827,827,827,827,827,827,827,827,827,827,827,827,827,809,782,729,713,704,700,692,687,684,681,676,672,666,662,658,656,652,633,623,613,603,589,537,497,454,415,391,381,378,378,378,378,378,378,378,378,379,394,398,400,401,401,401,401,401,401,403,405,410,411,411,411,412,412,415,418,420,421,430],"ymouse":[514,514,514,514,514,514,514,514,514,514,514,514,514,514,514,514,514,514,514,514,514,514,514,514,514,514,514,514,514,514,514,514,514,514,514,514,514,514,514,514,514,514,514,514,506,487,461,400,379,363,352,339,328,323,316,309,301,290,284,278,273,266,241,231,219,210,194,154,128,104,84,70,64,61,61,61,61,61,61,61,61,60,59,58,58,58,58,58,58,58,58,58,57,57,57,57,57,57,57,57,57,57,57,57],"timestamp_mouse":[13,33,54,73,93,114,133,153,174,195,214,234,254,274,293,313,333,354,373,394,413,434,453,474,494,514,533,553,573,593,614,633,653,673,694,714,734,753,774,794,814,834,854,873,893,914,933,953,973,994,1014,1034,1054,1073,1093,1114,1133,1154,1173,1194,1213,1233,1253,1273,1293,1313,1334,1354,1373,1393,1413,1434,1454,1473,1493,1513,1533,1554,1573,1593,1613,1634,1653,1673,1693,1713,1733,1754,1773,1793,1813,1833,1853,1874,1893,1913,1934,1954,1973,1993,2014,2033,2053,2073],"xSR":741.5,"ySR":469.95,"xT1":424.9,"yT1":0,"xT2":1058.1,"yT2":0,"toosoon":0,"cond_shown":"equaldotsize","ratio_trial":900,"smaller_num":"18","larger_num":"20","correct_side":1,"subjID":"AlejandroMontealegre29","gender":"No_gender","age":"No_age","school":"No_school"},{"start_time":1551900920567,"click_time":1551900922168,"finger_time":1551900921708,"fix_duration":418.4169468440883,"trial":26,"RT":1141,"MT":460,"sideResp":1,"stimulus":"img/900/randomdotsizeEA/R/11_Ratio_900_L_18_R_20.png","xmouse":[756,756,756,756,756,756,756,756,756,756,756,756,756,756,756,756,757,757,759,759,760,760,760,760,760,760,760,760,760,760,760,760,760,760,760,760,760,760,760,760,760,760,760,760,760,760,760,760,760,760,760,760,760,760,760,760,745,724,700,685,655,632,608,583,554,512,503,499,499,499,499,496,492,489,484,482,481,480,480,478,472],"ymouse":[523,523,523,523,523,523,523,523,523,523,523,523,523,523,523,523,523,523,522,522,522,522,522,522,522,522,522,522,522,522,522,522,522,522,522,522,522,522,522,522,522,522,522,522,522,522,522,522,522,522,522,522,522,522,522,521,509,493,468,448,395,355,315,271,234,188,178,172,172,172,171,162,147,135,123,116,112,110,109,103,80],"timestamp_mouse":[3,21,41,61,81,102,122,142,162,182,202,222,242,262,281,301,323,342,362,382,402,421,442,462,481,502,522,542,562,581,602,621,641,661,681,701,721,742,761,781,801,822,841,861,881,901,921,941,962,981,1002,1021,1042,1062,1082,1101,1121,1141,1162,1181,1201,1221,1242,1261,1281,1301,1321,1341,1361,1383,1401,1421,1442,1461,1481,1501,1521,1541,1562,1581,1601],"xSR":741.5,"ySR":469.95,"xT1":424.9,"yT1":0,"xT2":1058.1,"yT2":0,"toosoon":0,"cond_shown":"randomdotsizeEA","ratio_trial":900,"smaller_num":"18","larger_num":"20","correct_side":2,"subjID":"AlejandroMontealegre29","gender":"No_gender","age":"No_age","school":"No_school"},{"start_time":1551900924455,"click_time":1551900925608,"finger_time":1551900924788,"fix_duration":265.92432245404984,"trial":27,"RT":333,"MT":820,"sideResp":1,"stimulus":"img/500/equaldotsize/L/10_Ratio_500_L_4_R_2.png","xmouse":[777,777,777,777,777,777,777,777,777,777,777,777,777,778,778,782,786,789,793,796,801,803,805,810,814,819,828,831,834,836,836,832,822,806,782,730,700,679,665,662,662,655,639,620,601,568,554,549,540,529,522,520,520,518,517,510,510,513],"ymouse":[498,498,498,498,498,498,498,498,498,498,497,497,496,494,492,476,463,453,442,434,424,417,412,403,395,384,364,355,347,338,320,304,291,275,257,230,218,209,205,203,203,199,194,188,182,174,170,169,164,159,155,154,154,152,147,127,108,82],"timestamp_mouse":[13,34,53,73,93,114,134,153,174,193,214,233,253,274,294,313,333,353,374,394,413,433,453,473,493,513,533,554,574,593,613,634,653,674,693,714,733,754,773,794,813,834,854,873,893,914,933,954,973,993,1013,1033,1053,1073,1093,1113,1133,1153],"xSR":741.5,"ySR":469.95,"xT1":424.9,"yT1":0,"xT2":1058.1,"yT2":0,"toosoon":0,"cond_shown":"equaldotsize","ratio_trial":500,"smaller_num":"2","larger_num":"4","correct_side":1,"subjID":"AlejandroMontealegre29","gender":"No_gender","age":"No_age","school":"No_school"},{"start_time":1551900928360,"click_time":1551900930329,"finger_time":1551900929188,"fix_duration":250,"trial":28,"RT":828,"MT":1141,"sideResp":2,"stimulus":"img/500/randomdotsizeEA/R/3_Ratio_500_L_10_R_20.png","xmouse":[773,773,773,773,773,773,773,773,773,773,773,773,773,773,773,773,773,773,773,773,773,773,773,773,773,773,773,773,773,773,773,773,773,773,773,773,773,774,776,779,784,787,788,788,789,790,790,790,791,795,800,809,813,816,818,818,819,819,819,819,817,809,799,783,761,746,727,720,715,710,707,707,713,737,764,796,839,859,881,900,920,945,958,982,999,1010,1017,1019,1021,1021,1022,1024,1027,1037,1042,1044,1047,1054,1065],"ymouse":[524,524,524,524,524,524,524,524,524,524,524,524,524,524,524,524,524,524,524,524,524,524,524,524,524,524,524,524,524,524,524,524,524,524,524,524,524,520,515,503,485,457,451,446,444,443,443,442,441,439,436,427,423,420,419,417,413,409,404,401,397,389,382,374,359,347,323,309,293,273,250,211,196,172,153,136,112,100,87,75,64,46,41,33,31,29,27,26,25,25,24,24,24,24,23,23,23,23,22],"timestamp_mouse":[9,28,48,68,88,109,128,148,168,188,208,228,249,268,289,310,328,348,369,389,408,428,448,469,488,508,529,548,569,589,609,629,648,669,690,709,728,748,769,788,808,828,848,868,888,908,928,948,968,989,1008,1028,1049,1068,1089,1109,1128,1148,1168,1189,1209,1228,1248,1268,1290,1309,1328,1348,1369,1388,1408,1428,1448,1468,1488,1508,1528,1548,1568,1588,1608,1628,1648,1668,1688,1708,1728,1748,1769,1788,1809,1828,1849,1868,1888,1909,1928,1948,1969],"xSR":741.5,"ySR":469.95,"xT1":424.9,"yT1":0,"xT2":1058.1,"yT2":0,"toosoon":0,"cond_shown":"randomdotsizeEA","ratio_trial":500,"smaller_num":"10","larger_num":"20","correct_side":2,"subjID":"AlejandroMontealegre29","gender":"No_gender","age":"No_age","school":"No_school"},{"start_time":1551900932023,"click_time":1551900933090,"finger_time":1551900932791,"fix_duration":250,"trial":29,"RT":768,"MT":299,"sideResp":2,"stimulus":"img/250/equaldotsize/R/12_Ratio_250_L_5_R_20.png","xmouse":[812,812,812,812,812,812,812,812,812,812,812,812,812,812,812,812,812,812,812,812,812,812,812,812,812,812,812,812,812,812,811,811,811,811,810,813,820,832,881,939,967,989,1004,1021,1026,1034,1037,1041,1045,1045,1046,1048,1054,1062],"ymouse":[514,514,514,514,514,514,514,514,514,514,514,514,514,514,514,514,514,514,514,514,514,514,514,514,514,514,514,514,514,514,514,514,514,514,511,503,493,474,367,239,171,123,92,60,54,46,42,39,37,36,36,36,35,34],"timestamp_mouse":[7,27,48,67,87,108,127,147,168,187,207,227,248,267,287,308,327,347,367,388,407,427,447,467,488,507,527,547,567,588,607,627,648,667,687,708,727,747,768,788,808,827,847,868,887,908,928,947,967,987,1007,1028,1047,1067],"xSR":741.5,"ySR":469.95,"xT1":424.9,"yT1":0,"xT2":1058.1,"yT2":0,"toosoon":0,"cond_shown":"equaldotsize","ratio_trial":250,"smaller_num":"5","larger_num":"20","correct_side":2,"subjID":"AlejandroMontealegre29","gender":"No_gender","age":"No_age","school":"No_school"},{"start_time":1551900936413,"click_time":1551900937510,"finger_time":1551900937150,"fix_duration":1441.631515019161,"trial":30,"RT":737,"MT":360,"sideResp":2,"stimulus":"img/900/equaldotanddens/R/5_Ratio_900_L_9_R_10.png","xmouse":[774,774,774,774,774,774,773,773,773,773,773,773,773,773,773,773,773,773,773,773,773,773,773,773,773,773,773,773,773,773,773,773,773,773,779,785,803,826,899,915,925,935,948,976,993,1009,1021,1034,1038,1039,1041,1048,1055,1061,1085],"ymouse":[489,489,489,489,489,489,489,489,489,489,489,489,489,489,489,489,489,489,489,489,489,489,489,489,489,489,489,489,489,489,489,489,489,489,487,482,467,446,339,306,280,257,234,201,183,166,151,136,131,131,128,121,114,108,85],"timestamp_mouse":[17,38,58,77,97,118,137,157,177,197,218,238,258,277,299,318,337,358,378,397,418,439,457,478,498,517,538,557,578,598,618,639,657,677,697,718,737,757,779,798,818,837,857,878,897,918,938,957,977,998,1017,1037,1057,1077,1097],"xSR":741.5,"ySR":469.95,"xT1":424.9,"yT1":0,"xT2":1058.1,"yT2":0,"toosoon":0,"cond_shown":"equaldotanddens","ratio_trial":900,"smaller_num":"9","larger_num":"10","correct_side":2,"subjID":"AlejandroMontealegre29","gender":"No_gender","age":"No_age","school":"No_school"},{"start_time":1551900939491,"click_time":1551900940710,"finger_time":1551900940270,"fix_duration":1040.8507590146658,"trial":31,"RT":779,"MT":440,"sideResp":2,"stimulus":"img/500/equaldotsize/R/15_Ratio_500_L_1_R_2.png","xmouse":[826,826,826,826,826,826,826,826,826,826,826,826,826,826,826,826,826,826,826,826,826,826,826,826,826,826,826,826,826,826,826,826,826,826,826,826,827,833,848,871,943,965,969,970,971,982,997,1023,1058,1090,1134,1146,1150,1152,1153,1153,1153,1156,1156,1158,1148],"ymouse":[498,498,498,498,498,498,498,498,498,498,498,498,498,498,498,498,498,498,498,498,498,498,498,498,498,498,498,498,498,498,498,498,498,498,498,498,494,484,462,438,389,373,367,364,363,345,317,278,242,214,179,161,155,149,147,146,144,132,118,106,79],"timestamp_mouse":[21,39,60,80,101,119,139,160,179,200,219,240,260,280,300,319,339,359,380,400,419,439,461,479,500,520,540,560,580,600,619,639,659,679,699,720,739,760,779,799,819,841,860,880,899,919,939,959,979,999,1019,1039,1060,1079,1099,1119,1139,1159,1179,1199,1219],"xSR":741.5,"ySR":469.95,"xT1":424.9,"yT1":0,"xT2":1058.1,"yT2":0,"toosoon":0,"cond_shown":"equaldotsize","ratio_trial":500,"smaller_num":"1","larger_num":"2","correct_side":2,"subjID":"AlejandroMontealegre29","gender":"No_gender","age":"No_age","school":"No_school"},{"start_time":1551900944140,"click_time":1551900945310,"finger_time":1551900944930,"fix_duration":1488.5397657975439,"trial":32,"RT":790,"MT":380,"sideResp":2,"stimulus":"img/750/equaldotanddens/R/2_Ratio_750_L_6_R_8.png","xmouse":[787,787,787,787,787,787,787,787,787,787,787,787,787,787,787,787,787,787,787,787,787,787,787,787,787,787,787,787,787,787,787,787,787,787,787,787,790,796,814,883,909,936,957,985,993,998,1000,1001,1003,1007,1011,1014,1017,1021,1023,1028,1034,1045,1059],"ymouse":[514,514,514,514,514,514,514,514,514,514,514,514,514,514,514,514,514,514,514,514,514,514,514,514,514,514,514,514,514,514,514,514,514,514,514,514,512,506,488,429,404,374,350,301,285,272,262,256,241,228,214,203,195,182,171,153,129,92,40],"timestamp_mouse":[12,32,50,71,90,111,130,151,170,191,211,230,250,270,291,310,331,351,371,390,410,430,450,470,490,511,530,550,571,592,612,631,651,671,691,711,730,751,770,790,811,830,851,870,890,910,930,951,971,991,1011,1030,1050,1071,1090,1111,1130,1151,1170],"xSR":741.5,"ySR":469.95,"xT1":424.9,"yT1":0,"xT2":1058.1,"yT2":0,"toosoon":0,"cond_shown":"equaldotanddens","ratio_trial":750,"smaller_num":"6","larger_num":"8","correct_side":2,"subjID":"AlejandroMontealegre29","gender":"No_gender","age":"No_age","school":"No_school"},{"start_time":1551900947697,"click_time":1551900949150,"finger_time":1551900948471,"fix_duration":1206.8829254611642,"trial":33,"RT":774,"MT":679,"sideResp":2,"stimulus":"img/500/randomdotsizeEA/R/14_Ratio_500_L_5_R_10.png","xmouse":[790,790,790,790,791,791,792,792,792,792,792,792,792,792,792,792,792,792,792,792,792,792,792,792,792,792,792,792,792,792,792,792,792,792,792,792,788,784,781,779,777,776,774,773,771,768,766,766,766,766,776,816,851,881,901,919,941,946,952,954,955,955,955,955,956,959,972,984,995,1004,1017,1044,1059],"ymouse":[506,506,506,506,506,506,506,506,506,506,506,506,506,506,506,506,506,506,506,506,506,506,506,506,506,506,506,506,506,506,506,506,506,506,506,502,491,477,457,448,441,440,438,437,436,435,435,435,435,432,423,394,371,353,337,322,290,278,265,257,250,239,233,226,216,205,182,167,153,143,132,108,98],"timestamp_mouse":[14,33,54,73,93,113,134,154,173,193,213,233,254,274,294,314,334,355,374,394,413,433,453,473,493,513,534,553,574,594,613,633,653,673,693,714,733,754,774,793,814,833,853,873,893,914,933,953,973,993,1013,1033,1054,1074,1094,1113,1133,1153,1173,1194,1213,1233,1253,1273,1293,1313,1333,1355,1374,1393,1413,1433,1453],"xSR":741.5,"ySR":469.95,"xT1":424.9,"yT1":0,"xT2":1058.1,"yT2":0,"toosoon":0,"cond_shown":"randomdotsizeEA","ratio_trial":500,"smaller_num":"5","larger_num":"10","correct_side":2,"subjID":"AlejandroMontealegre29","gender":"No_gender","age":"No_age","school":"No_school"},{"start_time":1551900950384,"click_time":1551900951690,"finger_time":1551900951331,"fix_duration":451.63240952056947,"trial":34,"RT":947,"MT":359,"sideResp":1,"stimulus":"img/750/randomdotsizeEA/R/5_Ratio_750_L_15_R_20.png","xmouse":[782,782,782,782,782,782,782,782,782,782,782,782,782,782,782,782,782,782,782,782,782,782,782,782,782,782,782,782,782,782,782,782,782,782,782,782,782,782,782,782,782,782,782,782,782,781,779,746,717,696,681,672,664,660,655,648,642,620,608,596,584,572,546,536,523,510],"ymouse":[511,511,511,511,511,511,511,511,511,511,511,511,511,511,511,511,511,511,511,511,511,511,511,511,511,511,511,511,511,511,511,511,511,511,511,511,511,511,511,511,511,511,511,511,511,504,487,353,281,223,191,166,153,145,141,137,133,128,125,122,119,115,108,104,100,97],"timestamp_mouse":[8,26,46,66,86,106,126,146,166,186,207,226,247,266,287,307,327,346,366,386,407,427,447,467,486,507,527,547,567,586,607,627,647,667,686,706,726,747,767,788,806,826,848,866,886,906,926,947,966,986,1007,1026,1047,1067,1086,1106,1126,1146,1166,1187,1206,1228,1247,1267,1287,1306],"xSR":741.5,"ySR":469.95,"xT1":424.9,"yT1":0,"xT2":1058.1,"yT2":0,"toosoon":0,"cond_shown":"randomdotsizeEA","ratio_trial":750,"smaller_num":"15","larger_num":"20","correct_side":2,"subjID":"AlejandroMontealegre29","gender":"No_gender","age":"No_age","school":"No_school"},{"start_time":1551900953202,"click_time":1551900953950,"finger_time":1551900953510,"fix_duration":250,"trial":35,"RT":308,"MT":440,"sideResp":2,"stimulus":"img/900/equaldotanddens/R/14_Ratio_900_L_18_R_20.png","xmouse":[805,805,805,805,805,805,805,805,805,805,805,805,805,805,816,823,839,875,897,926,953,965,972,973,974,974,974,978,980,983,984,991,999,1004,1014,1026,1053,1060],"ymouse":[483,483,483,483,483,483,483,483,483,483,483,483,483,483,477,469,440,359,308,250,205,173,158,156,156,156,155,152,149,147,146,140,131,128,122,117,103,97],"timestamp_mouse":[8,29,49,69,89,109,128,149,170,189,209,228,248,268,289,308,328,348,368,388,409,429,449,468,489,508,529,548,568,588,609,629,649,668,689,708,729,748],"xSR":741.5,"ySR":469.95,"xT1":424.9,"yT1":0,"xT2":1058.1,"yT2":0,"toosoon":0,"cond_shown":"equaldotanddens","ratio_trial":900,"smaller_num":"18","larger_num":"20","correct_side":2,"subjID":"AlejandroMontealegre29","gender":"No_gender","age":"No_age","school":"No_school"},{"start_time":1551900956367,"click_time":1551900957550,"finger_time":1551900957150,"fix_duration":1355.2325349869286,"trial":36,"RT":783,"MT":400,"sideResp":1,"stimulus":"img/750/equaldotanddens/L/6_Ratio_750_L_24_R_18.png","xmouse":[810,810,810,810,810,810,810,810,810,810,810,810,810,810,810,810,810,810,810,810,810,810,810,810,810,810,810,810,810,810,810,810,810,810,810,810,810,810,806,760,724,683,657,641,621,613,605,598,592,579,574,569,567,563,557,554,552,552,542,489],"ymouse":[506,506,506,506,506,506,506,506,506,506,506,506,506,506,506,506,506,506,506,506,506,506,506,506,506,506,506,506,506,506,506,506,506,506,506,506,506,505,496,420,379,334,313,299,281,274,267,262,257,244,239,231,225,217,197,189,183,178,162,99],"timestamp_mouse":[3,24,44,63,83,104,123,144,164,183,204,224,244,263,284,304,323,343,363,384,404,424,444,463,483,504,523,544,563,584,604,624,644,664,683,703,724,743,763,783,803,823,844,863,883,903,923,943,963,983,1003,1023,1045,1063,1083,1103,1124,1143,1163,1183],"xSR":741.5,"ySR":469.95,"xT1":424.9,"yT1":0,"xT2":1058.1,"yT2":0,"toosoon":0,"cond_shown":"equaldotanddens","ratio_trial":750,"smaller_num":"18","larger_num":"24","correct_side":1,"subjID":"AlejandroMontealegre29","gender":"No_gender","age":"No_age","school":"No_school"},{"start_time":1551900960053,"click_time":1551900961271,"finger_time":1551900960750,"fix_duration":1442.8112045224577,"trial":37,"RT":697,"MT":521,"sideResp":2,"stimulus":"img/250/randomdotsizeEA/R/11_Ratio_250_L_3_R_12.png","xmouse":[835,835,835,835,835,835,836,836,836,836,836,836,837,837,837,837,837,837,837,837,837,837,837,837,837,837,837,837,837,837,837,837,837,840,853,857,859,860,862,868,874,884,893,906,938,950,960,969,980,998,1003,1008,1013,1016,1025,1027,1030,1033,1039,1044,1060],"ymouse":[536,536,536,536,536,536,536,536,536,536,536,536,537,537,537,537,537,537,537,537,537,537,537,537,537,537,537,537,537,537,537,537,537,535,508,495,482,475,469,459,454,447,439,427,393,377,365,350,336,304,289,267,243,217,161,143,124,104,88,75,54],"timestamp_mouse":[17,37,57,78,97,118,139,158,178,198,217,237,257,277,298,318,337,359,377,397,417,438,457,478,497,517,538,557,577,597,617,637,657,678,697,718,737,758,778,798,817,838,857,878,898,917,937,958,977,998,1017,1038,1058,1078,1098,1117,1137,1157,1177,1198,1218],"xSR":741.5,"ySR":469.95,"xT1":424.9,"yT1":0,"xT2":1058.1,"yT2":0,"toosoon":0,"cond_shown":"randomdotsizeEA","ratio_trial":250,"smaller_num":"3","larger_num":"12","correct_side":2,"subjID":"AlejandroMontealegre29","gender":"No_gender","age":"No_age","school":"No_school"},{"start_time":1551900963338,"click_time":1551900965210,"finger_time":1551900963630,"fix_duration":286.796116398069,"trial":38,"RT":292,"MT":1580,"sideResp":1,"stimulus":"img/750/equaldotanddens/L/14_Ratio_750_L_8_R_6.png","xmouse":[797,797,797,797,797,797,797,797,797,797,798,812,825,836,847,852,854,854,854,854,854,854,854,854,854,854,854,854,854,854,854,854,854,854,852,850,824,806,787,781,779,778,777,772,761,740,686,646,618,584,571,554,551,549,547,544,534,523,521,513,510,494,480,467,443,423,385,375,371,370,370,370,370,370,370,370,370,370,377,406,434,481,487,491,493,494,496,496,494,490,487,479,476,474],"ymouse":[519,519,519,519,519,519,519,519,519,519,519,519,519,519,519,519,519,519,519,519,519,519,519,519,519,519,519,519,519,519,519,519,519,519,519,518,499,483,461,452,445,442,437,430,421,412,395,385,376,361,349,326,322,320,317,315,305,294,291,277,268,241,225,215,205,197,182,178,177,177,177,177,177,177,177,177,177,177,175,175,175,172,168,165,160,157,150,144,133,124,115,103,100,97],"timestamp_mouse":[12,33,52,72,93,112,132,153,172,193,212,232,252,272,292,313,333,352,373,393,412,432,452,472,492,512,533,552,572,592,612,632,653,673,693,713,732,753,773,792,813,832,852,872,892,913,932,954,972,992,1012,1032,1052,1072,1092,1112,1132,1153,1172,1192,1212,1233,1252,1272,1292,1312,1332,1353,1372,1393,1412,1432,1452,1473,1492,1512,1532,1552,1572,1592,1612,1632,1652,1673,1692,1713,1732,1753,1772,1792,1812,1832,1852,1872],"xSR":741.5,"ySR":469.95,"xT1":424.9,"yT1":0,"xT2":1058.1,"yT2":0,"toosoon":0,"cond_shown":"equaldotanddens","ratio_trial":750,"smaller_num":"6","larger_num":"8","correct_side":1,"subjID":"AlejandroMontealegre29","gender":"No_gender","age":"No_age","school":"No_school"},{"start_time":1551900966561,"click_time":1551900968372,"finger_time":1551900967390,"fix_duration":250,"trial":39,"RT":829,"MT":982,"sideResp":2,"stimulus":"img/500/equaldotanddens/R/6_Ratio_500_L_9_R_18.png","xmouse":[788,788,789,789,789,789,789,789,789,789,789,789,789,789,789,789,789,789,789,789,789,789,789,789,789,789,789,789,789,789,789,789,789,789,789,789,789,789,789,789,792,844,902,946,960,957,953,950,949,948,947,947,950,953,959,972,982,988,998,1018,1051,1048,1048,1048,1048,1048,1048,1048,1048,1048,1048,1048,1048,1048,1048,1048,1048,1048,1048,1048,1048,1048,1048,1048,1048,1050,1054,1056,1057,1058,1059],"ymouse":[508,508,509,509,509,509,509,509,509,509,509,509,509,509,509,509,509,509,509,509,509,509,509,509,509,509,509,509,509,509,509,509,509,509,509,509,509,509,509,509,509,489,469,448,438,419,405,395,386,380,367,356,338,319,298,263,244,233,217,189,72,19,19,19,19,19,19,19,19,19,19,19,19,19,19,19,19,19,19,19,19,19,19,19,19,15,32,41,47,49,52],"timestamp_mouse":[9,30,49,69,89,110,130,149,169,189,210,230,249,269,290,310,329,350,369,391,410,429,450,470,489,511,529,550,570,590,609,629,651,670,690,709,730,750,770,790,809,829,850,869,890,909,930,949,970,989,1009,1029,1049,1069,1090,1109,1130,1150,1170,1189,1209,1229,1249,1270,1290,1309,1329,1349,1370,1390,1410,1431,1449,1469,1489,1509,1530,1549,1570,1590,1610,1630,1649,1669,1690,1709,1730,1749,1770,1789,1811],"xSR":741.5,"ySR":469.95,"xT1":424.9,"yT1":0,"xT2":1058.1,"yT2":0,"toosoon":0,"cond_shown":"equaldotanddens","ratio_trial":500,"smaller_num":"9","larger_num":"18","correct_side":2,"subjID":"AlejandroMontealegre29","gender":"No_gender","age":"No_age","school":"No_school"},{"start_time":1551900971369,"click_time":1551900972690,"finger_time":1551900971950,"fix_duration":1258.6660561747667,"trial":40,"RT":581,"MT":740,"sideResp":2,"stimulus":"img/250/randomdotsizeEA/R/13_Ratio_250_L_2_R_8.png","xmouse":[820,820,820,820,820,820,822,823,824,824,825,826,827,827,827,827,829,829,829,830,830,833,836,837,839,841,841,841,841,842,842,843,843,838,830,820,817,816,816,816,819,841,857,880,925,944,944,944,944,944,944,944,944,944,944,944,944,944,944,944,944,944,944,944,944,944,1089],"ymouse":[528,528,528,528,528,527,526,525,525,524,524,523,523,523,523,522,521,521,520,517,516,508,501,498,495,491,488,487,486,485,483,474,464,451,436,419,412,411,410,408,401,338,264,175,48,12,12,12,12,12,12,12,12,12,12,12,12,12,12,12,12,12,12,12,12,12,9],"timestamp_mouse":[3,22,41,62,81,101,121,141,161,183,201,221,241,261,281,302,322,342,362,381,401,421,441,461,481,501,522,541,561,581,602,622,641,661,682,701,723,741,762,782,802,821,841,862,881,902,921,941,962,982,1002,1021,1041,1061,1081,1102,1121,1141,1161,1181,1202,1221,1242,1262,1281,1301,1321],"xSR":741.5,"ySR":469.95,"xT1":424.9,"yT1":0,"xT2":1058.1,"yT2":0,"toosoon":0,"cond_shown":"randomdotsizeEA","ratio_trial":250,"smaller_num":"2","larger_num":"8","correct_side":2,"subjID":"AlejandroMontealegre29","gender":"No_gender","age":"No_age","school":"No_school"},{"start_time":1551900975197,"click_time":1551900976010,"finger_time":1551900975930,"fix_duration":1383.6288073568758,"trial":41,"RT":733,"MT":80,"sideResp":2,"stimulus":"img/250/randomdotsizeEA/R/6_Ratio_250_L_6_R_24.png","xmouse":[822,822,822,822,822,822,822,822,822,822,822,822,822,822,822,822,822,822,822,822,822,822,822,822,822,822,822,822,822,822,822,822,822,822,822,833,860,905,958,1087,1140],"ymouse":[510,510,510,510,510,510,510,510,510,510,510,510,510,510,510,510,510,510,510,510,510,510,510,510,510,510,510,510,510,510,510,510,510,510,510,503,463,393,305,112,40],"timestamp_mouse":[13,33,53,73,94,113,133,153,173,193,214,233,253,273,294,313,334,353,373,394,413,433,454,473,494,513,534,553,574,594,614,633,653,673,694,713,733,753,774,793,813],"xSR":741.5,"ySR":469.95,"xT1":424.9,"yT1":0,"xT2":1058.1,"yT2":0,"toosoon":0,"cond_shown":"randomdotsizeEA","ratio_trial":250,"smaller_num":"6","larger_num":"24","correct_side":2,"subjID":"AlejandroMontealegre29","gender":"No_gender","age":"No_age","school":"No_school"},{"start_time":1551900978589,"click_time":1551900979870,"finger_time":1551900979230,"fix_duration":1298.916203384819,"trial":42,"RT":641,"MT":640,"sideResp":2,"stimulus":"img/250/randomdotsizeEA/R/6_Ratio_250_L_6_R_24.png","xmouse":[810,810,810,810,810,810,810,810,810,810,810,810,810,810,810,813,817,821,822,824,826,835,836,837,839,839,840,840,840,840,840,840,845,854,865,903,917,925,926,928,938,945,956,968,985,1008,1027,1028,1026,1024,1022,1020,1020,1020,1020,1020,1020,1020,1020,1020,1020,1035,1046,1056,1062],"ymouse":[487,487,487,487,487,487,487,487,487,487,487,487,487,487,487,487,487,487,487,487,487,487,487,487,486,485,484,484,484,484,484,484,477,465,450,393,361,339,323,313,282,265,246,230,209,182,142,125,114,105,96,91,91,91,91,90,88,88,88,88,88,75,68,61,48],"timestamp_mouse":[3,22,41,62,81,102,121,142,161,181,202,222,241,261,283,301,322,342,362,382,401,422,441,462,482,501,522,541,562,581,602,622,641,661,681,702,721,742,761,781,802,821,841,861,881,901,922,942,961,981,1001,1022,1042,1062,1081,1102,1121,1141,1161,1183,1201,1222,1241,1261,1281],"xSR":741.5,"ySR":469.95,"xT1":424.9,"yT1":0,"xT2":1058.1,"yT2":0,"toosoon":0,"cond_shown":"randomdotsizeEA","ratio_trial":250,"smaller_num":"6","larger_num":"24","correct_side":2,"subjID":"AlejandroMontealegre29","gender":"No_gender","age":"No_age","school":"No_school"},{"start_time":1551900982192,"click_time":1551900983551,"finger_time":1551900982830,"fix_duration":1241.005697931791,"trial":43,"RT":638,"MT":721,"sideResp":1,"stimulus":"img/250/equaldotsize/L/15_Ratio_250_L_12_R_3.png","xmouse":[767,767,767,767,767,767,767,767,767,767,767,767,767,767,767,767,767,767,767,767,767,767,767,767,767,767,767,767,767,767,766,758,741,722,702,679,672,668,665,662,642,627,615,605,593,566,546,529,515,504,495,488,488,488,488,488,488,488,486,486,485,485,485,484,484,484,484,484],"ymouse":[486,486,486,486,486,486,486,486,486,486,486,486,486,486,486,486,486,486,486,486,486,486,486,486,486,486,486,486,486,486,480,452,404,363,327,284,275,267,261,255,231,221,214,208,203,193,181,167,156,146,136,126,125,125,125,125,125,124,121,120,117,117,117,117,117,109,103,93],"timestamp_mouse":[18,39,60,80,98,118,139,158,179,199,220,239,258,278,299,318,338,358,378,398,419,439,458,479,498,519,539,560,578,598,619,638,658,678,698,718,738,758,778,798,818,838,858,879,898,918,939,958,978,998,1018,1039,1058,1079,1098,1118,1138,1159,1178,1198,1218,1238,1259,1278,1298,1318,1338,1359],"xSR":741.5,"ySR":469.95,"xT1":424.9,"yT1":0,"xT2":1058.1,"yT2":0,"toosoon":0,"cond_shown":"equaldotsize","ratio_trial":250,"smaller_num":"3","larger_num":"12","correct_side":1,"subjID":"AlejandroMontealegre29","gender":"No_gender","age":"No_age","school":"No_school"},{"start_time":1551900985393,"click_time":1551900986730,"finger_time":1551900986370,"fix_duration":522.2279442895714,"trial":44,"RT":977,"MT":360,"sideResp":1,"stimulus":"img/500/randomdotsizeEA/L/11_Ratio_500_L_12_R_6.png","xmouse":[746,746,746,746,746,746,746,746,746,746,746,746,746,746,746,746,746,747,749,756,763,764,765,765,765,765,765,765,765,765,765,765,765,765,765,765,765,765,765,765,765,765,765,765,766,766,766,764,760,755,751,741,735,729,723,715,670,640,607,580,539,524,512,503,495,486,465],"ymouse":[488,488,488,488,488,488,488,488,488,488,488,488,488,488,488,488,488,488,488,488,489,489,489,489,489,489,489,489,489,489,489,489,489,489,489,489,489,489,489,489,489,489,489,489,489,488,477,470,460,452,444,430,424,416,408,393,332,295,258,226,179,163,148,135,118,101,61],"timestamp_mouse":[17,38,57,78,97,118,137,157,178,198,218,238,257,277,297,318,338,357,377,399,417,437,457,477,498,517,537,557,577,597,617,637,659,677,698,717,737,759,778,798,817,838,858,877,898,917,937,957,977,998,1018,1038,1057,1077,1097,1117,1137,1157,1177,1197,1217,1237,1258,1277,1297,1317,1337],"xSR":741.5,"ySR":469.95,"xT1":424.9,"yT1":0,"xT2":1058.1,"yT2":0,"toosoon":0,"cond_shown":"randomdotsizeEA","ratio_trial":500,"smaller_num":"6","larger_num":"12","correct_side":1,"subjID":"AlejandroMontealegre29","gender":"No_gender","age":"No_age","school":"No_school"},{"start_time":1551900988535,"click_time":1551900990230,"finger_time":1551900989210,"fix_duration":1083.1861846561894,"trial":45,"RT":675,"MT":1020,"sideResp":1,"stimulus":"img/750/equaldotsize/L/10_Ratio_750_L_4_R_3.png","xmouse":[757,757,757,762,762,762,762,762,762,762,762,762,762,762,762,762,762,762,762,762,767,772,778,780,784,785,787,791,794,809,818,827,841,861,915,940,960,970,976,987,992,995,997,998,1000,1001,1001,1001,1001,1001,1001,1001,998,835,670,448,388,272,235,225,225,225,225,225,225,225,225,225,225,226,230,237,244,253,259,261,267,278,286,306,321,342,369,398,442],"ymouse":[518,518,518,518,518,518,518,518,518,518,518,518,518,518,518,518,518,518,518,518,517,517,516,515,514,514,514,513,512,505,500,491,478,454,393,365,339,325,313,292,282,276,271,267,260,258,258,256,256,256,256,255,253,226,203,156,137,103,91,87,87,87,87,86,85,85,85,85,85,83,81,79,75,71,69,69,67,66,65,65,65,65,65,65,65],"timestamp_mouse":[17,36,55,76,95,115,135,155,176,196,216,235,255,276,295,316,335,355,375,395,416,435,455,475,495,516,535,556,576,595,615,636,655,675,695,716,735,756,775,795,815,835,855,875,896,915,935,957,976,996,1016,1036,1055,1076,1095,1115,1136,1156,1175,1196,1215,1236,1255,1276,1295,1316,1336,1355,1375,1396,1417,1436,1456,1476,1495,1516,1535,1556,1575,1595,1615,1635,1655,1675,1695],"xSR":741.5,"ySR":469.95,"xT1":424.9,"yT1":0,"xT2":1058.1,"yT2":0,"toosoon":0,"cond_shown":"equaldotsize","ratio_trial":750,"smaller_num":"3","larger_num":"4","correct_side":1,"subjID":"AlejandroMontealegre29","gender":"No_gender","age":"No_age","school":"No_school"},{"start_time":1551900991645,"click_time":1551900992775,"finger_time":1551900992335,"fix_duration":408.9187934571681,"trial":46,"RT":690,"MT":440,"sideResp":1,"stimulus":"img/250/equaldotanddens/L/5_Ratio_250_L_24_R_6.png","xmouse":[777,777,777,777,777,777,777,777,777,777,777,777,777,777,777,777,777,777,777,777,777,777,777,777,777,777,777,777,777,777,777,777,777,771,732,709,686,663,645,617,615,608,604,599,580,575,572,571,569,565,549,532,514,499,466,451,433],"ymouse":[474,474,474,474,474,474,474,474,474,474,474,474,474,474,474,474,474,474,474,474,474,474,474,474,474,474,474,474,474,474,474,474,474,470,428,398,367,340,318,282,278,271,267,263,247,243,241,238,236,231,205,179,162,148,119,105,94],"timestamp_mouse":[10,30,50,69,90,109,130,149,170,189,209,229,249,270,289,308,329,350,369,390,408,430,450,470,490,509,529,548,570,590,609,629,649,669,690,709,729,749,769,789,809,829,850,869,888,909,929,949,968,989,1009,1029,1049,1069,1088,1108,1130],"xSR":741.5,"ySR":469.95,"xT1":424.9,"yT1":0,"xT2":1058.1,"yT2":0,"toosoon":0,"cond_shown":"equaldotanddens","ratio_trial":250,"smaller_num":"6","larger_num":"24","correct_side":1,"subjID":"AlejandroMontealegre29","gender":"No_gender","age":"No_age","school":"No_school"},{"start_time":1551900994999,"click_time":1551900996434,"finger_time":1551900995694,"fix_duration":985.4542016280635,"trial":47,"RT":695,"MT":740,"sideResp":2,"stimulus":"img/250/randomdotsizeEA/R/4_Ratio_250_L_3_R_12.png","xmouse":[803,803,803,803,803,803,803,803,803,803,803,803,803,803,803,803,803,803,803,803,803,803,803,803,803,803,803,803,803,803,803,805,813,821,832,845,863,897,910,923,935,954,957,961,964,970,983,990,995,1000,1004,1005,1010,1012,1014,1018,1024,1024,1024,1024,1024,1024,1024,1024,1024,1024,1024,1026,1030,1036,1051,1073],"ymouse":[491,491,491,491,491,491,491,491,491,491,491,491,491,491,491,491,491,491,491,491,491,491,491,491,491,491,491,491,491,491,491,491,484,479,469,457,440,399,382,363,347,320,315,310,299,280,217,189,162,139,115,106,72,58,44,35,27,27,27,27,27,27,27,27,27,27,27,27,27,27,29,33],"timestamp_mouse":[15,35,56,75,95,116,134,154,175,195,215,235,256,274,296,314,335,355,375,395,415,435,455,475,494,515,534,556,576,596,615,635,654,674,695,715,736,755,775,795,815,834,855,875,895,915,936,954,976,996,1015,1035,1056,1075,1095,1115,1135,1156,1174,1195,1216,1236,1256,1276,1295,1315,1335,1354,1375,1395,1416,1435],"xSR":741.5,"ySR":469.95,"xT1":424.9,"yT1":0,"xT2":1058.1,"yT2":0,"toosoon":0,"cond_shown":"randomdotsizeEA","ratio_trial":250,"smaller_num":"3","larger_num":"12","correct_side":2,"subjID":"AlejandroMontealegre29","gender":"No_gender","age":"No_age","school":"No_school"},{"start_time":1551901000062,"click_time":1551901000834,"finger_time":1551901000693,"fix_duration":1046.5964032670945,"trial":48,"RT":631,"MT":141,"sideResp":2,"stimulus":"img/500/equaldotsize/R/9_Ratio_500_L_2_R_4.png","xmouse":[810,810,810,810,810,810,810,810,810,810,810,810,810,810,810,810,810,810,810,810,810,810,810,810,810,810,811,815,821,831,837,847,858,871,921,962,1042,1092,1119],"ymouse":[506,506,506,506,506,506,506,506,506,506,506,506,506,506,506,506,506,506,506,506,506,506,506,506,506,506,506,505,500,490,479,466,449,431,363,292,187,118,61],"timestamp_mouse":[12,33,52,73,92,112,133,152,172,193,212,231,252,272,292,312,332,353,372,391,412,432,453,472,492,513,533,552,572,592,612,631,652,672,691,712,731,751,772],"xSR":741.5,"ySR":469.95,"xT1":424.9,"yT1":0,"xT2":1058.1,"yT2":0,"toosoon":0,"cond_shown":"equaldotsize","ratio_trial":500,"smaller_num":"2","larger_num":"4","correct_side":2,"subjID":"AlejandroMontealegre29","gender":"No_gender","age":"No_age","school":"No_school"},{"start_time":1551901002406,"click_time":1551901067276,"finger_time":1551901034935,"fix_duration":250,"trial":49,"RT":32529,"MT":32341,"sideResp":2,"stimulus":"img/900/equaldotanddens/L/8_Ratio_900_L_20_R_18.png","xmouse":[833,833,833,833,833,833,833,833,833,833,833,833,833,833,833,833,833,833,833,833,833,833,833,833,833,833,833,833,833,833,833,833,833,833,833,833,833,833,833,833,833,833,833,833,833,833,833,833,833,833,833,833,833,833,833,833,833,833,833,833,833,833,833,833,833,833,833,833,833,833,833,833,833,833,833,833,833,833,833,833,833,833,833,833,833,833,833,833,833,833,833,833,833,833,833,833,833,833,833,833,833,833,833,833,833,833,833,833,833,833,833,833,833,833,833,833,833,833,833,833,833,833,833,833,833,833,833,833,833,833,833,833,833,833,833,833,833,833,833,833,833,833,833,833,833,833,833,833,833,833,833,833,833,833,833,833,833,833,833,833,833,833,833,833,833,833,833,833,833,833,833,833,833,833,833,833,833,833,833,833,833,833,833,833,833,833,833,833,833,833,833,833,833,833,833,833,833,833,833,833,833,833,833,833,833,833,833,833,833,833,833,833,833,833,833,833,833,833,833,833,833,833,833,833,833,833,833,833,833,833,833,833,833,833,833,833,833,833,833,833,833,833,833,833,833,833,833,833,833,833,833,833,833,833,833,833,833,833,833,833,833,833,833,833,833,833,833,833,833,833,833,833,833,833,833,833,833,833,833,833,833,833,833,833,833,833,833,833,833,833,833,833,833,833,833,833,833,833,833,833,833,833,833,833,833,833,833,833,833,833,833,833,833,833,833,833,833,833,833,833,833,833,833,833,833,833,833,833,833,833,833,833,833,833,833,833,833,833,833,833,833,833,833,833,833,833,833,833,833,833,833,833,833,833,833,833,833,833,833,833,833,833,833,833,833,833,833,833,833,833,833,833,833,833,833,833,833,833,833,833,833,833,833,833,833,833,833,833,833,833,833,833,833,833,833,833,833,833,833,833,833,833,833,833,833,833,833,833,833,833,833,833,833,833,833,833,833,833,833,833,833,833,833,833,833,833,833,833,833,833,833,833,833,833,833,833,833,833,833,833,833,833,833,833,833,833,833,833,833,833,833,833,833,833,833,833,833,833,833,833,833,833,833,833,833,833,833,833,833,833,833,833,833,833,833,833,833,833,833,833,833,833,833,833,833,833,833,833,833,833,833,833,833,833,833,833,833,833,833,833,833,833,833,833,833,833,833,833,833,833,833,833,833,833,833,833,833,833,833,833,833,833,833,833,833,833,833,833,833,833,833,833,833,833,833,833,833,833,833,833,833,833,833,833,833,833,833,833,833,833,833,833,833,833,833,833,833,833,833,833,833,833,833,833,833,833,833,833,833,833,833,833,833,833,833,833,833,833,833,833,833,833,833,833,833,833,833,833,833,833,833,833,833,833,833,833,833,833,833,833,833,833,833,833,833,833,833,833,833,833,833,833,833,833,833,833,833,833,833,833,833,833,833,833,833,833,833,833,833,833,833,833,833,833,833,833,833,833,833,833,833,833,833,833,833,833,833,833,833,833,833,833,833,833,833,833,833,833,833,833,833,833,833,833,833,833,833,833,833,833,833,833,833,833,833,833,833,833,833,833,833,833,833,833,833,833,833,833,833,833,833,833,833,833,833,833,833,833,833,833,833,833,833,833,833,833,833,833,833,833,833,833,833,833,833,833,833,833,833,833,833,833,833,833,833,833,833,833,833,833,833,833,833,833,833,833,833,833,833,833,833,833,833,833,833,833,833,833,833,833,833,833,833,833,833,833,833,833,833,833,833,833,833,833,833,833,833,833,833,833,833,833,833,833,833,833,833,833,833,833,833,833,833,833,833,833,833,833,833,833,833,833,833,833,833,833,833,833,833,833,833,833,833,833,833,833,833,833,833,833,833,833,833,833,833,833,833,833,833,833,833,833,833,833,833,833,833,833,833,833,833,833,833,833,833,833,833,833,833,833,833,833,833,833,833,833,833,833,833,833,833,833,833,833,833,833,833,833,833,833,833,833,833,833,833,833,833,833,833,833,833,833,833,833,833,833,833,833,833,833,833,833,833,833,833,833,833,833,833,833,833,833,833,833,833,833,833,833,833,833,833,833,833,833,833,833,833,833,833,833,833,833,833,833,833,833,833,833,833,833,833,833,833,833,833,833,833,833,833,833,833,833,833,833,833,833,833,833,833,833,833,833,833,833,833,833,833,833,833,833,833,833,833,833,833,833,833,833,833,833,833,833,833,833,833,833,833,833,833,833,833,833,833,833,833,833,833,833,833,833,833,833,833,833,833,833,833,833,833,833,833,833,833,833,833,833,833,833,833,833,833,833,833,833,833,833,833,833,833,833,833,833,833,833,833,833,833,833,833,833,833,833,833,833,833,833,833,833,833,833,833,833,833,833,833,833,833,833,833,833,833,833,833,833,833,833,833,833,833,833,833,833,833,833,833,833,833,833,833,833,833,833,833,833,833,833,833,833,833,833,833,833,833,833,833,833,833,833,833,833,833,833,833,833,833,833,833,833,833,833,833,833,833,833,833,833,833,833,833,833,833,833,833,833,833,833,833,833,833,833,833,833,833,833,833,833,833,833,833,833,833,833,833,833,833,833,833,833,833,833,833,833,833,833,833,833,833,833,833,833,833,833,833,833,833,833,833,833,833,833,833,833,833,833,833,833,833,833,833,833,833,833,833,833,833,833,833,833,833,833,833,833,833,833,833,833,833,833,833,833,833,833,833,833,833,833,833,833,833,833,833,833,833,833,833,833,833,833,833,833,833,833,833,833,833,833,833,833,833,833,833,833,833,833,833,833,833,833,833,833,833,833,833,833,833,833,833,833,833,833,833,833,833,833,833,833,833,833,833,833,833,833,833,833,833,833,833,833,833,833,833,833,833,833,833,833,833,833,833,833,833,833,833,833,833,833,833,833,833,833,833,833,833,833,833,833,833,833,833,833,833,833,833,833,833,833,833,833,833,833,833,833,833,833,833,833,833,833,833,833,833,833,833,833,833,833,833,833,833,833,833,833,833,833,833,833,833,833,833,833,833,833,833,833,833,833,833,833,833,833,833,833,833,833,833,833,833,833,833,833,833,833,833,833,833,833,833,833,833,833,833,833,833,833,833,833,833,833,833,833,833,833,833,833,833,833,833,833,833,833,833,833,833,833,833,833,833,833,833,833,833,833,833,833,833,833,833,833,833,833,833,833,833,833,833,833,833,833,833,833,833,833,833,833,833,833,833,833,833,833,833,833,833,833,833,833,833,833,833,833,833,833,833,833,833,833,833,833,833,833,833,833,833,833,833,833,833,833,833,833,833,833,833,833,833,833,833,833,833,833,833,833,833,833,833,833,833,833,833,833,833,833,833,833,833,833,833,833,833,833,833,833,833,833,833,833,833,833,833,833,833,833,833,833,833,833,833,833,833,833,833,833,833,833,833,833,833,833,833,833,833,833,833,833,833,833,833,833,833,833,833,833,833,833,833,833,833,833,833,833,833,833,833,833,833,833,833,833,833,833,833,833,833,833,833,833,833,833,833,833,833,833,833,833,833,833,833,833,833,833,833,833,833,833,833,833,833,833,833,833,833,833,833,833,833,833,833,833,833,833,833,833,833,833,833,833,833,833,833,833,833,833,833,833,833,833,833,833,833,833,833,833,833,833,833,833,833,833,833,833,833,833,833,833,833,833,833,833,833,833,833,833,833,833,833,833,833,833,833,833,833,833,833,833,833,833,450,450,450,450,450,450,450,450,450,450,450,450,450,450,450,450,450,450,450,450,450,450,450,450,450,450,450,450,450,450,450,450,450,450,450,450,450,450,450,450,450,450,450,450,450,450,450,450,450,450,450,450,450,450,450,450,450,450,450,450,450,450,450,450,450,450,450,450,450,450,450,450,450,450,450,450,450,450,450,450,450,450,450,450,450,450,450,450,450,450,450,450,450,450,450,450,450,450,450,450,450,450,450,450,450,450,450,450,450,450,450,450,450,450,450,450,450,450,450,450,450,450,450,450,450,