[{"start_time":1551899605053,"click_time":1551899607772,"finger_time":1551899605111,"fix_duration":500.77965009019186,"trial":0,"RT":58,"MT":2661,"sideResp":1,"stimulus":[],"xmouse":[767,767,763,761,761,761,761,761,761,761,762,768,782,788,790,790,790,790,790,784,774,756,723,712,710,710,710,708,713,718,724,739,798,815,826,828,829,829,829,829,829,829,829,829,829,829,829,824,802,793,786,784,784,784,784,783,783,783,783,783,783,783,783,783,783,783,783,784,784,785,785,785,785,771,767,767,767,767,767,767,767,767,767,767,767,767,767,767,767,767,767,767,767,767,767,767,767,767,767,767,767,767,767,767,767,767,767,767,767,767,767,767,767,767,767,767,767,767,767,767,767,767,767,769,770,770,766,755,702,661,615,576,507,476,450,430],"ymouse":[518,512,501,497,496,495,495,495,495,495,495,495,495,495,495,495,495,495,491,473,449,419,373,361,361,361,361,361,386,399,407,416,439,445,450,451,452,452,452,452,452,453,460,466,478,494,514,533,571,581,590,593,594,594,594,596,596,596,596,596,596,596,596,596,596,594,594,590,587,584,580,576,564,543,539,538,538,538,538,538,538,538,538,538,538,538,538,538,538,538,538,538,538,538,536,534,531,528,527,527,527,527,527,527,527,527,527,527,527,527,527,527,527,527,527,527,527,527,527,527,527,527,525,517,510,495,467,433,336,286,237,198,132,110,100,96],"timestamp_mouse":[18,39,58,79,98,120,138,159,179,199,219,238,259,279,299,319,339,359,378,400,419,440,459,478,500,520,538,559,578,599,619,640,659,679,698,719,740,760,779,799,819,838,859,879,898,919,939,960,978,998,1019,1038,1059,1080,1100,1119,1138,1159,1179,1198,1220,1240,1258,1280,1299,1319,1338,1358,1378,1399,1419,1439,1458,1478,1498,1519,1540,1558,1578,1599,1619,1640,1659,1680,1699,1719,1739,1758,1779,1799,1818,1839,1860,1879,1898,1919,1939,1959,1979,1999,2020,2039,2059,2078,2099,2119,2140,2159,2179,2199,2219,2240,2260,2280,2300,2318,2339,2359,2379,2398,2418,2439,2458,2478,2498,2519,2539,2560,2578,2598,2619,2638,2660,2679,2698,2719],"xSR":741.5,"ySR":501.8,"xT1":424.9,"yT1":0,"xT2":1058.1,"yT2":0,"toosoon":0,"cond_shown":"Congruent","ratio_trial":300,"L_num":1,"L_den":3,"R_num":19,"R_den":30,"correct_side":2,"subjID":"alejandromontealegre29","gender":"No_gender","age":"No_age","school":"No_school","test":{"fix_dur":[250,1500],"timestim":1000,"targets_dim":[100,100],"targets_relative_coord":[0.3,0.7],"size_stim":[880,420],"start_dim":[100,100],"size_start":[300,300],"size_fix":60,"samplingrate":20,"img_types":["Congruent","Incongruent"],"ratios":[100,200,300],"rep_conds":19,"nTrials":120,"trials_to_rest":500,"Trials_order":[58,88,46,23,18,91,100,54,5,32,117,69,48,44,40,75,65,110,118,84,113,25,38,97,119,85,92,31,82,14,98,64,9,2,57,16,78,47,115,60,90,81,114,116,7,94,73,20,89,21,63,96,26,67,12,29,83,3,102,56,8,39,62,112,34,51,0,13,41,52,66,24,109,74,79,45,108,99,95,93,10,11,77,107,36,61,4,106,27,50,71,35,33,104,49,6,37,55,111,53,101,105,59,72,76,70,17,43,15,103,22,87,19,68,80,1,42,30,86,28],"cond_shown":["Congruent","Congruent","Congruent","Incongruent","Congruent","Incongruent","Congruent","Congruent","Incongruent","Congruent","Incongruent","Incongruent","Congruent","Congruent","Congruent","Incongruent","Incongruent","Congruent","Congruent","Congruent","Incongruent","Incongruent","Congruent","Incongruent","Incongruent","Incongruent","Congruent","Incongruent","Congruent","Congruent","Congruent","Congruent","Incongruent","Congruent","Incongruent","Congruent","Congruent","Incongruent","Incongruent","Congruent","Congruent","Incongruent","Congruent","Congruent","Incongruent","Congruent","Incongruent","Congruent","Incongruent","Incongruent","Incongruent","Congruent","Congruent","Incongruent","Congruent","Incongruent","Incongruent","Incongruent","Congruent","Congruent","Congruent","Incongruent","Congruent","Congruent","Congruent","Incongruent","Congruent","Incongruent","Incongruent","Congruent","Congruent","Congruent","Incongruent","Congruent","Incongruent","Incongruent","Congruent","Incongruent","Incongruent","Incongruent","Congruent","Incongruent","Incongruent","Incongruent","Congruent","Incongruent","Congruent","Congruent","Incongruent","Congruent","Incongruent","Incongruent","Incongruent","Congruent","Incongruent","Congruent","Incongruent","Incongruent","Incongruent","Incongruent","Incongruent","Incongruent","Incongruent","Congruent","Congruent","Congruent","Incongruent","Incongruent","Incongruent","Incongruent","Congruent","Incongruent","Incongruent","Congruent","Congruent","Incongruent","Congruent","Congruent","Congruent","Congruent"],"ratio_trial":[300,300,300,300,100,100,300,100,300,200,200,200,100,200,300,200,300,200,300,100,300,100,200,100,300,100,200,100,300,200,200,300,200,200,200,300,100,300,100,100,100,200,100,200,100,300,100,200,300,200,200,100,200,100,100,300,300,200,100,200,200,200,200,300,300,200,100,100,300,300,100,100,100,200,100,200,100,200,300,200,300,300,300,300,100,100,300,300,200,200,300,300,200,200,100,100,100,100,200,300,300,200,300,100,300,300,300,100,200,100,300,200,100,200,200,100,100,100,200,300],"left_num":[1,24,5,7,7,10,24,3,3,7,3,11,15,9,11,11,13,14,20,7,4,9,20,12,4,9,6,6,7,3,3,1,7,3,1,24,3,4,10,10,12,4,6,6,12,4,9,3,13,6,14,15,4,6,8,8,8,11,7,5,6,14,4,5,1,14,11,9,13,1,11,2,3,4,1,9,15,7,4,1,1,8,13,8,3,3,1,8,7,9,7,13,4,3,3,8,2,2,4,8,8,3,1,7,3,1,4,6,11,6,3,7,9,9,3,11,3,3,4,1],"right_num":[19,8,6,8,9,9,2,2,4,18,1,3,13,4,4,3,12,6,14,15,2,13,9,2,2,13,3,11,20,14,14,3,8,9,3,8,4,8,9,3,13,1,5,3,9,2,13,11,12,3,12,13,3,13,2,14,9,3,9,14,7,12,3,6,3,6,4,13,12,3,6,6,11,3,8,8,13,6,2,3,8,14,12,9,2,11,11,1,8,4,8,12,1,9,4,2,8,8,14,14,14,11,3,15,2,7,2,7,3,11,11,6,20,13,11,9,2,4,3,11],"left_den":[3,30,25,10,14,25,30,6,6,15,10,20,25,20,22,20,26,28,25,14,20,15,25,30,20,15,15,10,14,6,10,5,10,12,2,30,20,5,25,25,30,30,20,15,24,5,15,10,26,20,30,25,8,10,16,10,10,20,14,10,12,30,8,25,5,30,22,15,26,5,22,5,5,8,2,15,25,15,20,2,30,10,26,10,6,5,5,16,10,20,10,26,30,12,6,16,4,4,6,10,10,4,2,14,6,20,20,10,20,10,12,15,10,30,10,22,6,20,10,5],"right_den":[30,16,12,20,15,18,4,5,20,27,2,4,26,16,20,4,15,20,28,25,4,26,15,4,4,26,15,22,25,20,28,6,16,20,10,16,16,16,18,10,26,3,25,15,15,4,26,22,15,6,18,26,10,26,5,28,18,4,15,20,10,18,10,12,6,9,10,26,15,6,15,12,22,10,20,10,26,9,4,10,24,28,15,18,5,22,22,5,16,16,20,15,3,20,10,5,20,20,30,28,28,20,15,25,10,20,4,14,4,22,20,9,25,26,22,15,5,16,15,22],"correct_side":[2,1,2,1,2,2,1,1,1,2,2,2,1,1,1,2,2,1,1,2,2,1,1,2,2,1,1,1,2,2,2,2,1,2,1,1,2,1,2,1,2,2,1,1,2,1,1,2,2,2,2,1,1,1,1,1,1,2,2,2,2,2,1,2,2,2,1,1,2,2,1,2,1,1,1,2,1,2,2,1,2,1,2,1,1,1,2,1,1,1,1,2,2,2,1,1,1,1,1,1,1,1,1,2,1,2,2,1,2,1,2,2,1,2,2,2,1,2,1,2],"img_shown":["img2/300/Congruent/R/C_Dist_300_LN_1_LD_3_RN_19_RD_30_1.png","img2/300/Congruent/L/C_Dist_300_LN_24_LD_30_RN_8_RD_16_0.png","img2/300/Congruent/R/C_Dist_300_LN_5_LD_25_RN_6_RD_12_1.png","img2/300/Incongruent/L/I_Dist_300_LN_7_LD_10_RN_8_RD_20_0.png","img2/100/Congruent/R/C_Dist_100_LN_7_LD_14_RN_9_RD_15_1.png","img2/100/Incongruent/R/I_Dist_100_LN_10_LD_25_RN_9_RD_18_1.png","img2/300/Congruent/L/C_Dist_300_LN_24_LD_30_RN_2_RD_4_0.png","img2/100/Congruent/L/C_Dist_100_LN_3_LD_6_RN_2_RD_5_0.png","img2/300/Incongruent/L/I_Dist_300_LN_3_LD_6_RN_4_RD_20_0.png","img2/200/Congruent/R/C_Dist_200_LN_7_LD_15_RN_18_RD_27_1.png","img2/200/Incongruent/R/I_Dist_200_LN_3_LD_10_RN_1_RD_2_1.png","img2/200/Incongruent/R/I_Dist_200_LN_11_LD_20_RN_3_RD_4_1.png","img2/100/Congruent/L/C_Dist_100_LN_15_LD_25_RN_13_RD_26_0.png","img2/200/Congruent/L/C_Dist_200_LN_9_LD_20_RN_4_RD_16_0.png","img2/300/Congruent/L/C_Dist_300_LN_11_LD_22_RN_4_RD_20_0.png","img2/200/Incongruent/R/I_Dist_200_LN_11_LD_20_RN_3_RD_4_1.png","img2/300/Incongruent/R/I_Dist_300_LN_13_LD_26_RN_12_RD_15_1.png","img2/200/Congruent/L/C_Dist_200_LN_14_LD_28_RN_6_RD_20_0.png","img2/300/Congruent/L/C_Dist_300_LN_20_LD_25_RN_14_RD_28_0.png","img2/100/Congruent/R/C_Dist_100_LN_7_LD_14_RN_15_RD_25_1.png","img2/300/Incongruent/R/I_Dist_300_LN_4_LD_20_RN_2_RD_4_1.png","img2/100/Incongruent/L/I_Dist_100_LN_9_LD_15_RN_13_RD_26_0.png","img2/200/Congruent/L/C_Dist_200_LN_20_LD_25_RN_9_RD_15_0.png","img2/100/Incongruent/R/I_Dist_100_LN_12_LD_30_RN_2_RD_4_1.png","img2/300/Incongruent/R/I_Dist_300_LN_4_LD_20_RN_2_RD_4_1.png","img2/100/Incongruent/L/I_Dist_100_LN_9_LD_15_RN_13_RD_26_0.png","img2/200/Congruent/L/C_Dist_200_LN_6_LD_15_RN_3_RD_15_0.png","img2/100/Incongruent/L/I_Dist_100_LN_6_LD_10_RN_11_RD_22_0.png","img2/300/Congruent/R/C_Dist_300_LN_7_LD_14_RN_20_RD_25_1.png","img2/200/Congruent/R/C_Dist_200_LN_3_LD_6_RN_14_RD_20_1.png","img2/200/Congruent/R/C_Dist_200_LN_3_LD_10_RN_14_RD_28_1.png","img2/300/Congruent/R/C_Dist_300_LN_1_LD_5_RN_3_RD_6_1.png","img2/200/Incongruent/L/I_Dist_200_LN_7_LD_10_RN_8_RD_16_0.png","img2/200/Congruent/R/C_Dist_200_LN_3_LD_12_RN_9_RD_20_1.png","img2/200/Incongruent/L/I_Dist_200_LN_1_LD_2_RN_3_RD_10_0.png","img2/300/Congruent/L/C_Dist_300_LN_24_LD_30_RN_8_RD_16_0.png","img2/100/Congruent/R/C_Dist_100_LN_3_LD_20_RN_4_RD_16_1.png","img2/300/Incongruent/L/I_Dist_300_LN_4_LD_5_RN_8_RD_16_0.png","img2/100/Incongruent/R/I_Dist_100_LN_10_LD_25_RN_9_RD_18_1.png","img2/100/Congruent/L/C_Dist_100_LN_10_LD_25_RN_3_RD_10_0.png","img2/100/Congruent/R/C_Dist_100_LN_12_LD_30_RN_13_RD_26_1.png","img2/200/Incongruent/R/I_Dist_200_LN_4_LD_30_RN_1_RD_3_1.png","img2/100/Congruent/L/C_Dist_100_LN_6_LD_20_RN_5_RD_25_0.png","img2/200/Congruent/L/C_Dist_200_LN_6_LD_15_RN_3_RD_15_0.png","img2/100/Incongruent/R/I_Dist_100_LN_12_LD_24_RN_9_RD_15_1.png","img2/300/Congruent/L/C_Dist_300_LN_4_LD_5_RN_2_RD_4_0.png","img2/100/Incongruent/L/I_Dist_100_LN_9_LD_15_RN_13_RD_26_0.png","img2/200/Congruent/R/C_Dist_200_LN_3_LD_10_RN_11_RD_22_1.png","img2/300/Incongruent/R/I_Dist_300_LN_13_LD_26_RN_12_RD_15_1.png","img2/200/Incongruent/R/I_Dist_200_LN_6_LD_20_RN_3_RD_6_1.png","img2/200/Incongruent/R/I_Dist_200_LN_14_LD_30_RN_12_RD_18_1.png","img2/100/Congruent/L/C_Dist_100_LN_15_LD_25_RN_13_RD_26_0.png","img2/200/Congruent/L/C_Dist_200_LN_4_LD_8_RN_3_RD_10_0.png","img2/100/Incongruent/L/I_Dist_100_LN_6_LD_10_RN_13_RD_26_0.png","img2/100/Congruent/L/C_Dist_100_LN_8_LD_16_RN_2_RD_5_0.png","img2/300/Incongruent/L/I_Dist_300_LN_8_LD_10_RN_14_RD_28_0.png","img2/300/Incongruent/L/I_Dist_300_LN_8_LD_10_RN_9_RD_18_0.png","img2/200/Incongruent/R/I_Dist_200_LN_11_LD_20_RN_3_RD_4_1.png","img2/100/Congruent/R/C_Dist_100_LN_7_LD_14_RN_9_RD_15_1.png","img2/200/Congruent/R/C_Dist_200_LN_5_LD_10_RN_14_RD_20_1.png","img2/200/Congruent/R/C_Dist_200_LN_6_LD_12_RN_7_RD_10_1.png","img2/200/Incongruent/R/I_Dist_200_LN_14_LD_30_RN_12_RD_18_1.png","img2/200/Congruent/L/C_Dist_200_LN_4_LD_8_RN_3_RD_10_0.png","img2/300/Congruent/R/C_Dist_300_LN_5_LD_25_RN_6_RD_12_1.png","img2/300/Congruent/R/C_Dist_300_LN_1_LD_5_RN_3_RD_6_1.png","img2/200/Incongruent/R/I_Dist_200_LN_14_LD_30_RN_6_RD_9_1.png","img2/100/Congruent/L/C_Dist_100_LN_11_LD_22_RN_4_RD_10_0.png","img2/100/Incongruent/L/I_Dist_100_LN_9_LD_15_RN_13_RD_26_0.png","img2/300/Incongruent/R/I_Dist_300_LN_13_LD_26_RN_12_RD_15_1.png","img2/300/Congruent/R/C_Dist_300_LN_1_LD_5_RN_3_RD_6_1.png","img2/100/Congruent/L/C_Dist_100_LN_11_LD_22_RN_6_RD_15_0.png","img2/100/Congruent/R/C_Dist_100_LN_2_LD_5_RN_6_RD_12_1.png","img2/100/Incongruent/L/I_Dist_100_LN_3_LD_5_RN_11_RD_22_0.png","img2/200/Congruent/L/C_Dist_200_LN_4_LD_8_RN_3_RD_10_0.png","img2/100/Incongruent/L/I_Dist_100_LN_1_LD_2_RN_8_RD_20_0.png","img2/200/Incongruent/R/I_Dist_200_LN_9_LD_15_RN_8_RD_10_1.png","img2/100/Congruent/L/C_Dist_100_LN_15_LD_25_RN_13_RD_26_0.png","img2/200/Incongruent/R/I_Dist_200_LN_7_LD_15_RN_6_RD_9_1.png","img2/300/Incongruent/R/I_Dist_300_LN_4_LD_20_RN_2_RD_4_1.png","img2/200/Incongruent/L/I_Dist_200_LN_1_LD_2_RN_3_RD_10_0.png","img2/300/Congruent/R/C_Dist_300_LN_1_LD_30_RN_8_RD_24_1.png","img2/300/Incongruent/L/I_Dist_300_LN_8_LD_10_RN_14_RD_28_0.png","img2/300/Incongruent/R/I_Dist_300_LN_13_LD_26_RN_12_RD_15_1.png","img2/300/Incongruent/L/I_Dist_300_LN_8_LD_10_RN_9_RD_18_0.png","img2/100/Congruent/L/C_Dist_100_LN_3_LD_6_RN_2_RD_5_0.png","img2/100/Incongruent/L/I_Dist_100_LN_3_LD_5_RN_11_RD_22_0.png","img2/300/Congruent/R/C_Dist_300_LN_1_LD_5_RN_11_RD_22_1.png","img2/300/Congruent/L/C_Dist_300_LN_8_LD_16_RN_1_RD_5_0.png","img2/200/Incongruent/L/I_Dist_200_LN_7_LD_10_RN_8_RD_16_0.png","img2/200/Congruent/L/C_Dist_200_LN_9_LD_20_RN_4_RD_16_0.png","img2/300/Incongruent/L/I_Dist_300_LN_7_LD_10_RN_8_RD_20_0.png","img2/300/Incongruent/R/I_Dist_300_LN_13_LD_26_RN_12_RD_15_1.png","img2/200/Incongruent/R/I_Dist_200_LN_4_LD_30_RN_1_RD_3_1.png","img2/200/Congruent/R/C_Dist_200_LN_3_LD_12_RN_9_RD_20_1.png","img2/100/Incongruent/L/I_Dist_100_LN_3_LD_6_RN_4_RD_10_0.png","img2/100/Congruent/L/C_Dist_100_LN_8_LD_16_RN_2_RD_5_0.png","img2/100/Incongruent/L/I_Dist_100_LN_2_LD_4_RN_8_RD_20_0.png","img2/100/Incongruent/L/I_Dist_100_LN_2_LD_4_RN_8_RD_20_0.png","img2/200/Incongruent/L/I_Dist_200_LN_4_LD_6_RN_14_RD_30_0.png","img2/300/Incongruent/L/I_Dist_300_LN_8_LD_10_RN_14_RD_28_0.png","img2/300/Incongruent/L/I_Dist_300_LN_8_LD_10_RN_14_RD_28_0.png","img2/200/Incongruent/L/I_Dist_200_LN_3_LD_4_RN_11_RD_20_0.png","img2/300/Incongruent/L/I_Dist_300_LN_1_LD_2_RN_3_RD_15_0.png","img2/100/Congruent/R/C_Dist_100_LN_7_LD_14_RN_15_RD_25_1.png","img2/300/Congruent/L/C_Dist_300_LN_3_LD_6_RN_2_RD_10_0.png","img2/300/Congruent/R/C_Dist_300_LN_1_LD_20_RN_7_RD_20_1.png","img2/300/Incongruent/R/I_Dist_300_LN_4_LD_20_RN_2_RD_4_1.png","img2/100/Incongruent/L/I_Dist_100_LN_6_LD_10_RN_7_RD_14_0.png","img2/200/Incongruent/R/I_Dist_200_LN_11_LD_20_RN_3_RD_4_1.png","img2/100/Incongruent/L/I_Dist_100_LN_6_LD_10_RN_11_RD_22_0.png","img2/300/Congruent/R/C_Dist_300_LN_3_LD_12_RN_11_RD_20_1.png","img2/200/Incongruent/R/I_Dist_200_LN_7_LD_15_RN_6_RD_9_1.png","img2/100/Incongruent/L/I_Dist_100_LN_9_LD_10_RN_20_RD_25_0.png","img2/200/Congruent/R/C_Dist_200_LN_9_LD_30_RN_13_RD_26_1.png","img2/200/Congruent/R/C_Dist_200_LN_3_LD_10_RN_11_RD_22_1.png","img2/100/Incongruent/R/I_Dist_100_LN_11_LD_22_RN_9_RD_15_1.png","img2/100/Congruent/L/C_Dist_100_LN_3_LD_6_RN_2_RD_5_0.png","img2/100/Congruent/R/C_Dist_100_LN_3_LD_20_RN_4_RD_16_1.png","img2/200/Congruent/L/C_Dist_200_LN_4_LD_10_RN_3_RD_15_0.png","img2/300/Congruent/R/C_Dist_300_LN_1_LD_5_RN_11_RD_22_1.png"],"dist100_C":[["C_Dist_100_LN_10_LD_25_RN_3_RD_10_0.png","C_Dist_100_LN_11_LD_22_RN_4_RD_10_0.png","C_Dist_100_LN_11_LD_22_RN_6_RD_15_0.png","C_Dist_100_LN_15_LD_25_RN_13_RD_26_0.png","C_Dist_100_LN_3_LD_6_RN_2_RD_5_0.png","C_Dist_100_LN_6_LD_20_RN_5_RD_25_0.png","C_Dist_100_LN_8_LD_16_RN_2_RD_5_0.png","C_Dist_100_LN_9_LD_15_RN_8_RD_16_0.png"],["C_Dist_100_LN_1_LD_2_RN_18_RD_30_1.png","C_Dist_100_LN_1_LD_2_RN_3_RD_5_1.png","C_Dist_100_LN_12_LD_30_RN_13_RD_26_1.png","C_Dist_100_LN_2_LD_5_RN_11_RD_22_1.png","C_Dist_100_LN_2_LD_5_RN_6_RD_12_1.png","C_Dist_100_LN_3_LD_20_RN_4_RD_16_1.png","C_Dist_100_LN_4_LD_10_RN_15_RD_30_1.png","C_Dist_100_LN_4_LD_8_RN_6_RD_10_1.png","C_Dist_100_LN_6_LD_12_RN_15_RD_25_1.png","C_Dist_100_LN_7_LD_14_RN_15_RD_25_1.png","C_Dist_100_LN_7_LD_14_RN_9_RD_15_1.png"]],"dist100_I":[["I_Dist_100_LN_1_LD_2_RN_8_RD_20_0.png","I_Dist_100_LN_2_LD_4_RN_6_RD_15_0.png","I_Dist_100_LN_2_LD_4_RN_8_RD_20_0.png","I_Dist_100_LN_3_LD_5_RN_11_RD_22_0.png","I_Dist_100_LN_3_LD_5_RN_8_RD_16_0.png","I_Dist_100_LN_3_LD_6_RN_4_RD_10_0.png","I_Dist_100_LN_3_LD_9_RN_7_RD_30_0.png","I_Dist_100_LN_4_LD_8_RN_8_RD_20_0.png","I_Dist_100_LN_6_LD_10_RN_11_RD_22_0.png","I_Dist_100_LN_6_LD_10_RN_13_RD_26_0.png","I_Dist_100_LN_6_LD_10_RN_7_RD_14_0.png","I_Dist_100_LN_9_LD_10_RN_20_RD_25_0.png","I_Dist_100_LN_9_LD_15_RN_13_RD_26_0.png","I_Dist_100_LN_9_LD_15_RN_14_RD_28_0.png"],["I_Dist_100_LN_10_LD_25_RN_8_RD_16_1.png","I_Dist_100_LN_10_LD_25_RN_9_RD_18_1.png","I_Dist_100_LN_11_LD_22_RN_9_RD_15_1.png","I_Dist_100_LN_12_LD_24_RN_9_RD_15_1.png","I_Dist_100_LN_12_LD_30_RN_2_RD_4_1.png","I_Dist_100_LN_13_LD_26_RN_12_RD_20_1.png","I_Dist_100_LN_13_LD_26_RN_6_RD_10_1.png","I_Dist_100_LN_17_LD_30_RN_10_RD_15_1.png","I_Dist_100_LN_6_LD_12_RN_3_RD_5_1.png","I_Dist_100_LN_8_LD_16_RN_6_RD_10_1.png","I_Dist_100_LN_8_LD_20_RN_1_RD_2_1.png","I_Dist_100_LN_9_LD_18_RN_6_RD_10_1.png"]],"dist100_S":[["E_Dist_100_LN_2_LD_12_RN_2_RD_30_0.png","E_Dist_100_LN_6_LD_10_RN_6_RD_12_0.png"],["E_Dist_100_LN_6_LD_12_RN_6_RD_10_1.png"]],"dist200_C":[["C_Dist_200_LN_11_LD_22_RN_3_RD_10_0.png","C_Dist_200_LN_12_LD_15_RN_6_RD_10_0.png","C_Dist_200_LN_12_LD_20_RN_6_RD_15_0.png","C_Dist_200_LN_14_LD_28_RN_6_RD_20_0.png","C_Dist_200_LN_15_LD_25_RN_4_RD_10_0.png","C_Dist_200_LN_16_LD_20_RN_12_RD_20_0.png","C_Dist_200_LN_16_LD_30_RN_9_RD_27_0.png","C_Dist_200_LN_20_LD_25_RN_9_RD_15_0.png","C_Dist_200_LN_21_LD_30_RN_2_RD_4_0.png","C_Dist_200_LN_4_LD_10_RN_3_RD_15_0.png","C_Dist_200_LN_4_LD_8_RN_3_RD_10_0.png","C_Dist_200_LN_6_LD_15_RN_3_RD_15_0.png","C_Dist_200_LN_7_LD_21_RN_2_RD_15_0.png","C_Dist_200_LN_8_LD_15_RN_2_RD_6_0.png","C_Dist_200_LN_8_LD_15_RN_3_RD_9_0.png","C_Dist_200_LN_8_LD_15_RN_7_RD_21_0.png","C_Dist_200_LN_9_LD_20_RN_4_RD_16_0.png"],["C_Dist_200_LN_1_LD_2_RN_21_RD_30_1.png","C_Dist_200_LN_13_LD_26_RN_14_RD_20_1.png","C_Dist_200_LN_3_LD_10_RN_11_RD_22_1.png","C_Dist_200_LN_3_LD_10_RN_14_RD_28_1.png","C_Dist_200_LN_3_LD_10_RN_7_RD_14_1.png","C_Dist_200_LN_3_LD_12_RN_9_RD_20_1.png","C_Dist_200_LN_3_LD_6_RN_14_RD_20_1.png","C_Dist_200_LN_5_LD_10_RN_14_RD_20_1.png","C_Dist_200_LN_6_LD_12_RN_7_RD_10_1.png","C_Dist_200_LN_6_LD_20_RN_11_RD_22_1.png","C_Dist_200_LN_7_LD_15_RN_18_RD_27_1.png","C_Dist_200_LN_9_LD_30_RN_13_RD_26_1.png"]],"dist200_I":[["I_Dist_200_LN_1_LD_2_RN_3_RD_10_0.png","I_Dist_200_LN_1_LD_3_RN_2_RD_15_0.png","I_Dist_200_LN_3_LD_4_RN_11_RD_20_0.png","I_Dist_200_LN_4_LD_5_RN_6_RD_10_0.png","I_Dist_200_LN_4_LD_6_RN_14_RD_30_0.png","I_Dist_200_LN_7_LD_10_RN_12_RD_24_0.png","I_Dist_200_LN_7_LD_10_RN_14_RD_28_0.png","I_Dist_200_LN_7_LD_10_RN_8_RD_16_0.png"],["I_Dist_200_LN_11_LD_20_RN_3_RD_4_1.png","I_Dist_200_LN_14_LD_30_RN_12_RD_18_1.png","I_Dist_200_LN_14_LD_30_RN_6_RD_9_1.png","I_Dist_200_LN_3_LD_10_RN_1_RD_2_1.png","I_Dist_200_LN_4_LD_30_RN_1_RD_3_1.png","I_Dist_200_LN_6_LD_20_RN_3_RD_6_1.png","I_Dist_200_LN_7_LD_15_RN_4_RD_6_1.png","I_Dist_200_LN_7_LD_15_RN_6_RD_9_1.png","I_Dist_200_LN_9_LD_15_RN_8_RD_10_1.png"]],"dist200_S":[["E_Dist_200_LN_3_LD_6_RN_3_RD_10_0.png"],["E_Dist_200_LN_3_LD_10_RN_3_RD_6_1.png"]],"dist300_C":[["C_Dist_300_LN_11_LD_22_RN_1_RD_5_0.png","C_Dist_300_LN_11_LD_22_RN_2_RD_10_0.png","C_Dist_300_LN_11_LD_22_RN_4_RD_20_0.png","C_Dist_300_LN_12_LD_24_RN_2_RD_10_0.png","C_Dist_300_LN_18_LD_20_RN_9_RD_15_0.png","C_Dist_300_LN_20_LD_25_RN_13_RD_26_0.png","C_Dist_300_LN_20_LD_25_RN_14_RD_28_0.png","C_Dist_300_LN_20_LD_25_RN_5_RD_10_0.png","C_Dist_300_LN_20_LD_25_RN_8_RD_16_0.png","C_Dist_300_LN_20_LD_25_RN_9_RD_18_0.png","C_Dist_300_LN_24_LD_30_RN_2_RD_4_0.png","C_Dist_300_LN_24_LD_30_RN_8_RD_16_0.png","C_Dist_300_LN_3_LD_6_RN_2_RD_10_0.png","C_Dist_300_LN_4_LD_10_RN_1_RD_10_0.png","C_Dist_300_LN_4_LD_5_RN_2_RD_4_0.png","C_Dist_300_LN_8_LD_16_RN_1_RD_5_0.png","C_Dist_300_LN_9_LD_10_RN_3_RD_5_0.png"],["C_Dist_300_LN_1_LD_20_RN_7_RD_20_1.png","C_Dist_300_LN_1_LD_3_RN_19_RD_30_1.png","C_Dist_300_LN_1_LD_30_RN_8_RD_24_1.png","C_Dist_300_LN_1_LD_5_RN_11_RD_22_1.png","C_Dist_300_LN_1_LD_5_RN_3_RD_6_1.png","C_Dist_300_LN_1_LD_5_RN_6_RD_12_1.png","C_Dist_300_LN_2_LD_10_RN_12_RD_24_1.png","C_Dist_300_LN_2_LD_20_RN_10_RD_25_1.png","C_Dist_300_LN_3_LD_12_RN_11_RD_20_1.png","C_Dist_300_LN_3_LD_6_RN_4_RD_5_1.png","C_Dist_300_LN_4_LD_20_RN_13_RD_26_1.png","C_Dist_300_LN_5_LD_25_RN_6_RD_12_1.png","C_Dist_300_LN_5_LD_25_RN_7_RD_14_1.png","C_Dist_300_LN_7_LD_14_RN_20_RD_25_1.png","C_Dist_300_LN_8_LD_15_RN_10_RD_12_1.png"]],"dist300_I":[["I_Dist_300_LN_1_LD_2_RN_2_RD_10_0.png","I_Dist_300_LN_1_LD_2_RN_3_RD_15_0.png","I_Dist_300_LN_2_LD_4_RN_6_RD_30_0.png","I_Dist_300_LN_3_LD_6_RN_4_RD_20_0.png","I_Dist_300_LN_4_LD_5_RN_6_RD_12_0.png","I_Dist_300_LN_4_LD_5_RN_8_RD_16_0.png","I_Dist_300_LN_7_LD_10_RN_8_RD_20_0.png","I_Dist_300_LN_8_LD_10_RN_14_RD_28_0.png","I_Dist_300_LN_8_LD_10_RN_9_RD_18_0.png"],["I_Dist_300_LN_13_LD_26_RN_12_RD_15_1.png","I_Dist_300_LN_4_LD_20_RN_2_RD_4_1.png"]],"dist300_S":[["E_Dist_300_LN_9_LD_12_RN_9_RD_20_0.png"],["E_Dist_300_LN_18_LD_30_RN_18_RD_20_1.png","E_Dist_300_LN_3_LD_10_RN_3_RD_5_1.png","E_Dist_300_LN_9_LD_20_RN_9_RD_12_1.png"]],"dist500_C":[["C_Dist_500_LN_10_LD_13_RN_7_RD_26_0.png","C_Dist_500_LN_10_LD_15_RN_4_RD_24_0.png","C_Dist_500_LN_12_LD_16_RN_3_RD_12_0.png","C_Dist_500_LN_12_LD_18_RN_4_RD_24_0.png","C_Dist_500_LN_15_LD_18_RN_5_RD_15_0.png","C_Dist_500_LN_15_LD_20_RN_1_RD_4_0.png","C_Dist_500_LN_18_LD_27_RN_1_RD_6_0.png","C_Dist_500_LN_20_LD_24_RN_1_RD_3_0.png","C_Dist_500_LN_20_LD_24_RN_3_RD_9_0.png","C_Dist_500_LN_20_LD_24_RN_7_RD_21_0.png","C_Dist_500_LN_20_LD_28_RN_3_RD_14_0.png","C_Dist_500_LN_21_LD_28_RN_6_RD_24_0.png","C_Dist_500_LN_22_LD_28_RN_2_RD_7_0.png","C_Dist_500_LN_25_LD_30_RN_9_RD_27_0.png","C_Dist_500_LN_4_LD_6_RN_1_RD_6_0.png","C_Dist_500_LN_5_LD_6_RN_2_RD_6_0.png","C_Dist_500_LN_6_LD_9_RN_1_RD_6_0.png","C_Dist_500_LN_7_LD_10_RN_1_RD_5_0.png","C_Dist_500_LN_8_LD_12_RN_1_RD_6_0.png","C_Dist_500_LN_8_LD_12_RN_4_RD_24_0.png"],["C_Dist_500_LN_1_LD_4_RN_12_RD_16_1.png","C_Dist_500_LN_1_LD_4_RN_9_RD_12_1.png","C_Dist_500_LN_1_LD_9_RN_11_RD_18_1.png","C_Dist_500_LN_10_LD_24_RN_22_RD_24_1.png","C_Dist_500_LN_2_LD_12_RN_10_RD_15_1.png","C_Dist_500_LN_2_LD_12_RN_12_RD_18_1.png","C_Dist_500_LN_2_LD_12_RN_4_RD_6_1.png","C_Dist_500_LN_2_LD_24_RN_7_RD_12_1.png","C_Dist_500_LN_2_LD_5_RN_18_RD_20_1.png","C_Dist_500_LN_2_LD_5_RN_9_RD_10_1.png","C_Dist_500_LN_2_LD_8_RN_12_RD_16_1.png","C_Dist_500_LN_2_LD_8_RN_21_RD_28_1.png","C_Dist_500_LN_3_LD_10_RN_4_RD_5_1.png","C_Dist_500_LN_3_LD_12_RN_15_RD_20_1.png","C_Dist_500_LN_3_LD_30_RN_6_RD_10_1.png","C_Dist_500_LN_3_LD_8_RN_14_RD_16_1.png","C_Dist_500_LN_4_LD_16_RN_15_RD_20_1.png","C_Dist_500_LN_4_LD_24_RN_12_RD_18_1.png","C_Dist_500_LN_5_LD_14_RN_6_RD_7_1.png","C_Dist_500_LN_7_LD_21_RN_20_RD_24_1.png","C_Dist_500_LN_7_LD_28_RN_12_RD_16_1.png","C_Dist_500_LN_7_LD_28_RN_9_RD_12_1.png","C_Dist_500_LN_9_LD_27_RN_20_RD_24_1.png"]],"dist500_I":[["I_Dist_500_LN_2_LD_3_RN_4_RD_24_0.png","I_Dist_500_LN_5_LD_6_RN_6_RD_18_0.png","I_Dist_500_LN_7_LD_8_RN_9_RD_24_0.png"],["I_Dist_500_LN_7_LD_21_RN_5_RD_6_1.png"]],"dist500_S":[["E_Dist_500_LN_6_LD_8_RN_6_RD_24_0.png"],["E_Dist_500_LN_2_LD_12_RN_2_RD_3_1.png","E_Dist_500_LN_6_LD_24_RN_6_RD_8_1.png"]]}},{"start_time":1551899626002,"click_time":1551899636032,"finger_time":1551899626412,"fix_duration":1390.9704504593876,"trial":1,"RT":410,"MT":9620,"sideResp":1,"stimulus":[],"xmouse":[748,748,748,748,748,748,748,748,748,748,748,748,748,748,748,748,748,748,748,747,747,754,780,792,793,793,793,793,793,793,793,793,793,793,793,793,793,793,793,793,787,783,779,758,731,686,670,659,649,655,663,669,674,682,686,692,695,696,697,697,697,697,700,712,745,854,933,1031,1132,1143,1143,1143,1143,1143,1143,1142,1126,1105,938,831,740,664,623,612,612,612,612,612,612,612,612,612,612,612,612,612,612,612,613,614,617,618,618,619,622,623,626,629,645,661,685,722,799,942,942,944,945,947,947,948,949,949,949,949,941,938,937,937,932,925,921,919,919,919,919,919,919,919,916,903,888,877,869,863,863,861,838,813,622,506,417,394,394,394,394,394,394,394,394,394,394,394,394,394,394,394,394,394,394,394,394,394,394,394,394,394,394,394,394,394,394,394,394,394,394,394,394,394,394,394,394,394,394,394,394,394,394,394,394,394,394,394,394,394,394,394,394,394,394,394,394,394,394,394,394,394,394,394,394,394,394,394,394,394,394,394,394,394,394,394,394,394,394,394,394,394,394,394,394,394,394,394,394,394,394,394,394,394,394,394,394,394,394,394,394,394,394,394,394,394,394,394,394,394,394,394,394,394,394,394,394,394,394,394,394,394,394,394,394,394,394,394,394,394,394,394,394,394,394,394,394,394,394,394,394,394,394,394,394,394,394,394,394,394,394,394,394,394,394,394,394,394,394,394,394,394,394,394,394,394,394,394,394,394,394,394,394,394,394,394,394,394,394,394,394,394,394,394,394,394,394,394,394,394,394,394,394,394,394,394,394,394,394,394,394,394,394,394,394,394,394,394,394,394,394,394,394,394,394,394,394,394,394,394,394,394,394,394,394,394,394,394,394,394,394,394,394,394,394,394,394,394,394,394,394,394,394,394,394,394,394,394,394,394,394,394,394,394,394,394,394,394,394,394,394,394,394,394,394,394,394,394,394,394,394,394,394,394,394,394,394,394,394,394,394,394,394,394,394,394,394,394,394,394,394,394,394,394,394,394,394,394,394,394,394,394,394,394,394,394,394,394,394,394,394,394,394,394,394,394,394,394,394,394,394,394,394,394,394,394,394,379,447,474,483,483,483,483,483,483,483,483,483,483,483,483,483,483,483,483,482,480],"ymouse":[531,531,531,531,531,531,531,531,531,531,531,531,531,531,531,531,531,531,531,508,490,438,381,318,311,311,311,311,311,311,311,311,311,311,311,311,311,311,311,311,310,310,312,324,335,354,364,377,414,432,443,450,451,454,455,457,459,459,460,460,460,460,464,482,515,576,613,665,712,717,718,718,718,718,718,718,706,686,599,563,538,516,507,506,506,506,506,506,506,506,506,506,506,506,506,506,506,506,506,506,506,506,506,506,506,506,505,504,500,495,488,478,448,409,409,412,411,406,405,403,403,403,403,403,408,410,411,411,414,420,423,425,426,426,426,426,426,426,428,440,455,466,471,475,475,475,460,440,263,141,42,14,14,14,14,14,14,14,14,14,14,14,14,14,14,14,14,14,14,14,14,14,14,14,14,14,14,14,14,14,14,14,14,14,14,14,14,14,14,14,14,14,14,14,14,14,14,14,14,14,14,14,14,14,14,14,14,14,14,14,14,14,14,14,14,14,14,14,14,14,14,14,14,14,14,14,14,14,14,14,14,14,14,14,14,14,14,14,14,14,14,14,14,14,14,14,14,14,14,14,14,14,14,14,14,14,14,14,14,14,14,14,14,14,14,14,14,14,14,14,14,14,14,14,14,14,14,14,14,14,14,14,14,14,14,14,14,14,14,14,14,14,14,14,14,14,14,14,14,14,14,14,14,14,14,14,14,14,14,14,14,14,14,14,14,14,14,14,14,14,14,14,14,14,14,14,14,14,14,14,14,14,14,14,14,14,14,14,14,14,14,14,14,14,14,14,14,14,14,14,14,14,14,14,14,14,14,14,14,14,14,14,14,14,14,14,14,14,14,14,14,14,14,14,14,14,14,14,14,14,14,14,14,14,14,14,14,14,14,14,14,14,14,14,14,14,14,14,14,14,14,14,14,14,14,14,14,14,14,14,14,14,14,14,14,14,14,14,14,14,14,14,14,14,14,14,14,14,14,14,14,14,14,14,14,14,14,14,14,14,14,14,14,14,14,14,14,14,14,14,14,14,14,14,14,14,14,14,14,14,14,14,14,14,14,14,14,14,14,14,14,14,14,14,14,14,14,14,14,14,14,41,100,119,125,125,125,125,125,125,125,125,125,125,125,125,125,124,124,111,104,99],"timestamp_mouse":[9,29,49,69,90,109,131,151,171,189,210,230,250,270,291,311,330,349,370,389,410,430,451,470,491,510,530,549,570,589,610,630,650,669,690,710,729,749,769,789,811,830,850,870,890,909,930,950,969,989,1010,1029,1049,1069,1090,1109,1130,1149,1169,1190,1210,1230,1251,1269,1290,1309,1329,1350,1371,1390,1411,1430,1450,1470,1489,1510,1530,1550,1570,1589,1611,1630,1650,1669,1690,1711,1731,1750,1770,1789,1809,1830,1850,1871,1890,1910,1930,1949,1971,1989,2010,2031,2051,2069,2090,2110,2131,2150,2169,2189,2211,2230,2250,2270,2290,2309,2330,2349,2371,2389,2409,2431,2450,2469,2490,2509,2531,2549,2570,2589,2611,2629,2650,2670,2689,2709,2730,2751,2770,2789,2811,2830,2850,2870,2889,2909,2929,2950,2969,2989,3011,3029,3050,3070,3090,3110,3131,3150,3171,3189,3209,3229,3249,3269,3289,3310,3330,3350,3370,3390,3411,3429,3451,3469,3490,3510,3530,3549,3571,3591,3611,3630,3650,3669,3689,3710,3730,3749,3769,3789,3810,3830,3849,3869,3889,3910,3930,3951,3970,3990,4010,4030,4050,4070,4089,4110,4130,4150,4171,4190,4210,4230,4250,4270,4290,4311,4330,4350,4370,4389,4409,4430,4450,4471,4490,4509,4529,4549,4570,4590,4610,4630,4651,4670,4689,4709,4730,4750,4770,4791,4811,4830,4850,4870,4890,4910,4929,4951,4970,4989,5010,5031,5051,5070,5090,5109,5130,5150,5169,5190,5211,5230,5249,5270,5289,5310,5330,5350,5370,5390,5411,5429,5449,5470,5490,5510,5530,5549,5570,5590,5609,5630,5650,5670,5690,5709,5729,5750,5770,5790,5811,5831,5850,5870,5890,5910,5930,5950,5970,5990,6010,6030,6049,6070,6091,6110,6131,6151,6170,6189,6210,6229,6250,6270,6290,6311,6330,6350,6370,6390,6410,6429,6450,6471,6491,6510,6531,6551,6569,6590,6610,6630,6651,6671,6690,6711,6730,6751,6770,6789,6810,6831,6851,6871,6891,6909,6931,6950,6971,6991,7011,7030,7050,7070,7090,7110,7129,7150,7169,7190,7209,7230,7249,7269,7290,7310,7330,7351,7369,7391,7409,7430,7449,7469,7490,7510,7530,7551,7571,7589,7611,7630,7650,7670,7690,7710,7730,7750,7771,7790,7810,7831,7850,7870,7890,7910,7931,7949,7970,7989,8010,8029,8050,8071,8090,8111,8130,8150,8170,8189,8210,8230,8250,8270,8290,8310,8330,8351,8369,8390,8410,8430,8451,8471,8491,8510,8530,8550,8569,8590,8611,8631,8649,8670,8691,8711,8731,8750,8770,8789,8809,8829,8849,8871,8890,8910,8930,8950,8970,8989,9009,9030,9050,9071,9090,9111,9131,9150,9169,9189,9209,9230,9249,9270,9289,9309,9329,9351,9370,9390,9409,9430,9449,9470,9489,9510,9529,9550,9570,9589,9610,9630,9650,9670,9689,9709,9730,9750,9769,9791,9811,9830,9851,9870,9889,9909,9930,9949,9970,9989,10010,10030],"xSR":741.5,"ySR":501.8,"xT1":424.9,"yT1":0,"xT2":1058.1,"yT2":0,"toosoon":0,"cond_shown":"Congruent","ratio_trial":300,"L_num":24,"L_den":30,"R_num":8,"R_den":16,"correct_side":1,"subjID":"alejandromontealegre29","gender":"No_gender","school":"No_school","age":"No_age"},{"start_time":1551899638484,"click_time":1551899643111,"finger_time":1551899638832,"fix_duration":250,"trial":2,"RT":348,"MT":4279,"sideResp":1,"stimulus":[],"xmouse":[790,790,790,790,790,790,790,790,790,790,790,790,790,790,790,789,777,756,738,717,687,677,671,670,670,670,670,670,670,670,670,670,670,670,670,670,670,670,670,670,670,670,670,670,674,691,748,757,761,763,767,768,769,769,769,769,769,769,769,769,769,767,765,762,760,760,776,798,811,816,817,817,817,817,817,817,817,817,817,817,817,815,809,807,805,803,802,802,800,798,789,785,782,777,776,774,774,774,773,773,773,773,773,773,773,773,773,773,773,773,773,773,773,773,773,773,773,773,773,773,773,773,773,773,773,773,773,773,773,773,773,773,773,773,773,773,773,773,773,773,771,771,771,771,771,771,771,771,771,771,771,771,771,771,771,771,770,769,769,769,769,769,769,769,769,769,769,769,769,769,769,780,795,841,864,937,1052,1074,1079,1080,1081,1080,1078,1074,1070,1057,1037,1030,1022,1018,1016,1016,1016,1016,1016,1018,1019,1019,1019,1019,1019,1019,1019,1020,1020,1020,1020,1020,1020,1016,1007,899,876,861,824,793,744,738,738,738,738,711,683,654,623,617,616,616,614,593,560,467],"ymouse":[581,581,581,581,581,581,581,581,581,581,581,581,581,581,581,581,531,480,423,352,270,250,241,239,238,238,238,238,238,238,238,238,238,238,238,238,238,238,238,238,238,240,273,319,375,460,633,654,665,670,680,682,683,683,683,683,683,683,683,682,673,663,649,634,616,573,533,491,469,459,455,455,455,455,455,455,455,455,455,455,455,456,461,464,468,473,475,478,482,490,515,526,533,542,548,554,554,554,555,555,555,555,555,555,555,555,555,555,555,555,555,555,555,555,555,555,555,555,555,555,555,555,555,555,555,555,555,555,555,555,555,555,555,555,555,555,555,555,555,555,554,553,553,553,553,553,553,553,553,553,553,553,553,553,553,552,549,548,548,548,548,548,548,548,548,548,548,548,547,543,539,508,485,439,422,360,267,247,237,234,233,231,228,222,217,200,177,170,164,160,160,160,158,155,154,152,150,150,150,150,150,150,150,150,150,150,150,150,150,148,144,102,92,88,88,88,88,88,88,88,88,93,97,100,100,100,100,100,100,100,94,72],"timestamp_mouse":[8,29,47,68,87,107,128,148,168,188,209,228,249,267,287,308,327,348,369,388,408,428,449,467,487,508,528,548,569,588,608,628,649,667,688,708,728,748,768,789,808,828,847,867,887,907,927,948,967,987,1008,1028,1049,1068,1088,1109,1129,1149,1169,1187,1208,1227,1247,1267,1289,1308,1327,1347,1367,1388,1408,1428,1448,1468,1489,1508,1528,1547,1568,1587,1608,1627,1648,1668,1688,1708,1727,1748,1768,1788,1808,1828,1849,1868,1887,1907,1928,1948,1967,1987,2008,2028,2048,2068,2088,2108,2128,2148,2168,2188,2208,2228,2248,2268,2288,2309,2328,2348,2368,2387,2408,2429,2449,2469,2487,2508,2529,2549,2567,2588,2609,2629,2648,2668,2689,2709,2729,2749,2769,2788,2808,2827,2849,2869,2889,2909,2928,2949,2967,2987,3008,3028,3049,3068,3087,3108,3128,3147,3167,3188,3208,3228,3247,3267,3287,3307,3328,3348,3368,3388,3408,3427,3448,3468,3487,3507,3527,3548,3568,3588,3608,3628,3647,3668,3689,3707,3729,3748,3768,3788,3809,3828,3848,3868,3888,3907,3927,3948,3968,3988,4009,4027,4048,4067,4087,4107,4129,4148,4168,4188,4209,4228,4248,4268,4288,4307,4329,4349,4368,4388,4408,4428,4449,4468,4489,4509,4527,4548,4567,4588,4607,4627],"xSR":741.5,"ySR":501.8,"xT1":424.9,"yT1":0,"xT2":1058.1,"yT2":0,"toosoon":0,"cond_shown":"Congruent","ratio_trial":300,"L_num":5,"L_den":25,"R_num":6,"R_den":12,"correct_side":2,"subjID":"alejandromontealegre29","gender":"No_gender","school":"No_school","age":"No_age"},{"start_time":1551899645536,"click_time":1551899677493,"finger_time":1551899645651,"fix_duration":1264.9287215408183,"trial":3,"RT":115,"MT":31842,"sideResp":1,"stimulus":[],"xmouse":[778,778,778,778,778,740,670,570,386,372,372,372,372,372,373,379,388,406,442,450,458,470,484,516,519,519,519,519,519,519,519,519,521,536,591,620,640,657,681,692,703,711,716,720,720,720,720,716,712,711,711,711,711,710,710,710,710,710,710,710,710,710,710,710,710,710,710,710,710,710,710,710,710,710,710,710,710,710,710,710,710,710,710,710,710,710,710,710,710,710,710,710,710,710,710,710,710,710,710,710,710,710,710,710,710,710,710,710,710,710,710,710,710,710,710,710,710,710,710,710,710,710,710,710,710,710,710,710,710,710,710,710,710,710,710,710,710,710,710,710,710,710,710,710,710,710,710,710,710,710,710,710,710,710,710,710,710,710,710,710,710,710,710,710,710,710,710,710,710,710,710,710,710,710,710,710,710,710,710,710,710,710,710,710,710,710,710,710,710,710,710,710,710,710,710,710,710,710,710,710,710,710,710,710,710,710,710,710,710,710,710,710,710,710,710,710,710,710,710,709,709,709,709,709,709,709,709,709,709,709,709,709,709,709,709,709,709,709,709,709,709,709,709,709,709,709,709,709,709,709,709,709,709,709,709,709,709,709,709,709,709,709,709,709,709,709,709,709,709,709,709,709,709,709,709,709,709,709,709,709,709,709,709,709,709,709,709,709,709,709,709,709,709,709,709,709,709,709,709,709,709,709,709,709,709,709,709,709,709,709,709,709,709,709,709,709,709,709,709,709,709,709,709,709,709,709,709,709,709,709,709,709,709,709,709,709,709,709,709,709,709,709,709,709,709,709,709,709,709,709,709,709,709,709,709,709,709,709,709,709,709,709,709,709,709,709,709,709,709,709,709,709,709,709,709,709,709,709,709,709,709,709,709,709,709,709,709,709,709,709,709,709,709,709,709,709,709,709,709,709,709,709,709,709,709,709,709,709,709,709,709,709,709,709,709,709,709,709,709,709,709,709,709,709,709,709,709,709,709,709,709,709,709,709,709,709,709,709,709,709,709,709,709,709,709,709,709,709,709,709,709,709,709,709,709,709,709,709,709,709,709,709,709,709,709,709,709,709,709,709,709,709,709,709,709,709,709,709,709,709,709,709,709,709,709,709,709,709,709,709,709,709,709,709,709,709,709,709,709,709,709,709,709,709,709,709,709,709,709,709,709,709,709,709,709,709,709,709,709,709,709,709,709,709,709,709,709,709,709,709,709,709,709,709,709,709,709,709,709,709,709,709,709,709,709,709,709,709,709,709,709,709,709,709,709,709,709,709,709,709,709,709,709,709,709,709,709,709,709,709,709,709,709,709,709,709,709,709,709,709,709,709,709,709,499,419,387,375,372,372,381,389,398,398,398,398,398,398,398,398,398,398,398,398,398,398,398,398,398,398,398,398,398,398,398,398,398,398,398,398,398,398,398,398,398,398,398,398,398,398,398,398,398,398,398,398,398,398,398,398,398,398,398,398,398,398,398,398,398,398,398,398,398,398,398,272,272,272,272,272,272,272,275,283,292,329,377,455,545,634,684,708,713,713,713,713,709,695,676,654,633,602,590,579,569,564,564,564,564,564,565,566,566,564,552,542,511],"ymouse":[550,550,550,550,548,503,427,335,170,158,158,158,158,158,158,158,158,158,171,174,176,180,186,196,198,198,198,198,198,198,198,198,198,204,233,250,264,276,300,315,330,342,354,370,377,383,388,394,397,398,398,398,398,398,398,398,398,398,398,398,398,398,398,398,398,398,398,398,398,398,398,398,398,398,398,398,398,398,398,398,398,398,398,398,398,398,398,398,398,398,398,398,398,398,398,398,398,398,398,398,398,398,398,398,398,398,398,398,398,398,398,398,398,398,398,398,398,398,398,398,398,398,398,398,398,398,398,398,398,398,398,398,398,398,398,398,398,398,398,398,398,398,398,398,398,398,398,398,398,398,398,398,398,398,398,398,398,398,398,398,398,398,398,398,398,398,398,398,398,398,398,398,398,398,398,398,398,398,398,398,398,398,398,398,398,398,398,398,398,398,398,398,398,398,398,398,398,398,398,398,398,398,398,398,398,398,398,398,398,398,398,398,398,398,398,398,398,398,398,398,398,398,398,398,398,398,398,398,398,398,398,398,398,398,398,398,398,398,398,398,398,398,398,398,398,398,398,398,398,398,398,398,398,398,398,398,398,398,398,398,398,398,398,398,398,398,398,398,398,398,398,398,398,398,398,398,398,398,398,398,398,398,398,398,398,398,398,398,398,398,398,398,398,398,398,398,398,398,398,398,398,398,398,398,398,398,398,398,398,398,398,398,398,398,398,398,398,398,398,398,398,398,398,398,398,398,398,398,398,398,398,398,398,398,398,398,398,398,398,398,398,398,398,398,398,398,398,398,398,398,398,398,398,398,398,398,398,398,398,398,398,398,398,398,398,398,398,398,398,398,398,398,398,398,398,398,398,398,398,398,398,398,398,398,398,398,398,398,398,398,398,398,398,398,398,398,398,398,398,398,398,398,398,398,398,398,398,398,398,398,398,398,398,398,398,398,398,398,398,398,398,398,398,398,398,398,398,398,398,398,398,398,398,398,398,398,398,398,398,398,398,398,398,398,398,398,398,398,398,398,398,398,398,398,398,398,398,398,398,398,398,398,398,398,398,398,398,398,398,398,398,398,398,398,398,398,398,398,398,398,398,398,398,398,398,398,398,398,398,398,398,398,398,398,398,398,398,398,398,398,398,398,398,398,398,398,398,398,398,398,398,398,398,398,398,398,398,398,398,398,398,398,398,398,398,398,398,398,398,398,398,398,398,398,398,398,398,398,398,398,398,398,398,398,398,398,398,398,398,398,398,398,398,398,398,398,398,398,398,398,398,398,398,398,398,398,398,398,398,398,398,398,398,398,398,398,398,398,398,398,398,398,398,394,291,275,263,254,241,210,111,56,1,1,1,1,1,1,1,1,1,1,1,1,1,1,1,1,1,1,1,1,1,1,1,1,1,1,1,1,1,1,1,1,1,1,1,1,1,1,1,1,1,1,1,1,1,1,1,1,1,1,1,1,1,1,1,1,1,1,1,1,1,1,1,6,17,23,25,26,26,27,33,42,54,89,117,149,177,190,192,189,187,185,184,184,182,178,172,166,157,144,140,137,134,133,132,130,130,128,127,124,120,115,102,89,63],"timestamp_mouse":[17,36,55,76,95,115,135,156,175,196,217,236,257,276,295,315,335,355,375,395,417,437,456,475,496,517,537,556,577,596,616,637,656,675,696,717,736,756,775,797,816,835,855,875,895,915,936,955,975,995,1015,1035,1055,1076,1096,1116,1137,1156,1175,1195,1215,1237,1256,1275,1295,1315,1337,1357,1376,1396,1415,1436,1457,1476,1496,1515,1535,1556,1575,1596,1615,1635,1655,1675,1696,1716,1735,1756,1776,1796,1816,1837,1857,1876,1896,1915,1936,1956,1977,1997,2017,2037,2056,2076,2097,2117,2136,2157,2177,2196,2217,2237,2257,2276,2297,2317,2337,2356,2376,2397,2416,2436,2456,2476,2497,2516,2535,2555,2576,2596,2616,2635,2655,2676,2696,2715,2735,2755,2776,2796,2815,2835,2855,2876,2895,2915,2936,2955,2975,2996,3015,3035,3055,3075,3095,3115,3135,3155,3175,3195,3215,3235,3255,3275,3295,3316,3335,3355,3375,3395,3415,3435,3455,3475,3497,3516,3536,3556,3576,3595,3615,3635,3656,3676,3695,3715,3736,3755,3776,3795,3815,3835,3855,3876,3895,3917,3937,3957,3976,3996,4016,4036,4055,4075,4095,4117,4137,4156,4176,4197,4216,4237,4257,4276,4296,4316,4336,4356,4376,4397,4415,4435,4455,4477,4496,4517,4537,4556,4576,4597,4617,4636,4656,4675,4696,4717,4736,4755,4777,4796,4817,4837,4856,4876,4895,4916,4936,4957,4976,4995,5016,5037,5056,5077,5097,5116,5136,5157,5176,5196,5217,5236,5257,5277,5296,5316,5336,5356,5377,5397,5416,5436,5455,5475,5495,5515,5535,5555,5575,5595,5615,5635,5655,5675,5695,5715,5735,5755,5775,5795,5815,5835,5855,5875,5895,5915,5935,5955,5975,5996,6015,6035,6055,6075,6095,6115,6135,6155,6175,6195,6215,6235,6256,6277,6295,6315,6335,6355,6375,6396,6416,6435,6456,6476,6496,6516,6535,6555,6575,6595,6616,6636,6656,6677,6695,6717,6736,6756,6777,6796,6816,6835,6855,6875,6896,6915,6936,6956,6976,6995,7016,7036,7056,7075,7095,7115,7136,7156,7176,7195,7215,7237,7256,7277,7296,7317,7337,7356,7376,7396,7417,7436,7457,7477,7496,7515,7537,7556,7575,7595,7616,7637,7656,7676,7695,7716,7736,7756,7776,7795,7815,7835,7855,7876,7896,7915,7936,7957,7976,7996,8016,8036,8056,8076,8097,8116,8136,8155,8176,8196,8215,8236,8255,8275,8296,8315,8336,8356,8375,8396,8415,8435,8456,8476,8496,8516,8535,8556,8577,8596,8616,8635,8657,8676,8695,8715,8736,8757,8775,8796,8816,8835,8856,8876,8895,8915,8936,8956,8976,8995,9016,9036,9057,9077,9096,9115,9136,9156,9176,9196,9216,9236,9255,9276,9296,9316,9335,9356,9377,9397,9417,9436,9457,9476,9496,9516,9536,9556,9575,9595,9616,9637,9656,9676,9696,9716,9735,9756,9775,9797,9815,9836,9855,9877,9895,9915,9936,9955,9976,9997,10016,10036,10056,10077,10096,10115,10136,10156,10177,10197,10216,10236,10257,10277,10297,10317,10336,10357,10376,10396,10416,10435,10455,10476,10495,10515,10537,10556,10577,10597,10616,10636,10657,10677,10696,10716,10735,10755,10775,10796,10815,10835,10857,10877,10896,10916,10937,10956,10977,10997,11016,11036,11057,11077,11095,11115,11136,11155,11175,11196,11215,11236,11255,11277,11296,11315,11335,11356,11375,11397,11417,11435,11455,11475,11495,11516,11536,11555,11575,11596,11615,11636,11655,11677,11696,11716,11735,11755,11776,11795,11816,11835,11857,11876,11896,11917,11936,11956,11977,11996,12016,12037,12056,12075,12096,12116,12136,12156,12176,12195,12216,12236,12257,12277,12296,12316,12337,12357,12376,13187,14187,15187,16189,17188,18189,19190,20189,21189,22188,23187,24189,25188,26187,27189,28187,29187,30188,30785,30797,30816,30836,30857,30876,30897,30916,30937,30956,30976,30996,31015,31037,31055,31075,31095,31116,31137,31156,31175,31195,31215,31235,31256,31276,31295,31316,31337,31355,31377,31397,31416,31436,31456,31476,31496,31516,31535,31555,31575,31596,31615,31635,31656,31675,31696,31715,31735,31757,31777,31797,31816,31835,31856,31876,31897,31917,31936,31957],"xSR":741.5,"ySR":501.8,"xT1":424.9,"yT1":0,"xT2":1058.1,"yT2":0,"toosoon":0,"cond_shown":"Incongruent","ratio_trial":300,"L_num":7,"L_den":10,"R_num":8,"R_den":20,"correct_side":1,"subjID":"alejandromontealegre29","gender":"No_gender","school":"No_school","age":"No_age"},{"start_time":1551899850489,"click_time":1551899852353,"finger_time":1551899852091,"fix_duration":456.12832925964585,"trial":4,"RT":1602,"MT":262,"sideResp":2,"stimulus":[],"xmouse":[773,773,773,773,773,773,773,773,773,773,773,773,773,773,773,773,773,773,773,773,773,773,773,773,773,773,773,773,773,773,773,773,773,773,773,773,773,773,773,773,773,773,773,773,773,773,773,773,773,773,773,773,773,773,773,773,773,773,773,773,773,773,773,773,773,773,773,773,773,773,773,773,773,773,773,775,778,784,793,808,836,846,859,870,881,898,908,914,921,929,964,1001,1049,1073],"ymouse":[585,585,585,585,585,585,585,585,585,585,585,585,585,585,585,585,585,585,585,585,585,585,585,585,585,585,585,585,585,585,585,585,585,585,585,585,585,585,585,585,585,585,585,585,585,585,585,585,585,585,585,585,585,585,585,585,585,585,585,585,585,585,585,585,585,585,585,585,585,585,585,585,585,585,585,582,578,569,556,532,487,462,438,420,400,364,343,333,318,296,207,136,55,20],"timestamp_mouse":[4,23,43,63,83,104,124,144,162,183,203,224,243,264,282,303,324,343,363,383,403,423,444,464,482,503,522,543,563,583,602,623,643,663,684,704,723,742,763,784,803,822,843,862,883,904,922,942,962,984,1004,1022,1042,1062,1084,1104,1124,1143,1163,1183,1204,1223,1244,1264,1282,1303,1323,1342,1364,1384,1403,1424,1443,1463,1483,1502,1523,1542,1563,1582,1602,1622,1643,1663,1683,1703,1724,1742,1763,1782,1802,1823,1843,1864],"xSR":741.5,"ySR":501.8,"xT1":424.9,"yT1":0,"xT2":1058.1,"yT2":0,"toosoon":0,"cond_shown":"Congruent","ratio_trial":100,"L_num":7,"L_den":14,"R_num":9,"R_den":15,"correct_side":2,"subjID":"alejandromontealegre29","gender":"No_gender","school":"No_school","age":"No_age"},{"start_time":1551899854183,"click_time":1551899856652,"finger_time":1551899855673,"fix_duration":250,"trial":5,"RT":1490,"MT":979,"sideResp":2,"stimulus":[],"xmouse":[828,827,826,826,825,825,825,825,825,825,825,825,825,825,825,825,825,825,824,824,824,824,824,824,824,824,824,824,824,824,824,824,824,824,824,824,824,824,824,824,824,824,824,824,824,824,824,824,824,824,824,824,824,824,824,824,824,824,824,824,824,824,824,824,824,824,824,824,824,824,824,824,823,820,816,804,804,815,838,838,838,838,838,838,838,838,838,838,838,838,838,838,838,838,838,838,838,838,838,838,838,838,838,838,838,838,838,838,838,838,838,838,838,838,1017,1031,1035,1037,1037,1037,1040,1044,1050,1059],"ymouse":[537,535,533,532,531,531,531,531,531,531,531,531,531,531,530,530,530,529,529,528,528,528,528,528,528,528,528,528,528,528,528,528,528,528,528,528,527,527,527,527,527,527,527,527,527,527,527,527,527,527,527,527,527,527,527,527,527,527,527,527,527,527,527,527,527,527,527,527,527,527,527,527,518,506,483,378,281,157,29,29,29,29,29,29,29,29,29,29,29,29,29,29,29,29,29,29,29,29,29,29,29,29,29,29,29,29,29,29,29,29,29,29,29,29,3,9,11,11,11,11,12,13,13,16],"timestamp_mouse":[10,29,50,69,89,109,128,148,169,190,210,229,250,268,288,309,329,350,369,389,408,429,449,468,490,510,530,548,569,589,610,630,650,669,690,710,730,748,769,788,810,830,848,869,889,910,928,949,970,990,1009,1030,1049,1068,1089,1110,1129,1150,1169,1190,1210,1228,1250,1269,1288,1309,1329,1349,1369,1389,1409,1429,1449,1470,1490,1509,1529,1549,1569,1589,1609,1629,1649,1670,1689,1710,1729,1750,1769,1789,1809,1829,1849,1869,1889,1908,1929,1950,1970,1989,2008,2028,2049,2069,2088,2110,2129,2149,2169,2188,2208,2228,2250,2269,2288,2309,2328,2349,2368,2388,2409,2429,2450,2469],"xSR":741.5,"ySR":501.8,"xT1":424.9,"yT1":0,"xT2":1058.1,"yT2":0,"toosoon":0,"cond_shown":"Incongruent","ratio_trial":100,"L_num":10,"L_den":25,"R_num":9,"R_den":18,"correct_side":2,"subjID":"alejandromontealegre29","gender":"No_gender","school":"No_school","age":"No_age"},{"start_time":1551899859226,"click_time":1551899860731,"finger_time":1551899860413,"fix_duration":1273.7343049610088,"trial":6,"RT":1187,"MT":318,"sideResp":2,"stimulus":[],"xmouse":[784,784,784,784,784,784,784,784,784,784,784,784,784,784,784,784,784,784,784,784,784,784,784,784,784,784,784,784,784,784,784,784,784,784,784,784,784,784,784,784,784,784,784,784,784,784,784,784,784,784,784,784,784,784,784,784,785,785,785,791,797,802,809,815,816,816,816,816,819,828,842,878,929,985,1047,1065],"ymouse":[522,522,522,522,522,522,522,522,522,522,522,522,522,522,522,522,522,522,522,522,522,522,522,522,522,522,522,522,522,522,522,522,522,522,522,522,522,522,522,522,522,522,522,522,522,522,522,522,522,522,522,522,522,522,521,519,517,513,505,475,454,435,414,389,383,381,379,379,375,362,343,298,232,165,96,77],"timestamp_mouse":[8,26,47,67,85,106,125,145,165,186,205,226,247,266,285,306,326,346,367,387,405,425,446,466,485,507,527,547,566,586,606,627,646,665,686,706,727,747,767,787,806,826,847,865,885,906,925,947,965,986,1006,1026,1046,1067,1087,1106,1125,1145,1165,1187,1205,1226,1246,1266,1286,1307,1327,1346,1366,1386,1406,1427,1446,1466,1485,1505],"xSR":741.5,"ySR":501.8,"xT1":424.9,"yT1":0,"xT2":1058.1,"yT2":0,"toosoon":0,"cond_shown":"Congruent","ratio_trial":300,"L_num":24,"L_den":30,"R_num":2,"R_den":4,"correct_side":1,"subjID":"alejandromontealegre29","gender":"No_gender","school":"No_school","age":"No_age"},{"start_time":1551899863275,"click_time":1551899863711,"finger_time":1551899863633,"fix_duration":1222.2324184503366,"trial":7,"RT":358,"MT":78,"sideResp":1,"stimulus":[],"xmouse":[767,767,767,767,767,767,767,767,767,767,767,767,767,767,767,767,754,729,684,623,526,450],"ymouse":[533,533,533,533,533,533,533,533,533,533,533,533,533,533,533,532,513,480,417,330,164,24],"timestamp_mouse":[17,36,56,78,97,116,138,158,177,197,216,237,258,278,297,316,336,358,377,397,418,436],"xSR":741.5,"ySR":501.8,"xT1":424.9,"yT1":0,"xT2":1058.1,"yT2":0,"toosoon":0,"cond_shown":"Congruent","ratio_trial":100,"L_num":3,"L_den":6,"R_num":2,"R_den":5,"correct_side":1,"subjID":"alejandromontealegre29","gender":"No_gender","school":"No_school","age":"No_age"},{"start_time":1551899865554,"click_time":1551899865912,"finger_time":1551899865691,"fix_duration":460.8584544840127,"trial":8,"RT":137,"MT":221,"sideResp":1,"stimulus":[],"xmouse":[810,810,809,807,804,801,801,800,799,798,797,796,791,785,775,750,666,502],"ymouse":[508,508,507,505,503,502,501,500,499,498,496,494,484,468,444,396,260,37],"timestamp_mouse":[18,37,58,78,98,119,137,158,178,197,219,239,258,279,298,318,338,358],"xSR":741.5,"ySR":501.8,"xT1":424.9,"yT1":0,"xT2":1058.1,"yT2":0,"toosoon":0,"cond_shown":"Incongruent","ratio_trial":300,"L_num":3,"L_den":6,"R_num":4,"R_den":20,"correct_side":1,"subjID":"alejandromontealegre29","gender":"No_gender","school":"No_school","age":"No_age"},{"start_time":1551899871402,"click_time":1551899875172,"finger_time":1551899872832,"fix_duration":250,"trial":9,"RT":1430,"MT":2340,"sideResp":2,"stimulus":[],"xmouse":[801,801,801,801,801,801,801,801,801,801,801,801,801,801,801,801,801,801,801,801,801,801,801,801,801,801,801,801,801,801,801,801,801,801,801,801,801,801,801,801,801,801,801,801,801,801,801,801,801,801,801,801,801,801,801,801,800,799,798,797,797,797,797,797,797,797,796,796,796,796,796,795,791,778,759,737,700,694,691,691,691,691,691,691,691,691,690,690,690,690,690,690,690,689,688,685,672,656,637,615,593,530,511,495,474,457,447,446,446,446,446,446,446,446,446,446,446,446,446,447,447,450,452,453,453,454,454,454,454,454,454,454,454,454,454,455,468,480,496,516,544,618,641,660,678,696,712,739,745,748,749,752,768,780,794,813,844,954,971,976,977,978,978,978,978,979,979,981,982,983,984,991,1021,1029,1037,1041,1044,1045,1045,1046,1047,1047,1047,1047,1047,1047,1047,1050,1061],"ymouse":[517,517,517,517,517,517,517,517,517,517,517,517,517,517,517,517,517,517,517,517,516,516,516,516,516,516,516,516,516,516,516,516,516,516,516,516,516,516,516,516,516,516,516,516,516,516,516,516,516,516,516,516,516,516,516,516,514,513,513,513,513,513,513,513,513,513,512,512,511,510,508,495,482,461,441,424,399,395,393,393,393,393,393,393,393,393,393,393,393,392,392,386,384,381,379,375,363,352,341,329,312,240,206,179,149,124,108,106,106,106,106,106,106,106,106,106,106,106,106,106,106,108,109,111,113,114,115,116,116,117,118,122,123,126,129,135,155,168,180,193,208,230,232,232,232,232,230,226,225,225,224,223,217,214,210,202,190,145,140,137,136,136,136,136,136,136,136,133,132,131,130,125,103,95,86,80,75,72,71,70,69,68,68,68,68,68,68,67,64],"timestamp_mouse":[10,30,50,70,90,111,129,151,169,190,211,229,250,271,291,309,330,350,370,391,410,429,450,470,490,509,530,551,571,591,610,629,651,670,690,711,729,750,770,791,811,831,849,870,889,910,930,951,970,989,1010,1030,1050,1069,1090,1110,1130,1150,1171,1191,1209,1230,1249,1271,1291,1309,1331,1351,1370,1390,1410,1430,1450,1471,1489,1509,1530,1549,1571,1590,1610,1630,1651,1670,1690,1710,1729,1751,1769,1789,1809,1829,1850,1869,1890,1911,1929,1950,1971,1991,2010,2030,2050,2069,2089,2110,2130,2150,2170,2189,2210,2229,2250,2269,2289,2310,2330,2351,2371,2389,2409,2429,2450,2470,2491,2511,2530,2549,2570,2589,2609,2629,2650,2670,2690,2710,2730,2749,2770,2789,2810,2830,2850,2869,2889,2909,2929,2949,2969,2990,3010,3029,3049,3069,3090,3110,3129,3150,3170,3191,3210,3230,3249,3270,3290,3309,3330,3349,3370,3390,3411,3429,3450,3469,3489,3509,3530,3550,3571,3590,3611,3630,3650,3671,3691,3709,3729,3749,3770],"xSR":741.5,"ySR":501.8,"xT1":424.9,"yT1":0,"xT2":1058.1,"yT2":0,"toosoon":0,"cond_shown":"Congruent","ratio_trial":200,"L_num":7,"L_den":15,"R_num":18,"R_den":27,"correct_side":2,"subjID":"alejandromontealegre29","gender":"No_gender","school":"No_school","age":"No_age"},{"start_time":1551899877360,"click_time":1551899878272,"finger_time":1551899877593,"fix_duration":908.5901442728201,"trial":10,"RT":233,"MT":679,"sideResp":2,"stimulus":[],"xmouse":[785,785,785,785,785,785,785,785,785,785,784,780,780,780,780,780,780,780,780,775,775,775,775,775,775,775,775,775,775,775,775,775,775,775,778,785,802,833,886,1009,1052,1084,1105,1112,1116,1116],"ymouse":[530,529,528,528,528,528,528,528,526,517,504,492,492,492,492,492,492,491,491,477,474,474,474,474,474,474,474,474,474,474,474,474,474,471,458,451,444,436,414,342,308,268,206,170,114,89],"timestamp_mouse":[12,32,51,72,93,113,131,151,171,193,213,233,252,273,292,311,332,351,371,392,413,433,452,471,492,511,532,552,573,592,612,632,652,673,693,711,732,751,771,791,811,832,851,871,892,912],"xSR":741.5,"ySR":501.8,"xT1":424.9,"yT1":0,"xT2":1058.1,"yT2":0,"toosoon":0,"cond_shown":"Incongruent","ratio_trial":200,"L_num":3,"L_den":10,"R_num":1,"R_den":2,"correct_side":2,"subjID":"alejandromontealegre29","gender":"No_gender","school":"No_school","age":"No_age"},{"start_time":1551899880563,"click_time":1551899884213,"finger_time":1551899882071,"fix_duration":250,"trial":11,"RT":1508,"MT":2142,"sideResp":1,"stimulus":[],"xmouse":[792,792,792,792,792,792,792,792,792,792,792,792,792,792,792,792,792,792,792,792,792,792,792,792,792,792,792,792,792,792,792,792,792,792,792,792,792,792,792,792,792,792,792,792,792,792,792,792,792,792,792,792,792,792,792,792,792,792,792,792,792,792,792,792,792,792,792,792,792,792,792,792,792,792,792,792,794,795,798,800,800,800,800,800,801,801,802,803,806,808,809,809,810,810,813,814,816,818,819,825,827,830,833,835,842,846,850,854,859,865,876,880,882,884,886,888,888,889,889,891,891,892,894,895,901,904,912,920,931,947,957,958,958,958,958,958,958,958,958,958,956,954,954,954,954,954,954,954,951,946,946,946,946,946,946,946,946,946,946,946,946,946,946,946,934,905,870,824,788,717,692,665,640,620,602,585,585,585,585,576,558,532,500],"ymouse":[512,511,509,508,505,504,504,504,504,504,504,504,504,504,504,504,504,504,504,504,504,504,504,504,504,504,504,504,504,504,504,503,503,503,503,503,503,503,503,503,503,503,503,503,503,503,503,503,503,503,503,503,503,503,503,503,503,503,503,503,503,503,503,503,503,503,503,503,503,503,503,503,503,503,503,500,496,493,489,484,484,483,482,482,481,481,478,474,470,464,462,462,460,459,455,452,448,446,443,434,430,425,420,416,403,397,389,383,375,363,339,330,325,319,316,313,312,311,311,308,307,305,303,302,295,291,287,285,282,276,269,268,267,267,267,266,266,266,266,266,265,265,265,265,264,264,264,264,261,253,252,252,252,252,252,252,252,252,252,252,252,252,252,252,243,229,214,201,192,171,164,156,149,144,141,138,138,138,138,131,121,110,97],"timestamp_mouse":[9,28,48,68,90,110,130,150,170,189,208,229,250,268,289,310,330,349,369,388,409,430,448,469,489,509,529,549,569,589,608,630,649,670,688,708,728,748,768,788,808,828,848,868,888,909,929,949,969,988,1008,1029,1050,1069,1090,1109,1129,1149,1168,1190,1208,1228,1248,1269,1289,1309,1328,1348,1368,1388,1409,1429,1448,1469,1488,1508,1528,1549,1568,1589,1608,1628,1649,1669,1688,1710,1728,1749,1769,1788,1810,1828,1850,1868,1888,1908,1929,1950,1968,1989,2008,2028,2049,2070,2089,2110,2130,2150,2170,2189,2209,2228,2250,2270,2289,2309,2329,2349,2369,2389,2409,2428,2449,2468,2489,2508,2529,2550,2569,2589,2609,2629,2649,2670,2689,2709,2729,2749,2770,2789,2809,2829,2849,2870,2889,2909,2929,2950,2970,2989,3009,3029,3049,3069,3089,3109,3129,3148,3168,3188,3209,3230,3248,3268,3289,3309,3329,3350,3369,3389,3408,3429,3448,3468,3489,3510,3529,3550,3568,3588,3609,3629,3649],"xSR":741.5,"ySR":501.8,"xT1":424.9,"yT1":0,"xT2":1058.1,"yT2":0,"toosoon":0,"cond_shown":"Incongruent","ratio_trial":200,"L_num":11,"L_den":20,"R_num":3,"R_den":4,"correct_side":2,"subjID":"alejandromontealegre29","gender":"No_gender","school":"No_school","age":"No_age"},{"start_time":1551899887519,"click_time":1551899888891,"finger_time":1551899887993,"fix_duration":1467.1623266484555,"trial":12,"RT":474,"MT":898,"sideResp":2,"stimulus":[],"xmouse":[775,773,771,771,771,771,771,770,770,769,768,766,765,765,765,765,765,765,765,764,762,759,746,741,739,737,737,737,737,737,737,737,737,744,755,773,794,830,846,854,861,870,890,901,913,924,930,932,932,932,932,932,937,944,952,960,967,971,975,978,982,989,1016,1028,1040,1050,1056,1073,1082],"ymouse":[598,597,597,597,597,597,597,597,596,595,595,594,593,593,593,593,593,593,593,592,580,560,521,510,504,502,502,502,502,502,502,502,501,492,482,469,458,439,427,419,405,386,339,312,287,269,258,254,254,254,254,254,247,239,229,220,208,200,195,190,184,177,160,151,142,133,126,105,94],"timestamp_mouse":[13,34,52,73,92,113,133,153,174,193,213,232,252,274,294,314,333,352,372,392,412,434,452,474,493,514,534,552,572,592,613,632,654,672,692,714,733,753,772,794,813,833,852,873,893,914,934,952,972,992,1012,1033,1052,1072,1093,1113,1134,1153,1172,1192,1214,1233,1252,1272,1292,1314,1333,1352,1372],"xSR":741.5,"ySR":501.8,"xT1":424.9,"yT1":0,"xT2":1058.1,"yT2":0,"toosoon":0,"cond_shown":"Congruent","ratio_trial":100,"L_num":15,"L_den":25,"R_num":13,"R_den":26,"correct_side":1,"subjID":"alejandromontealegre29","gender":"No_gender","school":"No_school","age":"No_age"},{"start_time":1551899891624,"click_time":1551899892831,"finger_time":1551899891972,"fix_duration":1270.5685182502602,"trial":13,"RT":348,"MT":859,"sideResp":2,"stimulus":[],"xmouse":[754,754,754,754,754,754,754,754,754,754,754,754,754,754,754,755,757,773,783,795,804,814,843,853,865,877,893,928,949,967,979,985,991,991,992,992,993,997,1003,1010,1016,1020,1026,1028,1029,1029,1030,1033,1034,1037,1040,1041,1044,1045,1045,1045,1047,1051,1052,1055,1060],"ymouse":[546,546,546,546,546,546,545,541,540,540,540,539,538,536,534,531,525,501,490,478,469,458,417,400,379,360,335,288,257,228,209,199,189,188,187,187,186,182,177,172,169,166,162,159,157,156,155,150,146,142,137,134,129,127,126,125,122,112,106,100,87],"timestamp_mouse":[8,28,47,68,87,108,128,148,167,188,209,228,248,269,289,308,329,348,368,388,407,428,448,467,488,509,529,548,567,588,608,629,648,668,688,709,727,748,768,787,809,829,848,867,888,909,928,948,967,987,1007,1027,1047,1068,1087,1108,1129,1148,1168,1188,1207],"xSR":741.5,"ySR":501.8,"xT1":424.9,"yT1":0,"xT2":1058.1,"yT2":0,"toosoon":0,"cond_shown":"Congruent","ratio_trial":200,"L_num":9,"L_den":20,"R_num":4,"R_den":16,"correct_side":1,"subjID":"alejandromontealegre29","gender":"No_gender","school":"No_school","age":"No_age"},{"start_time":1551899894783,"click_time":1551899895573,"finger_time":1551899895132,"fix_duration":351.0189233499174,"trial":14,"RT":349,"MT":441,"sideResp":1,"stimulus":[],"xmouse":[756,756,756,756,756,756,756,756,756,756,756,756,756,756,756,756,749,731,708,685,628,615,606,601,599,597,596,596,592,585,566,558,557,556,556,555,551,541,535,524],"ymouse":[562,562,562,562,562,562,562,562,562,562,562,562,562,562,562,562,551,524,493,460,382,360,346,332,322,295,276,254,225,186,124,107,103,102,102,101,97,92,88,83],"timestamp_mouse":[8,28,49,70,90,108,129,150,170,188,209,230,250,269,288,309,328,349,369,390,408,430,450,468,488,508,528,549,570,589,610,629,648,669,690,710,730,749,770,790],"xSR":741.5,"ySR":501.8,"xT1":424.9,"yT1":0,"xT2":1058.1,"yT2":0,"toosoon":0,"cond_shown":"Congruent","ratio_trial":300,"L_num":11,"L_den":22,"R_num":4,"R_den":20,"correct_side":1,"subjID":"alejandromontealegre29","gender":"No_gender","school":"No_school","age":"No_age"},{"start_time":1551899900834,"click_time":1551899902452,"finger_time":1551899901792,"fix_duration":1122.5292978419109,"trial":15,"RT":958,"MT":660,"sideResp":1,"stimulus":[],"xmouse":[759,759,759,759,759,759,759,759,759,758,758,758,758,758,758,758,758,758,758,758,758,758,758,758,758,758,758,758,758,758,758,758,758,758,758,758,758,758,758,758,758,758,758,758,758,758,757,735,720,715,705,695,670,659,642,625,613,603,603,603,604,606,610,613,616,617,617,616,610,609,609,606,584,571,563,554,542,532,503,500,497],"ymouse":[544,544,544,544,544,544,544,544,544,544,544,544,544,544,544,544,544,544,544,544,544,544,544,544,544,544,544,544,544,544,544,544,544,544,544,544,544,544,544,544,544,544,544,544,544,544,544,540,533,527,519,511,487,471,457,439,426,409,408,406,404,402,393,378,359,337,303,285,265,263,263,262,260,258,255,248,235,214,138,110,83],"timestamp_mouse":[18,37,57,78,99,119,138,157,177,198,217,238,257,278,297,318,337,358,377,398,418,439,457,478,498,518,537,557,579,597,619,638,658,678,698,719,739,758,778,798,819,838,857,878,898,918,939,958,978,999,1017,1038,1058,1078,1098,1117,1139,1157,1178,1199,1218,1238,1258,1278,1299,1318,1337,1357,1377,1398,1418,1438,1458,1478,1497,1517,1537,1557,1578,1597,1618],"xSR":741.5,"ySR":501.8,"xT1":424.9,"yT1":0,"xT2":1058.1,"yT2":0,"toosoon":0,"cond_shown":"Incongruent","ratio_trial":200,"L_num":11,"L_den":20,"R_num":3,"R_den":4,"correct_side":2,"subjID":"alejandromontealegre29","gender":"No_gender","school":"No_school","age":"No_age"},{"start_time":1551899926833,"click_time":1551899929092,"finger_time":1551899928392,"fix_duration":579.3173988949859,"trial":16,"RT":1559,"MT":700,"sideResp":2,"stimulus":[],"xmouse":[763,763,763,763,763,763,763,763,763,763,763,763,763,763,763,763,763,763,763,763,763,763,763,763,763,763,763,763,763,763,763,763,763,763,763,763,763,763,763,763,763,763,763,763,763,763,763,763,763,763,763,763,763,763,763,763,763,763,763,763,763,763,763,763,763,763,763,763,763,763,763,763,763,763,764,800,824,833,834,834,834,834,836,838,845,854,877,894,908,921,942,950,962,971,985,999,1001,999,992,992,992,992,992,984,984,997,1008,1024,1038,1046,1052,1056,1059],"ymouse":[549,549,549,549,549,549,549,549,549,549,549,549,549,549,549,549,549,549,549,549,549,549,549,549,549,549,549,549,549,549,549,549,549,549,549,549,549,549,549,549,549,549,549,549,549,549,549,549,549,549,549,549,549,549,549,549,549,549,549,549,549,549,549,549,549,549,549,549,549,549,549,549,549,549,547,529,504,476,435,385,349,347,341,339,329,321,303,296,292,288,282,275,259,234,186,97,56,27,6,6,6,6,6,2,5,27,38,48,53,53,51,43,38],"timestamp_mouse":[19,40,60,78,99,119,140,160,178,199,220,238,258,279,299,320,338,358,378,399,418,438,459,479,498,518,538,559,578,598,618,639,659,680,698,718,739,758,778,799,819,838,859,880,900,918,939,960,980,998,1019,1038,1059,1079,1099,1119,1140,1160,1178,1199,1218,1239,1259,1279,1300,1318,1339,1358,1379,1398,1419,1439,1458,1480,1499,1518,1539,1559,1578,1599,1618,1639,1659,1679,1698,1719,1738,1758,1778,1799,1819,1838,1858,1878,1898,1919,1938,1958,1978,1999,2019,2040,2059,2078,2098,2119,2139,2160,2178,2199,2219,2238,2258],"xSR":741.5,"ySR":501.8,"xT1":424.9,"yT1":0,"xT2":1058.1,"yT2":0,"toosoon":0,"cond_shown":"Incongruent","ratio_trial":300,"L_num":13,"L_den":26,"R_num":12,"R_den":15,"correct_side":2,"subjID":"alejandromontealegre29","gender":"No_gender","school":"No_school","age":"No_age"},{"start_time":1551899931912,"click_time":1551899934452,"finger_time":1551899933392,"fix_duration":1479.0466679051199,"trial":17,"RT":1480,"MT":1060,"sideResp":1,"stimulus":[],"xmouse":[830,830,830,830,830,830,830,830,830,830,830,831,831,831,831,831,831,831,831,831,831,831,831,831,831,831,831,831,831,831,831,831,831,831,831,831,831,831,831,831,831,831,831,831,831,831,831,831,831,831,831,831,831,831,831,831,831,831,831,831,831,831,831,831,831,831,831,831,831,831,833,834,836,836,838,839,843,846,841,833,823,812,783,772,765,758,751,716,702,690,681,673,663,658,654,649,640,613,602,594,588,584,575,563,539,513,487,457,457,457,457,457,457,457,457,457,457,457,457,457,457,457,457,456,453,452,451],"ymouse":[527,527,527,527,527,527,527,527,527,527,527,524,524,524,523,523,523,523,523,523,523,523,523,522,522,522,522,522,522,522,522,522,522,522,522,522,522,522,522,522,522,522,522,522,522,522,522,522,522,522,522,522,522,522,522,522,522,522,522,522,522,522,522,522,522,522,522,522,522,522,518,516,508,498,485,467,449,401,377,354,331,312,270,258,251,243,239,223,215,210,206,204,201,199,198,196,193,181,176,173,168,166,159,154,145,138,127,113,113,113,112,112,112,112,112,112,112,112,112,112,112,112,112,108,102,100,96],"timestamp_mouse":[19,40,60,80,99,120,139,160,180,200,221,239,260,280,300,320,340,360,380,401,419,440,460,480,500,521,539,559,580,599,619,640,661,680,700,719,740,759,780,799,820,839,860,880,900,920,940,960,979,999,1020,1039,1060,1080,1099,1119,1140,1161,1179,1200,1219,1240,1260,1280,1301,1319,1340,1360,1380,1401,1420,1440,1459,1480,1499,1520,1540,1559,1579,1601,1620,1639,1659,1679,1700,1720,1741,1759,1780,1799,1820,1840,1859,1879,1899,1920,1940,1959,1979,1999,2020,2040,2059,2079,2100,2119,2139,2159,2180,2201,2219,2240,2260,2280,2299,2320,2339,2360,2380,2400,2419,2441,2459,2481,2500,2520,2540],"xSR":741.5,"ySR":501.8,"xT1":424.9,"yT1":0,"xT2":1058.1,"yT2":0,"toosoon":0,"cond_shown":"Congruent","ratio_trial":200,"L_num":14,"L_den":28,"R_num":6,"R_den":20,"correct_side":1,"subjID":"alejandromontealegre29","gender":"No_gender","school":"No_school","age":"No_age"},{"start_time":1551899937347,"click_time":1551899938512,"finger_time":1551899937852,"fix_duration":1014.2834547388794,"trial":18,"RT":505,"MT":660,"sideResp":2,"stimulus":[],"xmouse":[814,814,814,814,814,814,814,814,814,814,814,812,812,812,812,812,812,812,812,812,812,812,815,821,839,865,891,897,909,923,931,945,956,965,976,978,978,1000,995,989,983,978,981,996,1012,1051,1051,1051,1051,1051,1051,1051,1051,1051,1051,1051,1051,1051,1062],"ymouse":[545,545,545,545,545,545,545,545,545,545,545,546,546,546,546,546,546,546,546,546,546,546,546,547,550,554,558,558,552,538,525,500,480,460,418,391,368,294,276,257,232,186,154,119,83,10,10,10,10,10,10,10,10,10,10,10,10,10,3],"timestamp_mouse":[5,24,45,65,84,105,124,144,165,185,204,224,245,265,286,304,324,345,365,386,406,426,444,465,485,505,525,544,565,585,605,625,645,666,684,704,724,744,764,785,804,825,844,864,885,905,925,944,964,985,1004,1025,1044,1064,1084,1104,1125,1144,1165],"xSR":741.5,"ySR":501.8,"xT1":424.9,"yT1":0,"xT2":1058.1,"yT2":0,"toosoon":0,"cond_shown":"Congruent","ratio_trial":300,"L_num":20,"L_den":25,"R_num":14,"R_den":28,"correct_side":1,"subjID":"alejandromontealegre29","gender":"No_gender","school":"No_school","age":"No_age"},{"start_time":1551899945883,"click_time":1551899947531,"finger_time":1551899946991,"fix_duration":250,"trial":19,"RT":1108,"MT":540,"sideResp":2,"stimulus":[],"xmouse":[750,750,750,750,750,750,750,750,750,750,750,750,750,750,750,750,750,750,750,750,750,750,750,750,750,750,750,750,750,750,750,750,750,750,750,750,750,750,750,750,750,750,750,750,750,750,750,751,752,752,754,754,754,753,746,729,725,727,748,783,857,881,892,892,892,892,892,892,892,892,892,895,904,932,950,983,1051,1064,1068,1069,1073,1074,1074],"ymouse":[548,548,548,548,548,548,548,548,548,548,548,548,548,548,548,548,548,548,548,548,548,548,548,548,548,548,548,548,548,548,548,548,548,548,548,548,548,548,548,548,548,548,548,548,548,548,548,546,542,541,532,528,524,516,504,470,445,412,368,325,259,245,239,239,239,239,239,239,239,239,239,237,230,204,186,161,117,111,109,107,102,101,99],"timestamp_mouse":[10,29,48,68,89,109,128,149,169,189,209,228,249,270,288,309,328,348,369,390,410,428,449,469,490,510,529,549,569,590,610,630,649,669,690,708,729,750,770,788,809,828,849,869,890,910,928,949,969,990,1009,1029,1048,1069,1090,1108,1129,1148,1169,1188,1209,1228,1249,1268,1289,1308,1329,1349,1370,1390,1408,1428,1448,1469,1489,1509,1529,1548,1569,1589,1609,1628,1648],"xSR":741.5,"ySR":501.8,"xT1":424.9,"yT1":0,"xT2":1058.1,"yT2":0,"toosoon":0,"cond_shown":"Congruent","ratio_trial":100,"L_num":7,"L_den":14,"R_num":15,"R_den":25,"correct_side":2,"subjID":"alejandromontealegre29","gender":"No_gender","school":"No_school","age":"No_age"},{"start_time":1551899952541,"click_time":1551899954231,"finger_time":1551899953431,"fix_duration":1129.8247912349807,"trial":20,"RT":890,"MT":800,"sideResp":2,"stimulus":[],"xmouse":[834,834,834,834,834,834,834,834,834,834,834,834,835,837,838,838,838,838,838,838,838,838,838,838,838,838,838,838,838,838,838,838,838,838,838,838,838,838,838,838,838,838,839,840,842,843,844,844,845,845,845,845,845,845,845,845,845,845,845,845,845,845,845,845,845,845,845,845,849,888,933,976,1058,1058,1058,1058,1058,1058,1058,1058,1058,1058,1058,1058,1148],"ymouse":[571,571,571,571,571,571,571,571,571,571,571,570,568,562,559,558,558,558,558,558,558,558,558,558,558,558,558,558,558,558,558,558,558,558,558,558,558,558,558,558,558,558,557,553,547,544,542,540,539,539,539,539,537,529,527,523,522,522,521,521,521,521,521,521,521,521,521,518,467,329,237,147,3,3,3,3,3,3,3,3,3,3,3,3,10],"timestamp_mouse":[11,31,50,70,91,112,132,150,170,191,212,231,250,271,292,310,330,351,371,390,411,431,450,471,490,510,531,550,570,592,610,631,651,670,691,711,730,752,770,791,811,832,852,870,890,911,931,952,971,990,1010,1031,1050,1070,1090,1111,1131,1150,1171,1191,1211,1231,1251,1271,1292,1310,1331,1351,1371,1390,1411,1430,1451,1470,1490,1511,1531,1551,1572,1591,1610,1630,1650,1671,1690],"xSR":741.5,"ySR":501.8,"xT1":424.9,"yT1":0,"xT2":1058.1,"yT2":0,"toosoon":0,"cond_shown":"Incongruent","ratio_trial":300,"L_num":4,"L_den":20,"R_num":2,"R_den":4,"correct_side":2,"subjID":"alejandromontealegre29","gender":"No_gender","school":"No_school","age":"No_age"},{"start_time":1551899956551,"click_time":1551899957451,"finger_time":1551899956773,"fix_duration":1297.0676344027036,"trial":21,"RT":222,"MT":678,"sideResp":2,"stimulus":[],"xmouse":[805,805,805,805,805,805,805,805,805,805,808,811,818,830,873,904,918,928,936,951,957,964,971,982,983,984,985,986,992,995,1003,1017,1025,1025,1025,1025,1025,1025,1026,1027,1028,1029,1031,1044,1052,1063],"ymouse":[544,544,544,543,541,540,538,536,532,517,504,487,466,441,371,326,308,289,277,251,237,221,204,178,173,170,167,166,156,151,137,116,105,105,105,105,105,105,105,102,100,98,94,68,50,33],"timestamp_mouse":[3,23,41,61,81,102,120,140,160,181,201,222,240,260,280,302,322,342,360,380,400,420,440,462,481,500,521,541,561,580,600,620,641,660,681,701,721,740,761,780,801,821,840,861,880,900],"xSR":741.5,"ySR":501.8,"xT1":424.9,"yT1":0,"xT2":1058.1,"yT2":0,"toosoon":0,"cond_shown":"Incongruent","ratio_trial":100,"L_num":9,"L_den":15,"R_num":13,"R_den":26,"correct_side":1,"subjID":"alejandromontealegre29","gender":"No_gender","school":"No_school","age":"No_age"},{"start_time":1551899960525,"click_time":1551899962572,"finger_time":1551899961172,"fix_duration":332.15058955293887,"trial":22,"RT":647,"MT":1400,"sideResp":1,"stimulus":[],"xmouse":[786,786,786,786,786,786,786,786,786,786,786,786,786,786,786,786,786,786,786,786,786,786,786,786,786,786,786,786,786,786,786,790,792,793,794,794,793,790,785,772,743,661,622,584,543,543,543,543,543,543,543,543,543,543,543,543,543,250,244,240,236,236,236,236,236,253,255,256,256,256,258,258,259,259,259,261,274,292,313,324,341,350,357,364,374,377,377,377,377,377,377,381,395,410,428,440,452,452,452,452,455,466,477],"ymouse":[522,522,522,522,522,522,522,522,522,522,522,522,522,522,522,522,522,522,522,522,522,522,522,522,522,522,522,522,522,522,522,513,501,497,490,454,444,431,415,388,342,218,153,82,10,10,10,10,10,10,10,10,10,10,10,10,10,2,26,50,99,100,100,100,101,86,83,83,83,83,83,83,83,83,83,83,98,112,122,124,124,121,119,117,115,114,114,114,114,114,114,112,109,107,107,107,111,111,111,111,111,105,96],"timestamp_mouse":[8,26,46,67,87,106,126,148,166,187,207,227,248,268,288,307,327,346,368,388,406,427,447,467,488,506,527,546,568,586,606,628,647,667,687,706,726,747,767,786,806,826,847,866,887,906,928,946,967,986,1006,1028,1047,1066,1087,1106,1126,1146,1166,1187,1207,1227,1246,1267,1287,1307,1326,1347,1366,1387,1407,1427,1447,1467,1487,1506,1526,1546,1567,1587,1606,1626,1646,1667,1687,1707,1727,1747,1766,1787,1807,1826,1847,1867,1888,1906,1927,1946,1967,1987,2007,2026,2047],"xSR":741.5,"ySR":501.8,"xT1":424.9,"yT1":0,"xT2":1058.1,"yT2":0,"toosoon":0,"cond_shown":"Congruent","ratio_trial":200,"L_num":20,"L_den":25,"R_num":9,"R_den":15,"correct_side":1,"subjID":"alejandromontealegre29","gender":"No_gender","school":"No_school","age":"No_age"},{"start_time":1551899967830,"click_time":1551899969051,"finger_time":1551899968152,"fix_duration":537.2930573450425,"trial":23,"RT":322,"MT":899,"sideResp":2,"stimulus":[],"xmouse":[778,778,778,778,778,778,778,778,778,778,778,778,778,778,781,788,887,938,983,1018,1034,1046,1049,1053,1062,1079,1212,1298,1377,1430,1448,1451,1451,1451,1451,1451,1451,1451,1451,1451,1451,1451,1451,1451,1451,1451,1451,1451,1451,1451,959,962,965,971,982,993,996,996,1002,1017,1035,1077],"ymouse":[562,562,562,562,562,562,562,562,562,562,562,562,562,562,559,552,477,433,379,327,290,246,236,230,223,214,160,124,82,46,23,3,3,3,3,3,3,3,3,3,3,3,3,3,3,3,3,3,3,3,9,35,50,66,80,95,98,98,98,98,98,96],"timestamp_mouse":[3,24,42,61,82,101,123,141,163,181,202,221,242,263,282,301,322,342,361,382,402,421,442,463,482,502,521,541,562,581,601,621,641,661,682,702,722,741,761,782,802,822,842,862,883,902,922,942,961,982,1001,1022,1041,1062,1082,1103,1121,1142,1161,1181,1203,1221],"xSR":741.5,"ySR":501.8,"xT1":424.9,"yT1":0,"xT2":1058.1,"yT2":0,"toosoon":0,"cond_shown":"Incongruent","ratio_trial":100,"L_num":12,"L_den":30,"R_num":2,"R_den":4,"correct_side":2,"subjID":"alejandromontealegre29","gender":"No_gender","school":"No_school","age":"No_age"},{"start_time":1551899973599,"click_time":1551899974593,"finger_time":1551899974052,"fix_duration":926.6123885030959,"trial":24,"RT":453,"MT":541,"sideResp":1,"stimulus":[],"xmouse":[787,787,787,787,787,787,787,787,787,787,787,787,787,787,787,787,787,787,787,785,778,769,740,689,673,629,616,615,615,615,615,614,609,592,579,579,579,579,579,579,579,579,579,579,579,579,579,579,531,509],"ymouse":[554,554,554,554,554,554,554,554,554,554,554,554,554,554,554,554,554,554,554,551,535,516,446,341,307,232,214,211,211,211,210,208,193,117,25,25,25,25,25,25,25,25,25,25,25,25,25,25,5,58],"timestamp_mouse":[12,32,53,73,92,113,133,154,172,192,213,233,254,273,293,313,333,353,374,394,412,433,453,472,493,513,533,553,574,594,612,632,653,672,693,712,732,752,772,793,813,833,852,873,893,913,933,953,972,993],"xSR":741.5,"ySR":501.8,"xT1":424.9,"yT1":0,"xT2":1058.1,"yT2":0,"toosoon":0,"cond_shown":"Incongruent","ratio_trial":300,"L_num":4,"L_den":20,"R_num":2,"R_den":4,"correct_side":2,"subjID":"alejandromontealegre29","gender":"No_gender","school":"No_school","age":"No_age"},{"start_time":1551899980240,"click_time":1551899980951,"finger_time":1551899980412,"fix_duration":965.5442675101631,"trial":25,"RT":172,"MT":539,"sideResp":1,"stimulus":[],"xmouse":[774,763,761,761,761,761,760,751,735,717,702,670,654,644,638,635,635,635,632,620,588,579,579,579,585,592,592,592,592,592,592,592,592,592,592,479],"ymouse":[522,533,535,535,535,536,536,532,527,521,516,501,492,487,485,484,483,479,467,440,351,231,179,132,81,21,21,21,21,21,21,21,21,21,21,3],"timestamp_mouse":[11,32,52,72,92,112,132,152,172,192,211,231,252,271,292,311,332,351,371,391,413,432,451,471,492,512,532,551,572,591,612,632,652,671,692,711],"xSR":741.5,"ySR":501.8,"xT1":424.9,"yT1":0,"xT2":1058.1,"yT2":0,"toosoon":0,"cond_shown":"Incongruent","ratio_trial":100,"L_num":9,"L_den":15,"R_num":13,"R_den":26,"correct_side":1,"subjID":"alejandromontealegre29","gender":"No_gender","school":"No_school","age":"No_age"},{"start_time":1551900025006,"click_time":1551900028011,"finger_time":1551900027252,"fix_duration":1234.8630670789714,"trial":26,"RT":2246,"MT":759,"sideResp":2,"stimulus":[],"xmouse":[769,769,769,769,769,769,769,769,769,769,769,769,769,769,769,769,769,769,769,769,769,769,769,769,769,769,769,769,769,769,769,769,769,769,769,769,769,769,769,769,769,769,769,769,769,769,769,769,769,769,769,769,769,769,769,769,769,769,769,769,769,769,769,769,769,769,769,769,769,769,769,769,769,769,769,769,769,769,769,769,769,769,769,769,769,769,769,769,769,769,769,769,769,769,769,769,769,769,769,769,769,769,769,769,769,769,769,769,769,769,776,796,838,914,1091,1169,1230,1272,1300,1334,1356,1356,1356,1356,1356,1356,1356,1356,1356,1356,1356,1356,1356,1179,1073,1052,1042,1039,1039,1039,1039,1039,1039,1039,1039,1039,1041,1045,1049,1058,1062],"ymouse":[544,544,544,544,544,544,544,544,544,544,544,544,544,544,544,544,544,544,544,544,544,544,544,544,544,544,544,544,544,544,544,544,544,544,544,544,544,544,544,544,544,544,544,544,544,544,544,544,544,544,544,544,544,544,544,544,544,544,544,544,544,544,544,544,544,544,544,544,544,544,544,544,544,544,544,544,544,544,544,544,544,544,544,544,544,544,544,544,544,544,544,544,544,544,544,544,544,544,544,544,544,544,544,544,544,544,544,544,544,544,540,520,480,431,339,304,273,242,210,136,27,27,27,27,27,27,27,27,27,27,27,27,27,29,109,120,125,125,126,126,126,126,126,126,126,126,123,120,116,104,98],"timestamp_mouse":[5,26,46,66,87,107,127,146,166,186,205,226,246,265,285,307,327,347,366,386,406,425,445,465,486,505,527,545,565,586,605,626,646,666,686,706,726,745,766,787,806,825,846,866,886,907,926,947,965,986,1006,1026,1047,1066,1087,1106,1126,1146,1166,1186,1207,1225,1246,1267,1285,1305,1325,1346,1366,1387,1405,1427,1445,1465,1485,1506,1526,1546,1565,1587,1605,1625,1646,1666,1685,1706,1726,1747,1765,1785,1806,1826,1846,1867,1885,1905,1926,1946,1965,1986,2006,2025,2046,2066,2086,2105,2126,2145,2165,2186,2205,2226,2246,2265,2285,2307,2325,2345,2366,2386,2406,2425,2447,2467,2487,2506,2526,2546,2566,2586,2605,2626,2646,2665,2686,2705,2726,2745,2767,2787,2805,2825,2845,2867,2885,2906,2925,2946,2966,2986,3005],"xSR":741.5,"ySR":501.8,"xT1":424.9,"yT1":0,"xT2":1058.1,"yT2":0,"toosoon":0,"cond_shown":"Congruent","ratio_trial":200,"L_num":6,"L_den":15,"R_num":3,"R_den":15,"correct_side":1,"subjID":"alejandromontealegre29","gender":"No_gender","school":"No_school","age":"No_age"},{"start_time":1551900030281,"click_time":1551900050912,"finger_time":1551900050831,"fix_duration":1290.7784890628998,"trial":27,"RT":20550,"MT":81,"sideResp":2,"stimulus":[],"xmouse":[795,795,795,795,795,795,795,795,795,795,795,795,795,795,795,795,795,795,795,795,795,795,795,795,795,795,795,795,795,795,795,795,795,795,795,795,795,795,795,795,795,795,795,795,795,795,795,795,795,795,795,795,795,795,795,795,795,795,795,795,795,795,795,795,795,795,795,795,795,795,795,795,795,795,795,795,795,795,795,795,795,795,795,795,795,795,795,795,795,795,795,795,795,795,795,795,795,795,795,795,795,795,795,795,795,795,795,795,795,795,795,795,795,795,795,795,795,795,795,795,795,795,795,795,795,795,795,795,795,795,795,795,795,795,795,795,795,795,795,795,795,795,795,795,795,795,795,795,795,795,795,795,795,795,795,795,795,795,795,795,795,795,795,795,795,795,795,795,795,795,795,795,795,795,795,795,795,795,795,795,795,795,795,795,795,795,795,795,795,795,795,795,795,795,795,795,795,795,795,795,795,795,795,795,795,795,795,795,795,795,795,795,795,795,795,795,795,795,795,795,795,795,795,795,795,795,795,795,795,795,795,795,795,795,795,795,795,795,795,795,795,795,795,795,795,795,795,795,795,795,795,795,795,795,795,795,795,795,795,795,795,795,795,795,795,795,795,795,795,795,795,795,795,795,795,795,795,795,795,795,795,795,795,795,795,795,795,795,795,795,795,795,795,795,795,795,795,795,795,795,795,795,795,795,795,795,795,795,795,795,795,795,795,795,795,795,795,795,795,795,795,795,795,795,795,795,795,795,795,795,795,795,795,795,795,795,795,795,795,795,795,795,795,795,795,795,795,795,795,795,795,795,795,795,795,795,795,795,795,795,795,795,795,795,795,795,795,795,795,795,795,795,795,795,795,795,795,795,795,795,795,795,795,795,795,795,795,795,795,795,795,795,795,795,795,795,795,795,795,795,795,795,795,795,795,795,795,795,795,795,795,795,795,795,795,795,795,795,795,795,795,795,795,795,795,795,795,795,795,795,795,795,795,795,795,795,795,795,795,795,795,795,795,795,795,795,795,795,795,795,795,795,795,795,795,795,795,795,795,795,795,795,795,795,795,795,795,795,795,795,795,795,795,795,795,795,795,795,795,795,795,795,795,795,795,795,795,795,795,795,795,795,795,795,795,795,795,795,795,795,795,795,795,795,795,795,795,795,795,795,795,795,795,795,795,795,795,795,795,795,795,795,795,795,795,795,795,795,795,795,795,795,795,795,795,795,795,795,795,795,795,795,795,795,795,795,795,795,795,795,795,795,795,795,795,795,795,795,795,795,795,795,795,795,795,795,795,795,795,795,795,795,795,795,795,795,795,795,795,795,795,795,795,795,795,795,795,795,795,795,795,795,795,795,795,795,795,795,795,795,795,795,795,795,795,795,795,795,795,795,795,795,795,795,795,795,795,795,795,795,795,795,795,795,795,795,795,795,795,795,795,795,795,795,795,795,795,795,795,795,795,795,795,795,795,795,795,795,795,795,795,795,795,795,795,795,795,795,795,795,795,795,795,795,795,795,795,795,795,795,795,795,795,795,795,795,795,795,795,795,795,795,795,795,795,795,795,795,795,795,795,795,795,795,795,795,795,795,795,795,795,795,795,795,795,795,795,795,795,795,795,795,795,795,795,795,795,795,795,795,795,795,795,795,795,795,795,795,795,795,795,795,795,795,795,795,795,795,795,795,795,795,795,795,795,795,795,795,795,795,795,795,795,795,795,795,795,795,795,795,795,795,795,795,795,795,795,795,795,795,795,795,795,795,795,795,795,795,795,795,795,795,795,795,795,795,795,795,795,795,795,795,795,795,795,795,795,795,795,795,795,795,795,795,795,795,795,795,795,795,795,795,795,795,795,795,795,795,795,795,795,795,795,795,795,795,795,795,795,795,795,795,795,795,795,795,795,795,795,795,795,795,795,795,795,795,795,795,795,795,795,795,795,795,795,795,795,795,795,795,795,795,795,795,795,795,795,795,795,795,795,795,795,795,795,795,795,795,795,795,795,795,795,795,795,795,795,795,795,795,795,795,795,795,795,795,795,795,795,795,795,795,795,795,795,795,795,795,795,795,795,795,795,795,795,795,795,795,795,795,795,795,795,795,795,795,795,795,795,795,795,795,795,795,795,795,795,795,795,795,795,795,795,795,795,795,795,795,795,795,795,795,795,795,795,795,795,795,795,795,795,795,795,795,795,795,795,795,795,795,795,795,795,795,795,795,795,795,795,795,795,795,795,795,795,795,795,795,795,795,795,795,795,795,795,795,795,795,795,795,795,795,795,795,795,795,795,795,795,795,795,795,795,795,795,795,795,795,795,795,795,795,795,795,795,795,805,925,987,1042,1088,1115],"ymouse":[541,541,541,541,541,541,541,541,541,541,541,541,541,541,541,541,541,541,541,541,541,541,541,541,541,541,541,541,541,541,541,541,541,541,541,541,541,541,541,541,541,541,541,541,541,541,541,541,541,541,541,541,541,541,541,541,541,541,541,541,541,541,541,541,541,541,541,541,541,541,541,541,541,541,541,541,541,541,541,541,541,541,541,541,541,541,541,541,541,541,541,541,541,541,541,541,541,541,541,541,541,541,541,541,541,541,541,541,541,541,541,541,541,541,541,541,541,541,541,541,541,541,541,541,541,541,541,541,541,541,541,541,541,541,541,541,541,541,541,541,541,541,541,541,541,541,541,541,541,541,541,541,541,541,541,541,541,541,541,541,541,541,541,541,541,541,541,541,541,541,541,541,541,541,541,541,541,541,541,541,541,541,541,541,541,541,541,541,541,541,541,541,541,541,541,541,541,541,541,541,541,541,541,541,541,541,541,541,541,541,541,541,541,541,541,541,541,541,541,541,541,541,541,541,541,541,541,541,541,541,541,541,541,541,541,541,541,541,541,541,541,541,541,541,541,541,541,541,541,541,541,541,541,541,541,541,541,541,541,541,541,541,541,541,541,541,541,541,541,541,541,541,541,541,541,541,541,541,541,541,541,541,541,541,541,541,541,541,541,541,541,541,541,541,541,541,541,541,541,541,541,541,541,541,541,541,541,541,541,541,541,541,541,541,541,541,541,541,541,541,541,541,541,541,541,541,541,541,541,541,541,541,541,541,541,541,541,541,541,541,541,541,541,541,541,541,541,541,541,541,541,541,541,541,541,541,541,541,541,541,541,541,541,541,541,541,541,541,541,541,541,541,541,541,541,541,541,541,541,541,541,541,541,541,541,541,541,541,541,541,541,541,541,541,541,541,541,541,541,541,541,541,541,541,541,541,541,541,541,541,541,541,541,541,541,541,541,541,541,541,541,541,541,541,541,541,541,541,541,541,541,541,541,541,541,541,541,541,541,541,541,541,541,541,541,541,541,541,541,541,541,541,541,541,541,541,541,541,541,541,541,541,541,541,541,541,541,541,541,541,541,541,541,541,541,541,541,541,541,541,541,541,541,541,541,541,541,541,541,541,541,541,541,541,541,541,541,541,541,541,541,541,541,541,541,541,541,541,541,541,541,541,541,541,541,541,541,541,541,541,541,541,541,541,541,541,541,541,541,541,541,541,541,541,541,541,541,541,541,541,541,541,541,541,541,541,541,541,541,541,541,541,541,541,541,541,541,541,541,541,541,541,541,541,541,541,541,541,541,541,541,541,541,541,541,541,541,541,541,541,541,541,541,541,541,541,541,541,541,541,541,541,541,541,541,541,541,541,541,541,541,541,541,541,541,541,541,541,541,541,541,541,541,541,541,541,541,541,541,541,541,541,541,541,541,541,541,541,541,541,541,541,541,541,541,541,541,541,541,541,541,541,541,541,541,541,541,541,541,541,541,541,541,541,541,541,541,541,541,541,541,541,541,541,541,541,541,541,541,541,541,541,541,541,541,541,541,541,541,541,541,541,541,541,541,541,541,541,541,541,541,541,541,541,541,541,541,541,541,541,541,541,541,541,541,541,541,541,541,541,541,541,541,541,541,541,541,541,541,541,541,541,541,541,541,541,541,541,541,541,541,541,541,541,541,541,541,541,541,541,541,541,541,541,541,541,541,541,541,541,541,541,541,541,541,541,541,541,541,541,541,541,541,541,541,541,541,541,541,541,541,541,541,541,541,541,541,541,541,541,541,541,541,541,541,541,541,541,541,541,541,541,541,541,541,541,541,541,541,541,541,541,541,541,541,541,541,541,541,541,541,541,541,541,541,541,541,541,541,541,541,541,541,541,541,541,541,541,541,541,541,541,541,541,541,541,541,541,541,541,541,541,541,541,541,541,541,541,541,541,541,541,541,541,541,541,541,541,541,541,541,541,541,541,541,541,541,541,541,541,541,541,541,541,541,541,541,541,541,541,541,541,541,541,541,541,541,541,541,541,541,541,541,541,541,541,541,541,541,541,541,541,541,541,541,541,541,541,541,541,541,541,541,541,541,541,541,541,541,541,541,541,541,541,541,541,541,541,541,541,541,541,541,541,541,541,541,541,541,541,541,541,541,541,541,541,541,541,541,541,541,541,541,541,541,541,541,541,541,541,541,541,541,541,541,541,541,541,541,541,541,541,541,541,541,541,541,541,541,541,541,541,541,541,541,541,541,541,541,541,541,541,541,541,541,541,541,541,541,541,541,541,541,541,541,541,541,541,541,541,541,541,541,541,541,541,541,541,541,541,541,541,541,541,541,541,535,353,246,169,113,72],"timestamp_mouse":[11,30,51,71,92,110,131,150,171,190,210,231,252,271,291,312,330,351,372,391,410,431,452,472,490,510,531,550,571,590,610,632,652,671,691,711,730,751,771,791,810,831,852,870,891,910,932,951,971,991,1011,1031,1051,1071,1091,1110,1132,1151,1171,1191,1210,1231,1251,1271,1292,1310,1331,1351,1371,1391,1410,1430,1451,1472,1490,1510,1531,1550,1572,1590,1611,1631,1650,1671,1691,1710,1730,1750,1771,1791,1810,1832,1850,1871,1891,1910,1932,1950,1971,1990,2011,2032,2051,2071,2092,2111,2130,2151,2171,2190,2210,2232,2250,2270,2291,2310,2332,2351,2371,2391,2411,2431,2452,2470,2490,2510,2532,2550,2571,2590,2611,2631,2651,2670,2691,2710,2732,2752,2772,2791,2811,2831,2851,2871,2892,2910,2930,2951,2971,2992,3012,3032,3051,3071,3090,3110,3132,3152,3170,3191,3211,3231,3251,3271,3290,3311,3331,3351,3370,3391,3410,3430,3451,3471,3491,3510,3531,3551,3571,3592,3610,3630,3650,3671,3691,3711,3731,3752,3771,3791,3811,3831,3852,3871,3891,3911,3932,3950,3970,3991,4012,4032,4050,4071,4091,4112,4130,4151,4171,4192,4210,4231,4251,4270,4292,4310,4331,4350,4371,4391,4410,4430,4450,4470,4491,4512,4530,4551,4570,4591,4610,4631,4651,4672,4690,4711,4730,4752,4772,4792,4811,4830,4850,4871,4890,4910,4931,4951,4971,4991,5012,5030,5050,5071,5091,5112,5132,5150,5171,5192,5211,5230,5251,5272,5290,5310,5330,5351,5372,5390,5411,5430,5450,5470,5491,5510,5531,5551,5572,5591,5610,5632,5651,5671,5691,5711,5731,5751,5771,5791,5810,5830,5850,5871,5891,5911,5932,5951,5971,5991,6011,6032,6051,6071,6091,6110,6131,6151,6170,6191,6211,6230,6251,6272,6291,6310,6331,6351,6370,6391,6411,6432,6451,6471,6491,6510,6531,6550,6572,6590,6611,6631,6651,6672,6690,6710,6731,6751,6771,6791,6810,6831,6850,6872,6890,6911,6931,6951,6971,6992,7010,7030,7051,7071,7090,7111,7131,7151,7171,7192,7211,7230,7251,7270,7291,7311,7332,7351,7371,7391,7411,7430,7450,7471,7490,7511,7532,7551,7571,7591,7610,7630,7651,7670,7692,7711,7730,7751,7771,7791,7812,7830,7851,7871,7891,7910,7930,7951,7971,7991,8011,8030,8051,8071,8091,8112,8130,8151,8171,8192,8210,8230,8251,8272,8290,8311,8330,8351,8371,8390,8411,8430,8451,8472,8491,8511,8530,8550,8571,8591,8610,8631,8651,8671,8690,8711,8730,8750,8770,8792,8812,8830,8851,8871,8890,8912,8930,8951,8971,8992,9011,9030,9050,9071,9091,9110,9130,9150,9171,9190,9212,9230,9250,9271,9290,9311,9332,9350,9370,9391,9411,9430,9451,9472,9490,9511,9530,9551,9571,9590,9610,9631,9651,9672,9690,9710,9731,9751,9771,9790,9811,9831,9852,9872,9892,9912,9931,9951,9970,9991,10011,10031,10052,10070,10091,10111,10130,10152,10170,10191,10211,10230,10250,10270,10291,10311,10331,10351,10371,10391,10410,10431,10451,10472,10492,10511,10530,10551,10571,10591,10610,10631,10651,10671,10691,10710,10730,10752,10772,10792,10811,10830,10850,10870,10891,10910,10932,10950,10970,10991,11010,11031,11050,11072,11092,11111,11130,11151,11171,11192,11211,11230,11251,11271,11292,11310,11331,11350,11371,11391,11412,11430,11452,11470,11491,11510,11531,11552,11570,11590,11611,11631,11651,11672,11691,11712,11731,11751,11771,11791,11810,11831,11851,11871,11891,11912,11930,11951,11971,11992,12012,12030,12051,12070,12091,12110,12131,12152,12170,12192,12211,12231,12251,12270,12290,12311,12332,12350,12371,12391,12411,12430,12451,12471,12491,12511,12531,12552,12571,12591,12610,12631,12650,12672,12690,12711,12731,12751,12772,12790,12810,12831,12851,12871,12890,12911,12930,12950,12970,12991,13012,13030,13051,13071,13090,13111,13130,13151,13172,13191,13211,13231,13251,13270,13291,13311,13331,13351,13370,13391,13411,13431,13450,13472,13490,13511,13531,13550,13572,13590,13611,13631,13651,13671,13692,13711,13731,13751,13771,13790,13811,13830,13851,13871,13890,13910,13930,13951,13971,13990,14010,14030,14051,14071,14090,14110,14131,14151,14171,14191,14211,14230,14251,14270,14290,14311,14330,14351,14371,14392,14411,14430,14450,14471,14490,14511,14531,14551,14570,14591,14611,14630,14650,14672,14690,14711,14731,14751,14772,14790,14811,14830,14851,14871,14890,14912,14931,14951,14970,14990,15011,15030,15050,15071,15091,15111,15130,15151,15170,15191,15211,15230,15251,15271,15290,15310,15330,15351,15372,15391,15411,15430,15451,15471,15490,15511,15531,15551,15571,15590,15611,15630,15650,15671,15691,15710,15731,15751,15770,15791,15811,15830,15851,15871,15891,15910,15930,15951,15971,15991,16011,16031,16052,16070,16091,16110,16131,16150,16170,16191,16210,16231,16250,16271,16290,16311,16330,16351,16371,16390,16410,16431,16451,16471,16490,16512,16531,16551,16571,16591,16611,16630,16650,16671,16691,16711,16731,16750,16771,16791,16810,16832,16850,16870,16890,16911,16931,16951,16970,16990,17011,17031,17050,17070,17090,17111,17130,17151,17171,17191,17210,17231,17251,17270,17291,17311,17331,17351,17370,17391,17410,17431,17450,17471,17490,17511,17532,17550,17570,17591,17611,17631,17650,17670,17691,17711,17731,17751,17770,17790,17811,17830,17851,17871,17892,17911,17931,17950,17971,17990,18011,18031,18050,18070,18091,18111,18131,18150,18172,18191,18211,18230,18250,18271,18290,18310,18330,18350,18370,18391,18411,18431,18450,18471,18490,18511,18531,18550,18570,18591,18612,18630,18650,18671,18691,18710,18732,18751,18771,18791,18811,18831,18850,18870,18891,18910,18932,18951,18971,18991,19010,19031,19050,19070,19090,19111,19130,19150,19170,19190,19211,19231,19250,19270,19291,19310,19331,19351,19371,19391,19412,19430,19450,19472,19490,19511,19530,19551,19570,19590,19611,19632,19650,19671,19691,19711,19731,19752,19771,19791,19811,19831,19850,19871,19892,19910,19931,19950,19971,19990,20011,20031,20051,20070,20091,20110,20130,20150,20170,20191,20212,20231,20250,20271,20291,20310,20332,20351,20371,20391,20411,20430,20451,20471,20490,20510,20530,20550,20570,20591,20610,20631],"xSR":741.5,"ySR":501.8,"xT1":424.9,"yT1":0,"xT2":1058.1,"yT2":0,"toosoon":0,"cond_shown":"Incongruent","ratio_trial":100,"L_num":6,"L_den":10,"R_num":11,"R_den":22,"correct_side":1,"subjID":"alejandromontealegre29","gender":"No_gender","school":"No_school","age":"No_age"},{"start_time":1551900056450,"click_time":1551900056871,"finger_time":1551900056812,"fix_duration":1217.8804115576972,"trial":28,"RT":362,"MT":59,"sideResp":1,"stimulus":[],"xmouse":[804,804,804,804,804,804,804,804,804,804,804,804,804,804,804,804,804,779,718,644,502,427],"ymouse":[562,562,562,562,562,562,562,562,562,562,562,562,562,562,562,562,562,546,498,430,202,71],"timestamp_mouse":[3,22,42,61,82,101,122,142,162,183,202,221,242,262,282,301,321,342,362,382,401,421],"xSR":741.5,"ySR":501.8,"xT1":424.9,"yT1":0,"xT2":1058.1,"yT2":0,"toosoon":0,"cond_shown":"Congruent","ratio_trial":300,"L_num":7,"L_den":14,"R_num":20,"R_den":25,"correct_side":2,"subjID":"alejandromontealegre29","gender":"No_gender","school":"No_school","age":"No_age"},{"start_time":1551900059511,"click_time":1551900060053,"finger_time":1551900059711,"fix_duration":1418.5252278499477,"trial":29,"RT":200,"MT":342,"sideResp":2,"stimulus":[],"xmouse":[805,805,805,805,805,805,805,805,805,805,850,929,1173,1173,1173,1173,1173,1173,1173,1173,1173,1173,1173,1173,1173,1173,1173,1117],"ymouse":[552,552,552,552,552,552,552,552,549,537,410,260,43,43,43,43,43,43,43,43,43,43,43,43,43,43,43,48],"timestamp_mouse":[0,20,40,61,80,101,120,141,161,180,200,220,240,261,280,300,320,341,361,381,401,421,441,460,480,500,521,541],"xSR":741.5,"ySR":501.8,"xT1":424.9,"yT1":0,"xT2":1058.1,"yT2":0,"toosoon":0,"cond_shown":"Congruent","ratio_trial":200,"L_num":3,"L_den":6,"R_num":14,"R_den":20,"correct_side":2,"subjID":"alejandromontealegre29","gender":"No_gender","school":"No_school","age":"No_age"},{"start_time":1551900071605,"click_time":1551900075391,"finger_time":1551900074912,"fix_duration":712.7366543620567,"trial":30,"RT":3307,"MT":479,"sideResp":1,"stimulus":[],"xmouse":[804,804,804,804,804,804,804,804,804,804,804,804,804,804,804,804,804,804,804,804,804,804,804,804,804,804,804,804,804,804,804,804,804,804,804,804,804,804,804,804,804,804,804,804,804,804,804,804,804,804,804,804,804,804,804,804,804,804,804,804,804,804,804,804,804,804,804,804,804,804,804,804,804,804,804,804,804,804,804,804,804,804,804,804,804,804,804,804,804,804,804,804,804,804,804,804,804,804,804,804,804,804,804,804,804,804,804,804,804,804,804,804,804,804,804,804,804,804,804,804,804,804,804,804,804,804,804,804,804,804,804,804,804,804,804,804,804,804,804,804,804,804,804,804,804,804,804,804,804,804,804,804,804,804,804,804,804,804,804,804,804,804,804,807,830,857,890,892,893,891,883,865,846,825,792,782,774,766,740,695,666,626,609,605,599,591,577,559,532,516],"ymouse":[563,563,563,563,563,563,563,563,563,563,563,563,563,563,563,563,563,563,563,563,563,563,563,563,563,563,563,563,563,563,563,563,563,563,563,563,563,563,563,563,563,563,563,563,563,563,563,563,563,563,563,563,563,563,563,563,563,563,563,563,563,563,563,563,563,563,563,563,563,563,563,563,563,563,563,563,563,563,563,563,563,563,563,563,563,563,563,563,563,563,563,563,563,563,563,563,563,563,563,563,563,563,563,563,563,563,563,563,563,563,563,563,563,563,563,563,563,563,563,563,563,563,563,563,563,563,563,563,563,563,563,563,563,563,563,563,563,563,563,563,563,563,563,563,563,563,563,563,563,563,563,563,563,563,563,563,563,563,563,563,563,563,563,564,539,498,407,391,361,352,344,324,296,268,217,203,194,189,178,165,157,143,133,128,113,101,84,64,47,46],"timestamp_mouse":[6,26,47,68,87,106,126,147,167,188,207,226,246,266,287,307,327,346,366,387,407,427,446,466,486,506,526,546,566,588,606,627,647,666,686,706,727,747,766,786,806,827,846,867,887,906,928,946,967,986,1006,1026,1047,1066,1087,1107,1127,1148,1167,1186,1207,1227,1246,1267,1287,1306,1326,1346,1367,1386,1406,1426,1446,1467,1486,1507,1526,1547,1568,1588,1607,1627,1647,1667,1686,1706,1727,1746,1766,1786,1807,1827,1846,1868,1886,1907,1927,1947,1966,1988,2007,2026,2047,2067,2087,2106,2127,2147,2167,2186,2207,2226,2247,2267,2286,2306,2326,2346,2366,2386,2407,2428,2447,2466,2486,2507,2527,2547,2567,2586,2607,2627,2647,2667,2686,2707,2726,2747,2767,2786,2806,2827,2847,2868,2886,2906,2927,2947,2968,2986,3007,3027,3047,3067,3087,3106,3126,3147,3166,3186,3208,3226,3247,3266,3286,3307,3327,3347,3367,3386,3406,3427,3447,3467,3486,3506,3527,3546,3566,3586,3606,3626,3647,3667,3686,3706,3726,3746,3767,3786],"xSR":741.5,"ySR":501.8,"xT1":424.9,"yT1":0,"xT2":1058.1,"yT2":0,"toosoon":0,"cond_shown":"Congruent","ratio_trial":200,"L_num":3,"L_den":10,"R_num":14,"R_den":28,"correct_side":2,"subjID":"alejandromontealegre29","gender":"No_gender","school":"No_school","age":"No_age"},{"start_time":1551900076763,"click_time":1551900078592,"finger_time":1551900078372,"fix_duration":250,"trial":31,"RT":1609,"MT":220,"sideResp":2,"stimulus":[],"xmouse":[786,786,786,786,786,786,786,786,786,786,786,786,786,786,786,788,790,790,792,794,795,796,796,796,796,796,796,796,796,796,796,797,797,797,797,797,797,797,797,797,797,797,797,797,797,797,797,797,797,797,797,797,797,797,797,797,797,797,797,797,797,797,797,797,797,797,797,797,797,797,797,797,797,797,797,797,797,802,815,839,863,892,955,995,1033,1064,1071,1077,1080,1082,1085,1088],"ymouse":[541,541,541,541,541,541,541,541,541,541,541,541,541,541,541,541,542,543,545,549,550,552,553,553,553,553,553,553,553,553,553,554,554,554,554,554,554,554,554,554,554,554,554,554,554,554,554,554,554,554,554,554,554,554,554,554,554,554,554,554,554,554,554,554,554,554,554,554,554,554,556,556,556,556,556,556,556,552,537,506,477,440,352,285,216,161,141,129,120,116,109,99],"timestamp_mouse":[8,30,49,69,89,109,129,150,169,189,208,228,249,269,289,308,328,348,369,389,409,428,449,469,489,510,530,548,569,589,609,629,649,668,689,709,729,748,768,789,809,828,848,869,889,909,928,948,969,989,1009,1028,1048,1069,1089,1109,1129,1148,1169,1188,1209,1229,1248,1269,1288,1309,1329,1349,1370,1389,1408,1429,1449,1470,1489,1509,1529,1549,1569,1589,1609,1629,1648,1668,1689,1709,1729,1748,1769,1789,1809,1829],"xSR":741.5,"ySR":501.8,"xT1":424.9,"yT1":0,"xT2":1058.1,"yT2":0,"toosoon":0,"cond_shown":"Congruent","ratio_trial":300,"L_num":1,"L_den":5,"R_num":3,"R_den":6,"correct_side":2,"subjID":"alejandromontealegre29","gender":"No_gender","school":"No_school","age":"No_age"},{"start_time":1551900085877,"click_time":1551900087792,"finger_time":1551900087031,"fix_duration":764.3976009920751,"trial":32,"RT":1154,"MT":761,"sideResp":1,"stimulus":[],"xmouse":[806,806,806,806,806,806,806,806,806,806,806,806,806,806,806,806,806,806,806,806,806,806,806,806,806,806,806,806,806,806,806,806,806,806,806,806,806,806,806,806,806,806,806,806,806,806,806,806,806,806,806,806,806,806,805,801,798,787,786,786,786,785,748,694,619,545,545,545,545,545,545,545,545,545,545,545,545,545,545,545,545,545,545,545,545,545,545,545,409,411,415,418,420,420,422,427],"ymouse":[530,530,530,530,530,530,530,530,530,530,530,530,530,530,530,530,530,530,530,530,530,530,530,530,530,530,530,530,530,530,530,530,530,530,530,530,530,530,530,530,530,530,530,530,530,530,530,530,530,530,530,530,530,529,527,519,511,489,487,487,487,486,418,314,186,52,52,52,52,52,52,52,52,52,52,52,52,52,52,52,52,52,52,52,52,52,52,52,0,4,8,11,13,13,13,13],"timestamp_mouse":[14,34,55,75,95,114,134,154,175,195,215,236,255,274,295,314,335,354,375,394,414,435,454,475,494,514,534,554,575,595,614,635,655,674,695,715,735,754,775,795,814,835,855,874,894,915,935,955,975,995,1015,1034,1055,1075,1095,1115,1135,1154,1174,1194,1215,1235,1254,1274,1295,1314,1335,1354,1375,1394,1414,1435,1454,1474,1494,1515,1535,1555,1574,1594,1614,1635,1655,1674,1694,1714,1735,1754,1774,1795,1814,1835,1855,1874,1895,1915],"xSR":741.5,"ySR":501.8,"xT1":424.9,"yT1":0,"xT2":1058.1,"yT2":0,"toosoon":0,"cond_shown":"Incongruent","ratio_trial":200,"L_num":7,"L_den":10,"R_num":8,"R_den":16,"correct_side":1,"subjID":"alejandromontealegre29","gender":"No_gender","school":"No_school","age":"No_age"},{"start_time":1551900089344,"click_time":1551900091211,"finger_time":1551900090251,"fix_duration":250,"trial":33,"RT":907,"MT":960,"sideResp":1,"stimulus":[],"xmouse":[800,800,794,794,794,794,794,794,794,794,794,794,794,794,794,794,794,794,794,794,794,794,794,794,794,794,794,794,794,794,794,794,794,794,794,794,794,794,794,794,794,794,794,794,794,794,822,881,949,985,985,985,985,985,980,974,965,951,930,883,867,850,834,820,782,760,739,720,706,697,696,696,696,696,695,685,659,626,583,516,494,474,464,454,446,446,446,446,446,446,447,449,451,455],"ymouse":[519,505,503,503,503,503,503,503,503,503,503,503,503,503,503,503,503,503,503,503,503,503,503,503,503,503,503,503,503,503,503,503,503,503,503,503,503,503,503,503,503,503,503,503,503,500,478,428,362,307,307,307,307,307,303,302,299,295,285,265,258,246,233,220,177,161,148,139,132,122,122,122,122,122,120,120,120,120,115,112,112,116,125,134,141,141,141,141,141,141,137,132,122,79],"timestamp_mouse":[7,27,47,68,88,109,128,148,167,188,207,227,247,268,287,308,329,348,368,388,408,428,448,469,488,508,528,548,567,588,608,627,648,668,688,708,727,747,767,788,808,828,848,868,887,907,927,947,967,988,1007,1028,1047,1067,1087,1109,1127,1147,1168,1187,120