[{"start_time":1551899924876,"click_time":1551899939721,"finger_time":1551899924885,"fix_duration":250,"trial":0,"RT":9,"MT":14836,"sideResp":2,"stimulus":[],"xmouse":[770,770,770,770,770,770,770,770,770,770,770,770,770,770,770,770,770,770,770,770,770,770,770,770,770,770,770,770,770,770,770,770,770,770,770,770,770,770,770,770,770,770,771,772,773,773,773,773,773,773,773,773,773,773,772,772,771,771,771,771,771,771,771,771,771,771,771,771,771,771,771,771,771,771,771,771,771,771,771,771,771,771,771,771,771,771,771,771,771,771,771,771,771,771,771,771,771,771,771,771,771,771,771,771,771,771,771,771,771,771,771,771,771,771,771,771,771,771,771,771,771,771,771,771,771,771,771,771,771,771,771,771,771,771,771,771,771,771,771,771,771,771,771,771,771,771,771,771,771,771,771,771,771,771,771,771,771,771,771,771,771,771,771,771,771,771,771,771,771,771,771,771,771,771,771,771,771,771,771,771,771,771,771,771,771,771,771,771,771,771,771,771,771,771,771,771,771,771,771,771,771,771,771,771,771,771,771,771,771,771,771,771,771,771,771,771,771,771,771,771,771,771,771,771,771,771,771,771,771,771,771,771,771,771,771,771,771,771,771,771,771,771,771,771,771,771,771,771,771,771,771,771,771,771,771,771,771,771,771,771,771,771,771,771,771,771,771,771,771,771,771,771,771,771,771,771,771,771,771,771,771,771,771,771,771,773,774,775,777,778,779,779,780,781,782,783,784,785,787,794,796,799,800,800,800,800,800,800,800,800,800,800,800,800,800,800,800,800,800,800,800,800,800,800,800,800,800,800,800,800,800,800,800,800,800,800,800,800,800,800,800,800,800,800,800,800,800,800,800,800,800,800,800,800,800,800,800,800,800,800,800,800,800,800,800,800,800,800,800,800,800,800,800,800,800,800,800,800,800,800,800,800,800,800,800,800,800,800,800,800,800,800,800,800,800,800,800,800,800,800,800,800,800,800,800,800,800,800,800,800,800,800,800,800,800,800,800,800,800,800,800,800,800,801,820,838,856,867,874,875,875,875,875,875,875,875,875,875,875,875,875,875,875,875,875,875,875,875,875,875,875,875,875,875,875,875,875,875,874,884,902,915,915,908,900,887,863,822,781,721,721,721,721,721,721,721,721,721,721,721,721,721,454,454,454,454,455,457,456,445,437,422,419,413,413,413,413,413,414,425,437,457,507,556,643,674,698,718,731,746,746,747,747,748,754,756,756,756,756,766,766,766,767,771,790,821,867,921,988,1083,1097,1099,1099,1101,1110,1113,1113,1113,1113,1055,998,945,914,883,862,858,852,847,844,836,825,802,779,764,749,743,736,728,723,723,723,723,721,716,716,716,716,716,716,716,716,716,716,716,715,712,711,709,708,701,694,686,682,682,682,682,682,682,682,682,685,685,686,686,686,686,686,686,687,693,698,702,703,704,713,720,723,724,725,725,727,729,734,736,744,745,746,748,748,748,748,747,745,745,743,743,742,742,742,742,742,742,742,742,742,742,742,742,742,742,742,742,742,743,744,744,744,744,744,744,744,744,744,744,744,744,744,744,744,744,744,744,744,744,744,744,744,744,744,744,744,744,744,744,744,744,744,744,744,744,744,744,744,744,744,744,744,744,744,744,744,744,744,749,766,783,797,807,812,820,825,828,828,828,828,828,809,771,746,740,740,740,740,740,743,744,748,752,757,783,801,829,868,939,1009,1028,1046,1078,1102,1120,1125,1127,1129,1131,1131,1131,1130,1126,1123,1118,1115,1111,1108],"ymouse":[554,554,554,554,554,554,554,554,554,554,554,554,554,554,554,554,554,554,554,554,554,554,554,554,554,554,554,554,554,554,554,554,554,554,554,554,554,554,554,554,555,557,563,568,579,583,589,592,595,598,599,601,602,603,604,605,606,607,607,607,607,607,607,607,607,607,607,607,607,607,607,607,607,607,607,607,607,607,607,607,607,607,607,607,607,607,607,607,607,607,607,607,607,607,607,607,607,607,607,607,607,607,607,607,607,607,607,607,607,607,608,608,608,608,608,608,608,608,608,608,608,608,608,608,608,608,608,608,608,608,608,608,608,608,608,608,608,608,608,608,608,608,608,608,608,608,608,608,608,608,608,608,608,608,608,608,608,608,608,608,608,608,608,608,608,608,608,608,608,608,608,608,608,608,608,608,608,608,608,608,608,608,608,608,608,608,608,608,608,608,608,608,608,608,608,608,608,608,608,608,608,608,608,608,608,608,608,608,608,608,608,608,608,608,608,608,608,608,608,608,608,608,608,608,608,608,608,608,608,608,608,608,608,608,608,608,608,608,608,608,608,608,608,608,608,608,608,608,608,608,608,608,608,608,608,608,608,608,608,608,608,608,608,608,608,608,608,608,608,608,608,608,608,608,608,608,608,608,608,608,608,608,608,608,608,608,607,606,605,604,603,603,601,600,599,599,597,595,593,583,579,573,571,571,571,571,571,571,571,571,571,571,571,571,571,571,571,571,571,571,571,571,571,571,571,571,571,571,571,571,571,571,571,571,571,571,571,571,571,571,571,571,571,571,571,571,571,571,571,571,571,571,571,571,571,571,571,571,571,571,571,571,571,571,571,571,571,571,571,571,571,571,571,571,571,571,571,571,571,571,571,571,571,571,571,571,571,571,571,571,571,571,571,571,571,571,571,571,571,571,571,571,571,571,571,571,571,571,571,571,571,571,571,571,571,571,571,571,571,571,571,571,571,570,570,570,568,568,568,568,568,568,568,568,568,568,568,568,568,568,568,568,568,568,568,568,568,568,568,568,568,568,568,568,568,568,568,566,564,534,511,489,485,485,485,496,534,610,705,835,835,835,835,835,835,835,835,835,835,835,835,835,870,837,795,779,765,749,729,677,648,600,588,561,556,556,556,556,556,564,571,583,599,613,638,649,660,672,682,692,693,694,694,694,703,711,719,723,728,737,737,737,737,740,726,686,618,556,502,440,431,431,431,435,485,495,495,495,495,421,370,331,312,301,299,299,302,304,306,309,312,315,322,332,339,339,339,339,338,338,338,338,338,345,345,345,345,345,345,345,345,345,345,345,346,346,346,346,345,339,335,330,329,329,329,329,329,329,329,335,340,341,342,342,342,342,342,344,351,400,432,465,501,559,663,702,723,727,728,728,720,711,697,694,692,692,692,691,689,680,675,670,666,663,655,650,643,639,636,635,634,634,634,634,634,634,634,634,634,634,634,634,634,634,634,634,634,634,634,634,634,634,634,634,634,634,634,634,634,634,634,634,634,634,634,634,634,634,634,634,634,634,634,634,634,634,634,634,634,634,634,634,634,634,634,634,634,634,634,634,634,634,634,636,640,640,640,642,642,642,639,638,638,638,638,638,643,660,668,670,670,670,670,670,670,670,668,666,664,647,632,612,586,535,476,454,428,381,332,262,242,224,205,189,179,173,166,154,140,126,118,108,97],"timestamp_mouse":[9,26,45,65,85,105,125,145,166,185,204,224,245,266,285,305,326,346,366,385,405,425,445,465,486,505,525,545,566,586,605,625,645,665,685,705,725,745,765,786,805,826,845,865,885,905,925,946,966,986,1005,1026,1045,1065,1085,1105,1125,1146,1165,1186,1206,1226,1245,1266,1285,1305,1325,1346,1366,1386,1405,1425,1445,1466,1486,1505,1525,1545,1565,1586,1605,1625,1645,1665,1685,1705,1725,1745,1765,1785,1806,1825,1845,1865,1885,1905,1924,1946,1966,1986,2005,2025,2046,2065,2086,2104,2125,2145,2165,2185,2206,2226,2245,2265,2285,2305,2325,2346,2365,2386,2405,2425,2445,2465,2485,2506,2525,2545,2565,2585,2605,2626,2645,2666,2685,2706,2726,2746,2765,2786,2805,2825,2845,2865,2886,2905,2926,2946,2965,2985,3005,3025,3045,3066,3086,3105,3126,3146,3166,3185,3206,3226,3245,3265,3285,3305,3325,3344,3365,3385,3406,3425,3445,3465,3485,3505,3525,3545,3565,3585,3605,3625,3646,3665,3685,3705,3726,3745,3765,3785,3805,3825,3846,3865,3885,3905,3925,3946,3965,3985,4005,4026,4046,4065,4085,4104,4125,4145,4165,4186,4205,4226,4246,4266,4286,4305,4325,4346,4366,4386,4406,4426,4445,4465,4485,4505,4525,4546,4566,4585,4605,4626,4646,4665,4686,4706,4725,4745,4766,4786,4805,4825,4846,4866,4886,4904,4926,4945,4966,4984,5005,5026,5046,5065,5086,5106,5126,5145,5166,5186,5206,5225,5245,5265,5286,5306,5325,5345,5364,5384,5405,5426,5445,5465,5486,5506,5526,5545,5565,5585,5605,5625,5645,5666,5685,5706,5726,5745,5766,5786,5804,5826,5844,5865,5886,5905,5926,5946,5965,5985,6005,6026,6045,6065,6085,6105,6125,6146,6166,6185,6205,6226,6245,6265,6285,6304,6326,6346,6366,6386,6405,6425,6445,6466,6486,6505,6525,6545,6565,6586,6605,6626,6645,6665,6685,6705,6725,6745,6765,6785,6805,6826,6845,6866,6885,6905,6925,6945,6966,6985,7005,7026,7045,7065,7085,7105,7126,7145,7166,7185,7205,7225,7245,7265,7285,7305,7326,7345,7365,7386,7405,7426,7446,7465,7486,7505,7526,7545,7566,7585,7605,7624,7646,7666,7686,7705,7726,7745,7764,7786,7806,7826,7845,7865,7886,7906,7925,7945,7965,7985,8005,8025,8045,8065,8086,8105,8126,8145,8165,8185,8205,8226,8244,8266,8285,8305,8326,8345,8364,8385,8405,8425,8445,8465,8485,8505,8525,8546,8566,8586,8606,8626,8646,8666,8685,8706,8726,8746,8766,8785,8806,8825,8845,8866,8885,8906,8926,8945,8965,8986,9005,9025,9045,9065,9085,9105,9126,9145,9165,9185,9205,9225,9245,9265,9285,9306,9325,9345,9365,9385,9405,9426,9446,9465,9486,9505,9526,9546,9566,9585,9605,9626,9645,9666,9685,9705,9726,9746,9766,9785,9805,9824,9845,9865,9885,9905,9925,9945,9965,9985,10005,10025,10045,10066,10085,10105,10126,10146,10166,10185,10205,10225,10246,10265,10286,10305,10324,10345,10366,10386,10406,10425,10445,10465,10486,10505,10524,10545,10565,10585,10605,10625,10645,10666,10685,10705,10725,10746,10765,10785,10806,10826,10846,10864,10885,10905,10926,10945,10966,10985,11006,11025,11045,11065,11085,11105,11125,11146,11165,11185,11205,11225,11245,11266,11285,11306,11325,11345,11366,11385,11405,11424,11446,11466,11485,11505,11525,11545,11566,11585,11606,11625,11645,11665,11686,11705,11726,11744,11765,11785,11806,11826,11846,11865,11886,11906,11926,11945,11966,11985,12006,12026,12045,12065,12085,12105,12126,12145,12166,12185,12205,12225,12245,12265,12285,12305,12325,12346,12365,12385,12406,12425,12445,12465,12485,12505,12526,12545,12566,12585,12605,12626,12645,12665,12686,12705,12725,12745,12765,12785,12804,12825,12846,12866,12885,12906,12926,12945,12966,12986,13005,13026,13045,13065,13085,13106,13126,13145,13165,13185,13205,13226,13245,13266,13285,13305,13325,13346,13365,13386,13406,13425,13445,13466,13486,13506,13526,13545,13565,13586,13606,13625,13645,13666,13685,13706,13726,13745,13765,13786,13805,13826,13845,13865,13885,13905,13926,13946,13966,13985,14005,14026,14045,14065,14086,14105,14125,14146,14166,14185,14205,14226,14245,14265,14285,14306,14325,14345,14366,14385,14406,14426,14445,14465,14485,14505,14526,14545,14565,14585,14606,14625,14646,14665,14685,14705,14725,14745,14766,14785,14805,14825,14845],"xSR":741.5,"ySR":490.1,"xT1":424.9,"yT1":0,"xT2":1058.1,"yT2":0,"toosoon":0,"cond_shown":"Congruent","ratio_trial":300,"L_num":11,"L_den":22,"R_num":2,"R_den":10,"correct_side":1,"subjID":"gabrielaisabelhincapiecaro9","gender":"1","age":"11 ","school":"6","test":{"fix_dur":[250,1500],"timestim":1000,"targets_dim":[100,100],"targets_relative_coord":[0.3,0.7],"size_stim":[880,420],"start_dim":[100,100],"size_start":[300,300],"size_fix":60,"samplingrate":20,"img_types":["Congruent","Incongruent"],"ratios":[100,200,300],"rep_conds":19,"nTrials":120,"trials_to_rest":500,"Trials_order":[70,99,57,53,25,51,106,85,37,41,10,111,71,107,21,20,82,77,31,34,62,72,6,16,9,12,64,11,73,52,49,88,3,92,32,50,26,1,8,101,97,79,81,54,39,28,119,63,66,29,38,15,90,61,89,65,80,22,105,95,42,103,114,5,19,46,36,118,55,18,47,76,93,27,17,24,116,84,33,23,78,59,44,100,102,117,45,75,94,48,7,4,0,98,58,108,35,30,86,40,13,109,83,68,91,104,87,115,69,110,56,113,96,43,74,67,2,112,60,14],"cond_shown":["Congruent","Incongruent","Incongruent","Incongruent","Incongruent","Incongruent","Congruent","Incongruent","Incongruent","Incongruent","Congruent","Incongruent","Incongruent","Incongruent","Incongruent","Congruent","Congruent","Incongruent","Incongruent","Congruent","Congruent","Congruent","Congruent","Congruent","Incongruent","Congruent","Congruent","Incongruent","Incongruent","Congruent","Incongruent","Congruent","Incongruent","Congruent","Congruent","Congruent","Congruent","Incongruent","Congruent","Incongruent","Incongruent","Incongruent","Incongruent","Congruent","Incongruent","Congruent","Incongruent","Incongruent","Congruent","Incongruent","Congruent","Incongruent","Congruent","Incongruent","Incongruent","Incongruent","Congruent","Congruent","Incongruent","Incongruent","Congruent","Incongruent","Congruent","Incongruent","Incongruent","Congruent","Congruent","Congruent","Incongruent","Congruent","Incongruent","Congruent","Incongruent","Incongruent","Incongruent","Congruent","Congruent","Congruent","Incongruent","Incongruent","Congruent","Incongruent","Congruent","Congruent","Congruent","Incongruent","Incongruent","Incongruent","Congruent","Congruent","Incongruent","Congruent","Congruent","Congruent","Congruent","Congruent","Incongruent","Congruent","Congruent","Congruent","Incongruent","Incongruent","Incongruent","Congruent","Incongruent","Congruent","Incongruent","Incongruent","Incongruent","Congruent","Congruent","Incongruent","Congruent","Incongruent","Congruent","Incongruent","Congruent","Congruent","Congruent","Congruent"],"ratio_trial":[300,200,200,300,100,200,300,100,100,300,300,200,300,300,200,200,300,300,100,300,200,100,100,300,200,100,300,300,100,300,100,300,200,200,200,200,200,100,200,300,100,100,200,100,200,300,300,200,100,300,200,200,100,100,300,300,200,300,200,300,100,100,100,300,100,300,100,300,100,100,300,300,200,200,300,100,200,100,200,300,100,300,200,300,100,200,200,200,300,100,100,300,100,200,300,100,300,100,200,300,100,100,300,200,100,200,200,100,200,200,200,300,100,100,200,100,200,300,100,200],"left_num":[11,6,7,4,17,7,11,8,6,4,4,7,4,4,1,13,8,1,3,8,7,12,12,3,3,8,1,13,11,3,9,1,14,16,9,6,3,9,4,3,4,3,4,3,7,1,8,14,8,4,3,14,15,6,4,13,4,1,7,13,11,3,11,1,13,2,1,11,10,6,1,2,9,3,2,6,3,2,7,4,11,1,8,20,4,1,9,4,9,7,10,9,10,1,2,3,4,1,6,1,13,2,13,20,17,7,4,9,14,8,3,4,3,13,6,10,6,8,15,5],"right_num":[2,3,4,2,10,6,2,1,3,8,1,12,2,8,2,14,1,2,11,10,2,13,13,2,1,2,8,12,9,4,6,8,12,12,13,11,7,6,3,4,8,7,1,2,12,6,14,6,2,2,7,6,13,11,2,12,3,11,6,12,4,8,6,2,6,12,18,4,9,5,2,10,8,1,6,15,9,11,4,8,6,3,2,8,15,3,8,6,3,9,9,3,3,21,10,4,2,3,11,11,12,8,12,9,10,18,14,13,6,3,7,2,2,12,7,8,3,1,13,14],"left_den":[22,20,15,20,30,15,22,20,12,5,10,10,20,5,3,26,16,2,5,15,21,30,30,6,10,16,30,26,22,6,18,30,30,20,30,20,10,18,10,6,8,9,30,6,10,5,10,30,16,20,10,30,25,10,20,26,8,5,15,26,22,5,22,2,26,10,2,22,25,20,2,20,15,10,4,12,12,5,15,5,22,2,15,25,10,2,15,5,10,14,25,10,25,2,20,20,20,2,20,5,26,4,26,25,30,15,6,15,30,15,10,20,6,26,12,25,15,16,25,10],"right_den":[10,6,6,4,15,9,10,2,5,16,10,24,4,16,15,20,5,10,22,12,15,26,26,10,2,5,24,15,15,5,10,24,18,20,26,22,14,10,15,20,20,30,3,5,24,12,28,9,5,4,14,9,26,22,4,15,10,22,9,15,10,16,15,10,10,24,30,20,18,25,10,25,10,2,30,25,20,22,6,16,15,15,6,16,30,10,10,10,5,15,18,5,10,30,25,16,4,5,22,22,20,20,15,15,15,27,30,26,9,9,14,4,5,20,10,16,15,5,26,20],"correct_side":[1,2,2,2,2,2,1,2,2,1,1,1,2,1,1,2,1,1,1,2,1,2,2,1,2,1,2,2,2,2,2,2,2,1,2,2,2,2,1,1,1,1,2,1,1,2,1,2,1,2,2,2,1,1,2,2,1,2,2,2,1,1,1,1,2,2,2,1,2,1,1,2,2,2,1,2,2,2,2,1,1,1,1,1,2,1,2,1,1,2,2,1,1,2,2,2,2,2,2,2,2,1,2,1,2,2,1,1,2,1,2,2,1,2,2,2,1,1,1,2],"img_shown":["img2/300/Congruent/L/C_Dist_300_LN_11_LD_22_RN_2_RD_10_0.png","img2/200/Incongruent/R/I_Dist_200_LN_6_LD_20_RN_3_RD_6_1.png","img2/200/Incongruent/R/I_Dist_200_LN_7_LD_15_RN_4_RD_6_1.png","img2/300/Incongruent/R/I_Dist_300_LN_4_LD_20_RN_2_RD_4_1.png","img2/100/Incongruent/R/I_Dist_100_LN_17_LD_30_RN_10_RD_15_1.png","img2/200/Incongruent/R/I_Dist_200_LN_7_LD_15_RN_6_RD_9_1.png","img2/300/Congruent/L/C_Dist_300_LN_11_LD_22_RN_2_RD_10_0.png","img2/100/Incongruent/R/I_Dist_100_LN_8_LD_20_RN_1_RD_2_1.png","img2/100/Incongruent/R/I_Dist_100_LN_6_LD_12_RN_3_RD_5_1.png","img2/300/Incongruent/L/I_Dist_300_LN_4_LD_5_RN_8_RD_16_0.png","img2/300/Congruent/L/C_Dist_300_LN_4_LD_10_RN_1_RD_10_0.png","img2/200/Incongruent/L/I_Dist_200_LN_7_LD_10_RN_12_RD_24_0.png","img2/300/Incongruent/R/I_Dist_300_LN_4_LD_20_RN_2_RD_4_1.png","img2/300/Incongruent/L/I_Dist_300_LN_4_LD_5_RN_8_RD_16_0.png","img2/200/Incongruent/L/I_Dist_200_LN_1_LD_3_RN_2_RD_15_0.png","img2/200/Congruent/R/C_Dist_200_LN_13_LD_26_RN_14_RD_20_1.png","img2/300/Congruent/L/C_Dist_300_LN_8_LD_16_RN_1_RD_5_0.png","img2/300/Incongruent/L/I_Dist_300_LN_1_LD_2_RN_2_RD_10_0.png","img2/100/Incongruent/L/I_Dist_100_LN_3_LD_5_RN_11_RD_22_0.png","img2/300/Congruent/R/C_Dist_300_LN_8_LD_15_RN_10_RD_12_1.png","img2/200/Congruent/L/C_Dist_200_LN_7_LD_21_RN_2_RD_15_0.png","img2/100/Congruent/R/C_Dist_100_LN_12_LD_30_RN_13_RD_26_1.png","img2/100/Congruent/R/C_Dist_100_LN_12_LD_30_RN_13_RD_26_1.png","img2/300/Congruent/L/C_Dist_300_LN_3_LD_6_RN_2_RD_10_0.png","img2/200/Incongruent/R/I_Dist_200_LN_3_LD_10_RN_1_RD_2_1.png","img2/100/Congruent/L/C_Dist_100_LN_8_LD_16_RN_2_RD_5_0.png","img2/300/Congruent/R/C_Dist_300_LN_1_LD_30_RN_8_RD_24_1.png","img2/300/Incongruent/R/I_Dist_300_LN_13_LD_26_RN_12_RD_15_1.png","img2/100/Incongruent/R/I_Dist_100_LN_11_LD_22_RN_9_RD_15_1.png","img2/300/Congruent/R/C_Dist_300_LN_3_LD_6_RN_4_RD_5_1.png","img2/100/Incongruent/R/I_Dist_100_LN_9_LD_18_RN_6_RD_10_1.png","img2/300/Congruent/R/C_Dist_300_LN_1_LD_30_RN_8_RD_24_1.png","img2/200/Incongruent/R/I_Dist_200_LN_14_LD_30_RN_12_RD_18_1.png","img2/200/Congruent/L/C_Dist_200_LN_16_LD_20_RN_12_RD_20_0.png","img2/200/Congruent/R/C_Dist_200_LN_9_LD_30_RN_13_RD_26_1.png","img2/200/Congruent/R/C_Dist_200_LN_6_LD_20_RN_11_RD_22_1.png","img2/200/Congruent/R/C_Dist_200_LN_3_LD_10_RN_7_RD_14_1.png","img2/100/Incongruent/R/I_Dist_100_LN_9_LD_18_RN_6_RD_10_1.png","img2/200/Congruent/L/C_Dist_200_LN_4_LD_10_RN_3_RD_15_0.png","img2/300/Incongruent/L/I_Dist_300_LN_3_LD_6_RN_4_RD_20_0.png","img2/100/Incongruent/L/I_Dist_100_LN_4_LD_8_RN_8_RD_20_0.png","img2/100/Incongruent/L/I_Dist_100_LN_3_LD_9_RN_7_RD_30_0.png","img2/200/Incongruent/R/I_Dist_200_LN_4_LD_30_RN_1_RD_3_1.png","img2/100/Congruent/L/C_Dist_100_LN_3_LD_6_RN_2_RD_5_0.png","img2/200/Incongruent/L/I_Dist_200_LN_7_LD_10_RN_12_RD_24_0.png","img2/300/Congruent/R/C_Dist_300_LN_1_LD_5_RN_6_RD_12_1.png","img2/300/Incongruent/L/I_Dist_300_LN_8_LD_10_RN_14_RD_28_0.png","img2/200/Incongruent/R/I_Dist_200_LN_14_LD_30_RN_6_RD_9_1.png","img2/100/Congruent/L/C_Dist_100_LN_8_LD_16_RN_2_RD_5_0.png","img2/300/Incongruent/R/I_Dist_300_LN_4_LD_20_RN_2_RD_4_1.png","img2/200/Congruent/R/C_Dist_200_LN_3_LD_10_RN_7_RD_14_1.png","img2/200/Incongruent/R/I_Dist_200_LN_14_LD_30_RN_6_RD_9_1.png","img2/100/Congruent/L/C_Dist_100_LN_15_LD_25_RN_13_RD_26_0.png","img2/100/Incongruent/L/I_Dist_100_LN_6_LD_10_RN_11_RD_22_0.png","img2/300/Incongruent/R/I_Dist_300_LN_4_LD_20_RN_2_RD_4_1.png","img2/300/Incongruent/R/I_Dist_300_LN_13_LD_26_RN_12_RD_15_1.png","img2/200/Congruent/L/C_Dist_200_LN_4_LD_8_RN_3_RD_10_0.png","img2/300/Congruent/R/C_Dist_300_LN_1_LD_5_RN_11_RD_22_1.png","img2/200/Incongruent/R/I_Dist_200_LN_7_LD_15_RN_6_RD_9_1.png","img2/300/Incongruent/R/I_Dist_300_LN_13_LD_26_RN_12_RD_15_1.png","img2/100/Congruent/L/C_Dist_100_LN_11_LD_22_RN_4_RD_10_0.png","img2/100/Incongruent/L/I_Dist_100_LN_3_LD_5_RN_8_RD_16_0.png","img2/100/Congruent/L/C_Dist_100_LN_11_LD_22_RN_6_RD_15_0.png","img2/300/Incongruent/L/I_Dist_300_LN_1_LD_2_RN_2_RD_10_0.png","img2/100/Incongruent/R/I_Dist_100_LN_13_LD_26_RN_6_RD_10_1.png","img2/300/Congruent/R/C_Dist_300_LN_2_LD_10_RN_12_RD_24_1.png","img2/100/Congruent/R/C_Dist_100_LN_1_LD_2_RN_18_RD_30_1.png","img2/300/Congruent/L/C_Dist_300_LN_11_LD_22_RN_4_RD_20_0.png","img2/100/Incongruent/R/I_Dist_100_LN_10_LD_25_RN_9_RD_18_1.png","img2/100/Congruent/L/C_Dist_100_LN_6_LD_20_RN_5_RD_25_0.png","img2/300/Incongruent/L/I_Dist_300_LN_1_LD_2_RN_2_RD_10_0.png","img2/300/Congruent/R/C_Dist_300_LN_2_LD_20_RN_10_RD_25_1.png","img2/200/Incongruent/R/I_Dist_200_LN_9_LD_15_RN_8_RD_10_1.png","img2/200/Incongruent/R/I_Dist_200_LN_3_LD_10_RN_1_RD_2_1.png","img2/300/Incongruent/L/I_Dist_300_LN_2_LD_4_RN_6_RD_30_0.png","img2/100/Congruent/R/C_Dist_100_LN_6_LD_12_RN_15_RD_25_1.png","img2/200/Congruent/R/C_Dist_200_LN_3_LD_12_RN_9_RD_20_1.png","img2/100/Congruent/R/C_Dist_100_LN_2_LD_5_RN_11_RD_22_1.png","img2/200/Incongruent/R/I_Dist_200_LN_7_LD_15_RN_4_RD_6_1.png","img2/300/Incongruent/L/I_Dist_300_LN_4_LD_5_RN_8_RD_16_0.png","img2/100/Congruent/L/C_Dist_100_LN_11_LD_22_RN_6_RD_15_0.png","img2/300/Incongruent/L/I_Dist_300_LN_1_LD_2_RN_3_RD_15_0.png","img2/200/Congruent/L/C_Dist_200_LN_8_LD_15_RN_2_RD_6_0.png","img2/300/Congruent/L/C_Dist_300_LN_20_LD_25_RN_8_RD_16_0.png","img2/100/Congruent/R/C_Dist_100_LN_4_LD_10_RN_15_RD_30_1.png","img2/200/Incongruent/L/I_Dist_200_LN_1_LD_2_RN_3_RD_10_0.png","img2/200/Incongruent/R/I_Dist_200_LN_9_LD_15_RN_8_RD_10_1.png","img2/200/Incongruent/L/I_Dist_200_LN_4_LD_5_RN_6_RD_10_0.png","img2/300/Congruent/L/C_Dist_300_LN_9_LD_10_RN_3_RD_5_0.png","img2/100/Congruent/R/C_Dist_100_LN_7_LD_14_RN_9_RD_15_1.png","img2/100/Incongruent/R/I_Dist_100_LN_10_LD_25_RN_9_RD_18_1.png","img2/300/Congruent/L/C_Dist_300_LN_9_LD_10_RN_3_RD_5_0.png","img2/100/Congruent/L/C_Dist_100_LN_10_LD_25_RN_3_RD_10_0.png","img2/200/Congruent/R/C_Dist_200_LN_1_LD_2_RN_21_RD_30_1.png","img2/300/Congruent/R/C_Dist_300_LN_2_LD_20_RN_10_RD_25_1.png","img2/100/Congruent/R/C_Dist_100_LN_3_LD_20_RN_4_RD_16_1.png","img2/300/Incongruent/R/I_Dist_300_LN_4_LD_20_RN_2_RD_4_1.png","img2/100/Congruent/R/C_Dist_100_LN_1_LD_2_RN_3_RD_5_1.png","img2/200/Congruent/R/C_Dist_200_LN_6_LD_20_RN_11_RD_22_1.png","img2/300/Congruent/R/C_Dist_300_LN_1_LD_5_RN_11_RD_22_1.png","img2/100/Incongruent/R/I_Dist_100_LN_13_LD_26_RN_12_RD_20_1.png","img2/100/Incongruent/L/I_Dist_100_LN_2_LD_4_RN_8_RD_20_0.png","img2/300/Incongruent/R/I_Dist_300_LN_13_LD_26_RN_12_RD_15_1.png","img2/200/Congruent/L/C_Dist_200_LN_20_LD_25_RN_9_RD_15_0.png","img2/100/Incongruent/R/I_Dist_100_LN_17_LD_30_RN_10_RD_15_1.png","img2/200/Congruent/R/C_Dist_200_LN_7_LD_15_RN_18_RD_27_1.png","img2/200/Incongruent/L/I_Dist_200_LN_4_LD_6_RN_14_RD_30_0.png","img2/100/Incongruent/L/I_Dist_100_LN_9_LD_15_RN_13_RD_26_0.png","img2/200/Incongruent/R/I_Dist_200_LN_14_LD_30_RN_6_RD_9_1.png","img2/200/Congruent/L/C_Dist_200_LN_8_LD_15_RN_3_RD_9_0.png","img2/200/Congruent/R/C_Dist_200_LN_3_LD_10_RN_7_RD_14_1.png","img2/300/Incongruent/R/I_Dist_300_LN_4_LD_20_RN_2_RD_4_1.png","img2/100/Congruent/L/C_Dist_100_LN_3_LD_6_RN_2_RD_5_0.png","img2/100/Incongruent/R/I_Dist_100_LN_13_LD_26_RN_12_RD_20_1.png","img2/200/Congruent/R/C_Dist_200_LN_6_LD_12_RN_7_RD_10_1.png","img2/100/Incongruent/R/I_Dist_100_LN_10_LD_25_RN_8_RD_16_1.png","img2/200/Congruent/L/C_Dist_200_LN_6_LD_15_RN_3_RD_15_0.png","img2/300/Congruent/L/C_Dist_300_LN_8_LD_16_RN_1_RD_5_0.png","img2/100/Congruent/L/C_Dist_100_LN_15_LD_25_RN_13_RD_26_0.png","img2/200/Congruent/R/C_Dist_200_LN_5_LD_10_RN_14_RD_20_1.png"],"dist100_C":[["C_Dist_100_LN_10_LD_25_RN_3_RD_10_0.png","C_Dist_100_LN_11_LD_22_RN_4_RD_10_0.png","C_Dist_100_LN_11_LD_22_RN_6_RD_15_0.png","C_Dist_100_LN_15_LD_25_RN_13_RD_26_0.png","C_Dist_100_LN_3_LD_6_RN_2_RD_5_0.png","C_Dist_100_LN_6_LD_20_RN_5_RD_25_0.png","C_Dist_100_LN_8_LD_16_RN_2_RD_5_0.png","C_Dist_100_LN_9_LD_15_RN_8_RD_16_0.png"],["C_Dist_100_LN_1_LD_2_RN_18_RD_30_1.png","C_Dist_100_LN_1_LD_2_RN_3_RD_5_1.png","C_Dist_100_LN_12_LD_30_RN_13_RD_26_1.png","C_Dist_100_LN_2_LD_5_RN_11_RD_22_1.png","C_Dist_100_LN_2_LD_5_RN_6_RD_12_1.png","C_Dist_100_LN_3_LD_20_RN_4_RD_16_1.png","C_Dist_100_LN_4_LD_10_RN_15_RD_30_1.png","C_Dist_100_LN_4_LD_8_RN_6_RD_10_1.png","C_Dist_100_LN_6_LD_12_RN_15_RD_25_1.png","C_Dist_100_LN_7_LD_14_RN_15_RD_25_1.png","C_Dist_100_LN_7_LD_14_RN_9_RD_15_1.png"]],"dist100_I":[["I_Dist_100_LN_1_LD_2_RN_8_RD_20_0.png","I_Dist_100_LN_2_LD_4_RN_6_RD_15_0.png","I_Dist_100_LN_2_LD_4_RN_8_RD_20_0.png","I_Dist_100_LN_3_LD_5_RN_11_RD_22_0.png","I_Dist_100_LN_3_LD_5_RN_8_RD_16_0.png","I_Dist_100_LN_3_LD_6_RN_4_RD_10_0.png","I_Dist_100_LN_3_LD_9_RN_7_RD_30_0.png","I_Dist_100_LN_4_LD_8_RN_8_RD_20_0.png","I_Dist_100_LN_6_LD_10_RN_11_RD_22_0.png","I_Dist_100_LN_6_LD_10_RN_13_RD_26_0.png","I_Dist_100_LN_6_LD_10_RN_7_RD_14_0.png","I_Dist_100_LN_9_LD_10_RN_20_RD_25_0.png","I_Dist_100_LN_9_LD_15_RN_13_RD_26_0.png","I_Dist_100_LN_9_LD_15_RN_14_RD_28_0.png"],["I_Dist_100_LN_10_LD_25_RN_8_RD_16_1.png","I_Dist_100_LN_10_LD_25_RN_9_RD_18_1.png","I_Dist_100_LN_11_LD_22_RN_9_RD_15_1.png","I_Dist_100_LN_12_LD_24_RN_9_RD_15_1.png","I_Dist_100_LN_12_LD_30_RN_2_RD_4_1.png","I_Dist_100_LN_13_LD_26_RN_12_RD_20_1.png","I_Dist_100_LN_13_LD_26_RN_6_RD_10_1.png","I_Dist_100_LN_17_LD_30_RN_10_RD_15_1.png","I_Dist_100_LN_6_LD_12_RN_3_RD_5_1.png","I_Dist_100_LN_8_LD_16_RN_6_RD_10_1.png","I_Dist_100_LN_8_LD_20_RN_1_RD_2_1.png","I_Dist_100_LN_9_LD_18_RN_6_RD_10_1.png"]],"dist100_S":[["E_Dist_100_LN_2_LD_12_RN_2_RD_30_0.png","E_Dist_100_LN_6_LD_10_RN_6_RD_12_0.png"],["E_Dist_100_LN_6_LD_12_RN_6_RD_10_1.png"]],"dist200_C":[["C_Dist_200_LN_11_LD_22_RN_3_RD_10_0.png","C_Dist_200_LN_12_LD_15_RN_6_RD_10_0.png","C_Dist_200_LN_12_LD_20_RN_6_RD_15_0.png","C_Dist_200_LN_14_LD_28_RN_6_RD_20_0.png","C_Dist_200_LN_15_LD_25_RN_4_RD_10_0.png","C_Dist_200_LN_16_LD_20_RN_12_RD_20_0.png","C_Dist_200_LN_16_LD_30_RN_9_RD_27_0.png","C_Dist_200_LN_20_LD_25_RN_9_RD_15_0.png","C_Dist_200_LN_21_LD_30_RN_2_RD_4_0.png","C_Dist_200_LN_4_LD_10_RN_3_RD_15_0.png","C_Dist_200_LN_4_LD_8_RN_3_RD_10_0.png","C_Dist_200_LN_6_LD_15_RN_3_RD_15_0.png","C_Dist_200_LN_7_LD_21_RN_2_RD_15_0.png","C_Dist_200_LN_8_LD_15_RN_2_RD_6_0.png","C_Dist_200_LN_8_LD_15_RN_3_RD_9_0.png","C_Dist_200_LN_8_LD_15_RN_7_RD_21_0.png","C_Dist_200_LN_9_LD_20_RN_4_RD_16_0.png"],["C_Dist_200_LN_1_LD_2_RN_21_RD_30_1.png","C_Dist_200_LN_13_LD_26_RN_14_RD_20_1.png","C_Dist_200_LN_3_LD_10_RN_11_RD_22_1.png","C_Dist_200_LN_3_LD_10_RN_14_RD_28_1.png","C_Dist_200_LN_3_LD_10_RN_7_RD_14_1.png","C_Dist_200_LN_3_LD_12_RN_9_RD_20_1.png","C_Dist_200_LN_3_LD_6_RN_14_RD_20_1.png","C_Dist_200_LN_5_LD_10_RN_14_RD_20_1.png","C_Dist_200_LN_6_LD_12_RN_7_RD_10_1.png","C_Dist_200_LN_6_LD_20_RN_11_RD_22_1.png","C_Dist_200_LN_7_LD_15_RN_18_RD_27_1.png","C_Dist_200_LN_9_LD_30_RN_13_RD_26_1.png"]],"dist200_I":[["I_Dist_200_LN_1_LD_2_RN_3_RD_10_0.png","I_Dist_200_LN_1_LD_3_RN_2_RD_15_0.png","I_Dist_200_LN_3_LD_4_RN_11_RD_20_0.png","I_Dist_200_LN_4_LD_5_RN_6_RD_10_0.png","I_Dist_200_LN_4_LD_6_RN_14_RD_30_0.png","I_Dist_200_LN_7_LD_10_RN_12_RD_24_0.png","I_Dist_200_LN_7_LD_10_RN_14_RD_28_0.png","I_Dist_200_LN_7_LD_10_RN_8_RD_16_0.png"],["I_Dist_200_LN_11_LD_20_RN_3_RD_4_1.png","I_Dist_200_LN_14_LD_30_RN_12_RD_18_1.png","I_Dist_200_LN_14_LD_30_RN_6_RD_9_1.png","I_Dist_200_LN_3_LD_10_RN_1_RD_2_1.png","I_Dist_200_LN_4_LD_30_RN_1_RD_3_1.png","I_Dist_200_LN_6_LD_20_RN_3_RD_6_1.png","I_Dist_200_LN_7_LD_15_RN_4_RD_6_1.png","I_Dist_200_LN_7_LD_15_RN_6_RD_9_1.png","I_Dist_200_LN_9_LD_15_RN_8_RD_10_1.png"]],"dist200_S":[["E_Dist_200_LN_3_LD_6_RN_3_RD_10_0.png"],["E_Dist_200_LN_3_LD_10_RN_3_RD_6_1.png"]],"dist300_C":[["C_Dist_300_LN_11_LD_22_RN_1_RD_5_0.png","C_Dist_300_LN_11_LD_22_RN_2_RD_10_0.png","C_Dist_300_LN_11_LD_22_RN_4_RD_20_0.png","C_Dist_300_LN_12_LD_24_RN_2_RD_10_0.png","C_Dist_300_LN_18_LD_20_RN_9_RD_15_0.png","C_Dist_300_LN_20_LD_25_RN_13_RD_26_0.png","C_Dist_300_LN_20_LD_25_RN_14_RD_28_0.png","C_Dist_300_LN_20_LD_25_RN_5_RD_10_0.png","C_Dist_300_LN_20_LD_25_RN_8_RD_16_0.png","C_Dist_300_LN_20_LD_25_RN_9_RD_18_0.png","C_Dist_300_LN_24_LD_30_RN_2_RD_4_0.png","C_Dist_300_LN_24_LD_30_RN_8_RD_16_0.png","C_Dist_300_LN_3_LD_6_RN_2_RD_10_0.png","C_Dist_300_LN_4_LD_10_RN_1_RD_10_0.png","C_Dist_300_LN_4_LD_5_RN_2_RD_4_0.png","C_Dist_300_LN_8_LD_16_RN_1_RD_5_0.png","C_Dist_300_LN_9_LD_10_RN_3_RD_5_0.png"],["C_Dist_300_LN_1_LD_20_RN_7_RD_20_1.png","C_Dist_300_LN_1_LD_3_RN_19_RD_30_1.png","C_Dist_300_LN_1_LD_30_RN_8_RD_24_1.png","C_Dist_300_LN_1_LD_5_RN_11_RD_22_1.png","C_Dist_300_LN_1_LD_5_RN_3_RD_6_1.png","C_Dist_300_LN_1_LD_5_RN_6_RD_12_1.png","C_Dist_300_LN_2_LD_10_RN_12_RD_24_1.png","C_Dist_300_LN_2_LD_20_RN_10_RD_25_1.png","C_Dist_300_LN_3_LD_12_RN_11_RD_20_1.png","C_Dist_300_LN_3_LD_6_RN_4_RD_5_1.png","C_Dist_300_LN_4_LD_20_RN_13_RD_26_1.png","C_Dist_300_LN_5_LD_25_RN_6_RD_12_1.png","C_Dist_300_LN_5_LD_25_RN_7_RD_14_1.png","C_Dist_300_LN_7_LD_14_RN_20_RD_25_1.png","C_Dist_300_LN_8_LD_15_RN_10_RD_12_1.png"]],"dist300_I":[["I_Dist_300_LN_1_LD_2_RN_2_RD_10_0.png","I_Dist_300_LN_1_LD_2_RN_3_RD_15_0.png","I_Dist_300_LN_2_LD_4_RN_6_RD_30_0.png","I_Dist_300_LN_3_LD_6_RN_4_RD_20_0.png","I_Dist_300_LN_4_LD_5_RN_6_RD_12_0.png","I_Dist_300_LN_4_LD_5_RN_8_RD_16_0.png","I_Dist_300_LN_7_LD_10_RN_8_RD_20_0.png","I_Dist_300_LN_8_LD_10_RN_14_RD_28_0.png","I_Dist_300_LN_8_LD_10_RN_9_RD_18_0.png"],["I_Dist_300_LN_13_LD_26_RN_12_RD_15_1.png","I_Dist_300_LN_4_LD_20_RN_2_RD_4_1.png"]],"dist300_S":[["E_Dist_300_LN_9_LD_12_RN_9_RD_20_0.png"],["E_Dist_300_LN_18_LD_30_RN_18_RD_20_1.png","E_Dist_300_LN_3_LD_10_RN_3_RD_5_1.png","E_Dist_300_LN_9_LD_20_RN_9_RD_12_1.png"]],"dist500_C":[["C_Dist_500_LN_10_LD_13_RN_7_RD_26_0.png","C_Dist_500_LN_10_LD_15_RN_4_RD_24_0.png","C_Dist_500_LN_12_LD_16_RN_3_RD_12_0.png","C_Dist_500_LN_12_LD_18_RN_4_RD_24_0.png","C_Dist_500_LN_15_LD_18_RN_5_RD_15_0.png","C_Dist_500_LN_15_LD_20_RN_1_RD_4_0.png","C_Dist_500_LN_18_LD_27_RN_1_RD_6_0.png","C_Dist_500_LN_20_LD_24_RN_1_RD_3_0.png","C_Dist_500_LN_20_LD_24_RN_3_RD_9_0.png","C_Dist_500_LN_20_LD_24_RN_7_RD_21_0.png","C_Dist_500_LN_20_LD_28_RN_3_RD_14_0.png","C_Dist_500_LN_21_LD_28_RN_6_RD_24_0.png","C_Dist_500_LN_22_LD_28_RN_2_RD_7_0.png","C_Dist_500_LN_25_LD_30_RN_9_RD_27_0.png","C_Dist_500_LN_4_LD_6_RN_1_RD_6_0.png","C_Dist_500_LN_5_LD_6_RN_2_RD_6_0.png","C_Dist_500_LN_6_LD_9_RN_1_RD_6_0.png","C_Dist_500_LN_7_LD_10_RN_1_RD_5_0.png","C_Dist_500_LN_8_LD_12_RN_1_RD_6_0.png","C_Dist_500_LN_8_LD_12_RN_4_RD_24_0.png"],["C_Dist_500_LN_1_LD_4_RN_12_RD_16_1.png","C_Dist_500_LN_1_LD_4_RN_9_RD_12_1.png","C_Dist_500_LN_1_LD_9_RN_11_RD_18_1.png","C_Dist_500_LN_10_LD_24_RN_22_RD_24_1.png","C_Dist_500_LN_2_LD_12_RN_10_RD_15_1.png","C_Dist_500_LN_2_LD_12_RN_12_RD_18_1.png","C_Dist_500_LN_2_LD_12_RN_4_RD_6_1.png","C_Dist_500_LN_2_LD_24_RN_7_RD_12_1.png","C_Dist_500_LN_2_LD_5_RN_18_RD_20_1.png","C_Dist_500_LN_2_LD_5_RN_9_RD_10_1.png","C_Dist_500_LN_2_LD_8_RN_12_RD_16_1.png","C_Dist_500_LN_2_LD_8_RN_21_RD_28_1.png","C_Dist_500_LN_3_LD_10_RN_4_RD_5_1.png","C_Dist_500_LN_3_LD_12_RN_15_RD_20_1.png","C_Dist_500_LN_3_LD_30_RN_6_RD_10_1.png","C_Dist_500_LN_3_LD_8_RN_14_RD_16_1.png","C_Dist_500_LN_4_LD_16_RN_15_RD_20_1.png","C_Dist_500_LN_4_LD_24_RN_12_RD_18_1.png","C_Dist_500_LN_5_LD_14_RN_6_RD_7_1.png","C_Dist_500_LN_7_LD_21_RN_20_RD_24_1.png","C_Dist_500_LN_7_LD_28_RN_12_RD_16_1.png","C_Dist_500_LN_7_LD_28_RN_9_RD_12_1.png","C_Dist_500_LN_9_LD_27_RN_20_RD_24_1.png"]],"dist500_I":[["I_Dist_500_LN_2_LD_3_RN_4_RD_24_0.png","I_Dist_500_LN_5_LD_6_RN_6_RD_18_0.png","I_Dist_500_LN_7_LD_8_RN_9_RD_24_0.png"],["I_Dist_500_LN_7_LD_21_RN_5_RD_6_1.png"]],"dist500_S":[["E_Dist_500_LN_6_LD_8_RN_6_RD_24_0.png"],["E_Dist_500_LN_2_LD_12_RN_2_RD_3_1.png","E_Dist_500_LN_6_LD_24_RN_6_RD_8_1.png"]]}},{"start_time":1551899941319,"click_time":1551899943982,"finger_time":1551899943161,"fix_duration":494.941125203634,"trial":1,"RT":1842,"MT":821,"sideResp":1,"stimulus":[],"xmouse":[808,808,808,808,808,808,808,808,808,808,808,808,808,808,808,808,808,808,808,808,808,808,808,808,808,808,808,808,808,808,808,808,808,808,808,808,808,808,808,808,808,808,808,808,808,808,808,808,808,808,808,808,808,808,808,808,808,808,808,808,808,808,808,808,808,808,808,806,806,806,806,806,805,805,805,805,805,805,805,805,805,805,805,805,805,805,805,805,805,805,809,816,831,839,846,851,857,866,869,876,880,885,897,904,909,912,913,913,912,910,906,898,865,840,812,788,763,722,706,690,683,677,666,657,649,643,635,621,614,605,595,575,531,507],"ymouse":[593,593,593,593,593,593,593,593,593,593,593,593,593,593,593,593,593,593,593,593,593,593,593,593,593,593,593,593,593,593,593,593,593,593,593,593,593,593,593,593,593,593,593,593,593,593,593,593,593,593,593,593,593,593,593,593,593,593,593,593,593,593,593,593,594,594,594,599,602,603,605,607,607,607,607,607,607,607,607,607,607,607,607,607,607,607,607,607,607,607,598,582,548,531,514,500,487,465,457,445,438,430,409,396,382,369,358,347,343,341,338,335,327,319,311,302,294,280,273,266,262,256,242,227,213,200,185,159,150,139,130,114,89,77],"timestamp_mouse":[11,22,50,63,83,102,122,143,162,183,202,222,243,262,282,303,322,343,362,382,402,423,443,462,483,503,522,543,563,582,603,621,643,663,681,702,722,743,762,782,802,823,842,862,882,902,922,943,963,983,1002,1022,1042,1063,1083,1102,1121,1143,1163,1182,1203,1222,1242,1262,1283,1302,1323,1342,1362,1382,1402,1422,1442,1462,1483,1503,1523,1543,1562,1583,1602,1623,1642,1662,1682,1702,1722,1742,1763,1782,1802,1823,1842,1862,1882,1903,1923,1942,1963,1982,2003,2022,2042,2062,2081,2102,2122,2142,2163,2182,2202,2222,2242,2262,2282,2303,2322,2342,2362,2382,2402,2423,2443,2462,2482,2502,2523,2542,2562,2582,2602,2622,2642,2662],"xSR":741.5,"ySR":573.95,"xT1":424.9,"yT1":0,"xT2":1058.1,"yT2":0,"toosoon":0,"cond_shown":"Incongruent","ratio_trial":200,"L_num":6,"L_den":20,"R_num":3,"R_den":6,"correct_side":2,"subjID":"gabrielaisabelhincapiecaro9","gender":"1","school":"6","age":"11 "},{"start_time":1551899946459,"click_time":1551899948322,"finger_time":1551899947701,"fix_duration":596.0176121921301,"trial":2,"RT":1242,"MT":621,"sideResp":2,"stimulus":[],"xmouse":[774,774,774,774,774,774,774,774,774,774,774,774,774,774,774,774,774,774,774,774,774,774,774,774,774,774,774,774,774,774,774,774,774,774,774,774,774,774,774,774,774,774,774,774,774,774,774,774,774,774,774,774,774,774,774,774,775,783,792,793,793,809,839,886,973,1105,1148,1182,1202,1214,1226,1229,1230,1230,1230,1230,1230,1230,1230,1229,1226,1218,1199,1188,1182,1172,1171,1170,1169,1169,1169,1167,1161,1150],"ymouse":[633,633,633,633,633,633,633,633,633,633,633,633,633,633,633,633,633,633,633,633,633,633,633,633,633,633,633,633,633,633,633,633,633,633,633,633,633,633,633,633,633,633,633,633,633,633,633,633,633,633,633,633,633,633,633,633,633,630,622,619,608,584,544,490,392,251,198,141,95,62,18,0,0,0,0,0,0,0,0,0,0,0,0,0,0,0,0,0,0,0,0,0,1,8],"timestamp_mouse":[10,31,42,62,82,103,122,142,162,182,202,223,243,263,282,302,322,342,362,382,402,422,442,462,482,503,522,543,563,582,602,622,642,662,682,702,722,742,762,782,802,822,843,862,882,902,922,943,962,982,1002,1023,1042,1063,1082,1102,1122,1142,1162,1183,1202,1223,1242,1263,1283,1302,1322,1342,1362,1383,1402,1421,1442,1462,1483,1503,1523,1542,1562,1582,1602,1622,1642,1663,1682,1702,1722,1742,1762,1782,1801,1822,1842,1863],"xSR":741.5,"ySR":573.95,"xT1":424.9,"yT1":0,"xT2":1058.1,"yT2":0,"toosoon":0,"cond_shown":"Incongruent","ratio_trial":200,"L_num":7,"L_den":15,"R_num":4,"R_den":6,"correct_side":2,"subjID":"gabrielaisabelhincapiecaro9","gender":"1","school":"6","age":"11 "},{"start_time":1551899949913,"click_time":1551899951562,"finger_time":1551899950961,"fix_duration":250,"trial":3,"RT":1048,"MT":601,"sideResp":2,"stimulus":[],"xmouse":[748,748,748,748,748,748,748,748,748,748,748,748,748,748,748,749,752,768,774,780,787,788,789,789,789,789,789,789,789,789,789,789,789,789,789,789,789,789,789,789,790,789,789,789,789,789,789,789,789,789,789,789,812,831,851,868,883,901,906,909,910,912,914,915,916,918,920,927,935,946,955,963,975,981,986,992,997,1018,1030,1043,1049,1055,1064],"ymouse":[615,615,615,615,615,615,615,615,615,615,615,615,615,615,615,615,614,612,611,609,605,604,603,603,603,603,603,603,603,603,603,603,603,603,603,603,603,603,603,603,603,604,604,604,604,604,604,604,604,604,604,603,564,532,504,484,465,438,430,423,418,413,406,400,393,386,377,348,330,302,285,270,252,245,237,227,217,188,171,144,129,115,88],"timestamp_mouse":[10,33,48,68,89,108,129,149,168,189,207,228,248,268,289,308,329,348,368,388,409,428,448,468,488,509,529,548,568,588,608,629,648,669,689,708,728,748,768,789,809,829,848,868,888,909,928,948,968,988,1009,1029,1048,1068,1088,1108,1128,1148,1169,1188,1209,1229,1248,1268,1288,1308,1328,1348,1368,1387,1408,1429,1448,1468,1488,1509,1529,1548,1569,1588,1608,1629,1649],"xSR":741.5,"ySR":573.95,"xT1":424.9,"yT1":0,"xT2":1058.1,"yT2":0,"toosoon":0,"cond_shown":"Incongruent","ratio_trial":300,"L_num":4,"L_den":20,"R_num":2,"R_den":4,"correct_side":2,"subjID":"gabrielaisabelhincapiecaro9","gender":"1","school":"6","age":"11 "},{"start_time":1551899955513,"click_time":1551899957261,"finger_time":1551899956361,"fix_duration":630.9406467751169,"trial":4,"RT":848,"MT":900,"sideResp":2,"stimulus":[],"xmouse":[797,797,797,797,797,797,797,797,797,797,797,797,797,797,797,797,797,797,797,797,797,797,796,796,796,796,796,796,796,796,796,796,796,796,796,796,796,796,796,796,796,797,822,848,871,892,905,911,912,912,912,912,912,912,915,921,931,960,971,989,996,1002,1011,1016,1027,1040,1056,1073,1075,1076,1076,1076,1076,1075,1075,1075,1074,1074,1074,1074,1074,1074,1074,1074,1074,1076,1079,1087],"ymouse":[647,645,643,642,642,642,641,641,641,641,641,641,641,641,641,641,639,638,638,637,637,637,635,635,635,635,635,635,635,635,635,635,635,635,635,635,635,635,635,635,635,627,551,492,433,382,348,323,322,322,322,322,322,319,316,307,296,267,257,242,236,231,224,220,212,204,192,178,175,173,173,173,168,165,161,157,151,140,135,133,130,130,128,127,123,119,114,96],"timestamp_mouse":[11,33,49,69,88,108,128,149,167,188,208,229,248,268,288,308,328,348,368,388,409,429,448,469,488,508,527,549,568,589,609,629,648,668,688,709,728,749,768,788,808,829,848,868,888,909,928,948,969,988,1009,1029,1048,1068,1088,1108,1128,1148,1169,1188,1209,1227,1247,1268,1288,1308,1328,1348,1368,1389,1408,1428,1448,1468,1488,1509,1528,1548,1567,1588,1608,1629,1648,1668,1688,1708,1729,1748],"xSR":741.5,"ySR":573.95,"xT1":424.9,"yT1":0,"xT2":1058.1,"yT2":0,"toosoon":0,"cond_shown":"Incongruent","ratio_trial":100,"L_num":17,"L_den":30,"R_num":10,"R_den":15,"correct_side":2,"subjID":"gabrielaisabelhincapiecaro9","gender":"1","school":"6","age":"11 "},{"start_time":1551899959566,"click_time":1551899960321,"finger_time":1551899960122,"fix_duration":1103.5668984216477,"trial":5,"RT":556,"MT":199,"sideResp":2,"stimulus":[],"xmouse":[792,794,794,796,799,800,801,801,801,801,801,801,801,801,801,801,801,801,801,801,801,801,801,801,801,804,809,823,877,981,1024,1062,1075,1083,1087,1088,1089,1090],"ymouse":[600,599,599,598,598,597,597,597,597,597,597,597,597,597,597,597,597,597,597,597,597,597,597,597,597,596,587,565,488,338,261,197,163,142,122,116,109,96],"timestamp_mouse":[19,43,55,76,95,115,136,156,175,196,215,235,256,276,296,315,336,355,375,396,415,435,456,475,495,515,535,556,575,595,615,635,655,676,694,716,735,755],"xSR":741.5,"ySR":573.95,"xT1":424.9,"yT1":0,"xT2":1058.1,"yT2":0,"toosoon":0,"cond_shown":"Incongruent","ratio_trial":200,"L_num":7,"L_den":15,"R_num":6,"R_den":9,"correct_side":2,"subjID":"gabrielaisabelhincapiecaro9","gender":"1","school":"6","age":"11 "},{"start_time":1551899961979,"click_time":1551899962802,"finger_time":1551899962381,"fix_duration":636.7624518462433,"trial":6,"RT":402,"MT":421,"sideResp":2,"stimulus":[],"xmouse":[805,805,805,805,805,805,805,805,805,805,805,805,805,805,805,805,805,805,805,811,822,849,887,924,985,998,1006,1009,1012,1018,1024,1028,1031,1034,1035,1035,1035,1035,1035,1046,1054,1064],"ymouse":[599,600,600,600,600,600,600,600,600,600,600,600,600,600,600,600,600,600,600,585,563,515,451,385,252,206,168,146,130,103,87,71,60,53,49,49,49,49,49,48,46,45],"timestamp_mouse":[2,34,42,62,83,103,122,142,162,183,202,223,243,262,282,302,322,342,362,383,402,422,442,462,482,503,521,542,562,582,602,622,642,663,683,703,723,742,763,782,802,823],"xSR":741.5,"ySR":573.95,"xT1":424.9,"yT1":0,"xT2":1058.1,"yT2":0,"toosoon":0,"cond_shown":"Congruent","ratio_trial":300,"L_num":11,"L_den":22,"R_num":2,"R_den":10,"correct_side":1,"subjID":"gabrielaisabelhincapiecaro9","gender":"1","school":"6","age":"11 "},{"start_time":1551899965324,"click_time":1551899966181,"finger_time":1551899965721,"fix_duration":861.5220067669744,"trial":7,"RT":397,"MT":460,"sideResp":1,"stimulus":[],"xmouse":[778,778,778,778,778,778,778,778,778,778,778,778,778,778,778,778,776,768,755,741,717,694,668,645,614,562,550,542,533,527,518,512,506,502,499,499,499,499,499,499,499,499],"ymouse":[603,603,603,603,603,603,603,603,603,603,603,603,603,603,603,603,596,581,558,536,477,426,361,288,195,11,0,0,0,0,0,0,0,0,0,0,0,0,0,0,0,5],"timestamp_mouse":[37,57,77,98,117,137,157,178,198,218,238,257,277,297,317,338,357,377,397,418,437,457,478,498,518,537,557,577,597,617,638,657,677,697,717,738,757,777,797,817,837,857],"xSR":741.5,"ySR":573.95,"xT1":424.9,"yT1":0,"xT2":1058.1,"yT2":0,"toosoon":0,"cond_shown":"Incongruent","ratio_trial":100,"L_num":8,"L_den":20,"R_num":1,"R_den":2,"correct_side":2,"subjID":"gabrielaisabelhincapiecaro9","gender":"1","school":"6","age":"11 "},{"start_time":1551899968168,"click_time":1551899969061,"finger_time":1551899968721,"fix_duration":1144.8746747940086,"trial":8,"RT":553,"MT":340,"sideResp":2,"stimulus":[],"xmouse":[800,800,800,800,800,800,800,800,800,801,801,801,801,801,802,802,803,803,803,803,803,803,803,803,803,807,820,848,891,977,1009,1028,1036,1036,1036,1036,1037,1041,1045,1054,1058,1064,1071,1078,1085],"ymouse":[647,647,647,647,647,647,647,647,647,647,647,646,646,646,645,644,642,641,639,639,639,639,639,639,639,629,598,538,459,309,254,215,198,194,192,190,182,175,167,153,146,136,124,111,88],"timestamp_mouse":[14,38,53,73,93,113,133,154,174,193,213,234,253,273,293,313,333,354,374,394,413,433,454,473,493,513,533,553,573,594,613,633,653,673,693,714,733,752,774,793,813,833,853,874,893],"xSR":741.5,"ySR":573.95,"xT1":424.9,"yT1":0,"xT2":1058.1,"yT2":0,"toosoon":0,"cond_shown":"Incongruent","ratio_trial":100,"L_num":6,"L_den":12,"R_num":3,"R_den":5,"correct_side":2,"subjID":"gabrielaisabelhincapiecaro9","gender":"1","school":"6","age":"11 "},{"start_time":1551899971369,"click_time":1551899973461,"finger_time":1551899971701,"fix_duration":1126.9770676001071,"trial":9,"RT":332,"MT":1760,"sideResp":1,"stimulus":[],"xmouse":[786,786,786,786,786,786,786,786,786,786,786,786,786,786,792,802,823,839,856,888,906,920,932,943,962,969,978,994,1004,1023,1034,1047,1056,1063,1072,1074,1074,1074,1074,1074,1074,1074,1073,1051,814,561,93,0,0,0,0,0,0,0,0,0,0,6,18,50,67,87,109,137,205,235,255,265,265,265,265,267,274,283,317,331,337,344,348,357,360,363,365,366,369,369,372,374,377,385,390,395,400,404,407,409,409,409,409,409,409,412,415,422,433],"ymouse":[600,600,600,600,600,600,600,600,600,600,600,600,600,600,592,578,545,517,480,404,364,331,304,283,249,236,221,191,168,107,66,25,0,0,0,0,0,0,0,0,0,0,0,0,18,41,41,41,41,32,31,31,31,31,31,31,31,29,23,9,2,0,0,0,0,0,0,0,0,0,0,0,1,8,25,30,32,34,35,35,35,35,35,35,35,35,35,35,35,35,35,36,37,38,38,39,39,39,39,39,39,39,40,43,44],"timestamp_mouse":[15,41,52,73,93,112,132,152,172,193,212,233,253,272,292,312,332,352,373,392,412,432,452,472,492,513,532,552,573,592,612,632,652,672,692,712,732,752,773,793,812,831,853,873,892,912,932,953,972,992,1013,1033,1053,1072,1092,1112,1132,1152,1172,1193,1212,1233,1252,1272,1292,1313,1332,1353,1373,1392,1412,1433,1453,1473,1492,1512,1533,1552,1572,1593,1612,1633,1653,1672,1692,1713,1732,1753,1772,1792,1812,1833,1853,1873,1892,1912,1932,1952,1973,1992,2012,2033,2053,2072,2092],"xSR":741.5,"ySR":573.95,"xT1":424.9,"yT1":0,"xT2":1058.1,"yT2":0,"toosoon":0,"cond_shown":"Incongruent","ratio_trial":300,"L_num":4,"L_den":5,"R_num":8,"R_den":16,"correct_side":1,"subjID":"gabrielaisabelhincapiecaro9","gender":"1","school":"6","age":"11 "},{"start_time":1551899976712,"click_time":1551899977482,"finger_time":1551899977221,"fix_duration":969.6324437077278,"trial":10,"RT":509,"MT":261,"sideResp":2,"stimulus":[],"xmouse":[792,792,792,792,792,792,792,792,792,792,792,792,792,792,792,792,792,793,794,796,800,802,806,808,810,814,821,848,869,911,929,974,1015,1028,1039,1048,1054,1063,1069],"ymouse":[628,628,628,628,628,628,628,627,627,627,626,626,626,626,626,626,625,622,620,614,607,602,590,583,574,563,545,484,433,345,315,233,159,138,122,111,106,101,99],"timestamp_mouse":[9,33,49,70,89,109,129,149,169,189,209,229,250,269,289,310,330,350,369,389,410,429,449,469,490,509,530,549,569,589,608,630,649,669,689,709,729,749,770],"xSR":741.5,"ySR":573.95,"xT1":424.9,"yT1":0,"xT2":1058.1,"yT2":0,"toosoon":0,"cond_shown":"Congruent","ratio_trial":300,"L_num":4,"L_den":10,"R_num":1,"R_den":10,"correct_side":1,"subjID":"gabrielaisabelhincapiecaro9","gender":"1","school":"6","age":"11 "},{"start_time":1551899981308,"click_time":1551899982222,"finger_time":1551899981762,"fix_duration":1245.4335259720342,"trial":11,"RT":454,"MT":460,"sideResp":2,"stimulus":[],"xmouse":[794,794,794,794,794,794,794,794,794,794,794,794,794,794,794,794,791,790,789,788,787,786,787,797,820,859,909,999,1031,1050,1059,1059,1059,1061,1062,1064,1066,1071,1073,1075,1077,1079,1082,1085,1091,1096],"ymouse":[612,612,612,612,612,612,612,612,612,612,612,612,611,611,611,611,608,604,600,594,587,581,554,527,483,423,355,236,203,184,175,174,174,171,166,161,155,144,140,135,130,127,118,113,106,96],"timestamp_mouse":[14,35,53,72,93,114,133,153,174,193,213,233,254,273,294,313,334,353,374,393,414,433,454,473,493,514,534,553,573,594,613,633,654,673,693,714,733,753,773,793,813,833,853,873,893,914],"xSR":741.5,"ySR":573.95,"xT1":424.9,"yT1":0,"xT2":1058.1,"yT2":0,"toosoon":0,"cond_shown":"Incongruent","ratio_trial":200,"L_num":7,"L_den":10,"R_num":12,"R_den":24,"correct_side":1,"subjID":"gabrielaisabelhincapiecaro9","gender":"1","school":"6","age":"11 "},{"start_time":1551899984940,"click_time":1551899985662,"finger_time":1551899985262,"fix_duration":1277.1330032875408,"trial":12,"RT":322,"MT":400,"sideResp":1,"stimulus":[],"xmouse":[781,781,781,781,781,781,781,781,781,781,781,780,779,777,773,768,753,738,723,705,697,681,671,665,657,648,628,619,606,598,589,568,559,552,544,534,521],"ymouse":[626,626,626,626,626,626,626,626,626,625,625,620,615,609,597,581,526,472,402,294,221,112,81,61,44,29,2,0,0,0,0,0,0,0,0,0,5],"timestamp_mouse":[10,34,42,63,82,103,122,142,162,182,202,222,242,263,282,302,322,343,362,383,402,422,442,462,482,503,522,543,562,582,602,622,642,662,683,704,722],"xSR":741.5,"ySR":573.95,"xT1":424.9,"yT1":0,"xT2":1058.1,"yT2":0,"toosoon":0,"cond_shown":"Incongruent","ratio_trial":300,"L_num":4,"L_den":20,"R_num":2,"R_den":4,"correct_side":2,"subjID":"gabrielaisabelhincapiecaro9","gender":"1","school":"6","age":"11 "},{"start_time":1551899987342,"click_time":1551899988143,"finger_time":1551899987782,"fix_duration":578.2022661289758,"trial":13,"RT":440,"MT":361,"sideResp":2,"stimulus":[],"xmouse":[787,787,787,787,787,787,787,787,787,787,787,787,787,787,788,789,795,800,800,801,802,802,802,805,813,831,889,915,937,943,948,965,987,1008,1037,1061,1091,1102,1110,1115,1116],"ymouse":[629,629,629,629,629,629,629,629,629,629,629,629,629,629,628,627,620,614,614,611,602,586,570,549,523,487,400,364,331,320,312,295,279,262,240,215,166,147,127,105,95],"timestamp_mouse":[8,35,40,60,80,101,121,140,161,181,201,220,240,260,280,300,320,340,360,381,401,420,440,460,481,500,520,541,560,581,600,620,640,660,681,701,720,740,761,780,801],"xSR":741.5,"ySR":573.95,"xT1":424.9,"yT1":0,"xT2":1058.1,"yT2":0,"toosoon":0,"cond_shown":"Incongruent","ratio_trial":300,"L_num":4,"L_den":5,"R_num":8,"R_den":16,"correct_side":1,"subjID":"gabrielaisabelhincapiecaro9","gender":"1","school":"6","age":"11 "},{"start_time":1551899990728,"click_time":1551899991502,"finger_time":1551899991042,"fix_duration":1404.48015899035,"trial":14,"RT":314,"MT":460,"sideResp":2,"stimulus":[],"xmouse":[808,808,808,808,808,808,808,808,808,808,808,808,808,805,802,795,784,784,784,796,804,821,834,858,895,921,960,969,974,976,978,983,986,992,1002,1012,1037,1054,1086],"ymouse":[629,629,629,629,629,629,629,629,629,629,629,629,621,606,582,541,418,355,306,247,224,191,176,162,141,125,93,83,76,73,72,71,70,69,64,59,48,41,28],"timestamp_mouse":[14,35,55,76,94,114,134,154,174,194,216,234,254,275,295,314,334,355,374,394,415,434,454,474,495,514,534,554,574,595,614,634,654,674,694,714,734,754,774],"xSR":741.5,"ySR":573.95,"xT1":424.9,"yT1":0,"xT2":1058.1,"yT2":0,"toosoon":0,"cond_shown":"Incongruent","ratio_trial":200,"L_num":1,"L_den":3,"R_num":2,"R_den":15,"correct_side":1,"subjID":"gabrielaisabelhincapiecaro9","gender":"1","school":"6","age":"11 "},{"start_time":1551899993831,"click_time":1551899994743,"finger_time":1551899994323,"fix_duration":788.3863529907644,"trial":15,"RT":492,"MT":420,"sideResp":1,"stimulus":[],"xmouse":[784,784,783,783,783,783,782,781,781,781,781,780,780,780,778,778,777,777,777,777,777,777,774,758,731,687,600,565,535,518,508,498,492,477,468,458,447,444,444,444,444,444,444,444,444,447],"ymouse":[647,647,646,646,644,643,641,639,638,638,638,637,637,636,634,634,634,633,632,632,632,632,624,584,512,412,193,99,24,0,0,0,0,0,0,0,0,0,0,0,0,0,0,0,0,3],"timestamp_mouse":[11,34,52,71,91,111,131,151,172,191,211,231,251,271,292,311,331,352,371,391,412,431,451,471,492,512,531,551,571,591,612,631,653,671,691,711,731,751,771,791,811,831,852,871,892,912],"xSR":741.5,"ySR":573.95,"xT1":424.9,"yT1":0,"xT2":1058.1,"yT2":0,"toosoon":0,"cond_shown":"Congruent","ratio_trial":200,"L_num":13,"L_den":26,"R_num":14,"R_den":20,"correct_side":2,"subjID":"gabrielaisabelhincapiecaro9","gender":"1","school":"6","age":"11 "},{"start_time":1551899996983,"click_time":1551899998023,"finger_time":1551899997484,"fix_duration":899.0633974146989,"trial":16,"RT":501,"MT":539,"sideResp":2,"stimulus":[],"xmouse":[801,801,801,801,801,801,801,800,800,800,800,799,799,799,799,799,799,799,799,799,799,799,800,808,815,822,834,842,860,869,873,876,881,895,907,927,942,954,976,989,1000,1011,1022,1039,1043,1049,1052,1053,1055,1056,1058,1060],"ymouse":[599,599,599,599,599,599,599,599,600,600,600,601,601,601,601,601,601,601,601,601,597,595,590,574,561,545,518,499,457,438,421,409,395,355,328,281,246,213,161,136,113,88,66,34,26,19,15,14,14,14,14,14],"timestamp_mouse":[19,40,59,80,100,120,139,161,179,199,219,240,259,279,299,320,341,360,380,399,419,440,459,479,501,520,540,559,579,600,620,640,660,679,699,719,739,760,779,799,820,839,860,879,900,919,939,959,979,999,1019,1040],"xSR":741.5,"ySR":573.95,"xT1":424.9,"yT1":0,"xT2":1058.1,"yT2":0,"toosoon":0,"cond_shown":"Congruent","ratio_trial":300,"L_num":8,"L_den":16,"R_num":1,"R_den":5,"correct_side":1,"subjID":"gabrielaisabelhincapiecaro9","gender":"1","school":"6","age":"11 "},{"start_time":1551900027199,"click_time":1551900027782,"finger_time":1551900027662,"fix_duration":655.1606477984511,"trial":17,"RT":463,"MT":120,"sideResp":1,"stimulus":[],"xmouse":[798,798,798,798,798,799,801,802,802,802,802,802,802,802,802,802,802,802,802,802,802,802,798,786,768,713,680,641,544,496],"ymouse":[591,591,591,591,592,593,595,595,595,595,595,595,595,595,595,595,595,595,595,595,595,595,591,568,537,431,351,264,106,66],"timestamp_mouse":[10,34,45,64,84,103,123,143,163,183,203,223,244,263,283,304,325,343,364,384,403,423,443,463,484,503,524,544,563,583],"xSR":741.5,"ySR":573.95,"xT1":424.9,"yT1":0,"xT2":1058.1,"yT2":0,"toosoon":0,"cond_shown":"Incongruent","ratio_trial":300,"L_num":1,"L_den":2,"R_num":2,"R_den":10,"correct_side":1,"subjID":"gabrielaisabelhincapiecaro9","gender":"1","school":"6","age":"11 "},{"start_time":1551900031380,"click_time":1551900032243,"finger_time":1551900031764,"fix_duration":816.6386767192689,"trial":18,"RT":384,"MT":479,"sideResp":1,"stimulus":[],"xmouse":[793,793,793,793,793,793,793,793,793,793,793,793,793,793,793,793,793,793,792,780,774,762,754,728,719,713,704,696,684,661,652,648,646,643,633,628,625,619,609,581,565,548,533,519],"ymouse":[624,624,624,624,624,624,624,624,624,624,624,624,624,624,624,624,624,623,615,554,497,431,358,243,215,194,175,162,147,114,99,85,66,48,18,8,6,3,3,6,11,16,20,26],"timestamp_mouse":[10,31,42,63,82,104,122,142,163,182,203,223,242,262,282,302,322,342,362,384,402,422,443,464,482,502,522,542,563,582,602,622,642,663,682,702,722,742,762,783,802,823,843,863],"xSR":741.5,"ySR":573.95,"xT1":424.9,"yT1":0,"xT2":1058.1,"yT2":0,"toosoon":0,"cond_shown":"Incongruent","ratio_trial":100,"L_num":3,"L_den":5,"R_num":11,"R_den":22,"correct_side":1,"subjID":"gabrielaisabelhincapiecaro9","gender":"1","school":"6","age":"11 "},{"start_time":1551900033914,"click_time":1551900034502,"finger_time":1551900034263,"fix_duration":250,"trial":19,"RT":349,"MT":239,"sideResp":1,"stimulus":[],"xmouse":[776,776,776,776,776,776,776,776,776,776,776,776,776,776,776,776,776,737,630,559,510,481,461,461,461,461,460,457,457,457],"ymouse":[600,600,600,600,600,600,600,600,600,600,600,600,600,600,600,600,598,555,435,368,311,266,221,209,196,183,167,130,108,84],"timestamp_mouse":[10,33,48,68,107,108,128,148,170,188,209,228,249,268,288,308,329,349,369,388,409,428,448,468,488,508,528,548,568,588],"xSR":741.5,"ySR":573.95,"xT1":424.9,"yT1":0,"xT2":1058.1,"yT2":0,"toosoon":0,"cond_shown":"Congruent","ratio_trial":300,"L_num":8,"L_den":15,"R_num":10,"R_den":12,"correct_side":2,"subjID":"gabrielaisabelhincapiecaro9","gender":"1","school":"6","age":"11 "},{"start_time":1551900038302,"click_time":1551900038782,"finger_time":1551900038462,"fix_duration":839.9710853370415,"trial":20,"RT":160,"MT":320,"sideResp":2,"stimulus":[],"xmouse":[790,790,790,790,790,790,792,796,813,823,830,838,846,872,890,912,931,946,972,982,996,1006,1018,1047,1060],"ymouse":[589,589,589,589,589,589,589,581,543,522,499,467,441,366,323,274,226,177,109,87,65,55,47,35,27],"timestamp_mouse":[9,21,40,60,80,101,120,141,160,180,200,220,240,261,280,301,320,340,360,381,400,421,441,460,480],"xSR":741.5,"ySR":573.95,"xT1":424.9,"yT1":0,"xT2":1058.1,"yT2":0,"toosoon":0,"cond_shown":"Congruent","ratio_trial":200,"L_num":7,"L_den":21,"R_num":2,"R_den":15,"correct_side":1,"subjID":"gabrielaisabelhincapiecaro9","gender":"1","school":"6","age":"11 "},{"start_time":1551900041995,"click_time":1551900042903,"finger_time":1551900042222,"fix_duration":250,"trial":21,"RT":227,"MT":681,"sideResp":2,"stimulus":[],"xmouse":[787,787,787,787,787,787,786,786,793,804,821,851,887,946,977,996,1011,1017,1020,1020,1020,1020,1020,1020,1019,1017,1015,1015,1017,1021,1025,1030,1035,1049,1057,1067,1071,1072,1073,1073,1073,1073,1073,1076,1079,1082],"ymouse":[657,657,657,657,657,657,657,656,646,631,611,580,544,466,424,390,357,342,330,328,327,325,323,316,310,295,282,269,242,230,220,212,208,200,197,189,186,184,177,172,166,156,146,118,100,77],"timestamp_mouse":[10,35,47,68,88,108,128,147,167,187,207,227,247,267,289,307,327,347,367,387,409,427,448,467,487,507,528,547,568,587,607,628,648,667,689,707,727,747,767,787,808,827,847,867,887,907],"xSR":741.5,"ySR":573.95,"xT1":424.9,"yT1":0,"xT2":1058.1,"yT2":0,"toosoon":0,"cond_shown":"Congruent","ratio_trial":100,"L_num":12,"L_den":30,"R_num":13,"R_den":26,"correct_side":2,"subjID":"gabrielaisabelhincapiecaro9","gender":"1","school":"6","age":"11 "},{"start_time":1551900044773,"click_time":1551900045662,"finger_time":1551900045103,"fix_duration":250,"trial":22,"RT":330,"MT":559,"sideResp":2,"stimulus":[],"xmouse":[793,793,793,793,793,793,793,793,793,793,793,793,793,793,794,799,809,831,845,874,882,886,887,888,888,890,903,929,943,957,961,966,972,986,1027,1044,1060,1075,1076,1076,1077,1077,1079,1081,1085],"ymouse":[614,614,614,614,614,614,614,614,614,614,614,614,614,612,599,578,544,467,413,320,292,275,268,266,265,262,253,231,216,197,194,189,184,180,163,152,140,128,125,124,122,120,117,112,99],"timestamp_mouse":[9,29,51,69,90,109,129,150,169,190,210,229,249,270,289,309,330,349,370,389,409,429,449,471,489,510,529,550,570,589,610,629,649,670,689,710,729,750,770,790,809,829,850,870,889],"xSR":741.5,"ySR":573.95,"xT1":424.9,"yT1":0,"xT2":1058.1,"yT2":0,"toosoon":0,"cond_shown":"Congruent","ratio_trial":100,"L_num":12,"L_den":30,"R_num":13,"R_den":26,"correct_side":2,"subjID":"gabrielaisabelhincapiecaro9","gender":"1","school":"6","age":"11 "},{"start_time":1551900049460,"click_time":1551900102422,"finger_time":1551900083703,"fix_duration":876.1422190936769,"trial":23,"RT":34243,"MT":18719,"sideResp":2,"stimulus":[],"xmouse":[804,804,801,790,790,790,790,789,789,789,789,789,789,789,789,789,789,789,789,789,789,789,789,789,789,789,789,789,789,789,789,789,789,789,789,789,789,789,789,789,789,789,789,789,789,789,789,789,789,789,789,789,789,789,789,789,789,789,789,789,789,789,789,789,789,789,789,789,789,789,789,789,789,789,789,789,789,789,789,789,789,789,789,789,789,789,789,789,789,789,789,789,789,789,789,789,789,789,789,789,789,789,789,789,789,789,789,789,789,789,789,789,789,789,789,789,789,789,789,789,789,789,789,789,789,789,789,789,789,789,789,789,789,789,789,789,789,789,789,789,789,789,789,789,789,789,789,789,789,789,789,789,789,789,789,789,789,789,789,789,789,789,789,789,789,789,789,789,789,789,789,789,789,789,789,789,789,789,789,789,789,789,789,789,789,789,789,789,789,789,789,789,789,789,789,789,789,789,789,789,789,789,789,789,789,789,789,789,789,789,789,789,789,789,789,789,789,789,789,789,789,789,789,789,789,789,789,789,789,789,789,789,789,789,789,789,789,789,789,789,789,789,789,789,789,789,789,789,789,789,789,789,789,789,789,789,789,789,789,789,789,789,789,789,789,789,789,789,789,789,789,789,789,789,789,789,789,789,789,789,789,789,789,789,789,789,789,789,789,789,789,789,789,789,789,789,789,789,789,789,789,789,789,789,789,789,789,789,789,789,789,789,789,789,789,789,789,789,789,789,789,789,789,789,789,789,789,789,789,789,789,789,789,789,789,789,789,789,789,789,789,789,789,789,789,789,789,789,789,789,789,789,789,789,789,789,789,789,789,789,789,789,789,789,789,789,789,789,789,789,789,789,789,789,789,789,789,789,789,789,789,789,789,789,789,789,789,789,789,789,789,789,789,789,789,789,789,789,789,789,789,789,789,789,789,789,789,789,789,789,789,789,789,789,789,789,789,789,789,789,789,789,789,789,789,789,789,789,789,789,789,789,789,789,789,789,789,789,789,789,789,789,789,789,789,789,789,789,789,789,789,789,789,789,789,789,789,789,789,789,789,789,789,789,789,789,789,789,789,789,789,789,789,789,789,789,789,789,789,789,789,789,789,789,789,789,789,789,789,789,789,789,789,789,789,789,789,789,789,789,789,789,789,789,789,789,789,789,789,789,789,789,789,789,789,789,789,789,789,789,789,789,789,789,789,789,789,789,789,789,789,789,789,789,789,789,789,789,789,789,789,789,789,789,789,789,789,789,789,789,789,789,789,789,789,789,789,789,789,789,789,789,789,789,789,789,789,789,789,789,789,789,789,789,789,789,789,789,789,789,789,789,789,789,789,789,789,789,789,789,789,789,789,789,789,789,789,789,789,789,789,789,789,789,789,789,789,789,789,789,789,789,789,789,789,789,789,789,789,789,789,789,789,789,789,789,789,789,789,789,789,789,789,789,789,789,789,789,789,789,789,789,789,789,789,789,789,789,789,789,789,789,789,789,789,789,789,789,789,789,789,789,789,789,789,789,789,789,789,789,789,789,789,789,789,789,789,789,789,789,789,789,789,789,789,789,789,789,789,789,789,789,789,789,789,789,789,789,789,789,789,789,789,789,789,789,789,789,789,789,789,789,789,789,789,789,789,789,789,789,789,789,789,789,789,789,789,789,789,789,789,789,789,789,789,789,789,789,789,789,789,789,789,789,789,789,789,789,789,789,789,789,789,789,789,789,789,789,789,789,789,789,789,789,789,789,789,789,789,789,789,789,789,789,789,789,789,789,789,789,789,789,789,789,789,789,789,789,789,789,789,789,789,789,789,789,789,789,789,789,789,789,789,789,789,789,789,789,789,789,789,789,789,789,789,789,789,789,789,789,789,789,789,789,789,789,789,789,789,789,789,789,789,789,789,789,789,789,789,789,789,789,789,789,789,789,789,789,789,789,789,789,789,789,789,789,789,789,789,789,789,789,789,789,789,789,789,789,789,789,789,789,789,789,789,789,789,789,789,789,789,789,789,789,789,789,789,789,789,789,789,789,789,789,789,789,789,789,789,789,789,789,789,789,789,789,789,789,789,789,789,789,789,789,789,789,789,789,789,789,789,789,789,789,789,789,789,789,789,789,789,789,789,789,789,789,789,789,789,789,789,789,789,789,789,789,789,789,789,789,789,789,789,789,789,789,789,789,789,789,789,789,789,789,789,789,789,789,789,789,789,789,789,789,789,789,789,789,789,789,789,789,789,789,789,789,789,789,789,789,789,789,789,789,789,789,789,789,789,789,789,789,789,789,789,789,789,789,789,789,789,789,789,789,789,789,789,789,789,789,789,789,789,789,789,789,789,789,789,789,789,789,789,789,789,789,789,789,789,789,789,789,789,789,789,789,789,789,789,789,789,789,789,789,789,789,789,789,789,789,789,789,789,789,789,789,789,789,789,789,789,789,789,789,789,789,789,789,789,789,789,789,789,789,789,789,789,789,789,789,789,789,789,789,789,789,789,789,789,789,789,789,789,789,789,789,789,789,789,789,789,789,789,789,789,789,789,789,789,789,789,789,789,789,789,789,789,789,789,789,789,789,789,789,789,789,789,789,789,789,789,789,789,789,789,789,789,789,789,789,789,789,789,789,789,789,789,789,789,789,789,789,789,789,789,789,789,789,789,789,789,789,789,789,789,789,789,789,789,789,789,789,789,789,789,789,789,789,789,789,789,789,789,789,789,789,789,789,789,789,789,789,789,789,789,789,789,789,789,789,789,789,789,789,789,789,789,789,789,789,789,789,789,789,789,789,789,789,789,789,789,789,789,789,789,789,789,789,789,789,789,789,789,789,789,789,789,789,789,789,789,789,789,789,789,789,789,789,789,789,789,789,789,789,789,789,789,789,789,789,789,789,789,789,789,789,789,789,789,789,789,789,789,789,789,789,789,789,789,789,789,789,789,789,789,789,789,789,789,789,789,789,789,789,789,789,789,789,789,789,789,789,789,789,789,789,789,789,789,789,789,789,789,789,789,789,789,789,789,789,789,789,789,789,789,789,789,789,789,789,789,789,789,789,789,789,789,789,789,789,789,789,789,789,789,789,789,789,789,789,789,789,789,789,789,789,789,789,789,789,789,789,789,789,789,789,789,789,789,789,789,789,789,789,789,789,789,789,789,789,789,789,789,789,789,789,789,789,789,789,789,789,789,789,789,789,789,789,789,789,789,789,789,789,789,789,789,789,789,789,789,789,789,789,789,789,789,789,789,789,789,789,789,789,789,789,789,789,789,789,789,789,789,789,789,789,789,789,789,789,789,789,789,789,789,789,789,789,789,789,789,789,789,789,789,789,789,789,789,789,789,789,789,789,789,789,789,789,789,789,789,789,789,789,789,789,789,789,789,789,789,789,789,789,789,789,789,789,789,789,789,789,789,789,789,789,789,789,789,789,789,789,789,789,789,789,789,789,789,789,789,789,789,789,789,789,789,789,789,789,789,789,789,789,789,789,789,789,789,789,789,789,789,789,789,789,789,789,789,789,789,789,789,789,789,789,789,789,789,789,789,789,789,789,789,789,789,789,789,789,789,789,789,789,789,789,789,789,789,789,789,789,789,789,789,789,789,789,789,789,789,789,789,789,789,789,789,789,789,789,789,789,789,789,789,789,789,789,789,789,789,789,789,789,789,789,789,789,789,789,789,789,789,789,789,789,789,789,789,789,789,789,789,789,789,789,789,789,789,789,789,789,789,789,789,789,789,789,789,789,789,789,789,789,789,789,789,789,789,789,789,789,789,789,789,789,789,789,789,789,789,789,789,789,789,789,789,789,789,789,789,789,789,789,789,789,789,789,789,789,789,789,789,789,789,789,789,789,789,789,789,789,789,789,789,786,777,769,763,750,746,742,738,733,729,724,722,722,722,722,722,722,722,722,722,722,722,722,722,722,722,722,722,722,722,722,722,722,722,722,722,721,721,721,722,723,723,723,723,723,723,723,723,723,723,723,723,721,713,672,661,659,659,659,659,659,659,659,659,659,659,659,659,659,659,659,659,659,659,659,659,659,659,659,659,659,659,659,659,659,659,659,659,659,659,659,659,659,659,659,659,659,659,659,659,659,659,659,659,659,659,659,659,659,659,659,659,659,659,659,659,659,659,659,659,659,659,659,659,659,659,659,659,659,659,659,659,659,659,659,659,659,659,659,659,659,659,659,659,659,659,659,659,659,659,659,659,659,659,659,659,659,659,659,659,659,659,659,659,659,659,659,659,659,659,659,659,659,659,659,659,659,659,659,659,659,659,659,659,659,659,659,659,659,659,659,659,659,659,659,659,659,659,659,659,659,659,659,659,659,659,659,659,659,659,659,659,659,659,659,659,659,659,659,659,659,659,659,659,659,659,659,659,659,659,659,659,659,659,659,659,659,659,659,659,659,659,659,659,659,659,659,659,659,659,659,659,659,659,659,659,659,659,659,659,659,659,659,659,659,659,659,659,659,659,659,659,659,659,659,659,659,659,659,659,659,659,659,659,659,659,659,659,659,659,659,659,659,659,659,659,659,659,659,659,659,659,659,659,659,659,659,659,659,659,659,659,659,659,659,659,659,659,659,659,659,659,659,659,659,659,659,659,659,659,659,659,659,659,659,659,659,659,659,659,659,659,659,659,659,659,659,659,659,659,659,659,659,659,659,659,659,659,659,659,659,659,659,659,659,659,659,659,659,659,659,659,659,659,659,659,659,659,659,659,659,659,659,659,659,659,659,659,659,659,659,659,659,659,659,659,659,659,659,659,659,659,659,659,659,659,659,659,659,659,659,659,659,659,659,659,659,659,659,659,659,659,659,659,659,659,659,659,659,659,659,659,659,659,659,659,659,659,659,659,659,659,659,659,659,659,659,659,659,659,659,659,659,659,659,659,659,659,659,659,659,659,659,659,659,659,659,659,659,659,659,659,659,659,659,659,659,659,659,659,659,659,659,659,659,659,659,659,659,659,659,659,659,659,659,659,659,659,659,659,659,659,659,659,659,659,659,659,659,659,659,659,659,659,659,659,659,659,659,659,659,659,659,659,659,659,659,659,659,659,659,659,659,659,659,659,659,659,659,659,659,659,659,659,659,659,659,659,659,659,659,659,659,659,659,659,659,659,659,659,659,659,659,659,659,659,659,659,659,659,659,659,659,659,659,659,659,659,659,659,659,659,659,659,659,659,659,659,659,659,659,659,659,659,659,659,659,659,659,659,659,659,659,659,659,659,659,659,659,659,659,659,659,659,659,659,659,659,659,659,659,659,659,659,659,659,659,659,659,659,659,659,659,659,659,659,659,659,659,659,659,659,659,659,659,659,659,659,659,659,659,659,659,659,659,659,662,682,734,797,828,828,823,823,823,826,836,861,867,867,867,867,867,867,867,867,867,867,867,867,812,806,805,805,806,834,853,858,860,860,860,860,863,866,868,862,857,850,843,842,842,842,843,843,843,838,836,833,829,829,829,829,829,829,829,829,829,829,829,829,829,829,829,829,829,829,829,829,829,829,829,829,829,829,829,829,829,829,829,829,827,826,825,825,825,824,823,822,819,818,817,816,816,815,813,810,808,808,808,808,807,806,806,806,804,800,799,799,799,799,799,799,799,799,799,799,799,799,799,799,799,799,799,799,799,799,799,799,799,799,799,799,799,799,799,799,799,799,799,799,799,799,799,799,799,799,799,799,799,799,799,799,799,799,799,799,799,799,799,799,799,799,799,799,799,799,799,799,799,799,799,799,799,799,799,799,799,799,799,799,799,799,799,799,799,799,799,799,799,799,799,799,799,799,799,799,799,799,799,799,799,799,799,799,799,799,799,799,799,799,799,799,799,799,799,799,799,799,799,799,799,799,799,799,799,799,799,799,799,799,799,799,799,799,799,799,799,799,799,799,799,799,799,799,799,799,799,799,799,799,799,799,799,799,799,799,799,799,800,804,812,814,817,819,820,824,826,828,830,834,838,838,840,840,840,840,840,840,840,840,859,899,994,1113],"ymouse":[591,591,592,594,594,594,594,593,593,593,593,593,593,593,593,593,593,593,593,593,593,593,593,593,593,593,593,593,593,593,593,593,593,593,593,593,593,593,593,593,593,593,593,593,593,593,593,593,593,593,593,593,593,593,593,593,593,593,593,593,593,593,593,593,593,593,593,593,593,593,593,593,593,593,593,593,593,593,593,593,593,593,593,593,593,593,593,593,593,593,593,593,593,593,593,593,593,593,593,593,593,593,593,593,593,593,593,593,593,593,593,593,593,593,593,593,593,593,593,593,593,593,593,593,593,593,593,593,593,593,593,593,593,593,593,593,593,593,593,593,593,593,593,593,593,593,593,593,593,593,593,593,593,593,593,593,593,593,593,593,593,593,593,593,593,593,593,593,593,593,593,593,593,593,593,593,593,593,593,593,593,593,593,593,593,593,593,593,593,593,593,593,593,593,593,593,593,593,593,593,593,593,593,593,593,593,593,593,593,593,593,593,593,593,593,593,593,593,593,593,593,593,593,593,593,593,593,593,593,593,593,593,593,593,593,593,593,593,593,593,593,593,593,593,593,593,593,593,593,593,593,593,593,593,593,593,593,593,593,593,593,593,593,593,593,593,593,593,593,593,593,593,593,593,593,593,593,593,593,593,593,593,593,593,593,593,593,593,593,593,593,593,593,593,593,593,593,593,593,593,593,593,593,593,593,593,593,593,593,593,593,593,593,593,593,593,593,593,593,593,593,593,593,593,593,593,593,593,593,593,593,593,593,593,593,593,593,593,593,593,593,593,593,593,593,593,593,593,593,593,593,593,593,593,593,593,593,593,593,593,593,593,593,593,593,593,593,593,593,593,593,593,593,593,593,593,593,593,593,593,593,593,593,593,593,593,593,593,593,593,593,593,593,593,593,593,593,593,593,593,593,593,593,593,593,593,593,593,593,593,593,593,593,593,593,593,593,593,593,593,593,593,593,593,593,593,593,593,593,593,593,593,593,593,593,593,593,593,593,593,593,593,593,593,593,593,593,593,593,593,593,593,593,593,593,593,593,593,593,593,593,593,593,593,593,593,593,593,593,593,593,593,593,593,593,593,593,593,593,593,593,593,593,593,593,593,593,593,593,593,593,593,593,593,593,593,593,593,593,593,593,593,593,593,593,593,593,593,593,593,593,593,593,593,593,593,593,593,593,593,593,593,593,593,593,593,593,593,593,593,593,593,593,593,593,593,593,593,593,593,593,593,593,593,593,593,593,593,593,593,593,593,593,593,593,593,593,593,593,593,593,593,593,593,593,593,593,593,593,593,593,593,593,593,593,593,593,593,593,593,593,593,593,593,593,593,593,593,593,593,593,593,593,593,593,593,593,593,593,593,593,593,593,593,593,593,593,593,593,593,593,593,593,593,593,593,593,593,593,593,593,593,593,593,593,593,593,593,593,593,593,593,593,593,593,593,593,593,593,593,593,593,593,593,593,593,593,593,593,593,593,593,593,593,593,593,593,593,593,593,593,593,593,593,593,593,593,593,593,593,593,593,593,593,593,593,593,593,593,593,593,593,593,593,593,593,593,593,593,593,593,593,593,593,593,593,593,593,593,593,593,593,593,593,593,593,593,593,593,593,593,593,593,593,593,593,593,593,593,593,593,593,593,593,593,593,593,593,593,593,593,593,593,593,593,593,593,593,593,593,593,593,593,593,593,593,593,593,593,593,593,593,593,593,593,593,593,593,593,593,593,593,593,593,593,593,593,593,593,593,593,593,593,593,593,593,593,593,593,593,593,593,593,593,593,593,593,593,593,593,593,593,593,593,593,593,593,593,593,593,593,593,593,593,593,593,593,593,593,593,593,593,593,593,593,593,593,593,593,593,593,593,593,593,593,593,593,593,593,593,593,593,593,593,593,593,593,593,593,593,593,593,593,593,593,593,593,593,593,593,593,593,593,593,593,593,593,593,593,593,593,593,593,593,593,593,593,593,593,593,593,593,593,593,593,593,593,593,593,593,593,593,593,593,593,593,593,593,593,593,593,593,593,593,593,593,593,593,593,593,593,593,593,593,593,593,593,593,593,593,593,593,593,593,593,593,593,593,593,593,593,593,593,593,593,593,593,593,593,593,593,593,593,593,593,593,593,593,593,593,593,593,593,593,593,593,593,593,593,593,593,593,593,593,593,593,593,593,593,593,593,593,593,593,593,593,593,593,593,593,593,593,593,593,593,593,593,593,593,593,593,593,593,593,593,593,593,593,593,593,593,593,593,593,593,593,593,593,593,593,593,593,593,593,593,593,593,593,593,593,593,593,593,593,593,593,593,593,593,593,593,593,593,593,593,593,593,593,593,593,593,593,593,593,593,593,593,593,593,593,593,593,593,593,593,593,593,593,593,593,593,593,593,593,593,593,593,593,593,593,593,593,593,593,593,593,593,593,593,593,593,593,593,593,593,593,593,593,593,593,593,593,593,593,593,593,593,593,593,593,593,593,593,593,593,593,593,593,593,593,593,593,593,593,593,593,593,593,593,593,593,593,593,593,593,593,593,593,593,593,593,593,593,593,593,593,593,593,593,593,593,593,593,593,593,593,593,593,593,593,593,593,593,593,593,593,593,593,593,593,593,593,593,593,593,593,593,593,593,593,593,593,593,593,593,593,593,593,593,593,593,593,593,593,593,593,593,593,593,593,593,593,593,593,593,593,593,593,593,593,593,593,593,593,593,593,593,593,593,593,593,593,593,593,593,593,593,593,593,593,593,593,593,593,593,593,593,593,593,593,593,593,593,593,593,593,593,593,593,593,593,593,593,593,593,593,593,593,593,593,593,593,593,593,593,593,593,593,593,593,593,593,593,593,593,593,593,593,593,593,593,593,593,593,593,593,593,593,593,593,593,593,593,593,593,593,593,593,593,593,593,593,593,593,593,593,593,593,593,593,593,593,593,593,593,593,593,593,593,593,593,593,593,593,593,593,593,593,593,593,593,593,593,593,593,593,593,593,593,593,593,593,593,593,593,593,593,593,593,593,593,593,593,593,593,593,593,593,593,593,593,593,593,593,593,593,593,593,593,593,593,593,593,593,593,593,593,593,593,593,593,593,593,593,593,593,593,593,593,593,593,593,593,593,593,593,593,593,593,593,593,593,593,593,593,593,593,593,593,593,593,593,593,593,593,593,593,593,593,593,593,593,593,593,593,593,593,593,593,593,593,593,593,593,593,593,593,593,593,593,593,593,593,593,593,593,593,593,593,593,593,593,593,593,593,593,593,593,593,593,593,593,593,593,593,593,593,593,593,593,593,593,593,593,593,593,593,593,593,593,593,593,593,593,593,593,593,593,593,593,593,593,593,593,593,593,593,593,593,593,593,593,593,593,593,593,593,593,593,593,593,593,593,593,593,593,593,593,593,593,593,593,593,593,593,593,593,593,593,593,593,593,593,593,593,593,593,593,593,593,593,593,593,593,593,593,593,593,593,593,593,593,593,593,593,593,593,593,593,593,593,593,593,593,593,593,593,593,593,593,593,593,593,593,593,593,593,593,593,593,593,593,593,593,593,593,593,593,593,593,593,593,593,593,593,593,593,593,593,593,593,593,593,593,593,593,593,593,593,593,593,593,593,593,593,593,593,593,593,593,593,593,593,593,593,593,593,593,593,593,593,593,593,593,593,593,593,593,593,593,593,593,593,593,593,593,593,593,593,593,593,593,593,593,593,593,593,593,593,593,593,593,593,593,593,593,593,593,593,593,593,593,593,593,593,593,593,593,593,593,593,593,593,593,593,593,593,593,593,593,593,593,593,593,593,593,593,593,593,593,593,593,593,593,593,593,593,593,593,593,593,593,593,593,593,593,593,593,593,593,593,593,593,593,593,593,593,592,590,587,585,585,583,582,581,579,578,578,578,578,578,578,578,578,578,578,578,578,578,578,578,578,578,578,578,578,578,578,578,578,578,577,575,569,561,559,559,559,559,559,559,559,559,559,559,557,546,535,523,512,511,511,511,511,511,511,511,511,511,511,511,511,511,511,511,511,511,511,511,511,511,511,511,511,511,511,511,511,511,511,511,511,511,511,511,511,511,511,511,511,511,511,511,511,511,511,511,511,511,511,511,511,511,511,511,511,511,511,511,511,511,511,511,511,511,511,511,511,511,511,511,511,511,511,511,511,511,511,511,511,511,511,511,511,511,511,511,511,511,511,511,511,511,511,511,511,511,511,511,511,511,511,511,511,511,511,511,511,511,511,511,511,511,511,511,511,511,511,511,511,511,511,511,511,511,511,511,511,511,511,511,511,511,511,511,511,511,511,511,511,511,511,511,511,511,511,511,511,511,511,511,511,511,511,511,511,511,511,511,511,511,511,511,511,511,511,511,511,511,511,511,511,511,511,511,511,511,511,511,511,511,511,511,511,511,511,511,511,511,511,511,511,511,511,511,511,511,511,511,511,511,511,511,511,511,511,511,511,511,511,511,511,511,511,511,511,511,511,511,511,511,511,511,511,511,511,511,511,511,511,511,511,511,511,511,511,511,511,511,511,511,511,511,511,511,511,511,511,511,511,511,511,511,511,511,511,511,511,511,511,511,511,511,511,511,511,511,511,511,511,511,511,511,511,511,511,511,511,511,511,511,511,511,511,511,511,511,511,511,511,511,511,511,511,511,511,511,511,511,511,511,511,511,511,511,511,511,511,511,511,511,511,511,511,511,511,511,511,511,511,511,511,511,511,511,511,511,511,511,511,511,511,511,511,511,511,511,511,511,511,511,511,511,511,511,511,511,511,511,511,511,511,511,511,511,511,511,511,511,511,511,511,511,511,511,511,511,511,511,511,511,511,511,511,511,511,511,511,511,511,511,511,511,511,511,511,511,511,511,511,511,511,511,511,511,511,511,511,511,511,511,511,511,511,511,511,511,511,511,511,511,511,511,511,511,511,511,511,511,511,511,511,511,511,511,511,511,511,511,511,511,511,511,511,511,511,511,511,511,511,511,511,511,511,511,511,511,511,511,511,511,511,511,511,511,511,511,511,511,511,511,511,511,511,511,511,511,511,511,511,511,511,511,511,511,511,511,511,511,511,511,511,511,511,511,511,511,511,511,511,511,511,511,511,511,511,511,511,511,511,511,511,511,511,511,511,511,511,511,511,511,511,511,511,511,511,511,511,511,511,511,511,511,511,511,511,511,511,511,511,511,511,511,511,511,511,511,511,511,511,511,511,511,511,511,511,511,511,511,511,511,511,511,511,511,511,511,511,511,511,511,511,511,511,511,511,511,511,511,511,511,511,511,511,511,511,511,511,511,511,511,511,511,511,511,511,511,511,511,511,511,511,511,511,511,511,511,511,511,511,511,506,506,526,575,636,640,642,643,643,643,643,662,670,670,670,670,670,670,670,670,670,670,670,670,587,565,545,523,505,481,472,471,470,470,470,470,476,484,494,520,531,543,554,556,556,556,556,554,549,535,527,520,504,486,479,475,473,473,473,473,473,473,473,473,473,473,473,473,473,473,473,473,473,473,473,473,473,473,473,473,473,473,472,478,496,503,506,509,511,517,524,527,535,538,543,544,545,547,550,554,556,559,562,567,574,579,581,590,601,618,620,621,621,621,621,621,621,621,621,621,621,621,621,621,621,621,621,621,621,621,621,621,621,621,621,621,621,621,621,621,621,621,621,621,621,621,621,621,621,621,621,621,621,621,621,621,621,621,621,621,621,621,621,621,621,621,621,621,621,621,621,621,621,621,621,621,621,621,621,621,621,621,621,621,621,621,621,621,621,621,621,621,621,621,621,621,621,621,621,621,621,621,621,621,621,621,621,621,621,621,621,621,621,621,621,621,621,621,621,621,621,621,621,621,621,621,621,621,621,621,621,621,621,621,621,621,621,621,621,621,621,621,621,621,621,621,621,621,621,621,621,621,621,621,621,621,621,621,621,621,609,603,588,558,511,487,461,435,407,359,339,324,309,286,261,255,252,251,251,251,251,251,251,249,228,197,128,45],"timestamp_mouse":[9,31,42,63,82,102,123,143,162,182,202,222,242,262,283,302,322,342,364,384,402,422,444,464,483,503,523,544,563,582,602,622,643,663,682,702,722,743,763,783,802,822,843,864,883,903,922,943,962,982,1003,1023,1043,1062,1083,1102,1122,1142,1162,1184,1202,1223,1242,1263,1283,1302,1323,1343,1364,1382,1403,1423,1443,1462,1482,1502,1523,1543,1562,1583,1603,1622,1643,1662,1684,1703,1722,1743,1762,1782,1802,1823,1842,1862,1882,1902,1924,1943,1963,1982,2002,2022,2043,2063,2083,2103,2122,2142,2162,2183,2203,2222,2242,2264,2282,2303,2324,2342,2363,2383,2402,2422,2443,2463,2482,2504,2522,2543,2563,2582,2602,2623,2644,2662,2682,2702,2722,2743,2763,2784,2802,2823,2842,2863,2882,2902,2923,2943,2962,2983,3003,3024,3043,3063,3083,3103,3123,3142,3163,3183,3203,3223,3242,3262,3282,3302,3322,3343,3362,3383,3404,3423,3442,3462,3482,3503,3522,3542,3563,3584,3602,3623,3643,3663,3683,3702,3723,3742,3762,3783,3802,3822,3842,3863,3882,3903,3923,3943,3963,3983,4002,4024,4044,4063,4083,4103,4122,4143,4163,4183,4202,4222,4242,4262,4282,4302,4323,4344,4362,4382,4404,4422,4443,4463,4482,4503,4523,4543,4562,4582,4603,4624,4642,4663,4683,4702,4723,4742,4763,4782,4803,4824,4842,4862,4882,4904,4923,4943,4963,4983,5002,5023,5043,5062,5083,5102,5122,5143,5162,5184,5203,5222,5243,5263,5283,5303,5323,5343,5363,5382,5403,5422,5442,5462,5482,5502,5523,5542,5562,5583,5603,5622,5643,5662,5684,5703,5722,5742,5762,5782,5802,5822,5844,5862,5883,5903,5923,5942,5962,5983,6003,6023,6042,6062,6083,6102,6123,6142,6162,6182,6203,6222,6242,6262,6282,6303,6323,6344,6362,6383,6402,6423,6442,6462,6482,6503,6522,6542,6562,6584,6603,6622,6644,6662,6683,6703,6723,6742,6762,6783,6802,6824,6842,6862,6883,6903,6923,6942,6962,6982,7004,7022,7042,7063,7083,7102,7123,7143,7163,7182,7203,7222,7242,7262,7282,7303,7323,7343,7364,7382,7404,7422,7443,7462,7483,7503,7523,7542,7562,7583,7602,7622,7642,7662,7683,7703,7722,7743,7762,7782,7802,7822,7843,7862,7882,7902,7923,7942,7962,7982,8002,8023,8042,8062,8082,8102,8122,8142,8164,8182,8202,8223,8243,8262,8283,8303,8323,8343,8363,8382,8402,8422,8442,8462,8482,8502,8522,8542,8562,8583,8603,8622,8643,8663,8682,8702,8722,8742,8762,8783,8802,8822,8842,8863,8883,8902,8924,8943,8962,8982,9002,9022,9042,9062,9082,9102,9122,9143,9162,9183,9202,9222,9242,9262,9282,9302,9322,9343,9362,9382,9402,9423,9443,9463,9482,9502,9523,9542,9562,9583,9604,9623,9642,9662,9683,9703,9722,9742,9762,9783,9802,9822,9844,9862,9884,9903,9922,9942,9962,9983,10003,10022,10043,10062,10083,10104,10122,10142,10162,10183,10203,10222,10242,10262,10282,10302,10322,10343,10363,10382,10402,10422,10443,10462,10482,10502,10522,10544,10563,10583,10602,10622,10644,10662,10682,10703,10722,10743,10762,10782,10802,10823,10843,10862,10882,10902,10922,10942,10962,10983,11002,11023,11043,11062,11083,11102,11122,11142,11162,11183,11202,11222,11243,11262,11284,11302,11322,11343,11364,11383,11403,11424,11443,11462,11483,11502,11523,11544,11562,11583,11602,11622,11643,11663,11682,11703,11722,11742,11763,11784,11803,11824,11842,11862,11884,11903,11923,11942,11962,11983,12002,12023,12042,12063,12083,12102,12123,12142,12162,12182,12203,12222,12243,12263,12282,12302,12322,12342,12362,12382,12402,12423,12443,12462,12482,12502,12522,12542,12564,12583,12602,12623,12642,12662,12682,12703,12723,12742,12762,12783,12803,12823,12844,12862,12882,12903,12922,12943,12962,12982,13002,13022,13042,13063,13084,13102,13123,13142,13162,13182,13203,13222,13242,13262,13284,13302,13322,13342,13363,13383,13402,13423,13443,13463,13482,13502,13522,13542,13562,13583,13602,13622,13642,13662,13682,13703,13722,13744,13762,13783,13804,13823,13843,13863,13884,13903,13922,13944,13962,13983,14003,14022,14043,14063,14082,14103,14123,14143,14162,14183,14203,14222,14243,14263,14282,14302,14322,14343,14364,14382,14403,14423,14442,14463,14482,14502,14523,14542,14563,14583,14602,14622,14642,14664,14682,14702,14724,14743,14762,14783,14803,14822,14842,14862,14883,14902,14922,14943,14963,14984,15003,15022,15042,15064,15083,15104,15123,15142,15163,15184,15202,15223,15242,15262,15283,15304,15323,15342,15362,15383,15403,15423,15443,15462,15482,15503,15523,15543,15563,15583,15604,15623,15643,15663,15682,15702,15723,15742,15762,15783,15802,15823,15842,15863,15883,15903,15922,15943,15962,15982,16002,16022,16042,16062,16082,16102,16124,16143,16162,16183,16202,16222,16243,16263,16282,16302,16323,16343,16362,16382,16403,16422,16444,16462,16483,16504,16523,16542,16564,16583,16602,16623,16642,16663,16682,16702,16723,16742,16763,16783,16802,16823,16842,16863,16882,16903,16922,16942,16962,16982,17002,17022,17043,17062,17083,17102,17122,17142,17162,17183,17202,17223,17243,17263,17284,17302,17322,17342,17362,17382,17402,17422,17442,17462,17482,17502,17522,17542,17562,17583,17602,17623,17642,17663,17682,17704,17722,17742,17763,17782,17802,17822,17844,17862,17883,17904,17922,17944,17962,17983,18004,18022,18043,18064,18082,18103,18122,18142,18162,18183,18202,18224,18242,18263,18282,18302,18323,18342,18363,18383,18402,18422,18442,18462,18483,18502,18522,18542,18563,18583,18604,18623,18642,18662,18682,18702,18722,18742,18763,18782,18804,18823,18842,18863,18883,18903,18923,18942,18963,18983,19002,19022,19042,19063,19082,19104,19122,19142,19163,19184,19202,19222,19243,19262,19282,19302,19322,19342,19362,19382,19402,19423,19442,19462,19482,19502,19522,19543,19563,19582,19602,19623,19643,19662,19683,19704,19722,19744,19762,19783,19804,19822,19842,19862,19882,19902,19924,19942,19963,19983,20003,20023,20042,20063,20083,20102,20123,20143,20163,20184,20203,20223,20244,20264,20283,20302,20322,20344,20363,20383,20404,20422,20442,20464,20482,20503,20523,20544,20563,20582,20603,20622,20644,20662,20683,20702,20723,20742,20762,20783,20802,20824,20842,20862,20882,20902,20923,20942,20963,20984,21003,21022,21044,21063,21083,21102,21122,21142,21164,21182,21202,21223,21243,21262,21283,21302,21322,21343,21363,21383,21402,21422,21444,21462,21482,21504,21522,21543,21562,21583,21603,21623,21642,21663,21683,21703,21723,21742,21763,21784,21803,21823,21843,21862,21883,21902,21923,21943,21962,21982,22002,22024,22042,22063,22082,22102,22123,22144,22162,22183,22202,22223,22242,22262,22284,22302,22323,22343,22362,22382,22402,22424,22442,22462,22483,22502,22522,22542,22562,22583,22602,22622,22642,22662,22683,22704,22723,22744,22762,22782,22803,22824,22842,22862,22882,22903,22922,22943,22963,22982,23003,23022,23042,23062,23083,23104,23122,23143,23163,23182,23202,23222,23242,23262,23282,23303,23323,23343,23362,23382,23404,23423,23443,23462,23482,23504,23522,23542,23563,23583,23602,23622,23642,23662,23683,23702,23722,23743,23762,23783,23802,23822,23842,23863,23883,23903,23923,23943,23963,23983,24004,24023,24042,24063,24082,24102,24123,24142,24162,24182,24203,24223,24242,24263,24283,24303,24322,24344,24362,24382,24402,24423,24442,24463,24482,24503,24522,24543,24563,24582,24603,24623,24642,24662,24683,24703,24724,24743,24764,24783,24802,24823,24843,24863,24882,24903,24922,24942,24962,24984,25003,25022,25042,25062,25083,25102,25123,25143,25162,25182,25202,25222,25242,25263,25283,25302,25322,25342,25362,25382,25404,25423,25444,25462,25482,25504,25522,25542,25563,25583,25602,25622,25642,25663,25683,25703,25722,25744,25762,25782,25802,25822,25843,25863,25882,25902,25924,25942,25962,25982,26004,26022,26042,26062,26082,26103,26122,26143,26162,26183,26204,26224,26243,26262,26283,26303,26322,26342,26362,26382,26402,26423,26442,26462,26483,26502,26524,26542,26563,26583,26602,26624,26642,26663,26683,26702,26723,26742,26763,26783,26802,26822,26842,26862,26883,26903,26923,26942,26962,26984,27002,27022,27042,27062,27083,27102,27124,27142,27162,27182,27202,27222,27243,27262,27282,27302,27324,27343,27362,27382,27402,27424,27442,27462,27482,27503,27522,27542,27563,27582,27602,27623,27642,27663,27683,27702,27722,27744,27762,27782,27802,27822,27842,27862,27882,27902,27923,27943,27962,27982,28003,28022,28042,28062,28083,28102,28122,28143,28162,28183,28203,28222,28242,28263,28282,28303,28322,28343,28362,28382,28402,28422,28442,28463,28483,28502,28522,28543,28564,28582,28602,28622,28643,28662,28682,28703,28722,28742,28764,28783,28803,28822,28842,28862,28884,28903,28922,28943,28963,28982,29003,29023,29042,29062,29083,29104,29124,29143,29164,29182,29203,29223,29242,29263,29283,29303,29322,29343,29362,29383,29402,29424,29442,29462,29482,29503,29522,29542,29562,29583,29603,29622,29644,29663,29682,29702,29723,29742,29763,29784,29803,29823,29843,29864,29882,29902,29923,29944,29963,29982,30003,30023,30043,30063,30082,30103,30123,30142,30163,30182,30202,30222,30242,30262,30284,30303,30323,30342,30362,30384,30403,30423,30442,30462,30482,30503,30522,30542,30562,30582,30603,30623,30643,30662,30684,30702,30723,30742,30763,30783,30802,30823,30842,30863,30883,30903,30923,30943,30962,30982,31002,31022,31044,31062,31083,31103,31123,31142,31163,31183,31202,31223,31242,31263,31284,31303,31322,31343,31362,31382,31402,31422,31442,31462,31482,31504,31524,31542,31563,31582,31603,31624,31644,31664,31682,31703,31723,31743,31762,31783,31802,31823,31842,31863,31883,31903,31924,31942,31963,31982,32003,32022,32042,32062,32083,32104,32123,32143,32162,32183,32202,32223,32242,32262,32282,32302,32324,32343,32363,32382,32403,32423,32443,32463,32483,32503,32524,32543,32563,32582,32604,32623,32643,32662,32682,32702,32723,32743,32763,32782,32804,32822,32842,32863,32882,32902,32922,32943,32962,32983,33003,33022,33042,33062,33082,33102,33122,33142,33162,33183,33203,33223,33243,33262,33283,33302,33324,33343,33363,33382,33404,33423,33442,33462,33482,33503,33522,33542,33562,33582,33604,33623,33642,33663,33682,33704,33723,33742,33764,33782,33802,33824,33843,33862,33882,33903,33923,33942,33963,33982,34003,34023,34043,34063,34083,34103,34122,34142,34163,34183,34202,34222,34243,34263,34283,34302,34322,34342,34363,34382,34403,34423,34443,34462,34482,34502,34522,34543,34562,34583,34602,34623,34642,34663,34684,34703,34722,34742,34763,34782,34802,34823,34842,34863,34882,34902,34923,34943,34963,34982,35002,35023,35043,35062,35083,35102,35122,35143,35163,35183,35202,35222,35243,35262,35283,35302,35323,35342,35363,35383,35403,35423,35443,35462,35482,35503,35523,35544,35562,35583,35602,35623,35643,35662,35682,35702,35724,35744,35762,35783,35802,35823,35843,35862,35883,35902,35922,35942,35963,35982,36002,36023,36044,36063,36083,36104,36123,36143,36162,36182,36203,36222,36243,36262,36283,36302,36323,36342,36363,36384,36403,36423,36442,36462,36483,36502,36522,36542,36562,36583,36602,36623,36643,36662,36683,36703,36722,36743,36763,36784,36804,36822,36842,36862,36882,36902,36923,36943,36963,36982,37002,37022,37042,37062,37082,37102,37123,37143,37162,37183,37202,37223,37242,37263,37283,37302,37323,37343,37363,37382,37402,37423,37443,37463,37482,37504,37522,37542,37562,37582,37602,37622,37643,37663,37682,37702,37722,37743,37762,37782,37802,37822,37843,37863,37882,37902,37923,37942,37964,37982,38002,38023,38043,38063,38082,38103,38122,38142,38162,38183,38202,38222,38242,38263,38282,38302,38323,38343,38363,38383,38403,38423,38442,38463,38483,38503,38522,38542,38562,38583,38602,38623,38642,38664,38683,38703,38722,38743,38762,38782,38802,38823,38843,38862,38883,38902,38923,38942,38963,38983,39002,39023,39042,39062,39083,39102,39123,39142,39163,39184,39202,39222,39242,39262,39283,39302,39323,39343,39362,39383,39403,39424,39442,39462,39483,39502,39522,39543,39563,39582,39603,39623,39643,39664,39683,39703,39722,39743,39763,39783,39804,39822,39843,39862,39884,39902,39922,39942,39963,39984,40002,40022,40043,40063,40083,40102,40123,40143,40163,40183,40202,40223,40243,40262,40282,40302,40322,40343,40364,40382,40403,40422,40442,40462,40482,40503,40522,40542,40562,40582,40602,40623,40642,40663,40684,40702,40722,40742,40763,40783,40802,40822,40842,40864,40884,40904,40922,40942,40963,40984,41003,41022,41042,41062,41082,41102,41122,41143,41162,41183,41202,41222,41242,41262,41284,41303,41323,41343,41362,41383,41402,41423,41443,41462,41482,41503,41523,41542,41562,41582,41602,41624,41642,41662,41683,41702,41722,41742,41763,41782,41802,41822,41843,41864,41882,41903,41922,41942,41963,41983,42003,42022,42042,42062,42082,42102,42124,42143,42162,42183,42202,42223,42243,42263,42282,42302,42323,42344,42363,42383,42403,42422,42442,42462,42483,42502,42523,42542,42563,42583,42603,42623,42643,42663,42684,42703,42722,42743,42763,42783,42802,42822,42842,42862,42884,42903,42922,42942,42962,42984,43003,43023,43042,43062,43083,43103,43122,43142,43162,43182,43202,43223,43243,43262,43284,43303,43322,43343,43363,43383,43402,43423,43442,43462,43483,43502,43523,43543,43563,43582,43602,43622,43643,43663,43684,43703,43723,43742,43762,43784,43803,43823,43843,43863,43882,43902,43923,43942,43963,43982,44002,44022,44044,44062,44083,44102,44122,44142,44164,44184,44202,44222,44242,44262,44284,44303,44323,44342,44362,44384,44403,44422,44443,44462,44482,44503,44523,44542,44563,44583,44603,44623,44643,44664,44682,44702,44722,44743,44764,44782,44803,44822,44843,44862,44883,44904,44923,44942,44963,44984,45003,45022,45043,45062,45082,45103,45122,45144,45163,45182,45203,45222,45243,45264,45282,45303,45322,45343,45363,45383,45403,45424,45443,45463,45482,45502,45523,45543,45562,45582,45602,45622,45643,45662,45682,45703,45722,45743,45763,45783,45802,45823,45843,45862,45882,45903,45923,45943,45963,45982,46003,46023,46043,46062,46083,46103,46123,46142,46162,46182,46202,46223,46242,46262,46283,46302,46322,46343,46362,46383,46402,46423,46442,46462,46484,46502,46523,46543,46564,46583,46604,46622,46643,46662,46682,46702,46723,46742,46763,46783,46803,46823,46842,46862,46883,46902,46922,46942,46962,46982,47003,47024,47042,47063,47083,47103,47124,47144,47163,47183,47202,47223,47243,47262,47282,47303,47322,47343,47362,47383,47402,47423,47442,47463,47482,47502,47524,47542,47563,47582,47602,47622,47642,47663,47682,47703,47722,47744,47763,47783,47802,47823,47843,47862,47883,47902,47922,47944,47963,47983,48002,48022,48043,48062,48082,48103,48123,48143,48162,48183,48202,48223,48243,48262,48282,48302,48322,48343,48363,48382,48402,48422,48444,48463,48482,48503,48524,48543,48563,48582,48603,48623,48642,48662,48683,48702,48723,48743,48764,48783,48802,48822,48843,48863,48882,48902,48922,48943,48962,48982,49002,49024,49043,49063,49082,49102,49122,49143,49162,49184,49202,49222,49242,49264,49283,49302,49322,49342,49363,49382,49402,49422,49443,49463,49482,49502,49522,49542,49562,49582,49603,49623,49643,49662,49682,49702,49722,49744,49763,49782,49802,49822,49843,49862,49882,49903,49922,49943,49962,49983,50003,50023,50042,50062,50082,50102,50123,50143,50162,50182,50202,50222,50242,50263,50284,50302,50323,50342,50362,50382,50402,50423,50442,50462,50482,50503,50523,50543,50563,50584,50603,50622,50642,50662,50683,50702,50722,50744,50762,50782,50802,50823,50842,50862,50883,50903,50924,50942,50962,50982,51002,51022,51042,51063,51084,51102,51122,51142,51163,51182,51202,51223,51242,51264,51283,51303,51323,51344,51363,51383,51402,51422,51443,51464,51483,51502,51523,51542,51563,51582,51602,51622,51642,51662,51682,51702,51722,51742,51762,51784,51803,51822,51843,51862,51882,51903,51922,51942,51962,51982,52002,52022,52042,52062,52082,52103,52122,52142,52162,52182,52203,52222,52243,52263,52283,52302,52323,52342,52362,52384,52403,52422,52443,52463,52483,52503,52522,52542,52562,52582,52602,52622,52642,52662,52683,52702,52722,52744,52763,52782,52802,52822,52843,52862,52882,52903,52922,52942,52962],"xSR":741.5,"ySR":573.95,"xT1":424.9,"yT1":0,"xT2":1058.1,"yT2":0,"toosoon":0,"cond_shown":"Congruent","ratio_trial":300,"L_num":3,"L_den":6,"R_num":2,"R_den":10,"correct_side":1,"subjID":"gabrielaisabelhincapiecaro9","gender":"1","school":"6","age":"11 "},{"start_time":1551900105326,"click_time":1551900106182,"finger_time":1551900105883,"fix_duration":921.1503209349657,"trial":24,"RT":557,"MT":299,"sideResp":2,"stimulus":[],"xmouse":[792,792,792,792,792,792,792,792,792,792,792,792,792,792,792,792,792,792,792,792,792,792,792,792,792,794,802,814,839,853,867,885,893,902,910,923,952,966,980,1004,1024,1053,1067],"ymouse":[605,605,605,605,605,605,605,605,605,605,605,605,605,605,605,605,605,605,605,605,605,605,605,605,605,600,583,565,532,515,499,465,448,428,407,384,333,304,269,211,168,79,33],"timestamp_mouse":[17,36,56,77,97,118,137,157,176,198,216,236,256,278,297,316,337,358,377,397,417,437,456,476,496,517,536,557,576,597,616,636,656,677,696,717,736,757,777,797,816,837,856],"xSR":741.5,"ySR":573.95,"xT1":424.9,"yT1":0,"xT2":1058.1,"yT2":0,"toosoon":0,"cond_shown":"Incongruent","ratio_trial":200,"L_num":3,"L_den":10,"R_num":1,"R_den":2,"correct_side":2,"subjID":"gabrielaisabelhincapiecaro9","gender":"1","school":"6","age":"11 "},{"start_time":1551900108658,"click_time":1551900109282,"finger_time":1551900109182,"fix_duration":1353.2431001836392,"trial":25,"RT":524,"MT":100,"sideResp":2,"stimulus":[],"xmouse":[764,764,764,764,764,764,765,768,769,772,773,774,775,776,776,777,777,777,777,777,777,777,777,777,778,782,794,839,859,917,1042,1083],"ymouse":[614,614,614,614,614,614,614,614,613,610,609,609,607,606,606,606,606,606,606,606,606,606,606,606,605,588,546,430,393,302,122,56],"timestamp_mouse":[14,31,45,66,85,106,124,145,164,186,204,225,245,264,284,304,324,344,364,385,404,424,444,465,485,505,524,544,566,585,604,624],"xSR":741.5,"ySR":573.95,"xT1":424.9,"yT1":0,"xT2":1058.1,"yT2":0,"toosoon":0,"cond_shown":"Congruent","ratio_trial":100,"L_num":8,"L_den":16,"R_num":2,"R_den":5,"correct_side":1,"subjID":"gabrielaisabelhincapiecaro9","gender":"1","school":"6","age":"11 "},{"start_time":1551900111175,"click_time":1551900113044,"finger_time":1551900111622,"fix_duration":250,"trial":26,"RT":447,"MT":1422,"sideResp":2,"stimulus":[],"xmouse":[782,782,782,782,782,782,782,782,782,782,782,782,782,782,782,782,782,782,782,782,778,775,766,760,751,747,746,738,723,682,665,658,656,656,656,656,656,650,644,617,604,598,595,595,595,595,595,595,595,622,643,679,734,788,859,882,911,929,973,996,1011,1016,1018,1018,1018,1018,1018,1018,1018,1018,1018,1022,1028,1036,1045,1047,1048,1049,1051,1052,1052,1052,1052,1052,1052,1052,1052,1054,1054,1054,1054,1055,1057,1063],"ymouse":[604,604,604,604,604,604,604,604,604,604,604,604,604,604,604,604,604,604,604,604,591,580,557,534,481,453,425,362,301,199,169,159,155,155,155,155,154,152,149,138,135,134,133,133,133,133,133,133,133,139,144,153,161,167,166,159,151,144,134,129,126,125,125,125,125,125,125,125,125,125,124,117,108,97,83,79,78,76,74,72,72,72,72,72,71,71,71,69,69,69,69,69,69,69],"timestamp_mouse":[9,40,48,69,88,108,128,147,167,187,209,228,248,268,287,307,327,347,368,387,408,427,447,468,487,507,527,548,568,588,608,627,648,667,687,707,728,749,767,787,808,828,847,868,888,907,927,948,968,987,1007,1027,1048,1068,1087,1108,1127,1148,1169,1187,1207,1228,1247,1268,1287,1307,1327,1348,1368,1387,1407,1428,1448,1468,1487,1507,1527,1548,1567,1587,1607,1628,1647,1668,1688,1707,1727,1748,1767,1788,1807,1827,1847,1869],"xSR":741.5,"ySR":573.95,"xT1":424.9,"yT1":0,"xT2":1058.1,"yT2":0,"toosoon":0,"cond_shown":"Congruent","ratio_trial":300,"L_num":1,"L_den":30,"R_num":8,"R_den":24,"correct_side":2,"subjID":"gabrielaisabelhincapiecaro9","gender":"1","school":"6","age":"11 "},{"start_time":1551900121769,"click_time":1551900122403,"finger_time":1551900122062,"fix_duration":825.1194457302724,"trial":27,"RT":293,"MT":341,"sideResp":1,"stimulus":[],"xmouse":[806,806,806,806,806,806,806,806,806,805,803,801,797,794,785,779,766,731,712,690,684,680,674,672,670,667,662,645,624,559,530,508],"ymouse":[580,580,580,580,580,580,580,580,580,580,580,580,578,577,567,557,528,446,403,349,331,322,313,308,300,290,273,233,196,112,77,52],"timestamp_mouse":[13,34,53,75,93,114,133,154,173,194,213,234,254,274,293,313,334,353,373,394,414,433,454,473,493,513,534,554,574,594,613,634],"xSR":741.5,"ySR":573.95,"xT1":424.9,"yT1":0,"xT2":1058.1,"yT2":0,"toosoon":0,"cond_shown":"Incongruent","ratio_trial":300,"L_num":13,"L_den":26,"R_num":12,"R_den":15,"correct_side":2,"subjID":"gabrielaisabelhincapiecaro9","gender":"1","school":"6","age":"11 "},{"start_time":1551900124985,"click_time":1551900126462,"finger_time":1551900125444,"fix_duration":1462.671291814479,"trial":28,"RT":459,"MT":1018,"sideResp":2,"stimulus":[],"xmouse":[797,797,797,797,797,797,797,797,797,797,797,797,797,797,797,797,797,797,797,797,797,806,851,901,992,1187,1308,1408,1512,1519,1519,1519,1519,1515,1513,1513,1513,1513,1513,1511,1503,1489,1470,1423,1400,1384,1376,1375,1375,1375,1375,1375,1375,1375,1374,1354,1314,1233,1008,952,947,946,946,946,946,946,947,949,968,980,994,1009,1025,1062],"ymouse":[616,616,616,616,616,616,616,616,616,616,616,616,616,616,616,616,616,616,616,616,616,607,568,509,402,175,0,0,0,0,0,0,0,6,10,10,10,10,10,11,11,13,16,23,27,29,30,31,31,31,31,31,31,31,31,34,39,50,82,95,97,97,97,97,97,97,97,97,98,98,98,98,98,98],"timestamp_mouse":[17,42,59,77,97,118,137,157,178,197,217,239,258,277,297,317,337,358,377,397,417,437,459,477,497,517,537,558,578,599,618,637,658,677,697,719,738,757,777,797,817,838,857,877,897,917,938,958,977,998,1017,1037,1057,1079,1097,1117,1137,1158,1178,1197,1217,1239,1258,1277,1297,1317,1337,1358,1377,1398,1417,1437,1458,1477],"xSR":741.5,"ySR":573.95,"xT1":424.9,"yT1":0,"xT2":1058.1,"yT2":0,"toosoon":0,"cond_shown":"Incongruent","ratio_trial":100,"L_num":11,"L_den":22,"R_num":9,"R_den":15,"correct_side":2,"subjID":"gabrielaisabelhincapiecaro9","gender":"1","school":"6","age":"11 "},{"start_time":1551900129128,"click_time":1551900130042,"finger_time":1551900129462,"fix_duration":1424.1997942238054,"trial":29,"RT":334,"MT":580,"sideResp":2,"stimulus":[],"xmouse":[792,792,792,792,792,792,792,792,792,792,792,792,792,793,796,804,820,830,841,845,857,875,885,894,902,913,919,929,945,954,974,987,1001,1016,1030,1040,1050,1050,1050,1050,1050,1058,1062,1071,1076,1081],"ymouse":[602,602,602,602,602,602,602,602,602,602,602,602,602,602,596,584,555,539,519,510,484,443,420,399,381,354,337,315,277,254,212,192,173,156,143,134,127,127,127,127,127,122,117,110,105,96],"timestamp_mouse":[15,34,54,76,95,115,135,155,175,194,214,234,254,274,295,314,334,355,374,394,414,435,454,476,495,516,535,554,574,595,616,635,654,675,695,715,735,754,775,795,814,835,854,874,894,914],"xSR":741.5,"ySR":573.95,"xT1":424.9,"yT1":0,"xT2":1058.1,"yT2":0,"toosoon":0,"cond_shown":"Congruent","ratio_trial":300,"L_num":3,"L_den":6,"R_num":4,"R_den":5,"correct_side":2,"subjID":"gabrielaisabelhincapiecaro9","gender":"1","school":"6","age":"11 "},{"start_time":1551900169079,"click_time":1551900169762,"finger_time":1551900169422,"fix_duration":1476.9852133838776,"trial":30,"RT":343,"MT":340,"sideResp":2,"stimulus":[],"xmouse":[778,778,778,778,778,778,778,778,778,778,778,778,778,778,781,793,810,840,876,957,983,997,1003,1003,1003,1003,1006,1008,1012,1013,1014,1016,1025,1045,1064],"ymouse":[647,647,647,647,647,647,647,647,647,647,647,647,647,647,643,622,591,538,472,316,247,200,164,155,155,153,147,141,124,119,114,109,99,79,51],"timestamp_mouse":[12,38,43,63,83,103,123,143,164,183,203,222,244,263,283,303,324,343,363,383,403,423,443,465,483,503,523,543,564,583,603,623,643,663,683],"xSR":741.5,"ySR":573.95,"xT1":424.9,"yT1":0,"xT2":1058.1,"yT2":0,"toosoon":0,"cond_shown":"Incongruent","ratio_trial":100,"L_num":9,"L_den":18,"R_num":6,"R_den":10,"correct_side":2,"subjID":"gabrielaisabelhincapiecaro9","gender":"1","school":"6","age":"11 "},{"start_time":1551900180526,"click_time":1551900181682,"finger_time":1551900181261,"fix_duration":263.3218843220535,"trial":31,"RT":735,"MT":421,"sideResp":2,"stimulus":[],"xmouse":[796,796,796,796,796,796,796,796,796,796,796,796,796,796,796,796,796,796,796,796,796,796,796,796,796,796,796,796,796,796,796,796,796,796,796,800,835,875,912,946,963,964,966,970