[{"start_time":1551901771415,"click_time":1551901772251,"finger_time":1551901772151,"fix_duration":1218.9419919609484,"trial":0,"RT":736,"MT":100,"sideResp":2,"stimulus":"img/500/equaldotsize/R/9_Ratio_500_L_2_R_4.png","xmouse":[817,817,817,817,817,817,817,817,817,817,817,817,817,817,817,817,817,817,817,817,817,817,817,817,817,817,817,817,817,817,817,817,817,816,816,818,822,839,863,906,962,1032,1137],"ymouse":[511,511,511,511,511,511,511,511,511,511,511,511,511,511,511,511,511,511,511,511,511,511,511,511,511,511,511,511,511,511,511,511,511,511,504,490,473,427,378,316,246,175,74],"timestamp_mouse":[1,16,45,57,77,96,116,136,156,176,196,217,236,256,277,297,317,337,356,376,397,417,436,457,476,496,516,536,558,576,596,616,636,657,676,696,716,736,756,776,796,816,836],"xSR":741.5,"ySR":458.25,"xT1":424.9,"yT1":0,"xT2":1058.1,"yT2":0,"toosoon":0,"cond_shown":"equaldotsize","ratio_trial":500,"smaller_num":"2","larger_num":"4","correct_side":2,"subjID":"GabrielaHincapie9","gender":"1","age":"11","school":"6","test":{"fix_dur":[250,1500],"timestim":300,"targets_dim":[100,100],"targets_relative_coord":[0.3,0.7],"size_stim":[880,420],"start_dim":[100,100],"size_start":[300,300],"size_fix":60,"samplingrate":20,"img_types":["equaldotsize","equaldotanddens","randomdotsizeEA"],"ratios":[250,500,750,900],"rep_conds":9,"nTrials":120,"trials_to_rest":500,"Trials_order":[111,108,30,42,31,67,66,20,72,101,113,79,23,54,29,27,71,26,56,28,62,55,39,88,7,60,59,84,33,77,51,1,11,3,34,49,104,16,112,57,70,18,44,35,105,38,98,78,119,8,91,115,45,2,14,69,12,37,15,6,24,103,93,85,22,110,89,9,48,0,25,46,97,99,41,80,74,118,109,94,95,32,64,100,43,13,61,58,36,63,92,96,21,50,116,87,40,81,107,5,114,75,65,102,83,4,68,10,47,106,90,76,86,19,117,53,82,17,73,52],"cond_shown":["equaldotsize","equaldotsize","equaldotsize","equaldotsize","equaldotanddens","equaldotanddens","equaldotsize","randomdotsizeEA","equaldotsize","randomdotsizeEA","randomdotsizeEA","equaldotanddens","randomdotsizeEA","equaldotsize","randomdotsizeEA","equaldotsize","randomdotsizeEA","randomdotsizeEA","randomdotsizeEA","equaldotanddens","randomdotsizeEA","equaldotanddens","equaldotsize","equaldotanddens","equaldotanddens","equaldotsize","randomdotsizeEA","equaldotsize","equaldotsize","randomdotsizeEA","equaldotsize","equaldotanddens","randomdotsizeEA","equaldotsize","equaldotanddens","equaldotanddens","randomdotsizeEA","equaldotanddens","equaldotanddens","equaldotsize","equaldotanddens","equaldotsize","randomdotsizeEA","randomdotsizeEA","equaldotsize","randomdotsizeEA","randomdotsizeEA","equaldotsize","randomdotsizeEA","randomdotsizeEA","equaldotanddens","equaldotanddens","equaldotsize","randomdotsizeEA","randomdotsizeEA","equaldotsize","equaldotsize","equaldotanddens","equaldotsize","equaldotsize","equaldotsize","equaldotanddens","equaldotsize","equaldotanddens","equaldotanddens","randomdotsizeEA","randomdotsizeEA","equaldotsize","equaldotsize","equaldotsize","equaldotanddens","equaldotanddens","equaldotanddens","equaldotsize","randomdotsizeEA","randomdotsizeEA","randomdotsizeEA","equaldotanddens","equaldotanddens","equaldotanddens","randomdotsizeEA","randomdotsizeEA","equaldotanddens","equaldotanddens","equaldotanddens","equaldotanddens","equaldotanddens","equaldotanddens","equaldotsize","equaldotsize","randomdotsizeEA","equaldotsize","equaldotsize","randomdotsizeEA","randomdotsizeEA","equaldotsize","equaldotanddens","equaldotsize","randomdotsizeEA","randomdotsizeEA","equaldotsize","equaldotsize","randomdotsizeEA","equaldotsize","randomdotsizeEA","equaldotanddens","randomdotsizeEA","equaldotanddens","randomdotsizeEA","equaldotanddens","equaldotsize","equaldotanddens","randomdotsizeEA","equaldotanddens","equaldotsize","randomdotsizeEA","equaldotanddens","randomdotsizeEA","equaldotanddens","equaldotanddens"],"ratio_trial":[500,250,750,750,750,750,750,750,250,500,500,750,900,750,500,500,900,250,750,500,250,750,500,500,750,250,900,250,900,500,500,250,900,500,900,250,750,500,500,900,900,750,750,900,900,250,250,750,900,750,750,750,900,250,250,900,250,250,500,750,250,750,900,250,900,250,500,900,250,250,250,900,250,500,500,750,250,900,250,900,900,750,500,500,750,250,250,900,250,500,750,250,900,250,750,500,500,900,900,500,750,500,500,750,900,500,750,900,900,900,750,500,250,750,900,500,900,500,250,500],"smaller_num":["2","4","3","6","3","6","6","3","3","2","9","3","18","15","3","1","9","3","15","6","4","9","5","2","3","5","18","1","18","10","2","3","18","9","18","6","3","6","2","18","9","6","3","18","18","3","3","18","18","6","9","15","18","6","2","18","3","3","9","15","1","6","18","6","18","6","3","18","3","2","2","18","5","9","10","6","3","18","1","18","18","15","10","5","3","2","3","9","6","3","15","2","18","2","15","6","6","18","18","6","6","6","10","3","18","2","6","18","18","18","3","2","5","6","18","4","18","9","2","6"],"larger_num":["4","16","4","8","4","8","8","4","12","4","18","4","20","20","6","2","10","12","20","12","16","12","10","4","4","20","20","4","20","20","4","12","20","18","20","24","4","12","4","20","10","8","4","20","20","12","12","24","20","8","12","20","20","24","8","20","12","12","18","20","4","8","20","24","20","24","6","20","12","8","8","20","20","18","20","8","12","20","4","20","20","20","20","10","4","8","12","10","24","6","20","8","20","8","20","12","12","20","20","12","8","12","20","4","20","4","8","20","20","20","4","4","20","8","20","8","20","18","8","12"],"correct_side":[2,2,1,1,2,1,1,1,2,2,2,2,1,1,2,2,1,2,2,1,2,2,2,1,1,2,1,2,1,2,1,2,1,2,2,1,1,1,1,2,1,2,1,1,1,2,1,1,1,1,2,1,1,1,1,1,2,2,2,1,2,1,1,2,1,2,2,2,2,1,2,2,2,2,2,2,1,1,2,1,1,2,2,1,1,2,2,1,2,2,1,1,2,2,2,1,1,1,2,1,1,1,2,1,1,1,1,2,1,1,2,1,2,2,1,1,1,1,2,1],"img_shown":["img/500/equaldotsize/R/9_Ratio_500_L_2_R_4.png","img/250/equaldotsize/R/10_Ratio_250_L_4_R_16.png","img/750/equaldotsize/L/8_Ratio_750_L_4_R_3.png","img/750/equaldotsize/L/13_Ratio_750_L_8_R_6.png","img/750/equaldotanddens/R/12_Ratio_750_L_3_R_4.png","img/750/equaldotanddens/L/13_Ratio_750_L_8_R_6.png","img/750/equaldotsize/L/14_Ratio_750_L_8_R_6.png","img/750/randomdotsizeEA/L/10_Ratio_750_L_4_R_3.png","img/250/equaldotsize/R/11_Ratio_250_L_3_R_12.png","img/500/randomdotsizeEA/R/9_Ratio_500_L_2_R_4.png","img/500/randomdotsizeEA/R/1_Ratio_500_L_9_R_18.png","img/750/equaldotanddens/R/7_Ratio_750_L_3_R_4.png","img/900/randomdotsizeEA/L/8_Ratio_900_L_20_R_18.png","img/750/equaldotsize/L/1_Ratio_750_L_20_R_15.png","img/500/randomdotsizeEA/R/2_Ratio_500_L_3_R_6.png","img/500/equaldotsize/R/12_Ratio_500_L_1_R_2.png","img/900/randomdotsizeEA/L/1_Ratio_900_L_10_R_9.png","img/250/randomdotsizeEA/R/11_Ratio_250_L_3_R_12.png","img/750/randomdotsizeEA/R/5_Ratio_750_L_15_R_20.png","img/500/equaldotanddens/L/11_Ratio_500_L_12_R_6.png","img/250/randomdotsizeEA/R/10_Ratio_250_L_4_R_16.png","img/750/equaldotanddens/R/15_Ratio_750_L_9_R_12.png","img/500/equaldotsize/R/14_Ratio_500_L_5_R_10.png","img/500/equaldotanddens/L/5_Ratio_500_L_4_R_2.png","img/750/equaldotanddens/L/8_Ratio_750_L_4_R_3.png","img/250/equaldotsize/R/12_Ratio_250_L_5_R_20.png","img/900/randomdotsizeEA/L/2_Ratio_900_L_20_R_18.png","img/250/equaldotsize/R/8_Ratio_250_L_1_R_4.png","img/900/equaldotsize/L/10_Ratio_900_L_20_R_18.png","img/500/randomdotsizeEA/R/3_Ratio_500_L_10_R_20.png","img/500/equaldotsize/L/10_Ratio_500_L_4_R_2.png","img/250/equaldotanddens/R/4_Ratio_250_L_3_R_12.png","img/900/randomdotsizeEA/L/10_Ratio_900_L_20_R_18.png","img/500/equaldotsize/R/1_Ratio_500_L_9_R_18.png","img/900/equaldotanddens/R/14_Ratio_900_L_18_R_20.png","img/250/equaldotanddens/L/5_Ratio_250_L_24_R_6.png","img/750/randomdotsizeEA/L/10_Ratio_750_L_4_R_3.png","img/500/equaldotanddens/L/11_Ratio_500_L_12_R_6.png","img/500/equaldotanddens/L/5_Ratio_500_L_4_R_2.png","img/900/equaldotsize/R/11_Ratio_900_L_18_R_20.png","img/900/equaldotanddens/L/1_Ratio_900_L_10_R_9.png","img/750/equaldotsize/R/2_Ratio_750_L_6_R_8.png","img/750/randomdotsizeEA/L/8_Ratio_750_L_4_R_3.png","img/900/randomdotsizeEA/L/8_Ratio_900_L_20_R_18.png","img/900/equaldotsize/L/8_Ratio_900_L_20_R_18.png","img/250/randomdotsizeEA/R/11_Ratio_250_L_3_R_12.png","img/250/randomdotsizeEA/L/14_Ratio_250_L_12_R_3.png","img/750/equaldotsize/L/6_Ratio_750_L_24_R_18.png","img/900/randomdotsizeEA/L/10_Ratio_900_L_20_R_18.png","img/750/randomdotsizeEA/L/14_Ratio_750_L_8_R_6.png","img/750/equaldotanddens/R/15_Ratio_750_L_9_R_12.png","img/750/equaldotanddens/L/1_Ratio_750_L_20_R_15.png","img/900/equaldotsize/L/10_Ratio_900_L_20_R_18.png","img/250/randomdotsizeEA/L/5_Ratio_250_L_24_R_6.png","img/250/randomdotsizeEA/L/3_Ratio_250_L_8_R_2.png","img/900/equaldotsize/L/2_Ratio_900_L_20_R_18.png","img/250/equaldotsize/R/11_Ratio_250_L_3_R_12.png","img/250/equaldotanddens/R/4_Ratio_250_L_3_R_12.png","img/500/equaldotsize/R/6_Ratio_500_L_9_R_18.png","img/750/equaldotsize/L/1_Ratio_750_L_20_R_15.png","img/250/equaldotsize/R/8_Ratio_250_L_1_R_4.png","img/750/equaldotanddens/L/14_Ratio_750_L_8_R_6.png","img/900/equaldotsize/L/4_Ratio_900_L_20_R_18.png","img/250/equaldotanddens/R/6_Ratio_250_L_6_R_24.png","img/900/equaldotanddens/L/8_Ratio_900_L_20_R_18.png","img/250/randomdotsizeEA/R/6_Ratio_250_L_6_R_24.png","img/500/randomdotsizeEA/R/2_Ratio_500_L_3_R_6.png","img/900/equaldotsize/R/14_Ratio_900_L_18_R_20.png","img/250/equaldotsize/R/4_Ratio_250_L_3_R_12.png","img/250/equaldotsize/L/1_Ratio_250_L_8_R_2.png","img/250/equaldotanddens/R/13_Ratio_250_L_2_R_8.png","img/900/equaldotanddens/R/12_Ratio_900_L_18_R_20.png","img/250/equaldotanddens/R/12_Ratio_250_L_5_R_20.png","img/500/equaldotsize/R/1_Ratio_500_L_9_R_18.png","img/500/randomdotsizeEA/R/3_Ratio_500_L_10_R_20.png","img/750/randomdotsizeEA/R/2_Ratio_750_L_6_R_8.png","img/250/randomdotsizeEA/L/15_Ratio_250_L_12_R_3.png","img/900/equaldotanddens/L/2_Ratio_900_L_20_R_18.png","img/250/equaldotanddens/R/8_Ratio_250_L_1_R_4.png","img/900/equaldotanddens/L/2_Ratio_900_L_20_R_18.png","img/900/randomdotsizeEA/L/10_Ratio_900_L_20_R_18.png","img/750/randomdotsizeEA/R/4_Ratio_750_L_15_R_20.png","img/500/equaldotanddens/R/3_Ratio_500_L_10_R_20.png","img/500/equaldotanddens/L/7_Ratio_500_L_10_R_5.png","img/750/equaldotanddens/L/9_Ratio_750_L_4_R_3.png","img/250/equaldotanddens/R/13_Ratio_250_L_2_R_8.png","img/250/equaldotanddens/R/11_Ratio_250_L_3_R_12.png","img/900/equaldotanddens/L/1_Ratio_900_L_10_R_9.png","img/250/equaldotsize/R/6_Ratio_250_L_6_R_24.png","img/500/equaldotsize/R/2_Ratio_500_L_3_R_6.png","img/750/randomdotsizeEA/L/1_Ratio_750_L_20_R_15.png","img/250/equaldotsize/L/1_Ratio_250_L_8_R_2.png","img/900/equaldotsize/R/14_Ratio_900_L_18_R_20.png","img/250/randomdotsizeEA/R/13_Ratio_250_L_2_R_8.png","img/750/randomdotsizeEA/R/3_Ratio_750_L_15_R_20.png","img/500/equaldotsize/L/13_Ratio_500_L_12_R_6.png","img/500/equaldotanddens/L/11_Ratio_500_L_12_R_6.png","img/900/equaldotsize/L/4_Ratio_900_L_20_R_18.png","img/900/randomdotsizeEA/R/13_Ratio_900_L_18_R_20.png","img/500/randomdotsizeEA/L/13_Ratio_500_L_12_R_6.png","img/750/equaldotsize/L/13_Ratio_750_L_8_R_6.png","img/500/equaldotsize/L/11_Ratio_500_L_12_R_6.png","img/500/randomdotsizeEA/R/3_Ratio_500_L_10_R_20.png","img/750/equaldotsize/L/10_Ratio_750_L_4_R_3.png","img/900/randomdotsizeEA/L/10_Ratio_900_L_20_R_18.png","img/500/equaldotanddens/L/5_Ratio_500_L_4_R_2.png","img/750/randomdotsizeEA/L/13_Ratio_750_L_8_R_6.png","img/900/equaldotanddens/R/13_Ratio_900_L_18_R_20.png","img/900/randomdotsizeEA/L/10_Ratio_900_L_20_R_18.png","img/900/equaldotanddens/L/10_Ratio_900_L_20_R_18.png","img/750/equaldotsize/R/7_Ratio_750_L_3_R_4.png","img/500/equaldotanddens/L/10_Ratio_500_L_4_R_2.png","img/250/randomdotsizeEA/R/12_Ratio_250_L_5_R_20.png","img/750/equaldotanddens/R/2_Ratio_750_L_6_R_8.png","img/900/equaldotsize/L/2_Ratio_900_L_20_R_18.png","img/500/randomdotsizeEA/L/8_Ratio_500_L_8_R_4.png","img/900/equaldotanddens/L/10_Ratio_900_L_20_R_18.png","img/500/randomdotsizeEA/L/4_Ratio_500_L_18_R_9.png","img/250/equaldotanddens/R/13_Ratio_250_L_2_R_8.png","img/500/equaldotanddens/L/13_Ratio_500_L_12_R_6.png"],"Rat0":[["12_Ratio_0_L_9_R_0.png","13_Ratio_0_L_6_R_0.png","5_Ratio_0_L_2_R_0.png","6_Ratio_0_L_4_R_0.png","8_Ratio_0_L_6_R_0.png"],["1_Ratio_0_L_0_R_17.png","10_Ratio_0_L_0_R_22.png","11_Ratio_0_L_0_R_1.png","14_Ratio_0_L_0_R_24.png","15_Ratio_0_L_0_R_4.png","2_Ratio_0_L_0_R_5.png","3_Ratio_0_L_0_R_17.png","4_Ratio_0_L_0_R_7.png","7_Ratio_0_L_0_R_19.png","9_Ratio_0_L_0_R_15.png"]],"Rat250":[["1_Ratio_250_L_8_R_2.png","14_Ratio_250_L_12_R_3.png","15_Ratio_250_L_12_R_3.png","2_Ratio_250_L_16_R_4.png","3_Ratio_250_L_8_R_2.png","5_Ratio_250_L_24_R_6.png","7_Ratio_250_L_8_R_2.png"],["10_Ratio_250_L_4_R_16.png","11_Ratio_250_L_3_R_12.png","12_Ratio_250_L_5_R_20.png","13_Ratio_250_L_2_R_8.png","4_Ratio_250_L_3_R_12.png","6_Ratio_250_L_6_R_24.png","8_Ratio_250_L_1_R_4.png","9_Ratio_250_L_3_R_12.png"]],"Rat500":[["10_Ratio_500_L_4_R_2.png","11_Ratio_500_L_12_R_6.png","13_Ratio_500_L_12_R_6.png","4_Ratio_500_L_18_R_9.png","5_Ratio_500_L_4_R_2.png","7_Ratio_500_L_10_R_5.png","8_Ratio_500_L_8_R_4.png"],["1_Ratio_500_L_9_R_18.png","12_Ratio_500_L_1_R_2.png","14_Ratio_500_L_5_R_10.png","15_Ratio_500_L_1_R_2.png","2_Ratio_500_L_3_R_6.png","3_Ratio_500_L_10_R_20.png","6_Ratio_500_L_9_R_18.png","9_Ratio_500_L_2_R_4.png"]],"Rat750":[["1_Ratio_750_L_20_R_15.png","10_Ratio_750_L_4_R_3.png","13_Ratio_750_L_8_R_6.png","14_Ratio_750_L_8_R_6.png","6_Ratio_750_L_24_R_18.png","8_Ratio_750_L_4_R_3.png","9_Ratio_750_L_4_R_3.png"],["11_Ratio_750_L_12_R_16.png","12_Ratio_750_L_3_R_4.png","15_Ratio_750_L_9_R_12.png","2_Ratio_750_L_6_R_8.png","3_Ratio_750_L_15_R_20.png","4_Ratio_750_L_15_R_20.png","5_Ratio_750_L_15_R_20.png","7_Ratio_750_L_3_R_4.png"]],"Rat900":[["1_Ratio_900_L_10_R_9.png","10_Ratio_900_L_20_R_18.png","2_Ratio_900_L_20_R_18.png","4_Ratio_900_L_20_R_18.png","8_Ratio_900_L_20_R_18.png"],["11_Ratio_900_L_18_R_20.png","12_Ratio_900_L_18_R_20.png","13_Ratio_900_L_18_R_20.png","14_Ratio_900_L_18_R_20.png","15_Ratio_900_L_9_R_10.png","3_Ratio_900_L_9_R_10.png","5_Ratio_900_L_9_R_10.png","6_Ratio_900_L_9_R_10.png","7_Ratio_900_L_9_R_10.png","9_Ratio_900_L_18_R_20.png"]],"Rat1000":[["10_Ratio_1000_L_16_R_16.png","11_Ratio_1000_L_6_R_6.png","12_Ratio_1000_L_14_R_14.png","13_Ratio_1000_L_20_R_20.png","15_Ratio_1000_L_15_R_15.png","2_Ratio_1000_L_17_R_17.png","4_Ratio_1000_L_9_R_9.png","5_Ratio_1000_L_6_R_6.png","6_Ratio_1000_L_19_R_19.png","8_Ratio_1000_L_14_R_14.png","9_Ratio_1000_L_25_R_25.png"],["1_Ratio_1000_L_1_R_1.png","14_Ratio_1000_L_17_R_17.png","3_Ratio_1000_L_17_R_17.png","7_Ratio_1000_L_6_R_6.png"]]}},{"start_time":1551901774776,"click_time":1551901776572,"finger_time":1551901775391,"fix_duration":1223.2871002551706,"trial":1,"RT":615,"MT":1181,"sideResp":2,"stimulus":"img/250/equaldotsize/R/10_Ratio_250_L_4_R_16.png","xmouse":[765,765,765,765,765,765,765,765,765,765,765,765,765,765,765,765,765,765,765,765,765,765,765,765,765,765,765,765,767,774,785,801,821,870,889,906,920,930,946,956,969,981,991,1008,1012,1014,1015,1015,1015,1015,1015,1015,1015,1019,1023,1026,1027,1028,1031,1033,1036,1039,1042,1043,1043,1043,1043,1044,1045,1045,1046,1046,1047,1049,1050,1050,1050,1050,1052,1052,1053,1053,1054,1055,1055,1056,1057,1057,1057,1059],"ymouse":[472,472,472,472,472,472,472,472,472,472,472,472,472,472,472,472,472,472,472,472,472,472,472,472,472,472,472,472,472,462,443,419,391,311,277,246,220,199,161,139,116,91,67,28,21,18,18,18,18,18,18,17,17,22,25,27,28,29,31,32,33,35,36,37,39,39,39,39,39,39,39,40,40,40,40,40,40,40,40,40,40,40,40,40,40,40,40,40,40,42],"timestamp_mouse":[15,37,55,75,95,115,135,155,175,196,215,236,256,275,295,316,335,355,375,396,415,436,456,476,495,516,537,555,575,595,615,636,656,675,695,715,735,755,775,795,815,835,856,875,895,915,935,955,975,996,1015,1035,1055,1075,1096,1115,1135,1155,1175,1195,1215,1237,1255,1275,1295,1315,1336,1355,1375,1395,1416,1435,1456,1475,1495,1515,1535,1556,1575,1595,1616,1635,1656,1675,1696,1715,1736,1755,1775,1796],"xSR":741.5,"ySR":458.25,"xT1":424.9,"yT1":0,"xT2":1058.1,"yT2":0,"toosoon":0,"cond_shown":"equaldotsize","ratio_trial":250,"smaller_num":"4","larger_num":"16","correct_side":2,"subjID":"GabrielaHincapie9","gender":"1","age":"11","school":"6"},{"start_time":1551901778202,"click_time":1551901779651,"finger_time":1551901778911,"fix_duration":750.0653570509995,"trial":2,"RT":709,"MT":740,"sideResp":1,"stimulus":"img/750/equaldotsize/L/8_Ratio_750_L_4_R_3.png","xmouse":[757,757,757,757,757,757,757,757,757,757,757,757,757,757,757,757,757,757,757,757,757,757,757,757,757,757,757,757,757,757,757,757,757,757,754,752,750,748,748,748,748,748,752,764,777,790,803,820,825,827,828,828,828,828,819,802,782,747,688,659,634,615,599,598,598,597,597,594,588,575,555,535,514],"ymouse":[515,515,515,515,515,515,515,515,515,515,515,515,515,515,515,515,515,515,515,515,515,515,515,515,515,515,515,515,515,515,510,507,490,475,464,452,442,426,419,415,412,409,399,387,378,368,359,344,340,335,333,331,325,320,309,293,273,239,162,123,89,67,46,42,41,39,38,35,32,29,27,26,26],"timestamp_mouse":[10,33,49,70,89,109,130,150,170,189,209,230,250,270,290,309,329,351,369,390,409,430,450,471,490,510,529,550,570,589,609,630,649,670,689,709,729,749,769,789,810,830,849,870,889,909,929,949,969,989,1009,1029,1049,1069,1089,1110,1129,1149,1170,1189,1209,1229,1249,1269,1290,1310,1329,1349,1369,1389,1410,1430,1449],"xSR":741.5,"ySR":458.25,"xT1":424.9,"yT1":0,"xT2":1058.1,"yT2":0,"toosoon":0,"cond_shown":"equaldotsize","ratio_trial":750,"smaller_num":"3","larger_num":"4","correct_side":1,"subjID":"GabrielaHincapie9","gender":"1","age":"11","school":"6"},{"start_time":1551901782089,"click_time":1551901783472,"finger_time":1551901782951,"fix_duration":1336.6553854600556,"trial":3,"RT":862,"MT":521,"sideResp":1,"stimulus":"img/750/equaldotsize/L/13_Ratio_750_L_8_R_6.png","xmouse":[780,781,781,781,782,782,782,782,782,782,782,782,782,782,782,782,782,782,782,782,782,782,782,782,782,782,782,782,782,782,782,782,782,782,782,782,782,782,782,785,799,812,828,862,882,904,933,954,984,999,1007,1015,1022,1038,1047,1054,1060,1064,1068,1068,1068,1068,1068,1048,1009,930,825,714,529,451],"ymouse":[511,511,511,511,511,511,511,511,511,511,511,511,511,511,511,511,511,511,511,511,511,511,511,511,511,511,511,511,511,511,511,511,511,511,511,511,511,511,511,509,500,491,477,446,424,395,360,330,277,243,223,207,192,168,155,145,137,131,125,124,124,124,124,121,115,103,87,73,47,35],"timestamp_mouse":[8,23,42,63,82,102,122,143,162,183,202,222,242,263,282,302,324,343,362,382,402,422,442,463,483,503,523,543,563,582,603,623,644,663,682,702,722,742,762,783,802,823,842,862,882,903,922,942,962,982,1002,1023,1043,1063,1083,1103,1122,1143,1162,1182,1202,1222,1242,1262,1283,1302,1322,1342,1363,1383],"xSR":741.5,"ySR":458.25,"xT1":424.9,"yT1":0,"xT2":1058.1,"yT2":0,"toosoon":0,"cond_shown":"equaldotsize","ratio_trial":750,"smaller_num":"6","larger_num":"8","correct_side":1,"subjID":"GabrielaHincapie9","gender":"1","age":"11","school":"6"},{"start_time":1551901787062,"click_time":1551901788171,"finger_time":1551901787851,"fix_duration":727.5275512577437,"trial":4,"RT":789,"MT":320,"sideResp":2,"stimulus":"img/750/equaldotanddens/R/12_Ratio_750_L_3_R_4.png","xmouse":[776,776,776,775,775,775,775,775,775,775,775,775,775,775,775,775,775,775,775,775,775,775,775,775,775,775,775,775,775,775,775,775,775,775,775,775,775,778,784,863,912,954,983,994,997,997,999,1004,1013,1027,1031,1035,1041,1053,1086,1115],"ymouse":[463,463,463,465,471,473,476,477,478,479,479,479,479,479,479,479,479,480,481,481,481,481,481,481,481,481,481,481,481,481,481,481,481,481,481,481,481,475,464,348,270,212,173,156,152,152,151,151,149,138,135,133,131,125,109,93],"timestamp_mouse":[10,37,49,69,89,109,129,150,169,190,210,229,250,269,290,311,330,349,369,389,410,429,450,470,490,510,529,550,570,589,610,630,649,669,689,710,729,749,769,789,809,830,850,869,890,910,929,950,970,990,1010,1030,1049,1070,1090,1109],"xSR":741.5,"ySR":458.25,"xT1":424.9,"yT1":0,"xT2":1058.1,"yT2":0,"toosoon":0,"cond_shown":"equaldotanddens","ratio_trial":750,"smaller_num":"3","larger_num":"4","correct_side":2,"subjID":"GabrielaHincapie9","gender":"1","age":"11","school":"6"},{"start_time":1551901791202,"click_time":1551901792791,"finger_time":1551901792011,"fix_duration":250,"trial":5,"RT":809,"MT":780,"sideResp":1,"stimulus":"img/750/equaldotanddens/L/13_Ratio_750_L_8_R_6.png","xmouse":[759,759,759,759,759,759,759,759,759,759,759,759,759,759,759,759,759,759,759,759,759,759,759,759,759,759,759,759,759,759,759,759,759,759,759,759,759,759,760,760,759,744,673,618,596,583,581,581,580,579,574,563,546,543,543,543,542,537,534,530,524,521,514,509,508,508,508,506,505,503,502,501,498,496,495,494,491,485,482,479],"ymouse":[492,492,492,492,492,492,492,492,492,492,492,492,492,492,492,492,492,492,492,492,492,492,492,492,492,492,492,492,492,492,492,492,492,492,492,492,492,492,487,475,453,410,280,216,198,186,184,184,182,179,174,168,155,153,153,153,152,148,146,145,142,142,140,139,139,139,139,138,137,135,134,133,128,126,125,123,119,109,105,97],"timestamp_mouse":[10,31,49,69,89,110,129,149,170,190,210,230,249,269,290,309,330,349,369,390,410,429,450,469,490,511,529,550,569,590,610,630,649,669,690,710,729,749,769,790,809,829,849,870,889,909,929,950,969,990,1009,1029,1049,1069,1090,1110,1129,1149,1169,1190,1209,1229,1249,1269,1289,1309,1330,1349,1369,1389,1409,1429,1449,1469,1489,1510,1529,1549,1570,1589],"xSR":741.5,"ySR":458.25,"xT1":424.9,"yT1":0,"xT2":1058.1,"yT2":0,"toosoon":0,"cond_shown":"equaldotanddens","ratio_trial":750,"smaller_num":"6","larger_num":"8","correct_side":1,"subjID":"GabrielaHincapie9","gender":"1","age":"11","school":"6"},{"start_time":1551901796097,"click_time":1551901797551,"finger_time":1551901796971,"fix_duration":744.916154681523,"trial":6,"RT":874,"MT":580,"sideResp":1,"stimulus":"img/750/equaldotsize/L/14_Ratio_750_L_8_R_6.png","xmouse":[780,780,780,780,780,780,780,780,780,780,780,780,780,780,780,780,780,780,780,780,780,780,780,780,780,780,780,780,780,780,780,780,780,780,780,780,780,780,780,780,780,779,781,785,785,776,765,737,724,716,703,693,672,662,652,647,642,635,630,627,627,627,627,627,626,626,620,587,569,551,537,527,519],"ymouse":[498,498,498,498,498,498,498,498,498,498,498,498,498,498,498,498,498,498,498,498,498,498,498,498,498,498,498,498,498,498,498,498,498,498,498,498,498,498,498,498,498,497,485,450,431,410,391,356,341,333,320,306,280,266,251,234,216,166,126,106,96,94,94,94,93,93,92,83,80,78,75,72,70],"timestamp_mouse":[14,36,55,74,94,114,134,154,176,195,215,234,254,275,294,315,335,354,374,395,415,434,454,475,494,515,534,554,575,594,615,634,654,675,696,714,735,754,775,795,815,836,854,874,894,914,934,954,974,994,1014,1034,1054,1074,1094,1114,1134,1154,1175,1194,1214,1234,1255,1274,1295,1314,1335,1354,1374,1394,1414,1435,1454],"xSR":741.5,"ySR":458.25,"xT1":424.9,"yT1":0,"xT2":1058.1,"yT2":0,"toosoon":0,"cond_shown":"equaldotsize","ratio_trial":750,"smaller_num":"6","larger_num":"8","correct_side":1,"subjID":"GabrielaHincapie9","gender":"1","age":"11","school":"6"},{"start_time":1551901799759,"click_time":1551901800851,"finger_time":1551901800651,"fix_duration":706.264701859142,"trial":7,"RT":892,"MT":200,"sideResp":2,"stimulus":"img/750/randomdotsizeEA/L/10_Ratio_750_L_4_R_3.png","xmouse":[768,768,768,768,769,769,769,769,769,769,769,769,769,769,770,770,770,770,770,770,770,770,770,770,770,770,770,770,770,770,770,770,770,770,770,770,770,770,770,770,770,770,773,775,796,847,910,981,1040,1100,1109,1111,1111,1112,1117],"ymouse":[505,505,505,505,507,507,507,507,507,507,507,507,507,507,507,507,507,507,507,507,507,507,507,507,507,507,507,507,507,507,507,507,507,507,507,507,507,507,507,507,504,498,482,465,417,347,302,252,202,139,123,114,110,106,96],"timestamp_mouse":[12,40,52,73,92,112,132,153,174,193,213,233,253,272,293,312,333,352,372,393,413,433,452,473,493,513,533,553,573,592,612,632,654,673,692,712,733,752,774,793,812,833,852,872,892,913,932,952,972,992,1012,1032,1052,1073,1092],"xSR":741.5,"ySR":458.25,"xT1":424.9,"yT1":0,"xT2":1058.1,"yT2":0,"toosoon":0,"cond_shown":"randomdotsizeEA","ratio_trial":750,"smaller_num":"3","larger_num":"4","correct_side":1,"subjID":"GabrielaHincapie9","gender":"1","age":"11","school":"6"},{"start_time":1551901803230,"click_time":1551901807252,"finger_time":1551901803552,"fix_duration":1274.6173502823906,"trial":8,"RT":322,"MT":3700,"sideResp":1,"stimulus":"img/250/equaldotsize/R/11_Ratio_250_L_3_R_12.png","xmouse":[749,749,749,749,748,747,745,745,743,743,743,743,743,743,743,743,743,743,743,743,743,743,743,744,745,745,745,745,745,745,745,745,745,745,745,745,745,745,745,745,745,745,745,745,745,745,745,745,745,745,745,745,745,745,745,745,745,745,745,745,745,745,745,745,745,745,745,745,745,745,745,744,743,742,742,741,741,741,741,741,742,742,742,742,742,742,742,742,742,743,743,743,743,743,743,743,743,743,743,743,743,743,743,743,743,743,743,743,743,743,743,743,743,743,743,743,743,743,743,743,743,743,743,743,743,743,743,743,743,743,743,743,743,743,743,744,746,755,757,759,759,759,759,760,761,762,762,762,762,762,762,762,762,762,762,762,762,762,762,762,762,762,762,762,762,762,762,762,762,762,762,762,762,762,762,762,762,762,762,762,762,762,761,758,755,749,738,730,722,717,708,678,638,612,585,562,533,526,520,517,512,501],"ymouse":[527,527,527,524,519,514,501,496,491,486,481,474,469,465,462,460,452,450,446,444,443,435,433,430,427,426,426,426,426,426,425,425,425,425,425,425,425,425,425,425,425,425,425,425,425,425,425,425,425,425,425,427,428,428,428,428,428,428,428,428,428,428,428,428,428,428,428,428,428,429,429,435,442,448,453,460,472,477,481,484,487,489,489,489,489,489,489,489,489,490,490,490,490,490,490,490,490,490,490,490,490,490,490,490,490,490,490,490,490,490,490,490,490,490,490,490,490,490,490,490,490,490,490,490,490,490,490,490,490,490,490,490,490,490,490,490,490,493,493,494,494,494,494,494,494,495,495,496,496,496,496,496,496,496,496,496,496,496,496,496,496,496,496,496,496,496,496,496,496,496,496,496,496,496,496,496,496,496,496,496,496,493,487,479,470,457,435,420,407,396,381,338,291,259,227,198,159,148,137,129,120,95],"timestamp_mouse":[10,36,43,61,81,102,121,141,163,182,203,223,242,262,282,302,322,343,363,382,403,422,443,462,483,504,522,543,563,582,602,624,643,662,683,702,722,742,763,783,804,823,843,863,882,902,922,942,963,984,1003,1022,1042,1063,1084,1104,1123,1143,1162,1182,1202,1222,1243,1264,1282,1303,1322,1342,1363,1382,1403,1422,1442,1463,1482,1502,1522,1542,1562,1583,1603,1622,1642,1663,1682,1702,1722,1742,1763,1784,1802,1822,1843,1862,1883,1903,1923,1942,1964,1982,2002,2023,2043,2063,2084,2103,2122,2143,2162,2183,2203,2224,2243,2263,2283,2304,2323,2342,2364,2382,2403,2422,2442,2463,2482,2504,2523,2542,2562,2584,2602,2622,2642,2664,2682,2702,2722,2742,2763,2782,2802,2822,2842,2862,2884,2902,2923,2943,2963,2982,3004,3022,3044,3062,3083,3104,3122,3143,3162,3183,3204,3222,3243,3264,3283,3304,3324,3343,3363,3383,3403,3422,3443,3462,3482,3502,3522,3543,3562,3584,3604,3622,3642,3663,3683,3702,3722,3742,3762,3782,3804,3822,3843,3863,3883,3902,3922,3942,3963,3982,4003,4022],"xSR":741.5,"ySR":458.25,"xT1":424.9,"yT1":0,"xT2":1058.1,"yT2":0,"toosoon":0,"cond_shown":"equaldotsize","ratio_trial":250,"smaller_num":"3","larger_num":"12","correct_side":2,"subjID":"GabrielaHincapie9","gender":"1","age":"11","school":"6"},{"start_time":1551901810507,"click_time":1551901812113,"finger_time":1551901811252,"fix_duration":553.5914547359463,"trial":9,"RT":745,"MT":861,"sideResp":2,"stimulus":"img/500/randomdotsizeEA/R/9_Ratio_500_L_2_R_4.png","xmouse":[752,752,752,752,752,752,752,752,752,752,752,752,752,752,752,752,752,752,752,752,752,752,752,752,752,752,752,752,752,752,752,752,752,755,758,764,772,797,807,816,826,835,845,853,860,871,884,917,946,967,983,998,1014,1015,1017,1018,1021,1035,1042,1043,1045,1046,1050,1053,1056,1060,1064,1066,1066,1066,1066,1066,1066,1066,1067,1068,1069,1071,1071,1071,1072],"ymouse":[510,510,510,510,510,510,510,510,510,510,510,510,510,510,510,510,510,510,510,510,510,510,510,510,510,510,510,510,510,510,510,510,507,500,495,486,473,425,404,382,360,340,302,285,268,249,231,195,171,159,152,149,145,145,145,145,145,145,143,143,142,141,135,131,125,117,111,107,107,107,107,107,107,105,104,103,101,100,100,100,99],"timestamp_mouse":[9,29,45,65,87,105,126,145,165,185,206,227,246,265,287,305,326,345,366,387,405,426,445,466,486,505,527,546,565,585,606,625,645,665,686,705,727,745,765,785,805,826,845,865,885,905,925,945,966,986,1005,1026,1045,1065,1085,1105,1125,1145,1166,1186,1206,1225,1245,1266,1285,1305,1326,1345,1365,1386,1405,1426,1446,1465,1486,1506,1527,1545,1566,1585,1606],"xSR":741.5,"ySR":458.25,"xT1":424.9,"yT1":0,"xT2":1058.1,"yT2":0,"toosoon":0,"cond_shown":"randomdotsizeEA","ratio_trial":500,"smaller_num":"2","larger_num":"4","correct_side":2,"subjID":"GabrielaHincapie9","gender":"1","age":"11","school":"6"},{"start_time":1551901814758,"click_time":1551901815873,"finger_time":1551901815673,"fix_duration":604.5406670920023,"trial":10,"RT":915,"MT":200,"sideResp":1,"stimulus":"img/500/randomdotsizeEA/R/1_Ratio_500_L_9_R_18.png","xmouse":[787,787,787,787,787,787,787,787,787,787,787,787,787,787,787,787,787,787,787,787,787,787,787,787,787,787,787,787,787,787,787,787,787,787,787,787,787,787,787,787,787,786,786,787,787,783,779,775,761,657,603,549,512,490,477,476],"ymouse":[500,500,500,500,500,500,500,500,500,500,500,500,500,500,500,500,500,500,500,500,500,500,500,500,500,500,500,500,500,500,500,500,500,500,500,500,500,500,500,500,500,498,497,490,461,449,435,422,403,316,269,220,175,142,103,93],"timestamp_mouse":[15,44,54,75,95,116,135,156,175,194,215,234,254,274,294,315,335,355,374,395,416,434,455,476,494,516,534,555,574,594,614,634,655,676,694,714,734,754,775,795,815,834,854,874,894,915,934,956,976,994,1014,1034,1054,1074,1094,1114],"xSR":741.5,"ySR":458.25,"xT1":424.9,"yT1":0,"xT2":1058.1,"yT2":0,"toosoon":0,"cond_shown":"randomdotsizeEA","ratio_trial":500,"smaller_num":"9","larger_num":"18","correct_side":2,"subjID":"GabrielaHincapie9","gender":"1","age":"11","school":"6"},{"start_time":1551901820077,"click_time":1551901820952,"finger_time":1551901820572,"fix_duration":1423.1947295109003,"trial":11,"RT":495,"MT":380,"sideResp":2,"stimulus":"img/750/equaldotanddens/R/7_Ratio_750_L_3_R_4.png","xmouse":[802,802,803,803,803,803,803,803,804,804,804,804,804,804,805,805,805,805,806,808,810,815,819,828,832,835,836,837,839,842,843,843,844,844,844,845,846,848,865,887,922,958,1000,1068],"ymouse":[492,492,492,492,492,492,491,491,491,491,491,491,491,491,491,491,491,491,490,489,486,481,475,463,458,453,451,450,446,442,440,439,437,437,436,434,432,426,394,360,308,242,173,69],"timestamp_mouse":[28,36,55,75,97,116,135,155,175,195,215,235,255,275,295,316,336,356,376,396,415,436,455,476,495,515,535,556,575,596,616,635,656,676,696,716,735,756,777,795,815,835,855,875],"xSR":741.5,"ySR":458.25,"xT1":424.9,"yT1":0,"xT2":1058.1,"yT2":0,"toosoon":0,"cond_shown":"equaldotanddens","ratio_trial":750,"smaller_num":"3","larger_num":"4","correct_side":2,"subjID":"GabrielaHincapie9","gender":"1","age":"11","school":"6"},{"start_time":1551901822540,"click_time":1551901823913,"finger_time":1551901823452,"fix_duration":326.42602349300887,"trial":12,"RT":912,"MT":461,"sideResp":1,"stimulus":"img/900/randomdotsizeEA/L/8_Ratio_900_L_20_R_18.png","xmouse":[786,786,786,786,786,786,786,786,786,786,786,786,786,786,786,786,786,786,786,786,786,786,786,786,786,786,786,786,786,786,786,786,786,786,787,787,787,787,787,787,787,788,788,789,789,792,792,780,735,669,602,602,602,602,602,602,602,602,602,602,602,602,602,602,602,602,602,602,495],"ymouse":[497,497,497,497,497,497,497,497,497,497,497,497,497,497,497,497,497,497,497,497,497,497,497,497,497,497,497,497,497,497,497,497,497,497,497,497,497,497,497,496,495,495,494,492,490,454,421,342,235,125,27,27,27,27,27,27,27,27,27,27,27,27,27,27,27,27,27,27,10],"timestamp_mouse":[13,34,52,72,93,112,132,153,173,194,212,233,252,274,292,313,334,352,374,392,413,433,453,472,493,512,534,553,572,593,613,633,652,673,693,712,733,753,773,793,813,834,852,872,894,912,932,952,972,992,1013,1033,1052,1073,1092,1113,1132,1152,1172,1193,1212,1233,1252,1273,1292,1313,1333,1352,1373],"xSR":741.5,"ySR":458.25,"xT1":424.9,"yT1":0,"xT2":1058.1,"yT2":0,"toosoon":0,"cond_shown":"randomdotsizeEA","ratio_trial":900,"smaller_num":"18","larger_num":"20","correct_side":1,"subjID":"GabrielaHincapie9","gender":"1","age":"11","school":"6"},{"start_time":1551901827423,"click_time":1551901830514,"finger_time":1551901829612,"fix_duration":250,"trial":13,"RT":2189,"MT":902,"sideResp":2,"stimulus":"img/750/equaldotsize/L/1_Ratio_750_L_20_R_15.png","xmouse":[763,763,763,763,763,763,763,763,763,763,763,763,763,763,763,763,763,763,763,763,763,763,763,763,763,763,763,763,763,763,763,763,763,763,763,763,763,763,763,763,763,763,763,763,763,763,763,763,763,763,763,763,763,763,763,763,763,763,763,763,763,763,763,763,763,763,763,763,763,763,763,763,763,763,763,763,763,763,763,763,763,763,763,763,763,763,763,764,764,764,765,767,767,767,767,767,767,767,767,767,767,767,767,767,767,767,767,768,768,768,768,771,772,774,776,777,779,781,784,789,794,806,820,831,843,857,884,893,900,902,905,912,919,923,930,940,962,969,972,975,979,983,983,983,984,986,993,998,1003,1007,1012,1025,1032,1053,1080],"ymouse":[470,470,470,470,470,471,471,471,471,471,471,471,471,471,471,471,471,471,471,471,471,471,471,471,471,471,471,471,471,471,471,471,471,471,471,471,471,471,471,471,471,471,471,471,471,471,471,471,471,471,471,471,471,471,471,471,471,471,471,471,471,471,471,471,471,471,471,471,471,471,471,471,471,471,471,471,471,471,471,471,471,471,471,471,471,471,471,472,472,472,472,471,470,470,470,470,470,470,470,470,470,470,470,470,470,470,470,465,463,457,449,429,413,399,387,379,370,364,356,346,338,319,303,292,281,271,257,254,252,251,251,249,246,243,237,227,184,158,132,111,97,86,86,86,85,84,79,76,73,71,70,66,64,62,61],"timestamp_mouse":[10,31,49,69,89,109,129,149,170,189,209,229,249,269,291,310,329,351,369,391,409,429,449,470,489,511,530,550,570,589,610,630,649,670,689,710,730,749,769,789,809,829,850,869,889,910,929,949,969,990,1010,1029,1051,1070,1090,1110,1130,1149,1169,1190,1210,1229,1251,1270,1289,1309,1330,1349,1371,1389,1411,1430,1449,1470,1489,1510,1529,1549,1569,1589,1610,1630,1650,1669,1689,1709,1729,1749,1769,1789,1809,1829,1850,1869,1889,1909,1929,1949,1970,1989,2010,2030,2050,2070,2089,2110,2129,2149,2170,2189,2209,2229,2250,2269,2290,2309,2329,2351,2369,2389,2409,2429,2450,2469,2489,2509,2529,2549,2569,2589,2609,2629,2649,2670,2690,2710,2729,2749,2769,2790,2810,2829,2850,2870,2889,2910,2929,2949,2969,2990,3010,3029,3049,3069,3090],"xSR":741.5,"ySR":458.25,"xT1":424.9,"yT1":0,"xT2":1058.1,"yT2":0,"toosoon":0,"cond_shown":"equaldotsize","ratio_trial":750,"smaller_num":"15","larger_num":"20","correct_side":1,"subjID":"GabrielaHincapie9","gender":"1","age":"11","school":"6"},{"start_time":1551901831804,"click_time":1551901833152,"finger_time":1551901832633,"fix_duration":250,"trial":14,"RT":829,"MT":519,"sideResp":2,"stimulus":"img/500/randomdotsizeEA/R/2_Ratio_500_L_3_R_6.png","xmouse":[823,823,823,823,823,823,823,822,820,820,820,820,820,819,819,819,819,819,817,817,816,816,815,815,815,815,815,815,815,815,815,815,815,815,815,815,815,815,815,815,816,832,859,866,868,870,874,879,881,882,885,887,903,911,916,921,926,946,964,1010,1069,1099,1118,1119,1120,1122,1126,1140],"ymouse":[489,489,489,489,489,489,489,490,491,492,492,492,492,492,492,492,492,492,491,490,489,488,487,487,487,487,487,487,487,487,487,487,487,487,487,487,487,487,487,476,463,423,360,331,316,302,292,280,276,272,265,258,228,217,210,205,199,187,178,165,152,140,127,121,116,110,101,67],"timestamp_mouse":[9,32,49,68,89,110,128,148,169,188,209,230,248,269,288,309,328,350,368,388,408,428,448,468,489,508,529,549,568,588,610,628,649,669,689,708,728,748,768,789,808,829,848,869,889,908,928,948,969,990,1009,1028,1048,1069,1089,1108,1128,1148,1169,1188,1208,1229,1248,1269,1289,1309,1330,1348],"xSR":741.5,"ySR":458.25,"xT1":424.9,"yT1":0,"xT2":1058.1,"yT2":0,"toosoon":0,"cond_shown":"randomdotsizeEA","ratio_trial":500,"smaller_num":"3","larger_num":"6","correct_side":2,"subjID":"GabrielaHincapie9","gender":"1","age":"11","school":"6"},{"start_time":1551901834584,"click_time":1551901835472,"finger_time":1551901834992,"fix_duration":250,"trial":15,"RT":408,"MT":480,"sideResp":1,"stimulus":"img/500/equaldotsize/R/12_Ratio_500_L_1_R_2.png","xmouse":[809,809,809,809,808,807,807,807,807,807,807,807,807,807,807,807,806,804,799,795,782,767,756,741,738,735,732,728,719,710,702,688,670,626,600,571,547,527,496,488,486,485,485,484,484],"ymouse":[485,485,485,485,485,485,485,485,485,485,485,485,485,485,485,485,485,485,478,472,458,443,433,412,406,402,398,394,380,372,363,350,337,300,284,262,245,230,204,193,180,165,148,108,98],"timestamp_mouse":[10,31,48,70,88,108,128,148,169,188,210,228,249,268,288,309,329,348,368,388,408,428,449,468,488,508,530,549,568,588,608,628,649,668,689,709,728,748,768,790,808,828,850,868,888],"xSR":741.5,"ySR":458.25,"xT1":424.9,"yT1":0,"xT2":1058.1,"yT2":0,"toosoon":0,"cond_shown":"equaldotsize","ratio_trial":500,"smaller_num":"1","larger_num":"2","correct_side":2,"subjID":"GabrielaHincapie9","gender":"1","age":"11","school":"6"},{"start_time":1551901836764,"click_time":1551901838172,"finger_time":1551901837633,"fix_duration":250,"trial":16,"RT":869,"MT":539,"sideResp":1,"stimulus":"img/900/randomdotsizeEA/L/1_Ratio_900_L_10_R_9.png","xmouse":[785,785,785,785,785,785,785,785,785,785,785,785,785,785,785,785,785,786,787,790,790,790,790,790,791,791,791,791,791,791,791,791,791,791,791,791,791,791,791,791,792,797,801,805,823,830,826,804,750,750,750,750,750,750,750,750,750,750,750,750,750,750,750,750,750,750,750,750,750,750,444],"ymouse":[499,499,499,499,499,499,499,499,499,499,499,499,499,499,499,499,499,500,500,497,496,495,495,495,495,495,495,495,495,495,495,495,495,495,495,495,495,495,495,493,487,476,462,442,311,233,158,87,12,12,12,12,12,12,12,12,12,12,12,12,12,12,12,12,12,12,12,12,12,12,5],"timestamp_mouse":[10,36,50,69,89,110,128,150,169,188,209,229,248,268,288,309,330,349,368,389,409,429,449,470,488,508,528,548,569,589,609,628,650,668,689,708,728,749,768,789,808,828,849,869,889,909,928,949,968,988,1009,1029,1048,1070,1089,1109,1129,1149,1169,1190,1209,1229,1249,1269,1288,1309,1328,1348,1368,1389,1408],"xSR":741.5,"ySR":458.25,"xT1":424.9,"yT1":0,"xT2":1058.1,"yT2":0,"toosoon":0,"cond_shown":"randomdotsizeEA","ratio_trial":900,"smaller_num":"9","larger_num":"10","correct_side":1,"subjID":"GabrielaHincapie9","gender":"1","age":"11","school":"6"},{"start_time":1551901840656,"click_time":1551901841852,"finger_time":1551901841452,"fix_duration":1363.9744101531305,"trial":17,"RT":796,"MT":400,"sideResp":2,"stimulus":"img/250/randomdotsizeEA/R/11_Ratio_250_L_3_R_12.png","xmouse":[795,795,795,795,795,795,795,795,795,795,795,795,795,795,795,795,795,795,795,795,795,795,795,795,795,795,795,795,795,795,795,795,795,795,795,797,797,798,799,810,851,876,914,940,974,977,977,977,977,977,977,977,977,977,982,994,1007,1022,1038,1073],"ymouse":[526,526,526,526,526,526,526,526,526,526,526,526,526,526,526,526,526,526,526,526,523,519,515,511,508,507,506,505,505,505,505,505,505,505,505,503,502,496,488,440,319,258,194,136,77,69,68,68,68,68,68,68,68,68,68,68,68,68,68,67],"timestamp_mouse":[30,36,57,76,98,117,136,156,176,198,216,236,256,276,296,316,337,358,376,396,416,436,457,476,496,518,536,556,578,596,616,636,658,677,696,716,736,756,777,796,816,836,857,876,896,916,936,957,977,997,1016,1036,1058,1077,1096,1116,1136,1156,1176,1196],"xSR":741.5,"ySR":458.25,"xT1":424.9,"yT1":0,"xT2":1058.1,"yT2":0,"toosoon":0,"cond_shown":"randomdotsizeEA","ratio_trial":250,"smaller_num":"3","larger_num":"12","correct_side":2,"subjID":"GabrielaHincapie9","gender":"1","age":"11","school":"6"},{"start_time":1551901843939,"click_time":1551901845352,"finger_time":1551901844713,"fix_duration":666.0673468298402,"trial":18,"RT":774,"MT":639,"sideResp":1,"stimulus":"img/750/randomdotsizeEA/R/5_Ratio_750_L_15_R_20.png","xmouse":[776,776,776,776,776,776,776,776,776,776,776,776,776,776,776,776,776,776,776,776,776,776,776,776,776,776,776,776,776,776,776,776,776,776,776,776,770,754,730,697,614,593,583,578,576,575,575,575,575,575,575,570,560,549,540,521,514,507,500,491,480,480,479,479,479,479,479,479,479,479,479],"ymouse":[513,513,513,513,513,513,513,513,513,513,513,513,513,513,513,513,513,513,513,513,513,513,513,513,513,513,513,513,513,513,513,513,513,513,513,512,497,474,441,389,279,248,228,213,206,202,202,202,202,202,202,198,190,182,173,156,150,143,135,126,115,115,114,114,114,114,112,108,106,102,96],"timestamp_mouse":[14,38,53,74,93,114,134,153,173,193,213,233,253,274,293,313,334,355,373,394,413,433,454,473,493,513,533,554,575,593,615,634,654,675,694,713,734,753,774,793,813,833,854,873,893,913,933,954,975,994,1013,1034,1054,1073,1094,1113,1134,1154,1173,1193,1213,1233,1253,1275,1294,1314,1334,1353,1374,1393,1413],"xSR":741.5,"ySR":458.25,"xT1":424.9,"yT1":0,"xT2":1058.1,"yT2":0,"toosoon":0,"cond_shown":"randomdotsizeEA","ratio_trial":750,"smaller_num":"15","larger_num":"20","correct_side":2,"subjID":"GabrielaHincapie9","gender":"1","age":"11","school":"6"},{"start_time":1551901848034,"click_time":1551901849252,"finger_time":1551901848352,"fix_duration":1319.4968059479356,"trial":19,"RT":318,"MT":900,"sideResp":1,"stimulus":"img/500/equaldotanddens/L/11_Ratio_500_L_12_R_6.png","xmouse":[779,779,779,779,779,779,779,779,779,779,779,779,779,779,779,779,779,779,778,780,785,787,791,794,800,803,808,817,830,851,874,898,922,942,961,963,963,963,963,963,959,950,930,900,786,729,670,623,598,584,584,584,584,584,584,582,579,573,563,502],"ymouse":[483,483,483,483,483,481,480,479,478,475,474,472,469,461,435,414,389,365,348,314,301,293,284,280,268,262,253,242,227,206,188,173,162,153,142,140,140,140,140,140,140,137,131,118,86,71,56,49,47,47,47,47,47,47,47,47,47,49,50,51],"timestamp_mouse":[38,59,79,98,118,138,159,178,198,218,238,258,279,298,318,338,358,378,399,419,438,458,479,498,518,539,560,579,600,618,638,659,678,700,718,738,758,779,799,818,838,859,879,898,918,938,958,978,999,1018,1038,1058,1078,1099,1118,1138,1159,1178,1200,1218],"xSR":741.5,"ySR":458.25,"xT1":424.9,"yT1":0,"xT2":1058.1,"yT2":0,"toosoon":0,"cond_shown":"equaldotanddens","ratio_trial":500,"smaller_num":"6","larger_num":"12","correct_side":1,"subjID":"GabrielaHincapie9","gender":"1","age":"11","school":"6"},{"start_time":1551901851404,"click_time":1551901852552,"finger_time":1551901852073,"fix_duration":890.1829243323124,"trial":20,"RT":669,"MT":479,"sideResp":2,"stimulus":"img/250/randomdotsizeEA/R/10_Ratio_250_L_4_R_16.png","xmouse":[820,820,820,820,820,820,820,820,820,820,820,820,820,820,819,819,819,819,819,819,819,819,819,819,819,819,819,819,819,819,820,821,824,834,842,850,858,875,884,892,901,910,927,931,935,945,955,983,1000,1016,1025,1028,1031,1031,1033,1036,1042,1061],"ymouse":[532,532,532,532,532,532,532,532,532,532,532,532,532,532,532,532,532,532,532,532,532,532,532,532,532,532,532,532,532,531,527,521,507,453,431,409,387,342,323,305,289,275,252,249,244,234,225,203,189,172,158,151,141,139,134,123,104,37],"timestamp_mouse":[11,34,48,69,88,108,128,149,169,188,209,229,248,268,288,309,328,348,369,390,408,429,448,468,488,510,529,548,570,589,608,629,648,669,688,709,729,748,768,788,808,829,848,868,888,909,929,948,969,988,1008,1029,1048,1069,1088,1108,1128,1148],"xSR":741.5,"ySR":458.25,"xT1":424.9,"yT1":0,"xT2":1058.1,"yT2":0,"toosoon":0,"cond_shown":"randomdotsizeEA","ratio_trial":250,"smaller_num":"4","larger_num":"16","correct_side":2,"subjID":"GabrielaHincapie9","gender":"1","age":"11","school":"6"},{"start_time":1551901853924,"click_time":1551901855073,"finger_time":1551901854552,"fix_duration":250,"trial":21,"RT":628,"MT":521,"sideResp":2,"stimulus":"img/750/equaldotanddens/R/15_Ratio_750_L_9_R_12.png","xmouse":[792,792,792,792,792,792,792,792,792,792,792,792,792,792,792,792,792,792,792,792,792,792,792,792,792,792,792,792,794,799,808,818,821,828,837,849,886,897,904,909,914,930,940,951,963,972,989,997,999,1000,1000,1002,1006,1013,1021,1029,1050,1059],"ymouse":[492,492,492,492,492,492,492,492,492,492,492,492,492,492,492,492,492,492,492,492,492,492,492,492,492,492,492,492,487,478,460,421,404,381,356,334,293,287,283,281,278,268,259,249,237,228,207,195,189,182,177,164,155,145,133,123,101,94],"timestamp_mouse":[9,30,48,69,88,110,128,149,168,189,209,228,248,268,289,309,328,349,368,388,408,429,449,469,488,509,529,548,568,590,608,628,648,669,690,709,728,749,768,789,808,828,849,869,888,909,928,948,968,988,1008,1028,1049,1069,1088,1109,1128,1149],"xSR":741.5,"ySR":458.25,"xT1":424.9,"yT1":0,"xT2":1058.1,"yT2":0,"toosoon":0,"cond_shown":"equaldotanddens","ratio_trial":750,"smaller_num":"9","larger_num":"12","correct_side":2,"subjID":"GabrielaHincapie9","gender":"1","age":"11","school":"6"},{"start_time":1551901857009,"click_time":1551901857972,"finger_time":1551901857472,"fix_duration":995.2315332198319,"trial":22,"RT":463,"MT":500,"sideResp":2,"stimulus":"img/500/equaldotsize/R/14_Ratio_500_L_5_R_10.png","xmouse":[796,796,796,796,796,796,796,796,796,796,796,796,796,796,796,796,796,796,796,796,796,795,812,822,839,856,875,896,903,907,910,915,918,920,921,925,931,940,945,950,956,963,979,987,1002,1011,1020,1046,1068],"ymouse":[520,520,520,520,520,520,520,520,520,520,520,520,520,520,520,520,520,520,520,520,520,516,474,445,403,362,312,211,172,147,129,115,107,105,105,104,103,101,100,100,99,98,94,89,79,69,59,43,36],"timestamp_mouse":[10,24,43,63,83,104,123,143,165,183,204,223,243,263,283,304,323,343,363,383,404,423,444,463,483,503,523,543,563,583,604,623,643,663,683,704,725,743,764,783,805,823,843,864,883,904,923,943,963],"xSR":741.5,"ySR":458.25,"xT1":424.9,"yT1":0,"xT2":1058.1,"yT2":0,"toosoon":0,"cond_shown":"equaldotsize","ratio_trial":500,"smaller_num":"5","larger_num":"10","correct_side":2,"subjID":"GabrielaHincapie9","gender":"1","age":"11","school":"6"},{"start_time":1551901860076,"click_time":1551901860973,"finger_time":1551901860612,"fix_duration":1322.5665680819689,"trial":23,"RT":536,"MT":361,"sideResp":1,"stimulus":"img/500/equaldotanddens/L/5_Ratio_500_L_4_R_2.png","xmouse":[789,789,789,789,789,789,789,789,789,789,789,789,789,789,789,789,789,789,789,789,789,789,789,790,790,790,790,790,773,745,729,714,699,673,665,659,657,653,639,622,601,580,561,529,516],"ymouse":[510,510,510,510,510,510,510,510,510,510,510,510,510,510,510,510,510,510,510,510,510,510,508,497,480,461,436,409,338,283,255,237,220,201,195,192,190,187,173,162,151,138,126,99,87],"timestamp_mouse":[16,38,56,77,96,116,137,157,176,196,216,236,257,276,296,316,336,357,377,397,417,436,456,477,496,517,536,557,576,597,616,637,658,676,696,716,736,758,776,796,816,837,858,876,897],"xSR":741.5,"ySR":458.25,"xT1":424.9,"yT1":0,"xT2":1058.1,"yT2":0,"toosoon":0,"cond_shown":"equaldotanddens","ratio_trial":500,"smaller_num":"2","larger_num":"4","correct_side":1,"subjID":"GabrielaHincapie9","gender":"1","age":"11","school":"6"},{"start_time":1551901862365,"click_time":1551901863333,"finger_time":1551901862932,"fix_duration":250,"trial":24,"RT":567,"MT":401,"sideResp":2,"stimulus":"img/750/equaldotanddens/L/8_Ratio_750_L_4_R_3.png","xmouse":[791,791,791,791,791,792,793,793,793,794,794,794,794,794,794,794,794,794,794,794,795,795,795,795,795,797,800,804,810,828,843,859,878,892,923,930,940,951,965,993,1004,1015,1022,1029,1044,1049,1054,1057,1060],"ymouse":[487,488,488,488,488,488,488,488,488,489,489,489,489,489,489,489,489,489,489,489,489,489,489,489,489,488,482,472,457,423,399,370,342,323,287,278,267,257,246,212,192,174,157,140,106,90,80,72,66],"timestamp_mouse":[10,35,47,67,87,109,127,149,167,187,209,227,248,267,287,307,327,348,367,387,407,428,447,468,487,508,529,548,567,587,607,627,649,669,687,707,727,748,769,787,807,833,847,869,887,908,928,949,968],"xSR":741.5,"ySR":458.25,"xT1":424.9,"yT1":0,"xT2":1058.1,"yT2":0,"toosoon":0,"cond_shown":"equaldotanddens","ratio_trial":750,"smaller_num":"3","larger_num":"4","correct_side":1,"subjID":"GabrielaHincapie9","gender":"1","age":"11","school":"6"},{"start_time":1551901867070,"click_time":1551901868174,"finger_time":1551901867816,"fix_duration":734.1008816072459,"trial":25,"RT":746,"MT":358,"sideResp":2,"stimulus":"img/250/equaldotsize/R/12_Ratio_250_L_5_R_20.png","xmouse":[776,776,777,777,779,779,780,780,780,781,781,782,782,782,782,782,782,782,782,782,782,782,782,782,782,782,782,782,782,782,782,782,782,782,785,792,801,813,827,856,863,871,876,881,885,887,890,895,902,936,950,962,983,1005,1049,1059],"ymouse":[489,489,490,491,494,495,495,497,498,501,503,504,505,505,505,505,505,505,505,505,505,505,505,505,505,505,505,505,505,505,505,505,505,505,499,486,471,450,429,373,352,333,319,310,300,298,295,292,288,254,228,190,139,97,43,34],"timestamp_mouse":[10,31,45,66,85,105,125,145,165,184,205,224,244,265,285,306,324,345,364,385,404,426,445,465,484,505,524,546,564,584,605,625,646,664,685,704,725,746,765,785,804,824,846,864,884,905,925,946,965,984,1005,1024,1044,1065,1084,1104],"xSR":741.5,"ySR":458.25,"xT1":424.9,"yT1":0,"xT2":1058.1,"yT2":0,"toosoon":0,"cond_shown":"equaldotsize","ratio_trial":250,"smaller_num":"5","larger_num":"20","correct_side":2,"subjID":"GabrielaHincapie9","gender":"1","age":"11","school":"6"},{"start_time":1551901869378,"click_time":1551901870835,"finger_time":1551901870234,"fix_duration":323.1565865511985,"trial":26,"RT":856,"MT":601,"sideResp":1,"stimulus":"img/900/randomdotsizeEA/L/2_Ratio_900_L_20_R_18.png","xmouse":[798,798,798,798,798,798,798,798,798,798,798,798,798,798,798,798,798,798,798,795,794,793,793,793,793,793,793,793,793,793,793,793,793,793,793,793,793,793,793,790,788,779,767,736,729,725,723,723,717,709,698,686,672,633,604,586,568,554,539,538,536,535,535,535,535,535,535,535,533,532,528,521,504],"ymouse":[487,487,487,487,487,487,487,487,487,487,487,487,487,487,487,487,487,487,487,487,486,485,485,485,485,485,485,485,485,485,485,485,485,485,485,485,485,485,485,481,476,461,442,379,357,341,331,325,311,301,291,282,273,247,230,216,203,190,168,160,150,144,139,130,126,122,119,116,112,110,107,104,99],"timestamp_mouse":[17,43,57,76,98,118,137,158,176,197,218,236,257,277,297,317,336,357,377,396,416,436,457,477,496,517,538,556,576,596,617,637,656,677,697,716,737,757,777,797,817,836,856,876,897,916,937,956,977,997,1017,1036,1056,1076,1097,1116,1137,1156,1176,1197,1217,1237,1256,1276,1296,1316,1338,1357,1376,1397,1417,1437,1457],"xSR":741.5,"ySR":458.25,"xT1":424.9,"yT1":0,"xT2":1058.1,"yT2":0,"toosoon":0,"cond_shown":"randomdotsizeEA","ratio_trial":900,"smaller_num":"18","larger_num":"20","correct_side":1,"subjID":"GabrielaHincapie9","gender":"1","age":"11","school":"6"},{"start_time":1551901872709,"click_time":1551901874636,"finger_time":1551901873574,"fix_duration":252.3775185612066,"trial":27,"RT":865,"MT":1062,"sideResp":2,"stimulus":"img/250/equaldotsize/R/8_Ratio_250_L_1_R_4.png","xmouse":[794,794,794,794,794,794,794,794,794,794,794,794,794,794,794,794,794,794,794,794,794,794,794,794,794,795,796,796,796,796,796,797,798,800,800,800,801,804,807,808,814,822,841,852,862,869,875,890,897,903,910,914,917,920,923,928,934,951,957,965,974,982,997,1002,1010,1018,1025,1040,1057,1066,1077,1085,1091,1093,1093,1094,1095,1095,1097,1097,1097,1097,1096,1095,1092,1091,1091,1091,1091,1091,1091,1091,1091,1091,1091,1093,1098],"ymouse":[517,517,517,517,517,517,517,517,517,517,517,517,517,517,517,517,517,517,517,517,517,517,517,517,517,517,517,517,517,517,517,517,517,516,516,516,516,515,515,514,513,509,497,485,468,448,429,379,363,350,339,333,329,325,321,315,310,298,294,289,285,281,276,272,268,264,259,247,230,216,203,191,179,177,175,174,173,169,164,160,157,154,147,143,139,137,137,135,135,133,132,130,125,122,118,111,96],"timestamp_mouse":[9,30,45,67,85,105,126,145,167,185,205,227,245,266,286,307,325,345,367,385,406,425,446,467,485,507,525,546,566,585,606,625,645,665,687,706,726,745,765,787,806,825,845,865,886,905,926,945,966,986,1006,1025,1045,1065,1085,1107,1127,1145,1166,1186,1206,1225,1245,1265,1285,1306,1326,1346,1365,1385,1406,1426,1446,1466,1486,1507,1525,1545,1565,1586,1606,1627,1645,1666,1686,1706,1726,1745,1765,1785,1806,1827,1846,1865,1885,1905,1927],"xSR":741.5,"ySR":458.25,"xT1":424.9,"yT1":0,"xT2":1058.1,"yT2":0,"toosoon":0,"cond_shown":"equaldotsize","ratio_trial":250,"smaller_num":"1","larger_num":"4","correct_side":2,"subjID":"GabrielaHincapie9","gender":"1","age":"11","school":"6"},{"start_time":1551901875965,"click_time":1551901877575,"finger_time":1551901876775,"fix_duration":250,"trial":28,"RT":810,"MT":800,"sideResp":1,"stimulus":"img/900/equaldotsize/L/10_Ratio_900_L_20_R_18.png","xmouse":[792,792,792,792,792,792,792,792,792,792,787,784,774,768,760,760,760,760,760,760,760,760,760,760,760,760,760,760,760,760,760,759,759,759,759,759,758,756,754,745,740,735,729,719,688,675,664,658,654,652,652,651,649,645,616,601,589,582,578,578,577,576,575,572,565,562,562,561,560,556,554,551,546,541,527,525,525,525,525,525,523],"ymouse":[528,528,528,528,528,528,528,528,528,528,528,527,526,524,524,524,524,524,524,524,524,524,524,524,524,524,524,524,523,523,523,521,521,521,521,521,520,517,512,495,486,473,458,444,401,386,373,366,362,358,355,348,338,323,255,220,190,171,160,151,149,147,146,142,131,125,122,121,119,114,111,108,105,102,96,95,94,94,94,94,94],"timestamp_mouse":[11,37,49,70,90,109,129,149,170,189,210,230,250,270,289,309,329,349,370,389,410,430,450,469,490,509,529,549,570,590,611,630,649,669,690,709,730,749,769,789,810,831,851,870,889,909,929,949,970,990,1010,1030,1050,1070,1090,1109,1130,1151,1170,1189,1210,1230,1249,1269,1290,1309,1330,1349,1371,1389,1410,1430,1450,1469,1489,1509,1529,1549,1569,1590,1610],"xSR":741.5,"ySR":458.25,"xT1":424.9,"yT1":0,"xT2":1058.1,"yT2":0,"toosoon":0,"cond_shown":"equaldotsize","ratio_trial":900,"smaller_num":"18","larger_num":"20","correct_side":1,"subjID":"GabrielaHincapie9","gender":"1","age":"11","school":"6"},{"start_time":1551901878971,"click_time":1551901880594,"finger_time":1551901879754,"fix_duration":255.74488509793292,"trial":29,"RT":783,"MT":840,"sideResp":2,"stimulus":"img/500/randomdotsizeEA/R/3_Ratio_500_L_10_R_20.png","xmouse":[807,807,807,807,807,807,807,807,807,807,807,807,807,807,807,807,807,807,807,807,807,807,807,807,807,807,807,807,807,807,807,807,807,807,807,807,806,807,810,820,827,833,840,845,863,871,879,884,891,902,907,911,918,921,934,942,952,968,980,993,996,998,1000,1001,1005,1008,1011,1013,1014,1015,1015,1016,1016,1017,1018,1019,1020,1021,1023,1035,1050,1069],"ymouse":[491,491,491,491,491,491,491,491,491,491,491,491,491,491,491,491,491,491,491,491,491,491,491,491,491,491,491,491,491,491,491,491,491,491,491,491,487,482,468,436,420,407,393,381,348,334,319,307,295,273,260,249,234,230,209,199,189,178,171,163,162,161,159,159,155,152,150,147,146,144,144,143,143,142,140,140,139,138,136,120,101,72],"timestamp_mouse":[13,31,45,65,83,105,123,144,163,184,203,224,245,265,284,305,323,343,363,383,404,424,445,465,485,504,525,543,565,584,605,625,644,664,684,705,724,745,765,783,804,824,843,864,884,905,925,945,965,985,1005,1025,1045,1064,1084,1104,1125,1145,1165,1183,1203,1224,1244,1263,1284,1303,1324,1344,1365,1384,1404,1423,1444,1464,1484,1504,1523,1544,1564,1584,1604,1623],"xSR":741.5,"ySR":458.25,"xT1":424.9,"yT1":0,"xT2":1058.1,"yT2":0,"toosoon":0,"cond_shown":"randomdotsizeEA","ratio_trial":500,"smaller_num":"10","larger_num":"20","correct_side":2,"subjID":"GabrielaHincapie9","gender":"1","age":"11","school":"6"},{"start_time":1551901882064,"click_time":1551901883255,"finger_time":1551901882394,"fix_duration":349.54442794282517,"trial":30,"RT":330,"MT":861,"sideResp":1,"stimulus":"img/500/equaldotsize/L/10_Ratio_500_L_4_R_2.png","xmouse":[766,766,766,766,766,767,767,767,767,767,767,767,767,767,767,765,763,762,759,756,755,753,752,749,741,737,735,734,733,732,732,731,729,725,709,699,686,673,658,620,606,590,582,582,582,582,582,582,582,581,581,579,576,571,560,553,544,535,527,519],"ymouse":[486,486,486,486,486,486,486,486,486,486,486,486,485,484,473,463,452,440,432,415,408,403,399,391,377,370,366,364,362,360,360,359,357,354,345,337,325,312,293,242,222,203,191,189,189,189,189,189,188,185,183,177,171,164,147,138,127,117,106,95],"timestamp_mouse":[10,39,52,71,91,110,131,150,170,190,210,230,251,270,290,310,330,351,370,391,410,431,451,471,491,511,531,550,571,590,611,630,651,671,690,710,731,751,770,791,811,831,850,871,891,910,931,950,971,990,1010,1030,1050,1071,1090,1111,1132,1152,1172,1191],"xSR":741.5,"ySR":458.25,"xT1":424.9,"yT1":0,"xT2":1058.1,"yT2":0,"toosoon":0,"cond_shown":"equaldotsize","ratio_trial":500,"smaller_num":"2","larger_num":"4","correct_side":1,"subjID":"GabrielaHincapie9","gender":"1","age":"11","school":"6"},{"start_time":1551901885364,"click_time":1551901886754,"finger_time":1551901885954,"fix_duration":1148.92616781213,"trial":31,"RT":590,"MT":800,"sideResp":2,"stimulus":"img/250/equaldotanddens/R/4_Ratio_250_L_3_R_12.png","xmouse":[769,769,769,769,769,769,769,769,769,769,769,769,769,769,769,769,769,769,769,769,769,769,769,769,769,769,776,783,800,845,870,885,894,901,907,908,909,910,911,918,923,930,939,954,997,1015,1024,1026,1026,1026,1026,1026,1026,1026,1026,1026,1027,1028,1033,1034,1034,1037,1040,1043,1048,1049,1050,1053,1057,1067],"ymouse":[481,481,481,481,481,481,481,481,481,481,481,481,481,481,481,481,481,481,481,481,481,481,481,481,481,481,479,475,463,427,404,382,363,347,321,316,310,303,294,264,244,218,188,153,96,81,75,74,74,74,74,74,74,74,74,74,74,74,74,74,73,72,71,70,69,69,68,67,65,61],"timestamp_mouse":[11,31,51,71,91,111,131,151,170,191,210,230,250,270,290,310,330,350,370,390,410,430,450,470,490,510,530,551,571,590,610,630,650,670,691,711,731,751,770,790,811,830,851,871,890,911,931,950,970,991,1010,1030,1051,1071,1091,1110,1131,1151,1170,1191,1210,1231,1251,1271,1291,1311,1330,1350,1371,1390],"xSR":741.5,"ySR":458.25,"xT1":424.9,"yT1":0,"xT2":1058.1,"yT2":0,"toosoon":0,"cond_shown":"equaldotanddens","ratio_trial":250,"smaller_num":"3","larger_num":"12","correct_side":2,"subjID":"GabrielaHincapie9","gender":"1","age":"11","school":"6"},{"start_time":1551901888303,"click_time":1551901891235,"finger_time":1551901890354,"fix_duration":727.0673836892187,"trial":32,"RT":2051,"MT":881,"sideResp":1,"stimulus":"img/900/randomdotsizeEA/L/10_Ratio_900_L_20_R_18.png","xmouse":[758,758,758,758,758,758,758,758,758,758,758,758,758,758,758,758,758,758,758,758,758,758,758,758,758,758,758,758,758,758,758,758,758,758,758,758,758,758,758,758,758,758,758,758,758,758,758,758,758,758,758,758,758,758,758,758,758,758,758,758,758,758,758,758,758,758,758,758,758,758,758,758,758,758,758,758,758,758,758,758,758,758,758,758,758,758,758,758,758,758,758,758,758,760,762,763,765,768,770,772,773,775,772,765,753,732,709,677,669,663,657,650,633,625,615,606,596,567,559,552,547,544,540,540,540,540,540,539,539,538,535,535,534,534,534,534,534,534,533,532,531,529,529,529,529,526,520],"ymouse":[536,536,536,536,535,535,535,535,535,535,535,535,535,535,535,535,535,535,535,535,535,535,535,535,535,535,535,535,535,535,535,535,535,535,535,535,535,535,535,535,535,535,535,535,535,535,535,535,535,535,535,535,535,535,535,535,535,535,535,535,535,535,535,535,535,535,535,535,535,535,535,535,535,535,535,535,535,535,535,535,535,535,535,535,535,535,535,535,535,535,535,535,535,533,532,531,529,526,521,516,509,494,458,436,407,372,339,278,260,246,232,217,192,180,168,154,141,101,84,71,62,54,47,46,46,46,46,46,46,46,46,50,64,70,76,82,85,93,98,100,103,105,105,105,105,105,94],"timestamp_mouse":[11,32,51,71,92,111,131,151,172,191,211,233,252,273,293,313,333,353,372,392,412,432,452,472,492,512,532,552,572,592,612,632,652,672,692,711,731,752,771,791,811,831,851,871,891,911,931,951,971,991,1011,1031,1052,1071,1091,1111,1131,1151,1171,1191,1212,1233,1253,1273,1293,1313,1332,1352,1372,1391,1411,1431,1451,1471,1491,1511,1532,1551,1571,1591,1611,1631,1651,1671,1691,1711,1731,1751,1771,1791,1813,1833,1853,1873,1893,1913,1933,1952,1971,1992,2011,2031,2051,2072,2092,2111,2131,2152,2171,2192,2212,2231,2252,2271,2292,2311,2331,2352,2371,2392,2413,2432,2451,2472,2493,2512,2533,2553,2573,2592,2613,2632,2652,2672,2692,2711,2731,2751,2772,2792,2812,2832,2852,2872,2892,2913,2932],"xSR":741.5,"ySR":458.25,"xT1":424.9,"yT1":0,"xT2":1058.1,"yT2":0,"toosoon":0,"cond_shown":"randomdotsizeEA","ratio_trial":900,"smaller_num":"18","larger_num":"20","correct_side":1,"subjID":"GabrielaHincapie9","gender":"1","age":"11","school":"6"},{"start_time":1551901894912,"click_time":1551901896114,"finger_time":1551901895595,"fix_duration":1175.8632489329261,"trial":33,"RT":683,"MT":519,"sideResp":2,"stimulus":"img/500/equaldotsize/R/1_Ratio_500_L_9_R_18.png","xmouse":[793,793,793,793,793,793,793,793,793,793,793,793,793,793,793,793,793,793,793,793,793,793,793,793,793,793,793,793,793,793,793,793,794,800,809,816,826,835,839,843,846,851,857,860,863,867,880,938,981,1025,1066,1101,1136,1141,1142,1142,1143,1148,1150,1151,1151],"ymouse":[494,494,494,494,494,494,494,494,494,494,494,494,494,494,494,494,494,494,494,494,494,494,494,494,494,494,494,494,494,494,494,494,486,471,450,425,393,334,315,299,289,280,268,264,259,252,241,211,193,171,153,138,124,120,119,119,118,110,105,100,96],"timestamp_mouse":[11,23,43,62,82,102,122,142,163,183,203,223,243,262,283,304,324,343,363,383,403,424,443,463,482,502,522,542,562,582,602,623,643,662,683,702,723,742,763,782,802,823,842,862,882,902,922,943,963,982,1003,1023,1042,1063,1083,1102,1123,1143,1163,1182,1202],"xSR":741.5,"ySR":458.25,"xT1":424.9,"yT1":0,"xT2":1058.1,"yT2":0,"toosoon":0,"cond_shown":"equaldotsize","ratio_trial":500,"smaller_num":"9","larger_num":"18","correct_side":2,"subjID":"GabrielaHincapie9","gender":"1","age":"11","school":"6"},{"start_time":1551901898685,"click_time":1551901901314,"finger_time":1551901900274,"fix_duration":409.88385559838827,"trial":34,"RT":1589,"MT":1040,"sideResp":1,"stimulus":"img/900/equaldotanddens/R/14_Ratio_900_L_18_R_20.png","xmouse":[835,835,835,835,835,835,835,835,835,835,835,835,834,834,834,834,834,834,834,834,834,834,834,834,834,834,834,834,834,834,834,834,834,834,834,834,834,834,834,834,834,834,833,832,829,829,829,829,829,829,829,829,828,828,828,828,828,828,828,828,828,828,828,828,828,826,823,822,818,809,807,807,807,807,807,807,806,806,798,785,767,743,721,718,718,718,718,718,720,733,738,741,741,741,742,742,743,744,745,726,659,553,426,258,237,237,237,237,237,237,237,237,237,249,267,284,299,308,324,329,331,331,331,331,331,332,333,338,371,389,408,427],"ymouse":[503,503,503,503,503,503,503,503,503,503,503,503,503,503,503,503,503,503,503,503,503,503,503,503,503,503,503,503,503,503,503,503,503,503,503,503,503,503,503,503,503,503,503,503,503,503,503,503,503,503,503,503,503,503,503,503,503,503,503,503,503,503,503,503,503,503,503,503,503,503,503,503,503,503,503,503,503,502,474,429,364,295,219,169,169,169,169,169,168,168,168,168,168,168,167,167,166,165,165,158,140,124,106,82,80,80,80,80,80,80,80,80,80,80,80,80,80,80,80,80,80,80,80,80,80,80,79,79,79,79,80,83],"timestamp_mouse":[12,29,49,69,89,111,131,150,170,191,210,231,251,269,291,309,330,350,369,389,410,431,451,471,491,510,530,550,570,591,609,629,650,669,689,709,729,750,770,789,811,829,851,870,891,910,931,950,970,991,1010,1030,1050,1069,1089,1109,1130,1149,1169,1189,1209,1229,1250,1269,1289,1309,1331,1349,1369,1390,1409,1429,1450,1469,1489,1509,1530,1550,1570,1589,1609,1629,1650,1669,1690,1709,1730,1749,1770,1789,1809,1829,1849,1870,1889,1909,1930,1950,1970,1990,2010,2031,2049,2069,2090,2110,2131,2150,2170,2190,2210,2230,2251,2269,2289,2309,2329,2350,2370,2389,2411,2431,2451,2470,2490,2509,2529,2549,2570,2589,2610,2629],"xSR":741.5,"ySR":458.25,"xT1":424.9,"yT1":0,"xT2":1058.1,"yT2":0,"toosoon":0,"cond_shown":"equaldotanddens","ratio_trial":900,"smaller_num":"18","larger_num":"20","correct_side":2,"subjID":"GabrielaHincapie9","gender":"1","age":"11","school":"6"},{"start_time":1551901907597,"click_time":1551901908614,"finger_time":1551901908096,"fix_duration":1320.3070023000294,"trial":35,"RT":499,"MT":518,"sideResp":1,"stimulus":"img/250/equaldotanddens/L/5_Ratio_250_L_24_R_6.png","xmouse":[805,805,805,805,805,805,805,805,805,805,805,805,805,805,805,805,805,805,805,805,805,805,805,803,791,780,775,765,763,761,759,757,737,722,699,673,650,608,588,569,555,543,528,525,522,520,517,513,510,507,502],"ymouse":[485,485,485,485,485,485,485,485,485,485,485,485,485,485,485,485,485,485,485,485,485,485,485,472,441,412,391,365,359,356,351,344,310,294,277,262,249,229,221,213,207,202,192,188,183,176,166,138,121,102,84],"timestamp_mouse":[19,39,59,79,98,118,137,157,177,197,217,238,259,277,298,319,338,358,379,397,418,437,458,477,499,519,538,559,579,597,618,638,658,678,698,717,737,757,778,797,817,837,857,878,899,918,937,957,977,997,1017],"xSR":741.5,"ySR":458.25,"xT1":424.9,"yT1":0,"xT2":1058.1,"yT2":0,"toosoon":0,"cond_shown":"equaldotanddens","ratio_trial":250,"smaller_num":"6","larger_num":"24","correct_side":1,"subjID":"GabrielaHincapie9","gender":"1","age":"11","school":"6"},{"start_time":1551901911033,"click_time":1551901912075,"finger_time":1551901911495,"fix_duration":298.3360990003324,"trial":36,"RT":462,"MT":580,"sideResp":2,"stimulus":"img/750/randomdotsizeEA/L/10_Ratio_750_L_4_R_3.png","xmouse":[773,773,773,773,773,773,773,773,773,773,773,773,773,773,773,773,773,773,773,773,773,773,778,785,794,805,811,811,812,813,815,822,828,834,843,857,887,902,915,926,935,957,967,974,981,986,997,1000,1006,1012,1023,1051,1060],"ymouse":[487,487,487,487,487,487,487,487,487,487,487,487,487,487,487,487,487,487,487,487,487,487,477,453,418,377,319,300,288,281,277,268,261,255,245,232,203,188,174,161,147,119,107,100,93,88,80,78,74,70,67,60,59],"timestamp_mouse":[9,37,42,62,82,102,121,141,161,181,201,221,242,261,281,301,322,342,362,382,403,422,442,462,481,503,521,541,561,582,602,622,641,662,681,701,722,743,761,781,802,821,842,862,883,902,921,942,961,981,1002,1021,1042],"xSR":741.5,"ySR":458.25,"xT1":424.9,"yT1":0,"xT2":1058.1,"yT2":0,"toosoon":0,"cond_shown":"randomdotsizeEA","ratio_trial":750,"smaller_num":"3","larger_num":"4","correct_side":1,"subjID":"GabrielaHincapie9","gender":"1","age":"11","school":"6"},{"start_time":1551901913726,"click_time":1551901915076,"finger_time":1551901914475,"fix_duration":829.1384639989279,"trial":37,"RT":749,"MT":601,"sideResp":1,"stimulus":"img/500/equaldotanddens/L/11_Ratio_500_L_12_R_6.png","xmouse":[759,759,759,759,759,759,759,759,759,759,759,759,759,759,759,759,759,759,759,759,759,759,759,759,759,759,759,759,759,759,759,759,759,759,759,759,744,733,722,716,713,707,702,698,692,687,677,666,651,640,627,616,616,616,616,616,616,616,616,616,616,616,616,616,616,616,529,523],"ymouse":[537,537,537,537,537,537,537,537,537,537,537,537,537,537,537,537,537,537,537,537,537,537,537,537,537,537,537,537,537,537,537,537,537,537,537,535,511,497,484,474,469,453,442,430,418,408,384,350,290,206,117,20,20,20,20,20,20,20,20,20,20,20,20,20,20,20,13,20],"timestamp_mouse":[20,40,49,68,90,108,128,149,168,189,210,229,248,270,288,309,329,349,369,388,408,429,448,468,490,508,530,548,570,589,609,628,648,668,690,710,729,749,769,788,808,828,850,869,888,910,928,948,968,989,1009,1029,1049,1070,1089,1109,1130,1150,1169,1189,1209,1229,1249,1269,1289,1309,1329,1350],"xSR":741.5,"ySR":458.25,"xT1":424.9,"yT1":0,"xT2":1058.1,"yT2":0,"toosoon":0,"cond_shown":"equaldotanddens","ratio_trial":500,"smaller_num":"6","larger_num":"12","correct_side":1,"subjID":"GabrielaHincapie9","gender":"1","age":"11","school":"6"},{"start_time":1551901920996,"click_time":1551901922115,"finger_time":1551901921794,"fix_duration":820.7125427276641,"trial":38,"RT":798,"MT":321,"sideResp":1,"stimulus":"img/500/equaldotanddens/L/5_Ratio_500_L_4_R_2.png","xmouse":[785,785,785,785,785,785,785,785,785,785,785,785,785,785,785,785,785,785,785,785,785,785,785,785,785,785,785,785,785,785,785,785,785,785,785,785,785,785,777,770,741,698,551,531,526,525,525,525,525,525,525,525,525,525,525,523],"ymouse":[479,479,479,479,479,479,479,479,479,479,479,479,479,479,479,479,479,479,479,479,479,479,479,479,479,479,479,479,479,479,479,479,479,479,479,479,479,479,463,449,389,297,109,89,81,79,78,78,78,75,72,65,45,37,32,27],"timestamp_mouse":[19,40,59,79,98,118,138,158,179,199,219,240,259,279,298,318,339,360,378,398,420,440,459,478,499,519,538,558,578,598,618,640,658,678,700,718,740,758,779,798,818,839,860,878,898,919,940,959,978,999,1019,1038,1058,1078,1098,1119],"xSR":741.5,"ySR":458.25,"xT1":424.9,"yT1":0,"xT2":1058.1,"yT2":0,"toosoon":0,"cond_shown":"equaldotanddens","ratio_trial":500,"smaller_num":"2","larger_num":"4","correct_side":1,"subjID":"GabrielaHincapie9","gender":"1","age":"11","school":"6"},{"start_time":1551901923876,"click_time":1551901925457,"finger_time":1551901924697,"fix_duration":718.4170747995404,"trial":39,"RT":821,"MT":760,"sideResp":1,"stimulus":"img/900/equaldotsize/R/11_Ratio_900_L_18_R_20.png","xmouse":[777,777,777,779,781,782,782,783,783,783,783,783,783,783,783,783,783,783,783,783,783,783,783,783,783,783,783,783,783,783,783,783,783,783,783,783,783,783,783,784,776,757,727,693,615,595,585,581,578,567,549,531,514,503,494,494,493,493,491,487,485,483,483,483,483,483,483,483,483,480,480,479,478,478,477,475,474,472,471,469],"ymouse":[481,481,484,486,489,489,490,490,490,490,490,490,490,490,490,490,490,490,490,490,490,490,490,490,490,490,490,490,490,490,490,490,490,490,490,490,490,490,490,489,464,435,394,344,269,256,251,248,246,239,230,218,206,198,191,189,188,186,184,169,163,156,153,150,147,146,145,143,139,130,127,125,123,121,116,113,110,106,103,93],"timestamp_mouse":[1,19,41,59,78,98,119,138,160,178,199,218,239,258,278,298,319,339,358,378,399,419,440,459,479,499,519,539,559,579,598,618,638,659,678,698,721,741,760,779,800,821,840,860,879,901,920,941,961,979,1000,1020,1040,1061,1079,1101,1120,1140,1160,1180,1200,1219,1240,1261,1280,1300,1320,1339,1360,1381,1401,1421,1440,1460,1480,1499,1520,1540,1560,1580],"xSR":741.5,"ySR":458.25,"xT1":424.9,"yT1":0,"xT2":1058.1,"yT2":0,"toosoon":0,"cond_shown":"equaldotsize","ratio_trial":900,"smaller_num":"18","larger_num":"20","correct_side":2,"subjID":"GabrielaHincapie9","gender":"1","age":"11","school":"6"},{"start_time":1551901927281,"click_time":1551901929137,"finger_time":1551901928536,"fix_duration":403.2368117678472,"trial":40,"RT":1255,"MT":601,"sideResp":2,"stimulus":"img/900/equaldotanddens/L/1_Ratio_900_L_10_R_9.png","xmouse":[765,765,765,765,765,765,765,765,765,765,765,765,765,765,765,765,765,765,767,770,770,770,770,770,770,770,770,770,770,770,770,770,770,770,770,770,770,770,770,770,770,770,770,770,770,770,770,770,770,770,770,770,770,770,770,770,778,802,808,810,810,810,811,813,815,819,824,831,854,865,873,900,924,971,994,1016,1036,1049,1072,1083,1090,1096,1101,1107,1108,1110,1110,1110,1109,1108,1107,1106,1106],"ymouse":[499,499,499,499,499,499,499,499,499,499,499,499,499,499,499,499,499,499,499,499,499,499,499,499,499,499,499,499,499,499,499,499,499,499,499,499,499,499,499,499,499,499,499,499,499,499,499,499,499,499,499,499,499,499,499,498,488,475,469,464,460,459,458,454,451,444,435,423,396,385,379,363,349,324,314,304,294,283,260,242,226,208,191,166,159,154,151,147,133,124,115,106,96],"timestamp_mouse":[16,39,55,75,95,116,135,155,175,195,216,235,255,274,296,315,334,355,374,395,415,436,455,475,494,516,534,556,575,595,614,634,656,675,695,715,734,756,775,795,815,835,854,875,895,915,935,955,975,995,1015,1035,1056,1074,1096,1116,1135,1156,1175,1196,1216,1235,1255,1275,1295,1315,1335,1354,1374,1394,1414,1435,1456,1475,1495,1515,1535,1555,1575,1595,1615,1634,1656,1675,1696,1715,1735,1755,1775,1796,1815,1836,1856],"xSR":741.5,"ySR":458.25,"xT1":424.9,"yT1":0,"xT2":1058.1,"yT2":0,"toosoon":0,"cond_shown":"equaldotanddens","ratio_trial":900,"smaller_num":"9","larger_num":"10","correct_side":1,"subjID":"GabrielaHincapie9","gender":"1","age":"11","school":"6"},{"start_time":1551901932989,"click_time":1551901933957,"finger_time":1551901933456,"fix_duration":1109.2604389072744,"trial":41,"RT":467,"MT":501,"sideResp":2,"stimulus":"img/750/equaldotsize/R/2_Ratio_750_L_6_R_8.png","xmouse":[805,805,806,806,806,806,806,806,806,806,806,806,806,806,806,806,806,806,806,806,806,816,823,868,882,892,899,903,909,913,916,922,925,942,948,959,968,979,1004,1014,1023,1031,1039,1049,1053,1058,1063,1068,1072],"ymouse":[519,519,518,518,518,518,518,518,518,518,518,518,518,518,518,518,518,518,518,518,518,507,503,477,470,464,459,456,448,441,433,422,406,352,326,299,274,247,191,167,150,137,126,116,113,109,106,101,95],"timestamp_mouse":[9,30,47,67,86,107,127,146,167,187,207,226,248,267,287,307,326,347,367,386,407,428,448,467,486,506,528,548,567,586,607,627,648,666,687,707,727,747,767,788,808,827,847,867,888,906,927,948,968],"xSR":741.5,"ySR":458.25,"xT1":424.9,"yT1":0,"xT2":1058.1,"yT2":0,"toosoon":0,"cond_shown":"equaldotsize","ratio_trial":750,"smaller_num":"6","larger_num":"8","correct_side":2,"subjID":"GabrielaHincapie9","gender":"1","age":"11","school":"6"},{"start_time":1551901936203,"click_time":1551901937656,"finger_time":1551901937056,"fix_duration":1205.8622479756068,"trial":42,"RT":853,"MT":600,"sideResp":1,"stimulus":"img/750/randomdotsizeEA/L/8_Ratio_750_L_4_R_3.png","xmouse":[773,773,773,773,773,773,773,773,773,773,773,773,773,773,773,773,773,773,773,773,773,773,773,772,770,768,766,764,764,764,764,764,764,764,764,764,764,764,764,764,763,758,722,714,712,712,712,735,746,754,756,756,756,756,756,756,756,744,694,629,556,487,449,448,448,448,447,444,443,441,441,441,444],"ymouse":[535,535,535,535,535,535,535,535,535,535,535,535,535,535,535,535,535,535,535,535,535,535,535,529,521,516,510,504,502,502,502,502,502,502,502,502,502,502,502,502,500,494,463,447,431,404,367,261,218,191,183,182,182,182,182,182,182,178,171,163,152,142,137,137,136,134,130,116,107,103,102,100,94],"timestamp_mouse":[14,35,54,73,94,113,133,153,173,193,213,233,253,273,292,313,334,352,373,393,413,433,453,474,493,513,534,553,573,593,613,633,653,673,694,713,733,752,773,793,813,833,853,873,892,913,934,954,972,992,1013,1033,1053,1073,1093,1113,1133,1153,1173,1193,1213,1234,1253,1273,1293,1313,1333,1354,1373,1392,1413,1433,1453],"xSR":741.5,"ySR":458.25,"xT1":424.9,"yT1":0,"xT2":1058.1,"yT2":0,"toosoon":0,"cond_shown":"randomdotsizeEA","ratio_trial":750,"smaller_num":"3","larger_num":"4","correct_side":1,"subjID":"GabrielaHincapie9","gender":"1","age":"11","school":"6"},{"start_time":1551901940924,"click_time":1551901941857,"finger_time":1551901941497,"fix_duration":344.73800846389423,"trial":43,"RT":573,"MT":360,"sideResp":2,"stimulus":"img/900/randomdotsizeEA/L/8_Ratio_900_L_20_R_18.png","xmouse":[787,787,787,787,787,787,787,787,787,787,787,787,787,787,787,787,787,787,787,787,789,797,799,800,801,802,806,815,828,856,900,1003,1048,1083,1102,1114,1120,1120,1120,1120,1120,1120,1120,1120,1120,1120,1121],"ymouse":[507,507,507,507,507,507,507,507,507,507,507,507,507,507,507,507,507,507,507,506,504,498,496,495,494,494,486,467,442,403,352,229,178,139,119,109,104,104,104,104,104,104,104,103,102,100,96],"timestamp_mouse":[13,31,52,72,93,113,132,152,173,191,212,232,252,273,292,312,332,352,373,392,412,431,452,472,493,512,532,552,573,593,613,632,652,671,693,712,732,753,773,792,811,831,851,872,893,912,933],"xSR":741.5,"ySR":458.25,"xT1":424.9,"yT1":0,"xT2":1058.1,"yT2":0,"toosoon":0,"cond_shown":"randomdotsizeEA","ratio_trial":900,"smaller_num":"18","larger_num":"20","correct_side":1,"subjID":"GabrielaHincapie9","gender":"1","age":"11","school":"6"},{"start_time":1551901945733,"click_time":1551901946517,"finger_time":1551901946337,"fix_duration":855.8969751630664,"trial":44,"RT":604,"MT":180,"sideResp":1,"stimulus":"img/900/equaldotsize/L/8_Ratio_900_L_20_R_18.png","xmouse":[788,788,788,788,788,788,788,788,788,788,788,788,788,788,788,788,788,788,788,788,788,788,788,788,788,788,787,786,782,781,781,777,762,736,707,672,581,554,533,519],"ymouse":[495,495,495,495,495,495,495,495,495,495,495,495,495,495,495,495,495,495,495,495,495,495,495,495,490,488,479,473,465,460,452,425,399,362,321,272,148,111,83,65],"timestamp_mouse":[10,38,43,63,83,103,123,142,163,182,203,223,242,264,283,303,323,342,363,383,403,423,443,464,484,504,523,543,563,583,604,622,644,663,683,703,722,743,763,784],"xSR":741.5,"ySR":458.25,"xT1":424.9,"yT1":0,"xT2":1058.1,"yT2":0,"toosoon":0,"cond_shown":"equaldotsize","ratio_trial":900,"smaller_num":"18","larger_num":"20","correct_side":1,"subjID":"GabrielaHincapie9","gender":"1","age":"11","school":"6"},{"start_time":1551901950439,"click_time":1551901951576,"finger_time":1551901951337,"fix_duration":1462.7554462881083,"trial":45,"RT":898,"MT":239,"sideResp":2,"stimulus":"img/250/randomdotsizeEA/R/11_Ratio_250_L_3_R_12.png","xmouse":[773,773,773,773,774,774,774,774,774,774,774,774,774,774,774,774,774,774,774,774,774,774,774,774,774,774,774,774,774,774,774,774,774,774,774,774,774,774,774,776,779,783,785,786,788,813,851,877,887,889,905,931,974,1018,1063,1125,1140],"ymouse":[509,509,509,509,509,509,509,509,509,509,509,509,509,509,509,509,509,509,509,509,509,509,509,509,509,509,509,509,509,509,509,509,509,509,509,509,509,509,509,507,498,490,481,469,456,418,391,375,367,360,322,285,239,198,161,110,95],"timestamp_mouse":[16,36,58,77,97,117,137,157,178,197,217,237,257,277,296,316,338,357,377,398,417,437,457,478,498,516,537,558,578,596,618,638,656,678,697,717,737,757,776,798,817,837,857,878,898,917,937,956,977,998,1018,1037,1057,1077,1097,1116,1137],"xSR":741.5,"ySR":458.25,"xT1":424.9,"yT1":0,"xT2":1058.1,"yT2":0,"toosoon":0,"cond_shown":"randomdotsizeEA","ratio_trial":250,"smaller_num":"3","larger_num":"12","correct_side":2,"subjID":"GabrielaHincapie9","gender":"1","age":"11","school":"6"},{"start_time":1551901969341,"click_time":1551901970416,"finger_time":1551901969956,"fix_duration":321.0924650474194,"trial":46,"RT":615,"MT":460,"sideResp":1,"stimulus":"img/250/randomdotsizeEA/L/14_Ratio_250_L_12_R_3.png","xmouse":[775,775,775,775,775,775,775,775,775,775,775,775,775,775,775,775,775,775,775,775,775,775,775,775,775,775,775,779,786,795,810,816,818,818,804,713,669,636,618,612,605,600,591,575,555,525,525,525,525,525,525,525,525,524],"ymouse":[512,512,512,512,512,512,512,512,512,512,512,512,512,512,512,512,512,512,512,512,512,512,512,512,512,512,512,504,487,470,427,392,349,315,276,195,173,159,150,147,141,133,122,108,96,82,82,82,82,82,82,82,82,81],"timestamp_mouse":[15,36,55,76,94,115,135,154,175,196,215,236,254,276,295,316,335,354,375,395,415,435,456,475,495,515,536,556,576,595,615,635,654,675,696,715,736,755,775,796,815,835,855,875,894,915,935,955,974,995,1015,1035,1056,1075],"xSR":741.5,"ySR":458.25,"xT1":424.9,"yT1":0,"xT2":1058.1,"yT2":0,"toosoon":0,"cond_shown":"randomdotsizeEA","ratio_trial":250,"smaller_num":"3","larger_num":"12","correct_side":1,"subjID":"GabrielaHincapie9","gender":"1","age":"11","school":"6"},{"start_time":1551901972482,"click_time":1551901973856,"finger_time":1551901973176,"fix_duration":763.8377490434019,"trial":47,"RT":694,"MT":680,"sideResp":2,"stimulus":"img/750/equaldotsize/L/6_Ratio_750_L_24_R_18.png","xmouse":[797,797,797,797,797,797,797,797,797,797,797,797,797,797,797,797,797,797,797,797,797,796,796,797,797,797,798,798,800,800,801,802,804,816,828,842,866,888,950,968,983,991,1000,1007,1012,1017,1023,1027,1041,1045,1048,1049,1051,1051,1051,1051,1051,1051,1051,1051,1051,1051,1051,1051,1051,1052,1053,1055,1059],"ymouse":[512,512,512,512,512,512,512,512,512,512,512,512,512,512,512,512,512,512,512,512,512,512,511,509,508,508,507,507,503,502,501,499,493,470,445,412,370,340,264,241,222,202,184,159,148,139,128,122,96,88,80,76,74,74,74,74,74,74,74,74,74,74,74,74,74,74,74,74,74],"timestamp_mouse":[15,34,53,75,94,114,134,154,173,195,214,235,254,274,293,313,334,355,373,395,415,434,455,474,493,514,535,554,574,595,614,635,655,673,694,715,735,755,773,795,815,834,853,874,893,914,934,955,974,995,1014,1035,1054,1074,1094,1114,1134,1153,1174,1195,1214,1234,1254,1274,1294,1313,1334,1354,1374],"xSR":741.5,"ySR":458.25,"xT1":424.9,"yT1":0,"xT2":1058.1,"yT2":0,"toosoon":0,"cond_shown":"equaldotsize","ratio_trial":750,"smaller_num":"18","larger_num":"24","correct_side":1,"subjID":"GabrielaHincapie9","gender":"1","age":"11","school":"6"},{"start_time":1551901978673,"click_time":1551901979296,"finger_time":1551901979056,"fix_duration":495.1027788196505,"trial":48,"RT":383,"MT":240,"sideResp":1,"stimulus":"img/900/randomdotsizeEA/L/10_Ratio_900_L_20_R_18.png","xmouse":[787,787,787,787,787,787,787,787,787,787,787,787,787,787,787,787,787,787,786,782,777,770,745,710,645,613,582,559,537,514,504,497],"ymouse":[531,531,531,531,531,531,531,531,531,531,531,531,531,529,518,507,494,479,464,430,404,380,340,298,226,198,175,158,142,119,103,91],"timestamp_mouse":[10,33,43,64,83,103,123,143,164,182,204,224,244,264,283,304,323,343,364,383,404,423,444,464,483,503,522,544,564,582,604,623],"xSR":741.5,"ySR":458.25,"xT1":424.9,"yT1":0,"xT2":1058.1,"yT2":0,"toosoon":0,"cond_shown":"randomdotsizeEA","ratio_trial":900,"smaller_num":"18","larger_num":"20","correct_side":1,"subjID":"GabrielaHincapie9","gender":"1","age":"11","school":"6"},{"start_time":1551901981911,"click_time":1551901982496,"finger_time":1551901982337,"fix_duration":1252.4811379816983,"trial":49,"RT":426,"MT":159,"sideResp":2,"stimulus":"img/750/randomdotsizeEA/L/14_Ratio_750_L_8_R_6.png","xmouse":[787,787,787,787,787,787,787,787,787,787,787,787,787,787,787,787,787,797,810,826,839,850,882,907,927,947,960,1001,1057,1103],"ymouse":[510,510,510,510,510,510,510,510,510,510,510,510,510,510,510,510,510,498,488,475,462,447,394,349,298,242,196,109,61,39],"timestamp_mouse":[10,25,45,65,85,105,125,144,165,184,206,225,245,265,285,305,325,345,365,386,405,426,445,465,485,505,526,544,565,585],"xSR":741.5,"ySR":458.25,"xT1":424.9,"yT1":0,"xT2":1058.1,"yT2":0,"toosoon":0,"cond_shown":"randomdotsizeEA","ratio_trial":750,"smaller_num":"6","larger_num":"8","correct_side":1,"subjID":"GabrielaHincapie9","gender":"1","age":"11","school":"6"},{"start_time":1551901984307,"click_time":1551901985137,"finger_time":1551901984596,"fix_duration":509.74056258639354,"trial":50,"RT":289,"MT":541,"sideResp":1,"stimulus":"img/750/equaldotanddens/R/15_Ratio_750_L_9_R_12.png","xmouse":[788,789,791,792,792,792,792,792,792,792,792,792,792,790,787,783,780,768,745,713,685,655,616,603,600,600,600,600,600,598,597,593,583,578,575,570,566,556,547,533,522,514],"ymouse":[486,484,483,482,482,482,482,482,482,482,482,482,477,468,457,442,424,378,329,285,246,209,172,164,163,163,163,163,163,162,160,157,148,143,140,137,134,129,122,113,104,97],"timestamp_mouse":[11,31,49,69,89,110,129,149,170,189,209,229,249,270,289,310,331,349,370,390,411,430,450,470,491,510,530,551,571,590,611,630,650,670,691,710,731,750,769,791,810,830],"xSR":741.5,"ySR":458.25,"xT1":424.9,"yT1":0,"xT2":1058.1,"yT2":0,"toosoon":0,"cond_shown":"equaldotanddens","ratio_trial":750,"smaller_num":"9","larger_num":"12","correct_side":2,"subjID":"GabrielaHincapie9","gender":"1","age":"11","school":"6"},{"start_time":1551901986449,"click_time":1551901987257,"finger_time":1551901986797,"fix_duration":250.78523109155947,"trial":51,"RT":348,"MT":460,"sideResp":2,"stimulus":"img/750/equaldotanddens/L/1_Ratio_750_L_20_R_15.png","xmouse":[786,786,786,786,786,786,786,786,786,786,786,786,786,786,787,787,790,803,823,849,885,901,907,911,913,915,919,928,937,950,986,1000,1013,1026,1040,1060,1067,1071,1073,1074,1074],"ymouse":[500,500,500,500,500,500,500,500,500,500,500,500,500,500,500,487,468,432,398,362,319,301,296,293,293,292,291,289,286,280,258,246,227,203,180,136,119,110,104,100,99],"timestamp_mouse":[9,37,49,69,87,109,128,148,168,188,209,228,248,267,288,308,327,348,368,388,408,427,448,469,488,508,528,548,568,587,608,628,647,668,689,708,728,749,767,789,808],"xSR":741.5,"ySR":458.25,"xT1":424.9,"yT1":0,"xT2":1058.1,"yT2":0,"toosoon":0,"cond_shown":"equaldotanddens","ratio_trial":750,"smaller_num":"15","larger_num":"20","correct_side":1,"subjID":"GabrielaHincapie9","gender":"1","age":"11","school":"6"},{"start_time":1551901988729,"click_time":1551901989578,"finger_time":1551901989057,"fix_duration":308.6731344992849,"trial":52,"RT":328,"MT":521,"sideResp":2,"stimulus":"img/900/equaldotsize/L/10_Ratio_900_L_20_R_18.png","xmouse":[809,809,809,809,809,809,809,809,809,809,809,809,809,809,810,813,825,841,849,860,871,887,896,904,916,922,927,928,929,932,938,957,972,989,1011,1032,1068,1080,1082,1084,1086,1094,1098],"ymouse":[480,480,480,480,480,480,480,480,480,480,480,480,480,480,480,476,452,413,383,349,304,255,236,221,207,201,196,196,195,194,192,185,181,174,165,155,134,124,120,119,114,102,93],"timestamp_mouse":[9,42,48,69,87,108,129,148,168,187,208,227,248,268,288,309,328,348,368,388,408,429,448,468,488,508,528,548,568,588,609,628,648,668,688,709,728,747,769,789,808,829,849],"xSR":741.5,"ySR":458.25,"xT1":424.9,"yT1":0,"xT2":1058.1,"yT2":0,"toosoon":0,"cond_shown":"equaldotsize","ratio_trial":900,"smaller_num":"18","larger_num":"20","correct_side":1,"subjID":"GabrielaHincapie9","gender":"1","age":"11","school":"6"},{"start_time":1551901990905,"click_time":1551901991857,"finger_time":1551901991257,"fix_duration":266.72873546163976,"trial":53,"RT":352,"MT":600,"sideResp":1,"stimulus":"img/250/randomdotsizeEA/L/5_Ratio_250_L_24_R_6.png","xmouse":[769,770,771,772,774,774,774,774,774,774,774,774,774,774,775,775,774,767,761,749,729,705,670,660,654,650,644,630,619,606,591,571,539,531,527,527,527,527,527,526,526,526,526,526,526,526,526,523],"ymouse":[490,490,490,489,488,488,488,488,488,488,488,488,488,488,487,486,482,456,415,371,316,274,226,212,205,202,200,190,181,172,162,151,136,132,131,131,131,131,131,130,128,124,114,108,103,97,92,84],"timestamp_mouse":[12,35,52,73,92,112,132,153,172,192,213,231,252,273,292,313,332,352,373,392,412,433,452,472,492,512,532,553,572,592,611,632,652,672,692,712,733,752,772,791,812,832,852,873,892,913,931,952],"xSR":741.5,"ySR":458.25,"xT1":424.9,"yT1":0,"xT2":1058.1,"yT2":0,"toosoon":0,"cond_shown":"randomdotsizeEA","ratio_trial":250,"smaller_num":"6","larger_num":"24","correct_side":1,"subjID":"GabrielaHincapie9","gender":"1","age":"11","school":"6"},{"start_time":1551901994215,"click_time":1551901995318,"finger_time":1551901994917,"fix_duration":1036.3329047987465,"trial":54,"RT":702,"MT":401,"sideResp":1,"stimulus":"img/250/randomdotsizeEA/L/3_Ratio_250_L_8_R_2.png","xmouse":[781,781,781,781,781,781,782,782,782,783,783,783,783,783,783,783,783,783,783,783,783,783,783,783,783,783,783,783,783,783,783,783,783,782,781,778,772,756,746,735,722,706,665,634,622,614,608,599,596,592,588,582,550,536,525,522],"ymouse":[496,496,496,496,496,496,496,496,496,496,496,495,492,491,489,487,486,483,481,480,479,478,476,475,475,475,475,474,473,472,472,470,468,464,460,451,439,409,393,373,356,333,269,216,195,177,164,145,139,133,126,119,99,91,86,85],"timestamp_mouse":[9,22,42,63,83,102,122,142,163,183,202,223,241,262,282,302,322,342,362,382,402,423,443,462,482,503,521,543,562,582,603,623,641,662,683,702,723,742,763,782,802,822,842,863,882,903,922,942,962,982,1003,1023,1042,1062,1082,1103],"xSR":741.5,"ySR":458.25,"xT1":424.9,"yT1":0,"xT2":1058.1,"yT2":0,"toosoon":0,"cond_shown":"randomdotsizeEA","ratio_trial":250,"smaller_num":"2","larger_num":"8","correct_side":1,"subjID":"GabrielaHincapie9","gender":"1","age":"11","school":"6"},{"start_time":1551901996410,"click_time":1551901997857,"finger_time":1551901997357,"fix_duration":250,"trial":55,"RT":947,"MT":500,"sideResp":2,"stimulus":"img/900/equaldotsize/L/2_Ratio_900_L_20_R_18.png","xmouse":[795,796,796,796,796,796,796,796,796,796,796,796,796,796,796,796,796,796,796,796,796,796,796,796,796,796,796,796,796,796,796,796,796,796,796,796,796,796,796,796,796,796,796,796,798,803,808,821,859,917,976,1024,1065,1066,1066,1066,1066,1066,1067,1067,1069,1071,1075,1075,1076,1078,1079,1083,1085,1086,1087,1088,1090],"ymouse":[477,477,477,477,477,477,477,477,477,477,477,477,477,477,477,477,477,477,477,477,477,477,477,477,477,477,477,477,477,477,477,477,477,477,477,477,477,477,477,477,477,477,477,477,477,471,462,425,369,315,263,227,194,193,193,193,193,193,192,191,185,178,160,153,149,140,132,120,113,108,105,102,97],"timestamp_mouse":[10,30,47,67,87,108,127,147,167,188,207,227,247,268,288,307,326,347,366,387,407,428,447,468,486,508,528,547,567,588,607,627,647,667,688,708,728,747,767,787,807,827,847,868,887,908,928,947,967,987,1007,1027,1047,1067,1088,1107,1128,1147,1167,1188,1207,1227,1246,1267,1289,1307,1327,1348,1367,1387,1407,1426,1446],"xSR":741.5,"ySR":458.25,"xT1":424.9,"yT1":0,"xT2":1058.1,"yT2":0,"toosoon":0,"cond_shown":"equaldotsize","ratio_trial":900,"smaller_num":"18","larger_num":"20","correct_side":1,"subjID":"GabrielaHincapie9","gender":"1","age":"11","school":"6"},{"start_time":1551901999569,"click_time":1551902000917,"finger_time":1551902000057,"fix_duration":729.7407058746452,"trial":56,"RT":488,"MT":860,"sideResp":2,"stimulus":"img/250/equaldotsize/R/11_Ratio_250_L_3_R_12.png","xmouse":[820,820,820,820,818,816,812,805,797,776,767,763,761,761,761,761,761,761,761,760,760,760,760,760,758,757,756,756,756,756,756,756,756,756,756,756,756,756,756,756,757,759,762,765,784,796,808,816,823,833,842,848,855,862,900,923,942,961,979,1007,1016,1023,1033,1040,1049,1051,1054,1059],"ymouse":[507,507,507,507,507,507,507,506,505,502,500,499,498,498,498,498,498,498,498,495,492,488,482,475,456,451,449,449,449,449,449,449,449,449,449,449,449,449,449,449,453,460,464,471,488,496,501,503,503,503,495,484,465,441,321,265,219,183,156,118,108,102,97,94,89,88,88,88],"timestamp_mouse":[9,33,48,68,88,108,128,148,169,188,208,229,248,268,288,308,328,348,369,388,409,428,448,469,488,508,529,549,567,588,609,628,648,668,688,708,729,748,769,788,808,828,848,867,888,908,929,949,969,987,1008,1028,1047,1069,1089,1108,1128,1148,1169,1188,1208,1228,1249,1268,1288,1308,1328,1348],"xSR":741.5,"ySR":458.25,"xT1":424.9,"yT1":0,"xT2":1058.1,"yT2":0,"toosoon":0,"cond_shown":"equaldotsize","ratio_trial":250,"smaller_num":"3","larger_num":"12","correct_side":2,"subjID":"GabrielaHincapie9","gender":"1","age":"11","school":"6"},{"start_time":1551902002288,"click_time":1551902004018,"finger_time":1551902003157,"fix_duration":430.8361105644871,"trial":57,"RT":869,"MT":861,"sideResp":2,"stimulus":"img/250/equaldotanddens/R/4_Ratio_250_L_3_R_12.png","xmouse":[795,794,794,794,794,794,794,794,794,794,794,794,794,794,794,794,794,794,794,794,794,794,794,794,794,794,794,794,794,794,794,794,794,794,796,796,798,799,803,805,807,808,811,814,815,816,817,819,821,822,824,826,830,850,866,882,894,900,905,909,917,924,931,943,951,960,967,970,977,985,987,987,987,987,987,988,993,1000,1017,1025,1029,1033,1036,1042,1047,1053,1062],"ymouse":[493,494,494,495,495,496,496,496,496,496,496,496,496,496,496,496,496,496,496,496,496,496,496,496,496,496,496,496,496,496,496,496,496,495,494,494,491,490,483,478,473,466,459,442,437,434,430,428,424,421,417,413,405,377,364,353,345,340,336,333,329,325,320,305,292,272,248,224,186,172,170,169,169,169,168,168,166,165,162,161,159,156,152,136,126,109,91],"timestamp_mouse":[9,38,49,69,89,109,130,150,169,189,209,229,248,269,288,309,330,350,370,388,409,428,449,470,489,509,529,550,569,589,610,630,648,669,689,709,729,749,769,789,809,830,850,869,889,908,929,950,969,990,1009,1029,1050,1069,1090,1109,1129,1149,1169,1189,1209,1229,1249,1269,1289,1310,1329,1349,1370,1389,1408,1430,1449,1469,1489,1510,1529,1550,1569,1589,1610,1630,1650,1669,1689,1710,1730],"xSR":741.5,"ySR":458.25,"xT1":424.9,"yT1":0,"xT2":1058.1,"yT2":0,"toosoon":0,"cond_shown":"equaldotanddens","ratio_trial":250,"smaller_num":"3","larger_num":"12","correct_side":2,"subjID":"GabrielaHincapie9","gender":"1","age":"11","school":"6"},{"start_time":1551902005727,"click_time":1551902006857,"finger_time":1551902006297,"fix_duration":869.1928321646017,"trial":58,"RT":570,"MT":560,"sideResp":2,"stimulus":"img/500/equaldotsize/R/6_Ratio_500_L_9_R_18.png","xmouse":[785,785,785,785,785,785,785,785,785,785,785,785,785,785,785,785,785,785,785,785,785,786,787,787,788,788,790,792,795,799,803,814,819,823,829,835,861,885,901,916,926,945,952,957,961,968,991,1003,1017,1028,1036,1046,1047,1049,1050,1051,1059],"ymouse":[481,481,480,480,480,480,480,480,480,480,480,480,480,480,480,480,480,480,480,480,480,479,478,477,475,473,467,461,451,438,425,398,386,377,367,358,339,325,318,310,302,285,278,269,261,249,200,175,152,132,118,96,91,89,86,83,74],"timestamp_mouse":[10,40,50,71,90,109,131,151,169,190,210,230,250,270,291,311,329,349,369,389,410,431,451,471,491,510,530,551,570,590,611,630,651,670,690,711,730,751,769,790,810,830,851,870,890,910,931,950,970,991,1010,1029,1051,1070,1090,1111,1129],"xSR":741.5,"ySR":458.25,"xT1":424.9,"yT1":0,"xT2":1058.1,"yT2":0,"toosoon":0,"cond_shown":"equaldotsize","ratio_trial":500,"smaller_num":"9","larger_num":"18","correct_side":2,"subjID":"GabrielaHincapie9","gender":"1","age":"11","school":"6"},{"start_time":1551902010754,"click_time":1551902011897,"finger_time":1551902011637,"fix_duration":1216.1247065708055,"trial":59,"RT":883,"MT":260,"sideResp":2,"stimulus":"img/750/equaldotsize/L/1_Ratio_750_L_20_R_15.png","xmouse":[788,788,789,790,792,796,798,800,800,801,801,802,802,802,802,802,802,802,802,802,802,802,801,801,801,801,801,801,801,801,801,801,801,801,801,801,801,801,801,801,801,804,810,816,822,876,913,948,974,992,1009,1015,1022,1025,1029,1045,1056,1066],"ymouse":[524,524,524,524,524,523,522,521,520,520,518,517,516,515,515,514,514,513,512,510,509,508,506,506,506,506,506,506,506,506,506,506,506,506,506,506,506,506,506,506,502,495,485,472,456,376,324,272,218,168,110,91,80,75,69,53,44,35],"timestamp_mouse":[10,31,42,64,83,103,123,144,163,183,203,223,244,263,284,302,324,343,363,383,403,423,444,462,483,503,523,543,564,583,603,624,644,664,683,703,724,742,763,783,803,823,844,863,883,903,923,943,964,984,1003,1022,1043,1063,1083,1103,1123,1143],"xSR":741.5,"ySR":458.25,"xT1":424.9,"yT1":0,"xT2":1058.1,"yT2":0,"toosoon":0,"cond_shown":"equaldotsize","ratio_trial":750,"smaller_num":"15","larger_num":"20","correct_side":1,"subjID":"GabrielaHincapie9","gender":"1","age":"11","school":"6"},{"start_time":1551902013586,"click_time":1551902015257,"finger_time":1551902014217,"fix_duration":847.3157840491326,"trial":60,"RT":631,"MT":1040,"sideResp":2,"stimulus":"img/250/equaldotsize/R/8_Ratio_250_L_1_R_4.png","xmouse":[777,777,777,777,777,777,777,777,777,777,777,777,777,777,776,776,775,775,775,775,775,775,775,775,775,774,774,774,772,771,771,771,770,770,770,770,770,770,769,769,769,769,769,769,769,769,771,774,783,787,790,793,794,796,798,802,805,808,813,815,817,819,821,827,830,834,841,848,861,869,873,878,881,884,887,891,909,939,1021,1060,1085,1099,1107,1112],"ymouse":[501,501,501,501,501,501,501,501,501,501,501,498,495,493,489,488,488,487,487,487,487,487,487,487,487,485,483,479,468,464,460,456,454,454,454,453,453,451,448,446,444,443,442,438,436,432,429,425,415,412,409,408,407,403,400,396,392,390,386,384,383,382,381,377,374,369,362,349,318,302,290,284,279,276,273,268,257,239,186,156,132,114,102,92],"timestamp_mouse":[10,35,51,70,92,112,130,151,171,192,211,231,252,270,291,310,331,352,372,391,411,431,451,472,491,512,531,551,570,592,611,631,651,670,692,711,731,752,771,791,810,832,852,871,892,911,931,951,972,991,1011,1031,1050,1070,1091,1111,1132,1151,1170,1191,1212,1231,1251,1271,1291,1312,1331,1352,1371,1392,1412,1432,1451,1471,1491,1511,1530,1551,1572,1591,1611,1631,1652,1671],"xSR":741.5,"ySR":458.25,"xT1":424.9,"yT1":0,"xT2":1058.1,"yT2":0,"toosoon":0,"cond_shown":"equaldotsize","ratio_trial":250,"smaller_num":"1","larger_num":"4","correct_side":2,"subjID":"GabrielaHincapie9","gender":"1","age":"11","school":"6"},{"start_time":1551902017533,"click_time":1551902018837,"finger_time":1551902017977,"fix_duration":1473.753269234069,"trial":61,"RT":444,"MT":860,"sideResp":1,"stimulus":"img/750/equaldotanddens/L/14_Ratio_750_L_8_R_6.png","xmouse":[790,790,790,790,790,790,790,790,790,790,790,790,790,791,791,791,793,793,793,796,797,804,807,812,816,820,826,833,841,851,863,884,892,899,908,918,940,944,945,945,945,940,933,925,913,897,857,827,807,787,768,731,715,699,682,666,625,606,591,576,562,540,532,528,525,520],"ymouse":[511,511,511,511,510,510,509,509,509,509,509,508,508,507,506,505,503,503,500,496,491,469,457,440,426,412,377,340,311,281,248,210,197,184,173,164,149,145,145,145,145,145,145,145,145,145,145,145,142,139,136,130,128,126,124,122,116,112,110,108,106,103,100,99,98,95],"timestamp_mouse":[8,37,44,63,84,105,124,144,164,185,204,224,245,265,283,304,324,344,364,384,404,424,444,464,484,505,524,544,564,585,604,624,644,664,684,705,724,744,764,785,805,823,843,864,884,905,924,945,964,984,1005,1025,1044,1063,1084,1104,1124,1144,1164,1184,1204,1225,1243,1264,1284,1304],"xSR":741.5,"ySR":458.25,"xT1":424.9,"yT1":0,"xT2":1058.1,"yT2":0,"toosoon":0,"cond_shown":"equaldotanddens","ratio_trial":750,"smaller_num":"6","larger_num":"8","correct_side":1,"subjID":"GabrielaHincapie9","gender":"1","age":"11","school":"6"},{"start_time":1551902022165,"click_time":1551902023657,"finger_time":1551902022856,"fix_duration":366.4187606481193,"trial":62,"RT":691,"MT":801,"sideResp":2,"stimulus":"img/900/equaldotsize/L/4_Ratio_900_L_20_R_18.png","xmouse":[790,790,790,790,790,790,790,790,790,790,790,790,790,790,790,790,790,790,790,790,790,790,790,790,790,790,790,790,790,790,790,790,791,792,794,794,795,797,800,810,817,825,833,850,891,918,987,1050,1116,1211,1228,1230,1230,1230,1230,1230,1230,1230,1229,1224,1217,1210,1203,1196,1179,1174,1170,1169,1168,1168,1168,1168,1166,1164,1150],"ymouse":[514,514,514,514,514,514,514,514,514,514,514,514,514,514,514,514,514,514,514,514,514,514,514,514,514,514,514,514,514,512,507,499,491,482,454,441,430,415,402,381,372,362,350,325,276,241,187,146,107,62,54,53,53,53,53,53,53,53,53,53,53,53,53,53,53,53,53,53,53,53,53,53,53,53,53],"timestamp_mouse":[13,41,53,71,92,113,132,153,171,193,213,232,253,272,292,312,332,353,372,391,413,433,451,473,492,512,533,553,572,593,613,632,652,673,691,712,732,753,772,792,812,832,851,872,892,912,932,953,972,992,1013,1033,1053,1073,1093,1112,1132,1152,1171,1192,1212,1233,1252,1273,1293,1313,1332,1353,1372,1393,1412,1431,1452,1472,1492],"xSR":741.5,"ySR":458.25,"xT1":424.9,"yT1":0,"xT2":1058.1,"yT2":0,"toosoon":0,"cond_shown":"equaldotsize","ratio_trial":900,"smaller_num":"18","larger_num":"20","correct_side":1,"subjID":"GabrielaHincapie9","gender":"1","age":"11","school":"6"},{"start_time":1551902027064,"click_time":1551902028357,"finger_time":1551902027896,"fix_duration":985.7800141099827,"trial":63,"RT":832,"MT":461,"sideResp":2,"stimulus":"img/250/equaldotanddens/R/6_Ratio_250_L_6_R_24.png","xmouse":[764,764,764,764,764,764,764,763,763,763,763,763,763,763,763,763,763,763,763,763,763,763,763,763,763,763,763,762,762,762,761,761,761,761,761,761,761,761,761,761,762,765,776,810,905,952,997,1026,1048,1059,1059,1059,1059,1059,1059,1059,1059,1059,1059,1059,1059,1059,1059,1059,1073],"ymouse":[487,487,487,486,486,485,485,483,483,483,483,483,483,483,483,483,482,482,482,482,482,482,482,482,482,482,482,480,479,479,479,478,478,478,478,478,478,478,476,471,465,456,435,391,279,216,155,105,56,0,0,0,0,0,0,0,0,0,0,0,0,0,0,0,19],"timestamp_mouse":[29,33,53,74,93,114,133,153,174,193,213,234,252,273,293,313,332,353,374,393,413,433,454,473,493,513,532,553,573,593,614,634,653,674,693,713,733,753,772,792,812,832,853,872,893,913,933,953,973,993,1013,1034,1053,1072,1094,1114,1134,1153,1174,1193,1212,1234,1253,1273,1292],"xSR":741.5,"ySR":458.25,"xT1":424.9,"yT1":0,"xT2":1058.1,"yT2":0,"toosoon":0,"cond_shown":"equaldotanddens","ratio_trial":250,"smaller_num":"6","larger_num":"24","correct_side":2,"subjID":"GabrielaHincapie9","gender":"1","age":"11","school":"6"},{"start_time":1551902029572,"click_time":1551902030697,"finger_time":1551902030257,"fix_duration":253.1926167487767,"trial":64,"RT":685,"MT":440,"sideResp":1,"stimulus":"img/900/equaldotanddens/L/8_Ratio_900_L_20_R_18.png","xmouse":[817,817,817,817,817,817,817,817,817,817,817,817,817,817,817,817,817,817,817,817,817,817,817,817,817,817,817,817,817,817,815,814,810,804,771,753,736,721,703,672,661,652,645,642,638,630,622,609,594,565,556,549,544,540,529,517,510],"ymouse":[504,504,504,504,504,504,504,504,504,504,504,504,504,504,504,504,504,504,504,504,504,504,504,504,504,504,504,504,504,504,501,498,490,477,427,403,378,356,331,285,269,257,250,246,240,231,221,208,193,161,148,137,129,124,111,101,95],"timestamp_mouse":[10,34,46,65,84,106,125,145,166,185,206,225,244,266,285,305,325,345,364,385,405,426,445,465,484,505,525,545,565,585,605,625,645,665,685,7