[{"start_time":1551793946007,"click_time":1551793948753,"finger_time":1551793946015,"fix_duration":1409.9296345342173,"trial":0,"RT":8,"MT":2738,"sideResp":2,"stimulus":[],"xmouse":[1494,1494,1494,1494,1491,1482,1465,1459,1458,1458,1458,1458,1458,1458,1458,1458,1458,1458,1458,1458,1458,1458,1458,1458,1458,1458,1458,1458,1448,1428,1397,1357,1299,1285,1276,1271,1269,1279,1295,1309,1316,1315,1306,1292,1272,1237,1159,939,894,879,875,873,873,873,871,869,864,844,840,838,838,838,838,838,836,836,836,841,844,844,844,843,832,830,830,830,829,801,786,773,766,766,766,766,766,766,766,766,766,766,766,766,766,766,766,766,765,767,771,772,773,773,773,774,774,774,774,776,778,779,782,783,783,783,783,783,783,787,791,797,804,816,854,876,893,905,911,919,921,924,930,938,968,981,998,1019,1038,1078],"ymouse":[458,458,458,458,457,456,451,450,450,450,450,450,450,450,450,450,450,450,450,450,450,450,450,450,450,450,450,450,453,464,472,480,488,493,496,498,500,523,542,558,573,602,620,638,652,660,668,673,673,673,673,673,673,673,673,660,643,599,591,588,588,588,588,587,585,582,578,569,564,558,551,543,530,528,528,528,527,517,512,506,503,503,503,503,503,503,503,503,503,503,503,503,503,503,503,503,503,510,514,516,516,516,516,516,516,516,516,517,517,517,517,518,518,518,518,518,518,518,518,518,518,518,504,493,482,474,469,461,457,449,433,414,309,251,198,154,122,77],"timestamp_mouse":[7,25,45,65,85,105,128,146,165,185,205,226,245,265,285,306,328,345,365,384,404,426,444,465,485,506,526,544,566,585,605,626,645,665,685,705,725,745,766,786,806,828,844,866,885,906,925,945,966,985,1006,1028,1045,1066,1085,1105,1124,1145,1165,1186,1205,1228,1246,1264,1286,1306,1325,1345,1365,1385,1406,1425,1445,1465,1486,1505,1526,1546,1565,1584,1606,1625,1644,1666,1686,1706,1726,1745,1765,1785,1805,1825,1845,1864,1885,1906,1925,1945,1965,1986,2004,2024,2045,2064,2085,2105,2126,2145,2165,2186,2205,2226,2245,2265,2285,2305,2325,2346,2365,2385,2406,2424,2445,2465,2486,2505,2526,2546,2565,2585,2605,2625,2645,2665,2686,2705,2726,2746],"xSR":741.5,"ySR":501.8,"xT1":424.9,"yT1":0,"xT2":1058.1,"yT2":0,"toosoon":0,"cond_shown":"Incongruent","ratio_trial":200,"L_num":6,"L_den":20,"R_num":3,"R_den":6,"correct_side":2,"subjID":"GabrielAlbertoRodriguezRoncancio8","gender":"0","age":"11","school":"6","test":{"fix_dur":[250,1500],"timestim":1000,"targets_dim":[100,100],"targets_relative_coord":[0.3,0.7],"size_stim":[880,420],"start_dim":[100,100],"size_start":[300,300],"size_fix":60,"samplingrate":20,"img_types":["Congruent","Incongruent"],"ratios":[100,200,300],"rep_conds":19,"nTrials":120,"trials_to_rest":500,"Trials_order":[93,17,84,74,57,65,114,39,108,40,61,25,82,79,36,41,28,73,106,69,80,62,89,3,91,14,0,102,71,29,44,66,55,45,117,56,32,23,6,88,85,49,110,72,54,50,15,35,64,113,9,116,43,1,104,52,77,34,20,59,60,2,68,38,98,26,86,37,46,76,83,10,81,105,5,99,53,90,115,12,47,75,87,11,27,16,112,78,19,101,95,21,103,63,48,7,109,107,42,111,67,100,8,94,33,51,13,4,70,92,58,118,31,22,24,30,119,96,18,97],"cond_shown":["Incongruent","Incongruent","Congruent","Congruent","Incongruent","Incongruent","Congruent","Incongruent","Congruent","Congruent","Incongruent","Incongruent","Congruent","Incongruent","Congruent","Incongruent","Congruent","Incongruent","Congruent","Incongruent","Congruent","Congruent","Incongruent","Incongruent","Incongruent","Congruent","Congruent","Congruent","Incongruent","Incongruent","Congruent","Congruent","Incongruent","Incongruent","Incongruent","Congruent","Congruent","Incongruent","Congruent","Congruent","Incongruent","Incongruent","Congruent","Congruent","Congruent","Congruent","Incongruent","Incongruent","Congruent","Incongruent","Incongruent","Congruent","Incongruent","Incongruent","Congruent","Congruent","Incongruent","Congruent","Congruent","Incongruent","Congruent","Congruent","Congruent","Congruent","Congruent","Congruent","Congruent","Incongruent","Congruent","Congruent","Incongruent","Congruent","Incongruent","Incongruent","Incongruent","Incongruent","Incongruent","Congruent","Incongruent","Congruent","Incongruent","Incongruent","Incongruent","Incongruent","Incongruent","Congruent","Congruent","Congruent","Incongruent","Incongruent","Incongruent","Incongruent","Incongruent","Incongruent","Congruent","Incongruent","Incongruent","Incongruent","Congruent","Incongruent","Incongruent","Congruent","Congruent","Congruent","Incongruent","Incongruent","Incongruent","Congruent","Congruent","Congruent","Congruent","Congruent","Incongruent","Congruent","Congruent","Congruent","Incongruent","Congruent","Congruent","Incongruent"],"ratio_trial":[200,300,100,200,200,300,100,200,100,300,100,100,300,100,100,300,300,100,300,200,200,200,300,200,100,200,100,100,300,300,200,100,100,200,200,200,200,300,100,300,100,100,200,100,100,200,200,300,300,300,200,200,100,100,200,300,300,300,200,300,100,200,200,200,200,200,200,100,300,300,300,300,200,200,300,200,300,100,100,100,300,200,200,300,200,300,300,100,100,300,300,200,100,200,100,100,100,300,100,200,100,300,200,300,200,200,100,300,300,200,300,300,100,300,100,100,300,100,100,100],"left_num":[6,4,9,13,7,4,3,4,1,2,3,13,5,17,11,13,1,8,8,7,7,7,13,1,8,3,6,4,4,2,12,9,13,7,14,1,7,1,2,20,3,3,6,1,7,15,7,4,20,7,3,3,4,6,3,18,4,20,6,4,10,12,7,13,4,3,12,6,18,9,4,18,1,4,4,1,4,4,4,4,8,3,3,1,11,7,2,1,13,4,4,3,1,3,1,2,9,4,3,14,10,1,13,20,3,14,12,2,1,3,20,24,4,20,15,9,4,10,11,3],"right_num":[3,6,8,14,4,2,2,6,3,10,11,12,7,10,6,12,11,6,1,6,18,18,12,3,1,11,15,15,2,6,6,8,12,6,12,21,2,3,11,8,7,4,11,3,9,4,12,2,5,8,11,14,8,3,14,9,8,13,3,2,3,6,2,14,3,9,6,13,9,3,6,9,2,6,8,3,2,6,8,6,14,1,11,3,3,20,10,18,6,2,6,11,8,11,18,6,20,2,2,6,9,6,14,9,1,12,2,12,19,14,13,8,8,9,13,8,6,3,4,4],"left_den":[20,5,15,26,15,20,6,5,2,20,5,26,25,30,22,26,5,16,16,15,15,15,26,2,20,10,12,10,20,4,15,15,26,15,30,2,21,2,5,25,9,6,20,2,14,25,10,20,25,10,4,10,8,12,10,20,5,25,15,20,25,15,21,26,8,12,15,10,20,10,5,20,3,5,5,2,20,8,8,8,10,10,4,2,20,14,20,2,26,20,5,4,2,4,2,4,10,20,6,30,25,5,26,25,10,30,30,10,3,6,25,30,8,25,25,15,5,25,22,6],"right_den":[6,12,16,20,6,4,5,10,5,25,22,20,14,15,15,15,22,10,5,9,27,27,15,10,2,22,25,30,4,30,10,16,20,9,18,30,15,15,22,16,30,10,22,5,15,10,24,4,10,20,20,28,20,5,28,15,16,26,15,4,10,10,15,20,10,20,10,26,15,5,12,15,15,10,16,10,4,10,20,10,28,2,20,15,4,25,25,30,10,4,12,20,20,20,30,15,25,4,5,9,18,12,20,18,2,18,4,24,30,20,26,16,20,18,26,16,12,10,10,10],"correct_side":[2,1,1,2,2,2,1,1,2,2,1,2,2,2,1,2,2,2,1,2,2,2,2,1,2,2,2,2,2,1,1,1,2,2,2,2,1,1,2,1,1,1,2,2,2,1,1,2,1,1,1,2,1,2,2,1,1,1,1,2,1,1,1,2,1,2,1,1,1,1,1,1,1,1,1,1,2,2,1,2,1,2,1,1,2,2,2,2,2,2,1,1,1,1,2,1,1,2,1,2,2,2,2,1,2,2,2,2,2,2,1,1,1,1,1,1,1,1,1,1],"img_shown":["img2/200/Incongruent/R/I_Dist_200_LN_6_LD_20_RN_3_RD_6_1.png","img2/300/Incongruent/L/I_Dist_300_LN_4_LD_5_RN_6_RD_12_0.png","img2/100/Congruent/L/C_Dist_100_LN_9_LD_15_RN_8_RD_16_0.png","img2/200/Congruent/R/C_Dist_200_LN_13_LD_26_RN_14_RD_20_1.png","img2/200/Incongruent/R/I_Dist_200_LN_7_LD_15_RN_4_RD_6_1.png","img2/300/Incongruent/R/I_Dist_300_LN_4_LD_20_RN_2_RD_4_1.png","img2/100/Congruent/L/C_Dist_100_LN_3_LD_6_RN_2_RD_5_0.png","img2/200/Incongruent/L/I_Dist_200_LN_4_LD_5_RN_6_RD_10_0.png","img2/100/Congruent/R/C_Dist_100_LN_1_LD_2_RN_3_RD_5_1.png","img2/300/Congruent/R/C_Dist_300_LN_2_LD_20_RN_10_RD_25_1.png","img2/100/Incongruent/L/I_Dist_100_LN_3_LD_5_RN_11_RD_22_0.png","img2/100/Incongruent/R/I_Dist_100_LN_13_LD_26_RN_12_RD_20_1.png","img2/300/Congruent/R/C_Dist_300_LN_5_LD_25_RN_7_RD_14_1.png","img2/100/Incongruent/R/I_Dist_100_LN_17_LD_30_RN_10_RD_15_1.png","img2/100/Congruent/L/C_Dist_100_LN_11_LD_22_RN_6_RD_15_0.png","img2/300/Incongruent/R/I_Dist_300_LN_13_LD_26_RN_12_RD_15_1.png","img2/300/Congruent/R/C_Dist_300_LN_1_LD_5_RN_11_RD_22_1.png","img2/100/Incongruent/R/I_Dist_100_LN_8_LD_16_RN_6_RD_10_1.png","img2/300/Congruent/L/C_Dist_300_LN_8_LD_16_RN_1_RD_5_0.png","img2/200/Incongruent/R/I_Dist_200_LN_7_LD_15_RN_6_RD_9_1.png","img2/200/Congruent/R/C_Dist_200_LN_7_LD_15_RN_18_RD_27_1.png","img2/200/Congruent/R/C_Dist_200_LN_7_LD_15_RN_18_RD_27_1.png","img2/300/Incongruent/R/I_Dist_300_LN_13_LD_26_RN_12_RD_15_1.png","img2/200/Incongruent/L/I_Dist_200_LN_1_LD_2_RN_3_RD_10_0.png","img2/100/Incongruent/R/I_Dist_100_LN_8_LD_20_RN_1_RD_2_1.png","img2/200/Congruent/R/C_Dist_200_LN_3_LD_10_RN_11_RD_22_1.png","img2/100/Congruent/R/C_Dist_100_LN_6_LD_12_RN_15_RD_25_1.png","img2/100/Congruent/R/C_Dist_100_LN_4_LD_10_RN_15_RD_30_1.png","img2/300/Incongruent/R/I_Dist_300_LN_4_LD_20_RN_2_RD_4_1.png","img2/300/Incongruent/L/I_Dist_300_LN_2_LD_4_RN_6_RD_30_0.png","img2/200/Congruent/L/C_Dist_200_LN_12_LD_15_RN_6_RD_10_0.png","img2/100/Congruent/L/C_Dist_100_LN_9_LD_15_RN_8_RD_16_0.png","img2/100/Incongruent/R/I_Dist_100_LN_13_LD_26_RN_12_RD_20_1.png","img2/200/Incongruent/R/I_Dist_200_LN_7_LD_15_RN_6_RD_9_1.png","img2/200/Incongruent/R/I_Dist_200_LN_14_LD_30_RN_12_RD_18_1.png","img2/200/Congruent/R/C_Dist_200_LN_1_LD_2_RN_21_RD_30_1.png","img2/200/Congruent/L/C_Dist_200_LN_7_LD_21_RN_2_RD_15_0.png","img2/300/Incongruent/L/I_Dist_300_LN_1_LD_2_RN_3_RD_15_0.png","img2/100/Congruent/R/C_Dist_100_LN_2_LD_5_RN_11_RD_22_1.png","img2/300/Congruent/L/C_Dist_300_LN_20_LD_25_RN_8_RD_16_0.png","img2/100/Incongruent/L/I_Dist_100_LN_3_LD_9_RN_7_RD_30_0.png","img2/100/Incongruent/L/I_Dist_100_LN_3_LD_6_RN_4_RD_10_0.png","img2/200/Congruent/R/C_Dist_200_LN_6_LD_20_RN_11_RD_22_1.png","img2/100/Congruent/R/C_Dist_100_LN_1_LD_2_RN_3_RD_5_1.png","img2/100/Congruent/R/C_Dist_100_LN_7_LD_14_RN_9_RD_15_1.png","img2/200/Congruent/L/C_Dist_200_LN_15_LD_25_RN_4_RD_10_0.png","img2/200/Incongruent/L/I_Dist_200_LN_7_LD_10_RN_12_RD_24_0.png","img2/300/Incongruent/R/I_Dist_300_LN_4_LD_20_RN_2_RD_4_1.png","img2/300/Congruent/L/C_Dist_300_LN_20_LD_25_RN_5_RD_10_0.png","img2/300/Incongruent/L/I_Dist_300_LN_7_LD_10_RN_8_RD_20_0.png","img2/200/Incongruent/L/I_Dist_200_LN_3_LD_4_RN_11_RD_20_0.png","img2/200/Congruent/R/C_Dist_200_LN_3_LD_10_RN_14_RD_28_1.png","img2/100/Incongruent/L/I_Dist_100_LN_4_LD_8_RN_8_RD_20_0.png","img2/100/Incongruent/R/I_Dist_100_LN_6_LD_12_RN_3_RD_5_1.png","img2/200/Congruent/R/C_Dist_200_LN_3_LD_10_RN_14_RD_28_1.png","img2/300/Congruent/L/C_Dist_300_LN_18_LD_20_RN_9_RD_15_0.png","img2/300/Incongruent/L/I_Dist_300_LN_4_LD_5_RN_8_RD_16_0.png","img2/300/Congruent/L/C_Dist_300_LN_20_LD_25_RN_13_RD_26_0.png","img2/200/Congruent/L/C_Dist_200_LN_6_LD_15_RN_3_RD_15_0.png","img2/300/Incongruent/R/I_Dist_300_LN_4_LD_20_RN_2_RD_4_1.png","img2/100/Congruent/L/C_Dist_100_LN_10_LD_25_RN_3_RD_10_0.png","img2/200/Congruent/L/C_Dist_200_LN_12_LD_15_RN_6_RD_10_0.png","img2/200/Congruent/L/C_Dist_200_LN_7_LD_21_RN_2_RD_15_0.png","img2/200/Congruent/R/C_Dist_200_LN_13_LD_26_RN_14_RD_20_1.png","img2/200/Congruent/L/C_Dist_200_LN_4_LD_8_RN_3_RD_10_0.png","img2/200/Congruent/R/C_Dist_200_LN_3_LD_12_RN_9_RD_20_1.png","img2/200/Congruent/L/C_Dist_200_LN_12_LD_15_RN_6_RD_10_0.png","img2/100/Incongruent/L/I_Dist_100_LN_6_LD_10_RN_13_RD_26_0.png","img2/300/Congruent/L/C_Dist_300_LN_18_LD_20_RN_9_RD_15_0.png","img2/300/Congruent/L/C_Dist_300_LN_9_LD_10_RN_3_RD_5_0.png","img2/300/Incongruent/L/I_Dist_300_LN_4_LD_5_RN_6_RD_12_0.png","img2/300/Congruent/L/C_Dist_300_LN_18_LD_20_RN_9_RD_15_0.png","img2/200/Incongruent/L/I_Dist_200_LN_1_LD_3_RN_2_RD_15_0.png","img2/200/Incongruent/L/I_Dist_200_LN_4_LD_5_RN_6_RD_10_0.png","img2/300/Incongruent/L/I_Dist_300_LN_4_LD_5_RN_8_RD_16_0.png","img2/200/Incongruent/L/I_Dist_200_LN_1_LD_2_RN_3_RD_10_0.png","img2/300/Incongruent/R/I_Dist_300_LN_4_LD_20_RN_2_RD_4_1.png","img2/100/Congruent/R/C_Dist_100_LN_4_LD_8_RN_6_RD_10_1.png","img2/100/Incongruent/L/I_Dist_100_LN_4_LD_8_RN_8_RD_20_0.png","img2/100/Congruent/R/C_Dist_100_LN_4_LD_8_RN_6_RD_10_1.png","img2/300/Incongruent/L/I_Dist_300_LN_8_LD_10_RN_14_RD_28_0.png","img2/200/Incongruent/R/I_Dist_200_LN_3_LD_10_RN_1_RD_2_1.png","img2/200/Incongruent/L/I_Dist_200_LN_3_LD_4_RN_11_RD_20_0.png","img2/300/Incongruent/L/I_Dist_300_LN_1_LD_2_RN_3_RD_15_0.png","img2/200/Incongruent/R/I_Dist_200_LN_11_LD_20_RN_3_RD_4_1.png","img2/300/Congruent/R/C_Dist_300_LN_7_LD_14_RN_20_RD_25_1.png","img2/300/Congruent/R/C_Dist_300_LN_2_LD_20_RN_10_RD_25_1.png","img2/100/Congruent/R/C_Dist_100_LN_1_LD_2_RN_18_RD_30_1.png","img2/100/Incongruent/R/I_Dist_100_LN_13_LD_26_RN_6_RD_10_1.png","img2/300/Incongruent/R/I_Dist_300_LN_4_LD_20_RN_2_RD_4_1.png","img2/300/Incongruent/L/I_Dist_300_LN_4_LD_5_RN_6_RD_12_0.png","img2/200/Incongruent/L/I_Dist_200_LN_3_LD_4_RN_11_RD_20_0.png","img2/100/Incongruent/L/I_Dist_100_LN_1_LD_2_RN_8_RD_20_0.png","img2/200/Incongruent/L/I_Dist_200_LN_3_LD_4_RN_11_RD_20_0.png","img2/100/Congruent/R/C_Dist_100_LN_1_LD_2_RN_18_RD_30_1.png","img2/100/Incongruent/L/I_Dist_100_LN_2_LD_4_RN_6_RD_15_0.png","img2/100/Incongruent/L/I_Dist_100_LN_9_LD_10_RN_20_RD_25_0.png","img2/300/Incongruent/R/I_Dist_300_LN_4_LD_20_RN_2_RD_4_1.png","img2/100/Congruent/L/C_Dist_100_LN_3_LD_6_RN_2_RD_5_0.png","img2/200/Incongruent/R/I_Dist_200_LN_14_LD_30_RN_6_RD_9_1.png","img2/100/Incongruent/R/I_Dist_100_LN_10_LD_25_RN_9_RD_18_1.png","img2/300/Congruent/R/C_Dist_300_LN_1_LD_5_RN_6_RD_12_1.png","img2/200/Congruent/R/C_Dist_200_LN_13_LD_26_RN_14_RD_20_1.png","img2/300/Congruent/L/C_Dist_300_LN_20_LD_25_RN_9_RD_18_0.png","img2/200/Incongruent/R/I_Dist_200_LN_3_LD_10_RN_1_RD_2_1.png","img2/200/Incongruent/R/I_Dist_200_LN_14_LD_30_RN_12_RD_18_1.png","img2/100/Incongruent/R/I_Dist_100_LN_12_LD_30_RN_2_RD_4_1.png","img2/300/Congruent/R/C_Dist_300_LN_2_LD_10_RN_12_RD_24_1.png","img2/300/Congruent/R/C_Dist_300_LN_1_LD_3_RN_19_RD_30_1.png","img2/200/Congruent/R/C_Dist_200_LN_3_LD_6_RN_14_RD_20_1.png","img2/300/Congruent/L/C_Dist_300_LN_20_LD_25_RN_13_RD_26_0.png","img2/300/Congruent/L/C_Dist_300_LN_24_LD_30_RN_8_RD_16_0.png","img2/100/Incongruent/L/I_Dist_100_LN_4_LD_8_RN_8_RD_20_0.png","img2/300/Congruent/L/C_Dist_300_LN_20_LD_25_RN_9_RD_18_0.png","img2/100/Congruent/L/C_Dist_100_LN_15_LD_25_RN_13_RD_26_0.png","img2/100/Congruent/L/C_Dist_100_LN_9_LD_15_RN_8_RD_16_0.png","img2/300/Incongruent/L/I_Dist_300_LN_4_LD_5_RN_6_RD_12_0.png","img2/100/Congruent/L/C_Dist_100_LN_10_LD_25_RN_3_RD_10_0.png","img2/100/Congruent/L/C_Dist_100_LN_11_LD_22_RN_4_RD_10_0.png","img2/100/Incongruent/L/I_Dist_100_LN_3_LD_6_RN_4_RD_10_0.png"],"dist100_C":[["C_Dist_100_LN_10_LD_25_RN_3_RD_10_0.png","C_Dist_100_LN_11_LD_22_RN_4_RD_10_0.png","C_Dist_100_LN_11_LD_22_RN_6_RD_15_0.png","C_Dist_100_LN_15_LD_25_RN_13_RD_26_0.png","C_Dist_100_LN_3_LD_6_RN_2_RD_5_0.png","C_Dist_100_LN_6_LD_20_RN_5_RD_25_0.png","C_Dist_100_LN_8_LD_16_RN_2_RD_5_0.png","C_Dist_100_LN_9_LD_15_RN_8_RD_16_0.png"],["C_Dist_100_LN_1_LD_2_RN_18_RD_30_1.png","C_Dist_100_LN_1_LD_2_RN_3_RD_5_1.png","C_Dist_100_LN_12_LD_30_RN_13_RD_26_1.png","C_Dist_100_LN_2_LD_5_RN_11_RD_22_1.png","C_Dist_100_LN_2_LD_5_RN_6_RD_12_1.png","C_Dist_100_LN_3_LD_20_RN_4_RD_16_1.png","C_Dist_100_LN_4_LD_10_RN_15_RD_30_1.png","C_Dist_100_LN_4_LD_8_RN_6_RD_10_1.png","C_Dist_100_LN_6_LD_12_RN_15_RD_25_1.png","C_Dist_100_LN_7_LD_14_RN_15_RD_25_1.png","C_Dist_100_LN_7_LD_14_RN_9_RD_15_1.png"]],"dist100_I":[["I_Dist_100_LN_1_LD_2_RN_8_RD_20_0.png","I_Dist_100_LN_2_LD_4_RN_6_RD_15_0.png","I_Dist_100_LN_2_LD_4_RN_8_RD_20_0.png","I_Dist_100_LN_3_LD_5_RN_11_RD_22_0.png","I_Dist_100_LN_3_LD_5_RN_8_RD_16_0.png","I_Dist_100_LN_3_LD_6_RN_4_RD_10_0.png","I_Dist_100_LN_3_LD_9_RN_7_RD_30_0.png","I_Dist_100_LN_4_LD_8_RN_8_RD_20_0.png","I_Dist_100_LN_6_LD_10_RN_11_RD_22_0.png","I_Dist_100_LN_6_LD_10_RN_13_RD_26_0.png","I_Dist_100_LN_6_LD_10_RN_7_RD_14_0.png","I_Dist_100_LN_9_LD_10_RN_20_RD_25_0.png","I_Dist_100_LN_9_LD_15_RN_13_RD_26_0.png","I_Dist_100_LN_9_LD_15_RN_14_RD_28_0.png"],["I_Dist_100_LN_10_LD_25_RN_8_RD_16_1.png","I_Dist_100_LN_10_LD_25_RN_9_RD_18_1.png","I_Dist_100_LN_11_LD_22_RN_9_RD_15_1.png","I_Dist_100_LN_12_LD_24_RN_9_RD_15_1.png","I_Dist_100_LN_12_LD_30_RN_2_RD_4_1.png","I_Dist_100_LN_13_LD_26_RN_12_RD_20_1.png","I_Dist_100_LN_13_LD_26_RN_6_RD_10_1.png","I_Dist_100_LN_17_LD_30_RN_10_RD_15_1.png","I_Dist_100_LN_6_LD_12_RN_3_RD_5_1.png","I_Dist_100_LN_8_LD_16_RN_6_RD_10_1.png","I_Dist_100_LN_8_LD_20_RN_1_RD_2_1.png","I_Dist_100_LN_9_LD_18_RN_6_RD_10_1.png"]],"dist100_S":[["E_Dist_100_LN_2_LD_12_RN_2_RD_30_0.png","E_Dist_100_LN_6_LD_10_RN_6_RD_12_0.png"],["E_Dist_100_LN_6_LD_12_RN_6_RD_10_1.png"]],"dist200_C":[["C_Dist_200_LN_11_LD_22_RN_3_RD_10_0.png","C_Dist_200_LN_12_LD_15_RN_6_RD_10_0.png","C_Dist_200_LN_12_LD_20_RN_6_RD_15_0.png","C_Dist_200_LN_14_LD_28_RN_6_RD_20_0.png","C_Dist_200_LN_15_LD_25_RN_4_RD_10_0.png","C_Dist_200_LN_16_LD_20_RN_12_RD_20_0.png","C_Dist_200_LN_16_LD_30_RN_9_RD_27_0.png","C_Dist_200_LN_20_LD_25_RN_9_RD_15_0.png","C_Dist_200_LN_21_LD_30_RN_2_RD_4_0.png","C_Dist_200_LN_4_LD_10_RN_3_RD_15_0.png","C_Dist_200_LN_4_LD_8_RN_3_RD_10_0.png","C_Dist_200_LN_6_LD_15_RN_3_RD_15_0.png","C_Dist_200_LN_7_LD_21_RN_2_RD_15_0.png","C_Dist_200_LN_8_LD_15_RN_2_RD_6_0.png","C_Dist_200_LN_8_LD_15_RN_3_RD_9_0.png","C_Dist_200_LN_8_LD_15_RN_7_RD_21_0.png","C_Dist_200_LN_9_LD_20_RN_4_RD_16_0.png"],["C_Dist_200_LN_1_LD_2_RN_21_RD_30_1.png","C_Dist_200_LN_13_LD_26_RN_14_RD_20_1.png","C_Dist_200_LN_3_LD_10_RN_11_RD_22_1.png","C_Dist_200_LN_3_LD_10_RN_14_RD_28_1.png","C_Dist_200_LN_3_LD_10_RN_7_RD_14_1.png","C_Dist_200_LN_3_LD_12_RN_9_RD_20_1.png","C_Dist_200_LN_3_LD_6_RN_14_RD_20_1.png","C_Dist_200_LN_5_LD_10_RN_14_RD_20_1.png","C_Dist_200_LN_6_LD_12_RN_7_RD_10_1.png","C_Dist_200_LN_6_LD_20_RN_11_RD_22_1.png","C_Dist_200_LN_7_LD_15_RN_18_RD_27_1.png","C_Dist_200_LN_9_LD_30_RN_13_RD_26_1.png"]],"dist200_I":[["I_Dist_200_LN_1_LD_2_RN_3_RD_10_0.png","I_Dist_200_LN_1_LD_3_RN_2_RD_15_0.png","I_Dist_200_LN_3_LD_4_RN_11_RD_20_0.png","I_Dist_200_LN_4_LD_5_RN_6_RD_10_0.png","I_Dist_200_LN_4_LD_6_RN_14_RD_30_0.png","I_Dist_200_LN_7_LD_10_RN_12_RD_24_0.png","I_Dist_200_LN_7_LD_10_RN_14_RD_28_0.png","I_Dist_200_LN_7_LD_10_RN_8_RD_16_0.png"],["I_Dist_200_LN_11_LD_20_RN_3_RD_4_1.png","I_Dist_200_LN_14_LD_30_RN_12_RD_18_1.png","I_Dist_200_LN_14_LD_30_RN_6_RD_9_1.png","I_Dist_200_LN_3_LD_10_RN_1_RD_2_1.png","I_Dist_200_LN_4_LD_30_RN_1_RD_3_1.png","I_Dist_200_LN_6_LD_20_RN_3_RD_6_1.png","I_Dist_200_LN_7_LD_15_RN_4_RD_6_1.png","I_Dist_200_LN_7_LD_15_RN_6_RD_9_1.png","I_Dist_200_LN_9_LD_15_RN_8_RD_10_1.png"]],"dist200_S":[["E_Dist_200_LN_3_LD_6_RN_3_RD_10_0.png"],["E_Dist_200_LN_3_LD_10_RN_3_RD_6_1.png"]],"dist300_C":[["C_Dist_300_LN_11_LD_22_RN_1_RD_5_0.png","C_Dist_300_LN_11_LD_22_RN_2_RD_10_0.png","C_Dist_300_LN_11_LD_22_RN_4_RD_20_0.png","C_Dist_300_LN_12_LD_24_RN_2_RD_10_0.png","C_Dist_300_LN_18_LD_20_RN_9_RD_15_0.png","C_Dist_300_LN_20_LD_25_RN_13_RD_26_0.png","C_Dist_300_LN_20_LD_25_RN_14_RD_28_0.png","C_Dist_300_LN_20_LD_25_RN_5_RD_10_0.png","C_Dist_300_LN_20_LD_25_RN_8_RD_16_0.png","C_Dist_300_LN_20_LD_25_RN_9_RD_18_0.png","C_Dist_300_LN_24_LD_30_RN_2_RD_4_0.png","C_Dist_300_LN_24_LD_30_RN_8_RD_16_0.png","C_Dist_300_LN_3_LD_6_RN_2_RD_10_0.png","C_Dist_300_LN_4_LD_10_RN_1_RD_10_0.png","C_Dist_300_LN_4_LD_5_RN_2_RD_4_0.png","C_Dist_300_LN_8_LD_16_RN_1_RD_5_0.png","C_Dist_300_LN_9_LD_10_RN_3_RD_5_0.png"],["C_Dist_300_LN_1_LD_20_RN_7_RD_20_1.png","C_Dist_300_LN_1_LD_3_RN_19_RD_30_1.png","C_Dist_300_LN_1_LD_30_RN_8_RD_24_1.png","C_Dist_300_LN_1_LD_5_RN_11_RD_22_1.png","C_Dist_300_LN_1_LD_5_RN_3_RD_6_1.png","C_Dist_300_LN_1_LD_5_RN_6_RD_12_1.png","C_Dist_300_LN_2_LD_10_RN_12_RD_24_1.png","C_Dist_300_LN_2_LD_20_RN_10_RD_25_1.png","C_Dist_300_LN_3_LD_12_RN_11_RD_20_1.png","C_Dist_300_LN_3_LD_6_RN_4_RD_5_1.png","C_Dist_300_LN_4_LD_20_RN_13_RD_26_1.png","C_Dist_300_LN_5_LD_25_RN_6_RD_12_1.png","C_Dist_300_LN_5_LD_25_RN_7_RD_14_1.png","C_Dist_300_LN_7_LD_14_RN_20_RD_25_1.png","C_Dist_300_LN_8_LD_15_RN_10_RD_12_1.png"]],"dist300_I":[["I_Dist_300_LN_1_LD_2_RN_2_RD_10_0.png","I_Dist_300_LN_1_LD_2_RN_3_RD_15_0.png","I_Dist_300_LN_2_LD_4_RN_6_RD_30_0.png","I_Dist_300_LN_3_LD_6_RN_4_RD_20_0.png","I_Dist_300_LN_4_LD_5_RN_6_RD_12_0.png","I_Dist_300_LN_4_LD_5_RN_8_RD_16_0.png","I_Dist_300_LN_7_LD_10_RN_8_RD_20_0.png","I_Dist_300_LN_8_LD_10_RN_14_RD_28_0.png","I_Dist_300_LN_8_LD_10_RN_9_RD_18_0.png"],["I_Dist_300_LN_13_LD_26_RN_12_RD_15_1.png","I_Dist_300_LN_4_LD_20_RN_2_RD_4_1.png"]],"dist300_S":[["E_Dist_300_LN_9_LD_12_RN_9_RD_20_0.png"],["E_Dist_300_LN_18_LD_30_RN_18_RD_20_1.png","E_Dist_300_LN_3_LD_10_RN_3_RD_5_1.png","E_Dist_300_LN_9_LD_20_RN_9_RD_12_1.png"]],"dist500_C":[["C_Dist_500_LN_10_LD_13_RN_7_RD_26_0.png","C_Dist_500_LN_10_LD_15_RN_4_RD_24_0.png","C_Dist_500_LN_12_LD_16_RN_3_RD_12_0.png","C_Dist_500_LN_12_LD_18_RN_4_RD_24_0.png","C_Dist_500_LN_15_LD_18_RN_5_RD_15_0.png","C_Dist_500_LN_15_LD_20_RN_1_RD_4_0.png","C_Dist_500_LN_18_LD_27_RN_1_RD_6_0.png","C_Dist_500_LN_20_LD_24_RN_1_RD_3_0.png","C_Dist_500_LN_20_LD_24_RN_3_RD_9_0.png","C_Dist_500_LN_20_LD_24_RN_7_RD_21_0.png","C_Dist_500_LN_20_LD_28_RN_3_RD_14_0.png","C_Dist_500_LN_21_LD_28_RN_6_RD_24_0.png","C_Dist_500_LN_22_LD_28_RN_2_RD_7_0.png","C_Dist_500_LN_25_LD_30_RN_9_RD_27_0.png","C_Dist_500_LN_4_LD_6_RN_1_RD_6_0.png","C_Dist_500_LN_5_LD_6_RN_2_RD_6_0.png","C_Dist_500_LN_6_LD_9_RN_1_RD_6_0.png","C_Dist_500_LN_7_LD_10_RN_1_RD_5_0.png","C_Dist_500_LN_8_LD_12_RN_1_RD_6_0.png","C_Dist_500_LN_8_LD_12_RN_4_RD_24_0.png"],["C_Dist_500_LN_1_LD_4_RN_12_RD_16_1.png","C_Dist_500_LN_1_LD_4_RN_9_RD_12_1.png","C_Dist_500_LN_1_LD_9_RN_11_RD_18_1.png","C_Dist_500_LN_10_LD_24_RN_22_RD_24_1.png","C_Dist_500_LN_2_LD_12_RN_10_RD_15_1.png","C_Dist_500_LN_2_LD_12_RN_12_RD_18_1.png","C_Dist_500_LN_2_LD_12_RN_4_RD_6_1.png","C_Dist_500_LN_2_LD_24_RN_7_RD_12_1.png","C_Dist_500_LN_2_LD_5_RN_18_RD_20_1.png","C_Dist_500_LN_2_LD_5_RN_9_RD_10_1.png","C_Dist_500_LN_2_LD_8_RN_12_RD_16_1.png","C_Dist_500_LN_2_LD_8_RN_21_RD_28_1.png","C_Dist_500_LN_3_LD_10_RN_4_RD_5_1.png","C_Dist_500_LN_3_LD_12_RN_15_RD_20_1.png","C_Dist_500_LN_3_LD_30_RN_6_RD_10_1.png","C_Dist_500_LN_3_LD_8_RN_14_RD_16_1.png","C_Dist_500_LN_4_LD_16_RN_15_RD_20_1.png","C_Dist_500_LN_4_LD_24_RN_12_RD_18_1.png","C_Dist_500_LN_5_LD_14_RN_6_RD_7_1.png","C_Dist_500_LN_7_LD_21_RN_20_RD_24_1.png","C_Dist_500_LN_7_LD_28_RN_12_RD_16_1.png","C_Dist_500_LN_7_LD_28_RN_9_RD_12_1.png","C_Dist_500_LN_9_LD_27_RN_20_RD_24_1.png"]],"dist500_I":[["I_Dist_500_LN_2_LD_3_RN_4_RD_24_0.png","I_Dist_500_LN_5_LD_6_RN_6_RD_18_0.png","I_Dist_500_LN_7_LD_8_RN_9_RD_24_0.png"],["I_Dist_500_LN_7_LD_21_RN_5_RD_6_1.png"]],"dist500_S":[["E_Dist_500_LN_6_LD_8_RN_6_RD_24_0.png"],["E_Dist_500_LN_2_LD_12_RN_2_RD_3_1.png","E_Dist_500_LN_6_LD_24_RN_6_RD_8_1.png"]]}},{"start_time":1551793950614,"click_time":1551793952393,"finger_time":1551793952054,"fix_duration":1099.8226374500416,"trial":1,"RT":1440,"MT":339,"sideResp":1,"stimulus":[],"xmouse":[760,760,761,762,764,764,765,766,767,768,769,770,770,770,770,770,770,770,770,770,770,770,770,770,770,770,770,770,770,770,770,770,770,770,770,770,770,770,770,770,770,770,770,770,770,770,770,770,770,770,770,770,770,770,770,770,770,770,770,770,770,770,770,770,770,770,770,770,771,770,760,663,580,526,504,504,537,554,562,564,564,564,564,564,564,564,553,539,522],"ymouse":[526,526,525,525,525,524,524,524,524,524,524,523,523,523,523,523,523,523,523,523,523,523,523,523,523,523,523,523,523,523,523,523,523,523,523,523,523,523,523,523,523,523,523,523,523,523,523,523,523,523,523,523,523,523,523,523,523,523,523,523,523,523,523,523,523,523,523,523,523,516,503,400,325,258,212,175,132,118,111,110,110,110,110,110,110,109,98,89,79],"timestamp_mouse":[19,49,60,78,99,118,139,157,179,199,219,239,257,278,298,318,339,359,378,398,418,439,458,478,498,518,539,558,578,598,619,639,659,678,698,718,739,757,779,798,818,839,858,878,898,919,940,958,978,997,1018,1039,1059,1078,1099,1118,1140,1159,1177,1198,1218,1238,1259,1278,1298,1317,1339,1359,1377,1398,1419,1440,1458,1478,1498,1518,1540,1558,1578,1598,1618,1640,1658,1678,1698,1719,1740,1758,1778],"xSR":741.5,"ySR":469.95,"xT1":424.9,"yT1":0,"xT2":1058.1,"yT2":0,"toosoon":0,"cond_shown":"Incongruent","ratio_trial":300,"L_num":4,"L_den":5,"R_num":6,"R_den":12,"correct_side":1,"subjID":"GabrielAlbertoRodriguezRoncancio8","gender":"0","school":"6","age":"11"},{"start_time":1551793955620,"click_time":1551793957253,"finger_time":1551793956992,"fix_duration":863.8655371058251,"trial":2,"RT":1372,"MT":261,"sideResp":2,"stimulus":[],"xmouse":[784,784,784,784,784,784,784,784,784,784,784,784,784,784,784,784,784,784,784,784,784,784,784,784,784,784,784,784,784,784,784,784,784,784,784,784,784,784,784,784,784,784,784,784,784,784,784,784,784,784,784,784,784,784,784,784,784,784,784,784,784,784,784,784,784,784,784,809,840,896,974,1045,1113,1118,1120,1120,1120,1120,1122,1123,1123,1123],"ymouse":[510,510,510,510,510,510,510,510,510,510,510,510,510,510,510,510,510,510,510,510,510,510,510,510,510,510,510,510,510,510,510,510,510,510,510,510,510,510,510,510,510,510,510,510,510,510,510,510,510,510,510,510,510,510,510,510,510,510,510,510,510,510,510,510,510,510,510,489,457,397,315,246,154,139,132,128,126,120,114,108,102,99],"timestamp_mouse":[14,34,52,72,92,113,135,152,172,192,213,235,253,272,292,312,332,352,372,393,413,432,452,472,493,513,532,552,572,591,613,632,652,672,692,712,732,752,773,792,812,833,852,873,892,912,932,951,973,992,1012,1032,1052,1072,1092,1112,1132,1152,1173,1192,1212,1233,1252,1273,1293,1312,1334,1353,1372,1392,1413,1433,1453,1471,1492,1513,1533,1552,1572,1592,1612,1633],"xSR":741.5,"ySR":469.95,"xT1":424.9,"yT1":0,"xT2":1058.1,"yT2":0,"toosoon":0,"cond_shown":"Congruent","ratio_trial":100,"L_num":9,"L_den":15,"R_num":8,"R_den":16,"correct_side":1,"subjID":"GabrielAlbertoRodriguezRoncancio8","gender":"0","school":"6","age":"11"},{"start_time":1551793958584,"click_time":1551793960792,"finger_time":1551793959932,"fix_duration":250,"trial":3,"RT":1348,"MT":860,"sideResp":1,"stimulus":[],"xmouse":[817,817,817,817,817,817,817,817,817,817,817,817,817,817,817,817,817,817,817,817,817,817,817,817,817,817,817,817,817,817,817,817,817,817,817,817,817,817,817,817,817,817,817,817,817,817,817,817,817,817,817,817,817,817,817,817,817,817,817,817,817,817,817,817,817,817,813,803,781,719,688,662,644,628,616,607,600,596,591,582,576,566,564,556,553,549,548,547,546,544,543,542,537,534,532,529,529,528,528,528,528,528,528,528,528,528,528,528,528,525,523],"ymouse":[514,514,514,514,514,514,514,514,514,514,514,514,514,514,514,514,514,514,514,514,514,514,514,514,514,514,514,514,514,514,514,514,514,514,514,514,514,514,514,514,514,514,514,514,514,514,514,514,514,514,514,514,514,514,514,514,514,514,514,514,514,514,514,514,514,514,500,467,416,292,237,198,173,152,140,135,132,129,127,121,115,105,103,95,92,89,87,86,86,83,83,81,79,78,77,76,76,76,76,76,76,76,76,76,76,76,76,76,76,75,75],"timestamp_mouse":[13,39,48,68,87,109,129,148,168,189,209,228,248,268,288,308,328,348,368,388,408,428,448,468,488,509,528,548,568,589,608,628,648,668,690,708,729,749,768,788,807,828,849,868,888,909,928,948,968,989,1009,1028,1047,1069,1088,1109,1129,1149,1167,1188,1209,1229,1248,1267,1289,1308,1329,1348,1368,1390,1408,1428,1448,1469,1490,1508,1529,1548,1568,1590,1608,1628,1648,1669,1688,1708,1728,1749,1768,1790,1808,1828,1849,1868,1888,1908,1928,1948,1968,1990,2008,2028,2048,2068,2091,2108,2128,2148,2169,2190,2208],"xSR":741.5,"ySR":469.95,"xT1":424.9,"yT1":0,"xT2":1058.1,"yT2":0,"toosoon":0,"cond_shown":"Congruent","ratio_trial":200,"L_num":13,"L_den":26,"R_num":14,"R_den":20,"correct_side":2,"subjID":"GabrielAlbertoRodriguezRoncancio8","gender":"0","school":"6","age":"11"},{"start_time":1551793962403,"click_time":1551793964173,"finger_time":1551793963833,"fix_duration":449.85148644067465,"trial":4,"RT":1430,"MT":340,"sideResp":2,"stimulus":[],"xmouse":[798,798,798,798,798,798,798,798,798,798,798,798,798,798,798,798,798,798,798,798,798,798,798,798,798,798,798,798,798,798,798,798,798,798,798,798,798,798,798,798,798,798,798,798,798,798,798,798,798,798,798,798,798,798,798,798,799,800,800,801,801,801,801,801,801,801,801,801,802,813,827,859,904,945,1003,1003,1003,1003,1003,1003,1003,1003,1003,1003,1003,1003,1003,1003,1097],"ymouse":[558,558,558,558,558,558,558,558,558,558,558,558,558,558,558,558,558,558,558,558,558,558,558,558,558,558,558,558,558,558,558,558,558,558,558,558,558,558,558,558,558,558,558,558,558,558,558,558,558,558,558,558,558,558,558,558,558,557,557,556,556,556,556,556,556,556,555,555,554,532,506,436,334,206,27,27,27,27,27,27,27,27,27,27,27,27,27,27,8],"timestamp_mouse":[14,35,48,68,88,109,130,149,171,189,210,229,249,269,289,308,329,349,368,389,409,429,449,470,489,508,529,550,569,589,610,629,649,669,689,709,729,749,769,788,809,829,849,871,890,909,929,950,970,989,1009,1029,1049,1069,1089,1110,1129,1150,1168,1190,1210,1229,1249,1269,1290,1308,1329,1349,1369,1389,1410,1430,1449,1470,1488,1509,1529,1550,1572,1590,1609,1629,1649,1670,1688,1709,1729,1749,1770],"xSR":741.5,"ySR":469.95,"xT1":424.9,"yT1":0,"xT2":1058.1,"yT2":0,"toosoon":0,"cond_shown":"Incongruent","ratio_trial":200,"L_num":7,"L_den":15,"R_num":4,"R_den":6,"correct_side":2,"subjID":"GabrielAlbertoRodriguezRoncancio8","gender":"0","school":"6","age":"11"},{"start_time":1551793965690,"click_time":1551793967394,"finger_time":1551793967113,"fix_duration":455.5912646743756,"trial":5,"RT":1423,"MT":281,"sideResp":1,"stimulus":[],"xmouse":[803,803,803,803,803,803,803,803,803,803,803,803,803,803,803,803,803,803,803,803,803,803,803,803,803,803,803,803,803,803,803,803,803,803,803,803,803,803,803,803,803,803,803,803,803,804,805,805,805,805,805,805,805,805,805,805,806,806,806,806,806,806,806,806,806,806,806,806,806,806,805,793,766,725,638,609,609,609,609,609,609,609,609,609,609,465],"ymouse":[536,536,536,536,536,536,536,536,536,536,536,536,536,536,536,536,536,536,536,536,536,536,536,536,536,536,536,536,536,536,536,536,536,536,536,536,536,536,536,536,536,536,536,536,536,534,534,534,534,534,534,534,534,534,534,534,533,533,533,533,533,533,533,533,533,533,533,533,533,533,510,468,388,279,78,23,23,23,23,23,23,23,23,23,23,6],"timestamp_mouse":[9,35,41,63,82,102,122,142,163,182,202,222,242,261,283,303,323,343,361,382,402,423,442,462,482,502,522,542,562,582,603,622,642,662,682,702,722,742,763,782,802,822,842,862,882,903,922,942,962,983,1002,1022,1042,1062,1081,1103,1122,1142,1162,1182,1203,1223,1241,1263,1282,1303,1321,1341,1362,1382,1403,1423,1442,1462,1483,1502,1522,1543,1562,1583,1602,1622,1642,1663,1683,1703],"xSR":741.5,"ySR":469.95,"xT1":424.9,"yT1":0,"xT2":1058.1,"yT2":0,"toosoon":0,"cond_shown":"Incongruent","ratio_trial":300,"L_num":4,"L_den":20,"R_num":2,"R_den":4,"correct_side":2,"subjID":"GabrielAlbertoRodriguezRoncancio8","gender":"0","school":"6","age":"11"},{"start_time":1551793969210,"click_time":1551793970752,"finger_time":1551793970594,"fix_duration":915.1115323180796,"trial":6,"RT":1384,"MT":158,"sideResp":2,"stimulus":[],"xmouse":[797,797,797,797,797,797,797,797,797,797,797,797,797,797,797,797,797,797,797,797,797,797,797,797,797,797,797,797,797,797,797,797,797,797,797,797,797,797,797,797,797,797,797,797,797,797,797,797,797,797,797,797,797,797,797,797,798,800,800,801,801,801,801,801,801,801,801,801,801,804,809,819,837,866,956,1022,1059,1084],"ymouse":[508,508,508,508,508,508,508,508,508,508,508,508,508,508,508,508,508,508,508,508,508,508,508,508,508,508,508,508,508,508,508,508,508,508,508,508,508,508,508,508,508,508,508,508,508,507,504,502,499,496,494,494,494,494,493,489,486,482,479,476,474,474,474,474,474,474,474,474,474,469,457,440,415,374,255,165,113,72],"timestamp_mouse":[2,37,47,61,83,101,122,142,162,183,201,222,242,262,283,302,323,342,362,381,402,422,442,463,484,502,523,542,563,583,601,622,643,663,682,702,723,742,762,781,802,822,842,862,882,902,923,943,962,984,1002,1022,1043,1062,1084,1102,1122,1142,1162,1184,1202,1223,1242,1263,1284,1302,1322,1342,1362,1384,1402,1423,1442,1462,1484,1503,1523,1542],"xSR":741.5,"ySR":469.95,"xT1":424.9,"yT1":0,"xT2":1058.1,"yT2":0,"toosoon":0,"cond_shown":"Congruent","ratio_trial":100,"L_num":3,"L_den":6,"R_num":2,"R_den":5,"correct_side":1,"subjID":"GabrielAlbertoRodriguezRoncancio8","gender":"0","school":"6","age":"11"},{"start_time":1551793973408,"click_time":1551793978052,"finger_time":1551793974712,"fix_duration":274.4574947966424,"trial":7,"RT":1304,"MT":3340,"sideResp":2,"stimulus":[],"xmouse":[804,804,804,804,804,804,804,804,804,804,804,804,804,804,804,804,804,804,804,804,804,804,804,804,804,804,804,804,804,804,804,804,804,804,804,804,804,804,804,804,804,804,804,804,804,804,804,804,804,804,804,804,804,804,804,804,804,804,804,804,804,804,804,804,802,758,736,709,691,678,661,656,650,645,640,631,631,629,627,623,613,608,604,600,598,594,592,591,590,589,587,584,581,579,575,566,562,559,555,552,548,546,544,543,542,540,539,538,538,538,538,537,537,537,537,537,536,536,535,535,535,534,534,534,534,533,533,532,532,531,531,531,531,531,531,531,531,530,530,530,530,530,530,530,530,530,529,529,529,528,527,527,527,527,527,527,527,527,527,527,527,527,527,526,526,526,526,526,525,525,524,524,524,524,524,523,523,523,523,523,523,523,523,530,571,724,1030,1160,1247,1281,1292,1292,1292,1292,1292,1293,1290,1281,1257,1257,1240,1235,1229,1222,1217,1206,1200,1193,1185,1179,1171,1168,1166,1161,1159,1154,1154,1152,1150,1149,1148,1148,1148,1147,1146,1146,1146,1146,1146,1145,1145,1145,1145],"ymouse":[514,514,514,514,514,514,514,514,514,514,514,514,514,514,514,514,514,514,514,514,514,514,514,514,514,514,514,514,514,514,514,514,514,514,514,514,514,514,514,514,514,514,514,514,514,514,514,514,514,514,514,514,514,514,514,514,514,514,514,514,514,514,514,514,507,454,433,407,387,373,348,335,321,308,295,271,265,260,254,248,236,229,223,217,214,206,203,201,200,198,193,191,188,184,179,168,164,159,154,152,146,144,142,141,139,133,132,131,130,129,127,126,126,126,125,124,122,122,121,121,120,120,120,119,119,118,118,117,117,115,114,114,114,113,113,111,111,110,110,110,110,110,110,109,108,108,108,108,108,107,106,106,106,106,106,106,105,105,105,105,105,105,105,104,104,103,103,103,102,102,102,101,101,101,101,101,101,101,101,101,101,101,101,103,117,148,175,180,180,180,180,179,179,179,179,179,176,170,156,156,147,143,141,140,138,134,131,127,124,122,118,116,115,112,111,109,108,107,105,105,104,103,103,103,102,101,101,101,101,101,100,100,99],"timestamp_mouse":[12,37,45,64,84,104,124,144,164,184,204,224,244,263,284,304,325,344,365,383,405,424,444,463,484,503,525,544,564,585,603,624,644,664,684,703,724,744,764,785,804,825,844,865,883,905,923,944,965,985,1004,1024,1044,1064,1084,1104,1124,1144,1164,1184,1204,1224,1244,1265,1285,1304,1324,1344,1364,1384,1406,1424,1444,1465,1485,1505,1524,1545,1565,1585,1606,1625,1644,1664,1684,1705,1724,1743,1764,1785,1805,1823,1844,1864,1884,1905,1924,1943,1964,1984,2005,2024,2044,2064,2084,2106,2124,2144,2165,2184,2205,2224,2243,2264,2285,2305,2323,2344,2364,2384,2405,2423,2444,2464,2483,2505,2523,2544,2565,2584,2606,2624,2645,2664,2685,2705,2724,2745,2764,2784,2805,2824,2844,2864,2884,2905,2924,2944,2964,2984,3006,3024,3043,3064,3084,3105,3123,3144,3164,3184,3205,3224,3245,3263,3285,3306,3324,3345,3364,3386,3406,3424,3444,3464,3484,3505,3525,3544,3564,3583,3605,3624,3644,3664,3684,3704,3724,3744,3765,3785,3806,3823,3844,3865,3883,3906,3923,3944,3974,3984,4006,4024,4044,4064,4084,4105,4124,4144,4165,4185,4205,4224,4245,4265,4284,4305,4324,4344,4365,4384,4406,4425,4444,4465,4485,4506,4524,4544,4564,4593,4604,4625,4644],"xSR":741.5,"ySR":469.95,"xT1":424.9,"yT1":0,"xT2":1058.1,"yT2":0,"toosoon":0,"cond_shown":"Incongruent","ratio_trial":200,"L_num":4,"L_den":5,"R_num":6,"R_den":10,"correct_side":1,"subjID":"GabrielAlbertoRodriguezRoncancio8","gender":"0","school":"6","age":"11"},{"start_time":1551793983432,"click_time":1551793985934,"finger_time":1551793984833,"fix_duration":1057.810659281748,"trial":8,"RT":1401,"MT":1101,"sideResp":1,"stimulus":[],"xmouse":[810,810,810,810,810,810,810,810,810,810,810,810,810,810,810,810,810,810,810,810,810,810,810,810,810,810,810,810,810,810,810,810,810,810,810,810,810,810,810,810,810,810,810,810,810,810,810,810,810,810,810,810,810,810,810,810,810,810,810,810,810,810,810,810,810,810,810,810,810,798,719,671,643,637,633,630,628,627,625,624,616,606,599,594,589,584,581,578,577,574,564,561,557,555,552,550,544,539,537,534,528,526,525,524,522,519,518,517,515,514,512,510,509,508,507,506,504,504,502,502,501,500,499,499,499,497],"ymouse":[503,503,503,504,504,505,505,505,505,505,505,505,505,505,505,505,505,505,505,505,505,505,505,505,505,505,505,505,505,505,505,505,505,505,505,505,505,505,505,505,505,505,505,505,505,505,505,505,505,505,505,505,505,505,505,505,505,505,505,505,505,505,505,505,505,505,505,505,505,499,426,368,320,296,278,258,252,248,244,243,234,225,219,214,209,204,201,199,198,195,187,184,180,178,175,173,167,163,160,157,151,148,146,143,142,138,136,134,131,129,126,123,122,120,118,115,113,113,110,110,106,105,104,103,102,99],"timestamp_mouse":[2,23,40,63,80,100,120,140,160,180,200,220,240,260,281,300,320,340,360,381,400,420,439,461,481,501,520,540,560,580,601,621,639,660,680,702,719,740,760,779,800,820,840,861,880,900,920,941,961,980,1000,1020,1041,1060,1080,1100,1120,1141,1160,1180,1201,1220,1241,1260,1280,1301,1320,1341,1360,1381,1401,1419,1440,1461,1481,1501,1520,1540,1560,1580,1601,1621,1640,1661,1681,1701,1720,1740,1761,1780,1802,1819,1840,1861,1881,1900,1920,1941,1960,1980,2001,2020,2041,2061,2080,2102,2120,2141,2161,2180,2201,2220,2240,2260,2280,2303,2320,2341,2361,2380,2401,2419,2440,2461,2480,2502],"xSR":741.5,"ySR":469.95,"xT1":424.9,"yT1":0,"xT2":1058.1,"yT2":0,"toosoon":0,"cond_shown":"Congruent","ratio_trial":100,"L_num":1,"L_den":2,"R_num":3,"R_den":5,"correct_side":2,"subjID":"GabrielAlbertoRodriguezRoncancio8","gender":"0","school":"6","age":"11"},{"start_time":1551793989700,"click_time":1551793992654,"finger_time":1551793991535,"fix_duration":1047.3129364138501,"trial":9,"RT":1835,"MT":1119,"sideResp":1,"stimulus":[],"xmouse":[787,787,787,787,787,787,787,787,787,787,787,787,787,787,787,787,787,787,787,787,787,787,787,787,787,787,787,787,787,787,787,787,787,787,787,787,787,787,787,787,787,787,787,787,787,787,787,787,787,787,787,787,787,787,787,787,787,787,787,787,787,787,787,787,787,787,787,787,787,787,788,785,780,777,777,777,777,777,777,777,777,777,777,777,777,777,777,777,780,796,817,844,901,911,918,920,921,921,923,925,925,925,925,926,928,928,928,928,928,928,925,920,889,871,854,840,823,785,771,760,750,737,680,647,621,598,581,566,564,564,564,564,563,557,552,548,543,533,529,525,524,523,522,521,521,520,518,513],"ymouse":[499,499,499,499,499,499,499,499,499,499,499,499,499,499,499,499,499,499,499,499,499,499,499,499,499,499,499,499,499,499,499,499,499,499,499,499,499,499,499,499,499,499,499,499,499,499,499,499,499,499,499,499,499,499,499,499,499,499,499,499,499,499,499,499,499,499,499,499,499,499,500,500,500,500,500,500,500,500,500,500,500,500,500,500,500,500,500,500,498,493,487,479,448,434,416,392,366,319,302,287,277,270,255,248,239,235,232,230,228,225,223,220,207,198,192,187,182,170,164,159,154,150,142,137,134,129,125,122,122,122,122,122,121,120,118,117,116,112,110,108,108,107,105,104,103,102,101,99],"timestamp_mouse":[14,36,52,72,93,112,132,152,172,193,213,233,251,273,292,312,333,351,372,392,412,433,453,473,492,511,533,552,573,592,613,633,651,673,692,711,732,751,773,792,813,832,853,872,892,912,934,953,973,995,1014,1033,1053,1075,1093,1113,1133,1153,1173,1193,1214,1233,1254,1274,1293,1313,1334,1354,1374,1394,1414,1433,1453,1473,1494,1513,1534,1553,1573,1594,1615,1636,1654,1674,1695,1713,1733,1755,1775,1795,1813,1835,1854,1874,1893,1913,1934,1955,1974,1993,2013,2033,2054,2073,2094,2114,2133,2154,2173,2193,2215,2235,2254,2273,2293,2314,2334,2354,2373,2393,2413,2433,2454,2473,2493,2515,2534,2554,2573,2593,2613,2634,2654,2673,2693,2715,2734,2754,2773,2793,2813,2833,2854,2873,2894,2914,2934,2954],"xSR":741.5,"ySR":469.95,"xT1":424.9,"yT1":0,"xT2":1058.1,"yT2":0,"toosoon":0,"cond_shown":"Congruent","ratio_trial":300,"L_num":2,"L_den":20,"R_num":10,"R_den":25,"correct_side":2,"subjID":"GabrielAlbertoRodriguezRoncancio8","gender":"0","school":"6","age":"11"},{"start_time":1551793996380,"click_time":1551793998374,"finger_time":1551793997774,"fix_duration":1084.6319227003817,"trial":10,"RT":1394,"MT":600,"sideResp":2,"stimulus":[],"xmouse":[798,798,798,798,798,798,798,798,798,791,788,785,783,779,779,779,779,779,779,779,779,779,779,779,779,779,779,780,780,780,780,780,780,780,780,780,780,780,780,780,780,780,780,780,780,780,780,780,780,780,780,780,780,780,780,780,780,780,780,780,780,780,780,780,780,780,780,782,794,842,892,957,996,1008,1002,996,995,995,995,1001,1009,1021,1033,1048,1094,1130,1141,1146,1148,1147,1146,1144,1143,1140,1133,1131,1129,1128,1126,1125],"ymouse":[515,515,515,515,515,515,515,515,515,515,515,515,515,515,515,515,515,515,515,515,515,515,515,515,515,515,515,515,515,515,515,515,515,515,515,515,515,515,515,515,515,515,515,515,515,515,515,515,515,515,515,515,515,515,515,515,515,515,515,515,515,515,515,515,515,515,515,514,508,488,460,402,341,275,258,249,248,246,243,226,211,194,178,163,136,123,120,116,114,112,111,110,109,107,105,103,102,101,100,97],"timestamp_mouse":[14,34,55,74,94,114,133,153,173,193,213,234,253,275,294,314,334,353,374,394,413,433,453,474,493,514,533,553,575,594,614,633,654,673,693,713,734,753,775,793,814,833,854,873,894,914,934,954,975,993,1013,1035,1053,1073,1094,1115,1133,1154,1173,1194,1214,1233,1253,1273,1293,1313,1334,1353,1373,1394,1414,1434,1453,1477,1493,1514,1533,1553,1575,1594,1613,1633,1654,1675,1694,1715,1733,1753,1776,1794,1813,1833,1854,1875,1894,1913,1933,1954,1975,1994],"xSR":741.5,"ySR":469.95,"xT1":424.9,"yT1":0,"xT2":1058.1,"yT2":0,"toosoon":0,"cond_shown":"Incongruent","ratio_trial":100,"L_num":3,"L_den":5,"R_num":11,"R_den":22,"correct_side":1,"subjID":"GabrielAlbertoRodriguezRoncancio8","gender":"0","school":"6","age":"11"},{"start_time":1551794000827,"click_time":1551794001794,"finger_time":1551794000874,"fix_duration":1369.850815789814,"trial":11,"RT":47,"MT":920,"sideResp":1,"stimulus":[],"xmouse":[811,791,732,724,723,723,723,723,725,727,729,735,754,766,775,780,781,781,781,781,783,784,788,789,791,792,792,792,792,792,792,792,782,767,734,701,655,572,553,544,540,538,533,528,523,514,501,487,489],"ymouse":[521,521,504,501,500,500,500,500,499,499,499,499,499,499,499,499,499,499,499,499,499,499,506,511,518,522,524,524,524,524,525,525,523,513,490,458,419,333,305,289,275,257,237,227,216,200,178,129,97],"timestamp_mouse":[9,33,47,66,87,107,128,147,167,187,207,227,247,266,286,308,327,347,366,386,406,427,448,466,486,507,526,548,567,586,607,627,647,666,686,707,728,748,766,787,806,827,847,866,886,906,927,947,967],"xSR":741.5,"ySR":469.95,"xT1":424.9,"yT1":0,"xT2":1058.1,"yT2":0,"toosoon":0,"cond_shown":"Incongruent","ratio_trial":100,"L_num":13,"L_den":26,"R_num":12,"R_den":20,"correct_side":2,"subjID":"GabrielAlbertoRodriguezRoncancio8","gender":"0","school":"6","age":"11"},{"start_time":1551794004847,"click_time":1551794006753,"finger_time":1551794006334,"fix_duration":591.7700112058875,"trial":12,"RT":1487,"MT":419,"sideResp":2,"stimulus":[],"xmouse":[819,819,819,819,819,819,819,819,819,819,819,819,819,819,819,819,819,819,819,819,819,819,819,819,819,819,819,819,819,819,819,819,819,819,819,819,819,819,819,819,819,819,819,819,819,819,819,819,819,819,819,819,819,819,819,819,819,819,819,819,819,819,819,819,819,819,819,819,819,819,819,819,820,834,849,864,905,928,942,949,956,967,972,975,979,983,994,1000,1012,1018,1026,1035,1055,1067,1076,1083],"ymouse":[523,523,523,523,523,523,523,523,523,523,523,523,523,523,523,523,523,523,523,523,523,523,523,523,523,523,523,523,523,523,523,523,523,523,523,523,523,523,523,523,523,523,523,523,523,523,523,523,523,523,523,523,523,523,523,523,523,523,523,523,523,523,523,523,523,523,523,523,523,523,523,523,523,504,484,462,406,375,356,342,327,305,295,287,279,272,255,246,231,224,211,196,154,128,101,75],"timestamp_mouse":[8,29,58,66,86,107,128,146,166,186,206,228,247,268,287,307,328,346,367,386,407,428,446,467,486,506,529,546,568,586,606,628,646,666,688,706,726,747,766,786,807,828,846,867,887,907,928,946,966,987,1008,1028,1047,1067,1086,1107,1128,1146,1167,1186,1206,1227,1247,1268,1286,1306,1327,1346,1367,1386,1408,1426,1447,1467,1487,1507,1529,1547,1566,1586,1606,1629,1646,1667,1687,1707,1730,1746,1767,1786,1806,1828,1846,1866,1886,1906],"xSR":741.5,"ySR":469.95,"xT1":424.9,"yT1":0,"xT2":1058.1,"yT2":0,"toosoon":0,"cond_shown":"Congruent","ratio_trial":300,"L_num":5,"L_den":25,"R_num":7,"R_den":14,"correct_side":2,"subjID":"GabrielAlbertoRodriguezRoncancio8","gender":"0","school":"6","age":"11"},{"start_time":1551794008093,"click_time":1551794010613,"finger_time":1551794010054,"fix_duration":378.84546990964606,"trial":13,"RT":1961,"MT":559,"sideResp":2,"stimulus":[],"xmouse":[802,802,802,802,806,807,808,808,808,808,808,808,808,808,808,809,809,809,809,809,809,809,809,809,809,809,809,809,809,809,809,809,809,809,809,810,810,811,812,812,812,812,812,812,812,812,812,812,812,812,812,812,812,812,812,815,815,815,815,815,815,815,815,815,815,815,815,815,815,815,815,815,815,815,815,815,815,815,815,815,815,815,815,815,815,811,809,807,802,795,790,790,790,790,790,789,796,813,834,856,892,905,914,921,927,933,936,939,943,946,958,968,977,988,1006,1020,1022,1022,1022,1022,1022,1022,1022,1022,1024,1052,1064],"ymouse":[524,524,524,524,518,517,516,516,516,516,516,516,516,516,516,515,515,515,515,515,515,515,515,515,515,515,515,515,515,515,515,515,515,515,515,514,514,514,514,514,514,514,514,514,514,514,514,514,514,514,514,514,514,514,514,512,512,512,512,512,512,512,512,512,512,512,512,512,512,512,512,512,512,512,512,512,512,512,512,512,512,512,512,512,512,508,507,505,502,498,495,495,495,495,495,495,488,477,465,451,419,401,382,361,341,296,275,253,232,213,182,166,149,133,111,94,91,90,90,90,90,90,90,90,90,82,79],"timestamp_mouse":[9,21,49,60,81,101,120,140,162,183,201,221,241,260,281,300,321,340,362,381,401,420,442,460,480,501,522,540,561,581,600,620,640,661,680,700,720,741,761,782,800,820,842,861,880,902,920,942,960,980,1000,1020,1040,1061,1081,1100,1120,1141,1161,1180,1200,1220,1241,1260,1280,1301,1320,1340,1360,1380,1401,1420,1441,1461,1480,1500,1520,1540,1561,1582,1601,1620,1641,1660,1680,1701,1722,1740,1761,1780,1801,1821,1840,1862,1881,1900,1921,1940,1961,1981,2001,2020,2041,2060,2080,2101,2120,2140,2160,2181,2201,2220,2240,2260,2280,2302,2320,2340,2360,2382,2401,2422,2441,2461,2480,2501,2520],"xSR":741.5,"ySR":469.95,"xT1":424.9,"yT1":0,"xT2":1058.1,"yT2":0,"toosoon":0,"cond_shown":"Incongruent","ratio_trial":100,"L_num":17,"L_den":30,"R_num":10,"R_den":15,"correct_side":2,"subjID":"GabrielAlbertoRodriguezRoncancio8","gender":"0","school":"6","age":"11"},{"start_time":1551794012462,"click_time":1551794017833,"finger_time":1551794013834,"fix_duration":305.7042495844596,"trial":14,"RT":1372,"MT":3999,"sideResp":2,"stimulus":[],"xmouse":[804,804,804,804,804,804,804,804,804,804,804,804,804,804,804,804,804,804,804,804,804,804,804,804,804,804,804,804,804,804,804,804,804,804,804,804,804,804,804,804,804,804,804,804,804,804,804,804,804,804,804,804,804,804,804,804,804,804,804,804,804,804,804,804,804,804,814,835,862,899,937,989,995,995,993,992,992,994,1000,1003,1004,1007,1012,1014,1016,1018,1020,1022,1023,1024,1026,1029,1029,1030,1030,1030,1030,1030,1030,1030,1030,1031,1034,1034,1036,1039,1041,1044,1044,1044,1044,1044,1044,1044,1048,1049,1050,1051,1052,1052,1053,1053,1053,1053,1053,1053,1053,1053,1053,1053,1053,1053,1053,1053,1053,1053,1053,1053,1053,1053,1054,1054,1054,1054,1054,1054,1055,1055,1055,1055,1055,1055,1055,1055,1055,1055,1055,1055,1055,1055,1055,1055,1055,1055,1055,1055,1055,1055,1055,1055,1055,1055,1055,1055,1055,1055,1055,1055,1055,1055,1055,1055,1055,1055,1055,1055,1055,1055,1055,1055,1055,1055,1055,1055,1055,1055,1055,1055,1055,1055,1055,1055,1056,1056,1056,1056,1057,1057,1057,1057,1057,1057,1057,1057,1057,1057,1057,1057,1057,1057,1057,1057,1057,1057,1057,1057,1057,1057,1057,1057,1057,1057,1057,1057,1057,1057,1057,1057,1057,1057,1057,1057,1057,1057,1057,1057,1057,1057,1057,1057,1057,1057,1057,1057,1057,1057,1057,1057,1057,1057,1057,1057,1057,1057,1057,1057,1057,1058,1059],"ymouse":[510,510,510,510,510,510,510,510,510,510,510,510,510,510,510,510,510,510,510,510,510,510,510,510,510,510,510,510,510,510,510,510,510,510,510,510,510,510,510,510,510,510,510,510,510,510,510,510,510,510,510,510,510,510,510,510,510,510,510,510,510,510,510,510,510,510,503,493,482,462,439,383,344,333,299,279,231,208,187,171,157,139,129,123,120,117,114,112,111,109,107,104,104,104,104,104,104,104,104,104,104,104,102,102,101,100,100,98,98,98,98,98,98,98,98,98,98,97,97,97,97,97,97,97,97,97,97,97,97,97,97,97,97,97,96,96,96,96,96,96,96,96,96,96,96,96,95,94,93,93,93,93,93,93,93,93,93,93,93,93,93,93,93,93,93,93,93,93,93,93,93,93,93,93,93,92,92,91,91,91,90,90,89,89,89,89,89,89,89,88,88,88,87,87,86,85,85,85,85,84,84,83,82,82,82,82,81,81,81,81,81,81,81,81,81,81,81,81,81,81,81,81,81,81,81,81,81,80,79,78,78,78,78,78,78,77,77,77,77,77,77,77,77,77,76,76,76,76,76,76,76,76,76,76,76,76,76,76,76,76,76,76,76,76,76,76,75,74,73],"timestamp_mouse":[13,35,52,71,92,112,132,151,171,191,213,232,251,271,291,311,333,351,371,391,411,433,452,472,491,512,533,553,571,591,612,631,651,671,693,712,734,753,773,791,812,833,851,873,891,911,933,951,972,992,1012,1032,1051,1072,1092,1112,1131,1151,1171,1191,1212,1231,1251,1272,1291,1311,1333,1352,1372,1393,1412,1434,1452,1472,1492,1511,1534,1552,1572,1591,1611,1633,1651,1671,1691,1711,1733,1751,1771,1791,1811,1833,1851,1872,1893,1913,1933,1951,1972,1991,2012,2031,2052,2071,2091,2111,2131,2151,2172,2192,2211,2233,2251,2271,2292,2311,2331,2352,2371,2392,2411,2433,2451,2471,2491,2511,2531,2551,2572,2592,2611,2634,2651,2673,2692,2712,2731,2752,2771,2791,2811,2832,2853,2872,2891,2911,2934,2952,2972,2991,3011,3033,3051,3071,3092,3111,3134,3151,3173,3191,3212,3231,3252,3271,3292,3311,3331,3352,3373,3392,3411,3433,3451,3472,3491,3512,3534,3551,3573,3592,3612,3632,3651,3671,3691,3711,3734,3752,3772,3793,3811,3831,3851,3872,3892,3911,3931,3951,3973,3992,4011,4032,4051,4072,4091,4112,4134,4152,4171,4191,4212,4232,4252,4271,4291,4312,4332,4351,4371,4391,4412,4432,4452,4473,4492,4512,4532,4551,4571,4592,4611,4632,4652,4672,4691,4713,4734,4752,4771,4792,4811,4831,4851,4871,4891,4911,4933,4951,4972,4993,5013,5032,5051,5071,5091,5111,5132,5151,5173,5191,5212,5232,5251,5272,5292,5311,5332,5351,5371],"xSR":741.5,"ySR":469.95,"xT1":424.9,"yT1":0,"xT2":1058.1,"yT2":0,"toosoon":0,"cond_shown":"Congruent","ratio_trial":100,"L_num":11,"L_den":22,"R_num":6,"R_den":15,"correct_side":1,"subjID":"GabrielAlbertoRodriguezRoncancio8","gender":"0","school":"6","age":"11"},{"start_time":1551794019126,"click_time":1551794021215,"finger_time":1551794020374,"fix_duration":250,"trial":15,"RT":1248,"MT":841,"sideResp":1,"stimulus":[],"xmouse":[786,786,786,786,786,786,786,786,786,786,786,786,786,786,786,786,786,786,786,786,786,786,786,786,786,786,786,786,786,786,786,786,786,786,786,786,786,786,786,786,786,786,786,786,786,786,786,786,786,786,786,786,786,786,786,786,786,786,786,780,764,747,731,717,692,677,661,643,625,604,596,592,590,588,584,582,580,578,575,572,570,569,568,567,565,562,561,559,558,555,553,550,547,543,533,526,524,520,519,517,516,516,516,515,514],"ymouse":[538,538,538,538,538,538,538,538,538,538,538,538,538,538,538,538,538,538,538,538,538,538,538,538,538,538,538,538,538,538,538,538,538,538,538,538,538,538,538,538,538,538,538,538,538,538,538,538,538,538,538,538,538,538,538,538,538,538,538,529,512,490,468,446,393,356,323,293,261,229,219,214,211,209,206,205,203,201,198,194,192,191,190,189,186,183,183,178,177,171,167,162,157,150,133,120,117,110,107,103,102,101,101,101,99],"timestamp_mouse":[13,33,48,68,87,107,128,147,168,188,207,229,247,268,288,308,327,348,368,388,407,428,448,467,488,508,527,548,567,588,608,628,647,669,689,707,727,747,767,788,807,829,847,867,888,907,927,948,968,988,1007,1028,1048,1069,1088,1107,1128,1148,1167,1188,1207,1228,1248,1267,1289,1307,1327,1347,1367,1390,1407,1428,1448,1468,1489,1507,1528,1548,1567,1589,1607,1627,1647,1668,1689,1707,1727,1748,1768,1789,1807,1827,1848,1868,1889,1907,1928,1949,1967,1989,2007,2027,2047,2067,2089],"xSR":741.5,"ySR":469.95,"xT1":424.9,"yT1":0,"xT2":1058.1,"yT2":0,"toosoon":0,"cond_shown":"Incongruent","ratio_trial":300,"L_num":13,"L_den":26,"R_num":12,"R_den":15,"correct_side":2,"subjID":"GabrielAlbertoRodriguezRoncancio8","gender":"0","school":"6","age":"11"},{"start_time":1551794022479,"click_time":1551794024714,"finger_time":1551794023274,"fix_duration":282.2384869508099,"trial":16,"RT":795,"MT":1440,"sideResp":1,"stimulus":[],"xmouse":[802,802,802,802,802,802,802,802,802,802,802,802,802,802,802,802,802,802,802,802,802,802,802,802,802,802,802,802,802,802,802,802,802,802,802,802,802,793,775,760,741,719,718,718,718,718,720,720,720,720,720,720,720,720,720,720,720,720,720,720,720,720,727,736,750,763,778,779,779,779,779,779,779,779,779,779,783,785,785,786,788,794,797,799,799,799,796,780,766,749,734,722,703,698,693,684,676,657,649,640,633,628,619,614,609,603,595,558,549,538,528,519],"ymouse":[517,517,517,517,517,517,517,517,517,517,517,517,517,517,517,517,517,517,515,514,514,513,513,512,512,511,511,511,511,511,511,511,511,511,511,511,511,502,478,459,436,409,406,404,402,400,398,398,398,398,398,398,398,398,398,398,398,398,398,398,398,401,423,439,456,469,483,484,484,484,484,484,484,484,484,484,483,479,477,473,469,451,437,424,415,410,405,388,377,362,349,338,320,313,304,289,274,216,190,171,161,156,151,148,147,145,142,121,116,109,102,93],"timestamp_mouse":[21,37,54,74,94,114,134,154,174,195,215,234,254,275,294,315,334,354,376,396,415,436,455,474,495,515,536,555,575,595,616,635,654,674,694,714,735,755,775,795,815,837,854,875,895,914,937,954,976,996,1014,1037,1054,1075,1095,1115,1134,1155,1175,1194,1214,1234,1254,1275,1294,1315,1337,1354,1375,1394,1415,1436,1454,1475,1495,1514,1536,1554,1574,1594,1614,1636,1654,1674,1694,1715,1734,1754,1774,1794,1814,1834,1854,1875,1894,1914,1934,1954,1974,1994,2014,2035,2055,2076,2096,2116,2135,2156,2175,2196,2216,2235],"xSR":741.5,"ySR":469.95,"xT1":424.9,"yT1":0,"xT2":1058.1,"yT2":0,"toosoon":0,"cond_shown":"Congruent","ratio_trial":300,"L_num":1,"L_den":5,"R_num":11,"R_den":22,"correct_side":2,"subjID":"GabrielAlbertoRodriguezRoncancio8","gender":"0","school":"6","age":"11"},{"start_time":1551794027872,"click_time":1551794030553,"finger_time":1551794029334,"fix_duration":837.237520264896,"trial":17,"RT":1462,"MT":1219,"sideResp":1,"stimulus":[],"xmouse":[809,808,808,808,807,807,807,807,807,807,807,807,807,807,807,807,807,807,807,807,807,807,807,807,807,807,807,807,807,807,807,807,807,807,807,807,807,807,807,807,807,807,807,807,807,807,807,807,807,807,807,807,807,807,807,807,807,807,807,806,804,800,799,799,799,799,798,797,797,797,797,797,806,845,852,858,883,900,924,937,938,938,938,942,947,959,976,1002,1021,1026,1028,1030,1033,1038,1040,1042,1042,1042,1044,1045,1045,1046,1046,1047,1047,1047,1048,1049,1051,1051,1052,1053,1053,1055,1056,1056,1057,1057,1057,1057,1057,1057,1057,1057,1057,1057,1055,1036,891,746,627,564,549,536,519],"ymouse":[523,523,521,521,520,520,520,520,520,520,520,520,520,520,520,520,520,520,520,520,520,520,520,520,520,520,520,520,520,520,520,520,520,520,520,520,520,520,520,520,520,520,520,520,520,520,520,520,520,520,520,520,520,520,520,520,520,520,520,519,518,516,515,515,515,515,515,514,513,513,513,513,512,500,496,489,457,428,357,304,283,269,261,251,245,239,232,220,205,200,195,192,188,179,174,167,162,158,149,144,141,137,133,128,126,124,122,120,116,114,113,112,111,108,106,106,105,105,105,104,104,104,104,104,104,103,103,103,103,90,72,62,60,60,62],"timestamp_mouse":[2,23,41,62,82,101,121,142,162,181,201,221,241,262,282,302,322,343,362,382,402,422,441,462,482,503,521,541,562,581,601,621,642,663,681,702,722,742,763,781,801,823,841,862,882,901,922,942,963,981,1001,1021,1041,1062,1082,1103,1121,1141,1161,1182,1201,1221,1241,1263,1283,1301,1322,1341,1363,1382,1401,1421,1442,1462,1481,1501,1522,1541,1563,1581,1601,1621,1641,1663,1681,1701,1722,1741,1763,1781,1801,1822,1841,1863,1881,1901,1923,1943,1963,1981,2001,2023,2042,2063,2081,2101,2122,2142,2162,2182,2201,2222,2241,2263,2281,2301,2322,2341,2361,2381,2401,2422,2441,2464,2481,2502,2522,2541,2563,2581,2602,2621,2641,2664,2681],"xSR":741.5,"ySR":469.95,"xT1":424.9,"yT1":0,"xT2":1058.1,"yT2":0,"toosoon":0,"cond_shown":"Incongruent","ratio_trial":100,"L_num":8,"L_den":16,"R_num":6,"R_den":10,"correct_side":2,"subjID":"GabrielAlbertoRodriguezRoncancio8","gender":"0","school":"6","age":"11"},{"start_time":1551794031683,"click_time":1551794034254,"finger_time":1551794033494,"fix_duration":287.6646955668254,"trial":18,"RT":1811,"MT":760,"sideResp":1,"stimulus":[],"xmouse":[812,812,812,812,812,812,812,812,812,812,812,812,812,812,812,812,812,812,812,812,812,812,812,812,812,812,812,812,812,812,812,812,812,812,812,812,812,812,812,812,812,812,812,812,811,810,810,810,810,810,810,810,810,810,810,810,810,810,811,814,815,816,816,816,816,816,816,816,816,813,810,808,805,805,805,805,805,805,805,805,805,805,807,810,811,815,820,825,834,839,843,849,852,855,855,855,850,845,825,812,795,778,749,726,712,700,692,681,677,674,671,667,662,659,658,656,655,655,653,653,650,645,639,610,597,580,560,539,511],"ymouse":[522,522,522,522,522,522,522,522,521,521,521,521,521,521,521,521,521,520,518,517,517,517,517,517,517,517,517,517,517,517,517,517,517,517,517,517,517,517,517,517,517,517,517,517,515,514,514,514,514,514,514,514,514,514,514,514,514,513,506,501,499,498,498,498,498,498,498,498,497,494,492,491,489,489,489,489,489,489,489,489,489,489,489,489,489,489,489,486,483,480,478,475,472,469,467,462,457,451,434,425,415,407,396,385,377,372,366,357,352,349,345,342,334,330,328,323,318,310,295,288,280,265,249,198,180,158,132,102,56],"timestamp_mouse":[12,32,50,70,90,111,130,150,170,191,210,231,252,270,290,311,331,352,372,391,410,430,450,471,491,511,531,550,570,590,610,631,652,671,691,710,730,751,771,791,810,831,850,870,890,910,931,950,970,991,1010,1031,1050,1070,1090,1111,1130,1151,1170,1191,1211,1231,1250,1270,1290,1310,1332,1351,1370,1391,1410,1430,1453,1471,1491,1511,1531,1552,1571,1591,1610,1632,1653,1670,1691,1710,1730,1750,1770,1791,1811,1831,1850,1870,1890,1910,1930,1950,1971,1990,2010,2031,2054,2072,2091,2110,2130,2154,2170,2190,2210,2230,2254,2270,2291,2310,2330,2351,2370,2391,2411,2430,2450,2471,2491,2510,2530,2550,2571],"xSR":741.5,"ySR":469.95,"xT1":424.9,"yT1":0,"xT2":1058.1,"yT2":0,"toosoon":0,"cond_shown":"Congruent","ratio_trial":300,"L_num":8,"L_den":16,"R_num":1,"R_den":5,"correct_side":1,"subjID":"GabrielAlbertoRodriguezRoncancio8","gender":"0","school":"6","age":"11"},{"start_time":1551794035674,"click_time":1551794039355,"finger_time":1551794038413,"fix_duration":318.15604054035384,"trial":19,"RT":2739,"MT":942,"sideResp":2,"stimulus":[],"xmouse":[793,793,793,793,793,793,793,793,793,793,793,793,794,794,796,796,796,796,796,796,796,796,796,796,796,796,796,796,796,796,796,796,796,796,796,796,796,796,796,796,796,796,796,796,796,796,796,796,796,796,796,796,796,796,796,796,796,796,796,796,796,796,796,796,796,796,796,796,796,796,796,796,796,796,796,796,796,796,795,795,795,795,795,795,795,795,795,795,795,795,795,795,795,795,795,795,795,795,795,795,795,795,795,795,795,795,795,795,795,795,795,795,795,795,795,795,795,795,795,795,795,795,795,795,795,795,795,795,795,795,795,795,795,797,802,806,815,830,853,939,976,995,1009,1012,1014,1016,1018,1020,1022,1025,1025,1025,1025,1026,1029,1033,1035,1038,1038,1040,1041,1041,1042,1042,1042,1043,1043,1044,1044,1046,1047,1048,1048,1049,1050,1051,1051,1052,1053,1054,1055,1056,1057,1058,1059],"ymouse":[508,508,508,508,508,508,508,508,508,508,508,508,508,508,508,508,508,508,508,508,508,508,508,508,509,509,509,509,509,509,509,509,509,509,509,509,509,509,509,509,509,509,509,509,509,509,509,509,509,509,509,509,509,509,509,509,509,509,509,509,509,509,509,509,509,509,509,509,509,509,509,509,509,509,511,511,511,513,513,513,513,513,513,513,513,513,513,513,513,513,513,513,513,513,513,513,513,513,513,513,513,513,513,513,513,513,513,513,513,513,513,513,513,513,513,513,513,513,513,513,513,513,513,513,513,513,513,513,513,513,513,513,513,511,501,492,476,450,414,260,201,176,157,151,147,145,141,139,136,132,132,132,132,131,128,124,122,121,120,119,118,117,117,117,117,116,116,115,114,112,111,111,110,109,108,107,107,106,104,103,102,101,100,99,98],"timestamp_mouse":[2,34,39,59,79,99,119,140,161,180,199,220,240,260,279,299,320,339,360,380,399,419,441,460,480,500,519,540,560,580,601,620,639,661,681,700,719,739,759,780,800,820,839,859,879,899,919,940,959,979,1000,1020,1039,1059,1079,1099,1120,1139,1159,1179,1200,1219,1240,1259,1279,1299,1319,1340,1360,1380,1399,1419,1440,1460,1479,1500,1520,1539,1559,1581,1601,1619,1640,1659,1679,1699,1719,1739,1759,1780,1799,1819,1841,1860,1881,1901,1919,1941,1960,1980,1999,2020,2040,2060,2080,2099,2119,2140,2160,2181,2200,2219,2240,2260,2279,2299,2320,2339,2359,2381,2400,2419,2439,2460,2479,2499,2520,2539,2559,2579,2599,2619,2639,2660,2681,2699,2719,2739,2760,2781,2799,2819,2839,2860,2880,2899,2919,2939,2959,2980,2999,3019,3039,3060,3079,3099,3120,3141,3160,3180,3199,3219,3239,3259,3281,3299,3319,3341,3359,3381,3401,3419,3440,3459,3480,3499,3520,3540,3561,3582,3599,3620,3639,3659,3681],"xSR":741.5,"ySR":469.95,"xT1":424.9,"yT1":0,"xT2":1058.1,"yT2":0,"toosoon":0,"cond_shown":"Incongruent","ratio_trial":200,"L_num":7,"L_den":15,"R_num":6,"R_den":9,"correct_side":2,"subjID":"GabrielAlbertoRodriguezRoncancio8","gender":"0","school":"6","age":"11"},{"start_time":1551794040914,"click_time":1551794043253,"finger_time":1551794042474,"fix_duration":520.4685997660173,"trial":20,"RT":1560,"MT":779,"sideResp":1,"stimulus":[],"xmouse":[786,786,786,786,786,786,786,786,786,786,786,786,786,786,786,786,786,786,786,786,786,786,786,786,786,786,786,786,786,786,786,786,786,786,786,786,786,786,786,786,786,786,786,786,786,786,786,786,786,786,786,786,786,786,786,786,786,786,786,786,786,786,786,786,786,786,786,786,786,786,786,786,786,785,782,777,768,741,727,715,704,692,661,648,640,633,624,621,618,617,615,611,610,607,604,601,599,593,592,590,589,584,582,581,578,574,572,566,564,561,555,548,532,522,514,511,507],"ymouse":[500,500,500,500,500,500,500,500,500,500,500,500,500,500,500,500,500,500,500,500,500,500,500,500,500,500,500,500,500,500,500,500,500,500,500,500,500,500,500,500,500,500,500,500,500,500,500,500,500,500,500,500,500,500,500,500,500,500,500,500,500,500,500,500,500,500,500,500,500,500,500,500,500,500,498,492,482,451,433,416,398,374,322,302,286,273,250,240,231,227,224,215,210,207,202,198,195,187,185,182,180,173,170,167,163,158,155,148,145,140,133,126,114,109,104,100,97],"timestamp_mouse":[25,56,59,80,100,120,139,159,180,199,219,240,259,281,300,319,339,359,380,400,420,440,460,480,499,519,539,559,581,600,619,639,659,679,700,719,741,760,780,799,819,840,860,880,899,920,939,959,980,1000,1020,1042,1060,1079,1099,1119,1139,1159,1180,1199,1219,1242,1260,1279,1300,1320,1339,1359,1380,1399,1420,1441,1460,1480,1499,1520,1539,1560,1580,1599,1619,1639,1659,1680,1700,1719,1743,1759,1780,1799,1819,1843,1860,1880,1899,1920,1939,1960,1979,1999,2020,2042,2059,2079,2099,2119,2140,2159,2179,2200,2219,2239,2259,2280,2299,2320,2339],"xSR":741.5,"ySR":469.95,"xT1":424.9,"yT1":0,"xT2":1058.1,"yT2":0,"toosoon":0,"cond_shown":"Congruent","ratio_trial":200,"L_num":7,"L_den":15,"R_num":18,"R_den":27,"correct_side":2,"subjID":"GabrielAlbertoRodriguezRoncancio8","gender":"0","school":"6","age":"11"},{"start_time":1551794045098,"click_time":1551794047593,"finger_time":1551794046675,"fix_duration":1023.9631089165837,"trial":21,"RT":1577,"MT":918,"sideResp":2,"stimulus":[],"xmouse":[827,827,827,827,827,827,827,827,826,826,826,825,825,824,824,824,824,824,824,824,824,824,824,824,824,824,824,824,824,824,824,824,824,824,824,824,824,824,824,824,824,824,824,824,824,824,824,824,824,824,824,824,824,824,824,824,824,824,824,824,824,824,824,824,824,824,824,824,824,824,824,824,824,824,824,824,824,827,856,885,923,959,978,990,997,1007,1014,1028,1053,1063,1070,1076,1078,1084,1087,1089,1090,1091,1092,1092,1092,1092,1092,1090,1089,1088,1085,1085,1084,1084,1084,1084,1084,1084,1082,1082,1081,1080,1079,1079,1079,1079,1079,1079,1079],"ymouse":[503,503,503,503,503,503,503,503,504,504,504,504,504,505,505,505,505,505,505,505,505,505,505,505,505,505,505,505,505,505,505,505,505,505,505,505,505,505,505,505,505,505,505,505,505,505,505,505,505,505,505,505,505,505,505,505,505,505,505,505,505,505,505,505,505,505,505,505,505,505,505,505,505,505,505,505,505,503,477,443,388,329,293,264,253,242,232,222,202,194,187,183,181,172,165,161,158,154,150,148,147,146,145,138,136,131,124,121,120,119,119,119,119,119,117,117,115,113,110,106,104,103,102,100,99],"timestamp_mouse":[15,35,55,76,95,115,136,155,176,195,216,235,256,276,295,316,336,356,377,395,415,436,456,476,495,515,537,555,576,595,616,636,656,676,696,716,735,755,776,795,815,835,856,877,895,915,935,956,976,995,1017,1036,1055,1076,1096,1115,1135,1156,1176,1196,1215,1235,1256,1275,1296,1315,1335,1355,1375,1397,1416,1436,1455,1475,1495,1516,1535,1556,1577,1595,1615,1636,1655,1677,1695,1715,1735,1755,1777,1795,1815,1836,1855,1877,1895,1917,1936,1955,1976,1995,2016,2036,2055,2077,2095,2115,2135,2155,2177,2196,2216,2235,2256,2276,2295,2316,2336,2355,2375,2395,2416,2436,2455,2477,2495],"xSR":741.5,"ySR":469.95,"xT1":424.9,"yT1":0,"xT2":1058.1,"yT2":0,"toosoon":0,"cond_shown":"Congruent","ratio_trial":200,"L_num":7,"L_den":15,"R_num":18,"R_den":27,"correct_side":2,"subjID":"GabrielAlbertoRodriguezRoncancio8","gender":"0","school":"6","age":"11"},{"start_time":1551794051778,"click_time":1551794053795,"finger_time":1551794053294,"fix_duration":1383.9558662107497,"trial":22,"RT":1516,"MT":501,"sideResp":2,"stimulus":[],"xmouse":[796,796,796,796,796,796,796,796,796,796,796,796,796,796,796,796,796,796,796,796,796,796,796,796,796,796,796,796,796,796,796,796,796,796,796,796,796,796,796,796,796,796,796,796,796,796,796,796,796,796,796,796,796,796,796,796,796,796,796,796,796,796,796,796,796,796,796,796,796,801,808,813,821,834,862,873,885,896,910,949,967,982,1001,1014,1042,1055,1072,1093,1123,1150,1156,1160,1164,1166,1170,1170,1165,1150,1120,1099],"ymouse":[532,532,532,532,532,532,532,532,532,532,532,532,532,532,532,532,532,532,532,532,532,532,532,532,532,532,532,532,532,532,532,532,532,532,532,532,532,532,532,532,532,532,532,532,532,532,532,532,532,532,532,532,532,532,532,532,532,532,532,532,532,532,532,532,532,532,532,532,532,529,524,521,515,504,482,472,461,451,439,410,399,390,378,369,352,344,334,322,305,284,276,267,255,246,216,202,182,156,106,46],"timestamp_mouse":[37,57,77,97,117,136,156,176,196,217,236,257,276,296,316,337,356,376,396,417,437,457,477,496,516,536,556,577,596,617,636,656,676,696,717,736,756,777,796,816,836,856,877,896,917,936,956,977,997,1017,1036,1056,1077,1096,1116,1137,1156,1177,1196,1217,1236,1256,1276,1296,1316,1336,1356,1376,1396,1417,1436,1457,1477,1496,1516,1536,1556,1578,1597,1618,1636,1657,1676,1696,1718,1736,1757,1776,1797,1817,1836,1856,1877,1897,1916,1937,1957,1976,1997,2017],"xSR":741.5,"ySR":469.95,"xT1":424.9,"yT1":0,"xT2":1058.1,"yT2":0,"toosoon":0,"cond_shown":"Incongruent","ratio_trial":300,"L_num":13,"L_den":26,"R_num":12,"R_den":15,"correct_side":2,"subjID":"GabrielAlbertoRodriguezRoncancio8","gender":"0","school":"6","age":"11"},{"start_time":1551794055379,"click_time":1551794058014,"finger_time":1551794056796,"fix_duration":382.6630301971947,"trial":23,"RT":1417,"MT":1218,"sideResp":1,"stimulus":[],"xmouse":[820,820,820,820,820,820,820,820,820,820,820,820,820,820,820,820,820,820,820,820,820,820,820,820,820,820,820,820,820,820,820,820,820,820,820,820,820,820,820,820,820,820,820,820,820,820,820,820,820,820,820,820,820,820,820,820,820,820,820,820,820,820,820,820,820,820,820,820,821,834,863,873,875,875,875,876,877,880,886,898,929,948,963,977,989,1005,1010,1014,1020,1023,1025,1025,1026,1027,1027,1028,1028,1028,1028,1028,1028,1028,1028,1027,1023,1014,1007,1004,1000,999,998,997,995,988,973,950,860,759,706,672,643,639,636,633,627,608,597,578,568,550,521,476],"ymouse":[531,531,531,531,531,531,531,531,531,531,531,531,531,531,531,531,531,531,531,531,531,531,531,531,531,531,531,531,531,531,531,531,531,531,531,531,531,531,531,531,531,531,531,531,531,531,531,531,531,531,531,531,531,531,531,531,531,531,531,531,531,531,531,531,531,531,531,531,529,513,486,477,474,474,474,473,471,465,449,431,392,368,349,334,321,301,293,288,279,276,273,271,271,270,269,267,267,267,267,267,267,267,267,267,268,271,272,274,275,276,276,277,278,280,282,285,285,285,275,268,258,255,252,247,239,213,199,170,153,135,115,85],"timestamp_mouse":[22,46,56,76,95,116,135,156,175,195,217,236,257,276,296,318,336,356,376,395,416,435,456,476,495,517,537,555,575,595,617,636,655,675,695,715,737,756,775,795,816,835,855,876,896,916,935,955,975,996,1016,1035,1056,1075,1095,1117,1136,1156,1175,1195,1216,1235,1255,1276,1295,1315,1335,1355,1376,1396,1417,1435,1455,1475,1496,1517,1535,1555,1575,1595,1617,1635,1655,1676,1696,1718,1735,1755,1775,1796,1818,1835,1855,1876,1895,1918,1935,1956,1975,1996,2017,2035,2056,2076,2096,2118,2135,2155,2175,2195,2218,2235,2255,2275,2295,2316,2335,2355,2376,2395,2417,2435,2456,2475,2495,2518,2535,2555,2575,2595,2616,2635],"xSR":741.5,"ySR":469.95,"xT1":424.9,"yT1":0,"xT2":1058.1,"yT2":0,"toosoon":0,"cond_shown":"Incongruent","ratio_trial":200,"L_num":1,"L_den":2,"R_num":3,"R_den":10,"correct_side":1,"subjID":"GabrielAlbertoRodriguezRoncancio8","gender":"0","school":"6","age":"11"},{"start_time":1551794059779,"click_time":1551794061854,"finger_time":1551794061155,"fix_duration":723.0412667375764,"trial":24,"RT":1376,"MT":699,"sideResp":2,"stimulus":[],"xmouse":[778,778,778,778,778,778,778,778,778,778,778,778,778,778,778,778,778,778,778,778,778,778,778,778,778,778,778,778,778,778,778,778,778,778,778,778,778,778,778,778,778,778,778,778,778,778,778,778,778,779,779,779,779,779,779,779,779,779,779,779,779,779,779,779,779,780,803,818,845,921,994,1074,1085,1087,1089,1092,1107,1119,1130,1141,1147,1150,1150,1150,1147,1142,1137,1136,1136,1136,1136,1136,1136,1136,1136,1136,1134,1134,1133,1131,1131,1129,1128,1128],"ymouse":[515,515,515,515,515,515,515,515,515,515,515,515,515,515,515,515,515,515,515,515,515,515,515,515,515,515,515,515,515,515,515,515,515,515,515,515,515,515,515,515,515,515,515,515,515,515,515,515,515,515,515,515,515,515,515,515,515,515,515,515,515,515,515,515,515,515,496,482,456,405,356,274,254,245,238,225,195,180,166,152,143,130,127,124,120,115,111,110,110,110,110,110,110,110,110,110,108,107,106,104,103,101,100,99],"timestamp_mouse":[16,43,55,75,95,118,135,156,175,195,218,236,256,277,296,317,335,355,375,395,416,435,456,476,495,515,535,556,575,596,618,635,656,675,695,715,735,755,775,796,818,836,855,875,895,915,935,957,976,995,1016,1035,1055,1075,1095,1115,1135,1155,1175,1195,1215,1235,1255,1275,1295,1315,1337,1355,1376,1395,1415,1436,1455,1475,1496,1515,1536,1555,1575,1595,1615,1637,1655,1675,1696,1715,1736,1755,1775,1796,1817,1835,1855,1875,1895,1916,1935,1955,1975,1995,2015,2036,2056,2075],"xSR":741.5,"ySR":469.95,"xT1":424.9,"yT1":0,"xT2":1058.1,"yT2":0,"toosoon":0,"cond_shown":"Incongruent","ratio_trial":100,"L_num":8,"L_den":20,"R_num":1,"R_den":2,"correct_side":2,"subjID":"GabrielAlbertoRodriguezRoncancio8","gender":"0","school":"6","age":"11"},{"start_time":1551794063155,"click_time":1551794067214,"finger_time":1551794064875,"fix_duration":498.0793179682685,"trial":25,"RT":1720,"MT":2339,"sideResp":1,"stimulus":[],"xmouse":[774,774,774,774,774,774,774,774,774,774,774,774,774,774,774,774,774,774,774,774,774,774,774,774,774,774,774,774,774,774,774,774,774,774,774,774,774,774,774,774,774,774,774,774,774,774,774,774,774,774,774,774,774,774,774,774,774,774,774,774,774,774,774,774,774,774,774,774,775,776,776,777,778,779,781,783,785,788,792,793,795,799,804,815,820,824,832,840,863,874,883,890,895,896,896,891,884,863,835,826,822,818,812,798,785,766,749,728,672,645,611,585,571,562,561,560,559,559,558,558,558,558,558,558,558,558,558,557,557,556,556,555,555,553,553,551,550,548,548,545,545,545,544,543,541,540,540,539,537,536,536,536,536,536,536,536,536,536,536,536,534,533,533,532,532,532,532,532,532,531,531,531,531,531,531,531,531,531,531,531,531,531,531,531,531,531,531,532,534,539,540,540,540,540,540,540,540,540,540,540,540,540,540,523],"ymouse":[536,536,536,536,536,536,536,536,536,536,536,536,536,536,536,536,536,536,536,536,536,536,536,536,536,536,536,536,536,536,536,536,536,536,536,536,536,536,536,536,536,536,536,536,536,536,536,536,536,536,536,536,536,536,536,536,536,536,536,536,536,536,536,536,536,536,536,536,535,535,534,533,531,530,528,527,526,525,524,523,521,518,509,494,487,482,467,455,424,409,395,382,369,353,346,338,329,309,289,283,279,275,270,258,249,238,228,217,184,159,140,127,119,113,112,111,110,110,110,110,110,110,110,110,110,110,110,109,109,108,108,108,107,105,104,102,102,101,100,98,98,98,96,95,95,94,94,94,93,93,92,92,92,92,92,92,92,92,92,92,92,92,92,92,92,92,92,92,92,92,92,92,92,92,92,92,92,92,92,92,92,92,92,92,93,93,93,93,94,95,95,95,95,95,95,95,95,95,95,95,95,95,95,92],"timestamp_mouse":[1,31,40,59,79,100,119,139,159,179,200,219,240,260,279,299,320,339,360,379,399,420,439,459,480,499,520,539,560,579,600,620,639,660,679,700,719,739,760,780,799,819,840,861,880,899,919,939,960,980,999,1019,1040,1062,1079,1099,1121,1139,1159,1179,1199,1219,1239,1260,1280,1300,1320,1340,1361,1379,1399,1419,1440,1459,1479,1499,1519,1539,1560,1579,1599,1620,1639,1661,1679,1699,1720,1740,1761,1779,1799,1820,1840,1862,1880,1899,1919,1940,1961,1979,2000,2019,2041,2062,2079,2099,2120,2139,2161,2179,2200,2219,2240,2261,2279,2299,2320,2340,2361,2379,2400,2420,2439,2461,2479,2499,2520,2539,2560,2579,2599,2619,2640,2661,2679,2699,2719,2740,2759,2780,2799,2821,2839,2862,2879,2900,2919,2939,2961,2979,3000,3020,3039,3061,3079,3100,3119,3139,3161,3179,3199,3219,3240,3261,3279,3299,3319,3340,3361,3379,3400,3420,3440,3461,3479,3499,3520,3539,3559,3580,3599,3619,3641,3661,3679,3699,3720,3739,3759,3779,3800,3820,3840,3861,3879,3899,3919,3940,3962,3980,4001,4019,4040,4059],"xSR":741.5,"ySR":469.95,"xT1":424.9,"yT1":0,"xT2":1058.1,"yT2":0,"toosoon":0,"cond_shown":"Congruent","ratio_trial":200,"L_num":3,"L_den":10,"R_num":11,"R_den":22,"correct_side":2,"subjID":"GabrielAlbertoRodriguezRoncancio8","gender":"0","school":"6","age":"11"},{"start_time":1551794069000,"click_time":1551794070855,"finger_time":1551794070436,"fix_duration":1025.5328724490764,"trial":26,"RT":1436,"MT":419,"sideResp":2,"stimulus":[],"xmouse":[778,778,778,778,778,778,778,778,778,778,778,778,778,778,778,778,778,778,778,778,778,778,778,778,778,778,778,778,778,778,778,778,778,778,778,778,778,778,778,778,778,778,778,778,778,778,778,778,778,778,779,781,783,783,783,784,784,784,784,784,784,784,784,784,784,784,784,784,784,788,805,900,926,941,947,950,955,959,966,975,989,1019,1029,1037,1045,1048,1054,1056,1059,1062,1068,1088,1091],"ymouse":[548,548,548,548,548,548,548,548,548,548,548,548,548,548,548,548,548,548,548,548,548,548,548,548,548,548,548,548,548,548,548,548,548,548,548,548,548,548,548,548,548,548,548,548,548,548,548,548,548,547,547,544,542,542,541,541,541,541,541,541,541,541,541,541,541,541,541,541,539,519,476,356,330,316,309,305,296,288,278,268,255,216,203,190,178,172,163,159,154,146,135,101,95],"timestamp_mouse":[15,50,55,74,95,114,134,155,174,194,215,235,254,274,295,315,334,354,374,394,417,435,454,475,494,514,534,555,574,595,614,634,654,674,694,715,735,755,774,795,814,834,855,876,894,914,934,955,974,995,1014,1036,1054,1074,1094,1114,1135,1154,1174,1196,1214,1235,1255,1274,1295,1314,1334,1355,1375,1395,1415,1436,1456,1474,1495,1514,1536,1554,1574,1594,1615,1635,1655,1674,1694,1714,1735,1754,1774,1794,1816,1835,1855],"xSR":741.5,"ySR":469.95,"xT1":424.9,"yT1":0,"xT2":1058.1,"yT2":0,"toosoon":0,"cond_shown":"Congruent","ratio_trial":100,"L_num":6,"L_den":12,"R_num":15,"R_den":25,"correct_side":2,"subjID":"GabrielAlbertoRodriguezRoncancio8","gender":"0","school":"6","age":"11"},{"start_time":1551794072058,"click_time":1551794074115,"finger_time":1551794073614,"fix_duration":341.75880276382856,"trial":27,"RT":1556,"MT":501,"sideResp":2,"stimulus":[],"xmouse":[796,796,795,795,795,795,795,795,795,795,795,795,795,795,795,795,795,795,795,795,795,795,795,795,795,795,795,795,795,795,795,795,794,794,794,794,794,794,794,794,794,794,794,794,794,794,794,794,794,794,794,794,794,794,794,794,794,794,794,794,793,793,793,793,793,793,793,793,793,793,793,793,793,793,793,793,793,793,789,785,784,785,791,811,828,854,902,1010,1138,1171,1187,1193,1194,1195,1196,1196,1196,1194,1186,1179,1172,1164,1156],"ymouse":[545,545,545,545,544,544,544,544,544,544,544,544,544,544,544,544,544,544,544,544,544,544,544,544,544,544,544,544,544,544,544,544,543,543,543,543,543,543,543,543,543,543,543,543,543,543,543,543,543,543,543,543,543,542,542,541,541,541,541,541,540,540,540,540,540,540,540,540,540,540,540,539,539,530,523,509,478,452,396,373,357,344,330,298,279,254,225,182,146,136,127,121,119,113,111,106,104,100,94,90,84,79,75],"timestamp_mouse":[32,37,56,77,96,116,137,158,176,197,216,237,256,276,297,317,336,357,377,397,416,437,456,478,497,516,536,556,578,596,616,636,656,676,696,716,737,756,776,796,817,836,856,877,897,917,937,956,976,996,1017,1036,1056,1077,1097,1116,1136,1156,1176,1197,1216,1236,1256,1276,1296,1317,1337,1356,1377,1397,1417,1437,1457,1478,1496,1516,1536,1556,1578,1596,1617,1636,1656,1678,1696,1717,1736,1757,1778,1796,1816,1837,1857,1877,1896,1916,1936,1957,1978,1996,2018,2037,2057],"xSR":741.5,"ySR":469.95,"xT1":424.9,"yT1":0,"xT2":1058.1,"yT2":0,"toosoon":0,"cond_shown":"Congruent","ratio_trial":100,"L_num":4,"L_den":10,"R_num":15,"R_den":30,"correct_side":2,"subjID":"GabrielAlbertoRodriguezRoncancio8","gender":"0","school":"6","age":"11"},{"start_time":1551794077952,"click_time":1551794079874,"finger_time":1551794079374,"fix_duration":1395.955006833144,"trial":28,"RT":1422,"MT":500,"sideResp":1,"stimulus":[],"xmouse":[815,815,815,814,812,807,805,804,803,803,803,803,803,803,803,803,803,803,803,803,803,803,803,803,803,803,803,803,803,803,803,803,803,803,803,803,803,803,803,803,804,804,804,804,804,804,804,804,804,804,804,804,804,804,804,804,804,804,804,804,804,804,804,804,804,804,804,804,803,800,781,769,761,754,747,739,736,735,732,728,708,695,683,673,662,629,602,586,576,570,563,560,553,542,534,526,524],"ymouse":[514,514,514,513,510,501,499,497,495,495,495,495,496,496,496,496,496,496,496,496,496,496,496,496,496,496,496,496,496,496,496,496,496,496,496,496,496,496,496,496,498,500,500,501,501,501,501,501,501,501,501,501,501,501,501,501,501,501,501,501,501,501,501,501,501,501,501,501,499,497,473,457,438,415,391,356,346,340,331,317,270,243,223,207,189,149,126,112,103,97,91,89,86,82,81,78,78],"timestamp_mouse":[13,37,42,63,83,102,122,143,163,182,202,224,242,262,283,302,323,342,363,382,403,423,443,462,482,502,522,542,562,582,604,622,642,663,682,702,722,742,762,782,802,823,843,862,882,902,924,942,962,982,1002,1022,1043,1062,1082,1103,1123,1142,1162,1183,1202,1223,1242,1262,1282,1302,1323,1342,1363,1383,1404,1422,1442,1463,1484,1503,1522,1542,1563,1582,1603,1622,1642,1662,1682,1703,1722,1743,1763,1782,1803,1822,1842,1862,1883,1904,1922],"xSR":741.5,"ySR":469.95,"xT1":424.9,"yT1":0,"xT2":1058.1,"yT2":0,"toosoon":0,"cond_shown":"Incongruent","ratio_trial":300,"L_num":4,"L_den":20,"R_num":2,"R_den":4,"correct_side":2,"subjID":"GabrielAlbertoRodriguezRoncancio8","gender":"0","school":"6","age":"11"},{"start_time":1551794082235,"click_time":1551794083715,"finger_time":1551794083534,"fix_duration":260.35419448851115,"trial":29,"RT":1299,"MT":181,"sideResp":1,"stimulus":[],"xmouse":[773,773,773,773,773,773,773,773,773,773,773,773,773,773,773,773,773,773,773,773,773,773,773,773,773,773,773,773,773,773,773,773,773,773,773,773,773,773,773,773,773,773,773,773,773,773,773,773,773,773,772,772,772,772,772,772,772,772,772,772,772,772,768,758,740,642,574,490,473,453,446,446,446,446],"ymouse":[512,512,512,512,512,512,512,512,512,512,512,512,512,512,512,512,512,512,512,512,512,512,512,512,512,512,512,512,512,512,512,512,512,512,512,512,512,512,512,512,512,512,512,512,512,512,512,512,512,512,512,512,512,512,512,512,512,512,512,512,512,512,510,505,496,422,360,267,242,196,139,122,104,99],"timestamp_mouse":[21,52,59,80,100,120,139,159,179,199,220,239,259,279,299,322,339,360,379,400,420,439,459,479,500,520,539,559,580,600,620,639,660,679,699,720,742,759,779,799,819,839,859,880,900,919,941,959,979,999,1019,1039,1059,1080,1099,1119,1139,1159,1179,1200,1221,1240,1259,1280,1299,1321,1342,1361,1379,1399,1421,1439,1459,1480],"xSR":741.5,"ySR":469.95,"xT1":424.9,"yT1":0,"xT2":1058.1,"yT2":0,"toosoon":0,"cond_shown":"Incongruent","ratio_trial":300,"L_num":2,"L_den":4,"R_num":6,"R_den":30,"correct_side":1,"subjID":"GabrielAlbertoRodriguezRoncancio8","gender":"0","school":"6","age":"11"},{"start_time":1551794085704,"click_time":1551794087876,"finger_time":1551794087335,"fix_duration":828.2023624322459,"trial":30,"RT":1631,"MT":541,"sideResp":2,"stimulus":[],"xmouse":[773,773,773,774,774,774,774,774,776,776,776,776,776,776,777,777,778,778,778,778,778,778,778,778,778,778,778,778,778,778,778,778,778,778,778,778,778,778,778,778,778,778,778,778,778,778,778,778,778,778,778,778,778,778,778,778,778,778,778,778,778,778,778,778,778,778,778,778,778,779,781,781,781,783,783,784,787,788,799,803,808,814,826,832,842,852,867,884,928,955,980,1008,1032,1054,1054,1054,1054,1054,1054,1054,1054,1054,1054,1054,1054,1054,1054,1054,1089],"ymouse":[501,501,501,501,501,501,501,501,501,501,501,501,501,501,501,501,501,501,501,501,501,501,501,501,501,501,501,501,501,501,501,501,501,501,501,501,501,501,501,501,501,501,501,501,501,501,501,501,501,501,501,501,501,501,501,501,501,501,501,501,501,501,501,501,501,501,501,501,501,500,498,498,498,497,496,495,493,492,483,479,473,464,426,405,381,356,329,299,226,181,134,83,39,1,1,1,1,1,1,1,1,1,1,1,1,1,1,1,11],"timestamp_mouse":[13,36,53,70,90,111,130,150,170,190,210,231,250,270,290,311,330,350,371,390,411,431,453,471,491,511,530,550,570,591,611,631,653,671,691,710,731,750,770,791,811,831,850,870,890,910,930,953,970,990,1010,1030,1051,1070,1092,1110,1131,1150,1170,1191,1210,1230,1250,1270,1291,1310,1332,1350,1370,1390,1411,1430,1450,1470,1492,1510,1530,1551,1571,1591,1611,1631,1654,1671,1690,1710,1730,1751,1770,1790,1810,1830,1851,1870,1890,1911,1930,1950,1972,1991,2011,2031,2050,2071,2091,2111,2130,2150,2171],"xSR":741.5,"ySR":469.95,"xT1":424.9,"yT1":0,"xT2":1058.1,"yT2":0,"toosoon":0,"cond_shown":"Congruent","ratio_trial":200,"L_num":12,"L_den":15,"R_num":6,"R_den":10,"correct_side":1,"subjID":"GabrielAlbertoRodriguezRoncancio8","gender":"0","school":"6","age":"11"},{"start_time":1551794089639,"click_time":1551794090714,"finger_time":1551794090435,"fix_duration":763.3030662186352,"trial":31,"RT":796,"MT":279,"sideResp":1,"stimulus":[],"xmouse":[777,777,777,777,777,777,777,777,777,777,777,777,777,777,777,777,777,776,775,771,763,756,755,754,754,754,754,754,754,754,756,758,759,759,760,760,761,761,762,763,765,768,770,772,773,773,773,767,750,689,630,497,453,426],"ymouse":[506,506,506,506,506,506,506,506,506,506,506,506,506,506,506,506,506,503,501,496,487,481,480,479,479,479,479,479,479,478,477,474,473,472,471,471,471,471,470,468,467,462,460,460,459,459,459,456,444,392,339,184,116,56],"timestamp_mouse":[16,36,55,75,95,116,137,155,175,196,216,237,255,275,296,315,335,356,376,397,415,436,455,476,495,515,536,555,575,596,615,637,655,675,695,715,737,755,776,796,816,837,855,875,895,916,936,955,975,995,1016,1038,1055,1075],"xSR":741.5,"ySR":469.95,"xT1":424.9,"yT1":0,"xT2":1058.1,"yT2":0,"toosoon":0,"cond_shown":"Congruent","ratio_trial":100,"L_num":9,"L_den":15,"R_num":8,"R_den":16,"correct_side":1,"subjID":"GabrielAlbertoRodriguezRoncancio8","gender":"0","school":"6","age":"11"},{"start_time":1551794091713,"click_time":1551794092915,"finger_time":1551794092555,"fix_duration":298.9781918741595,"trial":32,"RT":842,"MT":360,"sideResp":1,"stimulus":[],"xmouse":[795,795,795,795,795,795,795,795,795,795,795,795,795,795,793,786,782,780,780,780,780,780,780,780,780,780,780,780,780,779,779,779,779,779,779,779,778,778,775,770,760,743,725,686,670,663,654,649,645,625,616,610,606,606,606,606,591,571,554,526,510],"ymouse":[513,513,513,513,513,513,513,513,513,513,513,513,513,513,513,513,512,511,511,511,511,511,511,511,511,511,511,511,511,510,510,510,510,510,510,510,510,509,508,508,505,496,482,434,391,345,278,245,217,174,158,147,139,137,135,135,128,122,114,102,97],"timestamp_mouse":[2,34,42,62,81,101,121,142,161,181,202,221,241,261,281,302,322,343,362,381,401,421,441,463,481,501,521,541,563,581,602,621,641,663,681,702,722,741,763,782,801,821,842,864,881,902,921,941,962,981,1001,1023,1042,1064,1082,1101,1121,1142,1161,1181,1202],"xSR":741.5,"ySR":469.95,"xT1":424.9,"yT1":0,"xT2":1058.1,"yT2":0,"toosoon":0,"cond_shown":"Incongruent","ratio_trial":100,"L_num":13,"L_den":26,"R_num":12,"R_den":20,"correct_side":2,"subjID":"GabrielAlbertoRodriguezRoncancio8","gender":"0","school":"6","age":"11"},{"start_time":1551794095111,"click_time":1551794096595,"finger_time":1551794095334,"fix_duration":1473.1534641420012,"trial":33,"RT":223,"MT":1261,"sideResp":1,"stimulus":[],"xmouse":[776,776,776,776,776,776,776,776,776,764,751,738,733,733,733,733,733,733,733,733,733,733,733,733,733,733,733,733,733,733,733,734,747,777,803,807,808,808,808,808,808,808,808,808,808,808,808,808,810,810,808,800,788,759,670,613,563,530,523,523,523,523,522,515,506,506,506,506,505,500,495,491,486,481,479],"ymouse":[547,547,547,547,547,547,547,543,540,536,536,536,536,536,536,536,536,536,536,536,536,536,536,536,536,536,536,536,536,536,536,536,536,550,581,586,586,586,586,586,586,586,586,586,583,580,577,566,553,530,521,511,497,472,409,369,332,303,286,256,230,195,172,144,127,127,127,127,126,123,119,115,110,101,94],"timestamp_mouse":[4,36,43,63,83,103,124,143,164,184,203,223,243,263,283,303,323,343,363,383,403,423,443,466,483,503,523,544,563,583,603,623,643,664,683,703,723,744,763,783,805,823,843,864,884,904,923,944,964,983,1003,1023,1044,1065,1083,1103,1123,1143,1163,1183,1205,1223,1243,1263,1284,1303,1323,1343,1364,1384,1404,1423,1443,1463,1484],"xSR":741.5,"ySR":469.95,"xT1":424.9,"yT1":0,"xT2":1058.1,"yT2":0,"toosoon":0,"cond_shown":"Incongruent","ratio_trial":200,"L_num":7,"L_den":15,"R_num":6,"R_den":9,"correct_side":2,"subjID":"GabrielAlbertoRodriguezRoncancio8","gender":"0","school":"6","age":"11"},{"start_time":1551794097929,"click_time":1551794099596,"finger_time":1551794098995,"fix_duration":553.347155999288,"trial":34,"RT":1066,"MT":601,"sideResp":2,"stimulus":[],"xmouse":[791,791,791,791,791,791,791,791,791,791,791,791,791,791,791,791,791,792,792,792,792,792,792,792,792,792,792,792,792,792,792,792,792,792,792,792,792,792,792,792,792,792,792,792,792,792,792,793,795,797,797,798,802,805,807,807,808,808,808,808,808,808,808,808,808,815,826,845,913,954,1004,1016,1037,1047,1049,1050,1052,1053,1058,1058,1058,1058,1058,1060],"ymouse":[517,517,517,517,517,517,517,517,517,517,517,517,517,517,517,517,517,517,517,517,517,517,517,517,517,517,517,517,517,517,517,517,517,517,517,517,517,517,517,517,517,517,517,517,517,517,517,515,508,502,496,489,477,467,464,463,463,462,462,462,462,462,462,462,458,443,423,392,289,236,174,159,127,105,100,95,91,86,75,73,73,73,72,71],"timestamp_mouse":[8,27,56,66,85,105,125,145,166,186,205,225,246,266,285,306,325,345,366,385,405,425,445,466,485,505,527,546,566,585,605,625,645,666,685,705,725,745,766,785,806,825,847,866,885,905,925,945,967,985,1005,1026,1046,1066,1085,1105,1125,1146,1166,1185,1205,1225,1246,1266,1285,1306,1327,1346,1367,1385,1405,1427,1445,1467,1485,1505,1526,1545,1567,1585,1606,1625,1645,1667],"xSR":741.5,"ySR":469.95,"xT1":424.9,"yT1":0,"xT2":1058.1,"yT2":0,"toosoon":0,"cond_shown":"Incongruent","ratio_trial":200,"L_num":14,"L_den":30,"R_num":12,"R_den":18,"correct_side":2,"subjID":"GabrielAlbertoRodriguezRoncancio8","gender":"0","school":"6","age":"11"},{"start_time":1551794100630,"click_time":1551794102035,"finger_time":1551794101735,"fix_duration":255.777160685272,"trial":35,"RT":1105,"MT":300,"sideResp":1,"stimulus":[],"xmouse":[817,817,817,817,817,817,817,817,817,817,817,817,817,817,817,817,817,817,817,817,817,817,817,817,817,817,817,817,817,817,817,817,817,817,817,817,817,817,817,817,817,817,817,817,817,817,817,817,817,817,817,817,817,817,775,713,652,611,595,594,596,599,601,602,602,596,592,588,559,539,524],"ymouse":[515,515,515,515,515,515,515,515,515,515,515,515,515,515,515,515,515,515,515,515,515,515,515,515,515,515,515,515,515,515,515,515,515,515,515,515,515,515,515,515,515,515,515,515,515,515,515,515,515,515,515,515,515,515,478,414,342,280,238,200,187,178,173,168,163,155,150,143,115,100,87],"timestamp_mouse":[5,37,44,65,84,104,124,144,164,184,205,224,244,266,284,305,324,345,366,384,405,424,445,466,484,505,524,546,564,584,604,624,645,664,684,705,724,744,766,784,805,824,845,864,884,905,924,945,965,984,1004,1025,1045,1064,1084,1105,1124,1145,1164,1184,1204,1224,1246,1267,1285,1305,1325,1345,1367,1384,1405],"xSR":741.5,"ySR":469.95,"xT1":424.9,"yT1":0,"xT2":1058.1,"yT2":0,"toosoon":0,"cond_shown":"Congruent","ratio_trial":200,"L_num":1,"L_den":2,"R_num":21,"R_den":30,"correct_side":2,"subjID":"GabrielAlbertoRodriguezRoncancio8","gender":"0","school":"6","age":"11"},{"start_time":1551794106448,"click_time":1551794108294,"finger_time":1551794107816,"fix_duration":812.376458745977,"trial":36,"RT":1368,"MT":478,"sideResp":1,"stimulus":[],"xmouse":[797,797,797,797,797,797,797,797,797,797,797,797,797,797,797,797,797,797,797,797,797,797,797,797,797,797,797,797,797,797,797,797,797,797,797,797,797,797,797,797,797,797,797,797,797,797,797,797,797,797,797,797,797,797,797,797,797,797,797,797,797,797,797,797,797,797,797,795,685,635,560,525,454,435,435,435,435,435,444,463,489,496,521,541,543,543,543,543,543,541,535,528,514],"ymouse":[545,545,545,545,545,545,545,545,545,545,545,545,545,545,545,545,545,545,545,545,545,545,545,545,545,545,545,545,545,545,545,545,545,545,545,545,545,545,545,545,545,545,545,545,545,545,545,545,545,545,545,545,545,545,545,545,545,545,545,545,545,545,545,545,545,545,545,534,422,385,315,291,244,233,233,233,233,233,224,207,181,172,144,114,102,95,93,93,93,93,93,93,92],"timestamp_mouse":[6,26,51,67,87,107,126,147,167,186,206,237,246,268,286,306,326,347,368,386,406,426,446,467,486,506,527,546,567,586,606,626,646,667,686,706,726,747,767,786,806,826,846,867,887,906,926,946,967,987,1007,1026,1046,1068,1087,1106,1127,1147,1167,1186,1206,1226,1246,1266,1286,1306,1326,1346,1368,1386,1406,1426,1446,1468,1486,1506,1526,1546,1567,1586,1607,1626,1646,1668,1686,1707,1727,1746,1766,1788,1806,1826,1846],"xSR":741.5,"ySR":469.95,"xT1":424.9,"yT1":0,"xT2":1058.1,"yT2":0,"toosoon":0,"cond_shown":"Congruent","ratio_trial":200,"L_num":7,"L_den":21,"R_num":2,"R_den":15,"correct_side":1,"subjID":"GabrielAlbertoRodriguezRoncancio8","gender":"0","school":"6","age":"11"},{"start_time":1551794110284,"click_time":1551794112375,"finger_time":1551794111776,"fix_duration":786.1885185777684,"trial":37,"RT":1492,"MT":599,"sideResp":2,"stimulus":[],"xmouse":[812,812,812,812,812,812,812,812,812,812,812,812,812,812,812,812,812,812,812,812,812,812,812,812,812,812,812,812,812,812,812,812,812,812,812,812,812,812,812,812,812,812,812,812,812,812,812,812,812,812,812,812,812,812,812,812,812,812,812,812,812,812,812,812,812,812,812,812,812,812,812,814,824,838,845,847,849,855,861,870,878,893,901,908,918,927,966,992,1003,1010,1013,1014,1015,1016,1016,1016,1017,1018,1020,1021,1022,1030,1041,1052,1062],"ymouse":[512,512,512,512,512,512,512,512,512,512,512,512,512,512,512,512,512,512,512,512,512,512,512,512,512,512,512,512,512,512,512,512,512,512,512,512,512,512,512,512,512,512,512,512,512,512,512,512,512,512,512,512,512,512,512,512,512,512,512,512,512,512,512,512,512,512,512,512,512,512,512,512,498,474,457,451,445,432,418,402,386,350,332,313,293,271,205,163,144,127,116,107,100,98,94,90,83,78,74,73,73,71,70,69,67],"timestamp_mouse":[11,35,50,71,90,110,132,150,171,190,210,232,251,270,290,310,330,350,370,390,411,430,450,471,490,510,530,550,570,590,610,631,650,670,690,711,730,750,770,790,810,830,850,870,890,911,930,951,970,990,1010,1033,1050,1070,1091,1110,1133,1151,1171,1190,1212,1230,1251,1270,1290,1311,1333,1350,1370,1390,1410,1433,1451,1471,1492,1512,1534,1551,1572,1591,1610,1634,1652,1671,1691,1711,1734,1752,1771,1791,1810,1831,1851,1870,1891,1910,1933,1950,1971,1992,2011,2034,2050,2071,2091],"xSR":741.5,"ySR":469.95,"xT1":424.9,"yT1":0,"xT2":1058.1,"yT2":0,"toosoon":0,"cond_shown":"Incongruent","ratio_trial":300,"L_num":1,"L_den":2,"R_num":3,"R_den":15,"correct_side":1,"subjID":"GabrielAlbertoRodriguezRoncancio8","gender":"0","school":"6","age":"11"},{"start_time":1551794124901,"click_time":1551794131495,"finger_time":1551794126355,"fix_duration":1161.035798499725,"trial":38,"RT":1454,"MT":5140,"sideResp":1,"stimulus":[],"xmouse":[817,817,817,817,817,817,817,817,817,817,817,817,817,817,817,817,817,817,817,817,817,817,817,817,817,817,817,817,817,817,817,817,817,817,817,817,817,817,817,817,817,817,817,817,817,817,817,817,817,817,817,817,817,817,817,817,817,817,817,817,817,817,817,817,817,817,817,817,817,817,803,790,771,741,732,726,720,712,709,705,700,693,666,645,624,600,581,568,565,565,564,563,560,558,556,556,556,556,556,556,556,556,556,556,556,556,556,557,557,557,557,558,558,558,559,559,559,562,562,563,565,567,569,571,573,580,595,608,628,631,633,633,633,633,633,633,633,633,633,633,633,633,633,633,633,633,633,633,633,633,633,633,633,633,633,633,633,633,633,633,633,633,633,633,633,633,633,633,633,633,633,633,633,633,633,633,633,633,633,633,633,633,633,633,633,633,633,633,634,634,634,634,634,634,634,634,634,634,634,634,634,634,634,634,634,634,634,634,634,634,634,634,634,634,634,634,634,634,634,634,634,634,634,634,634,634,634,634,634,634,634,634,634,634,634,634,634,634,634,634,634,634,634,634,634,634,634,634,634,634,634,634,634,634,634,634,634,634,634,634,634,634,634,634,634,634,634,634,634,634,634,634,634,634,634,634,634,634,634,634,634,634,634,634,634,634,634,634,634,634,634,634,634,634,634,634,634,634,634,634,634,634,634,634,634,634,634,634,634,632,628,619,595,524,489,465,455,455,455,454,454,454,454,454,453,457,462,466,474,474],"ymouse":[519,519,519,519,519,519,519,519,519,519,519,519,519,519,519,519,519,519,519,519,519,519,519,519,519,519,519,519,519,519,519,519,519,519,519,519,519,519,519,519,519,519,519,519,519,519,519,519,519,519,519,519,519,519,519,519,519,519,519,519,519,519,519,519,519,519,519,519,519,519,503,488,466,415,394,374,359,343,337,334,328,321,303,292,281,271,261,252,249,245,239,234,227,217,211,206,201,195,193,192,192,192,191,189,188,186,184,180,177,176,175,173,172,171,169,169,168,164,163,161,159,157,155,153,153,151,147,144,140,140,139,139,139,139,139,139,139,139,139,139,139,139,139,139,139,139,139,139,139,139,139,139,139,139,139,139,139,139,139,139,139,139,139,139,139,139,139,139,139,139,139,139,139,139,139,139,139,139,139,139,139,139,139,139,139,139,139,139,139,140,140,141,141,142,142,142,142,142,142,142,142,142,142,142,142,142,142,142,142,142,142,142,142,142,142,142,142,142,142,142,142,142,142,142,142,142,142,142,142,142,142,142,142,142,142,142,142,142,142,142,142,142,142,142,142,142,142,142,142,142,142,142,142,142,142,142,142,142,142,142,142,142,142,142,142,142,142,142,142,142,142,142,144,144,144,144,144,144,144,144,144,144,144,144,144,144,144,144,144,144,144,144,144,144,144,144,144,144,144,144,144,144,144,144,144,144,144,145,146,147,147,148,148,148,148,148,148,148,148,148,148,148,148,148,147,142,138,132,102,84],"timestamp_mouse":[13,34,55,74,94,115,135,155,174,193,214,234,255,274,295,315,334,354,374,394,414,434,455,475,494,513,535,556,575,594,615,633,655,675,694,713,734,756,775,794,814,835,855,874,894,915,934,954,973,994,1014,1035,1055,1074,1094,1115,1134,1154,1174,1194,1214,1235,1255,1273,1294,1313,1335,1355,1374,1394,1414,1435,1454,1473,1494,1515,1535,1556,1574,1595,1613,1634,1656,1673,1694,1715,1734,1756,1774,1794,1814,1833,1855,1873,1894,1914,1934,1956,1974,1994,2013,2034,2056,2073,2095,2115,2135,2156,2174,2194,2215,2235,2256,2273,2294,2314,2333,2357,2373,2394,2415,2435,2456,2474,2494,2514,2535,2553,2574,2594,2613,2634,2656,2674,2694,2715,2735,2756,2774,2795,2814,2834,2856,2873,2894,2914,2935,2956,2974,2993,3014,3035,3055,3074,3094,3113,3135,3157,3173,3194,3214,3233,3256,3274,3294,3314,3334,3356,3373,3394,3414,3435,3456,3474,3494,3514,3535,3556,3574,3593,3613,3634,3656,3673,3694,3715,3734,3753,3774,3795,3815,3834,3856,3873,3894,3914,3933,3956,3974,3995,4015,4034,4057,4074,4093,4115,4134,4157,4174,4195,4214,4234,4254,4273,4294,4315,4335,4357,4374,4393,4413,4434,4457,4474,4494,4515,4533,4554,4573,4595,4615,4634,4656,4674,4695,4714,4733,4755,4774,4794,4814,4834,4857,4873,4894,4914,4934,4953,4973,4994,5014,5034,5057,5074,5094,5114,5134,5157,5174,5194,5214,5233,5253,5274,5294,5314,5335,5354,5373,5394,5413,5433,5455,5475,5494,5513,5534,5557,5574,5593,5613,5635,5655,5675,5694,5714,5733,5757,5773,5794,5814,5835,5855,5873,5894,5914,5933,5954,5974,5994,6015,6035,6055,6073,6095,6113,6133,6155,6173,6194,6214,6234,6253,6274,6293,6313,6333,6353,6374,6393,6415,6434,6454,6473,6494,6514,6535,6555,6573,6594],"xSR":741.5,"ySR":469.95,"xT1":424.9,"yT1":0,"xT2":1058.1,"yT2":0,"toosoon":0,"cond_shown":"Congruent","ratio_trial":100,"L_num":2,"L_den":5,"R_num":11,"R_den":22,"correct_side":2,"subjID":"GabrielAlbertoRodriguezRoncancio8","gender":"0","school":"6","age":"11"},{"start_time":1551794133130,"click_time":1551794133976,"finger_time":1551794133476,"fix_duration":733.4939072466367,"trial":39,"RT":346,"MT":500,"sideResp":2,"stimulus":[],"xmouse":[814,814,814,814,814,814,814,814,814,814,814,814,814,814,814,814,819,838,850,862,878,900,942,947,951,952,954,958,960,964,970,980,997,1000,1001,1003,1006,1021,1038,1059,1087,1115,1134],"ymouse":[498,498,498,498,498,498,498,498,498,498,498,498,498,498,497,493,479,442,424,408,387,362,325,319,314,310,307,299,296,291,284,277,264,261,260,256,252,230,211,183,146,110,60],"timestamp_mouse":[7,29,44,65,84,105,125,145,165,185,205,224,244,265,285,305,325,346,364,386,406,425,446,464,484,506,525,546,564,586,605,626,646,666,684,705,726,746,766,785,805,824,846],"xSR":741.5,"ySR":469.95,"xT1":424.9,"yT1":0,"xT2":1058.1,"yT2":0,"toosoon":0,"cond_shown":"Congruent","ratio_trial":300,"L_num":20,"L_den":25,"R_num":8,"R_den":16,"correct_side":1,"subjID":"GabrielAlbertoRodriguezRoncancio8","gender":"0","school":"6","age":"11"},{"start_time":1551794135187,"click_time":1551794136195,"finger_time":1551794135415,"fix_duration":250,"trial":40,"RT":228,"MT":780,"sideResp":1,"stimulus":[],"xmouse":[783,783,783,783,783,784,783,782,779,776,771,765,761,757,755,744,738,726,717,694,683,667,660,656,649,638,633,629,627,623,622,621,620,620,617,613,606,596,585,562,544,537,534,530,527,527,527,524,523,520,515],"ymouse":[524,524,524,524,524,522,517,513,504,493,472,453,440,427,413,379,363,346,332,304,292,278,271,266,260,252,249,245,243,240,239,238,235,230,217,211,202,194,186,170,160,155,151,148,143,139,134,128,122,108,86],"timestamp_mouse":[11,28,56,67,88,108,128,147,169,187,208,228,248,268,288,308,328,349,368,390,408,428,449,468,488,508,529,549,568,590,608,629,648,668,690,707,728,748,769,790,808,829,847,868,890,908,928,948,969,991,1008],"xSR":741.5,"ySR":469.95,"xT1":424.9,"yT1":0,"xT2":1058.1,"yT2":0,"toosoon":0,"cond_shown":"Incongruent","ratio_trial":100,"L_num":3,"L_den":9,"R_num":7,"R_den":30,"correct_side":1,"subjID":"GabrielAlbertoRodriguezRoncancio8","gender":"0","school":"6","age":"11"},{"start_time":1551794138216,"click_time":1551794139256,"finger_time":1551794138578,"fix_duration":840.836576728527,"trial":41,"RT":362,"MT":678,"sideResp":1,"stimulus":[],"xmouse":[808,808,808,808,808,808,808,808,808,808,808,808,807,800,786,768,753,733,726,725,725,725,727,731,731,731,731,731,724,721,718,716,711,709,707,705,701,688,659,640,621,603,587,566,562,560,559,558,555,548,535,520],"ymouse":[526,526,526,526,526,526,526,526,526,526,526,526,526,526,523,519,514,504,497,489,473,454,434,383,357,336,318,308,285,279,273,269,264,261,259,258,255,245,224,212,199,187,176,160,157,155,155,151,143,132,116,98],"timestamp_mouse":[28,39,59,80,99,125,138,158,178,200,219,239,259,280,300,319,339,362,379,399,420,440,459,479,498,519,539,559,579,598,620,639,662,680,698,719,739,759,780,799,819,839,859,878,900,919,939,962,979,1000,1020,1040],"xSR":741.5,"ySR":469.95,"xT1":424.9,"yT1":0,"xT2":1058.1,"yT2":0,"toosoon":0,"cond_shown":"Incongruent","ratio_trial":100,"L_num":3,"L_den":6,"R_num":4,"R_den":10,"correct_side":1,"subjID":"GabrielAlbertoRodriguezRoncancio8","gender":"0","school":"6","age":"11"},{"start_time":1551794140997,"click_ti