[{"start_time":1551794668221,"click_time":1551794671567,"finger_time":1551794668230,"fix_duration":250,"trial":0,"RT":9,"MT":3337,"sideResp":2,"stimulus":"img/250/equaldotanddens/R/11_Ratio_250_L_3_R_12.png","xmouse":[788,788,788,788,788,788,788,788,788,788,788,788,788,788,788,788,788,788,788,788,788,788,788,788,788,788,788,788,788,788,788,788,788,788,788,788,788,788,788,788,788,788,788,788,788,788,788,788,788,788,788,788,788,788,788,788,788,788,788,788,788,788,788,788,788,788,788,789,790,790,790,791,791,791,793,794,795,795,795,795,795,795,795,795,795,795,795,795,795,795,795,795,795,795,795,795,795,795,795,795,795,795,795,795,795,795,795,795,795,795,795,795,795,795,795,795,795,795,795,795,795,795,795,795,795,795,795,795,795,795,795,795,795,795,795,795,795,795,795,795,795,795,795,795,795,795,795,804,810,820,837,898,930,955,989,1016,1036,1041,1045,1048,1051,1055,1055,1055,1055,1055,1058,1063],"ymouse":[571,571,571,571,571,571,571,571,571,571,571,571,571,571,571,571,571,571,571,571,571,571,571,571,571,571,571,571,571,571,571,571,571,571,571,571,571,571,571,571,571,571,571,571,571,571,571,571,571,571,571,571,571,571,571,571,571,571,571,571,571,571,571,571,571,570,570,569,568,567,566,561,559,556,549,540,518,512,509,509,509,509,509,509,509,509,509,509,509,509,509,509,509,509,509,509,509,509,509,509,509,509,509,509,509,509,509,509,509,509,509,509,509,509,509,509,509,509,509,509,509,509,509,509,509,509,509,509,509,509,509,509,509,509,509,509,509,509,509,509,509,509,509,509,509,509,509,501,494,481,461,384,338,288,237,189,136,120,106,94,86,81,81,81,81,81,78,75],"timestamp_mouse":[9,26,47,67,85,106,125,147,166,187,206,226,245,266,287,307,326,346,367,385,406,425,446,467,485,506,526,546,567,585,605,626,645,666,687,706,725,745,765,787,807,825,845,865,886,905,926,946,966,985,1006,1026,1046,1065,1086,1106,1125,1146,1167,1186,1206,1226,1245,1265,1285,1306,1325,1346,1366,1386,1406,1425,1446,1465,1487,1506,1526,1545,1566,1587,1605,1627,1647,1666,1686,1706,1727,1747,1766,1787,1805,1826,1846,1866,1886,1906,1925,1946,1966,1986,2006,2027,2045,2065,2087,2105,2126,2146,2165,2186,2206,2225,2245,2267,2285,2306,2325,2345,2366,2386,2406,2425,2447,2466,2485,2506,2527,2546,2566,2585,2605,2627,2646,2666,2686,2706,2726,2745,2766,2787,2806,2826,2846,2865,2885,2906,2925,2945,2965,2985,3006,3026,3046,3066,3085,3106,3126,3146,3166,3186,3206,3225,3246,3266,3286,3306,3325,3345],"xSR":741.5,"ySR":501.8,"xT1":424.9,"yT1":0,"xT2":1058.1,"yT2":0,"toosoon":0,"cond_shown":"equaldotanddens","ratio_trial":250,"smaller_num":"3","larger_num":"12","correct_side":2,"subjID":"GabrielAlbertoRodriguezRoncancio","gender":"0","age":"11","school":"6","test":{"fix_dur":[250,1500],"timestim":300,"targets_dim":[100,100],"targets_relative_coord":[0.3,0.7],"size_stim":[880,420],"start_dim":[100,100],"size_start":[300,300],"size_fix":60,"samplingrate":20,"img_types":["equaldotsize","equaldotanddens","randomdotsizeEA"],"ratios":[250,500,750,900],"rep_conds":9,"nTrials":120,"trials_to_rest":500,"Trials_order":[25,117,12,1,48,4,53,34,68,23,20,65,59,5,90,16,86,39,105,80,8,24,108,82,6,85,58,114,94,2,118,56,3,52,107,64,45,89,27,95,29,63,66,96,73,17,9,35,47,72,101,100,21,112,97,61,60,44,102,26,81,28,104,84,74,70,30,83,22,99,78,42,88,71,46,18,67,11,14,103,110,119,43,75,50,79,115,32,106,113,10,116,76,55,54,111,31,87,93,92,109,37,33,19,57,15,38,51,0,36,91,7,69,40,13,77,98,62,49,41],"cond_shown":["equaldotanddens","equaldotsize","equaldotsize","equaldotanddens","equaldotsize","equaldotanddens","randomdotsizeEA","equaldotanddens","randomdotsizeEA","randomdotsizeEA","randomdotsizeEA","randomdotsizeEA","randomdotsizeEA","randomdotsizeEA","equaldotsize","equaldotanddens","randomdotsizeEA","equaldotsize","equaldotsize","randomdotsizeEA","randomdotsizeEA","equaldotsize","equaldotsize","equaldotanddens","equaldotsize","equaldotanddens","equaldotanddens","equaldotsize","equaldotanddens","randomdotsizeEA","equaldotanddens","randomdotsizeEA","equaldotsize","equaldotanddens","randomdotsizeEA","equaldotanddens","equaldotsize","randomdotsizeEA","equaldotsize","randomdotsizeEA","randomdotsizeEA","equaldotsize","equaldotsize","equaldotsize","equaldotanddens","randomdotsizeEA","equaldotsize","randomdotsizeEA","randomdotsizeEA","equaldotsize","randomdotsizeEA","equaldotanddens","equaldotsize","equaldotanddens","equaldotanddens","equaldotanddens","equaldotsize","randomdotsizeEA","equaldotsize","randomdotsizeEA","equaldotsize","equaldotanddens","randomdotsizeEA","equaldotsize","randomdotsizeEA","equaldotanddens","equaldotsize","randomdotsizeEA","equaldotanddens","equaldotsize","equaldotsize","equaldotsize","equaldotanddens","randomdotsizeEA","equaldotanddens","equaldotsize","equaldotanddens","randomdotsizeEA","randomdotsizeEA","equaldotanddens","randomdotsizeEA","randomdotsizeEA","equaldotanddens","equaldotsize","randomdotsizeEA","equaldotanddens","equaldotanddens","randomdotsizeEA","equaldotanddens","randomdotsizeEA","equaldotanddens","randomdotsizeEA","equaldotanddens","equaldotanddens","equaldotsize","equaldotsize","equaldotanddens","equaldotsize","equaldotsize","randomdotsizeEA","equaldotanddens","equaldotanddens","equaldotsize","equaldotanddens","equaldotsize","equaldotsize","randomdotsizeEA","equaldotsize","equaldotsize","equaldotsize","equaldotanddens","equaldotanddens","equaldotsize","equaldotanddens","equaldotanddens","randomdotsizeEA","randomdotsizeEA","randomdotsizeEA","equaldotanddens","randomdotsizeEA"],"ratio_trial":[250,900,250,250,250,500,500,900,750,900,750,500,900,500,750,500,250,500,900,750,750,250,250,900,750,250,900,750,900,250,900,750,500,500,900,500,900,500,500,900,500,500,750,250,250,500,900,900,900,250,500,500,900,500,250,250,250,750,750,250,900,500,750,250,250,900,750,900,900,500,750,750,500,900,900,750,750,900,250,750,250,900,750,500,250,750,750,750,900,500,900,750,500,750,750,500,750,500,900,750,250,250,900,750,900,500,250,500,250,250,750,750,900,500,250,500,250,250,250,500],"smaller_num":["3","9","1","6","1","2","3","18","9","18","15","9","18","5","3","2","6","1","9","3","3","3","2","18","15","3","9","3","18","2","18","3","9","2","18","6","18","4","2","18","1","5","9","5","2","2","18","18","18","2","1","6","9","9","4","2","3","15","3","3","9","3","6","2","6","18","15","18","18","6","6","15","10","9","18","15","15","18","3","3","2","18","3","10","4","15","9","6","9","6","9","15","5","18","18","1","15","10","18","3","2","6","18","9","18","9","2","9","2","2","15","3","9","10","3","3","6","4","4","6"],"larger_num":["12","10","4","24","4","4","6","20","12","20","20","18","20","10","4","4","24","2","10","4","4","12","8","20","20","12","10","4","20","8","20","4","18","4","20","12","20","8","4","20","2","10","12","20","8","4","20","20","20","8","2","12","10","18","16","8","12","20","4","12","10","6","8","8","24","20","20","20","20","12","8","20","20","10","20","20","20","20","12","4","8","20","4","20","16","20","12","8","10","12","10","20","10","24","24","2","20","20","20","4","8","24","20","12","20","18","8","18","8","8","20","4","10","20","12","6","24","16","16","12"],"correct_side":[2,1,2,2,2,1,2,1,2,1,2,1,1,1,1,1,1,2,2,2,1,1,1,1,2,2,1,1,2,2,2,1,2,1,2,1,2,1,2,1,2,2,2,2,1,2,2,1,1,1,2,1,2,1,1,1,1,2,2,2,2,2,2,1,2,2,2,1,1,1,1,2,2,1,1,2,2,1,1,1,1,2,2,2,1,2,2,1,2,1,2,2,1,1,1,2,1,2,1,1,1,2,1,2,1,1,1,2,1,1,2,2,2,2,2,2,2,2,2,1],"img_shown":["img/250/equaldotanddens/R/11_Ratio_250_L_3_R_12.png","img/900/equaldotsize/L/1_Ratio_900_L_10_R_9.png","img/250/equaldotsize/R/8_Ratio_250_L_1_R_4.png","img/250/equaldotanddens/R/6_Ratio_250_L_6_R_24.png","img/250/equaldotsize/R/8_Ratio_250_L_1_R_4.png","img/500/equaldotanddens/L/5_Ratio_500_L_4_R_2.png","img/500/randomdotsizeEA/R/2_Ratio_500_L_3_R_6.png","img/900/equaldotanddens/L/10_Ratio_900_L_20_R_18.png","img/750/randomdotsizeEA/R/15_Ratio_750_L_9_R_12.png","img/900/randomdotsizeEA/L/10_Ratio_900_L_20_R_18.png","img/750/randomdotsizeEA/R/4_Ratio_750_L_15_R_20.png","img/500/randomdotsizeEA/L/4_Ratio_500_L_18_R_9.png","img/900/randomdotsizeEA/L/2_Ratio_900_L_20_R_18.png","img/500/randomdotsizeEA/L/7_Ratio_500_L_10_R_5.png","img/750/equaldotsize/L/10_Ratio_750_L_4_R_3.png","img/500/equaldotanddens/L/10_Ratio_500_L_4_R_2.png","img/250/randomdotsizeEA/L/5_Ratio_250_L_24_R_6.png","img/500/equaldotsize/R/15_Ratio_500_L_1_R_2.png","img/900/equaldotsize/R/6_Ratio_900_L_9_R_10.png","img/750/randomdotsizeEA/R/12_Ratio_750_L_3_R_4.png","img/750/randomdotsizeEA/L/10_Ratio_750_L_4_R_3.png","img/250/equaldotsize/L/15_Ratio_250_L_12_R_3.png","img/250/equaldotsize/L/3_Ratio_250_L_8_R_2.png","img/900/equaldotanddens/L/4_Ratio_900_L_20_R_18.png","img/750/equaldotsize/R/5_Ratio_750_L_15_R_20.png","img/250/equaldotanddens/R/4_Ratio_250_L_3_R_12.png","img/900/equaldotanddens/L/1_Ratio_900_L_10_R_9.png","img/750/equaldotsize/L/9_Ratio_750_L_4_R_3.png","img/900/equaldotanddens/R/9_Ratio_900_L_18_R_20.png","img/250/randomdotsizeEA/R/13_Ratio_250_L_2_R_8.png","img/900/equaldotanddens/R/14_Ratio_900_L_18_R_20.png","img/750/randomdotsizeEA/L/8_Ratio_750_L_4_R_3.png","img/500/equaldotsize/R/1_Ratio_500_L_9_R_18.png","img/500/equaldotanddens/L/10_Ratio_500_L_4_R_2.png","img/900/randomdotsizeEA/R/14_Ratio_900_L_18_R_20.png","img/500/equaldotanddens/L/13_Ratio_500_L_12_R_6.png","img/900/equaldotsize/R/12_Ratio_900_L_18_R_20.png","img/500/randomdotsizeEA/L/8_Ratio_500_L_8_R_4.png","img/500/equaldotsize/R/9_Ratio_500_L_2_R_4.png","img/900/randomdotsizeEA/L/4_Ratio_900_L_20_R_18.png","img/500/randomdotsizeEA/R/15_Ratio_500_L_1_R_2.png","img/500/equaldotsize/R/14_Ratio_500_L_5_R_10.png","img/750/equaldotsize/R/15_Ratio_750_L_9_R_12.png","img/250/equaldotsize/R/12_Ratio_250_L_5_R_20.png","img/250/equaldotanddens/L/1_Ratio_250_L_8_R_2.png","img/500/randomdotsizeEA/R/9_Ratio_500_L_2_R_4.png","img/900/equaldotsize/R/9_Ratio_900_L_18_R_20.png","img/900/randomdotsizeEA/L/10_Ratio_900_L_20_R_18.png","img/900/randomdotsizeEA/L/10_Ratio_900_L_20_R_18.png","img/250/equaldotsize/L/3_Ratio_250_L_8_R_2.png","img/500/randomdotsizeEA/R/12_Ratio_500_L_1_R_2.png","img/500/equaldotanddens/L/11_Ratio_500_L_12_R_6.png","img/900/equaldotsize/R/7_Ratio_900_L_9_R_10.png","img/500/equaldotanddens/L/4_Ratio_500_L_18_R_9.png","img/250/equaldotanddens/L/2_Ratio_250_L_16_R_4.png","img/250/equaldotanddens/L/1_Ratio_250_L_8_R_2.png","img/250/equaldotsize/L/15_Ratio_250_L_12_R_3.png","img/750/randomdotsizeEA/R/3_Ratio_750_L_15_R_20.png","img/750/equaldotsize/R/12_Ratio_750_L_3_R_4.png","img/250/randomdotsizeEA/R/9_Ratio_250_L_3_R_12.png","img/900/equaldotsize/R/3_Ratio_900_L_9_R_10.png","img/500/equaldotanddens/R/2_Ratio_500_L_3_R_6.png","img/750/randomdotsizeEA/R/2_Ratio_750_L_6_R_8.png","img/250/equaldotsize/L/1_Ratio_250_L_8_R_2.png","img/250/randomdotsizeEA/R/6_Ratio_250_L_6_R_24.png","img/900/equaldotanddens/R/14_Ratio_900_L_18_R_20.png","img/750/equaldotsize/R/4_Ratio_750_L_15_R_20.png","img/900/randomdotsizeEA/L/10_Ratio_900_L_20_R_18.png","img/900/equaldotanddens/L/4_Ratio_900_L_20_R_18.png","img/500/equaldotsize/L/13_Ratio_500_L_12_R_6.png","img/750/equaldotsize/L/13_Ratio_750_L_8_R_6.png","img/750/equaldotsize/R/5_Ratio_750_L_15_R_20.png","img/500/equaldotanddens/R/3_Ratio_500_L_10_R_20.png","img/900/randomdotsizeEA/L/1_Ratio_900_L_10_R_9.png","img/900/equaldotanddens/L/2_Ratio_900_L_20_R_18.png","img/750/equaldotsize/R/4_Ratio_750_L_15_R_20.png","img/750/equaldotanddens/R/3_Ratio_750_L_15_R_20.png","img/900/randomdotsizeEA/L/4_Ratio_900_L_20_R_18.png","img/250/randomdotsizeEA/L/15_Ratio_250_L_12_R_3.png","img/750/equaldotanddens/L/8_Ratio_750_L_4_R_3.png","img/250/randomdotsizeEA/L/3_Ratio_250_L_8_R_2.png","img/900/randomdotsizeEA/R/9_Ratio_900_L_18_R_20.png","img/750/equaldotanddens/R/12_Ratio_750_L_3_R_4.png","img/500/equaldotsize/R/3_Ratio_500_L_10_R_20.png","img/250/randomdotsizeEA/L/2_Ratio_250_L_16_R_4.png","img/750/equaldotanddens/R/5_Ratio_750_L_15_R_20.png","img/750/equaldotanddens/R/15_Ratio_750_L_9_R_12.png","img/750/randomdotsizeEA/L/14_Ratio_750_L_8_R_6.png","img/900/equaldotanddens/R/6_Ratio_900_L_9_R_10.png","img/500/randomdotsizeEA/L/13_Ratio_500_L_12_R_6.png","img/900/equaldotanddens/R/6_Ratio_900_L_9_R_10.png","img/750/randomdotsizeEA/R/4_Ratio_750_L_15_R_20.png","img/500/equaldotanddens/L/7_Ratio_500_L_10_R_5.png","img/750/equaldotanddens/L/6_Ratio_750_L_24_R_18.png","img/750/equaldotsize/L/6_Ratio_750_L_24_R_18.png","img/500/equaldotsize/R/12_Ratio_500_L_1_R_2.png","img/750/equaldotanddens/L/1_Ratio_750_L_20_R_15.png","img/500/equaldotsize/R/3_Ratio_500_L_10_R_20.png","img/900/equaldotsize/L/4_Ratio_900_L_20_R_18.png","img/750/randomdotsizeEA/L/8_Ratio_750_L_4_R_3.png","img/250/equaldotanddens/L/1_Ratio_250_L_8_R_2.png","img/250/equaldotanddens/R/6_Ratio_250_L_6_R_24.png","img/900/equaldotsize/L/4_Ratio_900_L_20_R_18.png","img/750/equaldotanddens/R/15_Ratio_750_L_9_R_12.png","img/900/equaldotsize/L/4_Ratio_900_L_20_R_18.png","img/500/equaldotsize/L/4_Ratio_500_L_18_R_9.png","img/250/randomdotsizeEA/L/1_Ratio_250_L_8_R_2.png","img/500/equaldotsize/R/6_Ratio_500_L_9_R_18.png","img/250/equaldotsize/L/1_Ratio_250_L_8_R_2.png","img/250/equaldotsize/L/7_Ratio_250_L_8_R_2.png","img/750/equaldotanddens/R/3_Ratio_750_L_15_R_20.png","img/750/equaldotanddens/R/12_Ratio_750_L_3_R_4.png","img/900/equaldotsize/R/6_Ratio_900_L_9_R_10.png","img/500/equaldotanddens/R/3_Ratio_500_L_10_R_20.png","img/250/equaldotanddens/R/4_Ratio_250_L_3_R_12.png","img/500/randomdotsizeEA/R/2_Ratio_500_L_3_R_6.png","img/250/randomdotsizeEA/R/6_Ratio_250_L_6_R_24.png","img/250/randomdotsizeEA/R/10_Ratio_250_L_4_R_16.png","img/250/equaldotanddens/R/10_Ratio_250_L_4_R_16.png","img/500/randomdotsizeEA/L/13_Ratio_500_L_12_R_6.png"],"Rat0":[["12_Ratio_0_L_9_R_0.png","13_Ratio_0_L_6_R_0.png","5_Ratio_0_L_2_R_0.png","6_Ratio_0_L_4_R_0.png","8_Ratio_0_L_6_R_0.png"],["1_Ratio_0_L_0_R_17.png","10_Ratio_0_L_0_R_22.png","11_Ratio_0_L_0_R_1.png","14_Ratio_0_L_0_R_24.png","15_Ratio_0_L_0_R_4.png","2_Ratio_0_L_0_R_5.png","3_Ratio_0_L_0_R_17.png","4_Ratio_0_L_0_R_7.png","7_Ratio_0_L_0_R_19.png","9_Ratio_0_L_0_R_15.png"]],"Rat250":[["1_Ratio_250_L_8_R_2.png","14_Ratio_250_L_12_R_3.png","15_Ratio_250_L_12_R_3.png","2_Ratio_250_L_16_R_4.png","3_Ratio_250_L_8_R_2.png","5_Ratio_250_L_24_R_6.png","7_Ratio_250_L_8_R_2.png"],["10_Ratio_250_L_4_R_16.png","11_Ratio_250_L_3_R_12.png","12_Ratio_250_L_5_R_20.png","13_Ratio_250_L_2_R_8.png","4_Ratio_250_L_3_R_12.png","6_Ratio_250_L_6_R_24.png","8_Ratio_250_L_1_R_4.png","9_Ratio_250_L_3_R_12.png"]],"Rat500":[["10_Ratio_500_L_4_R_2.png","11_Ratio_500_L_12_R_6.png","13_Ratio_500_L_12_R_6.png","4_Ratio_500_L_18_R_9.png","5_Ratio_500_L_4_R_2.png","7_Ratio_500_L_10_R_5.png","8_Ratio_500_L_8_R_4.png"],["1_Ratio_500_L_9_R_18.png","12_Ratio_500_L_1_R_2.png","14_Ratio_500_L_5_R_10.png","15_Ratio_500_L_1_R_2.png","2_Ratio_500_L_3_R_6.png","3_Ratio_500_L_10_R_20.png","6_Ratio_500_L_9_R_18.png","9_Ratio_500_L_2_R_4.png"]],"Rat750":[["1_Ratio_750_L_20_R_15.png","10_Ratio_750_L_4_R_3.png","13_Ratio_750_L_8_R_6.png","14_Ratio_750_L_8_R_6.png","6_Ratio_750_L_24_R_18.png","8_Ratio_750_L_4_R_3.png","9_Ratio_750_L_4_R_3.png"],["11_Ratio_750_L_12_R_16.png","12_Ratio_750_L_3_R_4.png","15_Ratio_750_L_9_R_12.png","2_Ratio_750_L_6_R_8.png","3_Ratio_750_L_15_R_20.png","4_Ratio_750_L_15_R_20.png","5_Ratio_750_L_15_R_20.png","7_Ratio_750_L_3_R_4.png"]],"Rat900":[["1_Ratio_900_L_10_R_9.png","10_Ratio_900_L_20_R_18.png","2_Ratio_900_L_20_R_18.png","4_Ratio_900_L_20_R_18.png","8_Ratio_900_L_20_R_18.png"],["11_Ratio_900_L_18_R_20.png","12_Ratio_900_L_18_R_20.png","13_Ratio_900_L_18_R_20.png","14_Ratio_900_L_18_R_20.png","15_Ratio_900_L_9_R_10.png","3_Ratio_900_L_9_R_10.png","5_Ratio_900_L_9_R_10.png","6_Ratio_900_L_9_R_10.png","7_Ratio_900_L_9_R_10.png","9_Ratio_900_L_18_R_20.png"]],"Rat1000":[["10_Ratio_1000_L_16_R_16.png","11_Ratio_1000_L_6_R_6.png","12_Ratio_1000_L_14_R_14.png","13_Ratio_1000_L_20_R_20.png","15_Ratio_1000_L_15_R_15.png","2_Ratio_1000_L_17_R_17.png","4_Ratio_1000_L_9_R_9.png","5_Ratio_1000_L_6_R_6.png","6_Ratio_1000_L_19_R_19.png","8_Ratio_1000_L_14_R_14.png","9_Ratio_1000_L_25_R_25.png"],["1_Ratio_1000_L_1_R_1.png","14_Ratio_1000_L_17_R_17.png","3_Ratio_1000_L_17_R_17.png","7_Ratio_1000_L_6_R_6.png"]]}},{"start_time":1551794674059,"click_time":1551794675266,"finger_time":1551794674948,"fix_duration":1389.3981506329558,"trial":1,"RT":889,"MT":318,"sideResp":1,"stimulus":"img/900/equaldotsize/L/1_Ratio_900_L_10_R_9.png","xmouse":[787,787,787,787,787,787,787,787,787,787,787,787,787,787,787,787,787,787,787,787,787,787,787,787,787,787,787,787,787,787,787,787,787,787,787,787,787,787,787,787,787,787,786,769,754,738,720,685,671,659,655,647,640,634,624,618,610,585,559,504],"ymouse":[502,502,502,502,502,502,502,502,502,502,502,502,502,502,502,502,502,502,502,502,502,502,502,502,502,502,502,502,502,502,502,502,502,502,502,502,502,502,502,502,501,500,493,456,429,403,379,331,308,278,263,245,228,212,194,183,172,147,128,89],"timestamp_mouse":[8,55,67,88,108,129,147,169,187,207,229,248,268,289,308,328,347,368,388,409,429,447,468,487,507,527,549,569,588,608,629,647,667,687,708,729,747,768,789,809,828,848,868,889,907,927,948,969,988,1009,1027,1048,1067,1088,1107,1128,1148,1168,1187,1207],"xSR":741.5,"ySR":469.95,"xT1":424.9,"yT1":0,"xT2":1058.1,"yT2":0,"toosoon":0,"cond_shown":"equaldotsize","ratio_trial":900,"smaller_num":"9","larger_num":"10","correct_side":1,"subjID":"GabrielAlbertoRodriguezRoncancio","gender":"0","age":"11","school":"6"},{"start_time":1551794676999,"click_time":1551794678247,"finger_time":1551794677907,"fix_duration":849.0164928682149,"trial":2,"RT":908,"MT":340,"sideResp":2,"stimulus":"img/250/equaldotsize/R/8_Ratio_250_L_1_R_4.png","xmouse":[811,811,811,811,811,811,811,811,811,811,811,811,811,811,811,811,811,811,811,811,811,811,811,811,811,811,811,811,811,811,811,811,811,811,811,811,811,811,811,811,811,811,811,812,817,832,857,879,913,933,945,957,965,975,976,976,977,977,984,1002,1035,1055,1072],"ymouse":[514,514,514,514,514,514,514,514,514,514,514,514,514,514,514,514,514,514,514,514,514,514,514,514,514,514,514,514,514,514,514,514,514,514,514,514,514,514,514,514,514,514,514,505,485,450,396,347,269,213,181,154,137,119,118,117,117,117,114,110,100,90,80],"timestamp_mouse":[12,27,47,67,89,108,128,149,167,187,208,227,249,269,288,307,329,348,369,388,407,429,448,467,488,507,529,547,568,589,608,627,647,667,689,708,727,748,768,789,808,827,848,867,888,908,928,948,967,987,1008,1028,1048,1067,1089,1107,1127,1148,1169,1188,1208,1227,1247],"xSR":741.5,"ySR":469.95,"xT1":424.9,"yT1":0,"xT2":1058.1,"yT2":0,"toosoon":0,"cond_shown":"equaldotsize","ratio_trial":250,"smaller_num":"1","larger_num":"4","correct_side":2,"subjID":"GabrielAlbertoRodriguezRoncancio","gender":"0","age":"11","school":"6"},{"start_time":1551794681710,"click_time":1551794682568,"finger_time":1551794682367,"fix_duration":941.5593169346047,"trial":3,"RT":657,"MT":201,"sideResp":2,"stimulus":"img/250/equaldotanddens/R/6_Ratio_250_L_6_R_24.png","xmouse":[801,801,801,801,801,801,801,801,801,801,801,801,801,801,801,801,801,801,801,801,801,801,801,801,801,801,801,801,801,801,801,800,850,880,917,957,985,1024,1040,1053,1061,1068,1072],"ymouse":[517,517,517,517,517,517,517,517,517,517,517,517,517,517,517,517,517,517,517,517,517,517,517,517,517,517,517,517,517,517,517,516,442,405,360,310,273,216,187,161,141,113,74],"timestamp_mouse":[16,36,73,78,96,116,136,157,177,198,216,236,257,277,297,317,337,356,377,397,416,436,457,477,497,516,538,556,577,597,618,637,657,676,697,718,737,757,776,797,817,836,857],"xSR":741.5,"ySR":469.95,"xT1":424.9,"yT1":0,"xT2":1058.1,"yT2":0,"toosoon":0,"cond_shown":"equaldotanddens","ratio_trial":250,"smaller_num":"6","larger_num":"24","correct_side":2,"subjID":"GabrielAlbertoRodriguezRoncancio","gender":"0","age":"11","school":"6"},{"start_time":1551794683978,"click_time":1551794685047,"finger_time":1551794684687,"fix_duration":528.2323789405422,"trial":4,"RT":709,"MT":360,"sideResp":2,"stimulus":"img/250/equaldotsize/R/8_Ratio_250_L_1_R_4.png","xmouse":[782,782,782,782,782,782,782,782,782,782,782,782,782,782,782,782,782,782,782,782,782,782,782,782,782,782,782,782,782,782,782,784,789,802,835,856,881,915,935,949,972,992,1006,1018,1025,1036,1039,1042,1045,1049,1059,1065,1075,1083],"ymouse":[525,525,525,525,525,525,525,525,525,525,525,525,525,525,525,525,525,525,525,525,525,525,525,525,525,525,525,525,525,525,525,525,521,510,485,464,440,396,368,344,291,252,228,207,193,171,160,149,141,133,118,110,102,92],"timestamp_mouse":[10,29,48,69,89,108,130,149,169,189,209,230,250,268,290,310,328,349,368,389,409,429,448,468,490,508,529,549,570,588,609,629,649,668,690,709,729,749,769,789,808,829,850,870,889,908,928,948,969,988,1009,1029,1049,1069],"xSR":741.5,"ySR":469.95,"xT1":424.9,"yT1":0,"xT2":1058.1,"yT2":0,"toosoon":0,"cond_shown":"equaldotsize","ratio_trial":250,"smaller_num":"1","larger_num":"4","correct_side":2,"subjID":"GabrielAlbertoRodriguezRoncancio","gender":"0","age":"11","school":"6"},{"start_time":1551794686288,"click_time":1551794687247,"finger_time":1551794686886,"fix_duration":658.7232726050854,"trial":5,"RT":598,"MT":361,"sideResp":1,"stimulus":"img/500/equaldotanddens/L/5_Ratio_500_L_4_R_2.png","xmouse":[776,776,776,776,776,776,776,776,776,776,776,776,776,776,776,776,776,776,776,776,776,776,776,776,776,776,776,776,776,773,737,685,597,541,507,487,484,483,483,483,483,483,483,483,487,492,492,492,486],"ymouse":[544,544,544,544,544,544,544,544,544,544,544,544,544,544,544,544,544,544,544,544,544,544,544,544,544,544,544,544,544,544,514,452,337,260,206,161,149,145,144,144,144,144,143,140,136,125,119,110,98],"timestamp_mouse":[1,18,41,59,79,100,120,138,158,180,200,218,240,258,280,298,319,338,358,379,398,418,438,460,479,499,520,538,559,579,598,620,639,658,678,698,718,740,759,779,799,819,839,859,879,898,919,938,958],"xSR":741.5,"ySR":469.95,"xT1":424.9,"yT1":0,"xT2":1058.1,"yT2":0,"toosoon":0,"cond_shown":"equaldotanddens","ratio_trial":500,"smaller_num":"2","larger_num":"4","correct_side":1,"subjID":"GabrielAlbertoRodriguezRoncancio","gender":"0","age":"11","school":"6"},{"start_time":1551794688907,"click_time":1551794689987,"finger_time":1551794689706,"fix_duration":579.0029675294434,"trial":6,"RT":799,"MT":281,"sideResp":2,"stimulus":"img/500/randomdotsizeEA/R/2_Ratio_500_L_3_R_6.png","xmouse":[780,780,780,780,780,780,780,780,780,780,780,780,780,780,780,780,780,780,780,780,780,780,780,780,780,780,780,780,780,780,780,780,780,780,780,782,789,806,823,837,874,888,904,923,955,968,980,993,1009,1044,1054,1064,1073,1081,1088],"ymouse":[517,517,517,517,517,517,517,517,517,517,517,517,517,517,517,517,517,517,517,517,517,517,517,517,517,517,517,517,517,517,517,517,517,517,517,517,514,500,487,475,441,425,407,387,351,328,307,281,247,180,159,135,117,100,88],"timestamp_mouse":[8,21,41,59,79,100,120,141,160,180,199,219,241,259,280,299,320,339,361,380,399,420,439,460,479,499,519,539,559,580,601,619,639,660,679,700,720,740,760,779,799,820,839,859,880,900,919,939,960,980,999,1019,1040,1061,1080],"xSR":741.5,"ySR":469.95,"xT1":424.9,"yT1":0,"xT2":1058.1,"yT2":0,"toosoon":0,"cond_shown":"randomdotsizeEA","ratio_trial":500,"smaller_num":"3","larger_num":"6","correct_side":2,"subjID":"GabrielAlbertoRodriguezRoncancio","gender":"0","age":"11","school":"6"},{"start_time":1551794691390,"click_time":1551794693406,"finger_time":1551794692806,"fix_duration":602.0197486604263,"trial":7,"RT":1416,"MT":600,"sideResp":2,"stimulus":"img/900/equaldotanddens/L/10_Ratio_900_L_20_R_18.png","xmouse":[804,804,804,804,804,804,804,804,804,804,804,804,804,804,804,804,804,804,804,804,804,804,804,804,804,804,804,804,804,804,804,804,804,804,804,804,804,804,804,804,804,804,804,804,804,804,805,805,805,805,805,805,805,805,805,805,805,805,805,804,802,796,788,778,774,768,765,762,758,751,733,723,717,710,706,706,706,705,704,702,701,700,700,700,705,739,780,841,904,995,1026,1051,1069,1089,1106,1111,1118,1122,1124,1124,1113],"ymouse":[537,537,537,537,537,537,537,537,537,537,537,537,537,537,537,537,537,537,537,537,537,537,537,537,537,537,537,537,537,537,537,537,537,537,537,537,537,537,537,537,537,537,537,537,536,536,535,535,535,535,535,535,535,535,535,535,535,535,535,535,534,530,524,514,508,498,493,488,481,470,444,431,421,414,409,407,407,406,404,400,397,394,392,388,380,362,355,345,335,303,290,278,267,252,222,202,178,152,127,102,62],"timestamp_mouse":[16,36,57,78,97,117,136,157,177,197,216,238,258,276,297,317,338,357,376,397,418,436,458,477,498,517,536,557,576,598,617,636,658,676,698,717,737,758,776,798,818,838,856,877,898,917,937,956,976,998,1018,1036,1058,1076,1098,1118,1136,1157,1176,1197,1217,1237,1256,1276,1296,1316,1337,1358,1377,1396,1416,1437,1457,1477,1496,1516,1536,1557,1577,1597,1616,1637,1657,1677,1696,1717,1738,1756,1777,1798,1816,1836,1857,1878,1898,1917,1937,1956,1976,1997,2016],"xSR":741.5,"ySR":469.95,"xT1":424.9,"yT1":0,"xT2":1058.1,"yT2":0,"toosoon":0,"cond_shown":"equaldotanddens","ratio_trial":900,"smaller_num":"18","larger_num":"20","correct_side":1,"subjID":"GabrielAlbertoRodriguezRoncancio","gender":"0","age":"11","school":"6"},{"start_time":1551794695087,"click_time":1551794696347,"finger_time":1551794695806,"fix_duration":478.87325321949317,"trial":8,"RT":719,"MT":541,"sideResp":1,"stimulus":"img/750/randomdotsizeEA/R/15_Ratio_750_L_9_R_12.png","xmouse":[773,773,773,773,773,773,773,773,773,773,773,773,773,773,773,773,773,773,773,773,773,773,773,773,773,773,773,773,773,773,773,773,773,773,773,773,725,704,648,635,630,624,621,615,609,602,578,574,573,569,564,550,542,534,529,527,527,527,526,526,525,521,518,514],"ymouse":[541,541,541,541,541,541,541,541,541,541,541,541,541,541,541,541,541,541,541,541,541,541,541,541,541,541,541,541,541,541,541,541,541,541,541,541,490,469,418,400,385,348,329,309,291,273,238,230,227,221,214,195,183,170,157,147,134,127,124,120,117,109,102,95],"timestamp_mouse":[1,19,45,60,80,99,119,140,160,180,200,220,239,259,280,300,320,339,360,381,399,420,441,460,481,500,520,541,559,579,600,619,640,659,681,699,719,740,759,779,800,819,840,860,880,901,919,941,959,980,999,1020,1040,1060,1079,1100,1119,1139,1160,1180,1200,1220,1239,1259],"xSR":741.5,"ySR":469.95,"xT1":424.9,"yT1":0,"xT2":1058.1,"yT2":0,"toosoon":0,"cond_shown":"randomdotsizeEA","ratio_trial":750,"smaller_num":"9","larger_num":"12","correct_side":2,"subjID":"GabrielAlbertoRodriguezRoncancio","gender":"0","age":"11","school":"6"},{"start_time":1551794698073,"click_time":1551794699366,"finger_time":1551794698886,"fix_duration":1004.6374102431369,"trial":9,"RT":813,"MT":480,"sideResp":2,"stimulus":"img/900/randomdotsizeEA/L/10_Ratio_900_L_20_R_18.png","xmouse":[795,795,795,795,795,795,795,795,795,795,795,793,789,784,780,777,774,769,767,767,767,767,767,767,767,767,767,767,767,767,767,767,769,773,777,784,790,816,826,841,858,889,905,922,946,971,1059,1091,1116,1130,1139,1149,1151,1149,1144,1132,1123,1119,1117,1115,1115,1112,1111,1110,1109],"ymouse":[553,553,553,553,553,553,553,553,553,553,553,551,546,541,536,532,528,522,520,519,519,519,519,519,519,519,519,519,519,519,519,518,518,518,518,519,519,520,520,514,501,472,453,432,403,373,297,269,248,231,216,193,184,175,167,153,140,134,128,124,119,110,105,100,96],"timestamp_mouse":[19,40,53,73,94,114,133,154,173,195,213,233,253,275,293,313,334,355,373,394,415,434,454,474,494,513,533,555,574,593,613,633,654,674,693,715,733,754,774,794,813,833,853,874,893,914,934,953,974,993,1013,1033,1053,1074,1093,1113,1133,1153,1173,1194,1214,1234,1253,1274,1293],"xSR":741.5,"ySR":469.95,"xT1":424.9,"yT1":0,"xT2":1058.1,"yT2":0,"toosoon":0,"cond_shown":"randomdotsizeEA","ratio_trial":900,"smaller_num":"18","larger_num":"20","correct_side":1,"subjID":"GabrielAlbertoRodriguezRoncancio","gender":"0","age":"11","school":"6"},{"start_time":1551794704719,"click_time":1551794707827,"finger_time":1551794706267,"fix_duration":931.1390733243584,"trial":10,"RT":1548,"MT":1560,"sideResp":2,"stimulus":"img/750/randomdotsizeEA/R/4_Ratio_750_L_15_R_20.png","xmouse":[775,775,775,775,775,775,775,775,775,775,775,775,775,775,775,775,775,775,775,775,775,775,775,775,775,775,775,775,775,775,775,775,775,775,775,775,776,778,779,780,780,780,780,780,780,780,780,780,780,780,780,780,780,780,780,780,780,780,780,780,780,780,780,780,780,780,780,780,780,780,780,779,774,768,758,749,745,740,731,715,669,656,650,643,635,624,601,588,572,556,543,539,538,536,534,532,532,531,530,530,526,523,521,518,516,516,515,515,515,515,515,515,515,515,515,516,517,518,518,519,520,520,522,522,523,523,524,525,525,525,526,526,526,526,526,526,526,526,526,526,526,536,545,555,566,592,649,737,834,926,1018,1019,1020,1025,1040,1079],"ymouse":[522,522,522,522,522,522,522,522,522,522,522,522,522,522,522,522,522,522,522,522,522,522,522,522,522,522,522,522,522,522,522,522,522,522,522,522,521,518,516,512,512,512,511,511,511,511,511,511,511,511,511,511,511,511,510,510,510,510,510,510,510,510,510,510,510,510,510,510,510,510,510,510,505,502,500,497,497,494,489,479,442,425,414,402,388,370,330,307,281,254,227,212,206,201,197,190,186,181,178,174,168,164,162,160,159,159,159,158,156,152,137,131,127,123,121,116,114,112,111,110,108,107,105,104,103,102,101,100,99,99,98,97,97,97,97,97,97,97,97,97,97,92,91,89,87,83,77,73,73,73,73,73,73,73,73,79],"timestamp_mouse":[9,27,47,69,89,107,128,148,167,189,207,227,247,267,289,308,328,348,368,387,408,427,448,468,488,507,528,548,567,589,607,628,648,668,688,708,728,748,767,789,809,828,849,867,888,908,928,948,969,988,1008,1027,1049,1068,1089,1108,1129,1147,1167,1189,1207,1229,1249,1268,1289,1307,1327,1349,1368,1388,1407,1428,1447,1467,1488,1507,1527,1548,1568,1587,1608,1628,1647,1668,1687,1708,1727,1748,1768,1788,1807,1827,1847,1867,1888,1908,1927,1948,1968,1989,2008,2027,2047,2067,2090,2108,2127,2148,2167,2188,2208,2229,2247,2268,2288,2308,2328,2348,2367,2387,2408,2429,2448,2468,2488,2508,2528,2547,2568,2589,2607,2628,2649,2668,2689,2708,2728,2747,2767,2789,2807,2827,2847,2867,2887,2908,2927,2948,2967,2988,3008,3028,3048,3067,3087,3108],"xSR":741.5,"ySR":469.95,"xT1":424.9,"yT1":0,"xT2":1058.1,"yT2":0,"toosoon":0,"cond_shown":"randomdotsizeEA","ratio_trial":750,"smaller_num":"15","larger_num":"20","correct_side":2,"subjID":"GabrielAlbertoRodriguezRoncancio","gender":"0","age":"11","school":"6"},{"start_time":1551794709789,"click_time":1551794711447,"finger_time":1551794710587,"fix_duration":920.0088070805527,"trial":11,"RT":798,"MT":860,"sideResp":2,"stimulus":"img/500/randomdotsizeEA/L/4_Ratio_500_L_18_R_9.png","xmouse":[802,802,802,802,802,802,802,802,802,802,802,802,802,802,802,802,802,802,802,802,802,802,802,802,802,802,802,802,802,802,802,802,802,802,802,805,809,820,830,845,862,877,904,920,939,963,979,1004,1014,1021,1028,1037,1041,1043,1046,1047,1047,1047,1047,1050,1050,1052,1053,1054,1054,1054,1054,1054,1054,1054,1054,1054,1054,1055,1056,1057,1057,1058,1058,1059,1059,1061,1063],"ymouse":[531,531,531,531,531,531,531,531,531,531,531,531,531,531,531,531,531,531,531,531,531,531,531,531,531,531,531,531,531,531,531,531,531,531,530,525,520,505,494,479,461,446,412,390,366,335,314,276,259,246,234,218,212,208,202,193,188,181,176,170,167,158,153,150,147,144,139,137,132,129,125,119,117,114,112,110,107,105,105,104,103,101,99],"timestamp_mouse":[19,39,58,77,98,118,137,157,178,198,219,238,257,278,299,318,338,357,379,399,418,438,457,479,499,517,537,558,577,598,617,638,657,678,698,717,737,757,778,797,818,838,858,877,897,917,938,958,978,999,1017,1039,1057,1079,1098,1118,1138,1157,1177,1197,1218,1239,1258,1277,1298,1318,1339,1357,1378,1398,1418,1439,1457,1478,1498,1518,1539,1557,1577,1598,1619,1639,1658],"xSR":741.5,"ySR":469.95,"xT1":424.9,"yT1":0,"xT2":1058.1,"yT2":0,"toosoon":0,"cond_shown":"randomdotsizeEA","ratio_trial":500,"smaller_num":"9","larger_num":"18","correct_side":1,"subjID":"GabrielAlbertoRodriguezRoncancio","gender":"0","age":"11","school":"6"},{"start_time":1551794712857,"click_time":1551794713947,"finger_time":1551794713627,"fix_duration":308.24343262756116,"trial":12,"RT":770,"MT":320,"sideResp":1,"stimulus":"img/900/randomdotsizeEA/L/2_Ratio_900_L_20_R_18.png","xmouse":[775,775,775,775,775,775,775,775,775,775,775,775,775,775,775,775,775,775,775,775,775,775,775,775,775,775,775,775,775,775,775,775,775,775,776,776,776,773,762,700,671,639,602,565,522,503,489,476,466,460,459,459,459,460,465],"ymouse":[517,517,517,517,517,517,517,517,517,517,517,517,517,517,517,517,517,517,517,517,517,517,517,517,517,517,517,517,517,517,517,517,517,517,515,511,502,487,463,367,330,298,269,241,209,194,181,166,151,129,116,110,106,103,97],"timestamp_mouse":[11,38,49,70,91,109,131,150,169,190,210,231,249,271,291,309,330,349,369,390,410,430,450,469,491,509,530,551,569,591,609,631,650,670,690,710,730,749,770,790,810,831,850,869,890,911,930,949,969,989,1010,1029,1050,1070,1090],"xSR":741.5,"ySR":469.95,"xT1":424.9,"yT1":0,"xT2":1058.1,"yT2":0,"toosoon":0,"cond_shown":"randomdotsizeEA","ratio_trial":900,"smaller_num":"18","larger_num":"20","correct_side":1,"subjID":"GabrielAlbertoRodriguezRoncancio","gender":"0","age":"11","school":"6"},{"start_time":1551794715688,"click_time":1551794717748,"finger_time":1551794716486,"fix_duration":1079.546940735492,"trial":13,"RT":798,"MT":1262,"sideResp":2,"stimulus":"img/500/randomdotsizeEA/L/7_Ratio_500_L_10_R_5.png","xmouse":[809,809,809,809,809,809,809,809,809,809,809,809,809,809,809,809,809,809,809,809,809,809,809,809,809,809,809,809,809,809,809,809,809,809,809,809,809,811,820,825,832,841,847,857,860,862,864,868,874,889,899,908,915,920,920,921,921,921,915,912,910,910,909,916,932,947,961,966,971,974,978,981,985,993,998,1002,1007,1013,1018,1020,1022,1028,1028,1028,1028,1028,1028,1028,1028,1028,1028,1028,1028,1028,1028,1028,1028,1028,1048,1060,1061,1062,1063,1073],"ymouse":[530,530,530,530,530,530,530,530,530,530,530,530,530,530,530,530,530,530,530,530,530,530,530,530,530,530,530,530,530,530,530,530,530,530,530,528,525,518,494,481,467,451,440,424,419,415,412,409,403,390,382,372,364,354,351,346,340,334,316,309,305,299,293,271,245,227,212,206,196,190,185,180,175,165,159,155,150,143,138,137,137,140,141,141,141,141,141,141,141,141,141,141,141,141,141,141,141,138,128,127,126,123,116,93],"timestamp_mouse":[1,19,38,60,80,99,120,140,160,180,199,219,239,258,280,299,318,340,359,378,398,420,438,459,478,500,518,538,560,578,600,618,639,659,678,699,719,738,758,780,798,819,838,858,878,899,918,939,959,978,998,1019,1039,1059,1078,1098,1119,1140,1159,1178,1199,1220,1239,1259,1278,1298,1318,1339,1359,1378,1399,1419,1438,1460,1478,1499,1518,1540,1559,1578,1598,1618,1638,1659,1678,1699,1720,1739,1759,1778,1798,1819,1840,1859,1878,1898,1920,1938,1960,1979,1998,2019,2039,2059],"xSR":741.5,"ySR":469.95,"xT1":424.9,"yT1":0,"xT2":1058.1,"yT2":0,"toosoon":0,"cond_shown":"randomdotsizeEA","ratio_trial":500,"smaller_num":"5","larger_num":"10","correct_side":1,"subjID":"GabrielAlbertoRodriguezRoncancio","gender":"0","age":"11","school":"6"},{"start_time":1551794722757,"click_time":1551794723967,"finger_time":1551794723607,"fix_duration":328.8037411974283,"trial":14,"RT":850,"MT":360,"sideResp":1,"stimulus":"img/750/equaldotsize/L/10_Ratio_750_L_4_R_3.png","xmouse":[809,809,809,809,809,809,809,809,809,809,809,809,809,809,809,809,809,809,809,809,809,809,809,809,809,809,809,809,809,809,809,809,809,809,809,809,809,809,809,809,804,779,740,673,604,508,493,492,492,493,493,493,490,490,491,494,497,498,499,500,500],"ymouse":[523,523,523,523,523,523,523,523,523,523,523,523,523,523,523,523,523,523,523,523,523,523,523,523,523,523,523,523,523,523,523,523,523,523,523,523,523,523,523,523,522,511,490,451,394,270,233,206,188,174,158,155,141,136,132,123,117,112,107,104,96],"timestamp_mouse":[11,42,49,70,89,109,131,151,170,190,210,229,251,271,290,310,330,350,370,390,409,431,450,470,490,509,530,551,569,591,609,630,649,671,690,710,730,751,770,789,809,830,850,869,890,910,930,949,970,990,1010,1029,1050,1070,1091,1110,1130,1149,1170,1190,1210],"xSR":741.5,"ySR":469.95,"xT1":424.9,"yT1":0,"xT2":1058.1,"yT2":0,"toosoon":0,"cond_shown":"equaldotsize","ratio_trial":750,"smaller_num":"3","larger_num":"4","correct_side":1,"subjID":"GabrielAlbertoRodriguezRoncancio","gender":"0","age":"11","school":"6"},{"start_time":1551794726023,"click_time":1551794727086,"finger_time":1551794726726,"fix_duration":1233.8006222477034,"trial":15,"RT":703,"MT":360,"sideResp":1,"stimulus":"img/500/equaldotanddens/L/10_Ratio_500_L_4_R_2.png","xmouse":[790,790,790,790,790,790,790,790,790,790,790,790,790,790,790,790,790,790,790,790,790,790,790,790,790,790,790,790,790,790,790,790,790,792,800,845,890,989,1030,1042,1045,1045,1045,1000,933,811,767,594,553,536,527,524,523,517],"ymouse":[508,508,508,508,508,508,508,508,508,508,508,508,508,508,508,508,508,508,508,508,508,508,508,508,508,508,508,508,508,508,508,508,508,508,504,484,467,424,407,399,395,394,390,367,340,290,270,174,138,122,112,108,104,96],"timestamp_mouse":[8,35,44,64,83,104,124,144,164,184,204,224,243,264,284,303,323,343,364,383,404,424,444,465,483,503,523,543,565,583,605,624,644,664,684,703,724,745,764,783,804,823,843,863,885,904,925,945,964,983,1003,1024,1043,1063],"xSR":741.5,"ySR":469.95,"xT1":424.9,"yT1":0,"xT2":1058.1,"yT2":0,"toosoon":0,"cond_shown":"equaldotanddens","ratio_trial":500,"smaller_num":"2","larger_num":"4","correct_side":1,"subjID":"GabrielAlbertoRodriguezRoncancio","gender":"0","age":"11","school":"6"},{"start_time":1551794729239,"click_time":1551794730566,"finger_time":1551794730045,"fix_duration":1372.5206856818565,"trial":16,"RT":806,"MT":521,"sideResp":1,"stimulus":"img/250/randomdotsizeEA/L/5_Ratio_250_L_24_R_6.png","xmouse":[782,782,782,782,782,782,782,782,782,782,782,782,782,782,782,782,782,782,782,782,782,782,782,782,782,782,782,782,782,782,782,782,782,782,782,782,782,782,774,756,702,650,607,602,602,595,576,532,515,502,499,498,496,492,488,483,478,471,466,463,459,454,452,452,452,455,459],"ymouse":[506,506,506,506,506,506,506,506,506,506,506,506,506,506,506,506,506,506,506,506,506,506,506,506,506,506,506,506,506,506,506,506,506,506,506,506,506,506,492,479,441,404,365,356,353,338,315,272,253,243,238,237,230,220,213,207,200,188,180,174,165,155,138,126,116,103,90],"timestamp_mouse":[10,28,50,68,87,107,127,146,167,187,207,226,248,266,288,306,326,348,366,387,407,427,447,466,487,508,526,547,566,588,606,627,646,667,687,706,727,748,766,786,806,827,847,866,886,906,926,946,967,987,1007,1028,1046,1066,1086,1107,1127,1147,1167,1186,1207,1227,1246,1267,1287,1306,1326],"xSR":741.5,"ySR":469.95,"xT1":424.9,"yT1":0,"xT2":1058.1,"yT2":0,"toosoon":0,"cond_shown":"randomdotsizeEA","ratio_trial":250,"smaller_num":"6","larger_num":"24","correct_side":1,"subjID":"GabrielAlbertoRodriguezRoncancio","gender":"0","age":"11","school":"6"},{"start_time":1551794732255,"click_time":1551794733366,"finger_time":1551794733006,"fix_duration":666.362873105761,"trial":17,"RT":751,"MT":360,"sideResp":2,"stimulus":"img/500/equaldotsize/R/15_Ratio_500_L_1_R_2.png","xmouse":[805,805,805,805,805,805,805,805,805,805,805,805,805,805,805,805,805,805,805,805,805,805,805,805,805,805,805,805,805,805,805,804,803,803,803,804,813,861,899,946,1001,1042,1102,1110,1113,1117,1119,1120,1120,1122,1122,1126,1128,1129,1131,1134],"ymouse":[525,525,525,525,525,525,525,525,525,525,525,525,525,525,525,525,525,525,525,525,525,525,525,525,525,525,525,525,525,525,524,518,518,517,514,505,491,442,415,381,344,313,256,244,235,227,215,208,201,193,182,148,135,123,110,99],"timestamp_mouse":[11,30,61,70,90,111,130,151,170,191,212,230,251,271,292,311,330,351,371,390,412,432,451,471,491,511,532,550,570,592,611,630,651,670,690,711,731,751,771,790,810,830,851,872,892,911,932,951,971,990,1010,1030,1052,1071,1090,1111],"xSR":741.5,"ySR":469.95,"xT1":424.9,"yT1":0,"xT2":1058.1,"yT2":0,"toosoon":0,"cond_shown":"equaldotsize","ratio_trial":500,"smaller_num":"1","larger_num":"2","correct_side":2,"subjID":"GabrielAlbertoRodriguezRoncancio","gender":"0","age":"11","school":"6"},{"start_time":1551794735459,"click_time":1551794736565,"finger_time":1551794736226,"fix_duration":1133.1355610583028,"trial":18,"RT":767,"MT":339,"sideResp":1,"stimulus":"img/900/equaldotsize/R/6_Ratio_900_L_9_R_10.png","xmouse":[791,791,791,791,791,791,791,791,791,791,791,791,791,791,791,791,791,791,791,791,791,791,791,791,791,791,791,791,791,791,791,791,791,791,791,792,790,784,767,745,718,698,689,688,685,682,676,662,656,649,641,632,617,601,536,468],"ymouse":[520,520,520,520,520,520,520,520,520,520,520,520,520,520,520,520,519,519,519,519,519,519,519,519,519,519,519,519,519,519,519,519,519,519,519,519,506,482,435,371,312,264,235,230,224,216,207,187,177,168,157,149,137,130,109,90],"timestamp_mouse":[8,27,47,68,86,107,126,147,167,186,207,227,247,266,287,307,328,348,366,386,406,427,448,466,487,508,528,548,567,587,607,626,648,667,687,707,727,746,767,787,806,826,846,867,887,906,927,946,966,987,1008,1028,1046,1066,1088,1106],"xSR":741.5,"ySR":469.95,"xT1":424.9,"yT1":0,"xT2":1058.1,"yT2":0,"toosoon":0,"cond_shown":"equaldotsize","ratio_trial":900,"smaller_num":"9","larger_num":"10","correct_side":2,"subjID":"GabrielAlbertoRodriguezRoncancio","gender":"0","age":"11","school":"6"},{"start_time":1551794740181,"click_time":1551794741785,"finger_time":1551794741406,"fix_duration":1053.8169985647985,"trial":19,"RT":1225,"MT":379,"sideResp":2,"stimulus":"img/750/randomdotsizeEA/R/12_Ratio_750_L_3_R_4.png","xmouse":[791,791,791,791,791,791,791,791,791,791,791,791,791,791,791,791,791,791,791,791,791,791,791,791,791,791,791,791,791,791,791,791,791,791,791,791,791,791,791,791,791,791,791,791,791,791,791,791,791,791,791,791,792,793,794,795,795,795,795,795,798,864,943,1017,1089,1130,1152,1153,1155,1155,1155,1149,1142,1135,1128,1122,1116,1116,1116,1117,1121],"ymouse":[516,516,516,516,516,516,516,516,516,516,516,516,516,516,516,516,516,516,516,516,516,516,516,516,516,516,516,516,516,516,516,516,516,516,516,516,516,516,516,516,516,516,516,516,516,516,516,516,516,516,516,516,516,514,511,511,510,510,510,510,507,468,429,390,347,324,307,301,292,285,278,253,239,224,202,181,148,133,119,109,97],"timestamp_mouse":[9,38,44,65,84,105,124,144,166,185,204,226,244,265,286,305,325,345,364,385,405,424,444,464,485,504,526,545,565,586,604,624,646,665,684,705,724,746,766,786,805,826,844,883,885,904,926,945,964,984,1006,1025,1045,1065,1086,1105,1125,1145,1165,1185,1204,1225,1244,1265,1285,1304,1324,1344,1364,1384,1404,1425,1444,1465,1486,1504,1524,1544,1565,1585,1604],"xSR":741.5,"ySR":469.95,"xT1":424.9,"yT1":0,"xT2":1058.1,"yT2":0,"toosoon":0,"cond_shown":"randomdotsizeEA","ratio_trial":750,"smaller_num":"3","larger_num":"4","correct_side":2,"subjID":"GabrielAlbertoRodriguezRoncancio","gender":"0","age":"11","school":"6"},{"start_time":1551794742877,"click_time":1551794743927,"finger_time":1551794743685,"fix_duration":250,"trial":20,"RT":808,"MT":242,"sideResp":2,"stimulus":"img/750/randomdotsizeEA/L/10_Ratio_750_L_4_R_3.png","xmouse":[804,804,804,804,804,804,804,804,804,804,804,804,804,803,802,801,796,793,792,790,789,787,787,787,787,787,787,787,787,787,787,787,787,787,787,787,787,787,789,799,842,889,978,1007,1030,1046,1051,1057,1058,1059,1061,1066,1078],"ymouse":[517,517,517,517,517,518,518,518,518,518,519,519,519,519,520,521,523,524,525,526,526,528,528,528,528,528,528,528,528,528,528,528,528,528,528,528,528,528,523,510,470,425,322,281,243,205,189,168,160,151,141,126,95],"timestamp_mouse":[9,28,49,69,88,110,130,148,170,190,208,228,248,270,288,308,330,349,368,389,408,429,450,469,489,510,528,550,569,588,608,629,650,670,688,708,728,750,769,789,808,830,849,869,888,908,928,950,969,988,1009,1030,1050],"xSR":741.5,"ySR":469.95,"xT1":424.9,"yT1":0,"xT2":1058.1,"yT2":0,"toosoon":0,"cond_shown":"randomdotsizeEA","ratio_trial":750,"smaller_num":"3","larger_num":"4","correct_side":1,"subjID":"GabrielAlbertoRodriguezRoncancio","gender":"0","age":"11","school":"6"},{"start_time":1551794745865,"click_time":1551794746546,"finger_time":1551794746506,"fix_duration":1037.0637927950595,"trial":21,"RT":641,"MT":40,"sideResp":1,"stimulus":"img/250/equaldotsize/L/15_Ratio_250_L_12_R_3.png","xmouse":[798,798,798,798,798,798,798,798,798,798,798,798,798,798,798,798,798,798,798,798,798,798,798,798,798,798,798,798,798,798,796,788,765,592,450],"ymouse":[544,544,544,544,544,543,542,542,540,539,538,537,537,536,536,536,536,535,535,535,535,535,535,535,535,535,535,535,535,535,526,509,446,190,80],"timestamp_mouse":[8,21,40,61,81,100,120,141,162,180,202,222,240,261,281,301,321,341,360,382,400,422,442,460,482,500,521,540,561,581,600,621,641,661,681],"xSR":741.5,"ySR":469.95,"xT1":424.9,"yT1":0,"xT2":1058.1,"yT2":0,"toosoon":0,"cond_shown":"equaldotsize","ratio_trial":250,"smaller_num":"3","larger_num":"12","correct_side":1,"subjID":"GabrielAlbertoRodriguezRoncancio","gender":"0","age":"11","school":"6"},{"start_time":1551794749652,"click_time":1551794750706,"finger_time":1551794750345,"fix_duration":485.5734477313667,"trial":22,"RT":693,"MT":361,"sideResp":1,"stimulus":"img/250/equaldotsize/L/3_Ratio_250_L_8_R_2.png","xmouse":[779,779,779,779,779,779,779,779,779,779,779,779,779,779,779,779,779,779,779,779,779,779,779,779,779,779,779,779,779,779,779,779,779,776,691,665,659,657,656,657,661,661,655,609,601,590,579,569,561,560,555,541,515],"ymouse":[561,561,561,561,561,561,561,561,561,561,561,561,561,561,561,561,561,561,561,561,561,561,561,561,561,561,561,561,561,561,561,561,560,560,534,517,505,490,446,418,386,355,319,222,203,187,174,158,139,132,118,92,60],"timestamp_mouse":[14,43,55,75,93,113,135,155,174,194,215,233,253,275,293,313,335,353,373,393,415,433,454,474,494,514,535,554,574,593,615,633,654,673,693,714,734,753,774,793,814,833,853,874,895,915,934,953,973,993,1015,1034,1054],"xSR":741.5,"ySR":469.95,"xT1":424.9,"yT1":0,"xT2":1058.1,"yT2":0,"toosoon":0,"cond_shown":"equaldotsize","ratio_trial":250,"smaller_num":"2","larger_num":"8","correct_side":1,"subjID":"GabrielAlbertoRodriguezRoncancio","gender":"0","age":"11","school":"6"},{"start_time":1551794751877,"click_time":1551794753006,"finger_time":1551794752666,"fix_duration":250,"trial":23,"RT":789,"MT":340,"sideResp":2,"stimulus":"img/900/equaldotanddens/L/4_Ratio_900_L_20_R_18.png","xmouse":[790,790,790,790,790,790,790,790,790,790,790,790,790,790,790,790,790,790,790,790,790,790,790,790,790,790,790,790,790,790,790,790,790,790,790,790,790,788,809,850,897,941,952,969,976,984,993,1001,1012,1016,1028,1042,1056,1079,1091,1101,1109],"ymouse":[516,516,516,516,516,516,516,516,516,516,516,516,516,516,516,516,516,516,516,516,516,516,516,516,516,516,516,516,516,516,516,516,516,516,516,516,516,516,503,474,442,407,392,363,349,334,320,305,277,260,233,200,177,136,118,103,91],"timestamp_mouse":[9,42,48,68,89,110,128,148,169,190,209,230,250,268,290,309,329,348,370,388,409,429,449,468,489,510,530,549,569,588,609,629,649,670,689,709,729,749,768,789,810,828,848,868,889,910,930,949,968,989,1008,1029,1048,1070,1090,1108,1128],"xSR":741.5,"ySR":469.95,"xT1":424.9,"yT1":0,"xT2":1058.1,"yT2":0,"toosoon":0,"cond_shown":"equaldotanddens","ratio_trial":900,"smaller_num":"18","larger_num":"20","correct_side":1,"subjID":"GabrielAlbertoRodriguezRoncancio","gender":"0","age":"11","school":"6"},{"start_time":1551794754748,"click_time":1551794756205,"finger_time":1551794755445,"fix_duration":840.9726542943854,"trial":24,"RT":697,"MT":760,"sideResp":1,"stimulus":"img/750/equaldotsize/R/5_Ratio_750_L_15_R_20.png","xmouse":[792,792,792,792,792,793,796,798,802,808,808,808,808,808,808,808,808,808,808,808,808,808,808,808,808,808,808,808,808,808,806,802,791,767,764,763,756,751,744,709,680,649,625,610,592,580,570,561,552,544,541,539,536,533,529,527,527,527,527,527,527,527,527,527,527,527,527,527,527,526,526,525,523],"ymouse":[523,523,523,523,524,524,522,520,517,513,513,513,513,513,513,513,513,513,513,513,513,513,513,513,513,513,513,513,513,513,513,512,502,473,464,454,431,413,395,348,314,278,249,229,197,171,150,130,111,88,80,75,70,65,59,57,57,57,57,57,57,57,57,57,57,57,57,57,57,57,57,57,57],"timestamp_mouse":[18,46,58,79,98,117,137,157,177,198,217,239,258,277,297,318,338,358,377,399,419,438,457,479,498,518,537,559,577,598,617,637,658,679,697,718,738,758,777,797,817,837,858,879,898,917,937,958,978,998,1018,1038,1058,1077,1097,1117,1138,1159,1178,1198,1217,1239,1258,1277,1297,1318,1338,1358,1377,1398,1417,1438,1457],"xSR":741.5,"ySR":469.95,"xT1":424.9,"yT1":0,"xT2":1058.1,"yT2":0,"toosoon":0,"cond_shown":"equaldotsize","ratio_trial":750,"smaller_num":"15","larger_num":"20","correct_side":2,"subjID":"GabrielAlbertoRodriguezRoncancio","gender":"0","age":"11","school":"6"},{"start_time":1551794758181,"click_time":1551794759046,"finger_time":1551794758965,"fix_duration":1034.0123341750543,"trial":25,"RT":784,"MT":81,"sideResp":2,"stimulus":"img/250/equaldotanddens/R/4_Ratio_250_L_3_R_12.png","xmouse":[803,803,803,803,803,803,803,803,803,803,803,803,803,803,803,803,803,803,803,803,803,803,803,803,803,803,803,803,803,803,803,803,803,803,803,803,803,813,837,867,920,978,1025,1093],"ymouse":[537,537,537,537,537,537,537,537,537,537,537,537,537,537,537,537,537,537,537,537,537,537,537,537,537,537,537,537,537,537,537,537,537,537,537,537,537,533,512,479,405,316,236,81],"timestamp_mouse":[11,25,44,65,85,104,126,144,164,186,206,225,244,265,284,306,325,344,366,384,404,424,444,465,486,504,524,545,564,584,605,624,646,665,684,706,724,744,765,784,805,825,845,865],"xSR":741.5,"ySR":469.95,"xT1":424.9,"yT1":0,"xT2":1058.1,"yT2":0,"toosoon":0,"cond_shown":"equaldotanddens","ratio_trial":250,"smaller_num":"3","larger_num":"12","correct_side":2,"subjID":"GabrielAlbertoRodriguezRoncancio","gender":"0","age":"11","school":"6"},{"start_time":1551794760278,"click_time":1551794761386,"finger_time":1551794761085,"fix_duration":250,"trial":26,"RT":807,"MT":301,"sideResp":2,"stimulus":"img/900/equaldotanddens/L/1_Ratio_900_L_10_R_9.png","xmouse":[777,777,777,777,777,777,777,777,777,777,777,777,777,777,777,777,777,777,777,777,777,777,777,777,777,777,777,777,777,777,777,777,777,777,777,777,777,777,776,793,825,886,957,1035,1049,1056,1059,1060,1060,1060,1061,1062,1064,1068,1081,1084],"ymouse":[503,503,503,503,503,503,503,503,503,503,503,503,503,503,503,503,503,503,503,503,503,503,503,503,503,503,503,503,503,503,503,503,503,503,503,503,503,503,503,489,462,409,344,255,237,225,213,203,194,189,182,172,157,139,109,99],"timestamp_mouse":[9,41,48,68,88,107,128,149,168,188,207,228,248,267,289,307,328,347,367,387,409,428,447,467,489,508,528,547,567,588,608,628,647,668,687,708,728,748,768,788,807,827,847,868,887,908,927,948,969,987,1008,1028,1047,1067,1087,1108],"xSR":741.5,"ySR":469.95,"xT1":424.9,"yT1":0,"xT2":1058.1,"yT2":0,"toosoon":0,"cond_shown":"equaldotanddens","ratio_trial":900,"smaller_num":"9","larger_num":"10","correct_side":1,"subjID":"GabrielAlbertoRodriguezRoncancio","gender":"0","age":"11","school":"6"},{"start_time":1551794762535,"click_time":1551794764246,"finger_time":1551794763666,"fix_duration":327.8311471378634,"trial":27,"RT":1131,"MT":580,"sideResp":2,"stimulus":"img/750/equaldotsize/L/9_Ratio_750_L_4_R_3.png","xmouse":[785,785,785,785,785,785,785,785,785,785,785,785,785,785,785,785,785,785,785,785,785,785,785,785,785,785,785,785,785,785,785,785,785,785,785,785,785,785,785,785,785,785,785,785,785,785,785,785,785,785,785,785,785,785,785,784,900,1003,1115,1228,1337,1451,1451,1451,1451,1451,1451,1451,1451,1451,1451,1451,1357,1306,1259,1218,1167,1161,1159,1159,1159,1159,1152,1144,1134,1113],"ymouse":[496,496,496,496,496,496,496,496,496,496,496,496,496,496,496,496,496,496,496,496,496,496,496,496,496,496,496,496,496,496,496,496,496,496,496,496,496,496,496,496,496,496,496,496,496,496,496,496,496,496,496,496,496,496,496,496,431,357,268,175,93,13,13,13,13,13,13,13,13,13,13,13,22,43,66,85,107,109,109,109,109,109,108,106,103,97],"timestamp_mouse":[11,30,58,70,92,111,132,151,170,190,210,231,251,270,290,312,330,350,370,390,412,431,452,471,491,510,531,551,571,590,611,630,650,672,690,710,731,750,772,791,810,832,850,871,891,910,932,952,971,991,1010,1032,1051,1071,1091,1110,1131,1150,1170,1190,1211,1230,1251,1270,1291,1312,1331,1350,1371,1391,1410,1431,1452,1471,1491,1510,1531,1550,1571,1591,1611,1630,1651,1670,1690,1711],"xSR":741.5,"ySR":469.95,"xT1":424.9,"yT1":0,"xT2":1058.1,"yT2":0,"toosoon":0,"cond_shown":"equaldotsize","ratio_trial":750,"smaller_num":"3","larger_num":"4","correct_side":1,"subjID":"GabrielAlbertoRodriguezRoncancio","gender":"0","age":"11","school":"6"},{"start_time":1551794767047,"click_time":1551794769225,"finger_time":1551794767765,"fix_duration":259.46525983379064,"trial":28,"RT":718,"MT":1460,"sideResp":1,"stimulus":"img/900/equaldotanddens/R/9_Ratio_900_L_18_R_20.png","xmouse":[797,797,797,797,797,797,797,797,797,797,797,797,797,797,797,797,797,797,797,797,797,797,797,797,797,797,797,797,797,797,797,797,797,793,780,669,636,613,600,596,592,585,579,571,561,546,543,539,535,533,532,532,532,532,534,539,540,540,540,540,540,540,540,540,539,537,537,537,537,537,537,537,537,536,536,536,536,536,536,536,536,536,535,533,532,531,526,524,523,522,520,519,519,519,519,519,519,519,519,519,519,519,519,519,519,519,519,519,519],"ymouse":[519,519,519,519,519,519,519,519,519,519,519,519,519,519,519,519,519,519,519,519,519,519,519,519,519,519,519,519,519,519,519,519,519,518,508,436,413,395,380,372,356,344,330,318,307,288,283,277,270,262,248,242,237,227,216,194,188,180,172,166,151,144,137,130,124,115,114,114,114,114,114,114,114,113,113,113,113,113,113,113,113,113,113,112,112,111,109,108,108,108,108,108,108,108,108,108,108,108,108,108,108,107,107,107,106,105,103,101,99],"timestamp_mouse":[19,43,59,78,99,120,138,159,179,198,219,240,258,279,299,318,339,358,378,400,418,438,459,479,498,520,540,559,580,599,619,638,660,680,698,718,739,758,778,798,819,839,858,878,900,919,938,958,978,998,1020,1039,1059,1078,1098,1118,1139,1158,1178,1198,1219,1238,1259,1278,1298,1319,1339,1359,1379,1399,1419,1438,1458,1479,1498,1518,1540,1560,1578,1599,1619,1638,1660,1678,1699,1718,1739,1758,1778,1799,1818,1838,1860,1878,1899,1919,1940,1959,1979,2000,2019,2038,2058,2079,2098,2120,2140,2159,2178],"xSR":741.5,"ySR":469.95,"xT1":424.9,"yT1":0,"xT2":1058.1,"yT2":0,"toosoon":0,"cond_shown":"equaldotanddens","ratio_trial":900,"smaller_num":"18","larger_num":"20","correct_side":2,"subjID":"GabrielAlbertoRodriguezRoncancio","gender":"0","age":"11","school":"6"},{"start_time":1551794771258,"click_time":1551794772992,"finger_time":1551794772306,"fix_duration":590.1814171354658,"trial":29,"RT":1048,"MT":686,"sideResp":2,"stimulus":"img/250/randomdotsizeEA/R/13_Ratio_250_L_2_R_8.png","xmouse":[759,759,759,759,759,759,759,759,759,759,759,759,759,759,759,759,759,759,759,759,759,759,759,759,759,759,759,759,759,759,759,759,759,759,759,759,759,759,759,759,759,759,759,759,758,756,755,755,755,761,783,803,821,845,864,875,891,900,911,923,938,976,1002,1045,1069,1083,1090,1093,1098,1102,1103,1103,1103,1103,1103,1103,1103,1103,1103,1103,1103,1103,1103,1103,1103,1103,1105],"ymouse":[550,550,550,550,550,550,550,550,550,550,550,550,550,550,550,550,550,550,550,550,550,550,550,550,550,550,550,550,550,550,550,550,550,550,550,550,550,550,550,550,550,550,550,550,550,550,548,547,544,532,498,470,443,401,369,350,318,302,288,273,259,230,215,194,183,176,168,163,156,153,152,150,148,147,145,143,140,138,135,132,129,123,120,115,110,106,93],"timestamp_mouse":[9,39,48,69,88,108,128,147,169,188,209,228,249,267,289,308,327,348,368,388,409,427,447,469,488,508,528,548,569,588,608,628,647,668,688,708,727,749,767,787,809,827,847,869,888,908,928,949,967,987,1009,1029,1048,1067,1088,1107,1127,1147,1167,1187,1209,1228,1247,1268,1288,1307,1328,1348,1367,1387,1409,1428,1448,1467,1487,1508,1529,1548,1568,1587,1608,1627,1648,1669,1688,1708,1734],"xSR":741.5,"ySR":469.95,"xT1":424.9,"yT1":0,"xT2":1058.1,"yT2":0,"toosoon":0,"cond_shown":"randomdotsizeEA","ratio_trial":250,"smaller_num":"2","larger_num":"8","correct_side":2,"subjID":"GabrielAlbertoRodriguezRoncancio","gender":"0","age":"11","school":"6"},{"start_time":1551794774911,"click_time":1551794776107,"finger_time":1551794775766,"fix_duration":904.5733492095924,"trial":30,"RT":855,"MT":341,"sideResp":2,"stimulus":"img/900/equaldotanddens/R/14_Ratio_900_L_18_R_20.png","xmouse":[808,808,808,808,808,808,808,808,808,808,808,808,808,808,808,808,808,808,808,808,808,808,808,808,808,808,808,808,808,808,808,808,808,808,808,808,808,808,808,808,818,836,895,964,972,975,977,986,1019,1039,1051,1058,1066,1070,1070,1070,1070,1072,1076,1079],"ymouse":[489,489,489,489,489,489,489,489,489,489,489,489,489,489,489,489,489,489,489,489,489,489,489,489,489,489,489,489,489,489,489,489,489,489,489,489,489,489,489,489,485,473,441,405,399,395,392,380,314,273,249,223,201,170,163,157,152,145,112,92],"timestamp_mouse":[15,41,54,74,96,115,135,155,176,195,216,234,255,276,294,314,336,354,376,394,415,435,454,476,496,514,534,555,576,596,614,634,655,674,695,715,734,755,775,794,815,836,855,875,896,915,935,956,974,996,1016,1034,1054,1074,1095,1115,1134,1154,1175,1196],"xSR":741.5,"ySR":469.95,"xT1":424.9,"yT1":0,"xT2":1058.1,"yT2":0,"toosoon":0,"cond_shown":"equaldotanddens","ratio_trial":900,"smaller_num":"18","larger_num":"20","correct_side":2,"subjID":"GabrielAlbertoRodriguezRoncancio","gender":"0","age":"11","school":"6"},{"start_time":1551794777654,"click_time":1551794778787,"finger_time":1551794778466,"fix_duration":687.1579072561491,"trial":31,"RT":812,"MT":321,"sideResp":1,"stimulus":"img/750/randomdotsizeEA/L/8_Ratio_750_L_4_R_3.png","xmouse":[790,790,790,790,790,790,790,790,790,790,790,790,790,790,790,790,790,790,790,790,790,790,790,790,790,790,790,790,790,790,790,790,788,788,788,788,788,788,788,792,804,818,844,856,864,866,867,863,856,844,831,760,707,641,574,507,450],"ymouse":[537,537,537,537,537,537,537,537,537,537,537,537,537,537,537,537,537,537,537,537,537,537,537,537,537,537,537,534,531,526,522,520,512,511,509,506,503,496,491,485,468,454,428,409,392,380,356,344,332,317,303,254,222,186,146,109,75],"timestamp_mouse":[11,32,62,72,92,111,132,151,172,193,213,232,251,273,292,312,332,353,373,391,412,433,452,471,492,512,533,551,572,592,612,631,652,671,692,711,731,752,772,791,812,832,851,871,891,912,932,951,971,992,1012,1032,1051,1071,1093,1111,1132],"xSR":741.5,"ySR":469.95,"xT1":424.9,"yT1":0,"xT2":1058.1,"yT2":0,"toosoon":0,"cond_shown":"randomdotsizeEA","ratio_trial":750,"smaller_num":"3","larger_num":"4","correct_side":1,"subjID":"GabrielAlbertoRodriguezRoncancio","gender":"0","age":"11","school":"6"},{"start_time":1551794779957,"click_time":1551794780906,"finger_time":1551794780685,"fix_duration":250,"trial":32,"RT":728,"MT":221,"sideResp":2,"stimulus":"img/500/equaldotsize/R/1_Ratio_500_L_9_R_18.png","xmouse":[764,764,764,764,764,764,764,764,764,764,764,764,764,764,764,764,764,764,764,764,764,764,764,764,764,764,764,764,764,764,764,764,764,770,784,822,890,998,1006,1003,995,993,996,1012,1026,1039,1050,1060],"ymouse":[539,539,539,539,539,539,539,539,539,539,539,539,539,539,539,539,539,539,539,539,539,539,539,539,539,539,539,539,539,539,539,539,539,533,517,482,420,272,231,203,175,156,124,96,75,58,42,30],"timestamp_mouse":[8,31,48,69,88,110,129,149,168,189,209,229,249,268,289,308,329,348,368,389,408,430,449,468,489,510,529,548,568,588,610,630,649,668,688,709,728,748,769,789,808,828,848,870,889,908,928,949],"xSR":741.5,"ySR":469.95,"xT1":424.9,"yT1":0,"xT2":1058.1,"yT2":0,"toosoon":0,"cond_shown":"equaldotsize","ratio_trial":500,"smaller_num":"9","larger_num":"18","correct_side":2,"subjID":"GabrielAlbertoRodriguezRoncancio","gender":"0","age":"11","school":"6"},{"start_time":1551794783109,"click_time":1551794784006,"finger_time":1551794783726,"fix_duration":1342.8984967279505,"trial":33,"RT":617,"MT":280,"sideResp":1,"stimulus":"img/500/equaldotanddens/L/10_Ratio_500_L_4_R_2.png","xmouse":[812,812,812,812,812,812,812,812,812,812,812,812,812,812,812,812,812,812,812,812,812,812,812,812,812,812,810,808,794,759,625,580,551,540,542,553,556,557,550,539,538,538,538,538,520],"ymouse":[530,530,530,530,530,530,530,530,530,530,530,530,530,530,530,530,530,530,530,530,530,530,530,530,530,530,528,527,513,477,363,300,243,197,138,109,99,88,77,67,66,64,62,61,53],"timestamp_mouse":[31,37,56,76,98,116,137,157,176,196,217,236,258,276,296,317,336,356,376,397,417,436,456,477,497,517,537,558,576,596,617,636,656,677,698,717,736,757,776,797,816,837,856,877,897],"xSR":741.5,"ySR":469.95,"xT1":424.9,"yT1":0,"xT2":1058.1,"yT2":0,"toosoon":0,"cond_shown":"equaldotanddens","ratio_trial":500,"smaller_num":"2","larger_num":"4","correct_side":1,"subjID":"GabrielAlbertoRodriguezRoncancio","gender":"0","age":"11","school":"6"},{"start_time":1551794785117,"click_time":1551794786145,"finger_time":1551794785887,"fix_duration":250,"trial":34,"RT":770,"MT":258,"sideResp":2,"stimulus":"img/900/randomdotsizeEA/R/14_Ratio_900_L_18_R_20.png","xmouse":[786,786,786,786,786,786,786,786,786,786,786,786,786,786,786,786,786,786,786,786,786,786,786,786,786,786,786,786,786,786,786,786,786,786,789,792,798,805,821,864,898,925,946,963,985,995,1003,1012,1021,1046,1058,1062],"ymouse":[527,527,527,527,527,527,527,527,527,527,527,527,527,527,527,527,527,527,527,527,527,527,527,527,527,527,527,527,527,527,527,527,527,527,524,520,510,493,461,384,337,292,255,224,179,156,137,116,99,63,51,46],"timestamp_mouse":[9,30,52,70,88,109,129,148,170,190,209,230,249,270,288,308,328,350,368,390,410,429,448,470,488,509,529,549,570,588,610,630,650,669,688,709,729,749,770,789,808,828,848,868,889,909,928,949,968,989,1008,1028],"xSR":741.5,"ySR":469.95,"xT1":424.9,"yT1":0,"xT2":1058.1,"yT2":0,"toosoon":0,"cond_shown":"randomdotsizeEA","ratio_trial":900,"smaller_num":"18","larger_num":"20","correct_side":2,"subjID":"GabrielAlbertoRodriguezRoncancio","gender":"0","age":"11","school":"6"},{"start_time":1551794787482,"click_time":1551794788425,"finger_time":1551794788087,"fix_duration":574.8591756294816,"trial":35,"RT":605,"MT":338,"sideResp":1,"stimulus":"img/500/equaldotanddens/L/13_Ratio_500_L_12_R_6.png","xmouse":[815,815,815,815,815,815,815,815,815,815,815,815,815,815,815,815,815,815,815,815,815,815,815,815,815,815,815,811,796,753,677,595,437,388,370,368,376,380,383,388,391,398,401,402,403,405,406,428],"ymouse":[512,512,512,512,512,512,512,512,512,512,512,512,512,512,512,512,512,512,512,512,512,512,512,512,512,512,512,510,499,472,414,353,225,164,128,107,63,50,39,29,22,12,10,10,10,10,10,14],"timestamp_mouse":[9,23,44,65,83,104,124,143,165,184,205,223,243,263,284,303,324,345,363,383,404,425,443,464,485,503,524,543,564,584,605,624,643,663,684,705,725,743,763,783,803,825,844,864,883,904,923,943],"xSR":741.5,"ySR":469.95,"xT1":424.9,"yT1":0,"xT2":1058.1,"yT2":0,"toosoon":0,"cond_shown":"equaldotanddens","ratio_trial":500,"smaller_num":"6","larger_num":"12","correct_side":1,"subjID":"GabrielAlbertoRodriguezRoncancio","gender":"0","age":"11","school":"6"},{"start_time":1551794789908,"click_time":1551794790726,"finger_time":1551794790507,"fix_duration":620.1744744960954,"trial":36,"RT":599,"MT":219,"sideResp":2,"stimulus":"img/900/equaldotsize/R/12_Ratio_900_L_18_R_20.png","xmouse":[810,810,810,810,810,810,810,810,810,810,810,810,810,810,810,810,810,809,809,809,809,809,809,810,811,815,818,824,833,849,901,917,974,1012,1033,1051,1055,1056,1057,1057,1060],"ymouse":[535,535,535,535,535,535,535,535,535,535,535,535,535,535,535,535,535,535,535,535,535,534,533,532,530,524,518,509,497,476,409,385,300,231,185,124,108,102,98,97,89],"timestamp_mouse":[18,43,58,78,99,118,139,159,178,199,219,239,258,280,298,318,339,359,379,399,419,439,458,478,498,518,538,559,578,599,618,638,658,679,699,719,738,758,778,798,818],"xSR":741.5,"ySR":469.95,"xT1":424.9,"yT1":0,"xT2":1058.1,"yT2":0,"toosoon":0,"cond_shown":"equaldotsize","ratio_trial":900,"smaller_num":"18","larger_num":"20","correct_side":2,"subjID":"GabrielAlbertoRodriguezRoncancio","gender":"0","age":"11","school":"6"},{"start_time":1551794792800,"click_time":1551794793926,"finger_time":1551794793546,"fix_duration":1253.5371543889582,"trial":37,"RT":746,"MT":380,"sideResp":1,"stimulus":"img/500/randomdotsizeEA/L/8_Ratio_500_L_8_R_4.png","xmouse":[781,781,781,781,781,781,781,781,781,781,781,781,781,781,781,781,781,781,781,781,781,781,781,781,781,781,781,781,781,781,781,781,781,781,781,780,771,735,701,656,625,612,612,614,617,620,622,622,623,623,623,615,601,586,568,551,515],"ymouse":[548,548,548,548,548,548,548,548,548,548,548,548,548,548,548,548,548,548,548,548,548,548,548,548,548,548,548,548,548,548,548,548,548,548,546,543,532,499,471,434,405,365,344,325,309,299,276,269,262,247,227,182,158,132,107,84,44],"timestamp_mouse":[9,26,46,67,86,107,126,147,166,186,207,226,246,266,286,307,326,346,367,387,407,426,447,466,486,506,526,546,567,587,606,626,647,666,687,707,726,746,766,787,806,827,845,866,886,906,926,946,966,987,1006,1026,1046,1066,1086,1106,1126],"xSR":741.5,"ySR":469.95,"xT1":424.9,"yT1":0,"xT2":1058.1,"yT2":0,"toosoon":0,"cond_shown":"randomdotsizeEA","ratio_trial":500,"smaller_num":"4","larger_num":"8","correct_side":1,"subjID":"GabrielAlbertoRodriguezRoncancio","gender":"0","age":"11","school":"6"},{"start_time":1551794795730,"click_time":1551794796366,"finger_time":1551794796306,"fix_duration":1123.408916063008,"trial":38,"RT":576,"MT":60,"sideResp":2,"stimulus":"img/500/equaldotsize/R/9_Ratio_500_L_2_R_4.png","xmouse":[802,802,802,802,802,802,802,802,802,802,802,802,802,802,802,802,802,802,802,802,802,802,802,802,802,807,815,834,895,956,1044,1059],"ymouse":[540,540,540,540,540,540,540,540,540,540,540,540,540,540,540,540,540,540,540,540,540,540,540,540,540,538,528,506,386,266,87,54],"timestamp_mouse":[16,41,56,76,96,117,137,157,177,197,216,236,256,277,296,316,336,356,377,396,416,437,456,477,497,516,537,556,576,596,616,636],"xSR":741.5,"ySR":469.95,"xT1":424.9,"yT1":0,"xT2":1058.1,"yT2":0,"toosoon":0,"cond_shown":"equaldotsize","ratio_trial":500,"smaller_num":"2","larger_num":"4","correct_side":2,"subjID":"GabrielAlbertoRodriguezRoncancio","gender":"0","age":"11","school":"6"},{"start_time":1551794797809,"click_time":1551794799166,"finger_time":1551794798506,"fix_duration":502.6340332933268,"trial":39,"RT":697,"MT":660,"sideResp":1,"stimulus":"img/900/randomdotsizeEA/L/4_Ratio_900_L_20_R_18.png","xmouse":[776,776,776,776,776,776,776,776,776,776,776,776,776,776,776,776,776,776,776,776,776,776,776,776,776,776,776,776,776,776,776,776,776,772,767,756,706,685,667,651,623,611,593,582,573,566,556,554,553,549,543,532,528,527,527,526,526,526,526,526,526,526,526,526,526,526,525,523],"ymouse":[524,524,524,524,524,524,524,524,523,523,523,523,523,523,523,523,523,523,523,523,523,523,523,523,523,523,523,523,523,523,523,521,515,487,462,436,344,300,264,235,188,169,145,130,117,107,94,90,86,80,73,63,59,58,56,55,54,54,54,54,54,54,54,54,54,54,53,53],"timestamp_mouse":[17,49,57,78,98,118,137,157,178,197,217,237,258,278,298,318,338,358,377,397,418,437,458,477,497,518,537,558,577,598,617,637,658,677,697,717,737,757,777,797,819,837,858,877,898,917,937,958,977,999,1017,1038,1057,1077,1097,1119,1138,1157,1177,1197,1218,1237,1258,1278,1297,1317,1337,1357],"xSR":741.5,"ySR":469.95,"xT1":424.9,"yT1":0,"xT2":1058.1,"yT2":0,"toosoon":0,"cond_shown":"randomdotsizeEA","ratio_trial":900,"smaller_num":"18","larger_num":"20","correct_side":1,"subjID":"GabrielAlbertoRodriguezRoncancio","gender":"0","age":"11","school":"6"},{"start_time":1551794801121,"click_time":1551794802307,"finger_time":1551794802186,"fix_duration":1174.6198176557996,"trial":40,"RT":1065,"MT":121,"sideResp":2,"stimulus":"img/500/randomdotsizeEA/R/15_Ratio_500_L_1_R_2.png","xmouse":[793,793,793,793,793,793,793,793,793,793,793,793,793,793,793,793,793,793,793,793,793,793,793,793,793,793,793,793,793,793,793,793,793,793,793,793,793,793,793,793,793,793,793,793,793,793,793,794,795,797,800,812,826,842,861,902,1036,1076,1107,1121],"ymouse":[515,515,515,515,515,515,515,515,515,515,515,515,515,515,515,515,515,515,515,515,515,515,515,515,515,515,515,515,515,515,515,515,515,515,515,515,515,515,515,515,515,515,515,515,515,514,513,512,511,509,506,498,488,477,457,417,245,179,118,89],"timestamp_mouse":[8,25,45,66,85,105,126,145,165,185,206,226,259,265,285,306,326,345,365,385,406,425,445,465,486,505,525,545,565,586,606,626,645,666,685,706,725,746,765,785,806,825,845,866,886,905,925,945,965,985,1005,1024,1045,1065,1085,1106,1125,1146,1165,1186],"xSR":741.5,"ySR":469.95,"xT1":424.9,"yT1":0,"xT2":1058.1,"yT2":0,"toosoon":0,"cond_shown":"randomdotsizeEA","ratio_trial":500,"smaller_num":"1","larger_num":"2","correct_side":2,"subjID":"GabrielAlbertoRodriguezRoncancio","gender":"0","age":"11","school":"6"},{"start_time":1551794803457,"click_time":1551794804566,"finger_time":1551794804126,"fix_duration":250,"trial":41,"RT":669,"MT":440,"sideResp":2,"stimulus":"img/500/equaldotsize/R/14_Ratio_500_L_5_R_10.png","xmouse":[771,771,771,771,771,771,771,771,771,771,771,771,771,771,772,772,772,773,773,773,773,773,773,773,773,773,773,773,773,773,773,771,765,751,724,713,710,710,715,727,800,863,934,1010,1098,1110,1113,1113,1112,1110,1109,1109,1109,1108,1108,1110],"ymouse":[494,494,494,494,494,494,494,494,494,494,494,494,494,494,495,495,495,495,495,495,495,495,495,495,495,495,495,495,495,495,492,486,475,460,425,412,407,405,398,387,350,330,310,289,259,245,228,211,196,181,169,159,147,132,119,90],"timestamp_mouse":[9,37,49,69,89,109,130,150,169,189,210,230,250,269,290,310,329,350,370,389,410,429,449,469,489,509,529,549,570,589,610,629,650,669,690,709,729,749,769,789,810,830,849,869,890,909,929,949,970,989,1009,1030,1049,1070,1090,1109],"xSR":741.5,"ySR":469.95,"xT1":424.9,"yT1":0,"xT2":1058.1,"yT2":0,"toosoon":0,"cond_shown":"equaldotsize","ratio_trial":500,"smaller_num":"5","larger_num":"10","correct_side":2,"subjID":"GabrielAlbertoRodriguezRoncancio","gender":"0","age":"11","school":"6"},{"start_time":1551794806399,"click_time":1551794807527,"finger_time":1551794807146,"fix_duration":1010.186148240714,"trial":42,"RT":747,"MT":381,"sideResp":1,"stimulus":"img/750/equaldotsize/R/15_Ratio_750_L_9_R_12.png","xmouse":[788,788,788,788,788,788,788,788,788,788,788,788,788,788,788,788,788,788,788,788,788,788,788,788,788,788,788,788,788,788,788,788,789,791,793,795,796,798,791,764,717,689,663,628,620,616,615,613,605,604,599,596,594,575,553,533,512],"ymouse":[508,508,508,508,508,508,508,508,508,508,508,508,508,508,508,508,508,508,508,508,508,508,508,508,508,508,508,508,508,508,508,508,508,506,499,489,478,462,415,374,322,289,253,212,198,187,180,171,147,142,133,128,124,108,98,88,80],"timestamp_mouse":[9,41,47,67,87,107,127,148,167,187,208,227,247,268,287,307,327,348,367,387,407,428,449,467,487,507,527,548,568,588,607,627,647,667,687,708,727,747,767,788,808,828,847,867,887,907,927,948,967,987,1007,1027,1047,1068,1088,1107,1128],"xSR":741.5,"ySR":469.95,"xT1":424.9,"yT1":0,"xT2":1058.1,"yT2":0,"toosoon":0,"cond_shown":"equaldotsize","ratio_trial":750,"smaller_num":"9","larger_num":"12","correct_side":2,"subjID":"GabrielAlbertoRodriguezRoncancio","gender":"0","age":"11","school":"6"},{"start_time":1551794810297,"click_time":1551794812946,"finger_time":1551794812667,"fix_duration":250,"trial":43,"RT":2370,"MT":279,"sideResp":2,"stimulus":"img/250/equaldotsize/R/12_Ratio_250_L_5_R_20.png","xmouse":[798,798,798,798,798,798,798,798,798,798,798,798,798,798,798,798,798,798,798,797,797,797,797,797,797,797,797,797,797,797,797,797,797,797,797,797,797,797,797,797,797,797,797,797,797,797,797,797,797,797,797,797,797,797,797,797,797,797,797,797,797,797,797,797,797,797,797,798,800,800,800,800,800,800,800,800,800,800,800,800,800,800,800,800,800,800,800,800,800,800,800,800,800,800,800,800,800,800,800,800,800,800,800,800,800,800,800,800,800,800,800,800,800,800,800,804,813,834,887,1042,1061,1084,1101,1115,1124,1135,1153,1161,1166,1164,1162,1159,1157],"ymouse":[560,560,560,560,560,560,560,560,560,560,560,560,560,560,560,560,560,560,560,560,560,560,560,560,560,560,560,560,560,560,560,560,560,560,560,560,560,560,560,560,560,560,560,560,560,560,560,560,560,558,558,558,558,558,558,558,558,558,558,558,558,558,558,555,552,550,547,546,543,543,543,543,543,543,543,543,543,543,543,543,543,543,543,543,543,543,543,543,543,543,543,543,543,543,543,543,543,543,543,543,543,543,543,543,543,543,543,543,543,543,543,543,543,543,543,540,519,481,417,300,285,266,251,235,224,210,160,132,98,88,83,79,76],"timestamp_mouse":[9,43,49,69,89,110,129,149,170,189,209,229,251,270,290,310,329,350,369,389,409,429,451,469,490,509,529,549,570,589,609,629,649,670,690,709,729,749,769,789,810,829,850,870,890,909,929,949,969,989,1010,1030,1050,1070,1089,1109,1129,1149,1170,1190,1210,1229,1250,1269,1290,1309,1329,1349,1369,1389,1409,1430,1450,1469,1489,1509,1529,1550,1570,1589,1609,1629,1650,1669,1689,1710,1730,1749,1769,1789,1809,1829,1849,1870,1889,1909,1929,1949,1969,1989,2010,2029,2049,2069,2090,2110,2129,2149,2169,2189,2210,2230,2249,2269,2290,2309,2329,2349,2370,2391,2409,2429,2450,2470,2489,2509,2529,2551,2570,2589,2609,2630,2649],"xSR":741.5,"ySR":469.95,"xT1":424.9,"yT1":0,"xT2":1058.1,"yT2":0,"toosoon":0,"cond_shown":"equaldotsize","ratio_trial":250,"smaller_num":"5","larger_num":"20","correct_side":2,"subjID":"GabrielAlbertoRodriguezRoncancio","gender":"0","age":"11","school":"6"},{"start_time":1551794814139,"click_time":1551794815067,"finger_time":1551794814667,"fix_duration":250,"trial":44,"RT":528,"MT":400,"sideResp":1,"stimulus":"img/250/equaldotanddens/L/1_Ratio_250_L_8_R_2.png","xmouse":[812,812,812,812,812,812,812,812,812,812,812,812,812,812,812,812,811,811,811,810,809,806,795,784,767,742,697,675,651,626,623,620,612,608,604,599,595,593,591,589,585,581,551,532,521,515,512],"ymouse":[567,567,567,567,567,567,567,567,567,567,567,567,567,567,567,567,567,567,567,567,567,567,565,561,555,545,510,479,439,379,351,327,277,260,245,236,226,222,217,213,206,201,168,144,123,103,85],"timestamp_mouse":[8,42,48,67,87,107,127,147,168,187,207,228,247,267,288,307,328,348,368,387,408,427,448,468,487,507,528,547,567,588,607,627,647,667,687,708,729,747,768,787,808,827,848,867,887,907,928],"xSR":741.5,"ySR":469.95,"xT1":424.9,"yT1":0,"xT2":1058.1,"yT2":0,"toosoon":0,"cond_shown":"equaldotanddens","ratio_trial":250,"smaller_num":"2","larger_num":"8","correct_side":1,"subjID":"GabrielAlbertoRodriguezRoncancio","gender":"0","age":"11","school":"6"},{"start_time":1551794816357,"click_time":1551794817226,"finger_time":1551794816746,"fix_duration":450.5696881131311,"trial":45,"RT":389,"MT":480,"sideResp":2,"stimulus":"img/500/randomdotsizeEA/R/9_Ratio_500_L_2_R_4.png","xmouse":[800,800,800,800,800,800,800,800,800,800,800,800,800,800,800,800,800,802,811,815,820,833,842,856,867,880,902,913,947,967,989,1017,1022,1026,1026,1026,1026,1026,1027,1027,1027,1038,1056,1075],"ymouse":[529,529,529,529,529,529,529,529,529,529,529,529,529,529,529,529,520,510,480,466,455,441,433,423,412,393,351,329,264,215,164,95,79,71,69,69,69,69,68,68,68,68,68,68],"timestamp_mouse":[9,29,49,69,89,111,129,149,169,190,209,229,249,270,289,309,329,349,370,389,410,430,449,469,490,509,529,549,569,589,609,629,649,669,689,710,729,749,769,789,810,829,850,869],"xSR":741.5,"ySR":469.95,"xT1":424.9,"yT1":0,"xT2":1058.1,"yT2":0,"toosoon":0,"cond_shown":"randomdotsizeEA","ratio_trial":500,"smaller_num":"2","larger_num":"4","correct_side":2,"subjID":"GabrielAlbertoRodriguezRoncancio","gender":"0","age":"11","school":"6"},{"start_time":1551794818736,"click_time":1551794819867,"finger_time":1551794819006,"fix_duration":608.9632294899857,"trial":46,"RT":270,"MT":861,"sideResp":1,"stimulus":"img/900/equaldotsize/R/9_Ratio_900_L_18_R_20.png","xmouse":[789,789,789,788,788,788,788,788,788,788,788,788,774,764,752,739,727,718,718,718,718,718,718,718,718,718,718,723,727,728,729,729,736,742,748,750,755,769,777,783,787,791,793,793,794,794,792,787,780,769,754,733,639,598,566,536,513],"ymouse":[499,499,501,506,510,511,512,512,511,506,502,496,478,467,456,447,440,436,436,436,436,436,436,436,437,444,458,491,496,498,499,499,499,499,499,500,501,501,501,501,501,501,501,501,501,501,503,503,501,488,457,394,216,142,93,66,49],"timestamp_mouse":[11,40,50,70,90,110,131,151,170,190,210,232,251,270,290,311,330,350,370,390,410,430,451,471,490,511,530,550,571,591,610,631,650,670,690,710,730,750,770,789,811,830,851,870,890,910,930,950,970,990,1010,1030,1050,1070,1090,1111,1131],"xSR":741.5,"ySR":469.95,"xT1":424.9,"yT1":0,"xT2":1058.1,"yT2":0,"toosoon":0,"cond_shown":"equaldotsize","ratio_trial":900,"smaller_num":"18","larger_num":"20","correct_side":2,"subjID":"GabrielAlbertoRodriguezRoncancio","gender":"0","age":"11","school":"6"},{"start_time":1551794820959,"click_time":1551794821787,"finger_time":1551794821526,"fix_duration":250,"trial":47,"RT":567,"MT":261,"sideResp":2,"stimulus":"img/900/randomdotsizeEA/L/10_Ratio_900_L_20_R_18.png","xmouse":[803,803,803,803,803,803,803,803,803,803,803,803,803,803,803,803,803,803,803,804,805,806,809,809,810,811,823,839,853,864,891,954,997,1034,1048,1056,1057,1057,1057,1057,1058,1060],"ymouse":[519,519,519,519,519,519,519,519,519,519,519,519,519,519,519,519,519,519,519,519,519,519,517,516,516,514,502,492,480,463,432,357,280,211,176,145,118,112,107,104,100,89],"timestamp_mouse":[8,35,48,68,87,107,128,147,168,188,207,227,248,267,288,309,328,348,368,387,407,427,447,467,488,508,527,547,567,587,609,628,647,667,688,707,728,747,767,788,807,828],"xSR":741.5,"ySR":469.95,"xT1":424.9,"yT1":0,"xT2":1058.1,"yT2":0,"toosoon":0,"cond_shown":"randomdotsizeEA","ratio_trial":900,"smaller_num":"18","larger_num":"20","correct_side":1,"subjID":"GabrielAlbertoRodriguezRoncancio","gender":"0","age":"11","school":"6"},{"start_time":1551794823899,"click_time":1551794825007,"finger_time":1551794824546,"fix_duration":1171.4294903510015,"trial":48,"RT":647,"MT":461,"sideResp":1,"stimulus":"img/900/randomdotsizeEA/L/10_Ratio_900_L_20_R_18.png","xmouse":[795,795,795,795,795,795,795,795,795,795,795,795,795,795,795,795,795,795,795,795,795,795,795,795,795,795,795,795,795,793,786,776,743,687,643,586,577,575,575,574,574,574,572,571,571,568,558,547,535,526,520,520,520,520,520,520],"ymouse":[543,543,543,543,542,542,540,539,539,538,537,537,537,536,536,536,536,535,535,535,535,535,535,535,535,535,535,535,535,530,515,486,425,356,307,253,240,236,234,232,231,229,226,220,211,182,151,132,117,107,102,102,101,101,100,99],"timestamp_mouse":[8,28,48,67,87,108,127,148,167,187,207,227,247,267,288,307,327,348,367,388,408,428,448,468,488,507,528,548,568,588,607,629,647,667,687,707,728,747,767,787,807,827,847,868,888,907,927,947,968,987,1007,1027,1047,1067,1088,1108],"xSR":741.5,"ySR":469.95,"xT1":424.9,"yT1":0,"xT2":1058.1,"yT2":0,"toosoon":0,"cond_shown":"randomdotsizeEA","ratio_trial":900,"smaller_num":"18","larger_num":"20","correct_side":1,"subjID":"GabrielAlbertoRodriguezRoncancio","gender":"0","age":"11","school":"6"},{"start_time":1551794827697,"click_time":1551794829107,"finger_time":1551794828866,"fix_duration":489.18125749450246,"trial":49,"RT":1169,"MT":241,"sideResp":1,"stimulus":"img/250/equaldotsize/L/3_Ratio_250_L_8_R_2.png","xmouse":[763,763,763,763,763,763,763,763,763,763,763,763,763,763,763,763,763,763,763,763,763,763,763,763,763,763,763,763,763,763,763,763,763,763,763,763,763,763,763,763,763,763,763,763,763,763,763,763,763,763,763,763,763,765,769,785,785,784,777,764,728,713,709,706,702,682,662,629,588,552,515],"ymouse":[507,507,507,507,507,507,507,507,507,507,507,507,507,507,507,507,507,507,507,507,507,507,507,507,507,507,507,507,507,507,507,507,507,507,507,507,507,507,507,507,507,507,507,507,507,507,507,507,507,507,507,507,507,505,502,483,480,475,465,447,371,329,298,275,253,214,190,160,131,105,83],"timestamp_mouse":[10,40,50,70,90,109,129,149,170,189,209,230,249,271,290,309,329,349,369,389,409,429,450,469,490,509,529,550,570,589,609,630,649,670,690,710,730,749,770,790,809,829,850,869,889,909,929,950,970,989,1009,1030,1049,1069,1089,1109,1130,1149,1169,1190,1209,1229,1249,1269,1289,1309,1329,1349,1369,1389,1410],"xSR":741.5,"ySR":469.95,"xT1":424.9,"yT1":0,"xT2":1058.1,"yT2":0,"toosoon":0,"cond_shown":"equaldotsize","ratio_trial":250,"smaller_num":"2","larger_num":"8","correct_side":1,"subjID":"GabrielAlbertoRodriguezRoncancio","gender":"0","age":"11","school":"6"},{"start_time":1551794831233,"click_time":1551794833226,"finger_time":1551794832247,"fix_duration":1244.7967166326564,"trial":50,"RT":1014,"MT":979,"sideResp":2,"stimulus":"img/500/randomdotsizeEA/R/12_Ratio_500_L_1_R_2.png","xmouse":[783,783,783,783,783,783,783,783,783,783,783,783,783,783,783,783,783,783,783,783,783,783,783,783,783,783,783,783,783,783,783,783,783,783,783,783,783,783,783,783,783,783,783,783,787,793,797,806,811,817,821,827,833,850,859,868,880,886,916,932,943,949,954,961,966,969,975,992,1018,1075,1106,1149,1168,1173,1174,1174,1173,1172,1172,1172,1172,1172,1172,1172,1172,1171,1170,1169,1167,1165,1165,1165,1165,1165,1164,1164,1162,1162,1161,1158],"ymouse":[531,531,531,531,531,531,531,531,531,531,531,531,531,531,531,531,531,531,531,531,531,531,531,531,531,531,531,531,531,531,531,531,531,531,531,531,531,531,531,531,531,531,531,530,523,515,508,494,487,477,468,458,448,420,403,386,359,344,313,302,293,283,273,254,246,239,229,221,213,194,178,150,134,128,126,126,125,124,122,120,117,114,110,109,104,102,99,97,95,90,89,89,89,88,88,88,87,87,87,87],"timestamp_mouse":[14,34,53,74,93,113,133,153,173,194,213,234,254,274,293,314,335,353,374,393,413,433,454,473,494,514,534,553,574,593,614,634,653,674,693,714,733,753,773,794,813,833,854,873,894,913,933,954,973,994,1014,1033,1053,1075,1093,1114,1133,1153,1174,1193,1213,1234,1254,1275,1293,1313,1333,1354,1373,1394,1414,1434,1454,1474,1493,1513,1533,1553,1574,1593,1613,1633,1654,1674,1693,1713,1733,1753,1773,1793,1813,1833,1853,1873,1898,1914,1933,1953,1973,1993],"xSR":741.5,"ySR":469.95,"xT1":424.9,"yT1":0,"xT2":1058.1,"yT2":0,"toosoon":0,"cond_shown":"randomdotsizeEA","ratio_trial":500,"smaller_num":"1","larger_num":"2","correct_side":2,"subjID":"GabrielAlbertoRodriguezRoncancio","gender":"0","age":"11","school":"6"},{"start_time":1551794836079,"click_time":1551794837066,"finger_time":1551794836747,"fix_duration":250,"trial":51,"RT":668,"MT":319,"sideResp":1,"stimulus":"img/500/equaldotanddens/L/11_Ratio_500_L_12_R_6.png","xmouse":[775,775,775,775,775,775,775,775,775,775,775,775,775,775,775,775,775,775,775,775,775,775,775,775,775,775,775,775,775,775,775,775,774,767,759,749,738,705,694,684,675,665,640,616,568,517,479,442,434,429],"ymouse":[515,515,515,515,515,515,515,515,515,515,515,515,515,515,515,515,515,515,515,515,515,515,515,515,515,515,515,515,515,515,515,514,471,435,400,364,338,289,274,262,253,247,236,226,206,176,151,121,109,98],"timestamp_mouse":[9,26,47,68,88,107,128,148,168,187,208,227,247,268,288,307,328,347,368,387,408,428,447,467,488,507,527,547,568,587,608,627,647,668,687,707,727,747,767,787,807,827,847,868,887,907,927,947,968,987],"xSR":741.5,"ySR":469.95,"xT1":424.9,"yT1":0,"xT2":1058.1,"yT2":0,"toosoon":0,"cond_shown":"equaldotanddens","ratio_trial":500,"smaller_num":"6","larger_num":"12","correct_side":1,"subjID":"GabrielAlbertoRodriguezRoncancio","gender":"0","age":"11","school":"6"},{"start_time":1551794838202,"click_time":1551794839266,"finger_time":1551794838926,"fix_duration":555.3521089155739,"trial":52,"RT":724,"MT":340,"sideResp":2,"stimulus":"img/900/equaldotsize/R/7_Ratio_900_L_9_R_10.png","xmouse":[795,795,795,795,795,795,795,795,795,795,795,795,795,795,795,795,795,795,795,795,795,795,795,795,795,795,795,795,795,795,795,795,795,800,807,831,904,996,1027,1057,1084,1097,1098,1098,1098,1105,1108,1114,1117,1122,1127,1133,1134,1134],"ymouse":[500,500,500,500,500,500,500,500,500,500,500,500,500,500,500,500,500,500,500,500,500,500,500,500,500,500,500,500,500,500,500,500,500,498,495,483,423,308,284,271,256,246,241,236,226,209,198,180,170,157,140,119,110,99],"timestamp_mouse":[8,24,45,65,84,104,124,145,165,184,205,224,244,264,285,304,325,345,365,385,404,424,445,465,484,504,524,544,565,585,604,624,644,665,684,705,724,745,764,785,804,824,844,864,886,905,924,944,965,985,1005,1025,1044,1064],"xSR":741.5,"ySR":469.95,"xT1":424.9,"yT1":0,"xT2":1058.1,"yT2":0,"toosoon":0,"cond_shown":"equaldotsize","ratio_trial":900,"smaller_num":"9","larger_num":"10","correct_side":2,"subjID":"GabrielAlbertoRodriguezRoncancio","gender":"0","age":"11","school":"6"},{"start_time":1551794841301,"click_time":1551794842686,"finger_time":1551794842047,"fix_duration":1072.999278012433,"trial":53,"RT":746,"MT":639,"sideResp":1,"stimulus":"img/500/equaldotanddens/L/4_Ratio_500_L_18_R_9.png","xmouse":[794,794,794,794,794,794,794,794,794,794,794,794,794,794,794,794,794,794,794,794,794,794,794,794,794,794,794,794,794,794,794,794,794,789,776,767,762,753,753,749,746,746,743,740,735,729,719,687,636,574,501,444,401,398,398,398,398,400,401,405,408,411,413,415,415,418,419,421,423,429],"ymouse":[530,530,530,530,530,530,530,530,530,530,530,530,530,530,530,530,530,530,530,530,530,530,530,530,530,530,530,530,530,530,530,530,530,527,519,505,479,404,378,347,332,326,317,310,303,295,285,269,249,232,215,198,182,180,179,174,168,155,144,135,126,115,108,104,100,96,95,90,88,81],"timestamp_mouse":[9,25,46,66,86,106,126,145,166,186,205,226,246,266,285,306,325,346,366,385,406,425,445,466,485,506,527,546,565,586,606,626,645,665,685,705,725,746,766,785,805,825,845,865,886,905,925,945,965,985,1005,1025,1045,1065,1086,1106,1126,1145,1165,1185,1206,1227,1245,1265,1286,1305,1325,1345,1366,1385],"xSR":741.5,"ySR":469.95,"xT1":424.9,"yT1":0,"xT2":1058.1,"yT2":0,"toosoon":0,"cond_shown":"equaldotanddens","ratio_trial":500,"smaller_num":"9","larger_num":"18","correct_side":1,"subjID":"GabrielAlbertoRodriguezRoncancio","gender":"0","age":"11","school":"6"},{"start_time":1551794846116,"click_time":1551794847086,"finger_time":1551794846667,"fix_duration":1047.3797736630543,"trial":54,"RT":551,"MT":419,"sideResp":1,"stimulus":"img/250/equaldotanddens/L/2_Ratio_250_L_16_R_4.png","xmouse":[783,783,783,783,783,783,783,783,783,783,783,783,783,783,783,783,783,783,783,783,783,783,783,783,783,783,781,773,761,747,733,709,699,689,682,677,658,642,620,592,563,497,473,456,447,446,446,446,449],"ymouse":[489,489,489,489,489,489,489,489,489,489,489,489,489,489,489,489,489,489,489,489,489,489,489,489,489,489,482,457,412,358,309,229,204,185,172,166,159,159,159,159,159,159,156,153,148,144,121,110,97],"timestamp_mouse":[10,39,50,70,90,111,130,151,171,190,210,231,250,270,291,310,331,350,370,391,411,430,451,470,491,510,530,551,570,590,611,630,650,670,691,711,731,750,770,791,810,831,850,870,890,911,930,950,970],"xSR":741.5,"ySR":469.95,"xT1":424.9,"yT1":0,"xT2":1058.1,"yT2":0,"toosoon":0,"cond_shown":"equaldotanddens","ratio_trial":250,"smaller_num":"4","larger_num":"16","correct_side":1,"subjID":"GabrielAlbertoRodriguezRoncancio","gender":"0","age":"11","school":"6"},{"start_time":1551794848157,"click_time":1551794848966,"finger_time":1551794848806,"fix_duration":250,"trial":55,"RT":649,"MT":160,"sideResp":1,"stimulus":"img/250/equaldotanddens/L/1_Ratio_250_L_8_R_2.png","xmouse":[819,819,819,819,819,819,819,819,819,819,819,819,819,819,818,818,818,818,818,818,818,818,818,818,818,818,818,817,817,810,799,781,744,670,617,550,539,535,533,527,523],"ymouse":[550,550,550,550,550,550,550,550,550,550,550,550,550,550,549,549,549,549,549,549,549,549,549,549,549,549,549,549,549,543,532,509,455,344,253,124,96,80,67,49,40],"timestamp_mouse":[10,38,50,69,89,109,129,149,170,189,210,230,249,270,289,309,330,349,369,389,410,430,449,469,490,509,530,549,570,590,609,629,649,669,690,709,730,750,769,790,809],"xSR":741.5,"ySR":469.95,"xT1":424.9,"yT1":0,"xT2":1058.1,"yT2":0,"toosoon":0,"cond_shown":"equaldotanddens","ratio_trial":250,"smaller_num":"2","larger_num":"8","correct_side":1,"subjID":"GabrielAlbertoRodriguezRoncancio","gender":"0","age":"11","school":"6"},{"start_time":1551794850156,"click_time":1551794850843,"finger_time":1551794850663,"fix_duration":250,"trial":56,"RT":507,"MT":180,"sideResp":1,"stimulus":"img/250/equaldotsize/L/15_Ratio_250_L_12_R_3.png","xmouse":[778,778,778,778,778,778,778,778,778,778,778,778,778,778,778,778,778,778,778,778,778,778,777,766,746,656,606,557,521,499,455,444,441,438,435],"ymouse":[505,505,505,505,505,505,505,505,505,505,505,505,505,505,505,505,505,505,505,505,505,505,505,499,487,413,365,320,285,257,180,147,120,100,83],"timestamp_mouse":[7,36,49,69,87,107,127,148,168,187,207,227,248,269,289,308,327,348,368,389,408,427,449,468,487,507,529,548,569,587,607,628,648,669,687],"xSR":741.5,"ySR":469.95,"xT1":424.9,"yT1":0,"xT2":1058.1,"yT2":0,"toosoon":0,"cond_shown":"equaldotsize","ratio_trial":250,"smaller_num":"3","larger_num":"12","correct_side":1,"subjID":"GabrielAlbertoRodriguezRoncancio","gender":"0","age":"11","school":"6"},{"start_time":1551794853089,"click_time":1551794854943,"finger_time":1551794853904,"fix_duration":1263.2758949475792,"trial":57,"RT":815,"MT":1039,"sideResp":2,"stimulus":"img/750/randomdotsizeEA/R/3_Ratio_750_L_15_R_20.png","xmouse":[781,781,781,781,781,781,781,781,781,781,781,781,781,781,781,781,781,781,781,781,781,781,781,781,781,781,780,780,780,780,780,780,780,780,780,780,781,782,790,797,802,809,832,912,954,1003,1033,1034,1036,1037,1037,1039,1040,1044,1045,1046,1047,1048,1048,1049,1049,1051,1051,1051,1051,1051,1051,1051,1051,1051,1052,1052,1054,1054,1054,1054,1054,1054,1054,1054,1054,1054,1054,1054,1054,1054,1054,1055,1056,1057,1058,1058,1059],"ymouse":[507,507,507,507,507,507,507,507,507,507,507,507,507,507,507,507,507,507,507,507,507,507,507,507,507,507,507,507,507,507,507,507,507,507,507,506,506,505,492,471,447,418,383,288,244,198,179,179,175,172,169,165,161,142,133,126,114,104,94,80,72,68,67,67,67,67,67,67,67,67,67,69,73,74,74,74,74,74,74,74,74,74,74,74,74,74,74,75,75,75,75,75,75],"timestamp_mouse":[19,44,54,75,96,116,134,156,174,195,215,235,254,274,295,316,335,355,374,395,415,434,456,474,496,515,535,554,575,595,615,636,654,674,695,714,734,755,774,795,815,834,856,874,894,915,936,956,974,995,1015,1035,1054,1074,1094,1114,1136,1156,1174,1195,1214,1236,1255,1275,1295,1315,1336,1356,1375,1394,1415,1434,1454,1476,1496,1515,1534,1555,1576,1595,1614,1634,1655,1675,1696,1714,1734,1755,1774,1794,1815,1835,1854],"xSR":741.5,"ySR":469.95,"xT1":424.9,"yT1":0,"xT2":1058.1,"yT2":0,"toosoon":0,"cond_shown":"randomdotsizeEA","ratio_trial":750,"smaller_num":"15","larger_num":"20","correct_side":2,"subjID":"GabrielAlbertoRodriguezRoncancio","gender":"0","age":"11","school":"6"},{"start_time":1551794857236,"click_time":1551794857984,"finger_time":1551794857825,"fix_duration":1250.346969101285,"trial":58,"RT":589,"MT":159,"sideResp":2,"stimulus":"img/750/equaldotsize/R/12_Ratio_750_L_3_R_4.png","xmouse":[783,783,783,783,783,783,783,783,783,783,783,783,783,783,783,783,783,783,783,783,783,783,783,783,783,783,788,805,832,863,921,1026,1065,1093,1114,1119,1123,1123],"ymouse":[546,546,546,546,546,546,546,546,546,546,546,546,546,546,546,546,546,546,546,546,546,546,546,546,546,546,543,532,512,483,440,374,328,266,185,149,120,88],"timestamp_mouse":[8,30,48,69,87,109,128,147,169,187,207,228,249,268,289,307,328,349,368,387,407,429,447,469,487,508,529,548,568,589,607,629,648,668,689,708,727,747],"xSR":741.5,"ySR":469.95,"xT1":424.9,"yT1":0,"xT2":1058.1,"yT2":0,"toosoon":0,"cond_shown":"equaldotsize","ratio_trial":750,"smaller_num":"3","larger_num":"4","correct_side":2,"subjID":"GabrielAlbertoRodriguezRoncancio","gender":"0","age":"11","school":"6"},{"start_time":1551794861600,"click_time":1551794863544,"finger_time":1551794863123,"fix_duration":1335.50995218319,"trial":59,"RT":1523,"MT":421,"sideResp":2,"stimulus":"img/250/randomdotsizeEA/R/9_Ratio_250_L_3_R_12.png","xmouse":[798,798,798,798,798,798,798,798,798,798,798,798,798,798,798,798,798,798,798,798,798,798,798,798,798,798,798,798,798,798,798,798,798,798,798,798,798,798,798,798,798,798,798,798,798,798,798,798,798,798,798,798,798,798,798,798,798,798,798,798,798,798,798,798,798,798,798,798,798,798,799,800,800,800,800,797,809,858,925,995,999,999,999,999,1000,1000,1001,1005,1005,1011,1021,1039,1055,1066,1081,1096,1103,1104],"ymouse":[522,522,522,522,522,522,522,522,522,522,522,522,522,522,522,522,522,522,522,522,522,522,522,522,522,522,522,522,522,522,522,522,522,522,522,522,522,522,522,522,522,522,522,522,522,522,522,522,522,522,522,522,522,522,522,522,522,522,522,522,522,522,522,522,522,522,522,522,522,522,522,522,522,522,522,505,456,332,192,28,15,15,15,15,14,14,13,11,11,19,43,84,117,131,130,120,108,95],"timestamp_mouse":[9,24,43,65,83,105,125,143,164,183,204,232,245,265,284,303,325,344,363,383,405,424,444,465,484,504,524,545,563,583,604,623,644,663,684,704,723,745,763,784,803,824,843,864,884,905,924,943,965,984,1004,1025,1044,1063,1084,1105,1125,1144,1164,1184,1204,1224,1245,1263,1284,1305,1323,1345,1365,1384,1403,1425,1445,1464,1484,1504,1523,1545,1565,1584,1604,1624,1644,1664,1683,1705,1724,1743,1763,1784,1804,1823,1845,1864,1884,1905,1923,1943],"xSR":741.5,"ySR":469.95,"xT1":424.9,"yT1":0,"xT2":1058.1,"yT2":0,"toosoon":0,"cond_shown":"randomdotsizeEA","ratio_trial":250,"smaller_num":"3","larger_num":"12","correct_side":2,"subjID":"GabrielAlbertoRodriguezRoncancio","gender":"0","age":"11","school":"6"},{"start_time":1551794865276,"click_time":1551794866424,"finger_time":1551794866004,"fix_duration":550.4578553253056,"trial":60,"RT":728,"MT":420,"sideResp":2,"stimulus":"img/900/equaldotsize/R/3_Ratio_900_L_9_R_10.png","xmouse":[768,768,768,768,768,768,768,768,767,767,767,767,767,767,767,767,767,767,767,767,767,767,767,767,767,767,767,767,767,767,767,767,770,772,782,800,921,960,992,1003,1005,998,993,991,991,991,991,991,991,991,998,1003,1009,1016,1023,1035,1044,1059],"ymouse":[506,506,506,506,506,506,506,507,510,511,511,511,511,511,511,511,511,511,511,511,511,511,511,511,511,511,511,511,511,511,511,511,507,505,495,478,405,373,333,312,267,243,225,210,191,164,118,103,91,87,66,54,42,30,22,15,15,15],"timestamp_mouse":[8,28,49,67,87,108,128,148,168,187,208,229,248,267,288,308,327,349,367,387,409,427,449,467,487,509,527,549,569,588,607,628,648,668,687,708,728,748,768,789,809,828,847,868,889,907,927,948,969,989,1009,1028,1048,1069,1088,1108,1127,1148],"xSR":741.5,"ySR":469.95,"xT1":424.9,"yT1":0,"xT2":1058.1,"yT2":0,"toosoon":0,"cond_shown":"equaldotsize","ratio_trial":900,"smaller_num":"9","larger_num":"10","correct_side":2,"subjID":"GabrielAlbertoRodriguezRoncancio","gender":"0","age":"11","school":"6"},{"start_time":1551794868106,"click_time":1551794868785,"finger_time":1551794868444,"fix_duration":801.5801693434495,"trial":61,"RT":338,"MT":341,"sideResp":2,"stimulus":"img/500/equaldotanddens/R/2_Ratio_500_L_3_R_6.png","xmouse":[819,819,819,819,819,819,819,819,819,819,819,819,819,820,823,833,842,855,869,904,932,960,980,995,1018,1028,1034,1040,1045,1058,1067,1084,1102,1108],"ymouse":[479,479,479,479,479,479,479,479,479,479,479,479,479,480,480,473,466,453,437,397,371,352,336,317,277,255,242,227,215,183,164,129,102,89],"timestamp_mouse":[18,39,59,78,98,119,138,158,177,198,217,239,258,277,298,319,338,358,379,398,418,439,458,478,497,519,538,558,578,597,618,637,658,678],"xSR":741.5,"ySR":469.95,"xT1":424.9,"yT1":0,"xT2":1058.1,"yT2":0,"toosoon":0,"cond_shown":"equaldotanddens","ratio_trial":500,"smaller_num":"3","larger_num":"6","correct_side":2,"subjID":"GabrielAlbertoRodriguezRoncancio","gender":"0","age":"11","school":"6"},{"start_time":1551794872265,"click_time":1551794873384,"finger_time":1551794872984,"fix_duration":479.17450924279683,"trial":62,"RT":719,"MT":400,"sideResp":1,"stimulus":"img/750/randomdotsizeEA/R/2_Ratio_750_L_6_R_8.png","xmouse":[810,810,810,810,810,810,810,810,810,810,810,809,809,808,808,808,808,808,808,808,808,808,808,808,808,808,808,808,808,808,807,800,789,773,755,729,710,704,698,689,675,640,608,575,552,528,513,510,508,507,506,505,503,502,500,500],"ymouse":[514,514,514,514,514,514,514,514,514,514,514,514,514,514,514,514,514,514,514,514,514,514,514,514,514,514,514,514,514,514,514,514,514,514,514,502,465,442,422,394,345,269,235,213,197,179,158,149,141,135,130,122,115,108,101,96],"timestamp_mouse":[19,43,59,80,99,118,138,160,180,198,219,239,259,278,299,319,338,358,379,400,418,440,459,478,498,518,539,558,580,598,618,638,660,679,699,719,739,758,779,799,819,839,858,879,900,918,939,960,978,999,1019,1040,1059,1078,1098,1119],"xSR":741.5,"ySR":469.95,"xT1":424.9,"yT1":0,"xT2":1058.1,"yT2":0,"toosoon":0,"cond_shown":"randomdotsizeEA","ratio_trial":750,"smaller_num":"6","larger_num":"8","correct_side":2,"subjID":"GabrielAlbertoRodriguezRoncancio","gender":"0","age":"11","school":"6"},{"start_time":1551794876136,"click_time":1551794877083,"finger_time":1551794876805,"fix_duration":250,"trial":63,"RT":669,"MT":278,"sideResp":1,"stimulus":"img/250/equaldotsize/L/1_Ratio_250_L_8_R_2.png","xmouse":[779,779,779,779,779,779,779,779,779,779,779,779,779,779,779,779,779,779,779,779,779,779,779,779,779,779,779,779,779,777,773,767,751,670,620,574,550,541,531,520,520,520,520,520,520,520,520,518],"ymouse":[526,526,526,526,526,526,526,526,526,526,526,526,526,526,526,526,526,526,526,526,526,526,526,526,526,526,526,526,526,525,524,517,488,325,234,161,135,129,127,125,125,125,125,124,123,117,108,98],"timestamp_mouse":[10,33,49,69,88,108,127,147,169,187,209,227,249,269,287,307,329,347,367,389,408,429,448,468,489,507,529,548,567,587,607,629,648,669,687,708,727,749,767,787,808,828,848,869,888,907,928,947],"xSR":741.5,"ySR":469.95,"xT1":424.9,"yT1":0,"xT2":1058.1,"yT2":0,"toosoon":0,"cond_shown":"equaldotsize","ratio_trial":250,"smaller_num":"2","larger_num":"8","correct_side":1,"subjID":"GabrielAlbertoRodriguezRoncancio","gender":"0","age":"11","school":"6"},{"start_time":1551794879719,"click_time":1551794880584,"finger_time":1551794880485,"fix_duration":1373.4165663123542,"trial":64,"RT":766,"MT":99,"sideResp":2,"stimulus":"img/250/randomdotsizeEA/R/6_Ratio_250_L_6_R_24.png","xmouse":[820,820,820,820,820,820,820,820,820,820,820,820,820,820,820,820,820,820,820,820,820,820,820,820,820,820,820,820,820,820,820,820,820,821,822,826,831,840,858,897,989,1031,1051,1074],"ymouse":[532,532,532,532,532,532,532,532,532,532,532,532,532,532,532,532,532,532,532,532,532,532,532,532,532,532,532,532,532,532,532,532,532,529,529,523,516,504,488,449,311,201,100,8],"timestamp_mouse":[9,25,45,65,84,106,124,144,166,184,206,224,245,266,285,304,325,346,364,386,405,426,444,465,485,505,524,544,566,584,605,625,644,665,684,705,726,744,766,785,805,825,845,865],"xSR":741.5,"ySR":469.95,"xT1":424.9,"yT1":0,"xT2":1058.1,"yT2":0,"toosoon":0,"cond_shown":"randomdotsizeEA","ratio_trial":250,"smaller_num":"6","larger_num":"24","correct_side":2,"subjID":"GabrielAlbertoRodriguezRoncancio","gender":"0","age":"11","school":"6"},{"start_time":1551794882580,"click_time":1551794885984,"finger_time":1551794883305,"fix_duration":735.5648165425584,"trial":65,"RT":725,"MT":2679,"sideResp":1,"stimulus":"img/900/equaldotanddens/R/14_Ratio_900_L_18_R_20.png","xmouse":[818,818,818,818,818,818,818,818,818,818,818,818,818,818,818,818,818,818,818,818,818,818,818,818,818,818,818,818,818,818,818,818,817,815,812,810,798,777,774,772,772,772,772,771,771,771,764,749,749,749,749,749,748,746,741,740,733,725,722,719,717,715,715,715,715,715,715,715,715,715,715,715,715,715,715,715,715,718,721,723,726,727,729,737,746,751,756,765,768,771,773,776,780,786,788,797,808,832,843,853,861,868,872,873,873,873,869,847,731,645,528,398,283,182,177,177,177,177,177,176,176,178,182,192,196,201,206,214,217,220,224,228,230,252,265,289,310,338,345,347,347,347,347,347,348,350,352,355,363,367,369,371,371,371,371,371,372,373,377,380,383,387,392,397,399,399,399,400,406,418,439],"ymouse":[491,491,491,491,491,491,491,491,491,491,491,491,491,491,491,491,491,491,491,491,491,491,491,491,491,491,491,491,491,491,491,490,489,488,486,483,465,427,411,391,368,349,332,329,326,324,312,302,302,302,302,302,301,300,298,298,295,289,284,281,277,274,274,274,274,274,274,274,274,274,274,274,274,274,274,273,272,265,260,257,253,251,249,244,240,238,236,232,230,229,226,223,220,215,214,213,212,211,211,211,211,211,211,211,211,211,211,211,209,202,180,144,118,109,109,109,108,108,103,100,97,92,87,75,69,64,61,58,58,58,57,56,54,45,45,45,45,45,45,45,45,45,45,45,45,45,45,45,45,45,45,45,45,45,45,45,45,45,45,45,45,45,45,45,45,45,45,45,45,45,45],"timestamp_mouse":[10,23,44,65,83,104,124,145,164,183,204,225,245,264,284,303,324,344,365,384,404,424,443,463,485,505,525,543,564,585,603,623,645,665,684,704,725,744,763,784,805,825,845,863,884,904,924,944,963,985,1005,1025,1045,1063,1084,1103,1125,1145,1164,1183,1205,1225,1243,1263,1283,1304,1324,1344,1364,1385,1405,1424,1444,1463,1484,1504,1525,1545,1564,1583,1604,1625,1644,1664,1687,1703,1723,1744,1764,1785,1805,1825,1844,1864