[{"start_time":1551882162118,"click_time":1551882165958,"finger_time":1551882162128,"fix_duration":995.3260039140067,"trial":0,"RT":10,"MT":3830,"sideResp":1,"stimulus":[],"xmouse":[807,807,807,807,807,807,807,807,807,807,807,807,807,807,807,807,807,807,807,807,807,807,807,807,807,807,807,807,807,807,807,807,807,807,807,807,807,807,805,803,803,804,808,811,812,812,812,812,812,812,812,812,812,812,812,812,812,812,812,812,812,812,812,812,812,812,812,812,812,812,812,812,812,812,812,812,812,812,812,812,812,812,812,812,812,812,812,812,812,812,812,812,812,812,812,812,812,812,812,812,812,812,812,812,808,802,779,773,771,771,771,771,771,771,771,771,791,805,820,827,831,831,831,829,817,804,784,784,784,784,784,803,822,842,856,858,837,791,738,702,691,694,701,710,724,746,787,788,788,788,788,788,788,788,788,788,788,788,788,788,788,788,788,788,788,788,788,788,788,788,788,788,788,788,785,757,629,588,551,516,494,477,460,450,449,448,448,448,448,452,457,469,471],"ymouse":[537,537,537,537,537,537,537,537,537,537,537,537,537,537,537,537,537,537,537,537,537,537,537,537,537,537,537,537,537,537,537,537,537,537,537,537,538,540,545,552,563,598,616,625,630,630,630,630,630,630,630,630,630,630,630,630,630,630,630,630,630,630,630,630,630,630,630,630,630,630,630,630,630,630,630,630,630,630,630,630,630,630,630,630,630,630,630,630,630,630,630,630,630,630,630,630,630,630,630,630,630,630,630,630,630,630,627,625,625,625,625,625,625,625,624,623,611,605,599,594,591,591,590,590,590,595,603,604,605,606,607,611,611,605,599,596,586,579,579,591,599,609,611,614,616,618,618,618,618,618,618,618,618,618,618,618,618,618,618,618,618,618,618,618,618,618,618,618,618,618,618,618,618,615,611,586,480,439,393,346,302,263,207,184,178,178,176,173,171,164,151,115,98],"timestamp_mouse":[10,19,39,60,81,101,120,140,159,179,200,220,240,260,279,300,320,339,359,380,400,421,441,460,481,500,519,540,560,579,599,620,641,661,679,701,720,739,759,780,799,819,840,859,879,899,920,941,960,979,999,1020,1040,1059,1080,1100,1120,1141,1161,1179,1200,1220,1240,1259,1279,1300,1319,1339,1359,1380,1400,1419,1440,1460,1479,1501,1520,1539,1560,1580,1599,1619,1639,1660,1679,1699,1719,1740,1759,1780,1801,1820,1839,1861,1880,1900,1919,1940,1959,1980,2000,2019,2040,2060,2079,2100,2119,2140,2160,2179,2200,2219,2240,2260,2279,2300,2319,2339,2359,2379,2399,2421,2439,2459,2480,2500,2519,2539,2560,2579,2599,2620,2640,2659,2679,2699,2719,2741,2760,2781,2801,2820,2841,2859,2879,2900,2920,2940,2959,2979,2999,3021,3040,3061,3081,3099,3120,3140,3161,3179,3199,3221,3239,3259,3280,3299,3320,3340,3359,3379,3399,3419,3439,3460,3479,3499,3520,3540,3560,3580,3600,3620,3641,3660,3679,3699,3720,3741,3760,3781,3800,3820,3840],"xSR":741.5,"ySR":481,"xT1":424.9,"yT1":0,"xT2":1058.1,"yT2":0,"toosoon":0,"cond_shown":"Congruent","ratio_trial":200,"L_num":5,"L_den":10,"R_num":14,"R_den":20,"correct_side":2,"subjID":"GabrielaRojasBohorquez13","gender":"1","age":"11","school":"6","test":{"fix_dur":[250,1500],"timestim":1000,"targets_dim":[100,100],"targets_relative_coord":[0.3,0.7],"size_stim":[880,420],"start_dim":[100,100],"size_start":[300,300],"size_fix":60,"samplingrate":20,"img_types":["Congruent","Incongruent"],"ratios":[100,200,300],"rep_conds":19,"nTrials":120,"trials_to_rest":500,"Trials_order":[20,64,34,67,43,38,76,30,51,61,27,33,17,63,18,108,21,14,25,81,80,36,68,110,71,98,114,60,95,5,52,75,16,31,48,74,8,116,103,2,119,66,100,3,111,12,47,104,19,23,97,105,86,55,96,88,79,78,59,37,22,83,90,9,92,26,118,6,112,94,24,7,50,0,54,53,62,84,4,15,56,39,107,93,73,91,109,115,42,1,13,44,11,70,49,46,102,28,72,87,77,57,106,41,58,10,113,29,69,99,89,45,85,117,32,101,82,65,35,40],"cond_shown":["Congruent","Congruent","Congruent","Incongruent","Incongruent","Congruent","Congruent","Congruent","Incongruent","Incongruent","Incongruent","Incongruent","Incongruent","Incongruent","Congruent","Congruent","Incongruent","Congruent","Incongruent","Incongruent","Congruent","Congruent","Congruent","Congruent","Incongruent","Congruent","Congruent","Congruent","Incongruent","Incongruent","Congruent","Incongruent","Congruent","Incongruent","Congruent","Congruent","Congruent","Congruent","Incongruent","Congruent","Incongruent","Congruent","Congruent","Incongruent","Incongruent","Congruent","Incongruent","Congruent","Incongruent","Incongruent","Incongruent","Incongruent","Congruent","Incongruent","Congruent","Congruent","Incongruent","Congruent","Incongruent","Incongruent","Congruent","Incongruent","Congruent","Incongruent","Congruent","Congruent","Congruent","Congruent","Congruent","Congruent","Congruent","Incongruent","Congruent","Congruent","Congruent","Incongruent","Congruent","Congruent","Congruent","Incongruent","Congruent","Incongruent","Incongruent","Incongruent","Incongruent","Incongruent","Incongruent","Incongruent","Congruent","Incongruent","Incongruent","Congruent","Incongruent","Congruent","Incongruent","Congruent","Congruent","Congruent","Congruent","Incongruent","Incongruent","Incongruent","Congruent","Incongruent","Congruent","Congruent","Incongruent","Incongruent","Incongruent","Incongruent","Incongruent","Incongruent","Incongruent","Incongruent","Congruent","Incongruent","Congruent","Incongruent","Incongruent","Congruent"],"ratio_trial":[200,300,300,100,100,200,300,100,200,100,200,200,300,200,100,100,200,200,100,200,200,100,200,200,300,200,100,100,300,300,300,200,300,100,100,200,200,200,100,200,300,100,300,200,200,100,300,200,100,300,100,200,200,100,100,300,100,100,300,100,300,300,100,200,200,200,300,100,300,300,100,100,200,100,100,300,200,100,300,200,200,200,300,200,100,100,100,100,100,100,100,200,300,300,100,300,100,300,100,200,300,200,300,300,300,300,300,300,200,200,300,200,100,200,200,300,300,300,300,300],"left_num":[5,24,24,10,2,3,3,2,3,13,7,3,4,14,15,6,4,3,11,11,6,8,8,5,8,8,15,11,13,3,11,7,3,9,6,8,6,6,3,20,8,4,20,7,1,10,8,11,17,13,9,7,3,3,11,4,6,6,4,6,4,4,7,3,16,12,12,2,3,11,1,10,5,11,8,4,3,1,1,9,3,11,4,7,9,9,3,4,3,1,12,8,1,11,6,1,9,12,7,4,13,3,1,4,20,4,13,13,7,4,2,14,8,11,4,7,5,4,13,1],"right_num":[14,2,8,8,6,7,4,6,1,6,12,11,2,6,13,15,6,9,9,3,11,2,3,14,9,2,13,6,12,4,4,12,11,6,15,3,7,7,7,9,14,6,13,14,2,3,14,3,10,12,14,4,14,11,6,13,13,5,2,13,2,2,9,11,9,6,2,6,11,1,3,9,14,6,2,2,14,18,6,8,14,3,6,6,20,13,7,8,2,8,9,3,2,2,11,3,8,2,15,1,12,11,7,2,5,13,12,12,12,14,6,6,1,3,3,8,6,6,12,19],"left_den":[10,30,30,25,4,10,6,5,10,26,10,4,20,30,25,12,5,12,22,20,20,16,15,10,10,15,25,22,26,6,22,10,12,18,12,15,12,12,9,25,10,8,25,10,3,25,10,22,30,26,15,15,6,5,22,20,10,20,20,10,5,20,14,4,30,15,24,5,12,22,2,25,10,22,16,20,6,2,5,15,6,20,5,15,10,15,9,8,6,2,24,15,2,22,10,5,15,24,14,30,26,4,20,20,25,20,26,26,10,6,4,30,20,20,10,10,25,5,26,3],"right_den":[20,4,16,16,15,14,5,12,2,10,24,20,4,9,26,25,10,20,15,4,22,5,9,20,18,6,26,15,15,20,20,24,20,10,25,9,10,10,30,15,28,10,26,28,15,10,28,10,15,15,28,6,20,22,15,26,26,25,4,26,4,4,15,20,27,10,10,12,20,5,5,18,20,15,5,4,20,30,12,10,20,4,12,9,25,26,30,20,5,20,15,9,10,10,22,6,16,10,25,3,15,20,20,4,10,26,15,15,24,30,30,9,2,4,15,20,12,12,15,30],"correct_side":[2,1,1,2,1,2,2,2,2,2,1,1,2,2,1,2,1,2,2,2,2,1,1,2,1,1,1,1,2,1,1,1,2,2,2,1,2,2,1,1,1,2,1,1,1,1,1,1,2,2,1,2,2,1,1,2,1,1,2,1,1,2,2,1,1,1,1,2,2,1,2,2,2,1,1,2,2,2,2,2,2,2,1,2,1,1,1,1,1,1,2,1,1,1,1,2,1,1,2,2,2,1,2,2,1,2,2,2,1,1,1,2,2,2,1,1,2,1,2,2],"img_shown":["img2/200/Congruent/R/C_Dist_200_LN_5_LD_10_RN_14_RD_20_1.png","img2/300/Congruent/L/C_Dist_300_LN_24_LD_30_RN_2_RD_4_0.png","img2/300/Congruent/L/C_Dist_300_LN_24_LD_30_RN_8_RD_16_0.png","img2/100/Incongruent/R/I_Dist_100_LN_10_LD_25_RN_8_RD_16_1.png","img2/100/Incongruent/L/I_Dist_100_LN_2_LD_4_RN_6_RD_15_0.png","img2/200/Congruent/R/C_Dist_200_LN_3_LD_10_RN_7_RD_14_1.png","img2/300/Congruent/R/C_Dist_300_LN_3_LD_6_RN_4_RD_5_1.png","img2/100/Congruent/R/C_Dist_100_LN_2_LD_5_RN_6_RD_12_1.png","img2/200/Incongruent/R/I_Dist_200_LN_3_LD_10_RN_1_RD_2_1.png","img2/100/Incongruent/R/I_Dist_100_LN_13_LD_26_RN_6_RD_10_1.png","img2/200/Incongruent/L/I_Dist_200_LN_7_LD_10_RN_12_RD_24_0.png","img2/200/Incongruent/L/I_Dist_200_LN_3_LD_4_RN_11_RD_20_0.png","img2/300/Incongruent/R/I_Dist_300_LN_4_LD_20_RN_2_RD_4_1.png","img2/200/Incongruent/R/I_Dist_200_LN_14_LD_30_RN_6_RD_9_1.png","img2/100/Congruent/L/C_Dist_100_LN_15_LD_25_RN_13_RD_26_0.png","img2/100/Congruent/R/C_Dist_100_LN_6_LD_12_RN_15_RD_25_1.png","img2/200/Incongruent/L/I_Dist_200_LN_4_LD_5_RN_6_RD_10_0.png","img2/200/Congruent/R/C_Dist_200_LN_3_LD_12_RN_9_RD_20_1.png","img2/100/Incongruent/R/I_Dist_100_LN_11_LD_22_RN_9_RD_15_1.png","img2/200/Incongruent/R/I_Dist_200_LN_11_LD_20_RN_3_RD_4_1.png","img2/200/Congruent/R/C_Dist_200_LN_6_LD_20_RN_11_RD_22_1.png","img2/100/Congruent/L/C_Dist_100_LN_8_LD_16_RN_2_RD_5_0.png","img2/200/Congruent/L/C_Dist_200_LN_8_LD_15_RN_3_RD_9_0.png","img2/200/Congruent/R/C_Dist_200_LN_5_LD_10_RN_14_RD_20_1.png","img2/300/Incongruent/L/I_Dist_300_LN_8_LD_10_RN_9_RD_18_0.png","img2/200/Congruent/L/C_Dist_200_LN_8_LD_15_RN_2_RD_6_0.png","img2/100/Congruent/L/C_Dist_100_LN_15_LD_25_RN_13_RD_26_0.png","img2/100/Congruent/L/C_Dist_100_LN_11_LD_22_RN_6_RD_15_0.png","img2/300/Incongruent/R/I_Dist_300_LN_13_LD_26_RN_12_RD_15_1.png","img2/300/Incongruent/L/I_Dist_300_LN_3_LD_6_RN_4_RD_20_0.png","img2/300/Congruent/L/C_Dist_300_LN_11_LD_22_RN_4_RD_20_0.png","img2/200/Incongruent/L/I_Dist_200_LN_7_LD_10_RN_12_RD_24_0.png","img2/300/Congruent/R/C_Dist_300_LN_3_LD_12_RN_11_RD_20_1.png","img2/100/Incongruent/R/I_Dist_100_LN_9_LD_18_RN_6_RD_10_1.png","img2/100/Congruent/R/C_Dist_100_LN_6_LD_12_RN_15_RD_25_1.png","img2/200/Congruent/L/C_Dist_200_LN_8_LD_15_RN_3_RD_9_0.png","img2/200/Congruent/R/C_Dist_200_LN_6_LD_12_RN_7_RD_10_1.png","img2/200/Congruent/R/C_Dist_200_LN_6_LD_12_RN_7_RD_10_1.png","img2/100/Incongruent/L/I_Dist_100_LN_3_LD_9_RN_7_RD_30_0.png","img2/200/Congruent/L/C_Dist_200_LN_20_LD_25_RN_9_RD_15_0.png","img2/300/Incongruent/L/I_Dist_300_LN_8_LD_10_RN_14_RD_28_0.png","img2/100/Congruent/R/C_Dist_100_LN_4_LD_8_RN_6_RD_10_1.png","img2/300/Congruent/L/C_Dist_300_LN_20_LD_25_RN_13_RD_26_0.png","img2/200/Incongruent/L/I_Dist_200_LN_7_LD_10_RN_14_RD_28_0.png","img2/200/Incongruent/L/I_Dist_200_LN_1_LD_3_RN_2_RD_15_0.png","img2/100/Congruent/L/C_Dist_100_LN_10_LD_25_RN_3_RD_10_0.png","img2/300/Incongruent/L/I_Dist_300_LN_8_LD_10_RN_14_RD_28_0.png","img2/200/Congruent/L/C_Dist_200_LN_11_LD_22_RN_3_RD_10_0.png","img2/100/Incongruent/R/I_Dist_100_LN_17_LD_30_RN_10_RD_15_1.png","img2/300/Incongruent/R/I_Dist_300_LN_13_LD_26_RN_12_RD_15_1.png","img2/100/Incongruent/L/I_Dist_100_LN_9_LD_15_RN_14_RD_28_0.png","img2/200/Incongruent/R/I_Dist_200_LN_7_LD_15_RN_4_RD_6_1.png","img2/200/Congruent/R/C_Dist_200_LN_3_LD_6_RN_14_RD_20_1.png","img2/100/Incongruent/L/I_Dist_100_LN_3_LD_5_RN_11_RD_22_0.png","img2/100/Congruent/L/C_Dist_100_LN_11_LD_22_RN_6_RD_15_0.png","img2/300/Congruent/R/C_Dist_300_LN_4_LD_20_RN_13_RD_26_1.png","img2/100/Incongruent/L/I_Dist_100_LN_6_LD_10_RN_13_RD_26_0.png","img2/100/Congruent/L/C_Dist_100_LN_6_LD_20_RN_5_RD_25_0.png","img2/300/Incongruent/R/I_Dist_300_LN_4_LD_20_RN_2_RD_4_1.png","img2/100/Incongruent/L/I_Dist_100_LN_6_LD_10_RN_13_RD_26_0.png","img2/300/Congruent/L/C_Dist_300_LN_4_LD_5_RN_2_RD_4_0.png","img2/300/Incongruent/R/I_Dist_300_LN_4_LD_20_RN_2_RD_4_1.png","img2/100/Congruent/R/C_Dist_100_LN_7_LD_14_RN_9_RD_15_1.png","img2/200/Incongruent/L/I_Dist_200_LN_3_LD_4_RN_11_RD_20_0.png","img2/200/Congruent/L/C_Dist_200_LN_16_LD_30_RN_9_RD_27_0.png","img2/200/Congruent/L/C_Dist_200_LN_12_LD_15_RN_6_RD_10_0.png","img2/300/Congruent/L/C_Dist_300_LN_12_LD_24_RN_2_RD_10_0.png","img2/100/Congruent/R/C_Dist_100_LN_2_LD_5_RN_6_RD_12_1.png","img2/300/Congruent/R/C_Dist_300_LN_3_LD_12_RN_11_RD_20_1.png","img2/300/Congruent/L/C_Dist_300_LN_11_LD_22_RN_1_RD_5_0.png","img2/100/Congruent/R/C_Dist_100_LN_1_LD_2_RN_3_RD_5_1.png","img2/100/Incongruent/R/I_Dist_100_LN_10_LD_25_RN_9_RD_18_1.png","img2/200/Congruent/R/C_Dist_200_LN_5_LD_10_RN_14_RD_20_1.png","img2/100/Congruent/L/C_Dist_100_LN_11_LD_22_RN_6_RD_15_0.png","img2/100/Congruent/L/C_Dist_100_LN_8_LD_16_RN_2_RD_5_0.png","img2/300/Incongruent/R/I_Dist_300_LN_4_LD_20_RN_2_RD_4_1.png","img2/200/Congruent/R/C_Dist_200_LN_3_LD_6_RN_14_RD_20_1.png","img2/100/Congruent/R/C_Dist_100_LN_1_LD_2_RN_18_RD_30_1.png","img2/300/Congruent/R/C_Dist_300_LN_1_LD_5_RN_6_RD_12_1.png","img2/200/Incongruent/R/I_Dist_200_LN_9_LD_15_RN_8_RD_10_1.png","img2/200/Congruent/R/C_Dist_200_LN_3_LD_6_RN_14_RD_20_1.png","img2/200/Incongruent/R/I_Dist_200_LN_11_LD_20_RN_3_RD_4_1.png","img2/300/Incongruent/L/I_Dist_300_LN_4_LD_5_RN_6_RD_12_0.png","img2/200/Incongruent/R/I_Dist_200_LN_7_LD_15_RN_6_RD_9_1.png","img2/100/Incongruent/L/I_Dist_100_LN_9_LD_10_RN_20_RD_25_0.png","img2/100/Incongruent/L/I_Dist_100_LN_9_LD_15_RN_13_RD_26_0.png","img2/100/Incongruent/L/I_Dist_100_LN_3_LD_9_RN_7_RD_30_0.png","img2/100/Incongruent/L/I_Dist_100_LN_4_LD_8_RN_8_RD_20_0.png","img2/100/Congruent/L/C_Dist_100_LN_3_LD_6_RN_2_RD_5_0.png","img2/100/Incongruent/L/I_Dist_100_LN_1_LD_2_RN_8_RD_20_0.png","img2/100/Incongruent/R/I_Dist_100_LN_12_LD_24_RN_9_RD_15_1.png","img2/200/Congruent/L/C_Dist_200_LN_8_LD_15_RN_3_RD_9_0.png","img2/300/Incongruent/L/I_Dist_300_LN_1_LD_2_RN_2_RD_10_0.png","img2/300/Congruent/L/C_Dist_300_LN_11_LD_22_RN_2_RD_10_0.png","img2/100/Incongruent/L/I_Dist_100_LN_6_LD_10_RN_11_RD_22_0.png","img2/300/Congruent/R/C_Dist_300_LN_1_LD_5_RN_3_RD_6_1.png","img2/100/Congruent/L/C_Dist_100_LN_9_LD_15_RN_8_RD_16_0.png","img2/300/Congruent/L/C_Dist_300_LN_12_LD_24_RN_2_RD_10_0.png","img2/100/Congruent/R/C_Dist_100_LN_7_LD_14_RN_15_RD_25_1.png","img2/200/Incongruent/R/I_Dist_200_LN_4_LD_30_RN_1_RD_3_1.png","img2/300/Incongruent/R/I_Dist_300_LN_13_LD_26_RN_12_RD_15_1.png","img2/200/Incongruent/L/I_Dist_200_LN_3_LD_4_RN_11_RD_20_0.png","img2/300/Congruent/R/C_Dist_300_LN_1_LD_20_RN_7_RD_20_1.png","img2/300/Incongruent/R/I_Dist_300_LN_4_LD_20_RN_2_RD_4_1.png","img2/300/Congruent/L/C_Dist_300_LN_20_LD_25_RN_5_RD_10_0.png","img2/300/Congruent/R/C_Dist_300_LN_4_LD_20_RN_13_RD_26_1.png","img2/300/Incongruent/R/I_Dist_300_LN_13_LD_26_RN_12_RD_15_1.png","img2/300/Incongruent/R/I_Dist_300_LN_13_LD_26_RN_12_RD_15_1.png","img2/200/Incongruent/L/I_Dist_200_LN_7_LD_10_RN_12_RD_24_0.png","img2/200/Incongruent/L/I_Dist_200_LN_4_LD_6_RN_14_RD_30_0.png","img2/300/Incongruent/L/I_Dist_300_LN_2_LD_4_RN_6_RD_30_0.png","img2/200/Incongruent/R/I_Dist_200_LN_14_LD_30_RN_6_RD_9_1.png","img2/100/Incongruent/R/I_Dist_100_LN_8_LD_20_RN_1_RD_2_1.png","img2/200/Incongruent/R/I_Dist_200_LN_11_LD_20_RN_3_RD_4_1.png","img2/200/Congruent/L/C_Dist_200_LN_4_LD_10_RN_3_RD_15_0.png","img2/300/Incongruent/L/I_Dist_300_LN_7_LD_10_RN_8_RD_20_0.png","img2/300/Congruent/R/C_Dist_300_LN_5_LD_25_RN_6_RD_12_1.png","img2/300/Incongruent/L/I_Dist_300_LN_4_LD_5_RN_6_RD_12_0.png","img2/300/Incongruent/R/I_Dist_300_LN_13_LD_26_RN_12_RD_15_1.png","img2/300/Congruent/R/C_Dist_300_LN_1_LD_3_RN_19_RD_30_1.png"],"dist100_C":[["C_Dist_100_LN_10_LD_25_RN_3_RD_10_0.png","C_Dist_100_LN_11_LD_22_RN_4_RD_10_0.png","C_Dist_100_LN_11_LD_22_RN_6_RD_15_0.png","C_Dist_100_LN_15_LD_25_RN_13_RD_26_0.png","C_Dist_100_LN_3_LD_6_RN_2_RD_5_0.png","C_Dist_100_LN_6_LD_20_RN_5_RD_25_0.png","C_Dist_100_LN_8_LD_16_RN_2_RD_5_0.png","C_Dist_100_LN_9_LD_15_RN_8_RD_16_0.png"],["C_Dist_100_LN_1_LD_2_RN_18_RD_30_1.png","C_Dist_100_LN_1_LD_2_RN_3_RD_5_1.png","C_Dist_100_LN_12_LD_30_RN_13_RD_26_1.png","C_Dist_100_LN_2_LD_5_RN_11_RD_22_1.png","C_Dist_100_LN_2_LD_5_RN_6_RD_12_1.png","C_Dist_100_LN_3_LD_20_RN_4_RD_16_1.png","C_Dist_100_LN_4_LD_10_RN_15_RD_30_1.png","C_Dist_100_LN_4_LD_8_RN_6_RD_10_1.png","C_Dist_100_LN_6_LD_12_RN_15_RD_25_1.png","C_Dist_100_LN_7_LD_14_RN_15_RD_25_1.png","C_Dist_100_LN_7_LD_14_RN_9_RD_15_1.png"]],"dist100_I":[["I_Dist_100_LN_1_LD_2_RN_8_RD_20_0.png","I_Dist_100_LN_2_LD_4_RN_6_RD_15_0.png","I_Dist_100_LN_2_LD_4_RN_8_RD_20_0.png","I_Dist_100_LN_3_LD_5_RN_11_RD_22_0.png","I_Dist_100_LN_3_LD_5_RN_8_RD_16_0.png","I_Dist_100_LN_3_LD_6_RN_4_RD_10_0.png","I_Dist_100_LN_3_LD_9_RN_7_RD_30_0.png","I_Dist_100_LN_4_LD_8_RN_8_RD_20_0.png","I_Dist_100_LN_6_LD_10_RN_11_RD_22_0.png","I_Dist_100_LN_6_LD_10_RN_13_RD_26_0.png","I_Dist_100_LN_6_LD_10_RN_7_RD_14_0.png","I_Dist_100_LN_9_LD_10_RN_20_RD_25_0.png","I_Dist_100_LN_9_LD_15_RN_13_RD_26_0.png","I_Dist_100_LN_9_LD_15_RN_14_RD_28_0.png"],["I_Dist_100_LN_10_LD_25_RN_8_RD_16_1.png","I_Dist_100_LN_10_LD_25_RN_9_RD_18_1.png","I_Dist_100_LN_11_LD_22_RN_9_RD_15_1.png","I_Dist_100_LN_12_LD_24_RN_9_RD_15_1.png","I_Dist_100_LN_12_LD_30_RN_2_RD_4_1.png","I_Dist_100_LN_13_LD_26_RN_12_RD_20_1.png","I_Dist_100_LN_13_LD_26_RN_6_RD_10_1.png","I_Dist_100_LN_17_LD_30_RN_10_RD_15_1.png","I_Dist_100_LN_6_LD_12_RN_3_RD_5_1.png","I_Dist_100_LN_8_LD_16_RN_6_RD_10_1.png","I_Dist_100_LN_8_LD_20_RN_1_RD_2_1.png","I_Dist_100_LN_9_LD_18_RN_6_RD_10_1.png"]],"dist100_S":[["E_Dist_100_LN_2_LD_12_RN_2_RD_30_0.png","E_Dist_100_LN_6_LD_10_RN_6_RD_12_0.png"],["E_Dist_100_LN_6_LD_12_RN_6_RD_10_1.png"]],"dist200_C":[["C_Dist_200_LN_11_LD_22_RN_3_RD_10_0.png","C_Dist_200_LN_12_LD_15_RN_6_RD_10_0.png","C_Dist_200_LN_12_LD_20_RN_6_RD_15_0.png","C_Dist_200_LN_14_LD_28_RN_6_RD_20_0.png","C_Dist_200_LN_15_LD_25_RN_4_RD_10_0.png","C_Dist_200_LN_16_LD_20_RN_12_RD_20_0.png","C_Dist_200_LN_16_LD_30_RN_9_RD_27_0.png","C_Dist_200_LN_20_LD_25_RN_9_RD_15_0.png","C_Dist_200_LN_21_LD_30_RN_2_RD_4_0.png","C_Dist_200_LN_4_LD_10_RN_3_RD_15_0.png","C_Dist_200_LN_4_LD_8_RN_3_RD_10_0.png","C_Dist_200_LN_6_LD_15_RN_3_RD_15_0.png","C_Dist_200_LN_7_LD_21_RN_2_RD_15_0.png","C_Dist_200_LN_8_LD_15_RN_2_RD_6_0.png","C_Dist_200_LN_8_LD_15_RN_3_RD_9_0.png","C_Dist_200_LN_8_LD_15_RN_7_RD_21_0.png","C_Dist_200_LN_9_LD_20_RN_4_RD_16_0.png"],["C_Dist_200_LN_1_LD_2_RN_21_RD_30_1.png","C_Dist_200_LN_13_LD_26_RN_14_RD_20_1.png","C_Dist_200_LN_3_LD_10_RN_11_RD_22_1.png","C_Dist_200_LN_3_LD_10_RN_14_RD_28_1.png","C_Dist_200_LN_3_LD_10_RN_7_RD_14_1.png","C_Dist_200_LN_3_LD_12_RN_9_RD_20_1.png","C_Dist_200_LN_3_LD_6_RN_14_RD_20_1.png","C_Dist_200_LN_5_LD_10_RN_14_RD_20_1.png","C_Dist_200_LN_6_LD_12_RN_7_RD_10_1.png","C_Dist_200_LN_6_LD_20_RN_11_RD_22_1.png","C_Dist_200_LN_7_LD_15_RN_18_RD_27_1.png","C_Dist_200_LN_9_LD_30_RN_13_RD_26_1.png"]],"dist200_I":[["I_Dist_200_LN_1_LD_2_RN_3_RD_10_0.png","I_Dist_200_LN_1_LD_3_RN_2_RD_15_0.png","I_Dist_200_LN_3_LD_4_RN_11_RD_20_0.png","I_Dist_200_LN_4_LD_5_RN_6_RD_10_0.png","I_Dist_200_LN_4_LD_6_RN_14_RD_30_0.png","I_Dist_200_LN_7_LD_10_RN_12_RD_24_0.png","I_Dist_200_LN_7_LD_10_RN_14_RD_28_0.png","I_Dist_200_LN_7_LD_10_RN_8_RD_16_0.png"],["I_Dist_200_LN_11_LD_20_RN_3_RD_4_1.png","I_Dist_200_LN_14_LD_30_RN_12_RD_18_1.png","I_Dist_200_LN_14_LD_30_RN_6_RD_9_1.png","I_Dist_200_LN_3_LD_10_RN_1_RD_2_1.png","I_Dist_200_LN_4_LD_30_RN_1_RD_3_1.png","I_Dist_200_LN_6_LD_20_RN_3_RD_6_1.png","I_Dist_200_LN_7_LD_15_RN_4_RD_6_1.png","I_Dist_200_LN_7_LD_15_RN_6_RD_9_1.png","I_Dist_200_LN_9_LD_15_RN_8_RD_10_1.png"]],"dist200_S":[["E_Dist_200_LN_3_LD_6_RN_3_RD_10_0.png"],["E_Dist_200_LN_3_LD_10_RN_3_RD_6_1.png"]],"dist300_C":[["C_Dist_300_LN_11_LD_22_RN_1_RD_5_0.png","C_Dist_300_LN_11_LD_22_RN_2_RD_10_0.png","C_Dist_300_LN_11_LD_22_RN_4_RD_20_0.png","C_Dist_300_LN_12_LD_24_RN_2_RD_10_0.png","C_Dist_300_LN_18_LD_20_RN_9_RD_15_0.png","C_Dist_300_LN_20_LD_25_RN_13_RD_26_0.png","C_Dist_300_LN_20_LD_25_RN_14_RD_28_0.png","C_Dist_300_LN_20_LD_25_RN_5_RD_10_0.png","C_Dist_300_LN_20_LD_25_RN_8_RD_16_0.png","C_Dist_300_LN_20_LD_25_RN_9_RD_18_0.png","C_Dist_300_LN_24_LD_30_RN_2_RD_4_0.png","C_Dist_300_LN_24_LD_30_RN_8_RD_16_0.png","C_Dist_300_LN_3_LD_6_RN_2_RD_10_0.png","C_Dist_300_LN_4_LD_10_RN_1_RD_10_0.png","C_Dist_300_LN_4_LD_5_RN_2_RD_4_0.png","C_Dist_300_LN_8_LD_16_RN_1_RD_5_0.png","C_Dist_300_LN_9_LD_10_RN_3_RD_5_0.png"],["C_Dist_300_LN_1_LD_20_RN_7_RD_20_1.png","C_Dist_300_LN_1_LD_3_RN_19_RD_30_1.png","C_Dist_300_LN_1_LD_30_RN_8_RD_24_1.png","C_Dist_300_LN_1_LD_5_RN_11_RD_22_1.png","C_Dist_300_LN_1_LD_5_RN_3_RD_6_1.png","C_Dist_300_LN_1_LD_5_RN_6_RD_12_1.png","C_Dist_300_LN_2_LD_10_RN_12_RD_24_1.png","C_Dist_300_LN_2_LD_20_RN_10_RD_25_1.png","C_Dist_300_LN_3_LD_12_RN_11_RD_20_1.png","C_Dist_300_LN_3_LD_6_RN_4_RD_5_1.png","C_Dist_300_LN_4_LD_20_RN_13_RD_26_1.png","C_Dist_300_LN_5_LD_25_RN_6_RD_12_1.png","C_Dist_300_LN_5_LD_25_RN_7_RD_14_1.png","C_Dist_300_LN_7_LD_14_RN_20_RD_25_1.png","C_Dist_300_LN_8_LD_15_RN_10_RD_12_1.png"]],"dist300_I":[["I_Dist_300_LN_1_LD_2_RN_2_RD_10_0.png","I_Dist_300_LN_1_LD_2_RN_3_RD_15_0.png","I_Dist_300_LN_2_LD_4_RN_6_RD_30_0.png","I_Dist_300_LN_3_LD_6_RN_4_RD_20_0.png","I_Dist_300_LN_4_LD_5_RN_6_RD_12_0.png","I_Dist_300_LN_4_LD_5_RN_8_RD_16_0.png","I_Dist_300_LN_7_LD_10_RN_8_RD_20_0.png","I_Dist_300_LN_8_LD_10_RN_14_RD_28_0.png","I_Dist_300_LN_8_LD_10_RN_9_RD_18_0.png"],["I_Dist_300_LN_13_LD_26_RN_12_RD_15_1.png","I_Dist_300_LN_4_LD_20_RN_2_RD_4_1.png"]],"dist300_S":[["E_Dist_300_LN_9_LD_12_RN_9_RD_20_0.png"],["E_Dist_300_LN_18_LD_30_RN_18_RD_20_1.png","E_Dist_300_LN_3_LD_10_RN_3_RD_5_1.png","E_Dist_300_LN_9_LD_20_RN_9_RD_12_1.png"]],"dist500_C":[["C_Dist_500_LN_10_LD_13_RN_7_RD_26_0.png","C_Dist_500_LN_10_LD_15_RN_4_RD_24_0.png","C_Dist_500_LN_12_LD_16_RN_3_RD_12_0.png","C_Dist_500_LN_12_LD_18_RN_4_RD_24_0.png","C_Dist_500_LN_15_LD_18_RN_5_RD_15_0.png","C_Dist_500_LN_15_LD_20_RN_1_RD_4_0.png","C_Dist_500_LN_18_LD_27_RN_1_RD_6_0.png","C_Dist_500_LN_20_LD_24_RN_1_RD_3_0.png","C_Dist_500_LN_20_LD_24_RN_3_RD_9_0.png","C_Dist_500_LN_20_LD_24_RN_7_RD_21_0.png","C_Dist_500_LN_20_LD_28_RN_3_RD_14_0.png","C_Dist_500_LN_21_LD_28_RN_6_RD_24_0.png","C_Dist_500_LN_22_LD_28_RN_2_RD_7_0.png","C_Dist_500_LN_25_LD_30_RN_9_RD_27_0.png","C_Dist_500_LN_4_LD_6_RN_1_RD_6_0.png","C_Dist_500_LN_5_LD_6_RN_2_RD_6_0.png","C_Dist_500_LN_6_LD_9_RN_1_RD_6_0.png","C_Dist_500_LN_7_LD_10_RN_1_RD_5_0.png","C_Dist_500_LN_8_LD_12_RN_1_RD_6_0.png","C_Dist_500_LN_8_LD_12_RN_4_RD_24_0.png"],["C_Dist_500_LN_1_LD_4_RN_12_RD_16_1.png","C_Dist_500_LN_1_LD_4_RN_9_RD_12_1.png","C_Dist_500_LN_1_LD_9_RN_11_RD_18_1.png","C_Dist_500_LN_10_LD_24_RN_22_RD_24_1.png","C_Dist_500_LN_2_LD_12_RN_10_RD_15_1.png","C_Dist_500_LN_2_LD_12_RN_12_RD_18_1.png","C_Dist_500_LN_2_LD_12_RN_4_RD_6_1.png","C_Dist_500_LN_2_LD_24_RN_7_RD_12_1.png","C_Dist_500_LN_2_LD_5_RN_18_RD_20_1.png","C_Dist_500_LN_2_LD_5_RN_9_RD_10_1.png","C_Dist_500_LN_2_LD_8_RN_12_RD_16_1.png","C_Dist_500_LN_2_LD_8_RN_21_RD_28_1.png","C_Dist_500_LN_3_LD_10_RN_4_RD_5_1.png","C_Dist_500_LN_3_LD_12_RN_15_RD_20_1.png","C_Dist_500_LN_3_LD_30_RN_6_RD_10_1.png","C_Dist_500_LN_3_LD_8_RN_14_RD_16_1.png","C_Dist_500_LN_4_LD_16_RN_15_RD_20_1.png","C_Dist_500_LN_4_LD_24_RN_12_RD_18_1.png","C_Dist_500_LN_5_LD_14_RN_6_RD_7_1.png","C_Dist_500_LN_7_LD_21_RN_20_RD_24_1.png","C_Dist_500_LN_7_LD_28_RN_12_RD_16_1.png","C_Dist_500_LN_7_LD_28_RN_9_RD_12_1.png","C_Dist_500_LN_9_LD_27_RN_20_RD_24_1.png"]],"dist500_I":[["I_Dist_500_LN_2_LD_3_RN_4_RD_24_0.png","I_Dist_500_LN_5_LD_6_RN_6_RD_18_0.png","I_Dist_500_LN_7_LD_8_RN_9_RD_24_0.png"],["I_Dist_500_LN_7_LD_21_RN_5_RD_6_1.png"]],"dist500_S":[["E_Dist_500_LN_6_LD_8_RN_6_RD_24_0.png"],["E_Dist_500_LN_2_LD_12_RN_2_RD_3_1.png","E_Dist_500_LN_6_LD_24_RN_6_RD_8_1.png"]]}},{"start_time":1551882168016,"click_time":1551882169318,"finger_time":1551882168857,"fix_duration":917.1507764232043,"trial":1,"RT":841,"MT":461,"sideResp":1,"stimulus":[],"xmouse":[808,808,808,808,808,808,808,808,808,808,808,808,808,808,808,808,808,808,808,808,808,808,808,808,808,808,808,808,808,808,808,808,808,808,808,808,808,808,808,808,807,786,760,728,696,650,596,493,473,462,461,461,461,461,461,461,458,455,455,455,455,455,455,456,458,459],"ymouse":[633,633,633,633,633,633,633,633,633,633,633,633,633,633,633,633,633,633,633,633,633,633,633,633,633,633,633,633,633,633,633,633,633,633,633,633,633,633,633,633,631,601,566,523,480,418,350,222,195,183,180,178,178,177,176,171,156,137,130,127,124,115,110,108,101,92],"timestamp_mouse":[9,22,41,62,83,101,121,142,163,181,201,222,241,262,281,301,321,342,361,381,402,421,442,461,482,501,522,543,561,581,602,621,642,663,681,701,722,741,762,783,802,822,841,861,882,903,921,941,961,982,1003,1022,1041,1061,1083,1101,1121,1143,1162,1183,1203,1222,1241,1261,1281,1302],"xSR":741.5,"ySR":573.95,"xT1":424.9,"yT1":0,"xT2":1058.1,"yT2":0,"toosoon":0,"cond_shown":"Congruent","ratio_trial":300,"L_num":24,"L_den":30,"R_num":2,"R_den":4,"correct_side":1,"subjID":"GabrielaRojasBohorquez13","gender":"1","school":"6","age":"11"},{"start_time":1551882170749,"click_time":1551882171978,"finger_time":1551882171378,"fix_duration":250,"trial":2,"RT":629,"MT":600,"sideResp":1,"stimulus":[],"xmouse":[809,809,809,809,809,809,809,809,809,809,809,809,809,809,809,809,809,809,809,809,809,809,809,809,809,809,809,810,810,810,802,798,778,753,730,689,672,663,656,651,649,645,639,632,611,603,598,591,582,574,558,552,550,550,550,550,547,544,544,543,525,517],"ymouse":[623,623,623,623,623,623,623,623,623,623,623,623,623,623,623,623,623,623,623,623,623,623,623,623,623,623,623,623,623,620,599,572,500,437,392,338,321,312,307,304,300,297,287,278,252,241,228,213,195,181,161,152,149,149,149,147,142,136,131,124,102,94],"timestamp_mouse":[8,37,49,68,88,109,128,148,168,189,208,228,248,269,288,308,328,350,368,388,410,429,449,468,489,510,530,549,568,588,609,629,649,669,689,710,729,748,770,789,808,830,848,869,889,908,930,948,969,989,1009,1028,1048,1069,1088,1108,1128,1149,1169,1188,1210,1229],"xSR":741.5,"ySR":573.95,"xT1":424.9,"yT1":0,"xT2":1058.1,"yT2":0,"toosoon":0,"cond_shown":"Congruent","ratio_trial":300,"L_num":24,"L_den":30,"R_num":8,"R_den":16,"correct_side":1,"subjID":"GabrielaRojasBohorquez13","gender":"1","school":"6","age":"11"},{"start_time":1551882174049,"click_time":1551882175859,"finger_time":1551882175738,"fix_duration":1070.8118764872286,"trial":3,"RT":1689,"MT":121,"sideResp":2,"stimulus":[],"xmouse":[806,806,806,806,806,806,806,806,806,806,806,806,806,806,806,806,806,806,806,806,806,806,806,806,806,806,806,806,806,806,806,806,806,806,806,806,806,806,806,806,806,806,806,806,806,806,806,806,806,806,806,806,806,806,806,806,806,806,806,806,806,806,806,806,806,806,806,806,806,806,806,806,806,806,806,806,806,806,806,806,806,806,811,823,865,900,957,1025,1103,1116,1122],"ymouse":[647,647,647,647,647,647,647,647,647,647,647,647,647,647,647,647,647,647,646,645,645,645,645,645,645,645,645,645,645,645,645,645,645,645,645,645,645,645,645,645,645,645,645,645,645,645,645,645,645,645,645,645,645,645,645,645,645,645,645,645,645,645,645,645,645,645,645,645,645,645,645,645,645,645,645,645,645,645,645,645,645,642,624,596,522,482,422,328,172,108,50],"timestamp_mouse":[9,41,48,70,89,108,129,148,169,189,209,229,248,268,290,308,328,349,368,388,408,429,448,469,488,508,528,549,569,588,608,629,649,669,689,708,729,749,768,788,808,828,849,869,888,908,928,948,969,988,1009,1028,1049,1069,1088,1108,1130,1149,1170,1188,1208,1230,1248,1269,1289,1309,1330,1349,1369,1388,1410,1429,1449,1468,1488,1508,1530,1548,1569,1590,1608,1629,1648,1669,1689,1708,1729,1749,1770,1789,1810],"xSR":741.5,"ySR":573.95,"xT1":424.9,"yT1":0,"xT2":1058.1,"yT2":0,"toosoon":0,"cond_shown":"Incongruent","ratio_trial":100,"L_num":10,"L_den":25,"R_num":8,"R_den":16,"correct_side":2,"subjID":"GabrielaRojasBohorquez13","gender":"1","school":"6","age":"11"},{"start_time":1551882176911,"click_time":1551882178198,"finger_time":1551882177738,"fix_duration":250,"trial":4,"RT":827,"MT":460,"sideResp":1,"stimulus":[],"xmouse":[768,768,768,768,768,768,768,768,768,768,768,768,768,768,768,768,768,768,768,768,768,768,768,768,768,768,768,768,768,768,768,768,768,768,768,764,756,755,752,748,743,736,718,690,675,661,652,641,634,627,621,618,593,564,534,499,473,442,438,438,438,438,439,439,439],"ymouse":[649,649,648,646,646,646,646,646,646,646,646,646,646,646,646,646,646,646,646,646,646,646,646,646,646,646,646,646,646,646,646,646,646,646,645,638,621,614,608,599,590,572,513,464,443,424,412,382,366,348,339,328,284,247,217,189,168,136,128,119,110,107,101,100,99],"timestamp_mouse":[10,26,46,67,87,106,127,147,167,186,207,226,247,267,287,306,328,346,366,386,406,426,446,466,487,506,526,546,566,587,606,626,647,667,687,706,727,747,767,787,807,827,848,866,886,906,926,947,968,987,1006,1026,1047,1066,1086,1107,1127,1148,1167,1186,1207,1226,1246,1267,1287],"xSR":741.5,"ySR":573.95,"xT1":424.9,"yT1":0,"xT2":1058.1,"yT2":0,"toosoon":0,"cond_shown":"Incongruent","ratio_trial":100,"L_num":2,"L_den":4,"R_num":6,"R_den":15,"correct_side":1,"subjID":"GabrielaRojasBohorquez13","gender":"1","school":"6","age":"11"},{"start_time":1551882180600,"click_time":1551882181998,"finger_time":1551882181598,"fix_duration":1359.3900651048277,"trial":5,"RT":998,"MT":400,"sideResp":2,"stimulus":[],"xmouse":[790,790,790,790,790,790,790,790,790,790,790,790,790,790,790,790,790,790,790,790,790,790,790,790,790,790,790,790,790,790,790,790,790,790,790,790,790,790,790,790,790,790,790,790,790,790,790,791,801,821,838,871,878,884,890,894,904,911,917,922,926,932,933,936,942,956,982,1039,1085,1109],"ymouse":[606,606,606,606,606,606,606,606,606,606,606,606,606,606,606,606,606,606,606,606,606,606,606,606,606,606,606,606,606,606,606,606,606,606,606,606,606,606,606,606,606,606,606,606,606,606,606,606,583,541,497,407,364,328,300,278,242,227,209,202,195,185,183,181,173,163,151,122,102,90],"timestamp_mouse":[19,46,58,77,97,117,139,157,177,198,218,237,259,277,297,318,338,357,378,397,417,438,458,478,498,517,538,559,577,597,618,637,657,677,697,718,737,757,777,798,818,838,857,877,899,917,938,958,978,998,1018,1038,1057,1077,1099,1117,1138,1158,1177,1197,1217,1238,1257,1278,1297,1318,1338,1357,1378,1398],"xSR":741.5,"ySR":573.95,"xT1":424.9,"yT1":0,"xT2":1058.1,"yT2":0,"toosoon":0,"cond_shown":"Congruent","ratio_trial":200,"L_num":3,"L_den":10,"R_num":7,"R_den":14,"correct_side":2,"subjID":"GabrielaRojasBohorquez13","gender":"1","school":"6","age":"11"},{"start_time":1551882183271,"click_time":1551882184719,"finger_time":1551882184498,"fix_duration":250,"trial":6,"RT":1227,"MT":221,"sideResp":2,"stimulus":[],"xmouse":[808,808,808,808,808,808,808,808,808,808,808,808,808,808,808,808,808,808,808,808,808,808,808,808,808,808,808,808,808,808,808,808,808,808,808,808,808,808,808,808,808,808,808,808,808,808,808,808,808,808,808,808,808,808,808,808,808,812,818,829,837,845,862,884,929,958,973,990,1002,1025,1037,1051,1067],"ymouse":[639,639,639,639,639,639,639,639,639,639,639,639,639,639,639,639,639,639,639,638,637,637,636,636,636,636,636,636,636,636,636,636,636,636,636,636,636,636,636,636,636,636,636,636,636,636,636,636,636,636,636,636,636,636,636,635,632,627,620,598,583,560,526,479,371,302,266,229,195,138,107,81,57],"timestamp_mouse":[8,34,47,67,87,106,126,146,167,187,207,226,246,267,286,306,327,347,366,386,406,426,447,467,487,507,526,547,567,586,607,626,646,666,686,706,726,747,767,786,806,826,846,866,887,906,928,946,966,987,1007,1026,1046,1068,1087,1106,1128,1147,1167,1186,1207,1227,1246,1266,1287,1307,1327,1346,1367,1387,1407,1426,1448],"xSR":741.5,"ySR":573.95,"xT1":424.9,"yT1":0,"xT2":1058.1,"yT2":0,"toosoon":0,"cond_shown":"Congruent","ratio_trial":300,"L_num":3,"L_den":6,"R_num":4,"R_den":5,"correct_side":2,"subjID":"GabrielaRojasBohorquez13","gender":"1","school":"6","age":"11"},{"start_time":1551882186915,"click_time":1551882204577,"finger_time":1551882204277,"fix_duration":1116.5172993849048,"trial":7,"RT":17362,"MT":300,"sideResp":1,"stimulus":[],"xmouse":[769,769,769,769,769,769,769,769,769,769,769,769,769,769,769,769,769,769,769,769,769,769,769,769,769,769,769,769,769,769,769,769,769,769,769,769,769,769,769,769,769,769,769,769,769,769,769,769,769,769,769,769,769,769,769,769,769,769,769,769,769,769,769,769,769,769,769,769,769,769,769,769,769,769,769,769,769,769,769,769,769,769,769,769,769,769,769,769,769,769,769,769,769,769,769,769,769,769,769,769,769,769,769,769,769,769,769,769,769,769,769,769,769,769,769,769,769,769,769,769,769,769,769,769,769,769,769,769,769,769,769,769,769,769,769,769,769,769,769,769,769,769,769,769,769,769,769,769,769,769,769,769,769,769,769,769,769,769,769,769,769,769,769,769,769,769,769,769,769,769,769,769,769,769,769,769,769,769,769,769,769,769,769,769,769,769,769,769,769,769,769,769,769,769,769,769,769,769,769,769,769,769,769,769,769,769,769,769,769,769,769,769,769,769,769,769,769,769,769,769,769,769,769,769,769,769,769,769,769,769,769,769,769,769,769,769,769,769,769,769,769,769,769,769,769,769,769,769,769,769,769,769,769,769,769,769,769,769,769,769,769,769,769,769,769,769,769,769,769,769,769,769,769,769,769,769,769,769,769,769,769,769,769,769,769,769,769,769,769,769,769,769,769,769,769,769,769,769,769,769,769,769,769,769,769,769,769,769,769,769,769,769,769,769,769,769,769,769,769,769,769,769,769,769,769,769,769,769,769,769,769,769,769,769,769,769,769,769,769,769,769,769,769,769,769,769,769,769,769,769,769,769,769,769,769,769,769,769,769,769,769,769,769,769,769,769,769,769,769,769,769,769,769,769,769,769,769,769,769,769,769,769,769,769,769,769,769,769,769,769,769,769,769,769,769,769,769,769,769,769,769,769,769,769,769,769,769,769,769,769,769,769,769,769,769,769,769,769,769,769,769,769,769,769,769,769,769,769,769,769,769,769,769,769,769,769,769,769,769,769,769,769,769,769,769,769,769,769,769,769,769,769,769,769,769,769,769,769,769,769,769,769,769,769,769,769,769,769,769,769,769,769,769,769,769,769,769,769,769,769,769,769,769,769,769,769,769,769,769,769,769,769,769,769,769,769,769,769,769,769,769,769,769,769,769,769,769,769,769,769,769,769,769,769,769,769,769,769,769,769,769,769,769,769,769,769,769,769,769,769,769,769,769,769,769,769,769,769,769,769,769,769,769,769,769,769,769,769,769,769,769,769,769,769,769,769,769,769,769,769,769,769,769,769,769,769,769,769,769,769,769,769,769,769,769,769,769,769,769,769,769,769,769,769,769,769,769,769,769,769,769,769,769,769,769,769,769,769,769,769,769,769,769,769,769,769,769,769,769,769,769,769,769,769,769,769,769,769,769,769,769,769,769,769,769,769,769,769,769,769,769,769,769,769,769,769,769,769,769,769,769,769,769,769,769,769,769,769,769,769,769,769,769,769,769,769,769,769,769,769,769,769,769,769,769,769,769,769,769,769,769,769,769,769,769,769,769,769,769,769,769,769,769,769,769,769,769,769,769,769,769,769,769,769,769,769,769,769,769,769,769,769,769,769,769,769,769,769,769,769,769,769,769,769,769,769,769,769,769,769,769,769,769,769,769,769,769,769,769,769,769,769,769,769,769,769,769,769,769,769,769,769,769,769,769,769,769,769,769,769,769,769,769,769,769,769,769,769,769,769,769,769,769,769,769,769,769,769,769,769,769,769,769,769,769,769,769,769,769,769,769,769,769,769,769,769,769,769,769,769,769,769,769,769,769,769,769,769,769,769,769,769,769,769,769,769,769,769,769,769,769,769,769,769,769,769,769,769,769,769,769,769,769,769,769,769,769,769,769,769,769,769,769,769,769,769,769,769,769,769,769,769,769,769,769,769,769,769,769,769,769,769,769,769,769,769,769,769,769,769,769,769,769,769,769,768,759,759,745,726,698,626,601,579,540,520,503,493,483,475,467,467,465,458],"ymouse":[611,611,611,611,611,611,611,611,611,611,611,611,611,611,611,611,611,611,611,611,611,611,611,611,611,611,611,611,611,611,611,611,611,611,611,611,611,611,611,611,611,611,611,611,611,611,611,611,611,611,611,611,611,611,611,611,611,611,611,611,611,611,611,611,611,611,611,611,611,611,611,611,611,611,611,611,611,611,611,611,611,611,611,611,611,611,611,611,611,611,611,611,611,611,611,611,611,611,611,611,611,611,611,611,611,611,611,611,611,611,611,611,611,611,611,611,611,611,611,611,611,611,611,611,611,611,611,611,611,611,611,611,611,611,611,611,611,611,611,611,611,611,611,611,611,611,611,611,611,611,611,611,611,611,611,611,611,611,611,611,611,611,611,611,611,611,611,611,611,611,611,611,611,611,611,611,611,611,611,611,611,611,611,611,611,611,611,611,611,611,611,611,611,611,611,611,611,611,611,611,611,611,611,611,611,611,611,611,611,611,611,611,611,611,611,611,611,611,611,611,611,611,611,611,611,611,611,611,611,611,611,611,611,611,611,611,611,611,611,611,611,611,611,611,611,611,611,611,611,611,611,611,611,611,611,611,611,611,611,611,611,611,611,611,611,611,611,611,611,611,611,611,611,611,611,611,611,611,611,611,611,611,611,611,611,611,611,611,611,611,611,611,611,611,611,611,611,611,611,611,611,611,611,611,611,611,611,611,611,611,611,611,611,611,611,611,611,611,611,611,611,611,611,611,611,611,611,611,611,611,611,611,611,611,611,611,611,611,611,611,611,611,611,611,611,611,611,611,611,611,611,611,611,611,611,611,611,611,611,611,611,611,611,611,611,611,611,611,611,611,611,611,611,611,611,611,611,611,611,611,611,611,611,611,611,611,611,611,611,611,611,611,611,611,611,611,611,611,611,611,611,611,611,611,611,611,611,611,611,611,611,611,611,611,611,611,611,611,611,611,611,611,611,611,611,611,611,611,611,611,611,611,611,611,611,611,611,611,611,611,611,611,611,611,611,611,611,611,611,611,611,611,611,611,611,611,611,611,611,611,611,611,611,611,611,611,611,611,611,611,611,611,611,611,611,611,611,611,611,611,611,611,611,611,611,611,611,611,611,611,611,611,611,611,611,611,611,611,611,611,611,611,611,611,611,611,611,611,611,611,611,611,611,611,611,611,611,611,611,611,611,611,611,611,611,611,611,611,611,611,611,611,611,611,611,611,611,611,611,611,611,611,611,611,611,611,611,611,611,611,611,611,611,611,611,611,611,611,611,611,611,611,611,611,611,611,611,611,611,611,611,611,611,611,611,611,611,611,611,611,611,611,611,611,611,611,611,611,611,611,611,611,611,611,611,611,611,611,611,611,611,611,611,611,611,611,611,611,611,611,611,611,611,611,611,611,611,611,611,611,611,611,611,611,611,611,611,611,611,611,611,611,611,611,611,611,611,611,611,611,611,611,611,611,611,611,611,611,611,611,611,611,611,611,611,611,611,611,611,611,611,611,611,611,611,611,611,611,611,611,611,611,611,611,611,611,611,611,611,611,611,611,611,611,611,611,611,611,611,611,611,611,611,611,611,611,611,611,611,611,611,611,611,611,611,611,611,611,611,611,611,611,611,611,611,611,611,611,611,611,611,611,611,611,611,611,611,611,611,611,611,611,611,611,611,611,611,611,611,611,611,611,611,611,611,611,611,611,611,611,611,611,611,611,611,611,611,611,611,611,611,611,611,611,611,611,611,611,611,611,611,611,611,611,611,611,611,611,611,611,611,611,611,611,611,611,611,611,611,611,611,611,611,611,611,611,611,611,611,611,611,611,611,611,611,611,611,611,611,611,611,611,611,611,611,611,611,611,611,611,611,611,611,611,611,611,611,611,611,611,611,611,611,611,611,611,611,611,611,611,611,611,611,611,611,611,611,611,611,611,611,611,611,611,611,611,611,611,611,610,609,607,607,607,607,607,595,592,567,533,496,415,390,374,345,326,294,273,249,224,196,166,120,86],"timestamp_mouse":[9,22,42,63,82,103,123,142,164,182,202,222,242,262,283,304,323,343,364,383,403,423,442,463,482,503,524,542,563,582,602,622,643,663,684,703,722,742,763,782,803,824,843,862,882,903,923,942,964,982,1002,1022,1042,1062,1083,1103,1123,1142,1163,1182,1203,1222,1242,1263,1284,1303,1323,1343,1363,1383,1402,1422,1442,1464,1482,1504,1523,1542,1562,1583,1602,1622,1643,1662,1683,1702,1723,1743,1762,1783,1802,1822,1842,1863,1883,1903,1923,1943,1962,1984,2002,2024,2042,2062,2083,2103,2123,2142,2162,2183,2202,2222,2242,2262,2282,2303,2322,2342,2363,2383,2402,2422,2442,2463,2482,2502,2523,2543,2562,2582,2602,2623,2642,2662,2682,2704,2722,2742,2762,2782,2803,2823,2842,2863,2882,2902,2922,2943,2962,2982,3003,3023,3042,3063,3082,3102,3122,3142,3162,3182,3203,3222,3244,3263,3283,3303,3322,3343,3362,3382,3404,3422,3442,3462,3482,3502,3523,3543,3563,3582,3602,3622,3642,3662,3682,3704,3722,3742,3762,3782,3802,3824,3842,3862,3882,3902,3923,3942,3962,3982,4003,4022,4042,4062,4083,4102,4124,4142,4162,4183,4203,4222,4242,4262,4282,4304,4323,4343,4362,4382,4403,4422,4443,4463,4483,4502,4524,4542,4563,4582,4604,4622,4643,4662,4682,4703,4722,4742,4764,4782,4803,4823,4843,4862,4883,4903,4922,4942,4962,4983,5002,5023,5042,5064,5082,5103,5123,5144,5162,5182,5202,5223,5243,5262,5283,5302,5323,5342,5362,5382,5404,5422,5444,5462,5484,5503,5524,5543,5562,5583,5602,5623,5642,5662,5682,5702,5723,5743,5763,5782,5804,5822,5842,5863,5883,5903,5923,5943,5964,5982,6002,6023,6042,6064,6084,6103,6123,6143,6163,6183,6203,6224,6244,6263,6282,6304,6323,6342,6363,6383,6403,6422,6442,6463,6482,6504,6522,6542,6563,6582,6603,6622,6642,6662,6684,6702,6723,6742,6762,6782,6802,6822,6842,6862,6882,6903,6923,6944,6963,6982,7003,7023,7043,7063,7082,7102,7123,7144,7163,7182,7203,7224,7243,7264,7282,7303,7323,7342,7364,7382,7402,7423,7442,7464,7482,7502,7522,7544,7564,7582,7603,7622,7642,7663,7683,7703,7724,7743,7762,7784,7802,7823,7843,7862,7883,7902,7923,7942,7963,7982,8003,8023,8042,8063,8083,8103,8123,8143,8162,8183,8202,8224,8242,8264,8283,8302,8324,8342,8364,8383,8402,8423,8443,8463,8483,8503,8522,8543,8562,8583,8603,8624,8642,8663,8682,8704,8723,8743,8762,8783,8802,8823,8842,8862,8882,8904,8923,8942,8963,8983,9003,9024,9042,9062,9082,9103,9123,9142,9162,9183,9202,9222,9243,9263,9282,9303,9323,9344,9363,9382,9404,9422,9442,9463,9483,9503,9524,9542,9563,9583,9603,9624,9642,9662,9684,9702,9722,9743,9763,9783,9804,9823,9843,9862,9883,9903,9923,9943,9962,9984,10002,10023,10043,10064,10083,10103,10122,10144,10163,10183,10203,10223,10243,10262,10282,10303,10323,10343,10362,10382,10402,10423,10444,10463,10482,10504,10522,10542,10562,10583,10602,10623,10643,10662,10682,10702,10722,10742,10762,10784,10802,10823,10842,10862,10882,10902,10922,10942,10962,10982,11002,11024,11042,11062,11083,11104,11123,11142,11164,11183,11202,11222,11243,11263,11283,11302,11322,11342,11363,11383,11403,11424,11442,11462,11483,11503,11523,11542,11563,11582,11604,11622,11642,11662,11683,11704,11724,11743,11762,11782,11804,11824,11842,11862,11882,11902,11922,11942,11962,11982,12002,12022,12043,12062,12083,12102,12122,12143,12162,12183,12203,12222,12242,12262,12282,12302,12324,12343,12364,12383,12404,12422,12442,12463,12482,12502,12522,12542,12562,12583,12604,12622,12642,12663,12683,12702,12722,12742,12762,12784,12803,12822,12842,12862,12882,12902,12923,12943,12963,12983,13002,13022,13042,13063,13082,13103,13122,13142,13163,13183,13202,13222,13243,13263,13282,13303,13324,13343,13364,13383,13403,13422,13444,13462,13482,13503,13523,13543,13563,13583,13604,13622,13643,13662,13683,13703,13722,13744,13762,13783,13803,13822,13843,13864,13882,13902,13923,13943,13963,13982,14003,14022,14043,14062,14083,14102,14124,14143,14162,14182,14202,14222,14242,14263,14282,14302,14323,14342,14364,14382,14402,14422,14442,14463,14482,14503,14522,14542,14563,14583,14602,14624,14642,14662,14682,14704,14722,14743,14762,14783,14803,14822,14842,14864,14883,14903,14922,14942,14964,14984,15002,15023,15043,15063,15084,15102,15123,15144,15163,15183,15204,15222,15243,15262,15282,15302,15323,15343,15362,15383,15402,15422,15443,15462,15484,15503,15522,15542,15562,15583,15604,15623,15643,15663,15682,15702,15722,15742,15762,15783,15803,15823,15842,15862,15882,15903,15922,15944,15963,15982,16002,16023,16042,16063,16083,16104,16122,16142,16163,16183,16202,16222,16242,16262,16284,16303,16322,16342,16362,16383,16403,16422,16442,16464,16482,16503,16522,16543,16562,16582,16602,16624,16642,16663,16682,16703,16723,16743,16762,16783,16803,16823,16843,16863,16883,16902,16923,16943,16962,16982,17003,17022,17042,17062,17083,17102,17122,17142,17162,17183,17202,17223,17242,17263,17282,17303,17322,17342,17362,17382,17403,17422,17442,17462,17483,17503,17522,17542,17562,17583,17603,17623,17642,17662],"xSR":741.5,"ySR":573.95,"xT1":424.9,"yT1":0,"xT2":1058.1,"yT2":0,"toosoon":0,"cond_shown":"Congruent","ratio_trial":100,"L_num":2,"L_den":5,"R_num":6,"R_den":12,"correct_side":2,"subjID":"GabrielaRojasBohorquez13","gender":"1","school":"6","age":"11"},{"start_time":1551882206567,"click_time":1551882208218,"finger_time":1551882207758,"fix_duration":367.927837677828,"trial":8,"RT":1191,"MT":460,"sideResp":1,"stimulus":[],"xmouse":[778,778,778,778,778,778,778,778,778,778,778,778,778,778,778,778,778,778,778,778,778,778,778,778,778,778,778,778,778,778,778,778,778,778,778,778,778,778,778,778,778,778,778,778,778,778,778,778,778,778,778,778,778,778,778,778,778,778,778,779,780,780,780,780,780,779,774,768,758,713,699,656,622,588,499,460,436,417,400,400,408,416,428],"ymouse":[635,635,635,635,635,635,635,635,635,635,635,635,635,635,635,635,635,635,635,635,635,635,635,635,635,635,635,635,635,635,635,635,635,635,635,635,635,635,635,635,635,635,635,635,635,635,635,635,635,635,635,635,635,635,635,630,616,603,588,550,530,508,497,487,482,478,471,462,450,418,412,394,377,360,320,298,282,267,228,201,146,113,87],"timestamp_mouse":[10,34,50,70,90,110,132,150,170,191,211,231,252,272,292,311,332,351,371,390,412,431,451,471,490,510,531,552,571,592,610,630,650,672,691,711,730,750,772,790,810,830,850,871,891,911,931,951,972,990,1010,1030,1052,1071,1090,1111,1131,1152,1170,1191,1210,1230,1251,1272,1290,1310,1330,1350,1371,1390,1410,1431,1450,1471,1492,1510,1530,1552,1571,1590,1610,1630,1651],"xSR":741.5,"ySR":573.95,"xT1":424.9,"yT1":0,"xT2":1058.1,"yT2":0,"toosoon":0,"cond_shown":"Incongruent","ratio_trial":200,"L_num":3,"L_den":10,"R_num":1,"R_den":2,"correct_side":2,"subjID":"GabrielaRojasBohorquez13","gender":"1","school":"6","age":"11"},{"start_time":1551882212811,"click_time":1551882213999,"finger_time":1551882213538,"fix_duration":1432.3616528735026,"trial":9,"RT":727,"MT":461,"sideResp":2,"stimulus":[],"xmouse":[796,796,796,796,796,796,796,796,796,796,796,796,796,796,796,796,796,796,796,796,796,796,796,796,796,796,796,796,796,796,796,796,796,796,796,798,805,812,823,832,849,868,923,934,942,947,950,950,950,951,951,952,959,969,967,990,1029,1102,1139,1147],"ymouse":[622,622,622,622,622,622,622,622,622,622,622,622,622,622,622,622,622,622,622,622,622,622,622,622,622,622,622,622,622,622,622,622,620,619,614,603,556,518,450,396,307,226,79,35,7,0,0,0,0,0,0,3,31,52,53,76,98,111,104,93],"timestamp_mouse":[9,43,48,66,87,106,127,147,166,186,207,227,246,266,286,308,326,346,368,386,406,427,446,466,486,506,526,548,566,586,606,626,646,667,686,706,727,746,767,787,806,826,846,866,886,906,926,947,967,986,1006,1028,1047,1067,1087,1106,1126,1147,1167,1188],"xSR":741.5,"ySR":573.95,"xT1":424.9,"yT1":0,"xT2":1058.1,"yT2":0,"toosoon":0,"cond_shown":"Incongruent","ratio_trial":100,"L_num":13,"L_den":26,"R_num":6,"R_den":10,"correct_side":2,"subjID":"GabrielaRojasBohorquez13","gender":"1","school":"6","age":"11"},{"start_time":1551882215735,"click_time":1551882216817,"finger_time":1551882216458,"fix_duration":576.4163165319646,"trial":10,"RT":723,"MT":359,"sideResp":1,"stimulus":[],"xmouse":[813,813,813,813,813,813,813,813,813,813,813,813,813,813,813,813,813,813,813,813,813,813,813,813,813,813,813,813,813,813,813,813,813,813,813,800,783,756,722,692,666,619,601,585,572,560,543,537,529,522,513,495,481,471,461],"ymouse":[640,640,640,640,640,640,640,640,640,640,640,640,640,640,640,640,640,640,640,640,640,640,640,640,640,640,640,640,640,640,640,640,640,640,640,609,565,520,477,429,389,304,277,258,241,227,208,201,192,184,178,156,133,107,84],"timestamp_mouse":[10,34,42,62,82,103,122,143,163,183,202,222,243,263,284,303,323,343,363,383,402,423,442,463,483,503,522,542,562,583,603,623,643,662,682,703,723,742,763,783,802,822,842,862,882,903,923,942,963,983,1003,1023,1042,1062,1082],"xSR":741.5,"ySR":573.95,"xT1":424.9,"yT1":0,"xT2":1058.1,"yT2":0,"toosoon":0,"cond_shown":"Incongruent","ratio_trial":200,"L_num":7,"L_den":10,"R_num":12,"R_den":24,"correct_side":1,"subjID":"GabrielaRojasBohorquez13","gender":"1","school":"6","age":"11"},{"start_time":1551882218556,"click_time":1551882219198,"finger_time":1551882219038,"fix_duration":777.5990497065613,"trial":11,"RT":482,"MT":160,"sideResp":2,"stimulus":[],"xmouse":[836,836,836,836,836,836,836,836,836,836,836,836,836,836,836,836,836,836,836,836,835,835,835,835,852,872,894,914,938,998,1040,1048,1072],"ymouse":[640,640,640,640,640,640,640,640,640,640,640,640,640,640,640,640,640,640,640,638,633,622,612,598,556,517,473,426,368,241,158,138,83],"timestamp_mouse":[9,34,41,61,83,101,122,142,161,183,201,223,241,263,281,301,321,343,361,381,402,421,442,463,482,501,522,541,561,582,601,622,642],"xSR":741.5,"ySR":573.95,"xT1":424.9,"yT1":0,"xT2":1058.1,"yT2":0,"toosoon":0,"cond_shown":"Incongruent","ratio_trial":200,"L_num":3,"L_den":4,"R_num":11,"R_den":20,"correct_side":1,"subjID":"GabrielaRojasBohorquez13","gender":"1","school":"6","age":"11"},{"start_time":1551882221204,"click_time":1551882221838,"finger_time":1551882221497,"fix_duration":1025.9008326790772,"trial":12,"RT":293,"MT":341,"sideResp":1,"stimulus":[],"xmouse":[790,790,790,790,790,790,789,774,770,767,766,765,763,758,746,726,672,636,621,602,586,553,540,533,527,524,522,519,518,518,518,517],"ymouse":[663,663,659,657,655,652,644,620,609,603,599,598,589,579,553,516,420,356,320,288,259,206,185,171,160,150,141,125,118,113,109,93],"timestamp_mouse":[14,33,54,74,94,114,134,154,173,194,215,233,253,275,293,313,334,353,374,393,413,434,453,473,494,513,533,553,574,593,613,634],"xSR":741.5,"ySR":573.95,"xT1":424.9,"yT1":0,"xT2":1058.1,"yT2":0,"toosoon":0,"cond_shown":"Incongruent","ratio_trial":300,"L_num":4,"L_den":20,"R_num":2,"R_den":4,"correct_side":2,"subjID":"GabrielaRojasBohorquez13","gender":"1","school":"6","age":"11"},{"start_time":1551882225522,"click_time":1551882226539,"finger_time":1551882226018,"fix_duration":401.5895877627613,"trial":13,"RT":496,"MT":521,"sideResp":2,"stimulus":[],"xmouse":[789,789,789,789,789,789,789,789,789,789,789,789,789,789,789,789,789,789,789,789,789,791,794,797,800,801,810,818,832,848,898,920,940,961,971,977,980,987,991,999,1017,1023,1023,1022,1022,1022,1023,1023,1031,1042,1081],"ymouse":[628,628,628,626,626,626,626,626,626,626,626,626,626,626,626,626,626,626,625,624,619,604,593,580,571,562,532,504,473,427,316,275,228,180,159,132,121,108,97,86,63,56,55,55,55,59,59,61,61,64,69],"timestamp_mouse":[16,50,56,76,96,117,136,157,177,196,217,236,257,276,297,316,337,356,376,395,415,436,456,476,496,516,535,556,576,597,616,636,656,677,697,717,736,756,776,796,816,836,856,876,897,917,936,956,976,996,1017],"xSR":741.5,"ySR":573.95,"xT1":424.9,"yT1":0,"xT2":1058.1,"yT2":0,"toosoon":0,"cond_shown":"Incongruent","ratio_trial":200,"L_num":14,"L_den":30,"R_num":6,"R_den":9,"correct_side":2,"subjID":"GabrielaRojasBohorquez13","gender":"1","school":"6","age":"11"},{"start_time":1551882233058,"click_time":1551882238138,"finger_time":1551882237778,"fix_duration":1118.0049450651588,"trial":14,"RT":4720,"MT":360,"sideResp":1,"stimulus":[],"xmouse":[776,776,776,776,776,776,776,776,776,776,776,776,776,776,776,776,776,776,776,776,776,776,776,776,776,776,776,776,776,776,776,776,776,776,776,776,776,776,776,776,776,776,776,776,776,776,776,776,776,776,776,776,776,776,776,776,776,776,776,776,776,776,776,776,776,776,776,776,776,776,776,776,776,776,776,776,776,776,776,776,776,776,776,776,776,776,776,776,776,776,776,776,776,776,776,776,776,776,776,776,776,776,776,776,776,776,776,776,776,776,776,776,776,776,776,776,776,776,776,776,776,776,776,776,776,776,776,776,776,776,776,776,776,776,776,776,776,776,776,776,776,776,776,776,776,776,776,776,776,776,776,776,776,776,776,776,776,776,776,776,776,776,776,776,776,776,776,776,776,776,776,776,776,776,776,776,777,777,777,777,777,777,777,777,777,777,777,777,777,777,777,777,777,777,777,777,777,777,777,777,777,777,777,777,777,777,777,777,777,777,777,777,777,777,777,777,777,777,777,777,777,777,777,777,777,777,777,777,777,777,777,777,774,773,760,752,725,714,683,639,615,600,592,588,586,586,585,585,582,578,561,539,507,476,438],"ymouse":[646,646,646,646,646,646,646,646,646,646,646,646,646,646,646,646,646,646,646,646,646,646,646,646,646,646,646,646,646,646,646,646,646,646,646,646,646,646,646,646,646,646,646,646,646,646,646,646,646,646,646,646,646,646,646,646,646,646,646,646,646,646,646,646,646,646,646,646,646,646,646,646,646,646,646,646,646,646,646,646,646,646,646,646,646,646,646,646,646,646,646,646,646,646,646,646,646,646,646,646,646,646,646,646,646,646,646,646,646,646,646,646,646,646,646,646,646,646,646,646,646,646,646,646,646,646,646,646,646,646,646,646,646,646,646,646,646,646,646,646,646,646,646,646,646,646,646,646,646,646,646,646,646,646,646,646,646,646,646,646,646,646,646,646,646,646,646,646,646,646,646,646,646,646,646,646,646,646,646,646,646,646,646,646,646,646,646,646,646,646,646,646,646,646,646,646,646,646,646,646,644,644,643,643,643,643,643,643,643,643,643,643,643,643,643,643,643,643,643,643,643,643,643,643,643,643,643,643,643,643,643,643,641,640,624,610,569,552,483,349,290,254,233,222,218,218,218,218,219,219,208,188,157,127,81],"timestamp_mouse":[8,20,41,60,80,101,120,140,160,181,199,220,240,261,281,301,320,340,360,380,401,421,441,461,479,501,521,540,559,580,601,620,640,660,680,700,721,740,761,780,800,820,840,861,880,900,920,940,960,980,1001,1020,1041,1060,1081,1100,1120,1140,1160,1180,1201,1220,1240,1260,1280,1300,1321,1341,1360,1380,1400,1421,1439,1460,1480,1500,1520,1541,1560,1581,1600,1620,1640,1660,1681,1700,1720,1741,1761,1781,1800,1821,1841,1860,1880,1900,1920,1941,1960,1981,2001,2021,2041,2059,2080,2100,2120,2141,2160,2180,2201,2221,2240,2260,2280,2300,2320,2341,2360,2380,2400,2420,2441,2461,2480,2500,2521,2540,2560,2580,2600,2621,2640,2660,2680,2700,2721,2740,2761,2780,2801,2820,2840,2861,2880,2900,2921,2940,2960,2980,3000,3021,3041,3060,3080,3101,3121,3141,3161,3180,3200,3220,3241,3261,3279,3300,3320,3341,3360,3380,3400,3420,3440,3460,3480,3501,3520,3541,3560,3580,3601,3621,3641,3660,3681,3701,3721,3740,3761,3781,3801,3821,3840,3861,3880,3901,3921,3941,3960,3981,4001,4020,4041,4060,4080,4101,4120,4140,4161,4181,4200,4221,4241,4260,4281,4301,4321,4341,4360,4381,4400,4421,4440,4461,4480,4500,4520,4541,4561,4581,4601,4621,4640,4661,4680,4700,4720,4740,4760,4780,4800,4820,4840,4861,4881,4900,4920,4940,4961,4980,5000,5020,5040,5061,5080],"xSR":741.5,"ySR":573.95,"xT1":424.9,"yT1":0,"xT2":1058.1,"yT2":0,"toosoon":0,"cond_shown":"Congruent","ratio_trial":100,"L_num":15,"L_den":25,"R_num":13,"R_den":26,"correct_side":1,"subjID":"GabrielaRojasBohorquez13","gender":"1","school":"6","age":"11"},{"start_time":1551882240699,"click_time":1551882242699,"finger_time":1551882242418,"fix_duration":1498.642627274689,"trial":15,"RT":1719,"MT":281,"sideResp":2,"stimulus":[],"xmouse":[821,821,821,821,821,821,821,821,821,821,821,821,821,821,821,821,821,821,821,821,821,821,821,821,821,821,821,821,821,821,821,821,821,821,821,821,821,821,821,821,821,821,821,821,821,821,821,821,821,821,821,821,821,821,821,821,821,821,821,821,821,821,821,821,821,821,821,821,821,821,821,821,821,803,782,757,754,754,754,754,754,754,754,754,754,751,759,813,843,882,908,932,953,974,987,997,1010,1019,1052,1070,1087],"ymouse":[641,641,641,641,641,641,641,641,641,641,641,641,641,641,641,641,641,641,641,641,641,641,641,641,641,641,641,641,641,641,641,641,641,641,641,641,641,641,641,641,641,641,641,641,641,641,641,641,641,641,641,641,641,641,641,641,641,641,641,641,641,641,641,641,641,641,641,641,641,641,641,641,640,628,616,604,602,602,602,602,602,602,602,601,601,592,566,499,464,421,384,352,320,276,248,220,191,170,132,110,93],"timestamp_mouse":[1,19,40,59,79,99,119,139,160,180,199,219,240,259,279,299,319,340,360,379,399,420,439,460,480,499,520,540,559,580,599,619,640,660,680,699,720,740,760,779,799,819,840,859,879,900,920,940,959,979,999,1020,1039,1059,1080,1099,1119,1139,1159,1179,1199,1220,1239,1259,1280,1299,1319,1340,1359,1379,1400,1419,1440,1460,1480,1500,1520,1540,1559,1580,1599,1620,1640,1659,1679,1700,1719,1740,1758,1780,1799,1819,1839,1859,1879,1900,1920,1939,1960,1979,2000],"xSR":741.5,"ySR":573.95,"xT1":424.9,"yT1":0,"xT2":1058.1,"yT2":0,"toosoon":0,"cond_shown":"Congruent","ratio_trial":100,"L_num":6,"L_den":12,"R_num":15,"R_den":25,"correct_side":2,"subjID":"GabrielaRojasBohorquez13","gender":"1","school":"6","age":"11"},{"start_time":1551882277823,"click_time":1551882278659,"finger_time":1551882278479,"fix_duration":363.27626820646395,"trial":16,"RT":656,"MT":180,"sideResp":1,"stimulus":[],"xmouse":[830,830,830,830,830,830,830,827,826,826,826,826,826,826,826,826,826,826,826,826,826,826,826,826,826,826,826,826,826,824,819,810,802,794,781,739,705,659,545,497,458,452],"ymouse":[616,616,616,616,616,612,605,598,596,596,596,596,596,596,596,596,596,596,596,596,596,596,596,596,596,596,596,596,596,596,585,576,567,553,537,483,440,388,278,207,103,75],"timestamp_mouse":[15,38,55,75,95,115,136,156,175,195,215,235,255,275,295,315,335,356,375,395,415,435,455,475,495,515,535,555,575,596,616,635,656,675,695,715,735,755,776,796,816,836],"xSR":741.5,"ySR":573.95,"xT1":424.9,"yT1":0,"xT2":1058.1,"yT2":0,"toosoon":0,"cond_shown":"Incongruent","ratio_trial":200,"L_num":4,"L_den":5,"R_num":6,"R_den":10,"correct_side":1,"subjID":"GabrielaRojasBohorquez13","gender":"1","school":"6","age":"11"},{"start_time":1551882279971,"click_time":1551882281198,"finger_time":1551882280938,"fix_duration":250,"trial":17,"RT":967,"MT":260,"sideResp":2,"stimulus":[],"xmouse":[782,782,782,782,782,782,782,782,782,782,782,782,782,782,782,782,782,782,782,782,782,782,782,782,782,782,782,782,782,782,782,782,782,782,782,782,782,783,783,783,783,783,783,783,783,785,788,798,837,864,897,935,990,1043,1057,1069,1077,1081,1089,1089,1089,1087],"ymouse":[629,629,629,629,629,629,629,629,629,629,629,629,629,629,629,629,629,629,629,629,629,629,629,629,629,629,629,629,629,629,629,629,629,629,629,629,629,629,629,629,629,629,629,629,629,624,620,608,554,512,463,415,352,292,266,237,206,176,126,110,101,96],"timestamp_mouse":[8,40,47,68,87,108,127,147,168,187,208,227,248,268,287,308,327,347,368,387,407,428,447,468,487,507,527,547,567,587,607,627,646,667,687,707,728,747,767,787,808,827,847,867,887,907,927,947,967,988,1007,1027,1047,1067,1087,1107,1127,1147,1167,1187,1207,1227],"xSR":741.5,"ySR":573.95,"xT1":424.9,"yT1":0,"xT2":1058.1,"yT2":0,"toosoon":0,"cond_shown":"Congruent","ratio_trial":200,"L_num":3,"L_den":12,"R_num":9,"R_den":20,"correct_side":2,"subjID":"GabrielaRojasBohorquez13","gender":"1","school":"6","age":"11"},{"start_time":1551882283567,"click_time":1551882285418,"finger_time":1551882284938,"fix_duration":1207.469910718309,"trial":18,"RT":1371,"MT":480,"sideResp":2,"stimulus":[],"xmouse":[813,813,813,813,813,813,813,813,813,813,813,813,813,813,813,813,813,813,813,813,813,813,813,813,813,813,813,813,813,813,813,813,813,813,813,813,813,813,813,813,813,813,813,813,813,813,813,813,813,813,813,813,813,813,813,813,813,813,813,813,813,813,813,813,804,800,800,800,804,808,822,843,871,898,913,927,941,953,970,975,979,988,1001,1024,1028,1031,1031,1032,1033,1037,1046,1053,1060],"ymouse":[667,667,667,667,667,667,667,667,667,667,667,667,667,667,667,667,667,667,667,667,667,667,667,667,667,667,667,667,667,667,667,667,667,667,667,667,667,667,667,667,667,667,667,667,667,667,667,667,667,667,667,667,667,667,667,667,667,667,667,667,667,667,666,661,620,611,601,589,548,528,502,470,421,356,327,301,270,244,205,192,183,167,148,118,113,110,109,109,107,105,99,93,85],"timestamp_mouse":[11,33,52,71,92,111,135,152,172,191,211,232,252,271,291,311,332,352,372,392,413,432,452,471,491,512,533,552,571,592,611,632,653,671,691,711,732,751,773,791,812,831,853,871,891,911,931,952,972,991,1012,1031,1053,1071,1092,1112,1131,1151,1171,1191,1211,1231,1251,1271,1292,1312,1331,1352,1371,1391,1411,1431,1452,1471,1492,1511,1531,1551,1571,1592,1611,1632,1651,1671,1691,1711,1732,1753,1772,1792,1811,1831,1851],"xSR":741.5,"ySR":573.95,"xT1":424.9,"yT1":0,"xT2":1058.1,"yT2":0,"toosoon":0,"cond_shown":"Incongruent","ratio_trial":100,"L_num":11,"L_den":22,"R_num":9,"R_den":15,"correct_side":2,"subjID":"GabrielaRojasBohorquez13","gender":"1","school":"6","age":"11"},{"start_time":1551882288203,"click_time":1551882290938,"finger_time":1551882290558,"fix_duration":383.8702509553217,"trial":19,"RT":2355,"MT":380,"sideResp":2,"stimulus":[],"xmouse":[800,800,800,800,800,800,800,800,800,800,800,800,800,800,800,800,800,800,800,800,800,800,800,800,800,800,800,800,800,800,800,800,800,800,800,800,800,800,800,800,800,800,800,800,800,800,800,800,800,800,800,800,800,800,800,800,800,800,800,800,800,800,800,800,800,800,800,800,800,800,800,800,800,800,800,800,800,800,800,800,800,800,800,800,800,800,800,800,800,800,800,800,800,800,800,800,800,800,800,800,800,800,800,800,800,800,800,800,800,800,800,804,807,807,808,808,812,829,842,859,872,898,905,911,917,929,957,972,980,987,993,1003,1007,1011,1017,1026,1060],"ymouse":[589,589,589,589,589,589,589,589,589,589,589,589,589,589,589,589,589,589,589,589,589,589,589,589,589,589,589,589,589,589,589,589,589,589,589,589,589,589,589,589,589,589,589,589,589,589,589,589,589,589,589,589,589,589,589,589,589,589,589,589,589,589,589,589,589,589,589,589,589,589,589,589,589,589,589,589,589,589,589,589,589,589,589,589,589,589,589,589,589,589,589,589,589,589,589,589,589,589,589,589,589,589,589,589,589,589,589,589,589,589,589,602,608,608,609,609,588,554,518,479,440,339,298,263,230,199,156,139,128,119,110,96,90,85,77,70,54],"timestamp_mouse":[19,40,55,76,95,115,135,155,175,196,215,235,255,275,297,316,336,357,376,396,415,435,455,475,495,515,535,555,576,596,615,635,655,675,695,716,735,755,776,796,815,835,856,876,895,915,935,955,976,996,1015,1036,1056,1075,1096,1116,1136,1156,1176,1197,1215,1236,1255,1275,1295,1315,1336,1356,1375,1395,1415,1435,1455,1476,1495,1516,1535,1555,1577,1595,1616,1636,1655,1675,1697,1715,1735,1755,1776,1796,1815,1836,1855,1875,1896,1915,1935,1955,1977,1996,2016,2036,2056,2077,2097,2116,2136,2155,2175,2197,2216,2235,2255,2275,2295,2316,2335,2355,2376,2395,2416,2435,2455,2476,2495,2515,2535,2555,2575,2595,2615,2635,2656,2675,2695,2715,2735],"xSR":741.5,"ySR":573.95,"xT1":424.9,"yT1":0,"xT2":1058.1,"yT2":0,"toosoon":0,"cond_shown":"Incongruent","ratio_trial":200,"L_num":11,"L_den":20,"R_num":3,"R_den":4,"correct_side":2,"subjID":"GabrielaRojasBohorquez13","gender":"1","school":"6","age":"11"},{"start_time":1551882298091,"click_time":1551882299599,"finger_time":1551882299178,"fix_duration":250,"trial":20,"RT":1087,"MT":421,"sideResp":2,"stimulus":[],"xmouse":[789,789,789,789,789,789,789,789,789,789,789,789,789,789,789,789,789,789,789,789,789,789,789,789,789,789,789,789,789,789,789,789,789,789,789,789,789,789,789,789,789,789,789,789,789,789,789,789,789,789,789,789,798,818,833,846,856,888,895,904,911,914,921,924,930,937,945,982,1001,1012,1019,1026,1040,1049,1058,1071],"ymouse":[651,651,651,651,651,651,651,651,651,651,651,651,651,651,651,651,651,651,651,651,651,651,651,651,651,651,651,651,651,651,651,651,651,651,651,651,651,651,651,651,651,651,651,651,651,651,651,651,651,651,651,651,631,586,542,504,470,391,368,369,354,343,331,325,318,309,298,245,221,202,187,169,135,119,103,86],"timestamp_mouse":[8,28,61,67,87,107,127,147,167,188,208,227,247,268,288,307,327,348,368,387,408,428,447,467,487,507,527,547,567,587,607,627,647,668,687,708,728,747,768,787,807,827,849,869,888,907,928,947,969,989,1007,1029,1047,1068,1087,1107,1127,1147,1167,1187,1207,1229,1247,1267,1287,1307,1328,1347,1367,1388,1408,1428,1447,1467,1487,1507],"xSR":741.5,"ySR":573.95,"xT1":424.9,"yT1":0,"xT2":1058.1,"yT2":0,"toosoon":0,"cond_shown":"Congruent","ratio_trial":200,"L_num":6,"L_den":20,"R_num":11,"R_den":22,"correct_side":2,"subjID":"GabrielaRojasBohorquez13","gender":"1","school":"6","age":"11"},{"start_time":1551882302825,"click_time":1551882322099,"finger_time":1551882321399,"fix_duration":945.8633036433027,"trial":21,"RT":18574,"MT":700,"sideResp":1,"stimulus":[],"xmouse":[805,805,805,805,805,805,805,805,805,805,805,805,805,805,805,805,805,805,805,805,805,805,805,805,805,805,805,805,805,805,805,805,805,805,805,805,805,805,805,805,805,805,805,805,805,805,805,805,805,805,805,805,805,805,805,805,805,805,805,805,805,805,805,805,805,805,805,805,805,805,805,805,805,805,805,805,805,805,805,805,805,805,805,805,805,805,805,805,805,805,805,805,805,805,805,805,805,805,805,805,805,805,805,805,805,805,805,805,805,805,805,805,805,805,805,805,805,805,805,805,805,805,805,805,805,805,805,805,805,805,805,805,805,805,805,805,805,805,805,805,805,805,805,805,805,805,805,805,805,805,805,805,805,805,805,805,805,805,805,805,805,805,805,805,805,805,805,805,805,805,805,805,805,805,805,805,805,805,805,805,805,805,805,805,805,805,805,805,805,805,805,805,805,805,805,805,805,805,805,805,805,805,805,805,805,805,805,805,805,805,805,805,805,805,805,805,805,805,805,805,805,805,805,805,805,805,805,805,805,805,805,805,805,805,805,805,805,805,805,805,805,805,805,805,805,805,805,805,805,805,805,805,805,805,805,805,805,805,805,805,805,805,805,805,805,805,805,805,805,805,805,805,805,805,805,805,805,805,805,805,805,805,805,805,805,805,805,805,805,805,805,805,805,805,805,805,805,805,805,805,805,805,805,805,805,805,805,805,805,805,805,805,805,805,805,805,805,805,805,805,805,805,805,805,805,805,805,805,805,805,805,805,805,805,805,805,805,805,805,805,805,805,805,805,805,805,805,805,805,805,805,805,805,805,805,805,805,805,805,805,805,805,805,805,805,805,805,805,805,805,805,805,805,805,805,805,805,805,805,805,805,805,805,805,805,805,805,805,805,805,805,805,805,805,805,805,805,805,805,805,805,805,805,805,805,805,805,805,805,805,805,805,805,805,805,805,805,805,805,805,805,805,805,805,805,805,805,805,805,805,805,805,805,805,805,805,805,805,805,805,805,805,805,805,805,805,805,805,805,805,805,805,805,805,805,805,805,805,805,805,805,805,805,805,805,805,805,805,805,805,805,805,805,805,805,805,805,805,805,805,805,805,805,805,805,805,805,805,805,805,805,805,805,805,805,805,805,805,805,805,805,805,805,805,805,805,805,805,805,805,805,805,805,805,805,805,805,805,805,805,805,805,805,805,805,805,805,805,805,805,805,805,805,805,805,805,805,805,805,805,805,805,805,805,805,805,805,805,805,805,805,805,805,805,805,805,805,805,805,805,805,805,805,805,805,805,805,805,805,805,805,805,805,805,805,805,805,805,805,805,805,805,805,805,805,805,805,805,805,805,805,805,805,805,805,805,805,805,805,805,805,805,805,805,805,805,805,805,805,805,805,805,805,805,805,805,805,805,805,805,805,805,805,805,805,805,805,805,805,805,805,805,805,805,805,805,805,805,805,805,805,805,805,805,805,805,805,805,805,805,805,805,805,805,805,805,805,805,805,805,805,805,805,805,805,805,805,805,805,805,805,805,805,805,805,805,805,805,805,805,805,805,805,805,805,805,805,805,805,805,805,805,805,805,805,805,805,805,805,805,805,805,805,805,805,805,805,805,805,805,805,805,805,805,805,805,805,805,805,805,805,805,805,805,805,805,805,805,805,805,805,805,805,805,805,805,805,805,805,805,805,805,805,805,805,805,805,805,805,805,805,805,805,805,805,805,805,805,805,805,805,805,805,805,805,805,805,805,805,805,805,805,805,805,805,805,805,805,805,805,805,805,805,805,805,805,805,805,805,805,805,805,805,805,805,805,805,805,805,805,805,805,805,805,805,805,805,805,805,805,805,805,805,805,805,805,805,805,805,805,805,805,805,805,805,805,805,805,805,805,805,805,805,805,805,805,805,805,805,805,805,805,805,805,805,805,805,805,805,805,805,805,805,805,805,805,805,805,805,805,805,805,805,805,805,805,805,805,805,805,805,805,805,805,805,805,805,805,805,805,805,805,805,805,805,805,805,805,805,805,805,805,805,805,805,805,805,805,805,805,805,805,805,805,805,805,805,805,805,805,805,805,803,796,792,792,792,792,792,792,792,792,792,791,784,775,756,746,740,715,676,672,670,670,669,669,669,669,669,669,666,664,663,661,659,620,541,416,292,267,255,252,247,245,245,245,245,245,247,256,329,375,418,443],"ymouse":[646,646,646,646,646,646,646,646,646,646,646,646,646,646,646,646,646,646,646,646,646,646,646,646,646,646,646,646,646,646,646,646,646,646,646,646,646,646,646,646,646,646,646,646,646,646,646,646,646,646,646,645,644,642,642,642,642,642,642,642,642,642,642,642,642,642,642,642,642,642,642,642,642,642,642,642,642,642,642,642,642,642,642,642,642,642,642,642,642,642,642,642,642,642,642,642,642,642,642,642,642,642,642,642,642,642,642,642,642,642,642,642,642,642,642,642,642,642,642,642,642,642,642,642,642,642,642,642,642,642,642,642,642,642,642,642,642,642,642,642,642,642,642,642,642,642,642,642,642,642,642,642,642,642,642,642,642,642,642,642,642,642,642,642,642,642,642,642,642,642,642,642,642,642,642,642,642,642,642,642,642,642,642,642,642,642,642,642,642,642,642,642,642,642,642,642,642,642,642,642,642,642,642,642,642,642,642,642,642,642,642,642,642,642,642,642,642,642,642,642,642,642,642,642,642,642,642,642,642,642,642,642,642,642,642,642,642,642,642,642,642,642,642,642,642,642,642,642,642,642,642,642,642,642,642,642,642,642,642,642,642,642,642,642,642,642,642,642,642,642,642,642,642,642,642,642,642,642,642,642,642,642,642,642,642,642,642,642,642,642,642,642,642,642,642,642,642,642,642,642,642,642,642,642,642,642,642,642,642,642,642,642,642,642,642,642,642,642,642,642,642,642,642,642,642,642,642,642,642,642,642,642,642,642,642,642,642,642,642,642,642,642,642,642,642,642,642,642,642,642,642,642,642,642,642,642,642,642,642,642,642,642,642,642,642,642,642,642,642,642,642,642,642,642,642,642,642,642,642,642,642,642,642,642,642,642,642,642,642,642,642,642,642,642,642,642,642,642,642,642,642,642,642,642,642,642,642,642,642,642,642,642,642,642,642,642,642,642,642,642,642,642,642,642,642,642,642,642,642,642,642,642,642,642,642,642,642,642,642,642,642,642,642,642,642,642,642,642,642,642,642,642,642,642,642,642,642,642,642,642,642,642,642,642,642,642,642,642,642,642,642,642,642,642,642,642,642,642,642,642,642,642,642,642,642,642,642,642,642,642,642,642,642,642,642,642,642,642,642,642,642,642,642,642,642,642,642,642,642,642,642,642,642,642,642,642,642,642,642,642,642,642,642,642,642,642,642,642,642,642,642,642,642,642,642,642,642,642,642,642,642,642,642,642,642,642,642,642,642,642,642,642,642,642,642,642,642,642,642,642,642,642,642,642,642,642,642,642,642,642,642,642,642,642,642,642,642,642,642,642,642,642,642,642,642,642,642,642,642,642,642,642,642,642,642,642,642,642,642,642,642,642,642,642,642,642,642,642,642,642,642,642,642,642,642,642,642,642,642,642,642,642,642,642,642,642,642,642,642,642,642,642,642,642,642,642,642,642,642,642,642,642,642,642,642,642,642,642,642,642,642,642,642,642,642,642,642,642,642,642,642,642,642,642,642,642,642,642,642,642,642,642,642,642,642,642,642,642,642,642,642,642,642,642,642,642,642,642,642,642,642,642,642,642,642,642,642,642,642,642,642,642,642,642,642,642,642,642,642,642,642,642,642,642,642,642,642,642,642,642,642,642,642,642,642,642,642,642,642,642,642,642,642,642,642,642,642,642,642,642,642,642,642,642,642,642,642,642,642,642,642,642,642,642,642,642,642,642,642,642,642,642,642,642,642,642,642,642,642,642,642,642,642,642,642,642,642,642,642,642,642,642,642,642,642,642,642,642,642,642,642,642,642,642,642,642,642,642,642,642,642,642,642,642,642,642,642,642,642,642,642,642,642,642,642,642,642,642,642,642,642,642,642,642,642,642,642,642,642,642,642,642,642,642,642,642,642,642,642,642,642,642,642,642,642,642,642,642,642,642,642,642,642,642,642,642,642,642,642,642,642,642,642,642,642,642,642,642,642,642,642,642,642,642,642,642,642,642,642,642,642,642,642,642,642,642,642,642,642,642,642,642,642,642,642,642,642,642,642,642,642,642,642,642,642,642,642,642,642,642,641,638,629,615,610,609,609,609,609,609,609,609,606,605,600,594,591,586,585,576,571,571,569,568,568,568,568,568,567,564,550,541,529,514,490,377,267,181,109,86,51,42,33,28,25,24,24,24,29,37,86,99,101,98],"timestamp_mouse":[13,37,53,73,93,113,135,155,174,193,213,233,253,275,294,314,334,355,375,393,415,434,453,473,493,513,533,553,574,595,614,634,655,673,694,714,733,753,774,794,814,834,854,873,893,914,934,955,974,993,1013,1034,1053,1074,1093,1113,1133,1154,1174,1193,1214,1233,1254,1273,1295,1313,1333,1354,1373,1395,1413,1433,1453,1474,1493,1513,1533,1553,1574,1593,1615,1633,1653,1674,1695,1713,1733,1753,1773,1794,1814,1834,1853,1873,1894,1913,1934,1954,1974,1994,2013,2033,2054,2073,2094,2113,2134,2154,2174,2195,2213,2234,2254,2273,2294,2314,2334,2353,2374,2393,2414,2434,2454,2473,2495,2513,2534,2554,2574,2594,2613,2634,2654,2674,2694,2715,2733,2754,2775,2793,2813,2834,2855,2873,2894,2914,2933,2954,2973,2995,3013,3034,3053,3073,3094,3113,3133,3153,3173,3194,3213,3235,3254,3274,3294,3314,3333,3354,3374,3394,3413,3434,3454,3473,3494,3515,3534,3553,3574,3593,3613,3634,3654,3673,3693,3714,3734,3753,3773,3793,3814,3833,3853,3874,3893,3913,3933,3954,3974,3993,4014,4034,4054,4073,4094,4113,4134,4154,4173,4195,4214,4233,4254,4274,4294,4314,4333,4355,4373,4393,4414,4433,4453,4473,4493,4513,4533,4553,4574,4593,4613,4633,4653,4674,4694,4713,4733,4754,4773,4794,4813,4834,4854,4873,4894,4914,4933,4953,4973,4993,5013,5033,5053,5075,5093,5113,5133,5153,5173,5194,5213,5234,5254,5274,5293,5314,5333,5353,5374,5393,5413,5434,5454,5473,5501,5514,5533,5553,5574,5593,5613,5634,5653,5673,5695,5713,5733,5755,5773,5794,5814,5833,5853,5873,5894,5914,5933,5953,5973,5993,6013,6033,6053,6075,6094,6114,6133,6153,6173,6193,6215,6233,6255,6274,6293,6313,6333,6353,6373,6394,6414,6433,6454,6474,6493,6514,6534,6553,6574,6594,6613,6633,6655,6674,6694,6713,6733,6753,6774,6793,6814,6833,6854,6873,6894,6914,6933,6953,6974,6993,7014,7034,7053,7074,7093,7113,7133,7153,7173,7193,7213,7233,7255,7273,7294,7313,7333,7353,7374,7393,7413,7433,7453,7474,7494,7514,7534,7553,7573,7594,7613,7634,7653,7673,7693,7713,7733,7754,7773,7793,7813,7833,7854,7873,7894,7915,7933,7954,7974,7993,8013,8033,8054,8074,8093,8113,8134,8154,8173,8195,8214,8233,8253,8275,8294,8315,8334,8354,8375,8395,8414,8433,8453,8475,8494,8514,8533,8554,8575,8593,8614,8633,8653,8673,8693,8713,8733,8754,8773,8794,8814,8833,8853,8875,8894,8913,8933,8954,8974,8993,9014,9033,9054,9074,9095,9114,9133,9155,9174,9194,9214,9235,9255,9274,9293,9313,9334,9354,9373,9393,9413,9433,9453,9473,9493,9514,9533,9553,9574,9593,9614,9634,9653,9673,9693,9713,9733,9753,9773,9794,9814,9833,9855,9874,9894,9913,9934,9953,9974,9994,10014,10033,10053,10075,10094,10114,10134,10153,10174,10193,10213,10233,10254,10275,10294,10314,10333,10353,10374,10393,10414,10434,10454,10474,10493,10513,10534,10554,10573,10593,10613,10633,10655,10673,10694,10714,10733,10755,10774,10793,10815,10834,10855,10874,10894,10914,10933,10955,10974,10994,11013,11034,11053,11074,11094,11114,11134,11155,11174,11193,11213,11233,11253,11274,11294,11314,11333,11353,11373,11393,11413,11433,11454,11474,11494,11513,11534,11554,11574,11594,11613,11633,11653,11673,11693,11713,11733,11755,11773,11793,11813,11833,11854,11873,11894,11914,11934,11954,11974,11994,12014,12033,12053,12073,12094,12114,12134,12153,12173,12194,12215,12233,12254,12274,12293,12313,12333,12354,12373,12393,12414,12433,12454,12474,12494,12514,12533,12553,12574,12594,12614,12634,12654,12674,12694,12713,12734,12753,12774,12795,12813,12834,12854,12874,12894,12914,12933,12955,12973,12993,13015,13033,13054,13074,13093,13113,13134,13155,13174,13193,13214,13233,13253,13273,13294,13313,13333,13354,13373,13395,13414,13433,13454,13473,13494,13513,13534,13553,13574,13594,13614,13633,13654,13674,13693,13713,13733,13755,13773,13793,13813,13835,13855,13873,13893,13914,13934,13955,13974,13994,14013,14033,14053,14073,14094,14113,14134,14153,14174,14193,14213,14233,14254,14273,14294,14313,14333,14354,14374,14393,14414,14433,14453,14474,14494,14514,14534,14553,14574,14593,14614,14634,14653,14674,14693,14714,14734,14753,14774,14794,14814,14834,14853,14874,14893,14914,14933,14954,14974,14993,15013,15033,15054,15074,15093,15113,15134,15154,15173,15194,15213,15234,15254,15273,15293,15314,15334,15353,15373,15394,15413,15434,15453,15474,15493,15514,15534,15553,15573,15594,15613,15633,15654,15674,15695,15713,15734,15753,15774,15794,15813,15833,15855,15874,15893,15915,15934,15954,15973,15994,16013,16034,16053,16074,16094,16113,16133,16153,16173,16193,16214,16234,16254,16273,16293,16313,16333,16354,16374,16394,16414,16434,16454,16473,16493,16513,16535,16553,16573,16594,16613,16634,16654,16675,16694,16714,16734,16753,16773,16793,16813,16833,16854,16873,16894,16913,16933,16955,16974,16993,17013,17034,17055,17074,17094,17114,17133,17154,17173,17194,17215,17233,17253,17273,17295,17314,17334,17354,17374,17394,17414,17434,17454,17474,17493,17514,17533,17554,17573,17594,17614,17634,17654,17673,17694,17713,17734,17755,17773,17794,17814,17834,17855,17873,17894,17914,17934,17954,17974,17994,18013,18034,18054,18073,18094,18114,18133,18155,18173,18193,18213,18233,18253,18273,18293,18314,18333,18355,18373,18393,18413,18433,18453,18473,18493,18513,18534,18553,18574,18593,18614,18633,18653,18674,18694,18715,18735,18754,18774,18793,18813,18833,18853,18874,18893,18913,18933,18953,18974,18993,19013,19033,19054,19073,19093,19113,19133,19154,19174,19193,19213,19233,19254,19274],"xSR":741.5,"ySR":573.95,"xT1":424.9,"yT1":0,"xT2":1058.1,"yT2":0,"toosoon":0,"cond_shown":"Congruent","ratio_trial":100,"L_num":8,"L_den":16,"R_num":2,"R_den":5,"correct_side":1,"subjID":"GabrielaRojasBohorquez13","gender":"1","school":"6","age":"11"},{"start_time":1551882324397,"click_time":1551882361200,"finger_time":1551882324938,"fix_duration":1438.1082535934681,"trial":22,"RT":541,"MT":36262,"sideResp":2,"stimulus":[],"xmouse":[808,808,808,808,808,808,808,808,808,808,808,808,807,800,795,790,789,789,789,789,787,785,773,767,762,755,750,740,737,733,727,726,719,718,714,713,713,713,713,713,713,713,713,713,713,713,713,713,713,713,713,713,713,713,713,713,713,713,713,713,713,714,715,725,733,744,762,778,779,779,780,781,790,801,810,815,818,818,818,818,818,818,818,818,818,818,818,818,818,818,818,818,818,818,818,818,818,818,818,818,818,818,818,818,818,818,818,818,818,818,818,818,818,818,818,818,818,818,818,818,818,818,818,818,818,818,818,818,818,818,818,818,818,818,818,818,818,818,818,818,818,818,818,818,818,818,818,818,818,818,818,818,818,818,818,818,818,818,818,818,818,818,818,818,818,818,818,818,818,818,818,818,818,818,818,818,818,818,818,818,818,818,818,818,818,818,818,818,818,818,818,818,818,818,818,818,818,818,818,818,818,818,818,818,818,818,818,818,818,818,818,818,818,818,818,818,818,818,818,818,818,818,818,818,818,818,818,818,818,818,818,818,818,818,818,818,818,818,818,818,818,818,818,818,818,818,818,818,818,818,818,818,818,818,818,818,818,818,818,818,818,818,818,818,818,818,818,818,818,818,818,818,818,818,818,818,818,818,818,818,818,818,818,818,818,818,818,818,818,818,818,818,818,818,818,818,818,818,818,818,818,818,818,818,818,818,818,818,818,818,818,818,818,818,818,818,818,818,818,818,818,818,818,818,818,818,818,818,818,818,818,818,818,818,818,818,818,818,818,818,818,818,818,818,818,818,818,818,818,818,818,818,818,818,818,818,818,818,818,818,818,818,818,818,818,818,818,818,818,818,818,818,818,818,818,818,818,818,818,818,818,818,818,818,818,818,818,818,818,818,818,818,818,818,818,818,818,818,818,818,818,818,818,818,818,818,818,818,818,818,818,818,818,818,818,818,818,818,818,818,818,818,818,818,818,818,818,818,818,818,818,818,818,818,818,818,818,818,818,818,818,818,818,818,818,818,818,818,818,818,818,818,818,818,818,818,818,818,818,818,818,818,818,818,818,818,818,818,818,818,818,818,818,818,818,818,818,818,818,818,818,818,818,818,818,818,818,818,818,818,818,818,818,818,818,818,818,818,818,818,818,818,818,818,818,818,818,818,818,818,818,818,818,818,818,818,818,818,818,818,818,818,818,818,818,818,818,818,818,818,818,818,818,818,818,818,818,818,818,818,818,818,818,818,818,818,818,818,818,818,818,818,818,818,818,818,818,818,818,818,818,818,818,818,818,818,818,818,818,818,818,818,818,818,818,818,818,818,818,818,818,818,818,818,818,818,818,818,818,818,818,818,818,818,818,818,818,818,818,818,818,818,818,818,818,818,818,818,818,818,818,818,818,818,818,818,818,818,818,818,818,818,818,818,818,818,818,818,818,818,818,818,818,818,818,818,818,818,818,818,818,818,818,818,818,818,818,818,818,818,818,818,818,818,818,818,818,818,818,818,818,818,818,818,818,818,818,818,818,818,818,818,818,818,818,818,818,818,818,818,818,818,818,818,818,818,818,818,818,818,818,818,818,818,818,818,818,818,818,818,818,818,818,818,818,818,818,818,818,818,818,818,818,818,818,818,818,818,818,818,818,818,818,818,818,818,818,818,818,818,818,818,818,818,818,818,818,818,818,818,818,818,818,818,818,818,818,818,818,818,818,818,818,818,818,818,818,818,818,818,818,818,818,818,818,818,818,818,818,818,818,818,818,818,818,818,818,818,818,818,818,818,818,818,818,818,818,818,818,818,818,818,818,818,818,818,818,818,818,818,818,818,818,818,818,818,818,818,818,818,818,818,818,818,818,818,818,818,818,818,818,818,818,818,818,818,818,818,818,818,818,818,818,818,818,818,818,818,818,818,818,818,818,818,818,818,818,818,818,818,818,818,818,818,818,818,818,818,818,818,818,818,818,818,818,818,818,818,818,818,818,818,818,818,818,818,818,818,818,818,818,818,818,818,818,818,818,818,818,818,818,818,818,818,818,818,818,818,818,818,818,818,818,818,818,818,818,818,818,818,818,818,818,818,818,818,818,818,818,818,818,818,818,818,818,818,818,818,818,818,818,818,818,818,818,818,818,818,818,818,818,818,818,818,818,818,818,818,818,818,818,818,818,818,818,818,818,818,818,818,818,818,818,818,818,818,818,818,818,818,818,818,818,818,818,818,818,818,818,818,818,818,818,818,818,818,818,818,818,818,818,818,818,818,818,818,818,818,818,818,818,818,818,818,818,818,818,818,818,818,818,818,818,818,818,818,818,818,818,818,818,818,818,818,818,818,818,818,818,818,818,818,818,818,818,818,818,818,818,818,818,818,818,818,818,818,818,818,818,818,818,818,818,818,818,818,818,818,818,818,818,818,818,818,818,818,818,818,818,818,818,818,818,818,818,818,818,818,818,818,818,818,818,818,818,818,818,818,818,818,818,818,818,818,818,818,818,818,818,818,818,818,818,818,818,818,818,818,818,818,818,818,818,818,818,818,818,818,818,818,818,818,818,818,818,818,818,818,818,818,818,818,818,818,818,818,818,818,818,818,818,818,818,818,818,818,818,818,818,818,818,818,818,818,818,818,818,818,818,818,818,818,818,818,818,818,818,818,818,818,818,818,818,818,818,818,818,818,818,818,818,818,818,818,818,818,818,818,818,818,818,818,818,818,818,818,818,818,818,818,818,818,818,818,818,818,818,818,818,818,818,818,818,818,818,818,818,818,818,818,818,818,818,818,818,818,818,818,818,818,818,818,818,818,818,818,818,818,818,818,818,818,818,818,818,818,818,818,818,818,818,818,818,818,818,818,818,818,818,818,818,818,818,818,818,818,818,818,818,818,818,818,818,818,818,818,818,818,818,818,818,818,818,818,818,818,818,818,818,818,818,818,818,818,818,818,818,818,818,818,818,818,818,818,818,818,818,818,818,818,818,818,818,818,818,818,818,818,818,818,818,818,818,818,818,818,818,818,818,818,818,818,818,818,818,818,818,818,818,818,818,818,818,818,818,818,818,818,818,818,818,818,818,818,818,818,818,818,818,818,818,818,818,818,818,818,818,818,818,818,818,818,818,818,818,818,818,818,818,818,818,818,818,818,818,818,818,818,818,818,818,818,818,818,818,818,818,818,818,818,818,818,818,818,818,818,818,818,818,818,818,818,818,818,818,818,818,818,818,818,818,818,818,818,818,818,818,818,818,818,818,818,818,818,818,818,818,818,818,818,818,818,818,818,818,818,818,818,818,818,818,818,818,818,818,818,818,818,818,818,818,818,818,818,818,818,818,818,818,818,818,818,818,818,818,818,818,818,818,818,818,818,818,818,818,818,818,818,818,818,818,818,818,818,818,818,818,818,818,818,818,818,818,818,818,818,818,818,818,818,818,818,818,818,818,818,818,818,818,818,818,818,818,818,818,818,818,818,818,818,818,818,818,818,818,818,818,818,818,818,818,818,818,818,818,818,818,818,818,818,818,818,818,818,818,818,818,818,818,818,818,818,818,818,818,818,818,818,818,818,818,818,818,818,818,818,818,818,818,818,818,818,818,818,818,818,818,818,818,818,818,818,818,818,818,818,818,818,818,818,818,818,818,818,818,818,818,818,818,818,818,818,818,818,818,818,818,818,818,818,818,818,818,818,818,818,818,818,818,818,818,818,818,818,818,818,818,818,818,818,818,818,818,818,818,818,818,818,818,818,818,818,818,818,818,818,818,818,818,818,818,818,818,818,818,818,818,818,818,818,818,818,818,818,818,818,818,818,818,818,818,818,818,818,818,818,818,818,818,818,818,818,818,818,818,818,818,818,818,818,818,818,818,818,818,818,818,818,818,818,818,818,818,818,818,818,818,818,818,818,818,818,811,811,811,811,811,811,811,811,811,811,811,811,811,811,811,811,811,811,810,809,798,796,793,793,791,781,772,771,771,771,771,770,770,770,770,770,770,770,772,772,773,774,776,777,781,787,789,790,792,793,793,793,793,793,793,793,800,801,802,802,802,802,802,802,802,802,802,802,802,802,802,802,802,802,802,802,802,802,802,802,802,802,802,802,802,802,802,802,802,802,802,802,829,955,1137,1293,1434,1449,1451,1445,1427,1420,1412,1403,1387,1368,1295,1260,1235,1215,1199,1192,1190,1190,1186,1179,1162,1153,1149],"ymouse":[644,644,644,644,644,644,644,644,644,644,644,644,645,648,650,652,653,653,653,653,653,654,661,663,663,663,663,663,663,663,665,666,668,669,671,672,672,672,672,672,672,672,672,672,672,672,672,672,672,672,672,672,672,672,672,672,672,672,672,672,672,672,672,669,667,666,664,662,661,660,659,657,650,646,643,640,639,639,639,639,639,639,639,639,639,639,639,639,639,639,639,639,639,639,639,639,639,639,639,639,639,639,639,639,639,639,639,639,639,639,639,639,639,639,639,639,639,639,639,639,639,639,639,639,639,639,639,639,639,639,639,639,639,639,639,639,639,639,639,639,639,639,639,639,639,639,639,639,639,639,639,639,639,639,639,639,639,639,639,639,639,639,639,639,639,639,639,639,639,639,639,639,639,639,639,639,639,639,639,639,639,639,639,639,639,639,639,639,639,639,639,639,639,639,639,639,639,639,639,639,639,639,639,639,639,639,639,639,639,639,639,639,639,639,639,639,639,639,639,639,639,639,639,639,639,639,639,639,639,639,639,639,639,639,639,639,639,639,639,639,639,639,639,639,639,639,639,639,639,639,639,639,639,639,639,639,639,639,639,639,639,639,639,639,639,639,639,639,639,639,639,639,639,639,639,639,639,639,639,639,639,639,639,639,639,639,639,639,639,639,639,639,639,639,639,639,639,639,639,639,639,639,639,639,639,639,639,639,639,639,639,639,639,639,639,639,639,639,639,639,639,639,639,639,639,639,639,639,639,639,639,639,639,639,639,639,639,639,639,639,639,639,639,639,639,639,639,639,639,639,639,639,639,639,639,639,639,639,639,639,639,639,639,639,639,639,639,639,639,639,639,639,639,639,639,639,639,639,639,639,639,639,639,639,639,639,639,639,639,639,639,639,639,639,639,639,639,639,639,639,639,639,639,639,639,639,639,639,639,639,639,639,639,639,639,639,639,639,639,639,639,639,639,639,639,639,639,639,639,639,639,639,639,639,639,639,639,639,639,639,639,639,639,639,639,639,639,639,639,639,639,639,639,639,639,639,639,639,639,639,639,639,639,639,639,639,639,639,639,639,639,639,639,639,639,639,639,639,639,639,639,639,639,639,639,639,639,639,639,639,639,639,639,639,639,639,639,639,639,639,639,639,639,639,639,639,639,639,639,639,639,639,639,639,639,639,639,639,639,639,639,639,639,639,639,639,639,639,639,639,639,639,639,639,639,639,639,639,639,639,639,639,639,639,639,639,639,639,639,639,639,639,639,639,639,639,639,639,639,639,639,639,639,639,639,639,639,639,639,639,639,639,639,639,639,639,639,639,639,639,639,639,639,639,639,639,639,639,639,639,639,639,639,639,639,639,639,639,639,639,639,639,639,639,639,639,639,639,639,639,639,639,639,639,639,639,639,639,639,639,639,639,639,639,639,639,639,639,639,639,639,639,639,639,639,639,639,639,639,639,639,639,639,639,639,639,639,639,639,639,639,639,639,639,639,639,639,639,639,639,639,639,639,639,639,639,639,639,639,639,639,639,639,639,639,639,639,639,639,639,639,639,639,639,639,639,639,639,639,639,639,639,639,639,639,639,639,639,639,639,639,639,639,639,639,639,639,639,639,639,639,639,639,639,639,639,639,639,639,639,639,639,639,639,639,639,639,639,639,639,639,639,639,639,639,639,639,639,639,639,639,639,639,639,639,639,639,639,639,639,639,639,639,639,639,639,639,639,639,639,639,639,639,639,639,639,639,639,639,639,639,639,639,639,639,639,639,639,639,639,639,639,639,639,639,639,639,639,639,639,639,639,639,639,639,639,639,639,639,639,639,639,639,639,639,639,639,639,639,639,639,639,639,639,639,639,639,639,639,639,639,639,639,639,639,639,639,639,639,639,639,639,639,639,639,639,639,639,639,639,639,639,639,639,639,639,639,639,639,639,639,639,639,639,639,639,639,639,639,639,639,639,639,639,639,639,639,639,639,639,639,639,639,639,639,639,639,639,639,639,639,639,639,639,639,639,639,639,639,639,639,639,639,639,639,639,639,639,639,639,639,639,639,639,639,639,639,639,639,639,639,639,639,639,639,639,639,639,639,639,639,639,639,639,639,639,639,639,639,639,639,639,639,639,639,639,639,639,639,639,639,639,639,639,639,639,639,639,639,639,639,639,639,639,639,639,639,639,639,639,639,639,639,639,639,639,639,639,639,639,639,639,639,639,639,639,639,639,639,639,639,639,639,639,639,639,639,639,639,639,639,639,639,639,639,639,639,639,639,639,639,639,639,639,639,639,639,639,639,639,639,639,639,639,639,639,639,639,639,639,639,639,639,639,639,639,639,639,639,639,639,639,639,639,639,639,639,639,639,639,639,639,639,639,639,639,639,639,639,639,639,639,639,639,639,639,639,639,639,639,639,639,639,639,639,639,639,639,639,639,639,639,639,639,639,639,639,639,639,639,639,639,639,639,639,639,639,639,639,639,639,639,639,639,639,639,639,639,639,639,639,639,639,639,639,639,639,639,639,639,639,639,639,639,639,639,639,639,639,639,639,639,639,639,639,639,639,639,639,639,639,639,639,639,639,639,639,639,639,639,639,639,639,639,639,639,639,639,639,639,639,639,639,639,639,639,639,639,639,639,639,639,639,639,639,639,639,639,639,639,639,639,639,639,639,639,639,639,639,639,639,639,639,639,639,639,639,639,639,639,639,639,639,639,639,639,639,639,639,639,639,639,639,639,639,639,639,639,639,639,639,639,639,639,639,639,639,639,639,639,639,639,639,639,639,639,639,639,639,639,639,639,639,639,639,639,639,639,639,639,639,639,639,639,639,639,639,639,639,639,639,639,639,639,639,639,639,639,639,639,639,639,639,639,639,639,639,639,639,639,639,639,639,639,639,639,639,639,639,639,639,639,639,639,639,639,639,639,639,639,639,639,639,639,639,639,639,639,639,639,639,639,639,639,639,639,639,639,639,639,639,639,639,639,639,639,639,639,639,639,639,639,639,639,639,639,639,639,639,639,639,639,639,639,639,639,639,639,639,639,639,639,639,639,639,639,639,639,639,639,639,639,639,639,639,639,639,639,639,639,639,639,639,639,639,639,639,639,639,639,639,639,639,639,639,639,639,639,639,639,639,639,639,639,639,639,639,639,639,639,639,639,639,639,639,639,639,639,639,639,639,639,639,639,639,639,639,639,639,639,639,639,639,639,639,639,639,639,639,639,639,639,639,639,639,639,639,639,639,639,639,639,639,639,639,639,639,639,639,639,639,639,639,639,639,639,639,639,639,639,639,639,639,639,639,639,639,639,639,639,639,639,639,639,639,639,639,639,639,639,639,639,639,639,639,639,639,639,639,639,639,639,639,639,639,639,639,639,639,639,639,639,639,639,639,639,639,639,639,639,639,639,639,639,639,639,639,639,639,639,639,639,639,639,639,639,639,639,639,639,639,639,639,639,639,639,639,639,639,639,639,639,639,639,639,639,639,639,639,639,639,639,639,639,639,639,639,639,639,639,639,639,639,639,639,639,639,639,639,639,639,639,639,639,639,639,639,639,639,639,639,639,639,639,639,639,639,639,639,639,639,639,639,639,639,639,639,639,639,639,639,639,639,639,639,639,639,639,639,639,639,639,639,639,639,639,639,639,639,639,639,639,639,639,639,639,639,639,639,639,639,639,639,639,639,639,639,639,639,639,639,639,639,639,639,639,639,639,639,639,639,639,639,639,639,639,639,639,639,639,639,639,639,639,639,639,639,639,639,639,639,639,639,639,639,639,639,639,639,639,639,639,639,639,639,639,639,639,639,639,639,639,639,639,639,639,639,639,639,639,639,639,639,639,639,639,639,639,639,639,639,639,639,639,639,639,639,639,639,639,639,639,639,639,639,639,639,639,638,637,635,634,622,622,622,622,622,622,622,622,622,622,622,622,622,622,622,622,622,622,621,621,627,631,633,633,633,622,612,607,602,592,572,571,571,571,571,572,576,579,589,594,596,602,604,607,609,610,610,599,588,578,564,564,564,564,564,568,593,607,610,612,612,612,612,612,612,612,612,612,612,612,612,612,612,612,612,612,612,612,612,612,612,612,612,612,612,612,612,612,612,612,612,612,589,495,349,213,64,20,0,0,0,0,0,2,11,26,76,105,132,152,163,167,167,167,157,141,112,100,94],"timestamp_mouse":[9,22,41,62,81,101,121,142,162,181,201,222,241,262,281,301,321,342,361,381,401,422,441,462,481,501,522,541,561,581,602,621,641,661,681,701,722,743,762,781,801,822,841,862,882,901,922,941,961,981,1001,1021,1041,1061,1081,1101,1123,1141,1162,1181,1202,1222,1241,1261,1281,1301,1322,1341,1362,1382,1401,1421,1442,1462,1481,1501,1521,1541,1562,1581,1601,1621,1642,1661,1681,1701,1721,1741,1762,1782,1801,1822,1841,1862,1881,1901,1923,1941,1962,1981,2003,2022,2041,2061,2081,2102,2123,2142,2163,2182,2201,2221,2242,2262,2281,2301,2321,2342,2362,2382,2402,2421,2441,2461,2481,2501,2522,2542,2561,2582,2601,2622,2641,2661,2682,2701,2722,2742,2762,2782,2802,2821,2841,2862,2882,2902,2921,2942,2961,2981,3002,3022,3041,3062,3082,3101,3122,3143,3162,3182,3201,3221,3242,3261,3283,3302,3321,3343,3361,3382,3401,3421,3441,3462,3481,3502,3521,3541,3562,3582,3601,3621,3641,3662,3681,3703,3722,3743,3761,3782,3802,3822,3843,3861,3881,3902,3922,3941,3962,3982,4003,4023,4041,4061,4081,4102,4121,4141,4162,4182,4201,4222,4242,4261,4282,4302,4322,4341,4362,4381,4403,4421,4442,4461,4481,4502,4522,4543,4562,4581,4602,4622,4642,4661,4682,4701,4721,4741,4761,4781,4802,4821,4841,4862,4881,4901,4921,4942,4961,4981,5003,5022,5041,5062,5082,5103,5121,5141,5161,5181,5201,5221,5241,5261,5281,5301,5321,5341,5361,5382,5401,5422,5441,5461,5481,5501,5521,5542,5561,5581,5601,5621,5642,5661,5682,5701,5721,5742,5762,5781,5802,5821,5842,5862,5881,5901,5921,5941,5961,5982,6001,6021,6042,6062,6082,6102,6122,6141,6162,6182,6201,6221,6242,6261,6281,6302,6321,6341,6361,6382,6402,6422,6441,6462,6483,6501,6522,6542,6561,6581,6601,6621,6641,6662,6681,6701,6722,6741,6762,6783,6802,6822,6842,6861,6881,6902,6922,6942,6962,6981,7002,7022,7042,7062,7081,7102,7122,7141,7161,7182,7201,7221,7242,7261,7283,7302,7321,7341,7361,7381,7401,7422,7442,7461,7482,7502,7523,7543,7561,7583,7602,7622,7642,7662,7681,7702,7722,7742,7762,7782,7801,7821,7841,7861,7881,7902,7921,7942,7962,7981,8002,8022,8042,8061,8082,8102,8126,8141,8161,8181,8201,8222,8241,8261,8281,8301,8321,8341,8362,8381,8403,8421,8442,8462,8482,8501,8521,8541,8561,8581,8602,8623,8642,8662,8681,8701,8721,8742,8761,8782,8801,8822,8843,8862,8882,8902,8921,8942,8961,8983,9002,9021,9043,9061,9082,9102,9122,9141,9161,9182,9201,9221,9241,9261,9282,9301,9323,9342,9362,9382,9401,9422,9442,9461,9481,9502,9521,9541,9562,9583,9601,9621,9642,9662,9682,9702,9721,9741,9761,9782,9802,9822,9842,9862,9881,9901,9922,9943,9962,9983,10001,10023,10041,10062,10081,10101,10121,10141,10162,10182,10203,10223,10241,10261,10283,10301,10322,10343,10361,10381,10402,10423,10442,10461,10481,10502,10521,10541,10562,10581,10601,10622,10641,10662,10681,10701,10722,10743,10762,10781,10802,10821,10842,10861,10881,10901,10923,10941,10961,10981,11001,11022,11043,11061,11082,11102,11123,11141,11162,11182,11203,11222,11242,11261,11282,11301,11322,11343,11362,11382,11402,11423,11442,11462,11482,11501,11522,11541,11562,11581,11601,11622,11643,11661,11682,11702,11722,11742,11762,11781,11802,11822,11842,11861,11881,11901,11921,11941,11961,11983,12001,12022,12042,12061,12082,12102,12122,12142,12162,12182,12202,12222,12242,12261,12281,12301,12321,12341,12362,12382,12401,12421,12441,12461,12481,12502,12521,12541,12561,12583,12601,12621,12641,12662,12682,12703,12721,12742,12761,12782,12802,12821,12842,12861,12881,12902,12921,12941,12961,12981,13003,13022,13041,13062,13081,13102,13122,13143,13161,13182,13203,13222,13241,13262,13281,13302,13322,13343,13361,13382,13401,13421,13442,13461,13482,13502,13522,13542,13561,13581,13602,13621,13641,13661,13683,13703,13722,13741,13761,13781,13801,13821,13841,13862,13882,13901,13921,13942,13961,13982,14003,14022,14041,14061,14081,14101,14121,14141,14162,14182,14202,14222,14241,14262,14282,14302,14323,14342,14362,14381,14401,14421,14443,14462,14482,14501,14521,14542,14561,14581,14601,14621,14642,14661,14681,14701,14723,14741,14762,14783,14802,14822,14841,14862,14883,14902,14922,14941,14962,14981,15002,15022,15041,15061,15083,15101,15122,15142,15161,15182,15201,15222,15241,15262,15281,15302,15321,15341,15362,15382,15402,15422,15441,15462,15482,15501,15522,15541,15562,15582,15601,15621,15641,15661,15683,15701,15721,15741,15761,15781,15801,15821,15841,15861,15882,15902,15921,15941,15961,15981,16001,16021,16042,16061,16082,16101,16121,16141,16161,16181,16201,16221,16241,16261,16281,16301,16322,16342,16361,16381,16401,16421,16442,16461,16481,16501,16522,16542,16561,16581,16601,16621,16641,16662,16681,16701,16721,16741,16762,16782,16801,16822,16841,16861,16882,16902,16921,16941,16962,16981,17001,17021,17041,17061,17081,17102,17121,17141,17161,17182,17202,17221,17241,17262,17281,17303,17321,17341,17362,17382,17403,17423,17441,17462,17481,17501,17522,17541,17561,17582,17601,17622,17641,17661,17682,17702,17721,17741,17761,17781,17803,17822,17841,17862,17881,17902,17923,17941,17961,17981,18001,18021,18041,18061,18081,18102,18122,18142,18161,18182,18201,18222,18241,18262,18282,18303,18322,18343,18361,18381,18401,18422,18442,18462,18482,18501,18523,18542,18562,18581,18601,18621,18642,18662,18681,18701,18721,18741,18761,18781,18802,18822,18841,18861,18881,18901,18921,18941,18961,18981,19002,19021,19041,19061,19082,19101,19121,19141,19162,19181,19202,19222,19242,19262,19282,19302,19322,19342,19361,19382,19402,19421,19443,19461,19482,19502,19522,19541,19562,19583,19602,19622,19642,19661,19682,19702,19722,19741,19762,19783,19803,19822,19842,19863,19882,19902,19922,19942,19963,19982,20002,20022,20043,20062,20082,20102,20122,20143,20162,20181,20202,20223,20242,20262,20282,20303,20322,20342,20362,20383,20401,20422,20443,20462,20482,20503,20523,20542,20562,20582,20602,20623,20641,20663,20683,20702,20722,20742,20763,20782,20802,20823,20843,20862,20882,20902,20923,20942,20962,20982,21003,21023,21042,21062,21082,21103,21122,21142,21162,21183,21203,21223,21242,21262,21283,21303,21322,21342,21363,21382,21402,21423,21442,21463,21481,21503,21521,21542,21562,21582,21601,21622,21643,21661,21683,21703,21723,21743,21762,21782,21801,21823,21843,21863,21883,21903,21923,21943,21961,21981,22003,22022,22042,22062,22082,22103,22123,22143,22162,22183,22203,22222,22242,22262,22283,22302,22322,22343,22362,22383,22401,22423,22442,22462,22482,22501,22522,22543,22562,22583,22602,22621,22643,22662,22682,22701,22722,22742,22762,22781,22802,22822,22842,22862,22882,22901,22923,22943,22962,22982,23002,23021,23042,23062,23081,23102,23122,23143,23162,23182,23203,23222,23243,23263,23282,23302,23322,23341,23362,23383,23402,23422,23442,23463,23483,23503,23522,23542,23563,23582,23603,23622,23642,23662,23682,23702,23721,23742,23761,23782,23802,23822,23842,23862,23882,23902,23923,23942,23962,23982,24002,24022,24043,24062,24082,24102,24122,24141,24162,24183,24202,24223,24243,24262,24281,24303,24322,24343,24362,24382,24403,24423,24442,24462,24482,24501,24523,24543,24562,24582,24602,24623,24642,24662,24682,24701,24722,24742,24762,24782,24802,24822,24842,24862,24881,24902,24922,24942,24962,24982,25002,25022,25042,25062,25083,25103,25122,25142,25162,25182,25203,25222,25242,25262,25282,25302,25322,25342,25362,25382,25402,25421,25442,25462,25483,25503,25521,25542,25562,25583,25603,25621,25642,25662,25682,25703,25723,25741,25763,25783,25803,25822,25842,25862,25883,25903,25922,25943,25962,25982,26002,26023,26042,26062,26082,26102,26123,26143,26162,26183,26202,26223,26243,26262,26282,26302,26323,26343,26363,26383,26403,26422,26443,26463,26482,26502,26522,26543,26563,26583,26603,26621,26642,26662,26683,26703,26723,26743,26763,26783,26803,26823,26842,26863,26883,26902,26921,26943,26963,26983,27003,27023,27043,27063,27083,27103,27123,27143,27163,27182,27202,27222,27242,27262,27283,27302,27322,27343,27362,27383,27403,27422,27443,27462,27482,27503,27522,27543,27562,27583,27603,27622,27643,27663,27683,27701,27723,27742,27763,27782,27801,27823,27842,27863,27883,27902,27922,27943,27963,27981,28003,28023,28043,28062,28082,28102,28123,28143,28163,28182,28203,28222,28242,28262,28283,28302,28323,28343,28363,28382,28402,28423,28443,28463,28481,28503,28522,28543,28562,28582,28603,28623,28643,28661,28681,28703,28723,28743,28762,28781,28802,28822,28842,28862,28882,28902,28922,28942,28962,28981,29003,29023,29042,29062,29081,29103,29123,29142,29162,29183,29203,29223,29243,29263,29281,29303,29323,29343,29362,29383,29403,29422,29442,29463,29482,29501,29522,29542,29563,29583,29603,29622,29642,29662,29682,29703,29723,29743,29762,29782,29802,29821,29843,29862,29883,29902,29922,29942,29962,29983,30003,30021,30043,30062,30083,30103,30121,30142,30162,30183,30202,30223,30243,30262,30283,30303,30322,30343,30362,30383,30402,30422,30442,30462,30482,30502,30522,30542,30563,30581,30602,30623,30642,30663,30681,30703,30722,30742,30762,30782,30803,30822,30842,30863,30883,30903,30923,30943,30962,30982,31002,31023,31043,31062,31082,31103,31122,31143,31162,31183,31202,31222,31242,31263,31282,31303,31323,31341,31362,31383,31403,31422,31442,31462,31482,31503,31522,31542,31563,31583,31602,31623,31643,31662,31683,31703,31