[{"start_time":1551883231820,"click_time":1551883233966,"finger_time":1551883233685,"fix_duration":250,"trial":0,"RT":1865,"MT":281,"sideResp":2,"stimulus":"img/500/equaldotsize/R/1_Ratio_500_L_9_R_18.png","xmouse":[783,783,783,783,783,783,783,783,783,783,783,783,783,783,783,783,783,783,783,783,783,783,783,783,783,783,783,783,783,783,783,783,783,783,783,783,783,783,783,783,783,783,783,783,783,783,783,783,783,783,783,783,783,783,783,783,783,783,783,783,783,783,783,783,783,783,783,783,783,783,783,783,783,783,783,783,783,783,783,783,783,783,783,783,783,783,783,784,779,789,810,840,911,962,1025,1067,1102,1128,1130,1130,1130,1128,1128,1128,1128,1124,1108],"ymouse":[521,521,521,521,521,521,521,521,521,521,521,521,521,521,521,521,521,521,521,521,521,521,521,521,521,521,521,521,521,521,521,521,521,521,521,521,521,521,521,521,521,521,521,521,521,521,521,521,521,521,521,521,521,521,521,521,521,521,521,521,521,521,521,521,521,521,521,521,521,521,521,521,521,521,521,521,521,521,521,521,521,521,521,521,521,521,521,523,530,514,484,452,383,347,297,266,242,217,212,208,203,198,188,176,157,132,58],"timestamp_mouse":[10,45,65,85,105,125,145,165,184,205,225,245,266,285,305,325,344,365,386,404,425,445,466,485,506,524,545,566,584,606,625,646,664,686,704,725,744,765,785,805,826,846,865,886,906,925,945,966,985,1006,1026,1045,1066,1086,1104,1125,1145,1165,1186,1206,1225,1245,1265,1286,1304,1325,1346,1366,1385,1406,1425,1446,1465,1485,1505,1525,1545,1566,1584,1605,1625,1644,1666,1686,1705,1725,1745,1765,1784,1805,1826,1845,1865,1885,1905,1925,1945,1965,1985,2006,2025,2045,2064,2084,2104,2125,2146],"xSR":741.5,"ySR":481,"xT1":424.9,"yT1":0,"xT2":1058.1,"yT2":0,"toosoon":0,"cond_shown":"equaldotsize","ratio_trial":500,"smaller_num":"9","larger_num":"18","correct_side":2,"subjID":"garielarojasbohorquez13","gender":"1","age":"11","school":"6","test":{"fix_dur":[250,1500],"timestim":300,"targets_dim":[100,100],"targets_relative_coord":[0.3,0.7],"size_stim":[880,420],"start_dim":[100,100],"size_start":[300,300],"size_fix":60,"samplingrate":20,"img_types":["equaldotsize","equaldotanddens","randomdotsizeEA"],"ratios":[250,500,750,900],"rep_conds":9,"nTrials":120,"trials_to_rest":500,"Trials_order":[39,81,21,116,78,99,96,52,91,82,32,59,100,15,94,62,65,33,9,90,75,70,57,54,56,84,22,11,34,86,7,5,95,55,0,51,38,80,87,47,106,18,118,46,109,67,66,68,117,77,111,19,85,69,26,48,53,93,114,89,58,42,24,16,1,30,112,92,10,8,2,44,14,101,102,17,28,108,63,115,98,103,20,105,43,71,6,4,79,12,40,64,97,35,31,50,23,104,88,72,3,29,49,36,119,107,113,83,27,110,73,37,45,74,13,76,61,25,41,60],"cond_shown":["equaldotsize","equaldotsize","equaldotsize","randomdotsizeEA","equaldotsize","equaldotsize","equaldotsize","equaldotanddens","equaldotanddens","equaldotanddens","randomdotsizeEA","randomdotsizeEA","equaldotanddens","equaldotsize","equaldotanddens","randomdotsizeEA","randomdotsizeEA","equaldotsize","equaldotsize","equaldotsize","equaldotsize","equaldotanddens","equaldotsize","equaldotsize","randomdotsizeEA","equaldotsize","equaldotanddens","randomdotsizeEA","equaldotanddens","randomdotsizeEA","equaldotanddens","randomdotsizeEA","randomdotsizeEA","equaldotanddens","equaldotsize","equaldotsize","randomdotsizeEA","randomdotsizeEA","equaldotsize","randomdotsizeEA","equaldotanddens","equaldotsize","equaldotanddens","equaldotanddens","equaldotanddens","equaldotanddens","equaldotsize","randomdotsizeEA","equaldotsize","randomdotsizeEA","equaldotsize","equaldotanddens","equaldotanddens","equaldotsize","randomdotsizeEA","equaldotsize","randomdotsizeEA","equaldotsize","equaldotsize","randomdotsizeEA","equaldotanddens","equaldotsize","equaldotsize","equaldotanddens","equaldotanddens","equaldotsize","equaldotanddens","randomdotsizeEA","equaldotanddens","randomdotsizeEA","randomdotsizeEA","randomdotsizeEA","randomdotsizeEA","randomdotsizeEA","equaldotsize","randomdotsizeEA","equaldotanddens","equaldotsize","equaldotsize","equaldotanddens","randomdotsizeEA","equaldotanddens","randomdotsizeEA","equaldotsize","equaldotanddens","randomdotsizeEA","equaldotsize","equaldotanddens","equaldotanddens","equaldotsize","equaldotanddens","equaldotanddens","equaldotanddens","randomdotsizeEA","equaldotanddens","randomdotsizeEA","randomdotsizeEA","randomdotsizeEA","equaldotanddens","equaldotsize","equaldotsize","randomdotsizeEA","equaldotanddens","equaldotsize","randomdotsizeEA","randomdotsizeEA","randomdotsizeEA","randomdotsizeEA","equaldotsize","randomdotsizeEA","equaldotanddens","equaldotanddens","equaldotsize","randomdotsizeEA","equaldotanddens","equaldotanddens","equaldotanddens","equaldotanddens","randomdotsizeEA","equaldotsize"],"ratio_trial":[500,900,900,750,750,500,250,500,750,900,750,900,500,500,900,250,500,900,900,750,500,900,900,750,750,250,900,900,900,250,750,500,900,750,250,500,250,750,500,900,900,750,900,900,250,750,750,750,900,500,500,750,250,900,250,250,500,900,750,500,900,750,250,500,250,750,500,750,900,750,250,750,250,500,750,500,500,250,500,750,250,750,750,900,750,900,750,500,750,250,500,500,250,900,750,250,900,750,500,250,500,500,250,250,900,900,500,900,500,250,250,250,900,250,250,500,250,250,500,250],"smaller_num":["9","18","18","18","3","6","3","6","15","18","9","9","1","9","9","6","9","9","18","18","1","18","18","15","18","5","18","9","18","3","3","2","9","12","3","4","1","6","5","9","9","3","9","9","2","6","15","3","9","9","2","3","2","18","2","6","5","9","6","2","18","15","4","9","3","15","3","12","18","3","2","3","6","1","15","10","5","2","2","3","3","15","12","18","3","18","3","5","3","2","2","9","6","9","3","2","9","18","10","2","5","10","6","2","9","18","5","18","1","6","1","4","18","5","6","10","3","4","1","3"],"larger_num":["18","20","20","24","4","12","12","12","20","20","12","10","2","18","10","24","18","10","20","24","2","20","20","20","24","20","20","10","20","12","4","4","10","16","12","8","4","8","10","10","10","4","10","10","8","8","20","4","10","18","4","4","8","20","8","24","10","10","8","4","20","20","16","18","12","20","6","16","20","4","8","4","24","2","20","20","10","8","4","4","12","20","16","20","4","20","4","10","4","8","4","18","24","10","4","8","10","24","20","8","10","20","24","8","10","20","10","20","2","24","4","16","20","20","24","20","12","16","2","12"],"correct_side":[2,2,2,1,2,1,2,1,2,2,2,2,2,1,1,2,1,1,2,1,2,1,1,2,1,2,1,1,1,1,2,1,2,2,2,1,2,2,1,2,2,1,2,2,1,2,1,1,1,2,2,2,1,1,2,2,1,2,1,2,1,2,1,2,2,1,2,2,2,1,1,1,1,2,2,2,2,1,2,1,2,2,2,1,2,1,2,1,1,1,1,2,2,2,2,1,1,1,2,1,1,2,2,1,1,1,2,1,2,2,2,1,1,2,1,2,2,1,2,2],"img_shown":["img/500/equaldotsize/R/1_Ratio_500_L_9_R_18.png","img/900/equaldotsize/R/14_Ratio_900_L_18_R_20.png","img/900/equaldotsize/R/9_Ratio_900_L_18_R_20.png","img/750/randomdotsizeEA/L/6_Ratio_750_L_24_R_18.png","img/750/equaldotsize/R/12_Ratio_750_L_3_R_4.png","img/500/equaldotsize/L/13_Ratio_500_L_12_R_6.png","img/250/equaldotsize/R/4_Ratio_250_L_3_R_12.png","img/500/equaldotanddens/L/11_Ratio_500_L_12_R_6.png","img/750/equaldotanddens/R/4_Ratio_750_L_15_R_20.png","img/900/equaldotanddens/R/9_Ratio_900_L_18_R_20.png","img/750/randomdotsizeEA/R/15_Ratio_750_L_9_R_12.png","img/900/randomdotsizeEA/R/15_Ratio_900_L_9_R_10.png","img/500/equaldotanddens/R/15_Ratio_500_L_1_R_2.png","img/500/equaldotsize/L/4_Ratio_500_L_18_R_9.png","img/900/equaldotanddens/L/1_Ratio_900_L_10_R_9.png","img/250/randomdotsizeEA/R/6_Ratio_250_L_6_R_24.png","img/500/randomdotsizeEA/L/4_Ratio_500_L_18_R_9.png","img/900/equaldotsize/L/1_Ratio_900_L_10_R_9.png","img/900/equaldotsize/R/13_Ratio_900_L_18_R_20.png","img/750/equaldotsize/L/6_Ratio_750_L_24_R_18.png","img/500/equaldotsize/R/12_Ratio_500_L_1_R_2.png","img/900/equaldotanddens/L/10_Ratio_900_L_20_R_18.png","img/900/equaldotsize/L/8_Ratio_900_L_20_R_18.png","img/750/equaldotsize/R/5_Ratio_750_L_15_R_20.png","img/750/randomdotsizeEA/L/6_Ratio_750_L_24_R_18.png","img/250/equaldotsize/R/12_Ratio_250_L_5_R_20.png","img/900/equaldotanddens/L/10_Ratio_900_L_20_R_18.png","img/900/randomdotsizeEA/L/1_Ratio_900_L_10_R_9.png","img/900/equaldotanddens/L/10_Ratio_900_L_20_R_18.png","img/250/randomdotsizeEA/L/15_Ratio_250_L_12_R_3.png","img/750/equaldotanddens/R/12_Ratio_750_L_3_R_4.png","img/500/randomdotsizeEA/L/10_Ratio_500_L_4_R_2.png","img/900/randomdotsizeEA/R/7_Ratio_900_L_9_R_10.png","img/750/equaldotanddens/R/11_Ratio_750_L_12_R_16.png","img/250/equaldotsize/R/4_Ratio_250_L_3_R_12.png","img/500/equaldotsize/L/8_Ratio_500_L_8_R_4.png","img/250/randomdotsizeEA/R/8_Ratio_250_L_1_R_4.png","img/750/randomdotsizeEA/R/2_Ratio_750_L_6_R_8.png","img/500/equaldotsize/L/7_Ratio_500_L_10_R_5.png","img/900/randomdotsizeEA/R/5_Ratio_900_L_9_R_10.png","img/900/equaldotanddens/R/6_Ratio_900_L_9_R_10.png","img/750/equaldotsize/L/10_Ratio_750_L_4_R_3.png","img/900/equaldotanddens/R/6_Ratio_900_L_9_R_10.png","img/900/equaldotanddens/R/3_Ratio_900_L_9_R_10.png","img/250/equaldotanddens/L/3_Ratio_250_L_8_R_2.png","img/750/equaldotanddens/R/2_Ratio_750_L_6_R_8.png","img/750/equaldotsize/L/1_Ratio_750_L_20_R_15.png","img/750/randomdotsizeEA/L/10_Ratio_750_L_4_R_3.png","img/900/equaldotsize/L/1_Ratio_900_L_10_R_9.png","img/500/randomdotsizeEA/R/1_Ratio_500_L_9_R_18.png","img/500/equaldotsize/R/9_Ratio_500_L_2_R_4.png","img/750/equaldotanddens/R/12_Ratio_750_L_3_R_4.png","img/250/equaldotanddens/L/1_Ratio_250_L_8_R_2.png","img/900/equaldotsize/L/4_Ratio_900_L_20_R_18.png","img/250/randomdotsizeEA/R/13_Ratio_250_L_2_R_8.png","img/250/equaldotsize/R/6_Ratio_250_L_6_R_24.png","img/500/randomdotsizeEA/L/7_Ratio_500_L_10_R_5.png","img/900/equaldotsize/R/5_Ratio_900_L_9_R_10.png","img/750/equaldotsize/L/14_Ratio_750_L_8_R_6.png","img/500/randomdotsizeEA/R/9_Ratio_500_L_2_R_4.png","img/900/equaldotanddens/L/8_Ratio_900_L_20_R_18.png","img/750/equaldotsize/R/3_Ratio_750_L_15_R_20.png","img/250/equaldotsize/L/2_Ratio_250_L_16_R_4.png","img/500/equaldotanddens/R/1_Ratio_500_L_9_R_18.png","img/250/equaldotanddens/R/11_Ratio_250_L_3_R_12.png","img/750/equaldotsize/L/1_Ratio_750_L_20_R_15.png","img/500/equaldotanddens/R/2_Ratio_500_L_3_R_6.png","img/750/randomdotsizeEA/R/11_Ratio_750_L_12_R_16.png","img/900/equaldotanddens/R/12_Ratio_900_L_18_R_20.png","img/750/randomdotsizeEA/L/9_Ratio_750_L_4_R_3.png","img/250/randomdotsizeEA/L/3_Ratio_250_L_8_R_2.png","img/750/randomdotsizeEA/L/8_Ratio_750_L_4_R_3.png","img/250/randomdotsizeEA/L/5_Ratio_250_L_24_R_6.png","img/500/randomdotsizeEA/R/12_Ratio_500_L_1_R_2.png","img/750/equaldotsize/R/5_Ratio_750_L_15_R_20.png","img/500/randomdotsizeEA/R/3_Ratio_500_L_10_R_20.png","img/500/equaldotanddens/R/14_Ratio_500_L_5_R_10.png","img/250/equaldotsize/L/1_Ratio_250_L_8_R_2.png","img/500/equaldotsize/R/9_Ratio_500_L_2_R_4.png","img/750/equaldotanddens/L/9_Ratio_750_L_4_R_3.png","img/250/randomdotsizeEA/R/9_Ratio_250_L_3_R_12.png","img/750/equaldotanddens/R/5_Ratio_750_L_15_R_20.png","img/750/randomdotsizeEA/R/11_Ratio_750_L_12_R_16.png","img/900/equaldotsize/L/10_Ratio_900_L_20_R_18.png","img/750/equaldotanddens/R/7_Ratio_750_L_3_R_4.png","img/900/randomdotsizeEA/L/8_Ratio_900_L_20_R_18.png","img/750/equaldotsize/R/7_Ratio_750_L_3_R_4.png","img/500/equaldotanddens/L/7_Ratio_500_L_10_R_5.png","img/750/equaldotanddens/L/9_Ratio_750_L_4_R_3.png","img/250/equaldotsize/L/7_Ratio_250_L_8_R_2.png","img/500/equaldotanddens/L/5_Ratio_500_L_4_R_2.png","img/500/equaldotanddens/R/1_Ratio_500_L_9_R_18.png","img/250/equaldotanddens/R/6_Ratio_250_L_6_R_24.png","img/900/randomdotsizeEA/R/5_Ratio_900_L_9_R_10.png","img/750/equaldotanddens/R/7_Ratio_750_L_3_R_4.png","img/250/randomdotsizeEA/L/7_Ratio_250_L_8_R_2.png","img/900/randomdotsizeEA/L/1_Ratio_900_L_10_R_9.png","img/750/randomdotsizeEA/L/6_Ratio_750_L_24_R_18.png","img/500/equaldotanddens/R/3_Ratio_500_L_10_R_20.png","img/250/equaldotsize/L/7_Ratio_250_L_8_R_2.png","img/500/equaldotsize/L/7_Ratio_500_L_10_R_5.png","img/500/randomdotsizeEA/R/3_Ratio_500_L_10_R_20.png","img/250/equaldotanddens/R/6_Ratio_250_L_6_R_24.png","img/250/equaldotsize/L/1_Ratio_250_L_8_R_2.png","img/900/randomdotsizeEA/L/1_Ratio_900_L_10_R_9.png","img/900/randomdotsizeEA/L/8_Ratio_900_L_20_R_18.png","img/500/randomdotsizeEA/R/14_Ratio_500_L_5_R_10.png","img/900/randomdotsizeEA/L/2_Ratio_900_L_20_R_18.png","img/500/equaldotsize/R/15_Ratio_500_L_1_R_2.png","img/250/randomdotsizeEA/R/6_Ratio_250_L_6_R_24.png","img/250/equaldotanddens/R/8_Ratio_250_L_1_R_4.png","img/250/equaldotanddens/L/2_Ratio_250_L_16_R_4.png","img/900/equaldotsize/L/8_Ratio_900_L_20_R_18.png","img/250/randomdotsizeEA/R/12_Ratio_250_L_5_R_20.png","img/250/equaldotanddens/L/5_Ratio_250_L_24_R_6.png","img/500/equaldotanddens/R/3_Ratio_500_L_10_R_20.png","img/250/equaldotanddens/R/4_Ratio_250_L_3_R_12.png","img/250/equaldotanddens/L/2_Ratio_250_L_16_R_4.png","img/500/randomdotsizeEA/R/15_Ratio_500_L_1_R_2.png","img/250/equaldotsize/R/9_Ratio_250_L_3_R_12.png"],"Rat0":[["12_Ratio_0_L_9_R_0.png","13_Ratio_0_L_6_R_0.png","5_Ratio_0_L_2_R_0.png","6_Ratio_0_L_4_R_0.png","8_Ratio_0_L_6_R_0.png"],["1_Ratio_0_L_0_R_17.png","10_Ratio_0_L_0_R_22.png","11_Ratio_0_L_0_R_1.png","14_Ratio_0_L_0_R_24.png","15_Ratio_0_L_0_R_4.png","2_Ratio_0_L_0_R_5.png","3_Ratio_0_L_0_R_17.png","4_Ratio_0_L_0_R_7.png","7_Ratio_0_L_0_R_19.png","9_Ratio_0_L_0_R_15.png"]],"Rat250":[["1_Ratio_250_L_8_R_2.png","14_Ratio_250_L_12_R_3.png","15_Ratio_250_L_12_R_3.png","2_Ratio_250_L_16_R_4.png","3_Ratio_250_L_8_R_2.png","5_Ratio_250_L_24_R_6.png","7_Ratio_250_L_8_R_2.png"],["10_Ratio_250_L_4_R_16.png","11_Ratio_250_L_3_R_12.png","12_Ratio_250_L_5_R_20.png","13_Ratio_250_L_2_R_8.png","4_Ratio_250_L_3_R_12.png","6_Ratio_250_L_6_R_24.png","8_Ratio_250_L_1_R_4.png","9_Ratio_250_L_3_R_12.png"]],"Rat500":[["10_Ratio_500_L_4_R_2.png","11_Ratio_500_L_12_R_6.png","13_Ratio_500_L_12_R_6.png","4_Ratio_500_L_18_R_9.png","5_Ratio_500_L_4_R_2.png","7_Ratio_500_L_10_R_5.png","8_Ratio_500_L_8_R_4.png"],["1_Ratio_500_L_9_R_18.png","12_Ratio_500_L_1_R_2.png","14_Ratio_500_L_5_R_10.png","15_Ratio_500_L_1_R_2.png","2_Ratio_500_L_3_R_6.png","3_Ratio_500_L_10_R_20.png","6_Ratio_500_L_9_R_18.png","9_Ratio_500_L_2_R_4.png"]],"Rat750":[["1_Ratio_750_L_20_R_15.png","10_Ratio_750_L_4_R_3.png","13_Ratio_750_L_8_R_6.png","14_Ratio_750_L_8_R_6.png","6_Ratio_750_L_24_R_18.png","8_Ratio_750_L_4_R_3.png","9_Ratio_750_L_4_R_3.png"],["11_Ratio_750_L_12_R_16.png","12_Ratio_750_L_3_R_4.png","15_Ratio_750_L_9_R_12.png","2_Ratio_750_L_6_R_8.png","3_Ratio_750_L_15_R_20.png","4_Ratio_750_L_15_R_20.png","5_Ratio_750_L_15_R_20.png","7_Ratio_750_L_3_R_4.png"]],"Rat900":[["1_Ratio_900_L_10_R_9.png","10_Ratio_900_L_20_R_18.png","2_Ratio_900_L_20_R_18.png","4_Ratio_900_L_20_R_18.png","8_Ratio_900_L_20_R_18.png"],["11_Ratio_900_L_18_R_20.png","12_Ratio_900_L_18_R_20.png","13_Ratio_900_L_18_R_20.png","14_Ratio_900_L_18_R_20.png","15_Ratio_900_L_9_R_10.png","3_Ratio_900_L_9_R_10.png","5_Ratio_900_L_9_R_10.png","6_Ratio_900_L_9_R_10.png","7_Ratio_900_L_9_R_10.png","9_Ratio_900_L_18_R_20.png"]],"Rat1000":[["10_Ratio_1000_L_16_R_16.png","11_Ratio_1000_L_6_R_6.png","12_Ratio_1000_L_14_R_14.png","13_Ratio_1000_L_20_R_20.png","15_Ratio_1000_L_15_R_15.png","2_Ratio_1000_L_17_R_17.png","4_Ratio_1000_L_9_R_9.png","5_Ratio_1000_L_6_R_6.png","6_Ratio_1000_L_19_R_19.png","8_Ratio_1000_L_14_R_14.png","9_Ratio_1000_L_25_R_25.png"],["1_Ratio_1000_L_1_R_1.png","14_Ratio_1000_L_17_R_17.png","3_Ratio_1000_L_17_R_17.png","7_Ratio_1000_L_6_R_6.png"]]}},{"start_time":1551883235961,"click_time":1551883236985,"finger_time":1551883236564,"fix_duration":1054.8674344419414,"trial":1,"RT":603,"MT":421,"sideResp":2,"stimulus":"img/900/equaldotsize/R/14_Ratio_900_L_18_R_20.png","xmouse":[753,753,753,753,753,753,753,753,753,753,753,753,753,753,753,753,753,753,753,753,753,753,753,753,753,753,754,765,780,809,841,946,991,1032,1057,1080,1085,1089,1095,1102,1123,1135,1145,1148,1150,1150,1150,1150,1148,1146,1141,1130],"ymouse":[491,491,491,491,491,491,491,491,491,491,491,491,491,491,491,491,491,491,491,491,491,491,491,491,491,491,490,485,478,460,438,364,333,295,265,228,217,210,203,194,164,152,141,132,127,119,116,115,111,107,102,81],"timestamp_mouse":[10,23,45,65,85,103,124,144,163,185,204,224,243,265,284,303,325,344,364,384,403,424,444,464,485,503,524,545,564,584,603,624,644,664,684,705,724,744,765,783,805,823,845,864,884,904,924,944,965,984,1004,1024],"xSR":741.5,"ySR":449.15000000000003,"xT1":424.9,"yT1":0,"xT2":1058.1,"yT2":0,"toosoon":0,"cond_shown":"equaldotsize","ratio_trial":900,"smaller_num":"18","larger_num":"20","correct_side":2,"subjID":"garielarojasbohorquez13","gender":"1","age":"11","school":"6"},{"start_time":1551883238182,"click_time":1551883239425,"finger_time":1551883239004,"fix_duration":376.63488831994687,"trial":2,"RT":822,"MT":421,"sideResp":2,"stimulus":"img/900/equaldotsize/R/9_Ratio_900_L_18_R_20.png","xmouse":[804,804,804,804,804,804,804,804,804,804,804,804,804,804,804,804,804,804,804,805,805,805,805,805,805,805,805,805,805,805,805,805,805,805,805,805,805,806,806,807,817,826,835,844,858,907,941,967,1005,1065,1077,1082,1084,1081,1077,1077,1077,1079,1075,1076,1077,1078,1079],"ymouse":[476,476,476,476,476,476,476,476,476,476,476,476,476,476,476,476,476,476,476,476,476,476,476,476,476,476,476,476,476,476,476,476,476,476,476,476,476,476,474,472,457,449,443,435,425,389,372,353,327,280,261,241,222,199,158,139,125,114,110,104,102,100,97],"timestamp_mouse":[8,24,49,63,84,103,123,143,164,182,203,223,243,264,282,302,323,342,362,384,403,424,444,463,484,503,522,543,562,583,603,624,643,663,683,703,723,743,762,783,802,822,843,863,884,903,924,943,963,984,1003,1023,1044,1063,1084,1103,1123,1143,1162,1184,1203,1223,1242],"xSR":741.5,"ySR":449.15000000000003,"xT1":424.9,"yT1":0,"xT2":1058.1,"yT2":0,"toosoon":0,"cond_shown":"equaldotsize","ratio_trial":900,"smaller_num":"18","larger_num":"20","correct_side":2,"subjID":"garielarojasbohorquez13","gender":"1","age":"11","school":"6"},{"start_time":1551883240898,"click_time":1551883241666,"finger_time":1551883241385,"fix_duration":590.9535106800565,"trial":3,"RT":487,"MT":281,"sideResp":2,"stimulus":"img/750/randomdotsizeEA/L/6_Ratio_750_L_24_R_18.png","xmouse":[767,767,767,767,768,770,771,772,772,772,772,772,772,773,774,776,776,777,779,780,781,782,784,788,812,829,850,869,891,951,986,1021,1045,1082,1096,1103,1109,1114,1125],"ymouse":[466,466,466,466,466,466,465,465,465,465,465,465,465,465,463,463,462,462,461,461,460,459,459,457,447,435,421,408,390,334,301,266,234,176,141,123,112,103,90],"timestamp_mouse":[9,27,47,66,88,107,126,148,167,187,207,227,247,267,287,307,327,348,368,387,407,427,447,466,487,507,527,547,567,587,607,627,648,667,687,706,726,747,768],"xSR":741.5,"ySR":449.15000000000003,"xT1":424.9,"yT1":0,"xT2":1058.1,"yT2":0,"toosoon":0,"cond_shown":"randomdotsizeEA","ratio_trial":750,"smaller_num":"18","larger_num":"24","correct_side":1,"subjID":"garielarojasbohorquez13","gender":"1","age":"11","school":"6"},{"start_time":1551883242808,"click_time":1551883243666,"finger_time":1551883243165,"fix_duration":260.9596308916821,"trial":4,"RT":357,"MT":501,"sideResp":1,"stimulus":"img/750/equaldotsize/R/12_Ratio_750_L_3_R_4.png","xmouse":[785,785,785,785,785,785,785,785,785,785,785,785,785,785,785,785,785,767,746,719,693,669,633,613,601,597,593,579,570,562,557,555,554,554,554,554,553,548,543,539,532,527,524],"ymouse":[494,494,494,494,494,494,494,494,494,494,494,494,494,494,492,489,473,420,383,346,311,274,201,164,130,105,86,60,50,41,35,32,32,32,32,32,32,33,35,37,39,41,43],"timestamp_mouse":[17,37,57,78,97,118,137,158,177,197,216,237,256,277,297,317,338,357,377,397,417,437,458,476,497,517,538,558,577,597,616,638,658,677,697,718,737,758,776,797,817,837,858],"xSR":741.5,"ySR":449.15000000000003,"xT1":424.9,"yT1":0,"xT2":1058.1,"yT2":0,"toosoon":0,"cond_shown":"equaldotsize","ratio_trial":750,"smaller_num":"3","larger_num":"4","correct_side":2,"subjID":"garielarojasbohorquez13","gender":"1","age":"11","school":"6"},{"start_time":1551883245708,"click_time":1551883246845,"finger_time":1551883246265,"fix_duration":1222.1148485009521,"trial":5,"RT":557,"MT":580,"sideResp":1,"stimulus":"img/500/equaldotsize/L/13_Ratio_500_L_12_R_6.png","xmouse":[813,813,813,813,813,813,813,813,813,813,813,813,813,813,813,813,813,813,813,812,801,800,798,796,795,794,794,794,797,800,801,802,808,812,813,813,800,772,692,652,625,609,604,603,601,597,589,584,584,584,584,584,579,562,543,527,516],"ymouse":[466,466,466,466,466,466,466,466,466,466,466,466,466,466,466,466,466,466,466,466,472,471,468,466,464,462,455,447,443,439,437,435,422,410,398,381,355,323,248,219,196,183,174,160,153,144,135,128,128,128,128,128,122,109,94,83,78],"timestamp_mouse":[17,43,58,77,98,116,137,157,177,197,218,236,257,277,298,317,337,356,378,398,418,437,458,477,496,518,537,557,577,597,616,637,658,677,697,716,737,756,776,797,817,837,857,878,896,917,937,957,977,997,1018,1037,1057,1077,1096,1117,1136],"xSR":741.5,"ySR":449.15000000000003,"xT1":424.9,"yT1":0,"xT2":1058.1,"yT2":0,"toosoon":0,"cond_shown":"equaldotsize","ratio_trial":500,"smaller_num":"6","larger_num":"12","correct_side":1,"subjID":"garielarojasbohorquez13","gender":"1","age":"11","school":"6"},{"start_time":1551883247856,"click_time":1551883249185,"finger_time":1551883248405,"fix_duration":250,"trial":6,"RT":549,"MT":780,"sideResp":2,"stimulus":"img/250/equaldotsize/R/4_Ratio_250_L_3_R_12.png","xmouse":[774,774,774,774,774,774,774,774,774,774,774,774,774,774,774,774,774,769,764,760,757,757,757,756,754,758,805,834,866,901,959,985,1004,1019,1030,1038,1039,1041,1044,1047,1054,1057,1061,1064,1068,1077,1079,1080,1083,1087,1088,1089,1089,1089,1089,1089,1085,1081,1075,1068,1062,1056,1056,1056,1056,1076,1092],"ymouse":[541,541,541,541,541,541,541,541,541,541,541,541,541,541,541,541,528,515,505,494,487,486,485,485,485,485,458,441,415,387,322,287,261,239,223,203,190,182,175,166,152,144,137,132,126,116,113,112,108,103,101,101,101,101,101,101,102,106,110,119,128,133,133,133,133,109,96],"timestamp_mouse":[9,33,49,68,90,109,129,149,170,190,209,230,250,270,289,309,330,348,369,390,409,429,448,469,489,510,529,549,570,589,610,629,650,670,689,710,729,749,769,788,810,829,849,868,889,910,928,949,968,988,1008,1030,1050,1070,1090,1108,1128,1149,1169,1189,1209,1229,1249,1269,1289,1309,1329],"xSR":741.5,"ySR":449.15000000000003,"xT1":424.9,"yT1":0,"xT2":1058.1,"yT2":0,"toosoon":0,"cond_shown":"equaldotsize","ratio_trial":250,"smaller_num":"3","larger_num":"12","correct_side":2,"subjID":"garielarojasbohorquez13","gender":"1","age":"11","school":"6"},{"start_time":1551883259241,"click_time":1551883260225,"finger_time":1551883259766,"fix_duration":1194.6982529850309,"trial":7,"RT":525,"MT":459,"sideResp":2,"stimulus":"img/500/equaldotanddens/L/11_Ratio_500_L_12_R_6.png","xmouse":[784,784,784,784,784,784,784,784,784,784,784,784,784,784,784,784,784,784,784,784,784,784,784,784,789,796,836,850,871,891,909,943,959,969,980,997,1026,1020,1027,1040,1050,1062,1065,1066,1066,1066,1066,1079,1090,1100],"ymouse":[474,474,474,474,474,474,474,474,474,474,474,474,474,474,474,474,474,474,474,474,474,474,474,474,474,469,444,432,416,396,375,329,307,291,274,260,238,233,220,189,163,134,127,127,127,127,126,113,103,97],"timestamp_mouse":[9,26,44,65,85,106,126,146,165,186,206,224,246,266,284,305,326,344,365,384,405,425,444,466,485,505,525,545,565,586,605,625,644,664,685,706,726,744,765,785,805,825,844,865,884,904,925,946,965,984],"xSR":741.5,"ySR":449.15000000000003,"xT1":424.9,"yT1":0,"xT2":1058.1,"yT2":0,"toosoon":0,"cond_shown":"equaldotanddens","ratio_trial":500,"smaller_num":"6","larger_num":"12","correct_side":1,"subjID":"garielarojasbohorquez13","gender":"1","age":"11","school":"6"},{"start_time":1551883263751,"click_time":1551883265226,"finger_time":1551883264686,"fix_duration":1484.4575516211994,"trial":8,"RT":935,"MT":540,"sideResp":1,"stimulus":"img/750/equaldotanddens/R/4_Ratio_750_L_15_R_20.png","xmouse":[754,754,754,754,754,754,754,754,754,754,754,754,754,754,754,754,754,754,754,754,754,754,754,754,754,754,754,754,754,754,754,754,754,754,754,754,754,754,754,754,754,754,754,754,754,754,740,732,723,711,686,653,622,587,548,484,451,427,413,405,393,389,383,379,373,376,386,399,412,420,422,422,423,430],"ymouse":[487,487,487,487,487,487,487,487,487,487,487,487,487,487,487,487,487,487,487,487,487,487,487,487,487,487,487,487,487,487,487,487,487,487,487,487,487,487,487,487,487,487,487,486,485,481,456,447,438,428,410,390,378,369,363,342,327,316,305,294,268,243,215,188,162,115,101,87,79,73,71,71,71,71],"timestamp_mouse":[14,39,55,76,95,115,135,154,174,195,215,235,255,274,296,315,335,355,375,395,415,434,456,475,494,515,534,554,576,596,614,634,654,675,696,715,735,756,776,796,815,835,856,875,894,916,935,954,975,995,1015,1035,1055,1076,1095,1115,1134,1156,1175,1195,1216,1235,1255,1275,1295,1316,1335,1355,1375,1395,1414,1435,1454,1475],"xSR":741.5,"ySR":449.15000000000003,"xT1":424.9,"yT1":0,"xT2":1058.1,"yT2":0,"toosoon":0,"cond_shown":"equaldotanddens","ratio_trial":750,"smaller_num":"15","larger_num":"20","correct_side":2,"subjID":"garielarojasbohorquez13","gender":"1","age":"11","school":"6"},{"start_time":1551883266902,"click_time":1551883267706,"finger_time":1551883267366,"fix_duration":795.2656194222819,"trial":9,"RT":464,"MT":340,"sideResp":2,"stimulus":"img/900/equaldotanddens/R/9_Ratio_900_L_18_R_20.png","xmouse":[770,770,770,770,770,770,770,770,770,770,770,770,770,770,770,770,770,770,772,774,776,780,791,837,859,880,907,931,969,988,1001,1011,1019,1029,1032,1037,1044,1053,1067,1073,1076],"ymouse":[502,502,502,502,502,502,502,502,502,502,502,502,502,502,502,502,502,502,500,493,491,485,476,442,417,388,351,314,240,216,197,183,174,162,158,152,148,140,116,105,96],"timestamp_mouse":[4,23,45,65,85,103,125,143,163,184,205,224,245,265,284,304,323,343,363,384,405,424,443,464,484,504,525,543,565,583,603,624,645,664,685,704,723,744,765,783,804],"xSR":741.5,"ySR":449.15000000000003,"xT1":424.9,"yT1":0,"xT2":1058.1,"yT2":0,"toosoon":0,"cond_shown":"equaldotanddens","ratio_trial":900,"smaller_num":"18","larger_num":"20","correct_side":2,"subjID":"garielarojasbohorquez13","gender":"1","age":"11","school":"6"},{"start_time":1551883269040,"click_time":1551883269565,"finger_time":1551883269426,"fix_duration":711.726668003478,"trial":10,"RT":386,"MT":139,"sideResp":2,"stimulus":"img/750/randomdotsizeEA/R/15_Ratio_750_L_9_R_12.png","xmouse":[754,754,754,754,754,754,754,754,754,754,754,754,754,754,754,755,763,768,775,788,809,833,905,957,999,1036,1070],"ymouse":[510,510,510,510,510,510,510,510,510,510,510,510,510,510,510,506,486,474,464,445,419,386,298,226,173,130,87],"timestamp_mouse":[8,43,46,66,86,106,126,146,167,185,206,226,247,265,286,305,326,346,366,386,405,425,446,466,486,506,525],"xSR":741.5,"ySR":449.15000000000003,"xT1":424.9,"yT1":0,"xT2":1058.1,"yT2":0,"toosoon":0,"cond_shown":"randomdotsizeEA","ratio_trial":750,"smaller_num":"9","larger_num":"12","correct_side":2,"subjID":"garielarojasbohorquez13","gender":"1","age":"11","school":"6"},{"start_time":1551883271271,"click_time":1551883271867,"finger_time":1551883271646,"fix_duration":784.1236855225898,"trial":11,"RT":375,"MT":221,"sideResp":1,"stimulus":"img/900/randomdotsizeEA/R/15_Ratio_900_L_9_R_10.png","xmouse":[779,779,779,779,779,779,779,779,779,779,779,779,779,779,779,779,779,778,768,738,715,694,678,668,639,619,595,573,548,512],"ymouse":[462,462,462,462,462,462,462,462,462,462,462,462,462,462,462,462,462,457,436,363,331,304,283,266,198,153,116,92,67,39],"timestamp_mouse":[15,35,55,75,95,116,134,155,174,195,215,235,255,276,295,315,335,354,375,396,415,435,456,475,495,514,535,555,575,596],"xSR":741.5,"ySR":449.15000000000003,"xT1":424.9,"yT1":0,"xT2":1058.1,"yT2":0,"toosoon":0,"cond_shown":"randomdotsizeEA","ratio_trial":900,"smaller_num":"9","larger_num":"10","correct_side":2,"subjID":"garielarojasbohorquez13","gender":"1","age":"11","school":"6"},{"start_time":1551883274102,"click_time":1551883275106,"finger_time":1551883274946,"fix_duration":1414.1378500442192,"trial":12,"RT":844,"MT":160,"sideResp":2,"stimulus":"img/500/equaldotanddens/R/15_Ratio_500_L_1_R_2.png","xmouse":[795,795,795,795,795,795,795,795,795,795,795,795,795,795,795,795,795,795,795,795,795,795,795,795,795,795,795,795,795,795,795,795,795,795,795,795,795,795,795,796,805,825,855,931,960,975,995,1012,1043,1057,1068],"ymouse":[489,489,489,489,489,489,489,489,489,489,489,489,489,489,489,489,489,489,489,489,489,489,489,489,489,489,489,489,489,489,489,489,489,489,489,489,489,489,489,489,478,458,431,325,272,228,189,157,119,104,90],"timestamp_mouse":[11,24,44,64,83,104,125,144,164,185,204,223,244,264,284,304,324,344,364,384,403,425,443,465,484,503,523,544,564,584,604,624,644,664,685,704,724,743,764,783,805,824,844,865,883,903,924,943,965,984,1004],"xSR":741.5,"ySR":449.15000000000003,"xT1":424.9,"yT1":0,"xT2":1058.1,"yT2":0,"toosoon":0,"cond_shown":"equaldotanddens","ratio_trial":500,"smaller_num":"1","larger_num":"2","correct_side":2,"subjID":"garielarojasbohorquez13","gender":"1","age":"11","school":"6"},{"start_time":1551883276734,"click_time":1551883277387,"finger_time":1551883277186,"fix_duration":866.0895652278598,"trial":13,"RT":452,"MT":201,"sideResp":1,"stimulus":"img/500/equaldotsize/L/4_Ratio_500_L_18_R_9.png","xmouse":[781,781,781,781,781,781,781,781,781,781,781,781,781,781,781,781,781,781,783,784,784,785,785,785,785,784,779,775,767,750,719,675,507],"ymouse":[481,481,481,481,481,481,481,481,481,481,481,481,481,481,481,481,477,471,466,464,459,454,448,442,438,434,430,427,414,380,337,280,97],"timestamp_mouse":[12,34,52,72,91,113,132,152,172,192,213,233,251,272,292,312,333,352,372,393,413,432,452,472,491,512,533,551,572,593,612,631,653],"xSR":741.5,"ySR":449.15000000000003,"xT1":424.9,"yT1":0,"xT2":1058.1,"yT2":0,"toosoon":0,"cond_shown":"equaldotsize","ratio_trial":500,"smaller_num":"9","larger_num":"18","correct_side":1,"subjID":"garielarojasbohorquez13","gender":"1","age":"11","school":"6"},{"start_time":1551883278457,"click_time":1551883279586,"finger_time":1551883278826,"fix_duration":250,"trial":14,"RT":369,"MT":760,"sideResp":2,"stimulus":"img/900/equaldotanddens/L/1_Ratio_900_L_10_R_9.png","xmouse":[760,760,760,760,760,760,760,760,760,760,760,760,760,760,760,760,762,776,794,815,854,864,875,879,884,899,905,916,923,940,982,1002,1020,1036,1050,1057,1057,1057,1057,1057,1057,1057,1057,1057,1057,1057,1058,1058,1058,1058,1058,1058,1058,1058,1058,1058,1059],"ymouse":[486,486,486,486,486,486,486,486,486,486,486,486,486,486,486,486,479,458,434,407,356,339,325,315,304,277,262,243,220,194,135,110,91,78,67,63,62,62,62,62,62,62,62,62,62,62,63,66,67,67,67,67,67,67,67,67,67],"timestamp_mouse":[10,35,50,68,89,109,129,149,169,189,209,229,249,268,289,309,329,348,369,389,409,428,448,468,489,510,529,549,568,590,610,629,649,669,688,708,728,749,768,788,808,828,848,868,890,910,930,948,968,989,1009,1030,1048,1069,1089,1110,1129],"xSR":741.5,"ySR":449.15000000000003,"xT1":424.9,"yT1":0,"xT2":1058.1,"yT2":0,"toosoon":0,"cond_shown":"equaldotanddens","ratio_trial":900,"smaller_num":"9","larger_num":"10","correct_side":1,"subjID":"garielarojasbohorquez13","gender":"1","age":"11","school":"6"},{"start_time":1551883282139,"click_time":1551883282967,"finger_time":1551883282667,"fix_duration":250,"trial":15,"RT":528,"MT":300,"sideResp":1,"stimulus":"img/250/randomdotsizeEA/R/6_Ratio_250_L_6_R_24.png","xmouse":[761,764,766,766,766,766,766,766,766,766,766,766,766,766,766,766,766,766,766,766,766,766,766,761,757,750,719,693,659,622,592,570,541,535,531,528,521,515,511,504,496,480],"ymouse":[533,529,526,526,526,526,526,526,526,526,526,526,526,526,526,526,526,526,526,526,525,524,517,510,499,483,430,393,348,304,272,250,213,205,198,191,180,172,163,150,141,94],"timestamp_mouse":[6,27,47,67,86,107,128,146,166,188,207,228,246,266,288,306,328,347,367,387,406,427,446,467,488,506,528,547,567,587,607,626,647,667,687,707,727,746,768,787,807,827],"xSR":741.5,"ySR":449.15000000000003,"xT1":424.9,"yT1":0,"xT2":1058.1,"yT2":0,"toosoon":0,"cond_shown":"randomdotsizeEA","ratio_trial":250,"smaller_num":"6","larger_num":"24","correct_side":2,"subjID":"garielarojasbohorquez13","gender":"1","age":"11","school":"6"},{"start_time":1551883287311,"click_time":1551883288226,"finger_time":1551883288026,"fix_duration":1344.409768660551,"trial":16,"RT":715,"MT":200,"sideResp":2,"stimulus":"img/500/randomdotsizeEA/L/4_Ratio_500_L_18_R_9.png","xmouse":[804,804,804,804,804,804,804,804,804,804,804,804,804,804,804,804,804,804,804,804,804,804,804,804,804,804,804,804,804,804,804,804,804,807,832,864,903,979,999,1020,1035,1047,1053,1065,1071,1081],"ymouse":[504,504,504,504,504,504,504,504,504,504,504,504,504,504,504,504,504,504,504,504,504,504,504,504,504,504,504,504,504,504,504,504,504,498,467,421,359,244,205,175,156,144,137,120,111,97],"timestamp_mouse":[14,39,56,76,96,116,136,156,176,194,214,236,256,275,295,316,336,355,374,394,414,435,456,476,496,514,534,556,574,596,614,634,654,674,695,715,735,756,774,795,815,835,856,875,895,915],"xSR":741.5,"ySR":449.15000000000003,"xT1":424.9,"yT1":0,"xT2":1058.1,"yT2":0,"toosoon":0,"cond_shown":"randomdotsizeEA","ratio_trial":500,"smaller_num":"9","larger_num":"18","correct_side":1,"subjID":"garielarojasbohorquez13","gender":"1","age":"11","school":"6"},{"start_time":1551883289732,"click_time":1551883291006,"finger_time":1551883290626,"fix_duration":483.09449849903893,"trial":17,"RT":894,"MT":380,"sideResp":1,"stimulus":"img/900/equaldotsize/L/1_Ratio_900_L_10_R_9.png","xmouse":[802,802,802,802,802,802,802,802,802,802,802,802,802,802,802,802,802,802,802,802,802,802,802,802,802,802,802,802,802,802,802,802,802,802,802,802,801,799,798,795,794,789,770,760,735,702,640,613,584,560,538,513,496,496,496,496,496,496,496,496,496,496,493,492],"ymouse":[540,540,540,540,538,538,538,538,538,538,538,538,538,538,538,538,538,538,538,538,538,538,538,538,538,538,538,538,538,538,538,538,537,536,535,533,519,512,507,501,498,491,468,454,429,394,311,267,224,192,168,149,136,136,136,136,136,136,135,132,129,124,102,88],"timestamp_mouse":[15,36,54,74,94,115,134,154,173,195,215,234,255,274,294,314,335,354,375,395,414,434,453,475,493,513,535,554,574,594,613,634,653,674,695,713,734,753,773,795,815,833,855,874,894,914,935,953,974,994,1014,1034,1055,1074,1095,1115,1134,1154,1173,1194,1215,1234,1255,1274],"xSR":741.5,"ySR":449.15000000000003,"xT1":424.9,"yT1":0,"xT2":1058.1,"yT2":0,"toosoon":0,"cond_shown":"equaldotsize","ratio_trial":900,"smaller_num":"9","larger_num":"10","correct_side":1,"subjID":"garielarojasbohorquez13","gender":"1","age":"11","school":"6"},{"start_time":1551883292215,"click_time":1551883293167,"finger_time":1551883292767,"fix_duration":528.7018650733072,"trial":18,"RT":552,"MT":400,"sideResp":2,"stimulus":"img/900/equaldotsize/R/13_Ratio_900_L_18_R_20.png","xmouse":[812,812,812,812,812,812,812,812,812,812,812,812,812,812,812,812,812,812,812,812,812,812,812,812,812,815,820,847,858,872,887,905,935,993,1015,1026,1030,1037,1038,1039,1041,1043,1057,1064,1069,1076,1086,1109],"ymouse":[494,494,494,494,494,494,494,494,494,494,494,494,494,494,494,494,494,494,494,491,485,480,474,466,461,457,450,413,394,373,353,329,299,241,221,207,198,183,178,174,172,167,149,140,126,111,100,68],"timestamp_mouse":[11,35,52,71,92,111,130,152,170,191,212,231,250,272,291,310,332,351,372,391,410,432,450,471,491,510,530,552,571,591,611,632,651,670,690,711,732,752,770,791,811,831,852,871,891,911,931,952],"xSR":741.5,"ySR":449.15000000000003,"xT1":424.9,"yT1":0,"xT2":1058.1,"yT2":0,"toosoon":0,"cond_shown":"equaldotsize","ratio_trial":900,"smaller_num":"18","larger_num":"20","correct_side":2,"subjID":"garielarojasbohorquez13","gender":"1","age":"11","school":"6"},{"start_time":1551883294403,"click_time":1551883295186,"finger_time":1551883294725,"fix_duration":434.492872864125,"trial":19,"RT":322,"MT":461,"sideResp":1,"stimulus":"img/750/equaldotsize/L/6_Ratio_750_L_24_R_18.png","xmouse":[772,772,772,772,772,772,772,772,772,772,772,772,770,761,754,746,737,725,711,665,638,603,566,485,460,454,454,454,469,472,475,476,476,478,482,483,484,489,495,495],"ymouse":[508,508,508,508,508,508,508,508,508,508,506,502,497,482,473,462,448,434,415,359,334,311,284,234,213,206,199,190,170,164,160,158,156,155,149,145,138,129,100,90],"timestamp_mouse":[5,24,42,64,83,104,123,143,164,183,203,224,243,263,283,303,322,344,363,384,403,423,442,464,482,503,522,543,564,583,603,623,643,662,683,703,722,743,764,783],"xSR":741.5,"ySR":449.15000000000003,"xT1":424.9,"yT1":0,"xT2":1058.1,"yT2":0,"toosoon":0,"cond_shown":"equaldotsize","ratio_trial":750,"smaller_num":"18","larger_num":"24","correct_side":1,"subjID":"garielarojasbohorquez13","gender":"1","age":"11","school":"6"},{"start_time":1551883296158,"click_time":1551883297066,"finger_time":1551883296526,"fix_duration":250,"trial":20,"RT":368,"MT":540,"sideResp":2,"stimulus":"img/500/equaldotsize/R/12_Ratio_500_L_1_R_2.png","xmouse":[767,768,768,768,768,768,768,769,769,769,769,769,769,769,769,769,775,778,784,789,824,846,873,898,916,931,952,961,963,965,972,975,978,979,982,984,985,988,990,996,1014,1031,1039,1047,1056,1065],"ymouse":[495,495,495,495,495,495,495,494,494,494,493,491,490,488,485,482,466,455,442,427,393,375,357,336,312,293,265,251,242,234,213,206,199,195,192,186,181,177,173,166,155,136,125,116,104,91],"timestamp_mouse":[9,27,48,68,88,107,127,147,167,187,208,227,247,269,288,308,327,348,368,387,408,427,448,469,488,509,527,548,569,588,609,628,647,668,689,709,728,747,768,788,807,828,848,867,888,908],"xSR":741.5,"ySR":449.15000000000003,"xT1":424.9,"yT1":0,"xT2":1058.1,"yT2":0,"toosoon":0,"cond_shown":"equaldotsize","ratio_trial":500,"smaller_num":"1","larger_num":"2","correct_side":2,"subjID":"garielarojasbohorquez13","gender":"1","age":"11","school":"6"},{"start_time":1551883298460,"click_time":1551883299346,"finger_time":1551883298987,"fix_duration":653.1822919069048,"trial":21,"RT":527,"MT":359,"sideResp":1,"stimulus":"img/900/equaldotanddens/L/10_Ratio_900_L_20_R_18.png","xmouse":[772,772,772,772,772,772,772,772,772,772,772,772,772,772,772,772,772,772,772,772,772,772,772,772,771,760,749,731,703,666,592,561,541,530,524,521,521,521,521,521,521,521,518,508,496],"ymouse":[496,496,496,496,496,496,496,496,496,496,496,496,496,496,496,496,496,496,496,496,496,496,496,496,493,464,445,421,386,345,264,234,209,193,186,178,174,173,172,169,157,145,130,107,81],"timestamp_mouse":[9,25,51,66,86,106,125,146,166,186,205,227,245,267,285,305,326,346,367,386,405,425,446,465,486,507,527,546,566,586,606,626,646,667,686,705,725,746,766,786,806,825,846,866,886],"xSR":741.5,"ySR":449.15000000000003,"xT1":424.9,"yT1":0,"xT2":1058.1,"yT2":0,"toosoon":0,"cond_shown":"equaldotanddens","ratio_trial":900,"smaller_num":"18","larger_num":"20","correct_side":1,"subjID":"garielarojasbohorquez13","gender":"1","age":"11","school":"6"},{"start_time":1551883302479,"click_time":1551883303486,"finger_time":1551883303225,"fix_duration":351.7039152601623,"trial":22,"RT":746,"MT":261,"sideResp":2,"stimulus":"img/900/equaldotsize/L/8_Ratio_900_L_20_R_18.png","xmouse":[780,780,780,780,780,780,780,780,780,780,780,780,780,780,780,780,780,780,780,780,780,780,780,780,780,780,780,780,780,780,780,780,780,780,780,799,815,838,866,892,953,974,993,1005,1015,1022,1028,1039,1055,1092,1101],"ymouse":[504,504,504,504,504,504,504,504,504,504,504,504,504,504,504,504,504,504,504,504,504,504,504,504,504,504,504,504,504,504,504,504,504,504,503,477,455,426,388,354,294,262,230,201,183,159,153,145,132,100,84],"timestamp_mouse":[8,26,49,67,87,107,127,147,167,186,206,228,248,267,288,307,328,348,367,387,408,427,446,468,487,507,526,547,566,587,608,627,647,666,688,707,727,746,766,786,807,827,847,866,886,906,927,947,967,987,1007],"xSR":741.5,"ySR":449.15000000000003,"xT1":424.9,"yT1":0,"xT2":1058.1,"yT2":0,"toosoon":0,"cond_shown":"equaldotsize","ratio_trial":900,"smaller_num":"18","larger_num":"20","correct_side":1,"subjID":"garielarojasbohorquez13","gender":"1","age":"11","school":"6"},{"start_time":1551883304870,"click_time":1551883306846,"finger_time":1551883306267,"fix_duration":663.38517310561,"trial":23,"RT":1397,"MT":579,"sideResp":2,"stimulus":"img/750/equaldotsize/R/5_Ratio_750_L_15_R_20.png","xmouse":[780,780,780,780,780,780,780,780,780,780,780,780,780,780,780,780,780,779,779,778,778,778,778,778,778,778,778,778,778,778,777,777,777,777,777,777,777,777,777,777,777,777,777,777,777,777,777,777,776,769,764,758,753,750,749,749,749,749,749,749,749,749,749,749,749,752,763,781,801,842,860,872,883,889,911,932,947,961,967,983,992,1003,1015,1025,1042,1043,1043,1043,1040,1039,1039,1039,1039,1044,1049,1053,1054,1058,1071],"ymouse":[517,517,517,517,517,517,517,517,517,517,517,517,517,517,517,517,517,517,514,512,512,512,512,512,512,512,512,511,510,507,505,504,504,504,504,504,504,504,504,504,502,498,496,495,495,495,495,495,495,489,485,482,480,477,477,477,477,477,477,477,477,477,477,477,477,480,486,495,503,504,498,488,474,459,407,356,320,276,241,184,166,152,138,124,79,52,30,18,9,7,7,5,5,6,7,8,10,12,18],"timestamp_mouse":[16,38,57,75,95,116,135,155,175,196,216,237,256,276,295,316,336,355,375,396,416,436,456,476,496,516,536,557,575,595,616,635,656,677,696,716,737,757,776,795,816,836,855,876,895,917,936,955,976,997,1016,1036,1057,1077,1097,1116,1136,1156,1175,1196,1217,1237,1256,1275,1296,1315,1336,1356,1376,1397,1416,1436,1457,1476,1496,1515,1536,1556,1576,1596,1615,1636,1656,1677,1697,1715,1735,1756,1776,1797,1817,1835,1855,1876,1895,1915,1935,1956,1976],"xSR":741.5,"ySR":449.15000000000003,"xT1":424.9,"yT1":0,"xT2":1058.1,"yT2":0,"toosoon":0,"cond_shown":"equaldotsize","ratio_trial":750,"smaller_num":"15","larger_num":"20","correct_side":2,"subjID":"garielarojasbohorquez13","gender":"1","age":"11","school":"6"},{"start_time":1551883309324,"click_time":1551883310427,"finger_time":1551883310086,"fix_duration":1336.3726724420592,"trial":24,"RT":762,"MT":341,"sideResp":1,"stimulus":"img/750/randomdotsizeEA/L/6_Ratio_750_L_24_R_18.png","xmouse":[763,763,763,763,763,763,763,763,763,763,763,763,763,763,763,763,763,763,763,763,763,763,763,763,763,763,763,763,763,763,763,763,763,763,763,762,762,758,730,705,676,638,563,553,549,543,528,484,472,460,449,447,442,437,434,426],"ymouse":[498,498,498,498,498,498,498,498,498,498,498,498,498,498,498,498,498,498,498,498,498,498,498,498,498,498,498,498,498,498,498,497,496,488,488,485,484,474,431,401,366,328,277,269,265,256,239,183,159,135,119,112,111,108,105,97],"timestamp_mouse":[1,33,41,63,82,102,123,142,162,182,203,223,242,261,282,301,322,341,362,383,402,422,442,462,483,501,521,542,561,583,601,622,642,661,681,702,723,741,762,783,801,821,843,861,882,902,922,942,962,983,1002,1021,1042,1062,1082,1103],"xSR":741.5,"ySR":449.15000000000003,"xT1":424.9,"yT1":0,"xT2":1058.1,"yT2":0,"toosoon":0,"cond_shown":"randomdotsizeEA","ratio_trial":750,"smaller_num":"18","larger_num":"24","correct_side":1,"subjID":"garielarojasbohorquez13","gender":"1","age":"11","school":"6"},{"start_time":1551883312706,"click_time":1551883313386,"finger_time":1551883313206,"fix_duration":1499.8661430113027,"trial":25,"RT":500,"MT":180,"sideResp":2,"stimulus":"img/250/equaldotsize/R/12_Ratio_250_L_5_R_20.png","xmouse":[781,781,781,781,781,781,781,781,781,781,781,781,781,781,781,781,781,781,781,781,781,781,781,781,794,814,847,891,972,1012,1048,1075,1094,1099,1090],"ymouse":[472,472,472,478,480,480,480,480,480,480,480,480,480,480,480,480,480,480,480,480,480,480,480,480,461,434,401,360,279,238,203,173,144,115,80],"timestamp_mouse":[2,21,41,59,79,100,119,139,159,180,200,219,239,261,281,300,319,340,360,380,400,420,441,460,481,500,519,540,561,579,600,620,640,659,679],"xSR":741.5,"ySR":449.15000000000003,"xT1":424.9,"yT1":0,"xT2":1058.1,"yT2":0,"toosoon":0,"cond_shown":"equaldotsize","ratio_trial":250,"smaller_num":"5","larger_num":"20","correct_side":2,"subjID":"garielarojasbohorquez13","gender":"1","age":"11","school":"6"},{"start_time":1551883314868,"click_time":1551883315627,"finger_time":1551883315427,"fix_duration":599.9873561439204,"trial":26,"RT":559,"MT":200,"sideResp":1,"stimulus":"img/900/equaldotanddens/L/10_Ratio_900_L_20_R_18.png","xmouse":[822,817,817,813,812,812,812,812,810,809,807,807,807,807,807,807,807,807,807,805,804,804,804,804,804,803,794,784,767,752,715,699,679,650,622,594,561,541,519],"ymouse":[522,522,522,524,524,524,524,524,524,523,520,520,520,520,520,520,520,520,518,513,511,511,511,511,511,511,488,457,423,389,336,314,289,252,220,183,125,103,87],"timestamp_mouse":[1,34,38,58,77,98,119,138,158,177,199,219,239,257,279,297,317,339,358,378,397,419,437,457,479,498,518,538,559,578,598,617,637,657,679,698,719,738,759],"xSR":741.5,"ySR":449.15000000000003,"xT1":424.9,"yT1":0,"xT2":1058.1,"yT2":0,"toosoon":0,"cond_shown":"equaldotanddens","ratio_trial":900,"smaller_num":"18","larger_num":"20","correct_side":1,"subjID":"garielarojasbohorquez13","gender":"1","age":"11","school":"6"},{"start_time":1551883317419,"click_time":1551883318865,"finger_time":1551883317765,"fix_duration":731.8172865620538,"trial":27,"RT":346,"MT":1100,"sideResp":1,"stimulus":"img/900/randomdotsizeEA/L/1_Ratio_900_L_10_R_9.png","xmouse":[790,790,790,790,790,790,790,790,790,790,790,790,790,790,799,812,831,851,902,918,930,937,953,964,969,974,975,976,982,987,991,996,1018,1030,1040,1045,1045,1045,1045,1045,1045,1045,1045,1047,1047,1047,1047,1047,1047,1042,1032,1017,966,922,860,785,699,620,500,481,472,465,464,464,468,471,473,475,475,475,477,479,480],"ymouse":[531,530,530,530,530,530,530,530,530,530,530,530,530,529,518,502,475,450,387,365,344,323,287,271,258,249,239,226,208,199,188,173,148,136,126,123,123,123,123,123,123,123,123,121,120,120,120,120,121,129,143,157,194,214,239,254,263,259,209,191,178,162,147,142,129,120,117,114,112,110,108,103,99],"timestamp_mouse":[8,27,47,67,87,108,128,148,168,187,207,227,248,267,286,308,327,346,366,387,407,427,447,467,487,507,526,546,566,586,607,626,648,666,688,707,726,748,768,787,807,828,847,866,886,907,927,948,967,987,1008,1027,1047,1066,1086,1107,1128,1148,1168,1187,1206,1227,1247,1267,1288,1306,1328,1348,1367,1387,1408,1427,1446],"xSR":741.5,"ySR":449.15000000000003,"xT1":424.9,"yT1":0,"xT2":1058.1,"yT2":0,"toosoon":0,"cond_shown":"randomdotsizeEA","ratio_trial":900,"smaller_num":"9","larger_num":"10","correct_side":1,"subjID":"garielarojasbohorquez13","gender":"1","age":"11","school":"6"},{"start_time":1551883320426,"click_time":1551883321365,"finger_time":1551883320985,"fix_duration":638.8377190073537,"trial":28,"RT":559,"MT":380,"sideResp":1,"stimulus":"img/900/equaldotanddens/L/10_Ratio_900_L_20_R_18.png","xmouse":[764,764,764,764,764,764,764,765,767,768,768,768,768,768,768,768,768,768,768,768,768,768,768,768,768,769,774,787,841,852,852,835,803,708,668,640,632,632,632,632,632,632,625,619,609,590,567,522],"ymouse":[498,498,498,498,498,498,498,498,499,500,500,500,500,500,500,500,500,500,500,498,497,497,497,497,497,493,488,469,381,340,310,286,269,245,239,237,237,236,233,231,226,219,174,152,126,99,67,19],"timestamp_mouse":[1,20,39,59,80,101,119,139,160,180,200,219,239,260,280,300,320,339,360,379,400,419,441,460,480,500,521,540,559,580,601,620,639,659,681,700,720,740,760,780,800,819,841,859,881,900,920,939],"xSR":741.5,"ySR":449.15000000000003,"xT1":424.9,"yT1":0,"xT2":1058.1,"yT2":0,"toosoon":0,"cond_shown":"equaldotanddens","ratio_trial":900,"smaller_num":"18","larger_num":"20","correct_side":1,"subjID":"garielarojasbohorquez13","gender":"1","age":"11","school":"6"},{"start_time":1551883324014,"click_time":1551883325085,"finger_time":1551883324466,"fix_duration":367.9762665724775,"trial":29,"RT":452,"MT":619,"sideResp":1,"stimulus":"img/250/randomdotsizeEA/L/15_Ratio_250_L_12_R_3.png","xmouse":[800,800,800,800,800,800,800,800,800,800,800,800,800,800,800,800,796,794,785,781,772,761,721,686,641,600,561,525,525,525,529,532,532,532,531,531,531,527,519,508,498,494,493,493,493,493,493,495,495,495,495,495,495,495],"ymouse":[516,516,516,516,516,516,516,516,516,516,516,516,516,516,515,514,506,502,489,482,472,456,417,388,354,321,290,240,226,214,203,195,184,179,177,176,171,154,145,135,129,127,125,123,121,117,115,110,109,108,107,105,100,95],"timestamp_mouse":[12,36,53,73,93,112,131,153,173,192,213,232,251,272,292,311,333,352,371,391,412,431,452,472,492,512,532,553,572,591,612,633,653,672,692,711,733,753,772,792,811,831,853,872,892,912,932,952,972,992,1011,1031,1053,1071],"xSR":741.5,"ySR":449.15000000000003,"xT1":424.9,"yT1":0,"xT2":1058.1,"yT2":0,"toosoon":0,"cond_shown":"randomdotsizeEA","ratio_trial":250,"smaller_num":"3","larger_num":"12","correct_side":1,"subjID":"garielarojasbohorquez13","gender":"1","age":"11","school":"6"},{"start_time":1551883327464,"click_time":1551883328286,"finger_time":1551883328006,"fix_duration":1457.5207789646593,"trial":30,"RT":542,"MT":280,"sideResp":2,"stimulus":"img/750/equaldotanddens/R/12_Ratio_750_L_3_R_4.png","xmouse":[826,826,826,826,826,826,826,826,826,826,826,826,826,826,826,826,826,826,826,826,826,826,826,826,826,826,836,851,869,890,931,944,948,953,963,978,1025,1038,1053,1064,1076,1093],"ymouse":[502,502,502,502,502,502,502,502,502,502,502,502,502,502,502,502,502,502,502,502,502,502,502,502,502,500,489,472,450,421,347,309,278,258,237,218,157,136,121,110,100,88],"timestamp_mouse":[8,22,42,63,83,101,122,143,163,181,203,221,242,261,282,302,322,342,362,383,402,421,443,461,481,502,521,542,561,582,603,622,642,662,682,702,722,742,763,783,802,822],"xSR":741.5,"ySR":449.15000000000003,"xT1":424.9,"yT1":0,"xT2":1058.1,"yT2":0,"toosoon":0,"cond_shown":"equaldotanddens","ratio_trial":750,"smaller_num":"3","larger_num":"4","correct_side":2,"subjID":"garielarojasbohorquez13","gender":"1","age":"11","school":"6"},{"start_time":1551883333897,"click_time":1551883335266,"finger_time":1551883334586,"fix_duration":1209.4343711951583,"trial":31,"RT":689,"MT":680,"sideResp":1,"stimulus":"img/500/randomdotsizeEA/L/10_Ratio_500_L_4_R_2.png","xmouse":[764,764,764,764,764,764,764,764,764,764,764,764,764,764,764,764,764,764,764,764,764,764,764,764,764,764,764,764,764,764,764,764,764,758,751,747,734,712,688,640,621,599,588,577,575,572,569,563,536,517,501,494,490,488,488,488,488,488,488,488,488,488,488,487,485,484,482,480,479],"ymouse":[492,492,492,492,492,491,491,491,490,489,488,488,487,487,486,486,486,486,484,484,484,484,484,484,484,484,484,484,484,484,484,481,478,466,433,403,362,320,283,226,211,195,187,178,174,171,167,163,142,131,124,120,117,113,113,113,113,113,113,113,113,112,111,109,105,103,102,100,99],"timestamp_mouse":[9,34,50,70,89,110,128,150,170,190,209,229,249,268,290,310,329,348,370,390,408,430,450,469,489,509,528,548,569,590,608,629,648,669,689,709,728,748,768,789,809,829,849,870,888,909,929,949,969,989,1009,1029,1049,1070,1089,1109,1129,1149,1169,1190,1209,1228,1249,1269,1289,1309,1329,1350,1369],"xSR":741.5,"ySR":449.15000000000003,"xT1":424.9,"yT1":0,"xT2":1058.1,"yT2":0,"toosoon":0,"cond_shown":"randomdotsizeEA","ratio_trial":500,"smaller_num":"2","larger_num":"4","correct_side":1,"subjID":"garielarojasbohorquez13","gender":"1","age":"11","school":"6"},{"start_time":1551883337716,"click_time":1551883338685,"finger_time":1551883338367,"fix_duration":1408.2799312554816,"trial":32,"RT":651,"MT":318,"sideResp":2,"stimulus":"img/900/randomdotsizeEA/R/7_Ratio_900_L_9_R_10.png","xmouse":[804,804,804,804,804,804,804,804,804,804,804,804,804,804,804,804,804,804,804,804,804,804,804,804,804,804,804,804,804,804,808,819,876,901,934,961,982,998,1022,1029,1039,1045,1065,1069,1071,1072,1074,1075,1081],"ymouse":[490,490,490,490,490,490,490,490,490,490,490,490,490,490,490,490,490,490,490,490,490,490,490,490,490,490,490,490,490,486,477,456,387,357,325,295,270,241,192,174,162,155,137,128,121,114,108,103,90],"timestamp_mouse":[10,35,51,70,89,109,130,151,169,189,211,231,250,269,290,310,330,350,370,390,410,430,451,469,489,510,531,549,570,589,611,631,651,669,690,710,730,749,770,790,811,830,851,870,890,909,931,949,969],"xSR":741.5,"ySR":449.15000000000003,"xT1":424.9,"yT1":0,"xT2":1058.1,"yT2":0,"toosoon":0,"cond_shown":"randomdotsizeEA","ratio_trial":900,"smaller_num":"9","larger_num":"10","correct_side":2,"subjID":"garielarojasbohorquez13","gender":"1","age":"11","school":"6"},{"start_time":1551883340020,"click_time":1551883340727,"finger_time":1551883340286,"fix_duration":714.7847915545965,"trial":33,"RT":266,"MT":441,"sideResp":1,"stimulus":"img/750/equaldotanddens/R/11_Ratio_750_L_12_R_16.png","xmouse":[760,760,760,760,760,760,760,760,760,760,758,754,750,740,731,716,703,685,674,674,674,674,674,674,670,666,655,637,599,581,560,540,532,524,521,517],"ymouse":[522,522,522,522,522,522,522,522,522,521,519,513,509,504,501,501,501,501,497,494,481,462,435,382,362,342,318,278,219,193,168,148,135,115,108,99],"timestamp_mouse":[9,36,46,67,86,105,127,146,166,186,207,226,245,266,286,307,327,346,365,386,407,426,445,466,486,507,526,545,566,586,607,626,645,665,687,707],"xSR":741.5,"ySR":449.15000000000003,"xT1":424.9,"yT1":0,"xT2":1058.1,"yT2":0,"toosoon":0,"cond_shown":"equaldotanddens","ratio_trial":750,"smaller_num":"12","larger_num":"16","correct_side":2,"subjID":"garielarojasbohorquez13","gender":"1","age":"11","school":"6"},{"start_time":1551883343358,"click_time":1551883344167,"finger_time":1551883343806,"fix_duration":250,"trial":34,"RT":448,"MT":361,"sideResp":2,"stimulus":"img/250/equaldotsize/R/4_Ratio_250_L_3_R_12.png","xmouse":[840,840,840,840,840,840,840,839,839,837,836,836,836,836,836,836,834,832,830,830,830,830,842,860,880,895,924,939,953,960,973,1011,1020,1031,1043,1052,1062,1065,1072,1079,1090],"ymouse":[523,523,523,523,523,523,523,523,524,527,527,527,527,527,527,527,527,527,526,526,526,520,502,475,438,405,344,323,301,281,251,197,177,158,146,140,129,122,113,100,76],"timestamp_mouse":[14,39,48,68,88,109,129,148,168,187,209,228,247,267,288,308,328,348,368,388,408,428,448,469,489,507,528,548,568,587,608,628,648,669,688,708,728,747,767,788,809],"xSR":741.5,"ySR":449.15000000000003,"xT1":424.9,"yT1":0,"xT2":1058.1,"yT2":0,"toosoon":0,"cond_shown":"equaldotsize","ratio_trial":250,"smaller_num":"3","larger_num":"12","correct_side":2,"subjID":"garielarojasbohorquez13","gender":"1","age":"11","school":"6"},{"start_time":1551883347585,"click_time":1551883348707,"finger_time":1551883348267,"fix_duration":778.0338804621873,"trial":35,"RT":682,"MT":440,"sideResp":1,"stimulus":"img/500/equaldotsize/L/8_Ratio_500_L_8_R_4.png","xmouse":[800,800,800,800,800,800,800,800,800,800,800,800,800,800,800,800,802,802,802,802,802,802,802,802,802,802,802,802,802,802,801,794,784,770,722,690,662,625,588,542,542,542,542,542,542,542,542,542,542,542,542,542,542,542,542,542,479],"ymouse":[485,485,485,485,485,485,485,485,485,485,485,485,485,485,485,485,485,485,485,485,485,485,485,485,485,485,485,485,485,485,485,483,478,467,395,337,277,200,109,12,12,12,12,12,12,12,12,12,12,12,12,12,12,12,12,12,1],"timestamp_mouse":[9,20,48,62,82,101,121,141,161,182,201,221,241,262,282,302,321,341,362,380,402,422,441,460,481,502,520,542,560,581,600,621,640,660,682,701,721,741,762,781,801,821,842,861,881,901,921,941,961,981,1002,1022,1041,1062,1081,1101,1122],"xSR":741.5,"ySR":449.15000000000003,"xT1":424.9,"yT1":0,"xT2":1058.1,"yT2":0,"toosoon":0,"cond_shown":"equaldotsize","ratio_trial":500,"smaller_num":"4","larger_num":"8","correct_side":1,"subjID":"garielarojasbohorquez13","gender":"1","age":"11","school":"6"},{"start_time":1551883350572,"click_time":1551883351786,"finger_time":1551883351466,"fix_duration":704.8758661419104,"trial":36,"RT":894,"MT":320,"sideResp":2,"stimulus":"img/250/randomdotsizeEA/R/8_Ratio_250_L_1_R_4.png","xmouse":[767,767,767,767,767,767,767,767,767,767,767,767,767,767,767,767,767,767,767,767,767,767,767,767,767,767,767,767,767,767,767,767,767,767,767,767,767,767,767,767,767,767,767,776,789,859,879,917,955,1005,1048,1065,1077,1082,1083,1083,1084,1086,1087,1091,1094],"ymouse":[471,471,471,471,471,471,471,471,471,471,471,471,471,471,471,471,471,471,471,471,471,471,471,471,471,471,471,471,471,468,467,467,467,467,467,467,467,467,467,467,467,467,463,450,433,367,352,314,278,230,181,166,154,147,145,136,129,122,117,110,93],"timestamp_mouse":[13,34,55,75,94,113,135,153,173,193,215,234,255,275,293,314,334,355,374,393,413,434,454,474,493,515,534,553,574,594,614,634,654,674,695,713,733,754,774,795,813,834,853,874,894,917,934,954,974,993,1014,1034,1054,1073,1095,1113,1134,1154,1173,1193,1214],"xSR":741.5,"ySR":449.15000000000003,"xT1":424.9,"yT1":0,"xT2":1058.1,"yT2":0,"toosoon":0,"cond_shown":"randomdotsizeEA","ratio_trial":250,"smaller_num":"1","larger_num":"4","correct_side":2,"subjID":"garielarojasbohorquez13","gender":"1","age":"11","school":"6"},{"start_time":1551883352958,"click_time":1551883353685,"finger_time":1551883353467,"fix_duration":329.49878605222773,"trial":37,"RT":509,"MT":218,"sideResp":1,"stimulus":"img/750/randomdotsizeEA/R/2_Ratio_750_L_6_R_8.png","xmouse":[793,793,793,793,793,793,793,793,793,793,793,793,793,793,793,793,793,793,793,793,793,792,788,782,774,745,721,684,633,603,582,556,553,549,541,530,499],"ymouse":[534,534,534,534,534,534,534,534,534,534,534,534,534,534,534,534,534,534,534,534,534,531,510,482,454,391,349,287,220,182,158,125,114,107,96,80,48],"timestamp_mouse":[8,42,49,68,89,108,129,149,168,188,209,227,248,268,288,309,328,347,369,389,409,429,448,468,487,509,528,548,569,588,608,627,648,669,689,709,727],"xSR":741.5,"ySR":449.15000000000003,"xT1":424.9,"yT1":0,"xT2":1058.1,"yT2":0,"toosoon":0,"cond_shown":"randomdotsizeEA","ratio_trial":750,"smaller_num":"6","larger_num":"8","correct_side":2,"subjID":"garielarojasbohorquez13","gender":"1","age":"11","school":"6"},{"start_time":1551883357261,"click_time":1551883358067,"finger_time":1551883357867,"fix_duration":1214.701797389569,"trial":38,"RT":606,"MT":200,"sideResp":1,"stimulus":"img/500/equaldotsize/L/7_Ratio_500_L_10_R_5.png","xmouse":[804,804,804,804,804,804,804,804,804,804,804,804,804,804,804,804,804,804,804,804,804,804,804,804,804,804,804,803,790,772,713,678,634,591,551,507,471,465,464,464,464],"ymouse":[516,516,516,516,516,516,516,516,516,516,516,516,516,516,516,516,516,516,516,516,516,516,516,516,516,516,516,511,493,471,403,368,326,288,259,207,133,113,104,101,95],"timestamp_mouse":[8,36,46,65,85,106,125,145,164,185,205,226,245,265,285,306,324,344,365,385,406,425,444,465,484,506,524,545,566,585,606,624,645,665,685,704,725,745,765,785,806],"xSR":741.5,"ySR":449.15000000000003,"xT1":424.9,"yT1":0,"xT2":1058.1,"yT2":0,"toosoon":0,"cond_shown":"equaldotsize","ratio_trial":500,"smaller_num":"5","larger_num":"10","correct_side":1,"subjID":"garielarojasbohorquez13","gender":"1","age":"11","school":"6"},{"start_time":1551883360403,"click_time":1551883361286,"finger_time":1551883361067,"fix_duration":1434.377255555279,"trial":39,"RT":664,"MT":219,"sideResp":1,"stimulus":"img/900/randomdotsizeEA/R/5_Ratio_900_L_9_R_10.png","xmouse":[770,770,770,770,770,770,770,770,770,770,770,770,770,770,770,770,770,770,770,772,775,780,786,792,796,797,797,797,797,797,797,796,793,774,758,738,716,692,665,609,586,554,522,494,457],"ymouse":[528,528,528,528,528,528,528,528,528,528,528,528,528,528,528,528,528,528,528,528,524,518,509,500,488,485,484,483,482,479,477,476,471,444,422,400,377,359,339,277,247,202,157,122,85],"timestamp_mouse":[11,24,43,62,83,103,124,142,163,183,204,222,243,262,283,303,322,344,363,382,403,423,443,464,483,503,523,543,563,583,603,623,644,664,683,703,723,744,763,783,803,823,844,863,883],"xSR":741.5,"ySR":449.15000000000003,"xT1":424.9,"yT1":0,"xT2":1058.1,"yT2":0,"toosoon":0,"cond_shown":"randomdotsizeEA","ratio_trial":900,"smaller_num":"9","larger_num":"10","correct_side":2,"subjID":"garielarojasbohorquez13","gender":"1","age":"11","school":"6"},{"start_time":1551883366506,"click_time":1551883367226,"finger_time":1551883367126,"fix_duration":278.56440530694124,"trial":40,"RT":620,"MT":100,"sideResp":2,"stimulus":"img/900/equaldotanddens/R/6_Ratio_900_L_9_R_10.png","xmouse":[777,777,777,777,777,777,777,777,777,777,777,777,777,777,777,777,777,777,777,777,777,777,777,777,777,777,777,779,780,784,796,814,843,905,989,1030,1082],"ymouse":[494,494,494,494,494,494,494,494,494,494,494,494,494,494,494,494,494,494,494,494,494,494,494,494,494,494,494,494,485,474,453,426,391,330,208,143,71],"timestamp_mouse":[1,19,41,60,81,99,120,140,160,181,199,219,241,259,281,300,320,340,361,381,401,419,440,460,480,500,519,540,561,580,600,620,639,659,679,700,720],"xSR":741.5,"ySR":449.15000000000003,"xT1":424.9,"yT1":0,"xT2":1058.1,"yT2":0,"toosoon":0,"cond_shown":"equaldotanddens","ratio_trial":900,"smaller_num":"9","larger_num":"10","correct_side":2,"subjID":"garielarojasbohorquez13","gender":"1","age":"11","school":"6"},{"start_time":1551883370505,"click_time":1551883374107,"finger_time":1551883372846,"fix_duration":876.9760492545681,"trial":41,"RT":2341,"MT":1261,"sideResp":1,"stimulus":"img/750/equaldotsize/L/10_Ratio_750_L_4_R_3.png","xmouse":[757,757,757,757,757,757,757,757,757,757,757,757,757,757,757,757,757,757,757,757,757,757,757,757,757,757,757,757,757,757,757,757,757,757,757,757,757,757,757,757,757,757,757,757,757,757,757,757,757,757,757,757,757,757,757,757,757,757,757,757,757,757,757,757,757,757,757,757,757,757,757,757,757,757,757,757,757,757,757,757,757,757,757,757,757,757,757,757,757,757,757,757,757,757,757,757,757,757,757,757,757,757,757,757,757,757,757,757,757,757,757,757,757,758,782,804,836,868,903,968,994,1018,1030,1055,1057,1058,1058,1060,1064,1067,1070,1070,1070,1070,1071,1071,1071,1071,1071,1071,1071,1071,1071,1071,1071,1071,1071,1071,1071,1071,1071,1071,1071,1071,1071,1071,1071,1071,1071,1071,1071,1065,1053,1031,917,856,795,712,611,584,571,569,569,567,544,534,528,528,527,525,522],"ymouse":[527,527,527,527,527,527,527,527,527,527,527,527,527,527,527,527,527,527,527,527,527,527,527,527,527,527,527,527,527,527,527,527,527,527,527,527,527,527,527,527,527,527,527,527,527,527,527,527,527,527,527,527,527,527,527,527,527,527,527,527,527,527,527,527,527,527,527,527,527,527,527,527,527,527,527,527,527,527,527,527,527,527,527,527,527,527,527,527,527,527,527,527,527,527,527,527,527,527,527,527,527,527,527,527,527,527,527,527,527,527,527,527,527,527,502,482,458,432,406,343,309,277,248,195,180,171,163,154,137,130,124,120,118,117,116,116,116,116,116,116,116,116,116,116,116,116,116,116,116,116,116,116,116,116,116,116,116,116,116,116,116,116,116,117,119,112,103,89,76,74,72,72,72,72,71,71,71,71,71,70,70],"timestamp_mouse":[9,33,41,62,80,101,121,140,162,180,202,221,241,260,282,301,321,341,362,381,400,422,440,460,481,500,520,541,562,581,602,620,641,661,681,701,720,740,762,782,801,821,842,860,881,901,921,942,961,981,1001,1020,1041,1062,1082,1100,1121,1142,1162,1181,1201,1222,1242,1262,1280,1302,1321,1341,1362,1381,1401,1421,1440,1460,1481,1501,1521,1541,1561,1582,1600,1622,1641,1662,1682,1702,1721,1742,1762,1782,1801,1822,1841,1861,1882,1902,1920,1942,1961,1981,2000,2022,2041,2061,2082,2100,2120,2142,2162,2181,2202,2221,2241,2260,2281,2301,2322,2341,2362,2381,2401,2422,2440,2462,2480,2501,2522,2540,2561,2581,2601,2622,2641,2661,2680,2702,2721,2741,2761,2782,2800,2821,2841,2861,2882,2901,2920,2940,2962,2980,3000,3020,3040,3061,3081,3101,3122,3140,3162,3180,3200,3222,3241,3261,3281,3301,3321,3341,3362,3381,3402,3421,3441,3460,3481,3501,3522,3541,3562,3581,3602],"xSR":741.5,"ySR":449.15000000000003,"xT1":424.9,"yT1":0,"xT2":1058.1,"yT2":0,"toosoon":0,"cond_shown":"equaldotsize","ratio_trial":750,"smaller_num":"3","larger_num":"4","correct_side":1,"subjID":"garielarojasbohorquez13","gender":"1","age":"11","school":"6"},{"start_time":1551883376144,"click_time":1551883376986,"finger_time":1551883376806,"fix_duration":1056.7336812389633,"trial":42,"RT":662,"MT":180,"sideResp":2,"stimulus":"img/900/equaldotanddens/R/6_Ratio_900_L_9_R_10.png","xmouse":[809,809,809,809,809,809,809,809,809,809,809,809,809,809,809,809,809,809,809,809,809,809,809,809,809,809,809,809,809,809,809,812,839,863,894,931,970,1043,1078,1107,1138,1148,1153],"ymouse":[500,500,500,500,500,500,500,500,500,500,500,500,500,500,500,500,500,500,500,500,500,500,500,500,500,500,500,500,500,500,498,493,455,418,372,329,285,217,188,165,131,115,89],"timestamp_mouse":[8,22,41,62,82,103,122,142,163,182,203,222,242,261,282,302,322,343,363,381,402,421,441,461,481,503,521,543,561,583,603,622,642,662,683,702,721,741,762,781,803,822,842],"xSR":741.5,"ySR":449.15000000000003,"xT1":424.9,"yT1":0,"xT2":1058.1,"yT2":0,"toosoon":0,"cond_shown":"equaldotanddens","ratio_trial":900,"smaller_num":"9","larger_num":"10","correct_side":2,"subjID":"garielarojasbohorquez13","gender":"1","age":"11","school":"6"},{"start_time":1551883378476,"click_time":1551883379305,"finger_time":1551883379106,"fix_duration":508.42317325310336,"trial":43,"RT":630,"MT":199,"sideResp":2,"stimulus":"img/900/equaldotanddens/R/3_Ratio_900_L_9_R_10.png","xmouse":[814,814,814,814,814,814,814,814,814,814,814,814,814,814,814,814,814,814,814,814,814,814,814,814,814,814,814,814,814,815,830,849,871,896,981,1023,1063,1099,1120,1130,1139,1141],"ymouse":[487,487,487,487,487,487,487,487,487,487,487,487,487,487,487,487,487,487,487,487,487,487,487,487,487,487,487,487,487,485,466,449,427,404,330,286,245,205,173,147,110,95],"timestamp_mouse":[9,35,49,70,89,110,129,149,170,189,209,230,249,269,289,309,329,349,369,390,409,429,450,469,489,509,530,549,569,590,609,630,649,669,691,709,729,750,769,789,809,829],"xSR":741.5,"ySR":449.15000000000003,"xT1":424.9,"yT1":0,"xT2":1058.1,"yT2":0,"toosoon":0,"cond_shown":"equaldotanddens","ratio_trial":900,"smaller_num":"9","larger_num":"10","correct_side":2,"subjID":"garielarojasbohorquez13","gender":"1","age":"11","school":"6"},{"start_time":1551883381876,"click_time":1551883382886,"finger_time":1551883382485,"fix_duration":250,"trial":44,"RT":609,"MT":401,"sideResp":1,"stimulus":"img/250/equaldotanddens/L/3_Ratio_250_L_8_R_2.png","xmouse":[792,792,792,792,792,792,792,792,792,792,792,792,792,792,792,792,792,792,792,792,792,792,792,792,792,792,792,792,787,750,717,691,662,630,578,572,564,554,546,540,538,538,538,538,537,536,535,535,532,530,523],"ymouse":[516,516,516,516,516,516,516,516,516,516,516,516,516,516,516,516,516,516,516,516,516,516,516,516,516,516,516,514,505,464,429,392,349,293,144,101,75,54,43,36,33,33,33,33,33,33,34,35,36,37,38],"timestamp_mouse":[9,42,49,69,90,110,129,149,170,189,209,229,249,269,289,310,329,349,369,389,409,429,450,469,489,509,529,549,569,590,609,629,649,669,690,709,729,750,769,789,809,829,849,869,890,909,929,950,970,989,1009],"xSR":741.5,"ySR":449.15000000000003,"xT1":424.9,"yT1":0,"xT2":1058.1,"yT2":0,"toosoon":0,"cond_shown":"equaldotanddens","ratio_trial":250,"smaller_num":"2","larger_num":"8","correct_side":1,"subjID":"garielarojasbohorquez13","gender":"1","age":"11","school":"6"},{"start_time":1551883384018,"click_time":1551883384745,"finger_time":1551883384665,"fix_duration":250,"trial":45,"RT":647,"MT":80,"sideResp":2,"stimulus":"img/750/equaldotanddens/R/2_Ratio_750_L_6_R_8.png","xmouse":[779,779,779,779,779,779,779,779,779,779,779,779,779,779,779,779,779,779,779,779,779,779,779,779,779,779,779,779,779,779,783,801,847,1000,1057,1089,1120],"ymouse":[491,491,491,491,491,491,491,491,491,491,492,492,492,492,492,492,492,492,492,492,492,492,492,492,492,492,492,492,492,492,489,458,393,210,154,123,91],"timestamp_mouse":[8,35,47,69,88,108,127,148,167,187,207,227,248,267,287,307,328,347,368,388,407,428,448,467,488,508,528,548,567,587,607,627,647,667,687,708,727],"xSR":741.5,"ySR":449.15000000000003,"xT1":424.9,"yT1":0,"xT2":1058.1,"yT2":0,"toosoon":0,"cond_shown":"equaldotanddens","ratio_trial":750,"smaller_num":"6","larger_num":"8","correct_side":2,"subjID":"garielarojasbohorquez13","gender":"1","age":"11","school":"6"},{"start_time":1551883386172,"click_time":1551883386946,"finger_time":1551883386626,"fix_duration":405.51786243516995,"trial":46,"RT":454,"MT":320,"sideResp":1,"stimulus":"img/750/equaldotsize/L/1_Ratio_750_L_20_R_15.png","xmouse":[793,793,793,793,793,793,793,793,793,793,793,793,793,793,793,793,793,793,793,793,791,784,767,746,692,661,627,593,560,537,514,513,513,513,512,512,512,509,506],"ymouse":[483,483,483,483,483,483,483,483,483,483,483,483,483,483,483,483,483,483,483,483,483,464,430,401,334,292,249,205,170,146,124,122,120,116,113,110,107,100,93],"timestamp_mouse":[18,44,53,72,93,113,134,153,173,193,213,233,253,273,293,313,333,353,373,393,413,433,454,474,494,513,533,553,573,593,613,633,653,673,694,713,733,754,774],"xSR":741.5,"ySR":449.15000000000003,"xT1":424.9,"yT1":0,"xT2":1058.1,"yT2":0,"toosoon":0,"cond_shown":"equaldotsize","ratio_trial":750,"smaller_num":"15","larger_num":"20","correct_side":1,"subjID":"garielarojasbohorquez13","gender":"1","age":"11","school":"6"},{"start_time":1551883388464,"click_time":1551883389346,"finger_time":1551883389066,"fix_duration":898.8656366364833,"trial":47,"RT":602,"MT":280,"sideResp":2,"stimulus":"img/750/randomdotsizeEA/L/10_Ratio_750_L_4_R_3.png","xmouse":[796,796,796,796,796,796,796,796,796,796,796,796,796,796,796,796,796,796,796,796,796,796,796,796,796,796,796,796,796,807,884,938,979,1009,1034,1042,1045,1045,1045,1045,1045,1045,1050,1060,1069],"ymouse":[497,497,497,497,497,497,497,497,497,497,497,497,497,497,497,497,497,497,497,497,497,497,497,497,497,497,497,497,497,484,399,339,298,266,220,199,180,175,173,169,167,152,132,109,90],"timestamp_mouse":[9,32,41,61,81,102,121,141,162,180,202,221,241,262,282,301,321,341,361,381,401,421,441,462,482,502,522,542,561,581,602,621,641,661,682,701,721,741,762,781,801,821,842,861,882],"xSR":741.5,"ySR":449.15000000000003,"xT1":424.9,"yT1":0,"xT2":1058.1,"yT2":0,"toosoon":0,"cond_shown":"randomdotsizeEA","ratio_trial":750,"smaller_num":"3","larger_num":"4","correct_side":1,"subjID":"garielarojasbohorquez13","gender":"1","age":"11","school":"6"},{"start_time":1551883392458,"click_time":1551883393466,"finger_time":1551883393145,"fix_duration":772.1322914829994,"trial":48,"RT":687,"MT":321,"sideResp":1,"stimulus":"img/900/equaldotsize/L/1_Ratio_900_L_10_R_9.png","xmouse":[787,787,787,787,787,787,787,787,787,787,787,787,787,787,787,787,787,787,787,787,787,787,787,787,787,787,787,787,787,787,787,787,779,758,710,689,635,628,619,609,596,593,590,587,585,575,566,553,537,527,518],"ymouse":[493,493,493,493,493,493,493,493,493,493,493,493,493,493,493,493,493,493,493,493,493,493,493,493,493,493,493,493,493,493,493,493,483,456,404,383,315,299,283,262,231,220,212,204,196,157,141,122,103,87,75],"timestamp_mouse":[9,41,47,67,87,108,128,147,167,188,207,227,247,268,287,308,328,348,368,387,407,428,447,467,487,507,527,547,567,587,607,627,647,668,687,707,727,747,767,787,808,827,847,867,887,908,926,947,967,987,1008],"xSR":741.5,"ySR":449.15000000000003,"xT1":424.9,"yT1":0,"xT2":1058.1,"yT2":0,"toosoon":0,"cond_shown":"equaldotsize","ratio_trial":900,"smaller_num":"9","larger_num":"10","correct_side":1,"subjID":"garielarojasbohorquez13","gender":"1","age":"11","school":"6"},{"start_time":1551883394529,"click_time":1551883395546,"finger_time":1551883395165,"fix_duration":342.03477775404923,"trial":49,"RT":636,"MT":381,"sideResp":1,"stimulus":"img/500/randomdotsizeEA/R/1_Ratio_500_L_9_R_18.png","xmouse":[793,787,782,782,782,782,782,782,782,782,782,782,782,782,782,782,782,782,782,782,782,782,782,782,782,782,782,782,781,776,759,708,603,550,506,456,354,332,332,332,332,332,332,332,332,332,332,354,379,405,429],"ymouse":[476,479,483,483,483,483,483,483,483,483,483,483,483,483,483,483,483,483,483,483,483,483,483,483,483,483,483,483,483,474,462,392,256,192,148,103,20,2,2,2,2,2,2,2,2,2,2,6,22,38,54],"timestamp_mouse":[17,36,56,76,96,117,136,157,176,197,218,236,257,276,296,317,336,356,377,397,415,436,456,477,496,516,537,556,576,597,616,636,656,676,696,716,737,756,776,796,816,836,857,876,896,916,936,956,977,996,1017],"xSR":741.5,"ySR":449.15000000000003,"xT1":424.9,"yT1":0,"xT2":1058.1,"yT2":0,"toosoon":0,"cond_shown":"randomdotsizeEA","ratio_trial":500,"smaller_num":"9","larger_num":"18","correct_side":2,"subjID":"garielarojasbohorquez13","gender":"1","age":"11","school":"6"},{"start_time":1551883396557,"click_time":1551883397267,"finger_time":1551883397085,"fix_duration":250,"trial":50,"RT":528,"MT":182,"sideResp":2,"stimulus":"img/500/equaldotsize/R/9_Ratio_500_L_2_R_4.png","xmouse":[784,784,784,784,784,784,784,784,784,784,784,784,784,784,784,784,784,784,784,784,784,784,784,785,789,810,866,905,948,993,1058,1064,1066,1066,1065,1059],"ymouse":[490,490,490,490,490,490,490,490,490,490,490,490,490,490,490,490,490,490,490,490,490,490,490,490,485,458,389,348,307,262,175,155,138,124,109,93],"timestamp_mouse":[9,42,48,68,88,109,128,148,168,189,208,229,249,268,289,308,328,348,369,388,408,428,449,468,488,508,528,548,568,588,609,628,648,668,688,709],"xSR":741.5,"ySR":449.15000000000003,"xT1":424.9,"yT1":0,"xT2":1058.1,"yT2":0,"toosoon":0,"cond_shown":"equaldotsize","ratio_trial":500,"smaller_num":"2","larger_num":"4","correct_side":2,"subjID":"garielarojasbohorquez13","gender":"1","age":"11","school":"6"},{"start_time":1551883399015,"click_time":1551883399867,"finger_time":1551883399525,"fix_duration":908.112420520875,"trial":51,"RT":510,"MT":342,"sideResp":1,"stimulus":"img/750/equaldotanddens/R/12_Ratio_750_L_3_R_4.png","xmouse":[775,775,775,775,775,775,775,775,775,775,775,775,775,775,775,775,775,775,775,775,775,775,775,769,761,744,727,690,626,595,572,551,538,531,531,531,531,531,530,529,528,525,512],"ymouse":[518,518,518,518,518,518,518,518,518,518,518,518,518,518,518,518,518,518,518,518,518,518,515,500,477,443,404,330,236,201,174,147,128,118,118,118,118,118,113,110,108,104,94],"timestamp_mouse":[10,31,51,70,91,110,130,151,171,190,211,231,251,270,290,311,330,350,371,390,410,430,450,470,490,510,530,550,570,590,610,630,650,670,691,710,729,751,770,790,810,831,851],"xSR":741.5,"ySR":449.15000000000003,"xT1":424.9,"yT1":0,"xT2":1058.1,"yT2":0,"toosoon":0,"cond_shown":"equaldotanddens","ratio_trial":750,"smaller_num":"3","larger_num":"4","correct_side":2,"subjID":"garielarojasbohorquez13","gender":"1","age":"11","school":"6"},{"start_time":1551883401676,"click_time":1551883402385,"finger_time":1551883402246,"fix_duration":1089.2658665452093,"trial":52,"RT":570,"MT":139,"sideResp":1,"stimulus":"img/250/equaldotanddens/L/1_Ratio_250_L_8_R_2.png","xmouse":[771,771,771,771,771,771,771,771,771,771,771,771,771,771,771,771,771,771,771,771,771,771,771,771,771,771,773,764,749,724,657,625,592,561,508,498],"ymouse":[502,502,502,502,502,502,502,502,502,502,502,502,502,502,502,502,502,502,502,502,502,502,502,502,502,502,492,466,427,382,287,245,202,162,101,92],"timestamp_mouse":[9,39,50,68,90,109,129,149,169,190,209,229,249,269,289,309,330,349,369,389,410,429,448,469,489,509,529,550,570,589,609,629,650,670,690,709],"xSR":741.5,"ySR":449.15000000000003,"xT1":424.9,"yT1":0,"xT2":1058.1,"yT2":0,"toosoon":0,"cond_shown":"equaldotanddens","ratio_trial":250,"smaller_num":"2","larger_num":"8","correct_side":1,"subjID":"garielarojasbohorquez13","gender":"1","age":"11","school":"6"},{"start_time":1551883404394,"click_time":1551883405467,"finger_time":1551883404865,"fix_duration":1326.0043421747175,"trial":53,"RT":471,"MT":602,"sideResp":1,"stimulus":"img/900/equaldotsize/L/4_Ratio_900_L_20_R_18.png","xmouse":[799,799,799,799,799,799,799,799,799,799,799,799,799,799,799,799,799,799,797,784,769,753,744,738,728,721,704,685,620,590,568,549,537,524,521,520,519,516,511,509,507,505,503,500,495,495,495,495,495,495,495,495,495,495],"ymouse":[523,523,523,523,523,523,523,523,523,523,523,523,523,523,523,523,523,523,513,496,479,469,461,454,432,409,377,346,259,229,209,193,183,169,165,160,156,149,137,134,128,123,119,114,109,108,108,107,107,104,102,101,100,96],"timestamp_mouse":[12,35,51,72,91,111,131,151,171,191,211,232,252,271,291,312,331,352,372,391,411,431,452,471,491,511,531,551,572,590,611,631,652,672,691,711,732,751,772,791,811,831,850,871,891,911,931,952,971,991,1011,1031,1052,1073],"xSR":741.5,"ySR":449.15000000000003,"xT1":424.9,"yT1":0,"xT2":1058.1,"yT2":0,"toosoon":0,"cond_shown":"equaldotsize","ratio_trial":900,"smaller_num":"18","larger_num":"20","correct_side":1,"subjID":"garielarojasbohorquez13","gender":"1","age":"11","school":"6"},{"start_time":1551883407103,"click_time":1551883408445,"finger_time":1551883408025,"fix_duration":736.4799050382339,"trial":54,"RT":922,"MT":420,"sideResp":2,"stimulus":"img/250/randomdotsizeEA/R/13_Ratio_250_L_2_R_8.png","xmouse":[783,783,783,783,783,783,783,783,783,783,783,783,783,783,783,783,783,783,783,783,783,783,783,783,783,783,783,783,783,783,783,783,783,783,783,783,783,783,783,783,783,783,783,783,808,830,853,874,890,890,890,892,896,908,917,930,949,968,987,1020,1034,1045,1058,1071,1074,1076,1076,1076],"ymouse":[520,520,520,520,520,520,520,520,520,520,520,520,520,520,520,520,520,520,520,520,520,520,520,520,520,520,520,520,520,520,520,520,520,520,520,520,520,520,520,520,520,520,520,520,509,492,469,440,376,354,335,318,298,249,233,219,204,190,175,151,141,133,124,116,112,106,103,99],"timestamp_mouse":[9,22,43,63,82,102,122,142,162,183,203,222,242,262,282,303,323,342,362,382,402,422,442,461,482,502,523,542,562,582,602,622,642,662,682,702,723,743,762,782,802,822,843,862,884,902,922,943,964,982,1003,1022,1043,1064,1082,1102,1123,1142,1162,1182,1203,1222,1242,1263,1282,1302,1322,1342],"xSR":741.5,"ySR":449.15000000000003,"xT1":424.9,"yT1":0,"xT2":1058.1,"yT2":0,"toosoon":0,"cond_shown":"randomdotsizeEA","ratio_trial":250,"smaller_num":"2","larger_num":"8","correct_side":2,"subjID":"garielarojasbohorquez13","gender":"1","age":"11","school":"6"},{"start_time":1551883410046,"click_time":1551883410806,"finger_time":1551883410625,"fix_duration":359.4441953956186,"trial":55,"RT":579,"MT":181,"sideResp":2,"stimulus":"img/250/equaldotsize/R/6_Ratio_250_L_6_R_24.png","xmouse":[792,792,792,792,792,792,792,792,792,792,792,792,792,792,792,792,792,792,792,792,792,792,792,792,792,792,792,795,812,837,869,906,989,1018,1044,1066,1095,1125,1134],"ymouse":[486,486,486,486,486,486,486,486,486,486,486,486,486,486,486,486,486,486,486,486,486,486,486,486,486,486,486,479,462,442,418,387,311,274,237,200,151,108,87],"timestamp_mouse":[1,19,46,59,79,100,119,139,160,179,200,219,239,260,280,299,319,339,359,379,400,419,439,459,480,499,519,540,559,579,600,620,639,659,680,700,719,739,760],"xSR":741.5,"ySR":449.15000000000003,"xT1":424.9,"yT1":0,"xT2":1058.1,"yT2":0,"toosoon":0,"cond_shown":"equaldotsize","ratio_trial":250,"smaller_num":"6","larger_num":"24","correct_side":2,"subjID":"garielarojasbohorquez13","gender":"1","age":"11","school":"6"},{"start_time":1551883412451,"click_time":1551883413325,"finger_time":1551883412866,"fix_duration":765.3030323281655,"trial":56,"RT":415,"MT":459,"sideResp":2,"stimulus":"img/500/randomdotsizeEA/L/7_Ratio_500_L_10_R_5.png","xmouse":[807,807,807,807,807,807,807,807,807,807,807,807,807,807,807,807,807,807,807,817,841,862,883,906,947,965,1056,1083,1108,1126,1142,1173,1186,1200,1213,1213,1213,1213,1213,1213,1213,1213,1177,1153],"ymouse":[498,498,498,498,498,498,498,498,498,498,498,498,498,498,498,498,498,498,498,481,442,415,388,356,306,286,195,172,148,126,104,63,42,23,6,6,6,6,6,6,6,6,11,29],"timestamp_mouse":[15,47,55,74,95,114,134,155,174,194,215,234,254,274,295,315,334,354,374,394,415,434,455,475,494,515,534,554,574,595,614,634,654,675,694,714,734,755,775,793,814,834,854,874],"xSR":741.5,"ySR":449.15000000000003,"xT1":424.9,"yT1":0,"xT2":1058.1,"yT2":0,"toosoon":0,"cond_shown":"randomdotsizeEA","ratio_trial":500,"smaller_num":"5","larger_num":"10","correct_side":1,"subjID":"garielarojasbohorquez13","gender":"1","age":"11","school":"6"},{"start_time":1551883415989,"click_time":1551883416825,"finger_time":1551883416745,"fix_duration":383.20858981274654,"trial":57,"RT":756,"MT":80,"sideResp":1,"stimulus":"img/900/equaldotsize/R/5_Ratio_900_L_9_R_10.png","xmouse":[790,790,790,790,790,790,790,790,790,790,790,790,790,790,790,790,790,790,790,790,790,790,790,790,790,790,790,790,790,790,790,790,790,790,790,786,772,748,717,582,536,508],"ymouse":[511,511,511,511,511,511,511,511,511,511,511,511,511,511,511,511,511,511,511,511,511,511,511,511,511,511,511,511,511,511,511,511,511,511,511,503,476,432,380,178,115,76],"timestamp_mouse":[24,41,57,76,96,116,137,156,177,197,217,237,257,276,296,316,337,356,377,397,416,437,456,476,496,517,536,556,576,596,616,636,656,677,696,716,737,756,777,796,816,836],"xSR":741.5,"ySR":449.15000000000003,"xT1":424.9,"yT1":0,"xT2":1058.1,"yT2":0,"toosoon":0,"cond_shown":"equaldotsize","ratio_trial":900,"smaller_num":"9","larger_num":"10","correct_side":2,"subjID":"garielarojasbohorquez13","gender":"1","age":"11","school":"6"},{"start_time":1551883418131,"click_time":1551883418826,"finger_time":1551883418746,"fix_duration":543.2165466111936,"trial":58,"RT":615,"MT":80,"sideResp":1,"stimulus":"img/750/equaldotsize/L/14_Ratio_750_L_8_R_6.png","xmouse":[779,779,779,779,779,779,779,779,779,779,779,779,779,779,779,779,779,779,779,779,779,779,779,779,779,779,779,779,773,760,727,673,504,459,427],"ymouse":[485,485,485,485,485,485,485,485,485,485,485,485,485,485,485,485,485,485,485,485,485,485,485,485,485,485,485,485,474,455,403,334,150,110,89],"timestamp_mouse":[14,39,54,74,94,114,134,155,175,195,214,234,254,275,295,314,335,354,375,394,415,435,454,475,495,514,534,555,575,595,615,635,653,674,695],"xSR":741.5,"ySR":449.15000000000003,"xT1":424.9,"yT1":0,"xT2":1058.1,"yT2":0,"toosoon":0,"cond_shown":"equaldotsize","ratio_trial":750,"smaller_num":"6","larger_num":"8","correct_side":1,"subjID":"garielarojasbohorquez13","gender":"1","age":"11","school":"6"},{"start_time":1551883419958,"click_time":1551883421027,"finger_time":1551883420785,"fix_duration":250,"trial":59,"RT":827,"MT":242,"sideResp":2,"stimulus":"img/500/randomdotsizeEA/R/9_Ratio_500_L_2_R_4.png","xmouse":[787,787,787,787,787,787,787,787,787,787,787,787,787,787,787,787,787,787,787,787,787,787,787,787,787,787,787,787,787,787,787,787,787,787,787,787,787,787,787,791,806,845,870,903,938,1003,1029,1050,1066,1077,1090,1095,1104,1117],"ymouse":[489,489,489,489,489,489,489,489,489,489,489,489,489,489,489,489,489,489,489,489,489,489,489,489,489,489,489,489,489,489,489,489,489,489,489,489,489,489,489,487,469,418,388,355,320,257,225,195,174,152,122,113,105,95],"timestamp_mouse":[7,27,50,67,88,107,127,148,167,187,207,226,247,268,288,307,328,347,367,387,407,427,447,467,487,507,528,548,567,588,607,628,648,667,688,707,727,747,767,788,807,827,847,868,887,908,927,947,968,987,1008,1027,1047,1068],"xSR":741.5,"ySR":449.15000000000003,"xT1":424.9,"yT1":0,"xT2":1058.1,"yT2":0,"toosoon":0,"cond_shown":"randomdotsizeEA","ratio_trial":500,"smaller_num":"2","larger_num":"4","correct_side":2,"subjID":"garielarojasbohorquez13","gender":"1","age":"11","school":"6"},{"start_time":1551883422184,"click_time":1551883423266,"finger_time":1551883422946,"fix_duration":417.96456151875674,"trial":60,"RT":762,"MT":320,"sideResp":1,"stimulus":"img/900/equaldotanddens/L/8_Ratio_900_L_20_R_18.png","xmouse":[786,786,786,786,786,786,786,786,786,786,786,786,786,786,786,786,786,786,786,786,786,786,786,786,786,786,786,786,786,786,786,786,786,786,786,786,785,776,757,695,666,639,615,597,568,558,553,550,549,549,546,543,537,527,505],"ymouse":[482,482,482,482,482,482,482,482,482,482,482,482,482,482,482,482,482,482,482,482,482,482,482,482,482,482,482,482,482,482,482,482,482,482,482,482,480,471,444,360,315,271,229,192,127,104,88,78,74,70,57,47,36,24,12],"timestamp_mouse":[12,23,41,61,81,101,122,142,162,182,202,221,241,262,281,301,321,341,361,381,401,421,441,461,481,501,521,541,562,581,601,621,641,661,682,702,721,742,762,783,801,821,841,862,883,901,921,942,961,981,1002,1021,1041,1061,1082],"xSR":741.5,"ySR":449.15000000000003,"xT1":424.9,"yT1":0,"xT2":1058.1,"yT2":0,"toosoon":0,"cond_shown":"equaldotanddens","ratio_trial":900,"smaller_num":"18","larger_num":"20","correct_side":1,"subjID":"garielarojasbohorquez13","gender":"1","age":"11","school":"6"},{"start_time":1551883426137,"click_time":1551883427085,"finger_time":1551883426725,"fix_duration":451.4719019070169,"trial":61,"RT":588,"MT":360,"sideResp":2,"stimulus":"img/750/equaldotsize/R/3_Ratio_750_L_15_R_20.png","xmouse":[826,826,826,826,826,826,826,826,826,826,826,826,826,826,826,826,826,826,826,826,826,826,826,826,826,826,828,832,838,851,864,898,950,976,997,1017,1049,1060,1068,1074,1081,1089,1099,1101,1105,1108,1111,1114],"ymouse":[534,534,534,534,534,534,534,534,534,534,534,534,534,534,534,534,534,534,534,534,534,534,534,534,534,534,529,516,505,491,469,428,356,324,294,270,238,230,219,210,197,177,147,132,122,111,101,82],"timestamp_mouse":[9,32,48,68,89,108,128,148,168,188,209,228,248,269,288,308,328,348,369,389,409,429,449,468,488,508,528,548,568,588,609,628,648,668,689,709,730,748,769,788,809,828,848,868,889,909,928,948],"xSR":741.5,"ySR":449.15000000000003,"xT1":424.9,"yT1":0,"xT2":1058.1,"yT2":0,"toosoon":0,"cond_shown":"equaldotsize","ratio_trial":750,"smaller_num":"15","larger_num":"20","correct_side":2,"subjID":"garielarojasbohorquez13","gender":"1","age":"11","school":"6"},{"start_time":1551883428610,"click_time":1551883429485,"finger_time":1551883429146,"fix_duration":803.397250155096,"trial":62,"RT":536,"MT":339,"sideResp":1,"stimulus":"img/250/equaldotsize/L/2_Ratio_250_L_16_R_4.png","xmouse":[773,773,773,773,773,773,773,773,773,773,773,773,773,773,773,773,773,773,773,773,773,773,773,773,773,768,753,723,668,644,618,594,580,566,563,560,560,560,560,557,550,543,530,524],"ymouse":[494,494,494,494,494,494,494,494,494,494,494,494,494,494,494,494,494,494,494,494,494,494,494,494,492,479,443,389,317,280,243,208,185,153,142,133,126,119,98,86,73,57,39,32],"timestamp_mouse":[16,40,55,75,96,116,136,156,176,195,216,236,256,276,296,315,336,355,376,395,415,435,456,476,495,516,536,555,575,595,615,636,655,675,695,716,736,755,776,795,816,836,856,874],"xSR":741.5,"ySR":449.15000000000003,"xT1":424.9,"yT1":0,"xT2":1058.1,"yT2":0,"toosoon":0,"cond_shown":"equaldotsize","ratio_trial":250,"smaller_num":"4","larger_num":"16","correct_side":1,"subjID":"garielarojasbohorquez13","gender":"1","age":"11","school":"6"},{"start_time":1551883430519,"click_time":1551883431266,"finger_time":1551883430926,"fix_duration":250,"trial":63,"RT":407,"MT":340,"sideResp":2,"stimulus":"img/500/equaldotanddens/R/1_Ratio_500_L_9_R_18.png","xmouse":[775,775,775,775,775,775,775,775,775,775,775,775,775,775,775,775,777,782,814,838,860,876,900,929,945,966,987,1029,1047,1063,1074,1083,1097,1100,1105,1109,1112,1113],"ymouse":[512,512,512,512,512,512,512,512,512,512,512,512,512,512,512,512,512,509,478,460,442,431,413,379,358,328,299,242,218,197,180,164,135,125,116,109,102,91],"timestamp_mouse":[6,31,47,67,86,108,127,147,166,187,207,226,247,267,286,306,326,346,366,386,407,426,447,466,486,506,527,548,566,586,606,626,647,666,686,707,727,747],"xSR":741.5,"ySR":449.15000000000003,"xT1":424.9,"yT1":0,"xT2":1058.1,"yT2":0,"toosoon":0,"cond_shown":"equaldotanddens","ratio_trial":500,"smaller_num":"9","larger_num":"18","correct_side":2,"subjID":"garielarojasbohorquez13","gender":"1","age":"11","school":"6"},{"start_time":1551883433197,"click_time":1551883434225,"finger_time":1551883433786,"fix_duration":1130.3262165173996,"trial":64,"RT":589,"MT":439,"sideResp":2,"stimulus":"img/250/equaldotanddens/R/11_Ratio_250_L_3_R_12.png","xmouse":[770,770,770,770,770,770,770,770,770,770,771,772,772,773,774,774,774,774,774,774,774,774,774,774,774,776,781,791,805,865,900,946,1013,1075,1156,1184,1203,1220,1229,1249,1253,1255,1252,1252,1252,1252,1252,1252,1252,1252,1252,1147],"ymouse":[530,530,530,530,530,530,530,530,530,527,525,523,522,519,513,508,506,504,504,504,504,504,504,504,504,503,497,491,484,442,414,377,330,280,213,183,152,123,102,54,34,14,0,0,0,0,0,0,0,0,0,14],"timestamp_mouse":[8,42,49,69,89,108,128,148,168,188,208,228,249,268,288,309,329,348,369,389,408,428,449,469,488,508,529,548,568,589,608,628,649,668,688,709,728,749,768,788,808,828,849,868,888,909,929,948,970,989,1008,1028],"xSR":741.5,"ySR":449.15000000000003,"xT1":424.9,"yT1":0,"xT2":1058.1,"yT2":0,"toosoon":0,"cond_shown":"equaldotanddens","ratio_trial":250,"smaller_num":"3","larger_num":"12","correct_side":2,"subjID":"garielarojasbohorquez13","gender":"1","age":"11","school":"6"},{"start_time":1551883435499,"click_time":1551883436385,"finger_time":1551883435965,"fix_duration":250,"trial":65,"RT":466,"MT":420,"sideResp":2,"stimulus":"img/750/equaldotsize/L/1_Ratio_750_L_20_R_15.png","xmouse":[793,793,793,793,793,793,793,793,793,793,793,793,793,793,793,793,793,793,793,793,799,807,826,844,874,883,889,899,908,933,947,966,984,1017,1027,1037,1045,1051,1055,1066,1071,1077,1084,1102,1109],"ymouse":[497,497,497,497,497,497,497,497,497,497,497,497,497,497,497,497,497,497,497,497,491,483,470,457,434,428,419,407,391,334,305,276,249,195,174,160,152,145,139,130,126,121,116,103,97],"timestamp_mouse":[10,31,47,67,86,106,127,146,166,187,206,226,247,266,286,307,326,346,367,386,406,426,447,466,486,507,527,546,567,586,607,627,646,667,686,706,726,747,766,786,806,826,846,867,886],"xSR":741.5,"ySR":449.15000000000003,"xT1":424.9,"yT1":0,"xT2":1058.1,"yT2":0,"toosoon":0,"cond_shown":"equaldotsize","ratio_trial":750,"smaller_num":"15","larger_num":"20","correct_side":1,"subjID":"garielarojasbohorquez13","gender":"1","age":"11","school":"6"},{"start_time":1551883437980,"click_time":1551883438967,"finger_time":1551883438646,"fix_duration":531.565827631762,"trial":66,"RT":666,"MT":321,"sideResp":2,"stimulus":"img/500/equaldotanddens/R/2_Ratio_500_L_3_R_6.png","xmouse":[776,776,776,776,776,776,776,776,776,776,776,776,776,776,776,776,776,776,776,776,774,774,773,773,773,773,773,773,773,773,773,773,779,799,826,912,951,988,1025,1085,1092,1092,1092,1094,1097,1102,1102,1104,1106,1110],"ymouse":[485,485,485,485,485,485,485,485,485,485,485,485,485,485,485,485,485,485,485,479,473,471,470,470,470,470,470,470,470,470,470,468,463,447,424,361,332,311,287,234,213,194,172,158,147,121,112,107,100,92],"timestamp_mouse":[8,36,46,66,86,105,126,146,166,185,205,226,246,265,285,305,326,345,365,385,406,426,446,465,485,507,527,545,566,587,607,626,646,666,687,706,726,746,766,787,806,826,846,865,885,905,927,946,965,986],"xSR":741.5,"ySR":449.15000000000003,"xT1":424.9,"yT1":0,"xT2":1058.1,"yT2":0,"toosoon":0,"cond_shown":"equaldotanddens","ratio_trial":500,"smaller_num":"3","larger_num":"6","correct_side":2,"subjID":"garielarojasbohorquez13","gender":"1","age":"11","school":"6"},{"start_time":1551883441043,"click_time":1551883441767,"finger_time":1551883441567,"fix_duration":1335.4138788679834,"trial":67,"RT":524,"MT":200,"sideResp":2,"stimulus":"img/750/randomdotsizeEA/R/11_Ratio_750_L_12_R_16.png","xmouse":[775,775,775,775,775,775,775,775,775,775,775,775,775,775,775,775,775,775,775,775,775,775,775,775,775,778,809,833,863,895,928,1008,1044,1073,1097,1113,1143],"ymouse":[483,483,483,483,483,483,483,483,483,483,483,483,483,483,483,483,483,483,483,483,483,483,483,483,483,478,443,420,397,371,338,255,213,173,138,112,67],"timestamp_mouse":[8,23,43,63,83,103,122,143,162,184,203,222,244,262,283,302,324,342,364,383,404,424,443,463,483,504,524,543,563,583,604,624,643,663,684,702,724],"xSR":741.5,"ySR":449.15000000000003,"xT1":424.9,"yT1":0,"xT2":1058.1,"yT2":0,"toosoon":0,"cond_shown":"randomdotsizeEA","ratio_trial":750,"smaller_num":"12","larger_num":"16","correct_side":2,"subjID":"garielarojasbohorquez13","gender":"1","age":"11","school":"6"},{"start_time":1551883443439,"click_time":1551883444647,"finger_time":1551883443966,"fix_duration":891.3177484485633,"trial":68,"RT":527,"MT":681,"sideResp":2,"stimulus":"img/900/equaldotanddens/R/12_Ratio_900_L_18_R_20.png","xmouse":[752,752,752,752,752,752,752,752,752,752,752,752,752,752,752,752,752,752,752,752,752,752,752,752,752,752,741,720,710,700,690,675,658,653,652,652,651,648,642,631,618,602,595,595,595,595,595,614,638,673,715,762,846,891,903,925,973,1000,1028,1049,1063],"ymouse":[533,533,533,533,533,533,533,533,533,533,533,533,533,533,533,533,533,533,533,533,533,533,533,533,533,532,509,465,439,416,385,353,312,301,296,292,289,272,254,233,214,195,185,185,185,185,185,202,220,244,273,293,310,295,283,246,138,93,61,31,12],"timestamp_mouse":[9,34,47,67,88,108,128,147,168,186,208,226,247,268,286,308,328,347,368,386,408,427,446,468,488,508,527,547,567,587,607,627,647,667,688,706,728,747,767,788,808,827,847,867,887,906,927,947,967,988,1008,1027,1047,1067,1086,1107,1128,1147,1167,1187,1208],"xSR":741.5,"ySR":449.15000000000003,"xT1":424.9,"yT1":0,"xT2":1058.1,"yT2":0,"toosoon":0,"cond_shown":"equaldotanddens","ratio_trial":900,"smaller_num":"18","larger_num":"20","correct_side":2,"subjID":"garielarojasbohorquez13","gender":"1","age":"11","school":"6"},{"start_time":1551883445699,"click_time":1551883446986,"finger_time":1551883446726,"fix_duration":371.33733905470257,"trial":69,"RT":1027,"MT":260,"sideResp":2,"stimulus":"img/750/randomdotsizeEA/L/9_Ratio_750_L_4_R_3.png","xmouse":[796,796,796,796,796,796,796,796,796,796,796,796,796,796,796,796,796,796,796,796,796,796,796,796,796,796,796,796,796,796,796,796,796,796,796,796,796,796,796,793,791,788,787,786,786,786,786,786,786,786,786,789,800,848,883,926,971,1011,1044,1094,1100,1104,1105,1108,1110],"ymouse":[478,478,478,478,478,478,478,478,478,478,478,478,478,478,478,478,478,478,478,478,478,478,478,478,478,478,478,478,478,478,478,478,478,478,478,478,478,478,477,471,462,457,453,451,451,451,451,451,451,451,451,448,441,404,376,345,310,284,251,180,149,127,115,102,88],"timestamp_mouse":[8,34,47,68,87,107,127,147,168,186,207,227,247,266,287,307,328,346,368,387,406,428,447,468,488,507,528,546,568,588,607,627,647,667,688,708,726,748,768,787,806,828,847,867,887,908,928,947,967,988,1008,1027,1047,1068,1087,1107,1126,1147,1167,1187,1208,1228,1248,1267,1287],"xSR":741.5,"ySR":449.15000000000003,"xT1":424.9,"yT1":0,"xT2":1058.1,"yT2":0,"toosoon":0,"cond_shown":"randomdotsizeEA","ratio_trial":750,"smaller_num":"3","larger_num":"4","correct_side":1,"subjID":"garielarojasbohorquez13","gender":"1","age":"11","school":"6"},{"start_time":1551883448480,"click_time":1551883449367,"finger_time":1551883449206,"fix_duration":771.4724716985426,"trial":70,"RT":726,"MT":161,"sideResp":1,"stimulus":"img/250/randomdotsizeEA/L/3_Ratio_250_L_8_R_2.png","xmouse":[794,794,794,794,794,794,794,794,794,794,794,794,794,794,794,794,794,794,794,794,794,794,794,794,794,794,794,794,794,794,794,794,794,794,792,770,749,724,697,670,608,579,549,524,486],"ymouse":[517,517,517,517,517,517,517,517,517,517,517,517,517,517,517,517,517,517,517,517,517,517,517,517,517,517,517,517,517,517,517,517,516,515,503,459,422,377,335,290,207,170,140,115,76],"timestamp_mouse":[8,36,47,66,85,107,127,145,166,186,207,227,247,267,287,306,326,345,366,387,406,426,446,467,486,507,526,546,566,585,606,626,646,667,686,705,726,746,766,786,806,826,845,867,887],"xSR":741.5,"ySR":449.15000000000003,"xT1":424.9,"yT1":0,"xT2":1058.1,"yT2":0,"toosoon":0,"cond_shown":"randomdotsizeEA","ratio_trial":250,"smaller_num":"2","larger_num":"8","correct_side":1,"subjID":"garielarojasbohorquez13","gender":"1","age":"11","school":"6"},{"start_time":1551883450518,"click_time":1551883451506,"finger_time":1551883451206,"fix_duration":250,"trial":71,"RT":688,"MT":300,"sideResp":2,"stimulus":"img/750/randomdotsizeEA/L/8_Ratio_750_L_4_R_3.png","xmouse":[816,816,816,816,816,816,816,816,816,816,816,816,816,816,816,816,816,816,816,816,816,816,816,816,816,816,816,816,816,816,816,816,816,822,828,834,843,862,943,982,1025,1060,1070,1070,1070,1070,1070,1070,1070,1071],"ymouse":[470,470,470,470,470,470,470,470,470,470,470,470,470,470,470,470,470,470,470,470,470,470,470,470,470,470,470,470,470,470,470,470,467,453,447,438,429,416,379,355,319,264,212,190,171,155,141,112,102,95],"timestamp_mouse":[8,27,63,68,88,109,128,149,168,188,208,229,247,269,288,308,329,349,368,388,409,427,449,467,488,507,527,548,569,589,608,628,649,668,688,708,729,749,768,787,808,828,849,868,888,908,928,950,968,988],"xSR":741.5,"ySR":449.15000000000003,"xT1":424.9,"yT1":0,"xT2":1058.1,"yT2":0,"toosoon":0,"cond_shown":"randomdotsizeEA","ratio_trial":750,"smaller_num":"3","larger_num":"4","correct_side":1,"subjID":"garielarojasbohorquez13","gender":"1","age":"11","school":"6"},{"start_time":1551883453106,"click_time":1551883454227,"finger_time":1551883453666,"fix_duration":858.0068423675153,"trial":72,"RT":560,"MT":561,"sideResp":1,"stimulus":"img/250/randomdotsizeEA/L/5_Ratio_250_L_24_R_6.png","xmouse":[793,793,793,793,793,793,793,793,793,793,793,793,793,793,793,793,793,793,793,793,793,793,793,793,793,793,788,779,767,743,726,709,692,655,614,599,588,582,576,571,565,560,554,552,551,549,547,544,538,537,537,537,537,537,535,532,523],"ymouse":[515,515,515,515,515,515,515,515,515,515,515,515,515,515,515,515,515,513,512,510,508,505,503,501,497,492,482,466,442,387,358,317,278,223,160,141,122,111,97,88,79,71,67,65,64,63,62,59,57,57,57,57,57,57,57,54,53],"timestamp_mouse":[8,19,39,60,79,101,121,141,161,181,201,221,240,259,281,301,321,340,360,380,400,420,439,460,481,500,521,540,560,580,600,620,641,660,680,700,720,741,761,780,800,820,841,860,880,900,920,941,961,980,999,1021,1041,1060,1081,1100,1121],"xSR":741.5,"ySR":449.15000000000003,"xT1":424.9,"yT1":0,"xT2":1058.1,"yT2":0,"toosoon":0,"cond_shown":"randomdotsizeEA","ratio_trial":250,"smaller_num":"6","larger_num":"24","correct_side":1,"subjID":"garielarojasbohorquez13","gender":"1","age":"11","school":"6"},{"start_time":1551883456292,"click_time":1551883457027,"finger_time":1551883456587,"fix_duration":885.2319928166833,"trial":73,"RT":295,"MT":440,"sideResp":2,"stimulus":"img/500/randomdotsizeEA/R/12_Ratio_500_L_1_R_2.png","xmouse":[773,773,773,773,773,773,773,773,773,773,773,773,773,789,806,823,837,850,873,878,881,885,889,894,908,917,926,933,951,959,965,975,1007,1018,1080,1108,1124],"ymouse":[466,466,466,466,466,466,466,466,466,466,466,466,465,454,437,422,409,393,362,352,341,337,330,326,311,305,299,292,280,273,262,250,216,201,138,111,87],"timestamp_mouse":[15,39,54,74,93,115,133,155,174,194,215,235,255,275,295,314,334,353,375,394,414,435,453,475,494,514,534,555,575,594,615,634,654,674,694,714,735],"xSR":741.5,"ySR":449.15000000000003,"xT1":424.9,"yT1":0,"xT2":1058.1,"yT2":0,"toosoon":0,"cond_shown":"randomdotsizeEA","ratio_trial":500,"smaller_num":"1","larger_num":"2","correct_side":2,"subjID":"garielarojasbohorquez13","gender":"1","age":"11","school":"6"},{"start_time":1551883458981,"click_time":1551883459946,"finger_time":1551883459825,"fix_duration":1293.6211557180534,"trial":74,"RT":844,"MT":121,"sideResp":2,"stimulus":"img/750/equaldotsize/R/5_Ratio_750_L_15_R_20.png","xmouse":[758,758,758,758,758,758,758,758,758,758,758,758,758,758,758,758,758,758,758,758,758,758,758,758,758,758,758,758,758,758,758,758,758,758,758,758,758,758,758,759,789,814,853,895,946,1042,1066,1080,1090],"ymouse":[516,516,516,516,516,516,516,516,516,516,516,516,516,516,516,516,516,516,516,516,516,516,516,516,516,516,516,516,516,516,516,516,516,516,516,516,516,516,516,514,491,468,429,382,314,176,139,108,85],"timestamp_mouse":[10,36,45,66,86,105,126,146,166,185,205,225,245,265,284,306,325,346,364,386,406,424,446,465,486,506,526,545,565,585,605,625,645,665,686,705,726,745,766,785,805,825,844,864,885,905,925,946,965],"xSR":741.5,"ySR":449.15000000000003,"xT1":424.9,"yT1":0,"xT2":1058.1,"yT2":0,"toosoon":0,"cond_shown":"equaldotsize","ratio_trial":750,"smaller_num":"15","larger_num":"20","correct_side":2,"subjID":"garielarojasbohorquez13","gender":"1","age":"11","school":"6"},{"start_time":1551883463728,"click_time":1551883464707,"finger_time":1551883464466,"fix_duration":1458.6393805773853,"trial":75,"RT":738,"MT":241,"sideResp":2,"stimulus":"img/500/randomdotsizeEA/R/3_Ratio_500_L_10_R_20.png","xmouse":[779,779,780,780,780,780,780,780,780,780,780,780,780,780,780,780,780,780,780,780,780,780,780,780,780,780,780,780,780,780,780,780,780,783,797,818,844,916,959,994,1033,1050,1075,1084,1092,1099,1106,1121,1126],"ymouse":[520,519,517,517,517,517,517,517,517,517,517,517,517,517,517,517,517,517,517,517,517,517,517,517,517,517,517,517,517,517,517,517,517,513,505,493,477,429,395,362,310,273,219,196,175,154,139,103,85],"timestamp_mouse":[18,38,58,77,97,118,138,159,178,197,218,239,258,277,299,319,337,359,378,399,418,438,459,477,498,518,537,559,578,598,619,638,657,678,698,719,738,758,779,798,819,837,857,879,899,918,938,958,979],"xSR":741.5,"ySR":449.15000000000003,"xT1":424.9,"yT1":0,"xT2":1058.1,"yT2":0,"toosoon":0,"cond_shown":"randomdotsizeEA","ratio_trial":500,"smaller_num":"10","larger_num":"20","correct_side":2,"subjID":"garielarojasbohorquez13","gender":"1","age":"11","school":"6"},{"start_time":1551883465767,"click_time":155188