[{"start_time":1551800546986,"click_time":1551800548582,"finger_time":1551800547080,"fix_duration":561.1724840388615,"trial":0,"RT":94,"MT":1502,"sideResp":1,"stimulus":[],"xmouse":[746,746,746,747,748,745,738,734,733,733,733,733,731,730,715,702,687,668,639,579,569,568,568,568,568,569,570,571,571,580,614,640,663,674,682,682,682,682,682,682,682,683,684,687,703,715,730,744,756,781,791,801,810,817,828,829,831,833,834,835,828,814,796,776,737,715,696,678,659,646,625,619,616,613,611,601,588,563,538,504],"ymouse":[505,505,505,498,458,435,422,417,416,416,416,416,415,413,397,381,359,331,289,209,194,192,192,192,192,191,191,191,191,218,310,365,400,416,425,425,425,425,425,425,425,425,425,425,425,428,430,434,437,446,450,453,455,457,459,459,459,457,453,434,418,400,383,371,347,336,328,319,312,306,298,296,296,295,295,281,256,209,152,86],"timestamp_mouse":[14,35,54,76,94,115,135,155,174,196,216,235,255,275,296,315,335,356,375,395,415,435,455,475,495,515,535,556,575,596,615,635,656,676,695,716,736,756,775,796,816,836,856,876,896,915,934,955,976,995,1015,1035,1055,1075,1096,1115,1135,1155,1176,1195,1215,1235,1256,1275,1296,1315,1335,1354,1375,1395,1415,1435,1455,1474,1495,1516,1535,1556,1575,1594],"xSR":741.5,"ySR":469.95,"xT1":424.9,"yT1":0,"xT2":1058.1,"yT2":0,"toosoon":0,"cond_shown":"Congruent","ratio_trial":300,"L_num":4,"L_den":20,"R_num":13,"R_den":26,"correct_side":2,"subjID":"GabrielaTopaÑustes3","gender":"1","age":"12","school":"6","test":{"fix_dur":[250,1500],"timestim":1000,"targets_dim":[100,100],"targets_relative_coord":[0.3,0.7],"size_stim":[880,420],"start_dim":[100,100],"size_start":[300,300],"size_fix":60,"samplingrate":20,"img_types":["Congruent","Incongruent"],"ratios":[100,200,300],"rep_conds":19,"nTrials":120,"trials_to_rest":500,"Trials_order":[52,19,114,11,116,75,104,21,46,82,79,57,38,26,97,30,10,47,13,119,60,63,105,24,4,65,74,15,77,44,81,49,5,53,25,102,106,3,85,37,108,78,101,7,71,95,92,29,109,90,1,18,84,2,88,107,54,35,66,62,94,28,99,89,45,73,103,43,117,58,23,76,16,0,9,96,93,14,56,20,34,22,87,72,48,110,67,70,32,61,36,51,59,83,42,91,55,111,80,50,100,41,69,12,118,86,33,113,115,17,40,64,6,112,98,31,8,68,27,39],"cond_shown":["Congruent","Incongruent","Congruent","Incongruent","Congruent","Incongruent","Congruent","Incongruent","Congruent","Congruent","Incongruent","Incongruent","Congruent","Congruent","Incongruent","Congruent","Congruent","Incongruent","Incongruent","Incongruent","Congruent","Incongruent","Incongruent","Congruent","Congruent","Incongruent","Congruent","Incongruent","Incongruent","Congruent","Incongruent","Incongruent","Incongruent","Incongruent","Incongruent","Congruent","Congruent","Incongruent","Incongruent","Incongruent","Congruent","Congruent","Incongruent","Incongruent","Incongruent","Incongruent","Congruent","Incongruent","Incongruent","Congruent","Incongruent","Congruent","Congruent","Congruent","Congruent","Incongruent","Congruent","Incongruent","Congruent","Congruent","Congruent","Congruent","Incongruent","Incongruent","Incongruent","Incongruent","Incongruent","Incongruent","Incongruent","Congruent","Incongruent","Congruent","Congruent","Congruent","Incongruent","Congruent","Incongruent","Congruent","Congruent","Congruent","Congruent","Congruent","Incongruent","Congruent","Congruent","Congruent","Incongruent","Congruent","Congruent","Incongruent","Congruent","Incongruent","Incongruent","Incongruent","Congruent","Incongruent","Incongruent","Incongruent","Congruent","Congruent","Congruent","Incongruent","Incongruent","Congruent","Congruent","Congruent","Incongruent","Incongruent","Incongruent","Incongruent","Congruent","Congruent","Congruent","Congruent","Congruent","Incongruent","Congruent","Congruent","Incongruent","Incongruent"],"ratio_trial":[300,100,100,300,200,200,200,200,300,300,100,200,200,200,100,100,300,300,100,300,100,200,200,100,300,300,200,200,300,200,200,100,300,300,100,100,300,200,100,100,100,100,300,100,300,300,200,300,100,100,100,100,100,200,300,300,100,300,100,200,300,300,200,300,200,100,100,100,200,300,300,300,300,100,200,100,200,200,200,200,300,300,200,100,100,200,100,300,200,100,100,200,300,300,100,100,100,200,200,200,300,300,200,100,300,200,200,300,100,300,300,300,100,300,200,100,200,200,200,200],"left_num":[4,8,9,8,21,7,6,1,4,11,9,4,20,8,13,2,7,7,3,13,2,7,7,6,4,4,7,1,7,12,7,3,13,4,12,7,7,11,13,12,8,2,13,6,1,1,3,1,12,2,1,9,3,6,8,4,8,4,11,3,5,12,3,13,3,12,2,9,7,3,13,20,24,9,7,6,9,6,12,3,2,1,11,11,1,6,9,20,3,9,3,7,1,4,9,9,13,7,3,8,3,8,3,7,3,6,14,1,3,4,3,20,4,11,9,9,12,16,11,14],"right_num":[13,6,8,9,2,8,11,2,1,4,20,1,9,2,12,6,20,8,11,12,6,6,14,15,13,8,18,3,8,6,4,8,12,2,9,9,20,3,12,9,2,6,12,3,3,2,9,2,2,11,8,8,2,7,10,8,2,2,6,7,7,2,11,12,11,9,6,13,6,2,12,5,8,8,12,15,8,7,6,11,10,8,3,4,3,11,20,14,7,20,2,4,3,6,8,14,6,8,9,3,11,9,11,15,4,7,12,3,4,2,2,14,15,1,13,13,6,12,3,12],"left_den":[20,16,15,10,30,10,20,3,10,22,10,30,25,15,26,5,14,10,5,26,5,15,10,12,20,5,15,2,10,20,15,5,26,20,24,14,14,20,26,24,16,5,26,12,2,2,12,2,30,5,2,15,6,12,15,5,16,20,22,10,25,24,4,26,4,24,4,15,15,6,26,25,30,15,10,12,15,12,20,10,20,30,20,22,2,20,10,25,10,10,6,15,2,5,15,15,26,10,12,15,12,10,4,14,6,12,30,2,6,20,6,25,10,22,30,15,15,20,20,30],"right_den":[26,10,16,18,4,16,22,15,10,20,25,3,15,6,20,12,25,20,22,15,12,9,28,25,26,16,27,10,20,15,6,16,15,4,15,15,25,4,20,15,5,12,15,5,15,10,20,10,4,22,20,16,5,10,12,16,5,4,15,14,14,10,20,15,20,15,15,26,9,10,15,10,16,16,24,25,10,10,15,22,25,24,4,10,5,22,25,28,14,25,5,6,15,12,16,28,10,16,20,9,20,18,20,25,5,10,18,15,10,4,10,28,30,5,26,26,10,20,4,18],"correct_side":[2,2,1,1,1,1,2,1,1,1,1,2,1,1,2,2,2,1,1,2,2,2,1,2,2,1,2,1,1,1,2,1,2,2,2,2,2,2,2,2,1,2,2,2,1,1,2,1,2,2,1,1,1,2,2,1,1,2,1,2,2,1,1,2,1,2,1,1,2,1,2,1,1,1,1,2,2,2,1,2,2,2,2,1,2,2,1,1,2,1,1,2,1,1,1,1,2,1,2,1,2,1,1,2,2,2,2,1,1,2,1,1,2,1,2,1,1,1,2,2],"img_shown":["img2/300/Congruent/R/C_Dist_300_LN_4_LD_20_RN_13_RD_26_1.png","img2/100/Incongruent/R/I_Dist_100_LN_8_LD_16_RN_6_RD_10_1.png","img2/100/Congruent/L/C_Dist_100_LN_9_LD_15_RN_8_RD_16_0.png","img2/300/Incongruent/L/I_Dist_300_LN_8_LD_10_RN_9_RD_18_0.png","img2/200/Congruent/L/C_Dist_200_LN_21_LD_30_RN_2_RD_4_0.png","img2/200/Incongruent/L/I_Dist_200_LN_7_LD_10_RN_8_RD_16_0.png","img2/200/Congruent/R/C_Dist_200_LN_6_LD_20_RN_11_RD_22_1.png","img2/200/Incongruent/L/I_Dist_200_LN_1_LD_3_RN_2_RD_15_0.png","img2/300/Congruent/L/C_Dist_300_LN_4_LD_10_RN_1_RD_10_0.png","img2/300/Congruent/L/C_Dist_300_LN_11_LD_22_RN_4_RD_20_0.png","img2/100/Incongruent/L/I_Dist_100_LN_9_LD_10_RN_20_RD_25_0.png","img2/200/Incongruent/R/I_Dist_200_LN_4_LD_30_RN_1_RD_3_1.png","img2/200/Congruent/L/C_Dist_200_LN_20_LD_25_RN_9_RD_15_0.png","img2/200/Congruent/L/C_Dist_200_LN_8_LD_15_RN_2_RD_6_0.png","img2/100/Incongruent/R/I_Dist_100_LN_13_LD_26_RN_12_RD_20_1.png","img2/100/Congruent/R/C_Dist_100_LN_2_LD_5_RN_6_RD_12_1.png","img2/300/Congruent/R/C_Dist_300_LN_7_LD_14_RN_20_RD_25_1.png","img2/300/Incongruent/L/I_Dist_300_LN_7_LD_10_RN_8_RD_20_0.png","img2/100/Incongruent/L/I_Dist_100_LN_3_LD_5_RN_11_RD_22_0.png","img2/300/Incongruent/R/I_Dist_300_LN_13_LD_26_RN_12_RD_15_1.png","img2/100/Congruent/R/C_Dist_100_LN_2_LD_5_RN_6_RD_12_1.png","img2/200/Incongruent/R/I_Dist_200_LN_7_LD_15_RN_6_RD_9_1.png","img2/200/Incongruent/L/I_Dist_200_LN_7_LD_10_RN_14_RD_28_0.png","img2/100/Congruent/R/C_Dist_100_LN_6_LD_12_RN_15_RD_25_1.png","img2/300/Congruent/R/C_Dist_300_LN_4_LD_20_RN_13_RD_26_1.png","img2/300/Incongruent/L/I_Dist_300_LN_4_LD_5_RN_8_RD_16_0.png","img2/200/Congruent/R/C_Dist_200_LN_7_LD_15_RN_18_RD_27_1.png","img2/200/Incongruent/L/I_Dist_200_LN_1_LD_2_RN_3_RD_10_0.png","img2/300/Incongruent/L/I_Dist_300_LN_7_LD_10_RN_8_RD_20_0.png","img2/200/Congruent/L/C_Dist_200_LN_12_LD_20_RN_6_RD_15_0.png","img2/200/Incongruent/R/I_Dist_200_LN_7_LD_15_RN_4_RD_6_1.png","img2/100/Incongruent/L/I_Dist_100_LN_3_LD_5_RN_8_RD_16_0.png","img2/300/Incongruent/R/I_Dist_300_LN_13_LD_26_RN_12_RD_15_1.png","img2/300/Incongruent/R/I_Dist_300_LN_4_LD_20_RN_2_RD_4_1.png","img2/100/Incongruent/R/I_Dist_100_LN_12_LD_24_RN_9_RD_15_1.png","img2/100/Congruent/R/C_Dist_100_LN_7_LD_14_RN_9_RD_15_1.png","img2/300/Congruent/R/C_Dist_300_LN_7_LD_14_RN_20_RD_25_1.png","img2/200/Incongruent/R/I_Dist_200_LN_11_LD_20_RN_3_RD_4_1.png","img2/100/Incongruent/R/I_Dist_100_LN_13_LD_26_RN_12_RD_20_1.png","img2/100/Incongruent/R/I_Dist_100_LN_12_LD_24_RN_9_RD_15_1.png","img2/100/Congruent/L/C_Dist_100_LN_8_LD_16_RN_2_RD_5_0.png","img2/100/Congruent/R/C_Dist_100_LN_2_LD_5_RN_6_RD_12_1.png","img2/300/Incongruent/R/I_Dist_300_LN_13_LD_26_RN_12_RD_15_1.png","img2/100/Incongruent/R/I_Dist_100_LN_6_LD_12_RN_3_RD_5_1.png","img2/300/Incongruent/L/I_Dist_300_LN_1_LD_2_RN_3_RD_15_0.png","img2/300/Incongruent/L/I_Dist_300_LN_1_LD_2_RN_2_RD_10_0.png","img2/200/Congruent/R/C_Dist_200_LN_3_LD_12_RN_9_RD_20_1.png","img2/300/Incongruent/L/I_Dist_300_LN_1_LD_2_RN_2_RD_10_0.png","img2/100/Incongruent/R/I_Dist_100_LN_12_LD_30_RN_2_RD_4_1.png","img2/100/Congruent/R/C_Dist_100_LN_2_LD_5_RN_11_RD_22_1.png","img2/100/Incongruent/L/I_Dist_100_LN_1_LD_2_RN_8_RD_20_0.png","img2/100/Congruent/L/C_Dist_100_LN_9_LD_15_RN_8_RD_16_0.png","img2/100/Congruent/L/C_Dist_100_LN_3_LD_6_RN_2_RD_5_0.png","img2/200/Congruent/R/C_Dist_200_LN_6_LD_12_RN_7_RD_10_1.png","img2/300/Congruent/R/C_Dist_300_LN_8_LD_15_RN_10_RD_12_1.png","img2/300/Incongruent/L/I_Dist_300_LN_4_LD_5_RN_8_RD_16_0.png","img2/100/Congruent/L/C_Dist_100_LN_8_LD_16_RN_2_RD_5_0.png","img2/300/Incongruent/R/I_Dist_300_LN_4_LD_20_RN_2_RD_4_1.png","img2/100/Congruent/L/C_Dist_100_LN_11_LD_22_RN_6_RD_15_0.png","img2/200/Congruent/R/C_Dist_200_LN_3_LD_10_RN_7_RD_14_1.png","img2/300/Congruent/R/C_Dist_300_LN_5_LD_25_RN_7_RD_14_1.png","img2/300/Congruent/L/C_Dist_300_LN_12_LD_24_RN_2_RD_10_0.png","img2/200/Incongruent/L/I_Dist_200_LN_3_LD_4_RN_11_RD_20_0.png","img2/300/Incongruent/R/I_Dist_300_LN_13_LD_26_RN_12_RD_15_1.png","img2/200/Incongruent/L/I_Dist_200_LN_3_LD_4_RN_11_RD_20_0.png","img2/100/Incongruent/R/I_Dist_100_LN_12_LD_24_RN_9_RD_15_1.png","img2/100/Incongruent/L/I_Dist_100_LN_2_LD_4_RN_6_RD_15_0.png","img2/100/Incongruent/L/I_Dist_100_LN_9_LD_15_RN_13_RD_26_0.png","img2/200/Incongruent/R/I_Dist_200_LN_7_LD_15_RN_6_RD_9_1.png","img2/300/Congruent/L/C_Dist_300_LN_3_LD_6_RN_2_RD_10_0.png","img2/300/Incongruent/R/I_Dist_300_LN_13_LD_26_RN_12_RD_15_1.png","img2/300/Congruent/L/C_Dist_300_LN_20_LD_25_RN_5_RD_10_0.png","img2/300/Congruent/L/C_Dist_300_LN_24_LD_30_RN_8_RD_16_0.png","img2/100/Congruent/L/C_Dist_100_LN_9_LD_15_RN_8_RD_16_0.png","img2/200/Incongruent/L/I_Dist_200_LN_7_LD_10_RN_12_RD_24_0.png","img2/100/Congruent/R/C_Dist_100_LN_6_LD_12_RN_15_RD_25_1.png","img2/200/Incongruent/R/I_Dist_200_LN_9_LD_15_RN_8_RD_10_1.png","img2/200/Congruent/R/C_Dist_200_LN_6_LD_12_RN_7_RD_10_1.png","img2/200/Congruent/L/C_Dist_200_LN_12_LD_20_RN_6_RD_15_0.png","img2/200/Congruent/R/C_Dist_200_LN_3_LD_10_RN_11_RD_22_1.png","img2/300/Congruent/R/C_Dist_300_LN_2_LD_20_RN_10_RD_25_1.png","img2/300/Congruent/R/C_Dist_300_LN_1_LD_30_RN_8_RD_24_1.png","img2/200/Incongruent/R/I_Dist_200_LN_11_LD_20_RN_3_RD_4_1.png","img2/100/Congruent/L/C_Dist_100_LN_11_LD_22_RN_4_RD_10_0.png","img2/100/Congruent/R/C_Dist_100_LN_1_LD_2_RN_3_RD_5_1.png","img2/200/Congruent/R/C_Dist_200_LN_6_LD_20_RN_11_RD_22_1.png","img2/100/Incongruent/L/I_Dist_100_LN_9_LD_10_RN_20_RD_25_0.png","img2/300/Congruent/L/C_Dist_300_LN_20_LD_25_RN_14_RD_28_0.png","img2/200/Congruent/R/C_Dist_200_LN_3_LD_10_RN_7_RD_14_1.png","img2/100/Incongruent/L/I_Dist_100_LN_9_LD_10_RN_20_RD_25_0.png","img2/100/Congruent/L/C_Dist_100_LN_3_LD_6_RN_2_RD_5_0.png","img2/200/Incongruent/R/I_Dist_200_LN_7_LD_15_RN_4_RD_6_1.png","img2/300/Incongruent/L/I_Dist_300_LN_1_LD_2_RN_3_RD_15_0.png","img2/300/Incongruent/L/I_Dist_300_LN_4_LD_5_RN_6_RD_12_0.png","img2/100/Congruent/L/C_Dist_100_LN_9_LD_15_RN_8_RD_16_0.png","img2/100/Incongruent/L/I_Dist_100_LN_9_LD_15_RN_14_RD_28_0.png","img2/100/Incongruent/R/I_Dist_100_LN_13_LD_26_RN_6_RD_10_1.png","img2/200/Incongruent/L/I_Dist_200_LN_7_LD_10_RN_8_RD_16_0.png","img2/200/Congruent/R/C_Dist_200_LN_3_LD_12_RN_9_RD_20_1.png","img2/200/Congruent/L/C_Dist_200_LN_8_LD_15_RN_3_RD_9_0.png","img2/300/Congruent/R/C_Dist_300_LN_3_LD_12_RN_11_RD_20_1.png","img2/300/Incongruent/L/I_Dist_300_LN_8_LD_10_RN_9_RD_18_0.png","img2/200/Incongruent/L/I_Dist_200_LN_3_LD_4_RN_11_RD_20_0.png","img2/100/Congruent/R/C_Dist_100_LN_7_LD_14_RN_15_RD_25_1.png","img2/300/Congruent/R/C_Dist_300_LN_3_LD_6_RN_4_RD_5_1.png","img2/200/Congruent/R/C_Dist_200_LN_6_LD_12_RN_7_RD_10_1.png","img2/200/Incongruent/R/I_Dist_200_LN_14_LD_30_RN_12_RD_18_1.png","img2/300/Incongruent/L/I_Dist_300_LN_1_LD_2_RN_3_RD_15_0.png","img2/100/Incongruent/L/I_Dist_100_LN_3_LD_6_RN_4_RD_10_0.png","img2/300/Incongruent/R/I_Dist_300_LN_4_LD_20_RN_2_RD_4_1.png","img2/300/Congruent/L/C_Dist_300_LN_3_LD_6_RN_2_RD_10_0.png","img2/300/Congruent/L/C_Dist_300_LN_20_LD_25_RN_14_RD_28_0.png","img2/100/Congruent/R/C_Dist_100_LN_4_LD_10_RN_15_RD_30_1.png","img2/300/Congruent/L/C_Dist_300_LN_11_LD_22_RN_1_RD_5_0.png","img2/200/Congruent/R/C_Dist_200_LN_9_LD_30_RN_13_RD_26_1.png","img2/100/Incongruent/L/I_Dist_100_LN_9_LD_15_RN_13_RD_26_0.png","img2/200/Congruent/L/C_Dist_200_LN_12_LD_15_RN_6_RD_10_0.png","img2/200/Congruent/L/C_Dist_200_LN_16_LD_20_RN_12_RD_20_0.png","img2/200/Incongruent/R/I_Dist_200_LN_11_LD_20_RN_3_RD_4_1.png","img2/200/Incongruent/R/I_Dist_200_LN_14_LD_30_RN_12_RD_18_1.png"],"dist100_C":[["C_Dist_100_LN_10_LD_25_RN_3_RD_10_0.png","C_Dist_100_LN_11_LD_22_RN_4_RD_10_0.png","C_Dist_100_LN_11_LD_22_RN_6_RD_15_0.png","C_Dist_100_LN_15_LD_25_RN_13_RD_26_0.png","C_Dist_100_LN_3_LD_6_RN_2_RD_5_0.png","C_Dist_100_LN_6_LD_20_RN_5_RD_25_0.png","C_Dist_100_LN_8_LD_16_RN_2_RD_5_0.png","C_Dist_100_LN_9_LD_15_RN_8_RD_16_0.png"],["C_Dist_100_LN_1_LD_2_RN_18_RD_30_1.png","C_Dist_100_LN_1_LD_2_RN_3_RD_5_1.png","C_Dist_100_LN_12_LD_30_RN_13_RD_26_1.png","C_Dist_100_LN_2_LD_5_RN_11_RD_22_1.png","C_Dist_100_LN_2_LD_5_RN_6_RD_12_1.png","C_Dist_100_LN_3_LD_20_RN_4_RD_16_1.png","C_Dist_100_LN_4_LD_10_RN_15_RD_30_1.png","C_Dist_100_LN_4_LD_8_RN_6_RD_10_1.png","C_Dist_100_LN_6_LD_12_RN_15_RD_25_1.png","C_Dist_100_LN_7_LD_14_RN_15_RD_25_1.png","C_Dist_100_LN_7_LD_14_RN_9_RD_15_1.png"]],"dist100_I":[["I_Dist_100_LN_1_LD_2_RN_8_RD_20_0.png","I_Dist_100_LN_2_LD_4_RN_6_RD_15_0.png","I_Dist_100_LN_2_LD_4_RN_8_RD_20_0.png","I_Dist_100_LN_3_LD_5_RN_11_RD_22_0.png","I_Dist_100_LN_3_LD_5_RN_8_RD_16_0.png","I_Dist_100_LN_3_LD_6_RN_4_RD_10_0.png","I_Dist_100_LN_3_LD_9_RN_7_RD_30_0.png","I_Dist_100_LN_4_LD_8_RN_8_RD_20_0.png","I_Dist_100_LN_6_LD_10_RN_11_RD_22_0.png","I_Dist_100_LN_6_LD_10_RN_13_RD_26_0.png","I_Dist_100_LN_6_LD_10_RN_7_RD_14_0.png","I_Dist_100_LN_9_LD_10_RN_20_RD_25_0.png","I_Dist_100_LN_9_LD_15_RN_13_RD_26_0.png","I_Dist_100_LN_9_LD_15_RN_14_RD_28_0.png"],["I_Dist_100_LN_10_LD_25_RN_8_RD_16_1.png","I_Dist_100_LN_10_LD_25_RN_9_RD_18_1.png","I_Dist_100_LN_11_LD_22_RN_9_RD_15_1.png","I_Dist_100_LN_12_LD_24_RN_9_RD_15_1.png","I_Dist_100_LN_12_LD_30_RN_2_RD_4_1.png","I_Dist_100_LN_13_LD_26_RN_12_RD_20_1.png","I_Dist_100_LN_13_LD_26_RN_6_RD_10_1.png","I_Dist_100_LN_17_LD_30_RN_10_RD_15_1.png","I_Dist_100_LN_6_LD_12_RN_3_RD_5_1.png","I_Dist_100_LN_8_LD_16_RN_6_RD_10_1.png","I_Dist_100_LN_8_LD_20_RN_1_RD_2_1.png","I_Dist_100_LN_9_LD_18_RN_6_RD_10_1.png"]],"dist100_S":[["E_Dist_100_LN_2_LD_12_RN_2_RD_30_0.png","E_Dist_100_LN_6_LD_10_RN_6_RD_12_0.png"],["E_Dist_100_LN_6_LD_12_RN_6_RD_10_1.png"]],"dist200_C":[["C_Dist_200_LN_11_LD_22_RN_3_RD_10_0.png","C_Dist_200_LN_12_LD_15_RN_6_RD_10_0.png","C_Dist_200_LN_12_LD_20_RN_6_RD_15_0.png","C_Dist_200_LN_14_LD_28_RN_6_RD_20_0.png","C_Dist_200_LN_15_LD_25_RN_4_RD_10_0.png","C_Dist_200_LN_16_LD_20_RN_12_RD_20_0.png","C_Dist_200_LN_16_LD_30_RN_9_RD_27_0.png","C_Dist_200_LN_20_LD_25_RN_9_RD_15_0.png","C_Dist_200_LN_21_LD_30_RN_2_RD_4_0.png","C_Dist_200_LN_4_LD_10_RN_3_RD_15_0.png","C_Dist_200_LN_4_LD_8_RN_3_RD_10_0.png","C_Dist_200_LN_6_LD_15_RN_3_RD_15_0.png","C_Dist_200_LN_7_LD_21_RN_2_RD_15_0.png","C_Dist_200_LN_8_LD_15_RN_2_RD_6_0.png","C_Dist_200_LN_8_LD_15_RN_3_RD_9_0.png","C_Dist_200_LN_8_LD_15_RN_7_RD_21_0.png","C_Dist_200_LN_9_LD_20_RN_4_RD_16_0.png"],["C_Dist_200_LN_1_LD_2_RN_21_RD_30_1.png","C_Dist_200_LN_13_LD_26_RN_14_RD_20_1.png","C_Dist_200_LN_3_LD_10_RN_11_RD_22_1.png","C_Dist_200_LN_3_LD_10_RN_14_RD_28_1.png","C_Dist_200_LN_3_LD_10_RN_7_RD_14_1.png","C_Dist_200_LN_3_LD_12_RN_9_RD_20_1.png","C_Dist_200_LN_3_LD_6_RN_14_RD_20_1.png","C_Dist_200_LN_5_LD_10_RN_14_RD_20_1.png","C_Dist_200_LN_6_LD_12_RN_7_RD_10_1.png","C_Dist_200_LN_6_LD_20_RN_11_RD_22_1.png","C_Dist_200_LN_7_LD_15_RN_18_RD_27_1.png","C_Dist_200_LN_9_LD_30_RN_13_RD_26_1.png"]],"dist200_I":[["I_Dist_200_LN_1_LD_2_RN_3_RD_10_0.png","I_Dist_200_LN_1_LD_3_RN_2_RD_15_0.png","I_Dist_200_LN_3_LD_4_RN_11_RD_20_0.png","I_Dist_200_LN_4_LD_5_RN_6_RD_10_0.png","I_Dist_200_LN_4_LD_6_RN_14_RD_30_0.png","I_Dist_200_LN_7_LD_10_RN_12_RD_24_0.png","I_Dist_200_LN_7_LD_10_RN_14_RD_28_0.png","I_Dist_200_LN_7_LD_10_RN_8_RD_16_0.png"],["I_Dist_200_LN_11_LD_20_RN_3_RD_4_1.png","I_Dist_200_LN_14_LD_30_RN_12_RD_18_1.png","I_Dist_200_LN_14_LD_30_RN_6_RD_9_1.png","I_Dist_200_LN_3_LD_10_RN_1_RD_2_1.png","I_Dist_200_LN_4_LD_30_RN_1_RD_3_1.png","I_Dist_200_LN_6_LD_20_RN_3_RD_6_1.png","I_Dist_200_LN_7_LD_15_RN_4_RD_6_1.png","I_Dist_200_LN_7_LD_15_RN_6_RD_9_1.png","I_Dist_200_LN_9_LD_15_RN_8_RD_10_1.png"]],"dist200_S":[["E_Dist_200_LN_3_LD_6_RN_3_RD_10_0.png"],["E_Dist_200_LN_3_LD_10_RN_3_RD_6_1.png"]],"dist300_C":[["C_Dist_300_LN_11_LD_22_RN_1_RD_5_0.png","C_Dist_300_LN_11_LD_22_RN_2_RD_10_0.png","C_Dist_300_LN_11_LD_22_RN_4_RD_20_0.png","C_Dist_300_LN_12_LD_24_RN_2_RD_10_0.png","C_Dist_300_LN_18_LD_20_RN_9_RD_15_0.png","C_Dist_300_LN_20_LD_25_RN_13_RD_26_0.png","C_Dist_300_LN_20_LD_25_RN_14_RD_28_0.png","C_Dist_300_LN_20_LD_25_RN_5_RD_10_0.png","C_Dist_300_LN_20_LD_25_RN_8_RD_16_0.png","C_Dist_300_LN_20_LD_25_RN_9_RD_18_0.png","C_Dist_300_LN_24_LD_30_RN_2_RD_4_0.png","C_Dist_300_LN_24_LD_30_RN_8_RD_16_0.png","C_Dist_300_LN_3_LD_6_RN_2_RD_10_0.png","C_Dist_300_LN_4_LD_10_RN_1_RD_10_0.png","C_Dist_300_LN_4_LD_5_RN_2_RD_4_0.png","C_Dist_300_LN_8_LD_16_RN_1_RD_5_0.png","C_Dist_300_LN_9_LD_10_RN_3_RD_5_0.png"],["C_Dist_300_LN_1_LD_20_RN_7_RD_20_1.png","C_Dist_300_LN_1_LD_3_RN_19_RD_30_1.png","C_Dist_300_LN_1_LD_30_RN_8_RD_24_1.png","C_Dist_300_LN_1_LD_5_RN_11_RD_22_1.png","C_Dist_300_LN_1_LD_5_RN_3_RD_6_1.png","C_Dist_300_LN_1_LD_5_RN_6_RD_12_1.png","C_Dist_300_LN_2_LD_10_RN_12_RD_24_1.png","C_Dist_300_LN_2_LD_20_RN_10_RD_25_1.png","C_Dist_300_LN_3_LD_12_RN_11_RD_20_1.png","C_Dist_300_LN_3_LD_6_RN_4_RD_5_1.png","C_Dist_300_LN_4_LD_20_RN_13_RD_26_1.png","C_Dist_300_LN_5_LD_25_RN_6_RD_12_1.png","C_Dist_300_LN_5_LD_25_RN_7_RD_14_1.png","C_Dist_300_LN_7_LD_14_RN_20_RD_25_1.png","C_Dist_300_LN_8_LD_15_RN_10_RD_12_1.png"]],"dist300_I":[["I_Dist_300_LN_1_LD_2_RN_2_RD_10_0.png","I_Dist_300_LN_1_LD_2_RN_3_RD_15_0.png","I_Dist_300_LN_2_LD_4_RN_6_RD_30_0.png","I_Dist_300_LN_3_LD_6_RN_4_RD_20_0.png","I_Dist_300_LN_4_LD_5_RN_6_RD_12_0.png","I_Dist_300_LN_4_LD_5_RN_8_RD_16_0.png","I_Dist_300_LN_7_LD_10_RN_8_RD_20_0.png","I_Dist_300_LN_8_LD_10_RN_14_RD_28_0.png","I_Dist_300_LN_8_LD_10_RN_9_RD_18_0.png"],["I_Dist_300_LN_13_LD_26_RN_12_RD_15_1.png","I_Dist_300_LN_4_LD_20_RN_2_RD_4_1.png"]],"dist300_S":[["E_Dist_300_LN_9_LD_12_RN_9_RD_20_0.png"],["E_Dist_300_LN_18_LD_30_RN_18_RD_20_1.png","E_Dist_300_LN_3_LD_10_RN_3_RD_5_1.png","E_Dist_300_LN_9_LD_20_RN_9_RD_12_1.png"]],"dist500_C":[["C_Dist_500_LN_10_LD_13_RN_7_RD_26_0.png","C_Dist_500_LN_10_LD_15_RN_4_RD_24_0.png","C_Dist_500_LN_12_LD_16_RN_3_RD_12_0.png","C_Dist_500_LN_12_LD_18_RN_4_RD_24_0.png","C_Dist_500_LN_15_LD_18_RN_5_RD_15_0.png","C_Dist_500_LN_15_LD_20_RN_1_RD_4_0.png","C_Dist_500_LN_18_LD_27_RN_1_RD_6_0.png","C_Dist_500_LN_20_LD_24_RN_1_RD_3_0.png","C_Dist_500_LN_20_LD_24_RN_3_RD_9_0.png","C_Dist_500_LN_20_LD_24_RN_7_RD_21_0.png","C_Dist_500_LN_20_LD_28_RN_3_RD_14_0.png","C_Dist_500_LN_21_LD_28_RN_6_RD_24_0.png","C_Dist_500_LN_22_LD_28_RN_2_RD_7_0.png","C_Dist_500_LN_25_LD_30_RN_9_RD_27_0.png","C_Dist_500_LN_4_LD_6_RN_1_RD_6_0.png","C_Dist_500_LN_5_LD_6_RN_2_RD_6_0.png","C_Dist_500_LN_6_LD_9_RN_1_RD_6_0.png","C_Dist_500_LN_7_LD_10_RN_1_RD_5_0.png","C_Dist_500_LN_8_LD_12_RN_1_RD_6_0.png","C_Dist_500_LN_8_LD_12_RN_4_RD_24_0.png"],["C_Dist_500_LN_1_LD_4_RN_12_RD_16_1.png","C_Dist_500_LN_1_LD_4_RN_9_RD_12_1.png","C_Dist_500_LN_1_LD_9_RN_11_RD_18_1.png","C_Dist_500_LN_10_LD_24_RN_22_RD_24_1.png","C_Dist_500_LN_2_LD_12_RN_10_RD_15_1.png","C_Dist_500_LN_2_LD_12_RN_12_RD_18_1.png","C_Dist_500_LN_2_LD_12_RN_4_RD_6_1.png","C_Dist_500_LN_2_LD_24_RN_7_RD_12_1.png","C_Dist_500_LN_2_LD_5_RN_18_RD_20_1.png","C_Dist_500_LN_2_LD_5_RN_9_RD_10_1.png","C_Dist_500_LN_2_LD_8_RN_12_RD_16_1.png","C_Dist_500_LN_2_LD_8_RN_21_RD_28_1.png","C_Dist_500_LN_3_LD_10_RN_4_RD_5_1.png","C_Dist_500_LN_3_LD_12_RN_15_RD_20_1.png","C_Dist_500_LN_3_LD_30_RN_6_RD_10_1.png","C_Dist_500_LN_3_LD_8_RN_14_RD_16_1.png","C_Dist_500_LN_4_LD_16_RN_15_RD_20_1.png","C_Dist_500_LN_4_LD_24_RN_12_RD_18_1.png","C_Dist_500_LN_5_LD_14_RN_6_RD_7_1.png","C_Dist_500_LN_7_LD_21_RN_20_RD_24_1.png","C_Dist_500_LN_7_LD_28_RN_12_RD_16_1.png","C_Dist_500_LN_7_LD_28_RN_9_RD_12_1.png","C_Dist_500_LN_9_LD_27_RN_20_RD_24_1.png"]],"dist500_I":[["I_Dist_500_LN_2_LD_3_RN_4_RD_24_0.png","I_Dist_500_LN_5_LD_6_RN_6_RD_18_0.png","I_Dist_500_LN_7_LD_8_RN_9_RD_24_0.png"],["I_Dist_500_LN_7_LD_21_RN_5_RD_6_1.png"]],"dist500_S":[["E_Dist_500_LN_6_LD_8_RN_6_RD_24_0.png"],["E_Dist_500_LN_2_LD_12_RN_2_RD_3_1.png","E_Dist_500_LN_6_LD_24_RN_6_RD_8_1.png"]]}},{"start_time":1551800551602,"click_time":1551800558521,"finger_time":1551800556721,"fix_duration":839.0484883225076,"trial":1,"RT":5119,"MT":1800,"sideResp":2,"stimulus":[],"xmouse":[831,831,831,831,831,831,831,831,831,830,830,829,829,829,827,827,826,826,826,826,825,824,824,824,824,824,824,824,824,824,824,824,824,824,824,824,824,824,824,824,824,824,824,824,824,824,824,824,824,824,824,824,824,824,824,824,824,824,824,824,824,824,824,824,824,824,824,824,824,824,824,824,824,824,824,824,824,824,824,824,824,824,824,824,824,824,824,824,824,824,824,824,824,824,824,824,824,824,824,824,824,824,824,824,824,824,824,824,824,824,824,824,824,824,824,824,824,824,824,824,824,824,824,824,824,824,824,824,824,824,824,824,824,824,824,824,824,824,824,824,824,824,824,824,824,824,824,824,824,824,824,824,824,824,824,824,824,824,824,824,824,824,824,824,824,824,824,824,824,824,824,824,824,824,824,824,824,824,824,824,824,824,824,824,824,824,824,824,824,824,824,824,824,824,824,824,824,824,824,824,824,824,824,824,824,824,824,824,824,824,824,824,824,824,824,824,824,824,824,824,824,824,824,824,824,824,824,824,825,825,825,825,825,825,825,825,825,825,825,825,825,825,825,825,825,825,825,825,825,825,825,825,825,825,840,856,878,895,912,934,942,947,947,948,948,948,948,949,951,958,973,988,1005,1023,1036,1051,1052,1052,1052,1053,1053,1053,1053,1053,1052,1049,1047,1045,1044,1042,1042,1042,1042,1042,1042,1042,1042,1042,1042,1043,1044,1044,1044,1044,1044,1044,1044,1044,1044,1044,1044,1044,1044,1044,1044,1044,1044,1044,1044,1044,1044,1044,1044,1044,1044,1044,1044,1044,1044,1044,1044,1044,1045,1045,1045,1048,1050,1053,1058,1064,1064,1065,1067,1069,1075,1084],"ymouse":[548,548,548,548,548,548,548,548,548,547,546,545,544,544,542,541,539,539,539,539,538,537,537,537,537,536,536,536,536,536,536,536,536,536,536,536,536,536,536,536,536,536,536,536,536,536,536,536,536,536,536,536,536,536,536,536,536,536,536,536,536,536,536,536,536,536,536,536,536,536,536,531,529,527,526,526,526,526,526,526,526,526,526,526,526,526,526,526,526,526,526,526,526,526,526,526,526,526,526,526,526,526,526,526,526,526,526,526,526,526,526,526,526,526,526,526,526,527,529,530,530,530,530,530,530,530,530,530,530,530,530,530,530,530,530,530,530,530,530,530,530,530,530,530,530,530,530,530,530,530,530,530,530,530,530,530,530,530,530,530,530,530,530,530,530,530,530,530,530,530,530,530,530,530,530,530,530,530,530,530,530,530,530,530,530,530,530,530,530,530,530,530,530,530,530,530,530,530,530,530,530,530,530,530,530,530,530,530,530,530,530,530,530,530,530,530,530,530,530,530,530,530,530,530,530,530,530,530,531,531,531,531,531,531,531,531,531,531,531,531,531,531,531,531,531,531,531,531,531,531,531,531,531,531,525,515,505,493,478,442,426,410,401,390,369,362,355,350,346,335,321,308,300,289,279,269,267,267,267,266,264,261,257,252,227,211,196,181,167,157,145,142,140,140,139,139,138,137,135,133,132,132,132,132,132,132,132,132,132,132,132,132,132,132,132,132,132,132,132,132,132,132,132,132,132,132,132,132,132,132,132,132,132,131,130,122,120,118,117,116,116,115,113,111,104,98],"timestamp_mouse":[20,43,59,80,100,120,140,160,179,200,218,240,260,279,298,318,339,360,379,398,418,439,459,479,500,520,538,560,579,600,619,640,660,680,699,719,738,760,780,800,818,839,860,879,900,918,938,960,980,1000,1020,1039,1060,1079,1100,1119,1140,1160,1180,1199,1220,1239,1260,1279,1300,1318,1340,1359,1379,1400,1419,1439,1459,1479,1499,1520,1539,1558,1579,1600,1620,1640,1659,1680,1699,1720,1739,1760,1779,1799,1820,1840,1859,1879,1899,1920,1939,1960,1979,1998,2018,2040,2060,2078,2100,2120,2139,2160,2178,2198,2219,2240,2260,2280,2299,2320,2339,2358,2380,2399,2419,2439,2458,2480,2499,2520,2539,2560,2579,2599,2619,2639,2659,2679,2700,2720,2739,2760,2778,2799,2819,2840,2858,2880,2900,2919,2939,2960,2979,2999,3019,3039,3060,3079,3100,3120,3139,3160,3178,3199,3219,3240,3260,3279,3300,3319,3340,3358,3380,3399,3419,3440,3458,3480,3499,3520,3539,3559,3580,3599,3619,3640,3660,3680,3699,3719,3738,3759,3780,3799,3818,3840,3860,3879,3900,3920,3940,3960,3979,3999,4019,4039,4059,4079,4100,4120,4140,4159,4180,4199,4220,4240,4259,4278,4299,4320,4340,4360,4379,4399,4420,4440,4460,4479,4499,4520,4540,4560,4580,4600,4620,4640,4659,4680,4699,4720,4739,4759,4780,4799,4820,4839,4860,4880,4899,4920,4940,4959,4979,4998,5019,5040,5060,5080,5099,5118,5139,5159,5179,5200,5218,5240,5259,5279,5300,5319,5339,5359,5379,5400,5419,5439,5459,5478,5500,5518,5539,5559,5578,5599,5618,5639,5660,5680,5700,5719,5739,5760,5779,5799,5819,5840,5859,5879,5900,5920,5939,5959,5978,5999,6019,6039,6059,6080,6100,6119,6140,6159,6180,6198,6220,6239,6260,6280,6299,6319,6339,6359,6378,6400,6419,6439,6460,6479,6499,6519,6539,6559,6580,6600,6620,6640,6660,6679,6699,6720,6739,6760,6779,6799,6818,6839,6859,6878,6899,6918],"xSR":741.5,"ySR":469.95,"xT1":424.9,"yT1":0,"xT2":1058.1,"yT2":0,"toosoon":0,"cond_shown":"Incongruent","ratio_trial":100,"L_num":8,"L_den":16,"R_num":6,"R_den":10,"correct_side":2,"subjID":"GabrielaTopaÑustes3","gender":"1","school":"6","age":"12"},{"start_time":1551800561013,"click_time":1551800562802,"finger_time":1551800562421,"fix_duration":751.7447439474353,"trial":2,"RT":1408,"MT":381,"sideResp":1,"stimulus":[],"xmouse":[764,764,764,764,764,764,764,764,764,764,764,764,764,764,764,764,764,764,764,764,764,764,764,764,764,764,764,764,764,764,764,764,764,764,764,764,764,764,764,764,764,764,764,764,764,764,764,764,764,764,764,764,764,764,764,764,764,764,764,764,764,764,764,764,764,764,766,766,764,755,680,664,641,623,601,569,547,530,517,505,498,497,497,497,496,493,477,472,467,462],"ymouse":[541,541,541,541,541,541,541,541,541,541,541,541,541,541,541,541,541,541,541,541,541,541,541,541,541,541,541,541,541,541,541,541,541,541,541,541,541,541,541,541,541,541,541,541,541,541,541,541,541,541,541,541,541,541,541,541,541,541,541,541,541,541,541,541,541,541,529,511,491,470,403,387,344,312,282,246,233,224,216,207,197,194,192,191,186,173,129,116,107,99],"timestamp_mouse":[11,28,48,69,89,109,129,148,168,188,209,229,247,268,288,308,328,348,369,388,408,428,449,468,488,508,528,549,569,589,608,629,648,669,689,709,729,748,769,788,809,829,847,869,888,908,928,948,969,988,1007,1029,1048,1069,1088,1108,1129,1149,1168,1189,1209,1229,1248,1268,1288,1309,1327,1348,1368,1388,1408,1429,1448,1468,1488,1508,1528,1548,1568,1588,1608,1628,1647,1668,1688,1708,1728,1748,1769,1789],"xSR":741.5,"ySR":469.95,"xT1":424.9,"yT1":0,"xT2":1058.1,"yT2":0,"toosoon":0,"cond_shown":"Congruent","ratio_trial":100,"L_num":9,"L_den":15,"R_num":8,"R_den":16,"correct_side":1,"subjID":"GabrielaTopaÑustes3","gender":"1","school":"6","age":"12"},{"start_time":1551800566711,"click_time":1551800568582,"finger_time":1551800568181,"fix_duration":1169.4839916958665,"trial":3,"RT":1470,"MT":401,"sideResp":1,"stimulus":[],"xmouse":[797,797,797,797,797,797,797,797,797,797,797,797,797,797,797,797,797,797,797,797,797,797,797,797,797,797,797,797,797,797,797,797,797,797,797,797,797,797,797,797,797,797,797,797,797,797,797,797,797,797,797,797,797,797,797,797,797,797,797,797,797,797,797,797,797,797,797,797,797,797,797,788,758,714,626,579,521,513,509,507,504,489,481,479,479,477,469,459,449,445,445,445,445,445],"ymouse":[569,569,569,569,569,569,569,569,569,569,569,569,569,569,569,569,569,569,569,569,569,569,569,569,569,569,569,569,569,569,569,569,569,569,569,569,569,569,569,569,569,569,569,569,569,569,569,569,569,569,569,569,569,569,569,569,569,569,569,569,569,569,569,569,569,569,569,569,569,569,569,558,529,487,408,361,295,275,256,238,216,170,152,145,140,136,123,113,104,102,101,101,101,99],"timestamp_mouse":[11,39,51,70,91,110,131,151,169,189,210,231,251,271,290,311,331,351,371,390,410,431,451,471,490,511,531,550,570,590,611,630,651,671,690,710,731,749,771,791,810,831,850,870,891,910,931,951,970,991,1012,1030,1051,1070,1090,1111,1131,1150,1170,1190,1211,1230,1250,1269,1291,1311,1331,1350,1370,1390,1411,1430,1450,1470,1490,1510,1530,1550,1570,1590,1612,1629,1651,1670,1691,1710,1730,1750,1770,1790,1811,1830,1850,1871],"xSR":741.5,"ySR":469.95,"xT1":424.9,"yT1":0,"xT2":1058.1,"yT2":0,"toosoon":0,"cond_shown":"Incongruent","ratio_trial":300,"L_num":8,"L_den":10,"R_num":9,"R_den":18,"correct_side":1,"subjID":"GabrielaTopaÑustes3","gender":"1","school":"6","age":"12"},{"start_time":1551800569915,"click_time":1551800571441,"finger_time":1551800571241,"fix_duration":532.2758585997991,"trial":4,"RT":1326,"MT":200,"sideResp":1,"stimulus":[],"xmouse":[798,798,798,798,798,798,798,798,798,798,798,798,798,798,798,798,798,798,798,798,798,798,798,798,798,798,798,798,798,798,798,798,798,798,798,798,798,798,798,798,798,798,798,798,798,798,798,798,798,798,798,798,798,798,798,798,798,798,798,798,798,798,798,798,798,795,770,744,708,673,634,576,557,524,500,478,452],"ymouse":[493,493,493,493,493,493,493,493,493,493,493,493,493,493,493,493,493,493,493,493,493,493,493,493,493,493,493,493,493,493,493,493,493,493,493,493,493,493,493,493,493,493,493,493,493,493,493,493,493,493,493,493,493,493,493,493,493,493,493,493,493,493,493,493,493,492,456,418,377,347,320,276,250,201,165,126,81],"timestamp_mouse":[11,26,50,66,86,106,126,146,166,186,206,225,245,266,286,307,327,345,367,387,407,426,447,467,487,506,525,547,567,586,607,627,646,667,685,706,726,747,766,787,807,826,845,867,887,906,927,946,966,987,1007,1027,1047,1066,1086,1106,1127,1146,1167,1186,1207,1227,1247,1267,1286,1305,1326,1345,1366,1386,1406,1426,1447,1466,1487,1506,1526],"xSR":741.5,"ySR":469.95,"xT1":424.9,"yT1":0,"xT2":1058.1,"yT2":0,"toosoon":0,"cond_shown":"Congruent","ratio_trial":200,"L_num":21,"L_den":30,"R_num":2,"R_den":4,"correct_side":1,"subjID":"GabrielaTopaÑustes3","gender":"1","school":"6","age":"12"},{"start_time":1551800572933,"click_time":1551800574981,"finger_time":1551800574661,"fix_duration":491.0646927700092,"trial":5,"RT":1728,"MT":320,"sideResp":2,"stimulus":[],"xmouse":[784,784,784,784,784,784,784,784,784,784,784,784,784,784,784,784,784,784,784,784,784,784,784,784,784,784,784,784,784,784,784,784,784,784,784,784,784,784,784,784,784,784,784,784,784,784,784,784,784,784,784,784,784,784,784,784,784,784,784,784,784,784,784,784,784,784,784,784,784,784,784,784,784,784,784,784,784,784,784,784,784,784,784,784,784,786,810,835,863,915,984,1002,1009,1013,1014,1024,1035,1044,1052,1061,1074,1083,1088],"ymouse":[504,504,504,504,504,504,504,504,504,504,504,504,504,504,504,504,504,504,504,504,504,504,504,504,504,504,504,504,504,504,504,504,504,504,504,504,504,504,504,504,504,504,504,504,504,504,504,504,504,504,504,504,504,504,504,504,504,504,504,504,504,504,504,504,504,504,504,504,504,504,504,504,504,504,504,504,504,504,504,504,504,504,504,504,504,504,438,367,287,185,142,139,139,138,137,131,126,122,117,112,105,100,96],"timestamp_mouse":[11,41,49,68,88,109,129,147,168,189,208,228,249,268,289,309,327,349,369,388,408,429,448,469,488,508,528,547,569,589,608,628,647,669,689,709,728,748,769,788,807,829,848,868,888,908,929,948,969,988,1009,1029,1049,1067,1088,1109,1128,1149,1169,1188,1209,1229,1249,1269,1288,1309,1327,1347,1369,1389,1408,1429,1448,1469,1488,1509,1528,1549,1569,1589,1609,1629,1648,1669,1687,1708,1728,1748,1768,1788,1809,1827,1848,1868,1888,1908,1928,1949,1968,1988,2008,2028,2048],"xSR":741.5,"ySR":469.95,"xT1":424.9,"yT1":0,"xT2":1058.1,"yT2":0,"toosoon":0,"cond_shown":"Incongruent","ratio_trial":200,"L_num":7,"L_den":10,"R_num":8,"R_den":16,"correct_side":1,"subjID":"GabrielaTopaÑustes3","gender":"1","school":"6","age":"12"},{"start_time":1551800578588,"click_time":1551800580521,"finger_time":1551800580041,"fix_duration":924.5509352723636,"trial":6,"RT":1453,"MT":480,"sideResp":2,"stimulus":[],"xmouse":[819,819,819,819,819,819,819,819,819,819,819,819,819,819,819,819,819,819,819,819,819,819,819,819,819,819,819,819,819,819,819,819,819,819,819,819,819,819,819,819,819,819,819,819,819,819,819,819,819,819,819,819,819,819,819,819,819,819,819,819,819,819,819,819,819,819,819,819,819,819,819,824,846,914,919,919,909,893,923,985,985,985,985,985,985,985,985,985,985,985,985,985,985,985,985,1160,1157],"ymouse":[544,544,544,544,544,544,544,544,544,544,544,544,544,544,544,544,544,544,544,544,544,544,544,544,544,544,544,544,544,544,544,544,544,544,544,544,544,544,544,544,544,544,544,544,544,544,544,544,544,544,544,544,544,544,544,544,544,544,544,544,544,544,544,544,544,544,544,544,544,544,544,517,484,408,392,384,364,325,149,40,40,40,40,40,40,40,40,40,40,40,40,40,40,40,40,0,2],"timestamp_mouse":[16,40,53,74,93,114,133,152,174,193,214,233,252,274,293,314,334,354,374,392,414,433,453,474,493,513,532,553,574,593,614,633,653,674,692,714,734,753,775,793,813,833,852,874,894,914,932,954,973,994,1013,1033,1054,1074,1093,1113,1133,1153,1172,1193,1214,1232,1253,1274,1293,1313,1334,1354,1374,1393,1413,1433,1453,1473,1493,1514,1534,1552,1573,1593,1613,1634,1654,1673,1693,1714,1733,1753,1774,1794,1812,1834,1854,1873,1894,1913,1933],"xSR":741.5,"ySR":469.95,"xT1":424.9,"yT1":0,"xT2":1058.1,"yT2":0,"toosoon":0,"cond_shown":"Congruent","ratio_trial":200,"L_num":6,"L_den":20,"R_num":11,"R_den":22,"correct_side":2,"subjID":"GabrielaTopaÑustes3","gender":"1","school":"6","age":"12"},{"start_time":1551800583635,"click_time":1551800586221,"finger_time":1551800585261,"fix_duration":250,"trial":7,"RT":1626,"MT":960,"sideResp":2,"stimulus":[],"xmouse":[789,789,789,789,789,789,789,789,789,789,789,789,789,789,789,789,789,789,789,789,789,789,789,789,789,789,789,789,789,789,789,789,789,789,789,789,789,789,789,789,789,789,789,789,789,789,789,789,789,789,789,789,789,789,789,789,789,789,789,789,789,789,789,789,789,789,789,789,789,789,789,789,789,789,789,790,794,799,806,814,833,849,881,887,892,894,896,894,892,892,892,914,930,947,959,968,971,975,979,984,990,995,999,1000,1002,1004,1015,1051,1079,1087,1102,1107,1108,1108,1110,1111,1111,1112,1112,1112,1112,1112,1112,1112,1112,1112,1112,1112,1111,1110],"ymouse":[546,546,546,546,546,546,546,546,546,546,546,546,546,546,546,546,546,546,546,546,546,546,546,546,546,546,546,546,546,546,546,546,546,546,546,546,546,546,546,546,546,546,546,546,546,546,546,546,546,546,546,546,546,546,546,546,546,546,546,546,546,546,546,546,546,546,546,546,546,546,546,546,546,546,546,545,539,533,524,513,479,449,382,372,364,358,352,338,329,321,316,297,287,278,270,262,259,255,252,250,247,244,241,239,234,228,208,172,152,148,140,137,137,137,135,134,133,131,129,127,121,118,113,112,112,112,112,107,102,97],"timestamp_mouse":[11,37,46,66,86,106,127,147,166,187,206,227,246,265,286,307,326,347,366,387,406,427,446,466,485,506,526,547,566,586,606,626,646,666,687,707,726,746,767,787,806,826,847,865,886,907,926,947,966,985,1007,1026,1047,1066,1086,1107,1126,1146,1167,1186,1207,1226,1246,1265,1286,1307,1327,1346,1367,1386,1407,1427,1447,1466,1486,1505,1527,1546,1566,1586,1607,1626,1645,1666,1686,1706,1725,1746,1767,1786,1807,1827,1845,1866,1886,1906,1926,1946,1966,1986,2006,2026,2046,2065,2086,2106,2126,2146,2166,2186,2206,2227,2245,2266,2286,2307,2326,2346,2366,2386,2407,2426,2445,2465,2486,2506,2526,2546,2566,2586],"xSR":741.5,"ySR":469.95,"xT1":424.9,"yT1":0,"xT2":1058.1,"yT2":0,"toosoon":0,"cond_shown":"Incongruent","ratio_trial":200,"L_num":1,"L_den":3,"R_num":2,"R_den":15,"correct_side":1,"subjID":"GabrielaTopaÑustes3","gender":"1","school":"6","age":"12"},{"start_time":1551800591433,"click_time":1551800593062,"finger_time":1551800591841,"fix_duration":250,"trial":8,"RT":408,"MT":1221,"sideResp":2,"stimulus":[],"xmouse":[809,809,809,809,809,809,810,810,810,812,812,814,817,821,822,824,825,826,826,826,826,826,826,826,827,827,828,829,830,830,831,831,831,831,831,831,831,831,831,831,827,821,802,792,784,779,775,773,773,773,774,775,776,777,778,778,778,778,778,778,778,779,783,806,817,823,823,823,823,823,823,814,812,828,868,917,971,1073,1091,1104,1115,1123],"ymouse":[509,509,509,509,509,509,510,511,513,514,516,519,529,535,539,544,548,557,563,569,575,579,590,594,597,598,600,601,608,610,612,612,613,614,616,616,617,620,620,620,620,617,599,584,566,548,534,523,511,508,505,504,500,498,497,496,496,496,496,496,496,495,495,514,525,534,538,539,539,540,544,550,551,530,473,395,326,188,157,136,116,97],"timestamp_mouse":[15,35,49,69,88,109,128,149,169,188,209,228,248,267,288,308,328,348,369,387,408,428,450,468,487,507,529,548,568,588,608,627,649,667,688,708,728,749,768,788,808,828,848,868,889,908,929,948,969,987,1009,1028,1049,1067,1088,1108,1128,1148,1168,1188,1208,1227,1248,1267,1288,1307,1329,1348,1368,1387,1408,1429,1447,1468,1488,1508,1528,1548,1568,1588,1608,1628],"xSR":741.5,"ySR":469.95,"xT1":424.9,"yT1":0,"xT2":1058.1,"yT2":0,"toosoon":0,"cond_shown":"Congruent","ratio_trial":300,"L_num":4,"L_den":10,"R_num":1,"R_den":10,"correct_side":1,"subjID":"GabrielaTopaÑustes3","gender":"1","school":"6","age":"12"},{"start_time":1551800595634,"click_time":1551800597341,"finger_time":1551800596601,"fix_duration":1332.9772267828157,"trial":9,"RT":967,"MT":740,"sideResp":1,"stimulus":[],"xmouse":[766,766,766,766,766,766,766,766,766,766,766,766,766,766,766,766,766,766,766,766,766,766,766,766,766,766,766,766,766,766,766,766,766,766,766,766,766,766,766,766,766,766,767,761,760,756,753,746,725,716,701,675,636,568,561,560,571,580,585,585,585,583,581,582,585,585,585,581,561,544,525,510,500,477,449,437,436,435,435,435,434,434,434,434,435,436],"ymouse":[532,532,532,532,532,532,532,532,532,532,532,532,532,532,532,532,532,532,532,532,532,532,532,532,532,532,532,532,532,532,532,532,532,532,532,532,532,532,532,532,532,532,532,525,525,521,518,513,498,490,480,462,434,382,367,335,307,286,262,254,243,237,230,217,208,194,187,178,160,151,142,137,133,123,114,110,110,109,109,109,108,108,106,102,101,96],"timestamp_mouse":[10,36,48,67,88,107,128,148,168,188,207,227,248,267,288,308,328,347,368,388,408,426,447,467,487,508,528,548,566,587,608,627,647,666,687,708,727,746,768,787,808,827,847,867,887,906,927,946,967,987,1007,1027,1047,1067,1088,1107,1127,1146,1166,1186,1208,1228,1248,1267,1288,1307,1327,1347,1367,1386,1408,1427,1448,1467,1486,1506,1528,1548,1566,1588,1607,1628,1648,1667,1687,1706],"xSR":741.5,"ySR":469.95,"xT1":424.9,"yT1":0,"xT2":1058.1,"yT2":0,"toosoon":0,"cond_shown":"Congruent","ratio_trial":300,"L_num":11,"L_den":22,"R_num":4,"R_den":20,"correct_side":1,"subjID":"GabrielaTopaÑustes3","gender":"1","school":"6","age":"12"},{"start_time":1551800602403,"click_time":1551800604281,"finger_time":1551800603842,"fix_duration":342.6287404033814,"trial":10,"RT":1439,"MT":439,"sideResp":2,"stimulus":[],"xmouse":[780,780,780,780,780,780,780,780,780,780,780,780,780,780,780,781,781,782,782,782,782,782,783,783,783,783,783,783,783,784,784,784,784,784,784,784,784,784,784,784,784,784,784,784,784,784,784,784,784,784,784,784,784,784,784,784,784,784,784,784,784,784,784,784,786,792,797,802,806,810,838,856,869,883,896,930,946,962,984,1016,1024,1027,1030,1030,1030,1026,1025,1025,1025,1027,1031,1037,1057,1071],"ymouse":[503,503,503,503,503,503,503,503,503,503,503,503,503,503,503,502,502,502,502,502,502,502,502,502,502,502,502,502,502,502,502,502,502,502,502,502,502,502,502,502,502,502,502,502,502,502,502,502,502,502,502,502,502,502,502,502,502,502,502,502,502,502,502,502,503,504,506,508,509,512,521,515,506,491,473,421,393,365,316,187,135,109,91,84,78,60,52,45,39,35,30,28,21,19],"timestamp_mouse":[17,51,57,77,98,117,138,157,179,197,218,238,259,277,298,317,337,357,377,398,418,438,457,477,497,517,539,559,577,597,617,639,658,678,697,718,739,757,778,799,818,838,858,878,899,919,938,957,979,999,1018,1038,1058,1079,1097,1118,1137,1157,1177,1199,1218,1238,1257,1279,1298,1317,1337,1358,1377,1397,1418,1439,1458,1479,1498,1517,1537,1558,1578,1599,1617,1637,1657,1679,1698,1718,1737,1758,1778,1798,1817,1837,1857,1878],"xSR":741.5,"ySR":469.95,"xT1":424.9,"yT1":0,"xT2":1058.1,"yT2":0,"toosoon":0,"cond_shown":"Incongruent","ratio_trial":100,"L_num":9,"L_den":10,"R_num":20,"R_den":25,"correct_side":1,"subjID":"GabrielaTopaÑustes3","gender":"1","school":"6","age":"12"},{"start_time":1551800607592,"click_time":1551800609521,"finger_time":1551800608501,"fix_duration":250,"trial":11,"RT":909,"MT":1020,"sideResp":1,"stimulus":[],"xmouse":[823,822,821,820,820,820,820,820,820,820,820,820,820,820,820,820,820,820,820,820,820,820,820,820,820,820,820,820,820,820,820,820,820,820,820,820,820,820,820,820,820,820,820,819,824,842,908,926,942,956,968,975,975,975,975,975,975,975,975,975,975,975,975,975,975,975,975,975,968,953,902,743,643,559,489,451,429,427,418,409,396,393,404,418,422,422,413,409,408,408,408,408,409,413,416,420,428],"ymouse":[555,554,554,554,554,554,554,554,554,554,554,554,554,554,554,554,554,554,554,554,554,554,554,554,554,554,554,554,554,554,554,554,554,554,554,554,554,554,554,554,554,554,554,552,545,537,509,493,483,476,470,466,466,466,466,466,466,466,466,466,466,466,466,466,466,466,466,467,472,477,478,472,472,483,499,504,504,503,494,483,466,431,406,385,371,365,350,338,318,271,212,160,97,85,75,62,39],"timestamp_mouse":[9,28,48,69,89,108,130,150,169,190,209,228,248,268,289,309,329,350,368,388,409,428,448,468,488,509,528,549,568,588,608,628,648,669,688,709,728,748,769,788,809,828,848,868,889,909,929,948,969,989,1009,1029,1048,1068,1089,1108,1129,1150,1168,1188,1209,1229,1249,1268,1289,1308,1328,1348,1368,1389,1410,1429,1448,1468,1489,1508,1529,1548,1568,1589,1608,1628,1648,1669,1688,1708,1729,1750,1768,1788,1809,1828,1848,1868,1888,1908,1929],"xSR":741.5,"ySR":469.95,"xT1":424.9,"yT1":0,"xT2":1058.1,"yT2":0,"toosoon":0,"cond_shown":"Incongruent","ratio_trial":200,"L_num":4,"L_den":30,"R_num":1,"R_den":3,"correct_side":2,"subjID":"GabrielaTopaÑustes3","gender":"1","school":"6","age":"12"},{"start_time":1551800611040,"click_time":1551800612921,"finger_time":1551800612501,"fix_duration":336.03073574999974,"trial":12,"RT":1461,"MT":420,"sideResp":2,"stimulus":[],"xmouse":[770,770,770,770,770,770,770,770,770,770,770,770,770,770,770,770,770,770,770,770,770,770,770,770,770,770,770,770,770,770,770,770,770,770,770,770,770,770,770,770,770,770,770,770,770,770,770,770,770,770,770,770,770,770,770,770,770,770,770,770,770,770,770,770,770,770,770,770,770,770,770,770,775,783,819,860,869,873,875,877,885,900,925,959,998,1068,1097,1126,1162,1171,1173,1169,1164,1160,1158],"ymouse":[507,507,507,507,507,507,507,507,507,507,507,507,507,507,507,507,507,507,507,507,507,507,507,507,507,507,507,507,507,507,507,507,507,507,507,507,507,507,507,507,507,507,507,507,507,507,507,507,507,507,507,507,507,507,507,507,507,507,507,507,507,507,507,507,507,507,507,507,507,507,507,507,479,451,365,247,217,206,204,202,191,179,164,146,132,114,110,104,94,89,74,66,61,57,55],"timestamp_mouse":[12,21,49,61,81,101,120,140,161,181,200,222,240,261,281,300,321,342,361,381,401,420,441,461,481,501,521,541,561,580,601,622,641,661,680,701,720,742,761,782,800,820,841,862,881,901,920,942,961,981,1000,1020,1040,1060,1080,1100,1120,1140,1161,1180,1200,1220,1240,1260,1280,1300,1320,1340,1360,1380,1400,1420,1441,1461,1481,1500,1520,1540,1561,1581,1601,1621,1641,1661,1681,1700,1720,1741,1760,1781,1801,1820,1840,1861,1881],"xSR":741.5,"ySR":469.95,"xT1":424.9,"yT1":0,"xT2":1058.1,"yT2":0,"toosoon":0,"cond_shown":"Congruent","ratio_trial":200,"L_num":20,"L_den":25,"R_num":9,"R_den":15,"correct_side":1,"subjID":"GabrielaTopaÑustes3","gender":"1","school":"6","age":"12"},{"start_time":1551800616936,"click_time":1551800618441,"finger_time":1551800618060,"fix_duration":594.6572225622072,"trial":13,"RT":1124,"MT":381,"sideResp":1,"stimulus":[],"xmouse":[806,806,806,806,806,806,806,806,806,806,806,806,806,806,806,806,806,806,806,806,806,806,806,806,806,806,806,806,806,806,806,806,806,806,806,806,806,806,806,806,806,806,806,806,806,806,806,806,806,806,806,806,806,806,806,804,773,730,670,561,469,345,328,317,313,304,300,299,298,298,298,298,304,319,348,462],"ymouse":[516,516,516,516,516,516,516,516,516,516,516,516,516,516,516,516,516,516,516,516,516,516,516,516,516,516,516,516,516,516,516,516,516,516,516,516,516,516,516,516,516,516,516,516,516,516,516,516,516,516,516,516,516,516,516,508,464,417,352,271,230,179,170,160,155,144,139,137,135,135,135,131,127,122,114,81],"timestamp_mouse":[10,25,45,66,84,104,125,144,165,185,205,226,244,264,285,306,326,344,364,385,404,425,445,464,484,505,526,546,565,585,604,625,646,665,685,704,725,744,765,785,805,826,845,865,884,904,925,946,965,985,1004,1025,1044,1064,1084,1104,1124,1146,1164,1184,1204,1224,1244,1265,1284,1305,1324,1345,1365,1384,1406,1425,1444,1465,1485,1505],"xSR":741.5,"ySR":469.95,"xT1":424.9,"yT1":0,"xT2":1058.1,"yT2":0,"toosoon":0,"cond_shown":"Congruent","ratio_trial":200,"L_num":8,"L_den":15,"R_num":2,"R_den":6,"correct_side":1,"subjID":"GabrielaTopaÑustes3","gender":"1","school":"6","age":"12"},{"start_time":1551800620949,"click_time":1551800623360,"finger_time":1551800622560,"fix_duration":1465.0409777691048,"trial":14,"RT":1611,"MT":800,"sideResp":1,"stimulus":[],"xmouse":[786,786,786,786,786,786,786,786,786,786,786,786,786,786,786,786,786,786,786,786,786,786,786,786,786,786,786,786,786,786,786,786,786,786,786,786,786,786,786,786,786,786,786,786,786,786,786,786,786,786,786,786,786,786,786,786,786,786,786,786,786,786,786,786,786,786,786,786,786,786,786,786,786,786,786,786,786,786,786,792,826,835,844,854,859,867,902,954,980,1000,1005,996,988,978,964,922,858,800,757,723,691,689,683,674,663,636,624,598,578,572,568,578,597,604,604,590,578,565,553,540,521],"ymouse":[497,497,497,497,497,497,497,497,497,497,497,497,497,497,497,497,497,497,497,497,497,497,497,497,497,497,497,497,497,497,497,497,497,497,497,497,497,497,497,497,497,497,497,497,497,497,497,497,497,497,497,497,497,497,497,497,497,497,497,497,497,497,497,497,497,497,497,497,497,497,497,497,497,497,497,497,497,497,494,470,409,398,391,386,382,379,365,347,332,317,280,266,261,258,257,257,259,269,282,292,299,298,296,292,291,287,285,283,283,281,257,229,197,170,152,111,89,77,70,64,60],"timestamp_mouse":[13,44,53,71,91,111,132,152,173,193,212,231,253,272,292,312,333,352,373,392,412,433,452,472,492,513,533,552,571,591,612,632,651,671,692,712,732,753,772,791,812,831,851,871,891,912,931,953,972,991,1011,1031,1051,1073,1091,1112,1131,1152,1172,1191,1213,1232,1252,1271,1291,1311,1332,1352,1371,1392,1412,1432,1452,1471,1492,1511,1531,1552,1571,1591,1611,1631,1653,1672,1691,1711,1732,1751,1772,1791,1811,1831,1851,1872,1892,1911,1933,1951,1971,1991,2011,2032,2051,2072,2092,2112,2131,2151,2171,2192,2211,2232,2251,2271,2292,2311,2331,2351,2372,2391,2411],"xSR":741.5,"ySR":469.95,"xT1":424.9,"yT1":0,"xT2":1058.1,"yT2":0,"toosoon":0,"cond_shown":"Incongruent","ratio_trial":100,"L_num":13,"L_den":26,"R_num":12,"R_den":20,"correct_side":2,"subjID":"GabrielaTopaÑustes3","gender":"1","school":"6","age":"12"},{"start_time":1551800626678,"click_time":1551800628880,"finger_time":1551800628261,"fix_duration":1316.834717839679,"trial":15,"RT":1583,"MT":619,"sideResp":2,"stimulus":[],"xmouse":[838,838,838,838,838,838,838,838,838,838,838,838,838,838,838,838,838,838,838,838,838,838,838,838,838,838,838,838,838,838,838,838,838,838,838,838,838,838,838,838,838,838,838,838,838,838,838,838,838,838,838,838,838,838,838,838,838,838,838,838,838,838,838,838,838,838,838,838,838,838,838,838,838,838,838,838,838,834,799,751,646,646,646,646,646,646,646,646,646,646,646,646,646,646,646,646,646,646,646,646,646,646,646,646,646,646,646,646,646,646,1135],"ymouse":[553,553,553,553,553,553,553,553,553,553,553,553,553,553,553,553,553,553,553,553,553,553,553,553,553,553,553,553,553,553,553,553,553,553,553,553,553,553,553,553,553,553,553,553,553,553,553,553,553,553,553,553,553,553,553,553,553,553,553,553,553,553,553,553,553,553,553,553,553,553,553,553,553,553,553,553,551,550,504,407,76,76,76,76,76,76,76,76,76,76,76,76,76,76,76,76,76,76,76,76,76,76,76,76,76,76,76,76,76,76,7],"timestamp_mouse":[11,22,42,64,82,103,122,143,164,183,203,223,242,263,282,303,323,343,364,383,402,423,442,463,483,502,524,543,562,583,603,622,644,663,684,703,722,743,763,782,803,823,842,883,883,902,922,943,963,984,1002,1022,1042,1062,1083,1104,1122,1143,1164,1183,1203,1222,1243,1263,1282,1302,1322,1342,1364,1382,1403,1423,1444,1462,1482,1502,1523,1542,1563,1583,1603,1622,1643,1662,1683,1703,1723,1742,1763,1782,1803,1822,1843,1863,1883,1903,1922,1943,1963,1984,2002,2022,2042,2062,2083,2103,2122,2142,2162,2184,2202],"xSR":741.5,"ySR":469.95,"xT1":424.9,"yT1":0,"xT2":1058.1,"yT2":0,"toosoon":0,"cond_shown":"Congruent","ratio_trial":100,"L_num":2,"L_den":5,"R_num":6,"R_den":12,"correct_side":2,"subjID":"GabrielaTopaÑustes3","gender":"1","school":"6","age":"12"},{"start_time":1551800632912,"click_time":1551800635082,"finger_time":1551800633900,"fix_duration":250,"trial":16,"RT":988,"MT":1182,"sideResp":2,"stimulus":[],"xmouse":[839,839,839,839,839,839,839,839,839,839,839,839,839,839,839,839,839,839,839,839,839,839,839,839,839,839,839,839,839,839,839,839,839,839,839,839,839,839,839,839,839,839,839,839,839,839,839,839,838,850,862,874,883,905,916,917,917,917,918,918,918,918,912,902,907,922,942,966,1008,1013,1016,1020,1024,1025,1026,1024,1021,1020,1020,1021,1024,1027,1027,1021,1017,1010,1010,1010,1010,1010,1010,1010,1010,1010,1010,1010,1010,1010,1010,1010,1010,1010,1010,1010,1010,1010,1010,1010,1094],"ymouse":[534,534,534,534,534,534,534,534,534,534,534,534,534,534,534,534,534,534,534,534,534,534,534,534,534,534,534,534,534,534,534,534,534,534,534,534,534,534,534,534,534,534,534,534,534,534,534,534,531,510,492,477,467,442,430,429,429,429,424,422,421,418,413,384,364,346,329,308,268,256,248,240,235,233,230,227,222,218,213,198,180,158,133,55,28,4,4,4,4,4,4,4,4,4,4,4,4,4,4,4,4,4,4,4,4,4,4,4,2],"timestamp_mouse":[13,28,48,70,88,109,129,148,169,189,209,228,249,270,290,308,329,348,369,389,409,430,448,469,488,508,529,548,569,589,610,630,649,668,689,708,728,749,769,788,808,830,848,868,889,909,928,948,968,988,1009,1028,1048,1069,1088,1109,1128,1149,1168,1188,1208,1229,1248,1269,1290,1308,1329,1349,1368,1388,1409,1428,1450,1468,1489,1508,1529,1548,1569,1588,1610,1629,1650,1669,1688,1709,1729,1748,1769,1789,1809,1830,1849,1869,1888,1909,1928,1949,1968,1988,2009,2030,2048,2069,2088,2108,2129,2149,2169],"xSR":741.5,"ySR":469.95,"xT1":424.9,"yT1":0,"xT2":1058.1,"yT2":0,"toosoon":0,"cond_shown":"Congruent","ratio_trial":300,"L_num":7,"L_den":14,"R_num":20,"R_den":25,"correct_side":2,"subjID":"GabrielaTopaÑustes3","gender":"1","school":"6","age":"12"},{"start_time":1551800641038,"click_time":1551800643020,"finger_time":1551800642521,"fix_duration":1096.0500852013586,"trial":17,"RT":1483,"MT":499,"sideResp":1,"stimulus":[],"xmouse":[810,810,810,810,810,810,810,810,810,810,810,810,810,810,810,810,810,810,810,810,810,810,810,810,810,810,810,810,810,810,810,810,810,810,810,810,810,810,810,810,810,810,810,810,810,810,810,810,810,810,810,810,810,810,810,810,810,810,810,810,810,810,810,810,810,810,810,810,810,810,810,810,810,808,747,646,513,396,304,304,304,304,304,304,304,304,304,304,304,304,304,304,304,304,304,304,304,304,304,436],"ymouse":[547,547,547,547,547,547,547,547,547,547,547,547,547,547,547,547,547,547,547,547,547,547,547,547,547,547,547,547,547,547,547,547,547,547,547,547,547,547,547,547,547,547,547,547,547,547,547,547,547,547,547,547,547,547,547,547,547,547,547,547,547,547,547,547,547,547,547,547,547,547,547,547,547,546,469,366,237,115,15,15,15,15,15,15,15,15,15,15,15,15,15,15,15,15,15,15,15,15,15,1],"timestamp_mouse":[10,23,50,63,82,102,122,143,164,182,203,222,244,263,283,302,322,342,364,382,403,424,443,463,482,503,523,542,562,582,602,622,643,662,682,702,723,744,762,782,804,823,842,864,883,902,924,942,962,984,1002,1023,1042,1064,1083,1103,1123,1142,1162,1182,1203,1223,1243,1262,1283,1303,1323,1342,1362,1383,1403,1422,1442,1462,1483,1502,1523,1542,1563,1583,1602,1622,1643,1662,1682,1702,1722,1744,1764,1783,1802,1823,1843,1862,1883,1902,1922,1942,1962,1982],"xSR":741.5,"ySR":469.95,"xT1":424.9,"yT1":0,"xT2":1058.1,"yT2":0,"toosoon":0,"cond_shown":"Incongruent","ratio_trial":300,"L_num":7,"L_den":10,"R_num":8,"R_den":20,"correct_side":1,"subjID":"GabrielaTopaÑustes3","gender":"1","school":"6","age":"12"},{"start_time":1551800653781,"click_time":1551800655761,"finger_time":1551800655281,"fix_duration":1338.9888106542899,"trial":18,"RT":1500,"MT":480,"sideResp":1,"stimulus":[],"xmouse":[785,785,785,785,785,785,785,785,785,785,785,785,785,785,785,785,785,785,785,785,785,785,785,785,785,785,785,785,785,785,785,785,785,785,785,785,785,785,785,785,785,785,785,785,785,785,785,785,785,785,785,785,785,785,785,785,785,785,785,785,785,785,785,785,785,785,785,785,785,785,785,785,785,777,753,692,606,511,381,356,349,348,348,348,348,348,348,348,348,348,348,348,348,348,348,348,348,348,348,463],"ymouse":[507,507,507,507,507,507,507,507,507,507,507,507,507,507,507,507,507,507,507,507,507,507,507,507,507,507,507,507,507,507,507,507,507,507,507,507,507,507,507,507,507,507,507,507,507,507,507,507,507,507,507,507,507,507,507,507,507,507,507,507,507,507,507,507,507,507,507,507,507,507,507,507,507,506,495,449,375,284,134,96,73,43,26,3,3,3,3,3,3,3,3,3,3,3,3,3,3,3,3,1],"timestamp_mouse":[1,19,39,60,81,100,120,140,159,181,200,220,239,261,280,300,319,340,360,380,400,420,440,461,479,500,520,539,559,579,600,620,639,659,680,700,720,740,760,781,800,819,840,859,880,899,919,941,960,980,1000,1019,1039,1059,1079,1099,1119,1140,1160,1179,1200,1219,1241,1260,1280,1299,1321,1341,1360,1380,1400,1421,1441,1460,1479,1500,1519,1539,1559,1579,1600,1620,1640,1659,1680,1699,1720,1739,1759,1779,1800,1819,1839,1859,1881,1899,1919,1940,1959,1980],"xSR":741.5,"ySR":469.95,"xT1":424.9,"yT1":0,"xT2":1058.1,"yT2":0,"toosoon":0,"cond_shown":"Incongruent","ratio_trial":100,"L_num":3,"L_den":5,"R_num":11,"R_den":22,"correct_side":1,"subjID":"GabrielaTopaÑustes3","gender":"1","school":"6","age":"12"},{"start_time":1551800658451,"click_time":1551800659841,"finger_time":1551800659460,"fix_duration":887.0882359915495,"trial":19,"RT":1009,"MT":381,"sideResp":2,"stimulus":[],"xmouse":[829,829,829,829,829,829,829,829,829,829,829,829,829,829,829,829,829,829,829,829,829,829,829,829,829,829,829,829,829,829,829,829,829,829,829,829,829,829,829,829,829,829,829,829,829,829,829,829,829,835,848,875,905,945,981,1083,1128,1172,1208,1254,1264,1267,1270,1272,1272,1272,1272,1264,1240,1138],"ymouse":[516,516,516,516,516,516,516,516,516,516,516,516,516,516,516,516,516,516,516,516,516,516,516,516,516,516,516,516,516,516,516,516,516,516,516,516,516,516,516,516,516,516,516,516,516,516,516,516,516,502,465,410,364,330,304,243,220,198,180,160,159,159,159,158,157,155,154,149,133,59],"timestamp_mouse":[11,30,49,69,89,110,131,149,170,190,209,229,250,271,289,310,329,349,369,389,410,431,451,470,490,511,531,550,569,589,609,631,650,670,690,710,730,750,769,789,810,831,850,869,890,909,929,951,970,989,1009,1030,1050,1069,1089,1110,1129,1149,1170,1190,1209,1229,1249,1270,1289,1309,1329,1350,1370,1389],"xSR":741.5,"ySR":469.95,"xT1":424.9,"yT1":0,"xT2":1058.1,"yT2":0,"toosoon":0,"cond_shown":"Incongruent","ratio_trial":300,"L_num":13,"L_den":26,"R_num":12,"R_den":15,"correct_side":2,"subjID":"GabrielaTopaÑustes3","gender":"1","school":"6","age":"12"},{"start_time":1551800660991,"click_time":1551800662741,"finger_time":1551800662380,"fix_duration":250,"trial":20,"RT":1389,"MT":361,"sideResp":2,"stimulus":[],"xmouse":[769,769,769,769,769,769,769,769,769,769,769,769,769,769,769,769,769,769,769,769,769,769,769,769,769,769,769,769,769,769,769,769,769,769,769,769,769,769,769,769,769,769,769,769,769,769,769,769,769,769,769,769,769,769,769,769,769,769,769,769,769,769,769,769,769,769,769,774,792,814,850,880,911,905,889,869,824,721,678,656,647,646,646,664,725,819,923,1063],"ymouse":[526,526,526,526,526,526,526,526,526,526,526,526,526,526,526,526,526,526,526,526,526,526,526,526,526,526,526,526,526,526,526,526,526,526,526,526,526,526,526,526,526,526,526,526,526,526,526,526,526,526,526,526,526,526,526,526,526,526,526,526,526,526,526,526,526,526,526,513,472,421,357,299,174,135,110,91,73,53,49,49,49,49,49,52,55,55,54,31],"timestamp_mouse":[18,45,49,70,89,110,129,149,169,190,210,231,250,270,289,310,330,349,369,389,410,429,449,470,490,510,529,550,570,590,610,630,650,670,689,711,730,750,769,789,809,829,849,870,889,910,930,949,970,989,1010,1030,1049,1070,1089,1109,1129,1150,1169,1188,1208,1229,1249,1270,1289,1310,1330,1349,1369,1389,1409,1429,1451,1468,1489,1509,1530,1550,1569,1589,1609,1629,1648,1668,1689,1709,1729,1750],"xSR":741.5,"ySR":469.95,"xT1":424.9,"yT1":0,"xT2":1058.1,"yT2":0,"toosoon":0,"cond_shown":"Congruent","ratio_trial":100,"L_num":2,"L_den":5,"R_num":6,"R_den":12,"correct_side":2,"subjID":"GabrielaTopaÑustes3","gender":"1","school":"6","age":"12"},{"start_time":1551800664722,"click_time":1551800666060,"finger_time":1551800665721,"fix_duration":1001.1336483777574,"trial":21,"RT":999,"MT":339,"sideResp":2,"stimulus":[],"xmouse":[808,808,808,808,808,808,808,808,808,808,808,808,808,808,808,808,808,808,808,808,808,808,808,808,808,808,808,808,808,808,808,808,808,808,808,808,808,808,807,807,807,807,807,807,807,807,807,807,807,812,824,889,934,970,992,1001,1004,1004,1004,1006,1006,1006,1006,1007,1016,1034,1091],"ymouse":[506,506,506,506,506,506,506,506,506,506,506,506,506,506,506,506,506,506,506,506,506,506,506,506,506,506,506,506,506,506,506,506,506,506,506,506,506,506,506,506,506,506,506,506,506,506,506,506,504,463,384,208,136,95,69,53,39,35,31,28,26,26,26,26,27,36,59],"timestamp_mouse":[19,39,59,77,99,119,138,159,178,198,219,238,259,278,298,319,338,359,378,399,418,438,459,478,499,517,538,558,578,599,619,637,658,679,698,719,738,759,779,799,818,839,859,879,899,918,939,959,978,999,1018,1038,1058,1079,1098,1118,1138,1158,1177,1199,1219,1238,1258,1279,1298,1319,1338],"xSR":741.5,"ySR":469.95,"xT1":424.9,"yT1":0,"xT2":1058.1,"yT2":0,"toosoon":0,"cond_shown":"Incongruent","ratio_trial":200,"L_num":7,"L_den":15,"R_num":6,"R_den":9,"correct_side":2,"subjID":"GabrielaTopaÑustes3","gender":"1","school":"6","age":"12"},{"start_time":1551800668592,"click_time":1551800669860,"finger_time":1551800669540,"fix_duration":250,"trial":22,"RT":948,"MT":320,"sideResp":2,"stimulus":[],"xmouse":[808,808,808,808,808,808,808,808,807,805,804,804,804,804,804,804,804,804,804,804,804,804,804,804,804,804,804,804,804,804,804,804,804,804,804,804,804,804,804,804,804,804,804,804,804,804,805,817,849,882,933,950,978,1007,1007,1007,1007,1008,1016,1020,1024,1027,1039,1094],"ymouse":[551,551,551,551,551,549,549,548,547,545,545,545,545,545,545,545,545,545,545,545,545,545,545,545,545,545,545,545,545,545,545,545,545,545,545,545,545,545,545,545,545,545,545,545,545,540,515,457,310,234,137,112,77,51,51,51,51,49,43,40,39,38,36,29],"timestamp_mouse":[13,30,49,69,88,109,127,148,168,189,208,228,247,269,287,309,328,347,368,388,409,428,447,469,488,509,529,549,568,589,607,628,648,668,689,708,727,749,769,788,809,829,849,868,888,908,928,948,969,988,1008,1028,1048,1069,1088,1109,1128,1149,1169,1187,1207,1228,1249,1268],"xSR":741.5,"ySR":469.95,"xT1":424.9,"yT1":0,"xT2":1058.1,"yT2":0,"toosoon":0,"cond_shown":"Incongruent","ratio_trial":200,"L_num":7,"L_den":10,"R_num":14,"R_den":28,"correct_side":1,"subjID":"GabrielaTopaÑustes3","gender":"1","school":"6","age":"12"},{"start_time":1551800673675,"click_time":1551800674880,"finger_time":1551800674500,"fix_duration":1392.3432171625839,"trial":23,"RT":825,"MT":380,"sideResp":1,"stimulus":[],"xmouse":[803,803,803,803,803,803,803,803,803,803,803,803,803,803,803,803,803,803,803,803,803,803,803,803,803,803,803,803,803,803,803,803,803,803,803,803,803,803,803,802,785,765,729,684,637,552,533,520,512,505,500,497,492,485,481,481,480,478,476,475,472],"ymouse":[503,503,503,503,503,503,503,503,503,503,503,503,503,503,503,503,503,503,503,503,503,503,503,503,503,503,503,503,503,503,503,503,503,503,503,503,503,503,503,502,491,467,424,373,319,218,185,159,146,137,129,125,121,118,117,117,115,111,106,101,87],"timestamp_mouse":[9,39,46,65,86,105,126,145,166,186,206,226,246,264,284,304,325,345,364,386,405,425,446,466,485,505,525,546,564,585,606,625,645,666,685,706,726,746,765,785,805,825,845,865,886,905,925,945,966,985,1006,1025,1046,1065,1085,1105,1126,1145,1165,1186,1204],"xSR":741.5,"ySR":469.95,"xT1":424.9,"yT1":0,"xT2":1058.1,"yT2":0,"toosoon":0,"cond_shown":"Congruent","ratio_trial":100,"L_num":6,"L_den":12,"R_num":15,"R_den":25,"correct_side":2,"subjID":"GabrielaTopaÑustes3","gender":"1","school":"6","age":"12"},{"start_time":1551800676132,"click_time":1551800678001,"finger_time":1551800677680,"fix_duration":250,"trial":24,"RT":1548,"MT":321,"sideResp":2,"stimulus":[],"xmouse":[786,786,786,786,786,786,786,786,786,786,786,786,786,786,786,786,786,786,786,786,786,786,786,786,786,786,786,786,786,786,786,786,786,786,786,786,786,786,786,786,786,786,786,786,786,786,786,786,786,786,786,786,786,786,786,786,786,786,786,786,786,786,786,786,786,786,786,786,786,786,786,786,786,786,786,786,788,804,826,865,907,953,994,1026,1026,1026,1026,1026,1026,1026,1026,1026,1043,1069],"ymouse":[522,522,522,522,522,522,522,522,522,522,522,522,522,522,522,522,522,522,522,522,522,522,522,522,522,522,522,522,522,522,522,522,522,522,522,522,522,522,522,522,522,522,522,522,522,522,522,522,522,522,522,522,522,522,522,522,522,522,522,522,522,522,522,522,522,522,522,522,522,522,522,522,522,522,522,522,511,440,364,275,186,108,43,0,0,0,0,0,0,0,0,0,13,67],"timestamp_mouse":[25,37,48,67,89,108,128,148,169,188,208,229,249,268,289,308,328,349,368,389,407,427,448,468,488,509,527,548,568,589,607,629,648,669,689,708,729,748,769,789,808,829,849,869,889,908,929,948,968,989,1008,1028,1048,1069,1089,1109,1128,1148,1168,1189,1209,1228,1249,1268,1289,1308,1329,1349,1368,1389,1409,1428,1449,1468,1489,1508,1528,1548,1567,1588,1608,1628,1648,1669,1688,1708,1728,1748,1768,1787,1808,1829,1848,1869],"xSR":741.5,"ySR":469.95,"xT1":424.9,"yT1":0,"xT2":1058.1,"yT2":0,"toosoon":0,"cond_shown":"Congruent","ratio_trial":300,"L_num":4,"L_den":20,"R_num":13,"R_den":26,"correct_side":2,"subjID":"GabrielaTopaÑustes3","gender":"1","school":"6","age":"12"},{"start_time":1551800680974,"click_time":1551800682561,"finger_time":1551800682241,"fix_duration":1391.6643469121882,"trial":25,"RT":1267,"MT":320,"sideResp":1,"stimulus":[],"xmouse":[791,791,791,791,791,791,791,791,791,791,791,791,791,791,791,791,791,791,791,791,791,791,791,791,791,791,791,791,791,791,791,791,791,791,791,791,791,791,791,791,791,791,791,791,791,791,791,791,791,791,791,791,791,791,791,791,791,791,791,791,791,791,790,770,739,704,668,659,647,641,636,619,610,598,589,566,545,530,507,496],"ymouse":[498,498,498,498,498,498,498,498,498,498,498,498,498,498,498,498,498,498,498,498,498,498,498,498,498,498,498,498,498,498,498,498,498,498,498,498,498,498,498,498,498,498,498,498,498,498,498,498,498,498,498,498,498,498,498,498,498,498,498,498,498,498,485,437,364,305,251,235,212,198,187,168,162,154,149,137,126,120,109,98],"timestamp_mouse":[13,37,46,67,85,106,126,147,167,187,207,226,247,267,287,307,325,346,367,386,407,426,447,467,487,507,526,547,567,586,607,625,645,667,686,705,727,747,767,785,806,827,846,867,885,907,926,947,966,986,1005,1026,1046,1067,1085,1106,1127,1146,1167,1187,1206,1227,1246,1267,1286,1306,1325,1346,1366,1387,1406,1426,1446,1466,1486,1507,1526,1546,1565,1587],"xSR":741.5,"ySR":469.95,"xT1":424.9,"yT1":0,"xT2":1058.1,"yT2":0,"toosoon":0,"cond_shown":"Incongruent","ratio_trial":300,"L_num":4,"L_den":5,"R_num":8,"R_den":16,"correct_side":1,"subjID":"GabrielaTopaÑustes3","gender":"1","school":"6","age":"12"},{"start_time":1551800684799,"click_time":1551800686680,"finger_time":1551800686220,"fix_duration":1457.4787677526044,"trial":26,"RT":1421,"MT":460,"sideResp":2,"stimulus":[],"xmouse":[804,804,804,804,804,804,804,804,804,804,804,804,804,804,804,804,804,804,804,804,804,804,804,804,804,804,804,804,804,804,804,804,804,804,804,804,804,804,804,804,804,804,804,804,804,804,804,804,804,804,804,804,804,804,804,804,804,804,804,804,804,804,804,804,804,804,804,804,804,804,806,845,909,978,1023,1047,1046,1041,1035,1034,1034,1037,1040,1045,1049,1055,1066,1074,1078,1080,1080,1080,1080,1079,1081],"ymouse":[495,495,495,495,495,495,495,495,495,495,495,495,495,495,495,495,495,495,495,495,495,495,495,494,494,494,494,494,494,494,494,494,494,494,494,494,494,494,494,493,493,493,493,493,493,493,493,493,493,493,493,493,493,493,493,493,493,493,493,493,493,493,493,493,493,493,493,493,493,493,489,432,366,314,279,245,242,237,234,232,226,223,221,218,215,204,187,173,162,152,146,142,136,117,88],"timestamp_mouse":[12,21,41,60,80,101,122,142,162,181,201,222,241,262,281,302,322,342,362,382,400,422,442,461,482,501,522,541,562,581,602,621,641,662,681,702,721,742,761,781,801,821,841,860,882,901,921,942,962,982,1001,1020,1041,1061,1081,1101,1122,1141,1161,1182,1200,1222,1242,1262,1281,1301,1321,1342,1362,1381,1401,1421,1442,1461,1481,1502,1522,1541,1562,1581,1602,1620,1641,1661,1681,1701,1721,1740,1761,1780,1801,1821,1841,1861,1880],"xSR":741.5,"ySR":469.95,"xT1":424.9,"yT1":0,"xT2":1058.1,"yT2":0,"toosoon":0,"cond_shown":"Congruent","ratio_trial":200,"L_num":7,"L_den":15,"R_num":18,"R_den":27,"correct_side":2,"subjID":"GabrielaTopaÑustes3","gender":"1","school":"6","age":"12"},{"start_time":1551800687691,"click_time":1551800689480,"finger_time":1551800689060,"fix_duration":250,"trial":27,"RT":1369,"MT":420,"sideResp":1,"stimulus":[],"xmouse":[770,770,770,770,770,770,770,770,770,770,770,770,770,770,770,770,770,770,770,770,770,770,770,770,770,770,770,770,770,770,770,770,770,770,770,770,770,770,770,770,770,770,770,770,770,770,770,770,770,770,770,770,770,770,770,770,770,770,770,770,770,770,770,770,770,770,769,767,755,712,668,602,576,556,536,520,492,486,478,477,476,477,479,485,490,506,513,518,520,520],"ymouse":[489,489,489,489,489,489,489,489,489,489,489,489,489,489,489,489,489,489,489,489,489,489,489,489,489,489,489,489,489,489,489,489,489,489,489,489,489,489,489,489,489,489,489,489,489,489,489,489,489,489,489,489,489,489,489,489,489,489,489,489,489,489,489,489,489,489,488,484,466,417,377,323,302,285,271,261,248,245,237,234,230,217,210,197,185,149,129,113,103,96],"timestamp_mouse":[8,38,49,70,89,110,129,150,170,190,209,228,250,270,289,309,330,349,370,390,410,430,450,470,489,510,530,548,570,590,610,628,650,670,690,709,729,749,769,790,809,830,850,870,890,909,930,949,970,989,1009,1029,1049,1070,1090,1109,1128,1149,1170,1189,1209,1228,1249,1269,1290,1309,1329,1349,1369,1389,1409,1429,1449,1469,1489,1508,1529,1549,1568,1590,1608,1628,1649,1669,1689,1710,1729,1749,1769,1789],"xSR":741.5,"ySR":469.95,"xT1":424.9,"yT1":0,"xT2":1058.1,"yT2":0,"toosoon":0,"cond_shown":"Incongruent","ratio_trial":200,"L_num":1,"L_den":2,"R_num":3,"R_den":10,"correct_side":1,"subjID":"GabrielaTopaÑustes3","gender":"1","school":"6","age":"12"},{"start_time":1551800691904,"click_time":1551800693380,"finger_time":1551800693320,"fix_duration":1282.3040526625878,"trial":28,"RT":1416,"MT":60,"sideResp":1,"stimulus":[],"xmouse":[766,766,766,766,766,766,766,766,766,766,766,766,766,766,766,766,766,766,766,766,766,766,766,766,766,766,766,766,766,766,766,766,766,766,766,766,766,766,766,766,766,766,766,766,766,766,766,766,766,766,766,766,766,766,766,766,766,766,766,766,766,766,766,766,766,766,766,766,765,762,685,608,528,454],"ymouse":[538,538,538,538,538,538,538,538,538,538,538,538,538,538,538,538,538,538,538,538,538,538,538,538,538,538,538,538,538,538,538,538,538,538,538,538,538,538,538,538,538,538,538,538,538,538,538,538,538,538,538,538,538,538,538,538,538,538,538,538,538,538,538,538,538,538,538,538,538,534,418,309,198,97],"timestamp_mouse":[15,36,56,76,96,116,137,156,177,197,216,236,256,276,297,315,337,356,375,396,417,437,457,477,496,515,536,555,577,596,616,637,656,677,697,715,736,757,776,797,817,837,857,876,896,917,936,957,977,996,1017,1036,1057,1076,1096,1115,1137,1157,1177,1196,1215,1237,1257,1276,1296,1316,1336,1357,1376,1396,1416,1435,1455,1476],"xSR":741.5,"ySR":469.95,"xT1":424.9,"yT1":0,"xT2":1058.1,"yT2":0,"toosoon":0,"cond_shown":"Incongruent","ratio_trial":300,"L_num":7,"L_den":10,"R_num":8,"R_den":20,"correct_side":1,"subjID":"GabrielaTopaÑustes3","gender":"1","school":"6","age":"12"},{"start_time":1551800699094,"click_time":1551800701222,"finger_time":1551800700620,"fix_duration":813.8936718289991,"trial":29,"RT":1526,"MT":602,"sideResp":1,"stimulus":[],"xmouse":[809,809,809,809,809,809,809,809,809,809,809,809,809,809,809,809,809,809,809,809,809,809,809,809,809,809,809,809,809,809,809,809,809,809,809,809,809,809,809,809,809,809,809,809,809,809,809,809,809,809,809,809,809,809,809,809,809,809,809,809,809,809,809,809,809,809,809,809,809,809,809,809,809,809,808,790,748,557,444,338,259,259,259,259,259,259,259,259,259,259,259,259,259,259,259,259,259,259,259,259,259,398,399,400,405,415,425],"ymouse":[527,527,527,527,527,527,527,527,527,527,527,527,527,527,527,527,527,527,527,527,527,527,527,527,527,527,527,527,527,527,527,527,527,527,527,527,527,527,527,527,527,527,527,527,527,527,527,527,527,527,527,527,527,527,527,527,527,527,527,527,527,527,527,527,527,527,527,527,527,527,527,527,527,527,521,499,441,236,135,59,3,3,3,3,3,3,3,3,3,3,3,3,3,3,3,3,3,3,3,3,3,1,6,10,15,24,30],"timestamp_mouse":[10,26,52,67,86,106,127,145,167,185,206,226,247,266,287,307,327,346,366,387,406,426,446,467,487,506,527,546,565,586,606,626,647,666,687,707,726,747,765,787,806,825,847,866,887,907,926,947,966,987,1006,1027,1046,1067,1087,1106,1126,1147,1165,1187,1205,1226,1246,1266,1286,1306,1327,1347,1366,1387,1406,1427,1446,1467,1486,1507,1526,1546,1567,1586,1606,1626,1647,1667,1687,1705,1727,1746,1766,1786,1806,1827,1846,1866,1886,1907,1927,1946,1966,1986,2006,2027,2046,2066,2086,2105,2128],"xSR":741.5,"ySR":469.95,"xT1":424.9,"yT1":0,"xT2":1058.1,"yT2":0,"toosoon":0,"cond_shown":"Congruent","ratio_trial":200,"L_num":12,"L_den":20,"R_num":6,"R_den":15,"correct_side":1,"subjID":"GabrielaTopaÑustes3","gender":"1","school":"6","age":"12"},{"start_time":1551800702664,"click_time":1551800703800,"finger_time":1551800703740,"fix_duration":362.94019074710235,"trial":30,"RT":1076,"MT":60,"sideResp":1,"stimulus":[],"xmouse":[767,767,767,767,767,767,767,767,767,767,767,767,767,767,767,767,767,767,767,767,767,767,767,767,767,767,767,767,767,767,767,767,767,767,767,767,767,767,767,767,767,767,767,767,767,767,767,767,767,767,767,767,763,695,636,563,483],"ymouse":[498,498,498,498,498,498,498,498,498,498,498,498,498,498,498,498,498,498,498,498,498,498,498,498,498,498,498,498,498,498,498,498,498,498,498,498,498,498,498,498,498,498,498,498,498,498,498,498,498,498,498,498,493,393,309,198,62],"timestamp_mouse":[16,42,56,75,97,116,137,157,177,196,217,237,255,276,296,317,337,356,377,397,417,437,456,477,496,516,537,557,576,595,617,637,656,676,697,716,737,755,776,797,816,837,856,876,896,916,936,957,975,995,1016,1036,1056,1076,1096,1115,1136],"xSR":741.5,"ySR":469.95,"xT1":424.9,"yT1":0,"xT2":1058.1,"yT2":0,"toosoon":0,"cond_shown":"Incongruent","ratio_trial":200,"L_num":7,"L_den":15,"R_num":4,"R_den":6,"correct_side":2,"subjID":"GabrielaTopaÑustes3","gender":"1","school":"6","age":"12"},{"start_time":1551800707471,"click_time":1551800708320,"finger_time":1551800707900,"fix_duration":1248.513774189627,"trial":31,"RT":429,"MT":420,"sideResp":2,"stimulus":[],"xmouse":[789,789,789,789,789,789,789,789,789,789,789,789,789,789,789,789,789,789,790,806,823,880,929,975,1081,1143,1192,1216,1223,1223,1223,1223,1223,1223,1223,1223,1223,1223,1217,1208,1193,1171,1134],"ymouse":[543,543,543,543,543,543,543,543,543,543,543,543,543,543,543,543,543,543,543,537,525,484,442,390,228,134,61,28,19,18,17,14,14,14,14,14,14,14,18,21,25,32,46],"timestamp_mouse":[14,35,49,69,90,110,128,150,168,188,210,229,250,268,289,308,329,349,370,388,408,429,449,469,489,510,530,549,569,589,609,629,649,669,688,709,729,750,771,789,810,829,849],"xSR":741.5,"ySR":469.95,"xT1":424.9,"yT1":0,"xT2":1058.1,"yT2":0,"toosoon":0,"cond_shown":"Incongruent","ratio_trial":100,"L_num":3,"L_den":5,"R_num":8,"R_den":16,"correct_side":1,"subjID":"GabrielaTopaÑustes3","gender":"1","school":"6","age":"12"},{"start_time":1551800710941,"click_time":1551800711720,"finger_time":1551800711080,"fix_duration":317.00540694555735,"trial":32,"RT":139,"MT":640,"sideResp":1,"stimulus":[],"xmouse":[800,800,800,800,800,801,791,783,775,771,768,765,763,758,749,732,612,559,540,537,537,537,535,534,534,532,527,527,527,527,527,527,527,526,525,525,525,525,525,524],"ymouse":[533,533,533,533,533,532,484,455,426,411,403,393,387,375,356,318,135,71,44,39,37,32,27,23,20,16,10,10,10,10,10,30,46,55,56,56,56,56,57,57],"timestamp_mouse":[1,38,38,60,79,99,119,139,159,179,199,220,240,259,279,300,318,339,359,379,399,419,438,460,479,498,519,538,559,579,598,619,639,660,679,698,719,739,759,779],"xSR":741.5,"ySR":469.95,"xT1":424.9,"yT1":0,"xT2":1058.1,"yT2":0,"toosoon":0,"cond_shown":"Incongruent","ratio_trial":300,"L_num":13,"L_den":26,"R_num":12,"R_den":15,"correct_side":2,"subjID":"GabrielaTopaÑustes3","gender":"1","school":"6","age":"12"},{"start_time":1551800713463,"click_time":1551800714862,"finger_time":1551800714380,"fix_duration":802.1514244945309,"trial":33,"RT":917,"MT":482,"sideResp":2,"stimulus":[],"xmouse":[792,792,792,792,792,792,792,792,792,792,792,792,792,792,792,792,792,792,792,792,792,792,792,792,792,792,792,792,792,792,792,792,792,792,792,792,792,792,792,792,792,792,792,794,795,825,849,876,900,917,917,918,919,921,928,958,972,978,978,978,978,981,987,992,994,998,1005,1015,1036,1071],"ymouse":[497,497,497,497,497,497,497,497,497,497,497,497,497,497,497,497,497,497,497,497,497,497,497,497,497,497,497,497,497,497,497,497,497,497,497,497,497,497,497,497,497,497,497,496,488,383,291,207,146,111,110,108,106,105,103,99,95,93,92,92,92,92,92,92,92,92,92,92,85,72],"timestamp_mouse":[17,37,61,78,97,116,138,158,176,197,218,237,258,277,297,317,337,357,377,397,417,437,457,478,497,518,537,558,577,597,617,637,658,677,697,718,738,758,778,798,818,837,858,877,897,917,937,957,976,998,1017,1038,1057,1077,1097,1117,1137,1158,1176,1198,1218,1237,1257,1277,1298,1316,1337,1357,1376,1398],"xSR":741.5,"ySR":469.95,"xT1":424.9,"yT1":0,"xT2":1058.1,"yT2":0,"toosoon":0,"cond_shown":"Incongruent","ratio_trial":300,"L_num":4,"L_den":20,"R_num":2,"R_den":4,"correct_side":2,"subjID":"GabrielaTopaÑustes3","gender":"1","school":"6","age":"12"},{"start_time":1551800717428,"click_time":1551800718620,"finger_time":1551800718339,"fix_duration":1465.325522874921,"trial":34,"RT":911,"MT":281,"sideResp":2,"stimulus":[],"xmouse":[776,776,776,776,776,776,776,776,776,776,776,776,776,776,776,776,776,776,776,776,776,776,776,776,776,776,776,776,776,776,776,776,776,776,776,776,776,776,776,776,776,776,776,781,789,799,812,832,838,843,844,852,942,1002,1049,1084,1100,1108,1109,1109],"ymouse":[514,514,514,514,514,514,514,514,514,514,514,514,514,514,514,514,514,514,514,514,514,514,514,514,514,514,514,514,514,514,514,514,514,514,514,514,514,514,514,514,514,514,514,502,487,468,452,433,429,427,426,420,346,294,240,195,167,137,114,94],"timestamp_mouse":[13,34,68,72,92,111,132,153,172,191,211,232,253,273,293,312,333,353,372,392,413,433,452,472,493,513,532,553,573,593,613,632,653,672,693,712,733,753,773,793,813,833,853,872,892,911,933,952,973,992,1012,1032,1052,1072,1093,1112,1133,1152,1173,1192],"xSR":741.5,"ySR":469.95,"xT1":424.9,"yT1":0,"xT2":1058.1,"yT2":0,"toosoon":0,"cond_shown":"Incongruent","ratio_trial":100,"L_num":12,"L_den":24,"R_num":9,"R_den":15,"correct_side":2,"subjID":"GabrielaTopaÑustes3","gender":"1","school":"6","age":"12"},{"start_time":1551800720979,"click_time":1551800722540,"finger_time":1551800722179,"fix_duration":1198.6755866419983,"trial":35,"RT":1200,"MT":361,"sideResp":2,"stimulus":[],"xmouse":[777,777,777,776,774,772,764,763,763,763,763,763,763,763,763,763,763,763,763,763,763,763,763,763,763,763,763,763,763,763,763,763,763,763,763,763,763,763,763,763,763,763,763,763,763,763,763,763,763,763,763,763,763,763,763,763,763,763,764,777,826,879,935,983,1019,1049,1053,1054,1055,1056,1065,1076,1095,1114,1123,1131,1131,1132,1113],"ymouse":[513,513,513,513,513,512,512,512,512,512,512,512,512,512,512,512,512,512,512,512,512,512,512,512,512,512,512,512,512,512,512,512,512,512,512,512,512,512,512,512,512,512,512,512,512,512,512,512,512,512,512,512,512,512,512,512,512,512,503,477,393,329,271,227,205,187,183,181,180,177,166,160,151,143,137,130,127,117,92],"timestamp_mouse":[10,21,42,62,82,101,121,141,162,180,200,221,242,261,280,302,321,342,362,382,402,421,442,462,482,500,522,541,561,581,601,621,641,661,681,701,722,741,760,782,802,822,842,862,882,900,921,941,962,980,1001,1022,1040,1060,1081,1101,1122,1141,1161,1181,1200,1221,1240,1261,1281,1302,1321,1341,1360,1381,1401,1420,1441,1461,1481,1502,1520,1541,1561],"xSR":741.5,"ySR":469.95,"xT1":424.9,"yT1":0,"xT2":1058.1,"yT2":0,"toosoon":0,"cond_shown":"Congruent","ratio_trial":100,"L_num":7,"L_den":14,"R_num":9,"R_den":15,"correct_side":2,"subjID":"GabrielaTopaÑustes3","gender":"1","school":"6","age":"12"},{"start_time":1551800723900,"click_time":1551800725182,"finger_time":1551800725061,"fix_duration":299.0369835575052,"trial":36,"RT":1161,"MT":121,"sideResp":2,"stimulus":[],"xmouse":[787,787,787,787,787,787,787,787,787,786,786,786,786,786,786,786,786,786,786,786,786,785,785,785,785,785,785,785,785,785,785,785,785,785,785,785,785,785,785,785,785,785,785,785,785,785,785,785,785,785,785,785,785,785,785,786,790,797,810,877,938,993,1054,1070,1113],"ymouse":[500,500,500,500,500,500,500,500,500,499,499,499,498,498,498,498,498,498,498,497,497,495,495,495,495,495,494,494,494,494,494,494,494,494,494,493,493,493,493,493,493,493,493,493,493,493,493,493,493,493,493,493,493,493,491,489,484,472,457,379,320,267,189,167,87],"timestamp_mouse":[11,20,39,61,80,99,120,140,159,181,201,219,240,260,279,299,321,340,361,381,399,420,441,460,480,501,520,540,559,581,600,620,639,660,680,701,719,740,761,781,800,821,841,860,879,899,919,940,960,981,999,1021,1039,1060,1080,1100,1120,1140,1161,1181,1200,1219,1239,1260,1281],"xSR":741.5,"ySR":469.95,"xT1":424.9,"yT1":0,"xT2":1058.1,"yT2":0,"toosoon":0,"cond_shown":"Congruent","ratio_trial":300,"L_num":7,"L_den":14,"R_num":20,"R_den":25,"correct_side":2,"subjID":"GabrielaTopaÑustes3","gender":"1","school":"6","age":"12"},{"start_time":1551800727321,"click_time":1551800728400,"finger_time":1551800727999,"fix_duration":780.2865170102846,"trial":37,"RT":678,"MT":401,"sideResp":2,"stimulus":[],"xmouse":[794,794,794,794,794,794,794,794,794,794,794,794,793,793,793,793,793,793,793,793,793,793,793,793,793,793,793,793,793,793,793,793,793,803,823,856,887,924,962,1058,1079,1086,1088,1091,1097,1105,1111,1117,1121,1135,1137,1138,1138,1140],"ymouse":[492,492,492,492,491,491,491,491,491,491,491,490,490,490,490,490,490,490,490,490,490,490,490,490,490,490,490,490,490,490,488,485,480,453,417,368,331,292,251,157,139,133,131,130,128,126,122,120,116,105,103,102,100,94],"timestamp_mouse":[19,42,58,78,99,120,140,160,178,199,219,240,259,278,299,318,339,360,380,400,419,439,459,479,498,519,540,559,578,600,619,640,659,678,698,718,739,760,779,800,818,839,858,879,898,920,938,959,978,998,1018,1039,1059,1078],"xSR":741.5,"ySR":469.95,"xT1":424.9,"yT1":0,"xT2":1058.1,"yT2":0,"toosoon":0,"cond_shown":"Incongruent","ratio_trial":200,"L_num":11,"L_den":20,"R_num":3,"R_den":4,"correct_side":2,"subjID":"GabrielaTopaÑustes3","gender":"1","school":"6","age":"12"},{"start_time":1551800729984,"click_time":1551800731761,"finger_time":1551800731361,"fix_duration":342.55663421778036,"trial":38,"RT":1377,"MT":400,"sideResp":1,"stimulus":[],"xmouse":[793,793,793,793,793,793,793,793,793,793,793,792,792,792,792,792,792,792,792,792,792,792,792,792,792,792,792,792,792,791,791,791,791,791,791,791,791,791,791,791,791,790,789,788,788,787,787,787,787,787,787,787,787,787,787,787,787,787,787,787,787,786,786,786,786,785,785,787,793,799,803,806,806,806,806,795,760,725,685,640,592,536,518,502,489,480,472,460,439],"ymouse":[498,498,498,498,498,498,498,498,498,498,498,498,498,498,498,498,498,498,498,498,498,498,498,498,498,498,498,498,498,498,498,498,498,498,498,498,498,498,498,498,498,498,498,498,498,498,498,498,498,498,498,498,498,498,498,498,498,498,498,498,498,497,497,497,497,496,492,482,468,453,445,437,435,429,418,394,359,337,311,288,268,241,229,217,208,201,180,150,82],"timestamp_mouse":[22,41,56,76,95,116,136,156,177,195,215,236,257,275,297,315,336,355,377,395,415,436,457,475,496,516,536,556,576,595,616,636,656,675,696,716,736,755,775,797,816,837,856,876,895,916,936,956,976,995,1017,1036,1057,1075,1096,1115,1136,1156,1176,1197,1216,1236,1257,1277,1296,1316,1336,1355,1377,1395,1416,1436,1456,1476,1495,1515,1535,1555,1577,1596,1615,1636,1656,1675,1696,1717,1737,1755,1777],"xSR":741.5,"ySR":469.95,"xT1":424.9,"yT1":0,"xT2":1058.1,"yT2":0,"toosoon":0,"cond_shown":"Incongruent","ratio_trial":100,"L_num":13,"L_den":26,"R_num":12,"R_den":20,"correct_side":2,"subjID":"GabrielaTopaÑustes3","gender":"1","school":"6","age":"12"},{"start_time":1551800733351,"click_time":1551800734240,"finger_time":1551800734119,"fix_duration":250,"trial":39,"RT":768,"MT":121,"sideResp":2,"stimulus":[],"xmouse":[809,808,808,808,808,808,808,808,808,807,806,804,804,803,803,802,802,801,801,801,801,801,800,800,800,800,800,800,800,800,800,800,800,799,799,798,798,798,816,836,863,897,938,1033,1073],"ymouse":[524,524,524,524,525,525,525,525,525,525,525,525,525,525,525,523,523,523,522,522,522,521,521,519,519,519,519,519,519,517,516,515,514,512,511,509,501,490,434,388,331,267,212,106,61],"timestamp_mouse":[11,39,48,68,90,108,130,150,170,189,209,230,248,269,288,309,329,348,369,388,409,429,448,470,489,509,529,550,569,588,609,628,649,669,688,708,729,749,768,788,809,828,848,869,889],"xSR":741.5,"ySR":469.95,"xT1":424.9,"yT1":0,"xT2":1058.1,"yT2":0,"toosoon":0,"cond_shown":"Incongruent","ratio_trial":100,"L_num":12,"L_den":24,"R_num":9,"R_den":15,"correct_side":2,"subjID":"GabrielaTopaÑustes3","gender":"1","school":"6","age":"12"},{"start_time":1551800735941,"click_time":1551800737520,"finger_time":1551800737119,"fix_duration":640.1195981097212,"trial":40,"RT":1178,"MT":401,"sideResp":1,"stimulus":[],"xmouse":[780,780,780,780,780,780,780,780,780,780,780,780,780,780,780,780,780,780,780,780,780,780,780,780,780,780,780,780,780,780,780,780,780,780,780,780,780,780,780,780,780,780,780,780,780,780,780,780,780,780,780,780,780,780,779,775,760,742,718,658,640,626,616,585,569,554,543,536,531,528,525,524,523,516,507,493,477,461,436],"ymouse":[509,509,509,509,509,509,509,509,509,509,509,509,509,509,509,509,509,509,509,509,509,509,509,509,509,509,509,509,509,509,509,509,509,509,509,509,509,509,509,509,509,509,509,509,509,509,509,509,509,509,509,509,509,508,507,505,500,495,486,444,420,398,380,333,314,294,275,259,228,214,204,202,200,196,181,156,127,101,49],"timestamp_mouse":[18,40,60,79,99,119,139,160,180,199,219,240,259,280,299,319,339,358,379,398,419,439,460,480,500,520,539,559,578,599,620,639,658,680,699,720,739,759,778,798,819,840,860,879,900,920,939,958,979,1000,1019,1038,1058,1079,1100,1119,1140,1158,1178,1198,1219,1239,1260,1279,1299,1318,1339,1358,1379,1399,1419,1440,1460,1479,1498,1518,1540,1559,1578],"xSR":741.5,"ySR":469.95,"xT1":424.9,"yT1":0,"xT2":1058.1,"yT2":0,"toosoon":0,"cond_shown":"Congruent","ratio_trial":100,"L_num":8,"L_den":16,"R_num":2,"R_den":5,"correct_side":1,"subjID":"GabrielaTopaÑustes3","gender":"1","school":"6","age":"12"},{"start_time":1551800738995,"click_time":1551800740740,"finger_time":1551800740439,"fix_duration":774.9327414777013,"trial":41,"RT":1444,"MT":301,"sideResp":2,"stimulus":[],"xmouse":[764,764,764,764,764,764,764,764,764,764,764,764,764,764,764,764,764,764,764,764,764,764,764,764,764,764,764,764,764,764,764,764,764,764,764,764,764,764,764,764,764,764,764,764,764,764,764,764,764,764,764,764,764,764,764,764,764,764,764,764,764,764,764,764,764,764,764,764,764,764,765,774,802,831,866,903,934,979,991,996,1002,1004,1010,1022,1032,1046,1057,1059],"ymouse":[535,535,535,535,535,535,535,535,535,535,535,535,535,535,535,535,535,535,535,535,535,535,535,535,535,535,535,535,535,535,535,535,535,535,535,535,535,535,535,535,535,535,535,535,535,535,535,535,535,535,535,535,535,535,535,535,535,535,535,535,535,535,535,535,535,535,535,535,530,526,516,487,391,319,248,187,145,106,101,100,99,99,96,89,82,74,65,63],"timestamp_mouse":[4,35,45,65,85,105,125,145,165,184,204,224,244,265,285,305,324,345,366,385,405,424,444,465,486,504,524,545,566,584,605,625,645,666,685,704,726,746,765,785,804,824,845,864,885,906,925,945,965,986,1005,1025,1044,1065,1085,1105,1125,1144,1165,1186,1205,1225,1246,1264,1284,1304,1326,1346,1364,1384,1406,1424,1444,1464,1484,1505,1526,1544,1566,1585,1605,1626,1645,1664,1685,1704,1726,1744],"xSR":741.5,"ySR":469.95,"xT1":424.9,"yT1":0,"xT2":1058.1,"yT2":0,"toosoon":0,"cond_shown":"Congruent","ratio_trial":100,"L_num":2,"L_den":5,"R_num":6,"R_den":12,"correct_side":2,"subjID":"GabrielaTopaÑustes3","gender":"1","school":"6","age":"12"},{"start_time":1551800742989,"click_time":1551800744179,"finger_time":1551800744100,"fix_duration":1127.2382427405641,"trial":42,"RT":1111,"MT":79,"sideResp":2,"stimulus":[],"xmouse":[790,790,789,787,786,786,786,786,786,786,785,784,784,784,784,783,783,783,782,782,782,782,782,782,781,781,780,779,779,779,779,779,779,779,778,778,777,776,776,775,774,772,772,772,772,772,772,772,772,772,771,771,770,770,782,809,848,976,1043,1119],"ymouse":[533,533,533,532,532,531,531,531,531,531,531,530,530,530,530,530,530,530,529,529,529,529,529,529,529,529,528,528,528,528,528,528,528,528,528,528,528,527,527,526,526,525,525,525,525,525,525,525,525,525,524,523,518,507,484,437,365,181,100,38],"timestamp_mouse":[10,40,50,71,91,112,131,152,170,192,211,230,252,272,291,311,330,351,371,392,410,430,451,470,491,510,532,552,570,591,612,630,652,670,690,711,732,750,771,791,810,831,850,870,890,910,931,952,972,990,1010,1032,1050,1071,1091,1111,1130,1151,1171,1190],"xSR":741.5,"ySR":469.95,"xT1":424.9,"yT1":0,"xT2":1058.1,"yT2":0,"toosoon":0,"cond_shown":"Incongruent","ratio_trial":300,"L_num":13,"L_den":26,"R_num":12,"R_den":15,"correct_side":2,"subjID":"GabrielaTopaÑustes3","gender":"1","school":"6","age":"12"},{"start_time":1551800748266,"click_time":1551800749500,"finger_time":1551800748399,"fix_duration":825.6729772871516,"trial":43,"RT":133,"MT":1101,"sideResp":2,"stimulus":[],"xmouse":[810,810,810,809,809,807,806,806,803,803,801,801,801,801,801,801,801,801,800,800,800,799,799,799,799,799,799,799,799,799,799,799,799,799,799,799,799,799,798,798,798,798,798,817,879,922,963,998,1032,1038,1039,1039,1039,1040,1062,1077,1090,1094,1097,1097,1098,1100],"ymouse":[472,472,472,471,471,470,469,469,468,468,467,467,467,466,466,466,466,466,466,466,466,465,465,465,465,465,465,465,465,465,465,465,465,465,465,465,465,465,465,464,462,458,451,422,344,293,247,211,181,176,176,176,176,174,155,145,132,126,122,117,110,96],"timestamp_mouse":[14,43,55,74,94,113,133,154,174,193,213,234,254,275,293,313,334,354,374,394,413,434,454,474,494,514,533,554,575,593,615,633,653,674,694,713,733,754,774,794,814,835,854,873,894,914,934,953,975,993,1014,1033,1054,1075,1094,1114,1135,1154,1174,1193,1213,1234],"xSR":741.5,"ySR":469.95,"xT1":424.9,"yT1":0,"xT2":1058.1,"yT2":0,"toosoon":0,"cond_shown":"Incongruent","ratio_trial":100,"L_num":6,"L_den":12,"R_num":3,"R_den":5,"correct_side":2,"subjID":"GabrielaTopaÑustes3","gender":"1","school":"6","age":"12"},{"start_time":1551800750673,"click_time":1551800752460,"finger_time":1551800752041,"fix_duration":250,"trial":44,"RT":1368,"MT":419,"sideResp":2,"stimulus":[],"xmouse":[797,797,797,797,797,797,797,797,797,797,797,797,797,797,797,797,797,797,797,797,797,797,796,796,796,796,796,796,796,796,796,796,796,796,796,796,796,796,796,796,796,795,794,793,793,793,792,792,792,792,792,791,791,791,791,791,791,791,791,791,791,791,791,790,789,789,789,789,794,811,821,852,878,906,945,956,966,975,987,1021,1024,1029,1029,1031,1032,1035,1039,1045,1053,1066],"ymouse":[504,504,504,504,504,504,504,504,504,504,504,504,504,504,504,504,504,504,504,504,504,504,504,504,504,504,504,504,504,504,504,504,504,504,504,504,504,504,504,503,503,502,502,501,501,501,500,500,500,499,499,499,499,499,499,499,499,498,498,498,498,498,498,496,494,490,484,476,458,401,365,296,256,217,176,171,169,169,169,167,166,162,162,162,157,144,129,107,82,48],"timestamp_mouse":[9,37,47,66,87,106,127,146,167,188,206,226,248,268,287,306,328,348,367,386,406,426,447,466,486,507,526,547,567,588,606,628,648,666,687,706,728,747,766,787,807,826,848,867,887,907,926,947,966,987,1006,1026,1047,1066,1088,1107,1126,1147,1167,1186,1206,1228,1246,1267,1288,1307,1328,1347,1368,1386,1406,1426,1447,1467,1487,1507,1527,1546,1566,1587,1606,1626,1647,1667,1687,1706,1726,1746,1766,1786],"xSR":741.5,"ySR":469.95,"xT1":424.9,"yT1":0,"xT2":1058.1,"yT2":0,"toosoon":0,"cond_shown":"Incongruent","ratio_trial":300,"L_num":1,"L_den":2,"R_num":3,"R_den":15,"correct_side":1,"subjID":"GabrielaTopaÑustes3","gender":"1","school":"6","age":"12"},{"start_time":1551800754530,"click_time":1551800755721,"finger_time":1551800755421,"fix_duration":1049.0767165155087,"trial":45,"RT":891,"MT":300,"sideResp":1,"stimulus":[],"xmouse":[778,777,776,775,773,773,772,771,771,771,771,771,771,771,771,771,771,771,771,771,771,771,771,771,771,770,770,770,770,770,770,770,770,770,770,770,770,770,770,770,769,768,766,765,759,750,722,680,649,616,585,552,544,540,537,534,528,523,516,509],"ymouse":[502,499,496,493,489,487,484,483,483,483,483,483,483,482,482,482,481,481,481,481,481,481,481,481,481,479,479,479,479,479,479,479,479,479,479,479,479,479,479,479,478,477,473,472,462,450,410,358,314,272,235,197,187,182,178,174,158,137,115,96],"timestamp_mouse":[14,44,50,69,90,110,129,151,169,190,211,230,249,270,289,311,331,351,369,390,411,429,449,469,489,510,530,551,571,591,609,629,650,671,690,710,729,750,771,791,809,829,849,871,891,910,929,949,969,989,1009,1030,1050,1070,1089,1110,1130,1150,1169,1191],"xSR":741.5,"ySR":469.95,"xT1":424.9,"yT1":0,"xT2":1058.1,"yT2":0,"toosoon":0,"cond_shown":"Incongruent","ratio_trial":300,"L_num":1,"L_den":2,"R_num":2,"R_den":10,"correct_side":1,"subjID":"GabrielaTopaÑustes3","gender":"1","school":"6","age":"12"},{"start_time":1551800757213,"click_time":1551800758800,"finger_time":1551800758339,"fix_duration":250,"trial":46,"RT":1126,"MT":461,"sideResp":2,"stimulus":[],"xmouse":[803,803,803,803,803,803,803,803,803,803,803,803,803,803,803,803,803,803,803,803,803,803,803,803,803,803,803,803,803,803,803,803,803,803,803,803,803,803,803,803,803,803,803,803,803,803,803,803,803,803,803,803,803,803,803,809,820,841,905,939,972,997,1012,1031,1033,1035,1037,1037,1037,1037,1037,1043,1046,1049,1049,1050,1050,1051,1058,1068],"ymouse":[529,529,529,529,529,529,529,529,529,529,529,529,529,529,529,529,529,529,529,529,529,529,529,529,529,529,529,529,529,529,529,529,529,529,529,529,529,529,529,529,529,529,529,529,529,529,529,529,529,529,529,529,529,527,507,478,437,382,253,204,162,135,125,111,108,104,92,81,75,75,75,75,75,75,75,75,75,75,73,72],"timestamp_mouse":[9,43,47,66,86,106,128,146,166,186,208,227,246,266,288,307,328,347,367,386,408,426,446,467,487,508,528,546,567,588,606,627,648,666,686,708,728,748,767,788,807,826,847,868,887,906,926,947,966,988,1008,1026,1046,1067,1087,1107,1126,1148,1166,1186,1206,1226,1246,1267,1286,1307,1326,1346,1366,1387,1408,1427,1447,1467,1488,1507,1528,1547,1566,1586],"xSR":741.5,"ySR":469.95,"xT1":424.9,"yT1":0,"xT2":1058.1,"yT2":0,"toosoon":0,"cond_shown":"Congruent","ratio_trial":200,"L_num":3,"L_den":12,"R_num":9,"R_den":20,"correct_side":2,"subjID":"GabrielaTopaÑustes3","gender":"1","school":"6","age":"12"},{"start_time":1551800760470,"click_time":1551800761679,"finger_time":1551800761419,"fix_duration":807.7905435457343,"trial":47,"RT":949,"MT":260,"sideResp":1,"stimulus":[],"xmouse":[791,791,791,791,791,791,791,791,791,791,791,791,791,791,791,791,791,791,791,791,791,791,791,791,791,791,791,791,791,791,791,791,791,791,791,791,791,791,791,791,791,791,791,788,785,769,755,728,709,692,636,604,581,568,562,559,555,549,537,519,483],"ymouse":[511,511,511,511,511,511,511,511,511,511,511,511,511,511,511,511,511,511,511,511,511,511,511,511,511,511,511,511,511,511,511,511,511,511,511,511,511,511,511,511,511,511,511,509,505,489,479,456,440,421,342,298,267,249,237,227,214,198,171,131,40],"timestamp_mouse":[10,30,50,70,89,110,129,151,170,191,211,230,250,269,291,310,329,350,371,390,410,430,450,469,490,511,531,549,569,589,609,631,649,670,691,710,729,750,771,790,810,830,849,870,890,910,930,949,970,990,1011,1029,1049,1069,1089,1109,1129,1149,1170,1189,1209],"xSR":741.5,"ySR":469.95,"xT1":424.9,"yT1":0,"xT2":1058.1,"yT2":0,"toosoon":0,"cond_shown":"Incongruent","ratio_trial":300,"L_num":1,"L_den":2,"R_num":2,"R_den":10,"correct_side":1,"subjID":"GabrielaTopaÑustes3","gender":"1","school":"6","age":"12"},{"start_time":1551800764492,"click_time":1551800765619,"finger_time":1551800765480,"fix_duration":1471.2872072979837,"trial":48,"RT":988,"MT":139,"sideResp":2,"stimulus":[],"xmouse":[790,790,790,790,790,790,790,790,790,790,790,790,790,790,790,790,790,790,790,790,790,790,790,790,790,790,790,790,790,790,790,790,790,790,790,790,790,790,790,790,790,790,790,790,790,790,789,790,796,827,849,879,912,964,1022,1048,1066],"ymouse":[522,522,522,522,522,522,522,522,522,522,522,522,522,522,522,522,522,522,522,522,522,522,522,522,522,522,522,522,522,522,522,522,522,522,522,522,522,522,522,522,522,522,522,522,522,522,518,509,490,431,399,355,306,232,151,115,93],"timestamp_mouse":[10,35,49,67,87,107,128,147,169,187,208,229,248,269,288,308,328,348,367,388,407,428,449,468,487,509,529,547,569,587,607,628,649,668,687,709,728,747,769,788,807,827,848,867,889,908,927,949,968,988,1007,1027,1047,1068,1088,1107,1127],"xSR":741.5,"ySR":469.95,"xT1":424.9,"yT1":0,"xT2":1058.1,"yT2":0,"toosoon":0,"cond_shown":"Incongruent","ratio_trial":100,"L_num":12,"L_den":30,"R_num":2,"R_den":4,"correct_side":2,"subjID":"GabrielaTopaÑustes3","gender":"1","school":"6","age":"12"},{"start_time":1551800767577,"click_time":1551800768699,"finger_time":1551800768280,"fix_duration":954.9711609088946,"trial":49,"RT":703,"MT":419,"sideResp":1,"stimulus":[],"xmouse":[776,776,776,776,776,776,776,776,776,776,776,776,776,776,776,776,776,776,776,776,776,776,776,776,776,776,776,776,776,776,774,769,767,764,759,746,731,712,675,652,607,582,556,535,522,510,510,510,510,510,510,510,510,510,510,510,504],"ymouse":[547,547,547,547,547,547,547,547,547,547,547,547,547,547,547,547,547,547,547,547,547,547,547,547,547,547,547,547,547,547,546,537,533,523,511,466,434,398,339,308,244,212,181,154,137,119,118,118,118,118,118,118,118,118,118,117,96],"timestamp_mouse":[15,41,43,63,82,102,123,144,163,183,203,223,243,263,283,304,322,342,363,383,403,423,443,464,483,503,524,544,562,583,602,623,643,663,682,703,723,743,763,783,803,822,844,862,882,904,923,942,962,983,1003,1026,1043,1063,1083,1102,1122],"xSR":741.5,"ySR":469.95,"xT1":424.9,"yT1":0,"xT2":1058.1,"yT2":0,"toosoon":0,"cond_shown":"Congruent","ratio_trial":100,"L_num":2,"L_den":5,"R_num":11,"R_den":22,"correct_side":2,"subjID":"GabrielaTopaÑustes3","gender":"1","school":"6","age":"12"},{"start_time":1551800770693,"click_time":1551800771960,"finger_time":1551800771599,"fix_duration":790.275848870814,"trial":50,"RT":906,"MT":361,"sideResp":1,"stimulus":[],"xmouse":[800,800,800,799,799,799,799,799,799,799,799,799,799,799,799,799,799,799,799,799,799,799,799,799,799,799,799,799,799,799,799,798,797,797,797,797,797,797,796,796,794,791,786,777,762,720,703,685,668,655,634,629,625,621,619,614,610,605,601,596,568,552,535,521],"ymouse":[517,517,517,517,517,517,517,517,517,517,517,517,517,517,517,517,517,517,517,517,517,517,517,517,517,517,517,517,517,517,516,516,515,515,515,515,514,514,513,512,509,506,501,490,477,444,429,414,394,376,333,300,273,248,234,215,204,193,185,176,142,126,112,99],"timestamp_mouse":[9,41,48,68,88,107,126,147,167,186,208,226,247,267,286,307,327,347,367,386,407,427,448,467,486,507,527,548,567,586,607,628,646,667,687,706,727,746,767,787,806,826,847,867,887,906,926,946,966,986,1008,1027,1046,1066,1086,1106,1127,1147,1166,1187,1207,1227,1246,1267],"xSR":741.5,"ySR":469.95,"xT1":424.9,"yT1":0,"xT2":1058.1,"yT2":0,"toosoon":0,"cond_shown":"Incongruent","ratio_trial":100,"L_num":1,"L_den":2,"R_num":8,"R_den":20,"correct_side":1,"subjID":"GabrielaTopaÑustes3","gender":"1","school":"6","age":"12"},{"start_time":1551800773316,"click_time":1551800774901,"finger_time":1551800774619,"fix_duration":615.0629461238142,"trial":51,"RT":1303,"MT":282,"sideResp":1,"stimulus":[],"xmouse":[800,800,800,800,800,800,800,800,800,800,800,800,800,800,800,800,800,800,800,800,800,800,800,800,800,800,800,800,800,800,800,800,800,800,800,800,800,800,800,800,800,800,800,800,800,800,800,800,800,800,800,800,800,800,800,800,800,800,800,800,800,800,800,799,769,746,709,669,621,544,533,523,515,506,498,495,495,494,494,474],"ymouse":[540,540,540,540,540,540,540,540,540,540,540,540,540,540,540,540,540,540,540,540,540,540,540,540,540,540,540,540,540,540,540,540,540,540,540,540,540,540,540,540,540,540,540,540,540,540,540,540,540,540,540,540,540,540,540,540,540,540,540,540,540,540,538,533,492,464,419,371,314,209,189,171,160,148,143,142,141,141,140,96],"timestamp_mouse":[13,37,44,65,83,104,125,145,165,184,204,223,244,265,284,305,324,344,365,384,404,425,444,464,483,503,524,544,564,583,603,625,645,664,683,705,724,743,763,785,805,823,844,865,884,904,923,943,965,983,1003,1024,1044,1063,1083,1104,1123,1144,1165,1183,1204,1225,1244,1263,1284,1303,1323,1344,1364,1384,1403,1423,1444,1463,1483,1504,1524,1544,1564,1584],"xSR":741.5,"ySR":469.95,"xT1":424.9,"yT1":0,"xT2":1058.1,"yT2":0,"toosoon":0,"cond_shown":"Congruent","ratio_trial":100,"L_num":9,"L_den":15,"R_num":8,"R_den":16,"correct_side":1,"subjID":"GabrielaTopaÑustes3","gender":"1","school":"6","age":"12"},{"start_time":1551800776329,"click_time":1551800778121,"finger_time":1551800777860,"fix_duration":466.07738105118636,"trial":52,"RT":1531,"MT":261,"sideResp":1,"stimulus":[],"xmouse":[752,752,752,752,752,752,752,752,752,752,752,752,752,752,752,752,752,752,752,752,752,752,752,752,752,752,752,752,752,752,752,752,752,752,752,752,752,752,752,752,752,752,752,752,752,752,752,752,752,752,752,752,752,752,752,752,752,752,752,752,752,752,752,752,752,752,752,752,752,752,752,751,751,751,749,747,738,723,703,653,629,611,594,573,540,532,525,522,519,519],"ymouse":[534,534,534,534,534,534,534,534,534,534,534,534,534,534,534,534,534,534,534,534,534,534,534,534,534,534,534,534,534,534,534,534,534,534,534,534,534,534,534,534,534,534,534,534,534,534,534,534,534,534,534,534,534,534,534,534,534,534,534,534,534,534,534,534,534,534,534,534,534,534,533,532,531,529,526,520,491,453,407,305,263,233,209,181,132,119,108,103,100,99],"timestamp_mouse":[17,36,50,72,90,111,132,150,170,192,210,231,250,270,290,312,331,351,372,390,411,432,451,471,491,510,532,551,571,590,611,630,652,671,690,711,730,752,770,791,812,831,850,871,892,912,931,951,972,991,1011,1030,1050,1071,1092,1111,1131,1150,1171,1190,1212,1230,1252,1271,1291,1312,1332,1350,1371,1391,1410,1431,1450,1472,1491,1511,1531,1551,1571,1590,1611,1630,1650,1671,1692,1710,1730,1751,1771,1792],"xSR":741.5,"ySR":469.95,"xT1":42