[{"start_time":1551801170766,"click_time":1551801172024,"finger_time":1551801171563,"fix_duration":1496.637360685179,"trial":0,"RT":797,"MT":461,"sideResp":1,"stimulus":"img/500/equaldotsize/L/13_Ratio_500_L_12_R_6.png","xmouse":[819,816,816,816,816,816,816,816,816,816,816,816,816,816,816,816,816,816,816,816,816,816,816,816,816,816,816,816,816,816,816,816,816,815,811,806,802,797,790,767,756,746,730,718,690,676,660,643,633,617,612,608,607,604,591,579,565,550,531,512,478,459,450],"ymouse":[545,545,545,545,545,545,545,545,545,545,545,545,545,545,545,545,545,545,545,545,545,545,545,545,545,545,545,545,545,545,545,545,536,527,509,499,491,482,470,442,430,422,410,403,390,384,377,370,365,356,353,351,350,346,331,317,299,276,242,205,155,119,96],"timestamp_mouse":[3,39,57,78,97,117,138,158,177,197,218,237,258,278,298,318,337,357,377,397,418,438,458,477,498,518,538,558,578,597,617,637,657,677,697,717,737,758,777,797,817,838,857,878,898,917,937,957,978,997,1018,1037,1057,1077,1098,1117,1137,1157,1177,1198,1217,1237,1258],"xSR":741.5,"ySR":469.95,"xT1":424.9,"yT1":0,"xT2":1058.1,"yT2":0,"toosoon":0,"cond_shown":"equaldotsize","ratio_trial":500,"smaller_num":"6","larger_num":"12","correct_side":1,"subjID":"Gabrielatopañustes3","gender":"1","age":"12","school":"6","test":{"fix_dur":[250,1500],"timestim":300,"targets_dim":[100,100],"targets_relative_coord":[0.3,0.7],"size_stim":[880,420],"start_dim":[100,100],"size_start":[300,300],"size_fix":60,"samplingrate":20,"img_types":["equaldotsize","equaldotanddens","randomdotsizeEA"],"ratios":[250,500,750,900],"rep_conds":9,"nTrials":120,"trials_to_rest":500,"Trials_order":[99,107,93,59,41,95,67,101,66,109,36,21,38,84,8,103,49,81,50,100,61,51,71,89,26,2,31,48,113,111,119,44,118,52,40,68,55,97,117,17,12,91,19,79,98,18,9,30,6,43,64,28,110,3,25,114,0,76,80,39,22,24,73,106,37,34,10,82,16,15,13,92,63,90,1,86,87,4,72,57,88,47,60,116,85,83,108,78,33,27,65,77,5,70,102,105,58,20,23,29,69,42,74,75,45,96,32,112,62,56,11,14,46,7,54,104,53,35,94,115],"cond_shown":["equaldotsize","randomdotsizeEA","equaldotsize","randomdotsizeEA","randomdotsizeEA","randomdotsizeEA","equaldotanddens","randomdotsizeEA","equaldotsize","equaldotanddens","equaldotsize","equaldotsize","randomdotsizeEA","equaldotsize","randomdotsizeEA","equaldotanddens","equaldotanddens","equaldotsize","randomdotsizeEA","equaldotanddens","equaldotanddens","equaldotsize","randomdotsizeEA","randomdotsizeEA","randomdotsizeEA","randomdotsizeEA","equaldotanddens","equaldotsize","randomdotsizeEA","equaldotsize","randomdotsizeEA","randomdotsizeEA","equaldotanddens","equaldotanddens","equaldotanddens","randomdotsizeEA","equaldotanddens","equaldotanddens","equaldotsize","randomdotsizeEA","equaldotsize","equaldotanddens","equaldotanddens","equaldotanddens","randomdotsizeEA","equaldotsize","equaldotsize","equaldotsize","equaldotsize","equaldotanddens","equaldotanddens","equaldotanddens","randomdotsizeEA","equaldotsize","equaldotanddens","equaldotsize","equaldotsize","equaldotanddens","randomdotsizeEA","equaldotsize","equaldotanddens","equaldotsize","equaldotanddens","equaldotanddens","equaldotanddens","equaldotanddens","equaldotanddens","equaldotanddens","equaldotanddens","equaldotsize","equaldotanddens","randomdotsizeEA","equaldotsize","equaldotsize","equaldotanddens","randomdotsizeEA","equaldotsize","equaldotanddens","equaldotsize","equaldotsize","equaldotanddens","randomdotsizeEA","equaldotsize","randomdotsizeEA","equaldotanddens","randomdotsizeEA","equaldotsize","equaldotsize","equaldotsize","equaldotsize","randomdotsizeEA","randomdotsizeEA","randomdotsizeEA","equaldotanddens","equaldotsize","equaldotsize","equaldotanddens","randomdotsizeEA","randomdotsizeEA","randomdotsizeEA","equaldotsize","equaldotsize","randomdotsizeEA","equaldotsize","equaldotsize","equaldotsize","randomdotsizeEA","equaldotanddens","randomdotsizeEA","randomdotsizeEA","randomdotsizeEA","randomdotsizeEA","equaldotanddens","equaldotanddens","equaldotsize","randomdotsizeEA","randomdotsizeEA","randomdotsizeEA","equaldotanddens","equaldotanddens"],"ratio_trial":[500,900,900,900,500,900,750,500,750,250,250,900,250,250,750,750,250,900,250,500,250,500,900,500,250,250,750,250,500,500,900,750,900,500,500,750,750,250,900,500,250,750,750,750,250,750,900,750,750,750,500,500,250,500,250,750,250,500,750,500,900,250,250,900,250,900,900,900,500,500,250,750,500,750,250,250,500,500,250,900,500,900,250,750,250,900,250,750,900,500,500,500,500,900,750,900,900,750,900,500,900,750,250,500,900,250,750,500,250,750,900,250,900,750,750,750,500,900,900,750],"smaller_num":["6","18","18","18","6","9","3","9","18","3","3","18","4","2","15","6","3","18","3","6","6","5","18","9","5","3","6","5","3","4","18","18","18","1","6","6","9","2","18","9","2","3","3","18","4","6","18","18","15","15","2","1","4","4","3","15","2","2","3","2","18","3","3","18","3","18","18","18","2","9","4","3","1","6","3","4","9","6","2","18","1","18","4","3","3","9","2","15","18","1","3","2","5","18","3","18","18","15","18","1","18","15","3","1","18","3","6","6","6","6","9","3","18","15","12","3","9","9","9","15"],"larger_num":["12","20","20","20","12","10","4","18","24","12","12","20","16","8","20","8","12","20","12","12","24","10","20","18","20","12","8","20","6","8","20","24","20","2","12","8","12","8","20","18","8","4","4","24","16","8","20","24","20","20","4","2","16","8","12","20","8","4","4","4","20","12","12","20","12","20","20","20","4","18","16","4","2","8","12","16","18","12","8","20","2","20","16","4","12","10","8","20","20","2","6","4","10","20","4","20","20","20","20","2","20","20","12","2","20","12","8","12","24","8","10","12","20","20","16","4","18","10","10","20"],"correct_side":[1,2,2,1,1,1,2,1,1,1,2,1,2,1,2,1,1,2,2,1,2,2,1,2,2,1,1,2,2,1,1,1,1,2,1,2,2,1,1,1,1,1,1,1,2,2,1,1,1,2,2,2,2,1,2,2,1,2,2,1,1,1,2,1,1,2,1,1,1,2,1,1,2,1,1,2,1,1,1,2,2,1,1,1,2,1,1,2,1,2,2,1,1,1,2,1,2,2,1,2,1,1,2,2,2,1,1,1,1,1,2,2,2,2,2,1,1,1,2,2],"img_shown":["img/500/equaldotsize/L/13_Ratio_500_L_12_R_6.png","img/900/randomdotsizeEA/R/14_Ratio_900_L_18_R_20.png","img/900/equaldotsize/R/11_Ratio_900_L_18_R_20.png","img/900/randomdotsizeEA/L/10_Ratio_900_L_20_R_18.png","img/500/randomdotsizeEA/L/13_Ratio_500_L_12_R_6.png","img/900/randomdotsizeEA/L/1_Ratio_900_L_10_R_9.png","img/750/equaldotanddens/R/12_Ratio_750_L_3_R_4.png","img/500/randomdotsizeEA/L/4_Ratio_500_L_18_R_9.png","img/750/equaldotsize/L/6_Ratio_750_L_24_R_18.png","img/250/equaldotanddens/L/14_Ratio_250_L_12_R_3.png","img/250/equaldotsize/R/9_Ratio_250_L_3_R_12.png","img/900/equaldotsize/L/4_Ratio_900_L_20_R_18.png","img/250/randomdotsizeEA/R/10_Ratio_250_L_4_R_16.png","img/250/equaldotsize/L/1_Ratio_250_L_8_R_2.png","img/750/randomdotsizeEA/R/5_Ratio_750_L_15_R_20.png","img/750/equaldotanddens/L/13_Ratio_750_L_8_R_6.png","img/250/equaldotanddens/L/15_Ratio_250_L_12_R_3.png","img/900/equaldotsize/R/11_Ratio_900_L_18_R_20.png","img/250/randomdotsizeEA/R/9_Ratio_250_L_3_R_12.png","img/500/equaldotanddens/L/13_Ratio_500_L_12_R_6.png","img/250/equaldotanddens/R/6_Ratio_250_L_6_R_24.png","img/500/equaldotsize/R/14_Ratio_500_L_5_R_10.png","img/900/randomdotsizeEA/L/2_Ratio_900_L_20_R_18.png","img/500/randomdotsizeEA/R/1_Ratio_500_L_9_R_18.png","img/250/randomdotsizeEA/R/12_Ratio_250_L_5_R_20.png","img/250/randomdotsizeEA/L/15_Ratio_250_L_12_R_3.png","img/750/equaldotanddens/L/14_Ratio_750_L_8_R_6.png","img/250/equaldotsize/R/12_Ratio_250_L_5_R_20.png","img/500/randomdotsizeEA/R/2_Ratio_500_L_3_R_6.png","img/500/equaldotsize/L/8_Ratio_500_L_8_R_4.png","img/900/randomdotsizeEA/L/4_Ratio_900_L_20_R_18.png","img/750/randomdotsizeEA/L/6_Ratio_750_L_24_R_18.png","img/900/equaldotanddens/L/8_Ratio_900_L_20_R_18.png","img/500/equaldotanddens/R/12_Ratio_500_L_1_R_2.png","img/500/equaldotanddens/L/13_Ratio_500_L_12_R_6.png","img/750/randomdotsizeEA/R/2_Ratio_750_L_6_R_8.png","img/750/equaldotanddens/R/15_Ratio_750_L_9_R_12.png","img/250/equaldotanddens/L/7_Ratio_250_L_8_R_2.png","img/900/equaldotsize/L/4_Ratio_900_L_20_R_18.png","img/500/randomdotsizeEA/L/4_Ratio_500_L_18_R_9.png","img/250/equaldotsize/L/1_Ratio_250_L_8_R_2.png","img/750/equaldotanddens/L/10_Ratio_750_L_4_R_3.png","img/750/equaldotanddens/L/8_Ratio_750_L_4_R_3.png","img/750/equaldotanddens/L/6_Ratio_750_L_24_R_18.png","img/250/randomdotsizeEA/R/10_Ratio_250_L_4_R_16.png","img/750/equaldotsize/R/2_Ratio_750_L_6_R_8.png","img/900/equaldotsize/L/8_Ratio_900_L_20_R_18.png","img/750/equaldotsize/L/6_Ratio_750_L_24_R_18.png","img/750/equaldotsize/L/1_Ratio_750_L_20_R_15.png","img/750/equaldotanddens/R/5_Ratio_750_L_15_R_20.png","img/500/equaldotanddens/R/9_Ratio_500_L_2_R_4.png","img/500/equaldotanddens/R/15_Ratio_500_L_1_R_2.png","img/250/randomdotsizeEA/R/10_Ratio_250_L_4_R_16.png","img/500/equaldotsize/L/8_Ratio_500_L_8_R_4.png","img/250/equaldotanddens/R/9_Ratio_250_L_3_R_12.png","img/750/equaldotsize/R/3_Ratio_750_L_15_R_20.png","img/250/equaldotsize/L/3_Ratio_250_L_8_R_2.png","img/500/equaldotanddens/R/9_Ratio_500_L_2_R_4.png","img/750/randomdotsizeEA/R/12_Ratio_750_L_3_R_4.png","img/500/equaldotsize/L/5_Ratio_500_L_4_R_2.png","img/900/equaldotanddens/L/10_Ratio_900_L_20_R_18.png","img/250/equaldotsize/L/14_Ratio_250_L_12_R_3.png","img/250/equaldotanddens/R/11_Ratio_250_L_3_R_12.png","img/900/equaldotanddens/L/4_Ratio_900_L_20_R_18.png","img/250/equaldotanddens/L/15_Ratio_250_L_12_R_3.png","img/900/equaldotanddens/R/9_Ratio_900_L_18_R_20.png","img/900/equaldotanddens/L/8_Ratio_900_L_20_R_18.png","img/900/equaldotanddens/L/4_Ratio_900_L_20_R_18.png","img/500/equaldotanddens/L/5_Ratio_500_L_4_R_2.png","img/500/equaldotsize/R/6_Ratio_500_L_9_R_18.png","img/250/equaldotanddens/L/2_Ratio_250_L_16_R_4.png","img/750/randomdotsizeEA/L/8_Ratio_750_L_4_R_3.png","img/500/equaldotsize/R/12_Ratio_500_L_1_R_2.png","img/750/equaldotsize/L/13_Ratio_750_L_8_R_6.png","img/250/equaldotanddens/L/14_Ratio_250_L_12_R_3.png","img/250/randomdotsizeEA/R/10_Ratio_250_L_4_R_16.png","img/500/equaldotsize/L/4_Ratio_500_L_18_R_9.png","img/500/equaldotanddens/L/11_Ratio_500_L_12_R_6.png","img/250/equaldotsize/L/7_Ratio_250_L_8_R_2.png","img/900/equaldotsize/R/13_Ratio_900_L_18_R_20.png","img/500/equaldotanddens/R/12_Ratio_500_L_1_R_2.png","img/900/randomdotsizeEA/L/10_Ratio_900_L_20_R_18.png","img/250/equaldotsize/L/2_Ratio_250_L_16_R_4.png","img/750/randomdotsizeEA/L/8_Ratio_750_L_4_R_3.png","img/250/equaldotanddens/R/4_Ratio_250_L_3_R_12.png","img/900/randomdotsizeEA/L/1_Ratio_900_L_10_R_9.png","img/250/equaldotsize/L/1_Ratio_250_L_8_R_2.png","img/750/equaldotsize/R/3_Ratio_750_L_15_R_20.png","img/900/equaldotsize/L/10_Ratio_900_L_20_R_18.png","img/500/equaldotsize/R/15_Ratio_500_L_1_R_2.png","img/500/randomdotsizeEA/R/2_Ratio_500_L_3_R_6.png","img/500/randomdotsizeEA/L/5_Ratio_500_L_4_R_2.png","img/500/randomdotsizeEA/L/7_Ratio_500_L_10_R_5.png","img/900/equaldotanddens/L/4_Ratio_900_L_20_R_18.png","img/750/equaldotsize/R/12_Ratio_750_L_3_R_4.png","img/900/equaldotsize/L/8_Ratio_900_L_20_R_18.png","img/900/equaldotanddens/R/9_Ratio_900_L_18_R_20.png","img/750/randomdotsizeEA/R/3_Ratio_750_L_15_R_20.png","img/900/randomdotsizeEA/L/4_Ratio_900_L_20_R_18.png","img/500/randomdotsizeEA/R/12_Ratio_500_L_1_R_2.png","img/900/equaldotsize/L/2_Ratio_900_L_20_R_18.png","img/750/equaldotsize/L/1_Ratio_750_L_20_R_15.png","img/250/randomdotsizeEA/R/4_Ratio_250_L_3_R_12.png","img/500/equaldotsize/R/12_Ratio_500_L_1_R_2.png","img/900/equaldotsize/R/13_Ratio_900_L_18_R_20.png","img/250/equaldotsize/L/14_Ratio_250_L_12_R_3.png","img/750/randomdotsizeEA/L/14_Ratio_750_L_8_R_6.png","img/500/equaldotanddens/L/13_Ratio_500_L_12_R_6.png","img/250/randomdotsizeEA/L/5_Ratio_250_L_24_R_6.png","img/750/randomdotsizeEA/L/13_Ratio_750_L_8_R_6.png","img/900/randomdotsizeEA/R/7_Ratio_900_L_9_R_10.png","img/250/randomdotsizeEA/R/11_Ratio_250_L_3_R_12.png","img/900/equaldotanddens/R/13_Ratio_900_L_18_R_20.png","img/750/equaldotanddens/R/4_Ratio_750_L_15_R_20.png","img/750/equaldotsize/R/11_Ratio_750_L_12_R_16.png","img/750/randomdotsizeEA/L/9_Ratio_750_L_4_R_3.png","img/500/randomdotsizeEA/L/4_Ratio_500_L_18_R_9.png","img/900/randomdotsizeEA/L/1_Ratio_900_L_10_R_9.png","img/900/equaldotanddens/R/3_Ratio_900_L_9_R_10.png","img/750/equaldotanddens/R/3_Ratio_750_L_15_R_20.png"],"Rat0":[["12_Ratio_0_L_9_R_0.png","13_Ratio_0_L_6_R_0.png","5_Ratio_0_L_2_R_0.png","6_Ratio_0_L_4_R_0.png","8_Ratio_0_L_6_R_0.png"],["1_Ratio_0_L_0_R_17.png","10_Ratio_0_L_0_R_22.png","11_Ratio_0_L_0_R_1.png","14_Ratio_0_L_0_R_24.png","15_Ratio_0_L_0_R_4.png","2_Ratio_0_L_0_R_5.png","3_Ratio_0_L_0_R_17.png","4_Ratio_0_L_0_R_7.png","7_Ratio_0_L_0_R_19.png","9_Ratio_0_L_0_R_15.png"]],"Rat250":[["1_Ratio_250_L_8_R_2.png","14_Ratio_250_L_12_R_3.png","15_Ratio_250_L_12_R_3.png","2_Ratio_250_L_16_R_4.png","3_Ratio_250_L_8_R_2.png","5_Ratio_250_L_24_R_6.png","7_Ratio_250_L_8_R_2.png"],["10_Ratio_250_L_4_R_16.png","11_Ratio_250_L_3_R_12.png","12_Ratio_250_L_5_R_20.png","13_Ratio_250_L_2_R_8.png","4_Ratio_250_L_3_R_12.png","6_Ratio_250_L_6_R_24.png","8_Ratio_250_L_1_R_4.png","9_Ratio_250_L_3_R_12.png"]],"Rat500":[["10_Ratio_500_L_4_R_2.png","11_Ratio_500_L_12_R_6.png","13_Ratio_500_L_12_R_6.png","4_Ratio_500_L_18_R_9.png","5_Ratio_500_L_4_R_2.png","7_Ratio_500_L_10_R_5.png","8_Ratio_500_L_8_R_4.png"],["1_Ratio_500_L_9_R_18.png","12_Ratio_500_L_1_R_2.png","14_Ratio_500_L_5_R_10.png","15_Ratio_500_L_1_R_2.png","2_Ratio_500_L_3_R_6.png","3_Ratio_500_L_10_R_20.png","6_Ratio_500_L_9_R_18.png","9_Ratio_500_L_2_R_4.png"]],"Rat750":[["1_Ratio_750_L_20_R_15.png","10_Ratio_750_L_4_R_3.png","13_Ratio_750_L_8_R_6.png","14_Ratio_750_L_8_R_6.png","6_Ratio_750_L_24_R_18.png","8_Ratio_750_L_4_R_3.png","9_Ratio_750_L_4_R_3.png"],["11_Ratio_750_L_12_R_16.png","12_Ratio_750_L_3_R_4.png","15_Ratio_750_L_9_R_12.png","2_Ratio_750_L_6_R_8.png","3_Ratio_750_L_15_R_20.png","4_Ratio_750_L_15_R_20.png","5_Ratio_750_L_15_R_20.png","7_Ratio_750_L_3_R_4.png"]],"Rat900":[["1_Ratio_900_L_10_R_9.png","10_Ratio_900_L_20_R_18.png","2_Ratio_900_L_20_R_18.png","4_Ratio_900_L_20_R_18.png","8_Ratio_900_L_20_R_18.png"],["11_Ratio_900_L_18_R_20.png","12_Ratio_900_L_18_R_20.png","13_Ratio_900_L_18_R_20.png","14_Ratio_900_L_18_R_20.png","15_Ratio_900_L_9_R_10.png","3_Ratio_900_L_9_R_10.png","5_Ratio_900_L_9_R_10.png","6_Ratio_900_L_9_R_10.png","7_Ratio_900_L_9_R_10.png","9_Ratio_900_L_18_R_20.png"]],"Rat1000":[["10_Ratio_1000_L_16_R_16.png","11_Ratio_1000_L_6_R_6.png","12_Ratio_1000_L_14_R_14.png","13_Ratio_1000_L_20_R_20.png","15_Ratio_1000_L_15_R_15.png","2_Ratio_1000_L_17_R_17.png","4_Ratio_1000_L_9_R_9.png","5_Ratio_1000_L_6_R_6.png","6_Ratio_1000_L_19_R_19.png","8_Ratio_1000_L_14_R_14.png","9_Ratio_1000_L_25_R_25.png"],["1_Ratio_1000_L_1_R_1.png","14_Ratio_1000_L_17_R_17.png","3_Ratio_1000_L_17_R_17.png","7_Ratio_1000_L_6_R_6.png"]]}},{"start_time":1551801175210,"click_time":1551801176984,"finger_time":1551801176163,"fix_duration":1224.7133977274705,"trial":1,"RT":953,"MT":821,"sideResp":1,"stimulus":"img/900/randomdotsizeEA/R/14_Ratio_900_L_18_R_20.png","xmouse":[772,772,772,772,772,772,772,772,772,772,772,772,772,772,772,772,772,772,772,772,772,772,772,772,772,772,772,772,772,772,772,772,772,772,772,772,772,772,772,772,772,773,775,784,787,791,802,809,819,823,824,824,824,824,824,824,824,824,824,824,824,824,824,821,812,802,787,762,729,714,702,690,675,659,659,658,658,657,657,657,657,657,653,644,638,628,602,570,507],"ymouse":[547,547,547,547,547,547,547,547,547,547,547,547,547,547,547,547,547,547,547,547,547,547,547,547,547,547,547,547,547,547,547,547,547,547,547,547,547,547,547,547,547,546,540,508,496,485,470,463,454,451,451,451,451,451,451,451,451,451,451,451,451,451,451,449,442,429,406,359,291,267,246,226,206,189,187,185,185,182,182,182,181,181,181,179,177,171,150,128,80],"timestamp_mouse":[13,33,55,74,93,113,133,153,173,194,213,234,254,274,294,313,334,353,374,394,414,434,453,474,494,513,534,553,573,594,614,634,654,673,694,714,733,753,773,794,814,833,853,873,894,913,934,953,973,993,1013,1034,1054,1073,1094,1113,1134,1153,1173,1194,1213,1233,1253,1273,1293,1314,1333,1353,1374,1393,1414,1433,1454,1473,1494,1513,1534,1554,1573,1593,1614,1634,1654,1673,1694,1714,1734,1753,1774],"xSR":741.5,"ySR":469.95,"xT1":424.9,"yT1":0,"xT2":1058.1,"yT2":0,"toosoon":0,"cond_shown":"randomdotsizeEA","ratio_trial":900,"smaller_num":"18","larger_num":"20","correct_side":2,"subjID":"Gabrielatopañustes3","gender":"1","age":"12","school":"6"},{"start_time":1551801181144,"click_time":1551801182784,"finger_time":1551801182283,"fix_duration":1260.8855320251425,"trial":2,"RT":1139,"MT":501,"sideResp":2,"stimulus":"img/900/equaldotsize/R/11_Ratio_900_L_18_R_20.png","xmouse":[760,760,760,760,760,760,760,760,760,760,760,760,760,760,760,760,760,760,760,760,760,760,760,760,760,760,760,760,760,760,760,760,760,760,760,760,760,760,760,760,760,760,760,760,760,760,760,760,760,760,760,760,765,779,799,822,900,938,957,971,982,991,996,1000,1007,1019,1048,1055,1061,1064,1066,1069,1073,1074,1074,1074,1074,1075,1079,1086,1094,1111],"ymouse":[526,526,526,526,526,526,526,526,526,526,526,526,526,526,526,526,526,526,526,526,526,526,526,526,526,526,526,526,526,526,526,526,526,526,526,526,526,526,526,526,526,526,526,526,526,526,526,526,526,526,526,526,526,518,501,475,386,348,334,324,318,314,312,311,306,292,247,227,207,188,171,159,141,139,139,139,139,136,130,120,111,89],"timestamp_mouse":[29,39,59,79,99,119,139,160,180,200,219,239,259,279,299,319,339,359,380,399,420,440,459,480,499,519,540,560,579,599,619,639,659,680,699,720,739,759,779,800,820,839,859,879,900,919,939,959,979,1000,1020,1040,1059,1079,1099,1119,1139,1159,1179,1200,1220,1240,1259,1279,1299,1320,1340,1359,1379,1400,1420,1439,1459,1479,1500,1519,1540,1559,1579,1599,1619,1640],"xSR":741.5,"ySR":469.95,"xT1":424.9,"yT1":0,"xT2":1058.1,"yT2":0,"toosoon":0,"cond_shown":"equaldotsize","ratio_trial":900,"smaller_num":"18","larger_num":"20","correct_side":2,"subjID":"Gabrielatopañustes3","gender":"1","age":"12","school":"6"},{"start_time":1551801184375,"click_time":1551801185823,"finger_time":1551801185363,"fix_duration":348.0885457439397,"trial":3,"RT":988,"MT":460,"sideResp":1,"stimulus":"img/900/randomdotsizeEA/L/10_Ratio_900_L_20_R_18.png","xmouse":[779,779,779,779,779,779,779,779,779,779,779,779,779,779,779,779,779,779,779,779,779,779,779,779,779,779,779,779,779,779,779,779,779,779,779,779,779,779,779,779,779,779,779,779,779,779,779,778,774,768,762,758,755,751,744,733,726,716,707,697,685,665,657,649,642,634,618,604,580,540,500,458,453],"ymouse":[499,499,499,499,499,499,499,499,499,499,499,499,499,499,499,499,499,499,499,499,499,499,499,499,499,499,499,499,499,499,499,499,499,499,499,499,499,499,499,499,499,499,499,499,499,499,499,499,483,465,435,422,411,398,377,349,335,317,301,281,261,227,212,197,185,176,162,158,153,141,125,103,99],"timestamp_mouse":[10,39,49,68,88,108,129,149,169,189,209,228,248,269,289,309,328,349,368,388,409,428,449,468,488,509,528,549,568,588,608,628,649,669,689,708,728,749,769,789,808,828,849,868,888,909,929,948,969,988,1010,1028,1048,1068,1088,1110,1128,1148,1168,1188,1208,1228,1248,1268,1289,1309,1329,1348,1368,1388,1409,1428,1448],"xSR":741.5,"ySR":469.95,"xT1":424.9,"yT1":0,"xT2":1058.1,"yT2":0,"toosoon":0,"cond_shown":"randomdotsizeEA","ratio_trial":900,"smaller_num":"18","larger_num":"20","correct_side":1,"subjID":"Gabrielatopañustes3","gender":"1","age":"12","school":"6"},{"start_time":1551801188877,"click_time":1551801190104,"finger_time":1551801189703,"fix_duration":250,"trial":4,"RT":826,"MT":401,"sideResp":1,"stimulus":"img/500/randomdotsizeEA/L/13_Ratio_500_L_12_R_6.png","xmouse":[802,802,802,802,802,802,802,802,802,802,802,802,802,802,802,802,802,802,802,802,802,802,802,802,802,802,802,802,802,802,802,802,802,802,802,802,802,802,802,802,802,770,739,708,679,648,597,585,578,575,573,570,568,568,568,566,556,541,532,527,525,524],"ymouse":[516,516,516,516,516,516,516,516,516,516,516,516,516,516,516,516,516,516,516,516,516,516,516,516,516,516,516,516,516,516,516,516,516,516,516,516,516,516,516,516,512,439,379,326,284,245,189,172,159,153,148,142,138,136,135,130,114,96,85,79,77,76],"timestamp_mouse":[11,39,46,68,86,106,127,148,167,188,206,227,248,266,288,308,327,348,366,386,406,427,448,467,487,508,526,547,568,587,608,627,647,668,687,708,726,747,766,786,806,826,847,868,887,907,927,948,967,987,1009,1027,1046,1067,1087,1107,1126,1147,1167,1186,1207,1227],"xSR":741.5,"ySR":469.95,"xT1":424.9,"yT1":0,"xT2":1058.1,"yT2":0,"toosoon":0,"cond_shown":"randomdotsizeEA","ratio_trial":500,"smaller_num":"6","larger_num":"12","correct_side":1,"subjID":"Gabrielatopañustes3","gender":"1","age":"12","school":"6"},{"start_time":1551801191910,"click_time":1551801193124,"finger_time":1551801192744,"fix_duration":764.7526409774234,"trial":5,"RT":834,"MT":380,"sideResp":2,"stimulus":"img/900/randomdotsizeEA/L/1_Ratio_900_L_10_R_9.png","xmouse":[799,799,799,799,799,799,799,799,799,799,799,799,799,799,799,799,799,799,799,799,799,799,799,799,799,799,799,799,799,799,799,799,799,799,799,799,799,799,799,799,811,825,840,864,893,947,961,970,977,993,1004,1012,1020,1029,1049,1055,1061,1065,1069,1072,1074],"ymouse":[507,507,507,507,507,507,507,507,507,507,507,507,507,507,507,507,507,507,507,507,507,507,507,507,507,507,507,507,507,507,507,507,507,507,507,507,507,507,507,504,485,461,438,406,369,305,288,273,261,234,219,204,189,170,132,121,114,108,104,101,98],"timestamp_mouse":[13,37,54,74,93,115,135,155,174,194,215,234,254,275,295,314,334,353,375,395,414,434,455,475,494,514,533,554,575,595,614,634,654,674,695,713,734,755,775,795,813,834,854,875,894,914,934,955,975,994,1014,1034,1053,1074,1095,1114,1134,1154,1174,1193,1214],"xSR":741.5,"ySR":469.95,"xT1":424.9,"yT1":0,"xT2":1058.1,"yT2":0,"toosoon":0,"cond_shown":"randomdotsizeEA","ratio_trial":900,"smaller_num":"9","larger_num":"10","correct_side":1,"subjID":"Gabrielatopañustes3","gender":"1","age":"12","school":"6"},{"start_time":1551801197133,"click_time":1551801198364,"finger_time":1551801198024,"fix_duration":1006.1001393902691,"trial":6,"RT":891,"MT":340,"sideResp":2,"stimulus":"img/750/equaldotanddens/R/12_Ratio_750_L_3_R_4.png","xmouse":[791,791,791,791,791,791,791,791,791,791,791,791,791,791,791,791,791,791,791,791,791,791,791,791,791,791,791,791,791,791,791,791,791,791,791,791,791,791,791,791,791,791,787,778,685,620,559,521,504,494,493,493,493,493,505,522,559,621,703,881,999,1067],"ymouse":[545,545,545,545,545,545,545,545,545,545,545,545,545,545,545,545,545,545,545,545,545,545,545,545,545,545,545,545,545,545,545,545,545,545,545,545,545,545,545,545,545,545,545,543,497,452,405,370,351,333,329,325,320,313,284,263,234,209,181,134,104,96],"timestamp_mouse":[13,38,51,71,91,110,131,151,171,191,212,231,252,271,291,311,330,352,371,392,411,432,451,472,492,511,532,551,571,590,612,630,652,671,690,711,731,752,770,791,812,832,852,871,891,910,930,951,971,991,1012,1030,1051,1070,1091,1110,1131,1151,1172,1191,1211,1231],"xSR":741.5,"ySR":469.95,"xT1":424.9,"yT1":0,"xT2":1058.1,"yT2":0,"toosoon":0,"cond_shown":"equaldotanddens","ratio_trial":750,"smaller_num":"3","larger_num":"4","correct_side":2,"subjID":"Gabrielatopañustes3","gender":"1","age":"12","school":"6"},{"start_time":1551801202559,"click_time":1551801204565,"finger_time":1551801203824,"fix_duration":434.988347845631,"trial":7,"RT":1265,"MT":741,"sideResp":2,"stimulus":"img/500/randomdotsizeEA/L/4_Ratio_500_L_18_R_9.png","xmouse":[783,783,783,783,783,783,783,783,783,783,783,783,783,783,783,783,783,783,783,783,783,783,783,783,783,783,783,783,783,783,783,783,783,783,783,783,783,783,783,783,783,783,783,783,783,783,783,783,783,783,783,783,783,785,790,791,792,798,805,821,827,832,840,849,867,878,890,903,922,944,955,966,978,984,992,995,997,998,999,1001,1003,1004,1007,1011,1024,1031,1039,1048,1051,1053,1055,1055,1055,1056,1057,1058,1059,1059,1059,1069,1075],"ymouse":[549,549,549,549,549,549,549,549,549,549,549,549,549,549,549,549,549,549,549,549,549,549,549,549,549,549,549,549,549,549,549,549,549,549,549,549,549,549,549,549,549,549,549,549,549,549,549,549,549,549,549,549,549,548,548,548,546,541,533,521,515,510,502,494,479,469,456,440,413,376,358,338,320,304,280,272,263,262,255,249,243,237,232,221,196,186,174,162,157,150,147,146,146,145,142,141,139,138,130,106,94],"timestamp_mouse":[11,26,44,65,85,105,125,146,165,186,205,226,246,265,285,305,326,344,364,386,406,424,446,466,485,504,525,546,565,585,606,624,644,666,686,705,724,746,765,784,804,826,845,866,886,904,925,946,966,985,1004,1024,1045,1064,1085,1105,1125,1146,1166,1185,1205,1225,1245,1265,1285,1306,1326,1346,1365,1385,1405,1425,1445,1465,1485,1504,1525,1546,1566,1586,1605,1624,1644,1665,1684,1706,1725,1746,1766,1785,1805,1825,1846,1865,1884,1904,1924,1945,1965,1985,2005],"xSR":741.5,"ySR":469.95,"xT1":424.9,"yT1":0,"xT2":1058.1,"yT2":0,"toosoon":0,"cond_shown":"randomdotsizeEA","ratio_trial":500,"smaller_num":"9","larger_num":"18","correct_side":1,"subjID":"Gabrielatopañustes3","gender":"1","age":"12","school":"6"},{"start_time":1551801206304,"click_time":1551801207705,"finger_time":1551801207185,"fix_duration":358.0863019259355,"trial":8,"RT":881,"MT":520,"sideResp":1,"stimulus":"img/750/equaldotsize/L/6_Ratio_750_L_24_R_18.png","xmouse":[819,819,819,819,819,819,819,819,819,819,819,819,819,819,819,819,819,819,819,819,819,819,819,819,819,819,819,819,819,819,819,819,819,819,819,819,819,819,819,819,819,819,819,810,793,771,739,637,563,513,464,419,383,378,377,374,374,374,379,386,394,402,418,426,430,432,433,433,435,437,441],"ymouse":[494,494,494,494,494,494,494,494,494,494,494,494,494,494,494,494,494,494,494,494,494,494,494,494,494,494,494,494,494,494,494,494,494,494,494,494,494,494,494,494,494,494,494,486,464,445,425,384,361,345,331,321,310,306,301,293,284,273,265,253,241,229,202,186,173,162,151,133,119,108,96],"timestamp_mouse":[1,20,40,61,79,100,120,140,160,181,201,219,239,261,280,300,321,340,360,380,400,420,440,460,479,501,520,540,561,581,601,620,639,661,680,700,720,740,760,781,800,819,840,860,881,900,920,941,959,979,1000,1019,1040,1060,1080,1100,1119,1140,1161,1179,1200,1219,1240,1260,1280,1299,1319,1340,1359,1380,1401],"xSR":741.5,"ySR":469.95,"xT1":424.9,"yT1":0,"xT2":1058.1,"yT2":0,"toosoon":0,"cond_shown":"equaldotsize","ratio_trial":750,"smaller_num":"18","larger_num":"24","correct_side":1,"subjID":"Gabrielatopañustes3","gender":"1","age":"12","school":"6"},{"start_time":1551801209136,"click_time":1551801210664,"finger_time":1551801210045,"fix_duration":250,"trial":9,"RT":909,"MT":619,"sideResp":1,"stimulus":"img/250/equaldotanddens/L/14_Ratio_250_L_12_R_3.png","xmouse":[793,793,793,793,793,793,793,793,793,793,793,793,793,793,793,793,793,793,793,793,793,793,793,793,793,793,793,793,793,793,793,793,793,793,793,793,793,793,793,793,793,793,793,793,787,710,688,674,661,648,630,620,611,596,580,544,529,515,496,477,462,455,455,455,456,457,461,461,461,462,462,462,462,462,462,466,491],"ymouse":[515,515,515,515,515,515,515,515,515,515,515,515,515,515,515,515,515,515,515,515,515,515,515,515,515,515,515,515,515,515,515,515,515,515,515,515,515,515,515,515,515,515,515,514,504,424,397,380,361,345,319,303,294,283,274,236,212,190,169,153,144,137,136,130,123,121,112,112,112,110,110,110,110,110,109,106,96],"timestamp_mouse":[9,33,48,69,87,108,129,148,167,189,209,228,248,268,287,308,328,347,368,388,408,427,449,469,489,508,529,549,569,587,609,628,649,669,689,708,728,748,767,788,807,827,847,867,887,909,928,948,967,989,1009,1028,1049,1068,1087,1108,1127,1148,1168,1189,1208,1228,1248,1267,1288,1307,1327,1348,1369,1389,1409,1428,1447,1468,1488,1508,1528],"xSR":741.5,"ySR":469.95,"xT1":424.9,"yT1":0,"xT2":1058.1,"yT2":0,"toosoon":0,"cond_shown":"equaldotanddens","ratio_trial":250,"smaller_num":"3","larger_num":"12","correct_side":1,"subjID":"Gabrielatopañustes3","gender":"1","age":"12","school":"6"},{"start_time":1551801211935,"click_time":1551801213224,"finger_time":1551801212705,"fix_duration":250,"trial":10,"RT":770,"MT":519,"sideResp":2,"stimulus":"img/250/equaldotsize/R/9_Ratio_250_L_3_R_12.png","xmouse":[805,805,805,805,805,805,805,805,805,805,805,805,805,805,805,805,805,805,805,805,805,805,805,805,805,805,805,805,805,805,805,805,805,805,805,807,823,840,872,907,942,1006,1018,1027,1035,1037,1038,1038,1038,1038,1038,1038,1038,1038,1038,1039,1041,1043,1046,1047,1048,1050,1050,1054,1064],"ymouse":[522,522,522,522,522,522,522,522,522,522,522,522,522,522,522,522,522,522,522,522,522,522,522,522,522,522,522,522,522,522,522,522,522,522,522,518,496,474,437,396,354,276,254,235,214,207,194,184,176,171,168,160,155,146,133,128,119,114,109,108,105,102,102,97,89],"timestamp_mouse":[11,29,48,69,90,109,130,149,169,189,210,228,248,270,288,309,330,349,369,389,408,430,450,469,488,509,528,549,570,590,608,630,650,669,688,709,729,749,770,789,809,829,849,869,888,908,928,949,968,988,1009,1029,1049,1069,1089,1108,1128,1149,1169,1188,1210,1228,1249,1269,1289],"xSR":741.5,"ySR":469.95,"xT1":424.9,"yT1":0,"xT2":1058.1,"yT2":0,"toosoon":0,"cond_shown":"equaldotsize","ratio_trial":250,"smaller_num":"3","larger_num":"12","correct_side":2,"subjID":"Gabrielatopañustes3","gender":"1","age":"12","school":"6"},{"start_time":1551801215034,"click_time":1551801215965,"finger_time":1551801215824,"fix_duration":909.1320076516936,"trial":11,"RT":790,"MT":141,"sideResp":1,"stimulus":"img/900/equaldotsize/L/4_Ratio_900_L_20_R_18.png","xmouse":[805,805,805,805,805,805,805,805,805,805,805,805,805,805,805,805,805,805,805,805,805,805,805,805,805,805,805,805,805,805,805,805,805,805,805,805,805,800,777,761,732,654,620,587,555,523,473],"ymouse":[494,494,494,494,494,494,495,495,495,496,496,496,496,496,496,496,496,496,496,496,496,497,498,498,499,499,499,499,499,499,499,499,499,499,499,499,499,496,478,463,435,351,294,236,178,131,63],"timestamp_mouse":[10,38,50,70,89,109,129,151,170,190,210,230,250,270,290,310,330,350,369,390,411,429,450,471,489,510,530,550,569,590,611,630,650,669,690,709,730,751,770,790,811,830,850,870,890,909,930],"xSR":741.5,"ySR":469.95,"xT1":424.9,"yT1":0,"xT2":1058.1,"yT2":0,"toosoon":0,"cond_shown":"equaldotsize","ratio_trial":900,"smaller_num":"18","larger_num":"20","correct_side":1,"subjID":"Gabrielatopañustes3","gender":"1","age":"12","school":"6"},{"start_time":1551801217263,"click_time":1551801218766,"finger_time":1551801218063,"fix_duration":378.03285430164425,"trial":12,"RT":800,"MT":703,"sideResp":2,"stimulus":"img/250/randomdotsizeEA/R/10_Ratio_250_L_4_R_16.png","xmouse":[768,768,768,768,768,768,768,768,768,768,768,769,769,769,769,769,769,769,769,769,769,769,769,769,769,769,769,769,769,769,769,769,769,769,769,769,769,769,773,782,799,855,892,928,958,996,1002,1006,1010,1014,1016,1017,1018,1022,1025,1032,1046,1051,1054,1056,1057,1057,1057,1057,1057,1057,1057,1057,1057,1057,1057,1057,1057,1057,1057,1065],"ymouse":[509,509,509,509,509,509,509,509,509,509,509,509,511,511,513,514,515,515,515,515,515,515,515,515,515,515,515,515,515,515,515,515,515,515,515,515,515,515,508,480,442,346,303,260,227,172,158,146,138,130,125,122,120,114,108,98,76,70,67,64,63,63,63,63,63,63,63,63,63,63,63,63,63,63,63,63],"timestamp_mouse":[10,35,42,62,81,102,121,141,162,180,200,221,241,261,281,301,321,341,362,381,401,422,441,462,482,502,522,542,561,580,600,622,641,661,682,701,722,741,761,781,800,820,841,861,881,902,920,941,960,981,1002,1021,1041,1061,1081,1102,1121,1141,1161,1181,1201,1220,1240,1261,1282,1301,1320,1341,1361,1381,1402,1420,1440,1460,1482,1502],"xSR":741.5,"ySR":469.95,"xT1":424.9,"yT1":0,"xT2":1058.1,"yT2":0,"toosoon":0,"cond_shown":"randomdotsizeEA","ratio_trial":250,"smaller_num":"4","larger_num":"16","correct_side":2,"subjID":"Gabrielatopañustes3","gender":"1","age":"12","school":"6"},{"start_time":1551801220960,"click_time":1551801221944,"finger_time":1551801221784,"fix_duration":1294.8004654648523,"trial":13,"RT":824,"MT":160,"sideResp":1,"stimulus":"img/250/equaldotsize/L/1_Ratio_250_L_8_R_2.png","xmouse":[778,778,778,778,778,778,778,778,778,778,778,778,778,778,778,778,778,778,778,778,778,778,778,778,778,778,778,778,778,778,778,778,778,778,778,778,778,778,778,778,777,761,745,722,687,646,558,526,500,474],"ymouse":[509,509,509,509,509,509,509,509,509,509,509,509,509,509,509,509,509,509,509,509,509,509,509,509,509,509,509,509,509,509,509,509,509,509,509,509,509,509,509,504,488,445,417,384,341,295,212,177,141,96],"timestamp_mouse":[10,24,45,65,84,104,124,143,165,184,203,224,244,265,285,304,323,344,365,384,404,424,445,464,483,505,524,545,565,585,603,625,645,664,685,705,724,745,765,784,804,824,844,864,883,905,923,945,964,984],"xSR":741.5,"ySR":469.95,"xT1":424.9,"yT1":0,"xT2":1058.1,"yT2":0,"toosoon":0,"cond_shown":"equaldotsize","ratio_trial":250,"smaller_num":"2","larger_num":"8","correct_side":1,"subjID":"Gabrielatopañustes3","gender":"1","age":"12","school":"6"},{"start_time":1551801223227,"click_time":1551801224503,"finger_time":1551801224004,"fix_duration":522.9366607410783,"trial":14,"RT":777,"MT":499,"sideResp":2,"stimulus":"img/750/randomdotsizeEA/R/5_Ratio_750_L_15_R_20.png","xmouse":[759,759,759,759,759,759,759,759,759,759,759,759,759,759,759,759,759,759,759,759,759,759,759,759,759,759,759,759,759,759,759,759,759,759,759,759,760,749,733,722,708,697,688,679,677,676,676,676,684,708,752,813,963,1053,1090,1108,1121,1131,1132,1132,1133,1134,1135,1135],"ymouse":[500,500,500,500,500,500,500,500,500,500,500,500,500,500,500,500,500,500,500,500,500,500,500,500,500,500,500,500,500,500,500,500,500,500,500,500,500,471,445,417,394,373,356,332,327,324,324,323,319,316,309,294,249,214,191,175,163,146,140,137,131,125,110,96],"timestamp_mouse":[17,41,57,77,98,118,137,158,177,196,218,238,257,278,296,318,338,357,377,396,418,438,457,478,497,516,538,558,577,596,618,637,657,676,697,718,737,757,777,797,816,838,857,877,896,918,937,957,977,996,1016,1038,1057,1076,1096,1118,1137,1158,1177,1196,1216,1237,1258,1276],"xSR":741.5,"ySR":469.95,"xT1":424.9,"yT1":0,"xT2":1058.1,"yT2":0,"toosoon":0,"cond_shown":"randomdotsizeEA","ratio_trial":750,"smaller_num":"15","larger_num":"20","correct_side":2,"subjID":"Gabrielatopañustes3","gender":"1","age":"12","school":"6"},{"start_time":1551801226155,"click_time":1551801227504,"finger_time":1551801226904,"fix_duration":770.4037475022233,"trial":15,"RT":749,"MT":600,"sideResp":1,"stimulus":"img/750/equaldotanddens/L/13_Ratio_750_L_8_R_6.png","xmouse":[796,796,796,796,796,796,796,796,796,796,796,796,796,796,796,796,796,796,796,796,796,796,796,796,796,796,796,796,796,796,796,796,796,796,796,796,791,743,709,663,608,485,423,375,341,323,313,309,308,308,308,308,308,308,308,308,308,308,308,389,391,393,399,402,405,407,415,426],"ymouse":[521,521,521,521,521,521,521,521,521,521,521,521,521,521,521,521,521,521,521,521,521,521,521,521,521,521,521,521,521,521,521,521,521,521,521,519,505,433,380,328,273,158,105,65,38,23,13,4,2,0,0,0,0,0,0,0,0,0,0,6,11,17,31,35,40,42,47,51],"timestamp_mouse":[14,30,49,68,89,110,129,150,168,190,209,230,250,269,289,309,330,349,368,390,410,429,448,470,490,508,529,550,569,589,610,629,649,669,688,709,729,749,769,790,809,830,849,868,889,909,929,950,969,989,1008,1030,1050,1068,1089,1109,1129,1149,1169,1190,1209,1229,1250,1269,1289,1308,1328,1349],"xSR":741.5,"ySR":469.95,"xT1":424.9,"yT1":0,"xT2":1058.1,"yT2":0,"toosoon":0,"cond_shown":"equaldotanddens","ratio_trial":750,"smaller_num":"6","larger_num":"8","correct_side":1,"subjID":"Gabrielatopañustes3","gender":"1","age":"12","school":"6"},{"start_time":1551801229799,"click_time":1551801231104,"finger_time":1551801230583,"fix_duration":1413.3307045155036,"trial":16,"RT":784,"MT":521,"sideResp":1,"stimulus":"img/250/equaldotanddens/L/15_Ratio_250_L_12_R_3.png","xmouse":[803,803,803,803,803,803,803,803,803,803,803,803,803,803,803,803,803,803,803,803,803,803,803,803,803,803,803,803,803,803,803,803,803,803,802,800,796,788,775,760,746,724,711,692,675,626,587,544,520,495,461,444,441,435,434,433,433,435,439,443,449,456,457,461,464,470],"ymouse":[528,528,528,528,528,528,528,528,528,528,528,528,528,528,528,528,528,528,528,528,528,528,528,528,528,528,528,528,528,528,528,528,528,525,523,517,508,494,478,461,446,413,395,367,346,308,286,262,246,228,197,177,172,162,160,155,152,147,140,133,121,113,112,108,105,94],"timestamp_mouse":[10,25,45,64,85,104,125,145,164,185,204,224,246,265,286,304,326,345,364,385,405,426,446,466,485,505,526,545,565,586,604,626,646,666,684,704,725,746,765,784,804,824,844,865,885,905,925,944,965,984,1004,1024,1046,1065,1085,1104,1125,1144,1165,1184,1205,1224,1246,1265,1285,1304],"xSR":741.5,"ySR":469.95,"xT1":424.9,"yT1":0,"xT2":1058.1,"yT2":0,"toosoon":0,"cond_shown":"equaldotanddens","ratio_trial":250,"smaller_num":"3","larger_num":"12","correct_side":1,"subjID":"Gabrielatopañustes3","gender":"1","age":"12","school":"6"},{"start_time":1551801233390,"click_time":1551801234583,"finger_time":1551801234184,"fix_duration":1283.7219825107063,"trial":17,"RT":794,"MT":399,"sideResp":2,"stimulus":"img/900/equaldotsize/R/11_Ratio_900_L_18_R_20.png","xmouse":[794,794,794,794,794,794,794,794,794,794,794,794,794,794,794,794,794,794,794,794,794,794,794,794,794,794,794,794,794,794,794,794,794,794,794,794,794,794,794,796,804,882,921,958,1008,1025,1038,1049,1056,1063,1067,1080,1086,1088,1089,1089,1089,1089,1089,1090],"ymouse":[490,490,490,490,490,490,490,490,490,490,490,490,490,490,490,490,490,490,490,490,490,490,490,490,490,490,490,490,490,490,490,490,490,490,490,490,490,489,484,467,443,321,276,239,188,167,153,141,135,131,129,116,109,106,103,103,102,102,102,99],"timestamp_mouse":[15,35,54,73,95,113,135,155,174,195,214,235,254,273,294,314,335,353,374,395,413,433,453,473,495,515,535,554,575,594,615,635,655,674,693,714,734,754,774,794,814,833,854,874,902,915,934,954,974,993,1013,1034,1053,1073,1094,1115,1134,1154,1174,1193],"xSR":741.5,"ySR":469.95,"xT1":424.9,"yT1":0,"xT2":1058.1,"yT2":0,"toosoon":0,"cond_shown":"equaldotsize","ratio_trial":900,"smaller_num":"18","larger_num":"20","correct_side":2,"subjID":"Gabrielatopañustes3","gender":"1","age":"12","school":"6"},{"start_time":1551801237987,"click_time":1551801239144,"finger_time":1551801238784,"fix_duration":1061.8997677277575,"trial":18,"RT":797,"MT":360,"sideResp":2,"stimulus":"img/250/randomdotsizeEA/R/9_Ratio_250_L_3_R_12.png","xmouse":[772,772,772,772,772,772,772,772,772,772,772,772,772,772,772,772,772,772,772,772,772,772,772,772,772,772,772,772,772,772,772,772,772,772,772,772,774,780,785,793,810,893,933,962,977,987,989,990,990,1002,1015,1043,1051,1055,1057,1059,1064,1068],"ymouse":[533,533,533,533,533,533,533,533,533,533,533,533,533,533,533,533,533,533,533,533,533,533,533,533,533,533,533,533,533,533,533,533,533,533,533,533,529,516,496,448,385,263,222,191,175,166,164,163,163,154,144,126,121,117,114,111,103,99],"timestamp_mouse":[17,38,56,76,98,118,138,158,177,196,216,238,257,276,297,318,338,358,378,397,417,436,457,478,497,517,538,558,576,597,618,638,657,677,696,718,736,757,777,797,817,836,857,877,897,917,938,957,977,997,1017,1037,1057,1077,1097,1118,1136,1156],"xSR":741.5,"ySR":469.95,"xT1":424.9,"yT1":0,"xT2":1058.1,"yT2":0,"toosoon":0,"cond_shown":"randomdotsizeEA","ratio_trial":250,"smaller_num":"3","larger_num":"12","correct_side":2,"subjID":"Gabrielatopañustes3","gender":"1","age":"12","school":"6"},{"start_time":1551801240437,"click_time":1551801241643,"finger_time":1551801241244,"fix_duration":250,"trial":19,"RT":807,"MT":399,"sideResp":1,"stimulus":"img/500/equaldotanddens/L/13_Ratio_500_L_12_R_6.png","xmouse":[762,762,762,762,762,762,762,762,762,762,762,762,762,762,762,762,762,762,762,762,762,762,762,762,762,762,762,762,762,762,762,762,762,762,762,761,760,759,753,743,684,621,551,485,414,394,388,387,387,386,385,384,384,384,389,397,401,403,405,421,441],"ymouse":[522,522,522,522,522,522,522,522,522,522,522,522,522,522,522,522,522,522,522,522,522,522,522,522,522,522,522,522,522,522,522,522,522,522,522,520,519,514,506,492,435,384,328,264,161,107,80,58,42,22,19,15,14,12,7,4,2,2,2,2,10],"timestamp_mouse":[10,35,46,67,88,107,128,148,167,186,208,228,247,267,287,307,326,348,366,387,408,427,447,466,486,508,527,547,568,588,607,626,646,668,687,708,727,746,767,787,807,827,847,866,900,906,927,949,967,987,1006,1027,1047,1067,1087,1108,1127,1147,1167,1186,1206],"xSR":741.5,"ySR":469.95,"xT1":424.9,"yT1":0,"xT2":1058.1,"yT2":0,"toosoon":0,"cond_shown":"equaldotanddens","ratio_trial":500,"smaller_num":"6","larger_num":"12","correct_side":1,"subjID":"Gabrielatopañustes3","gender":"1","age":"12","school":"6"},{"start_time":1551801243672,"click_time":1551801244844,"finger_time":1551801244584,"fix_duration":1128.193394370003,"trial":20,"RT":912,"MT":260,"sideResp":2,"stimulus":"img/250/equaldotanddens/R/6_Ratio_250_L_6_R_24.png","xmouse":[796,796,796,796,796,796,796,796,796,796,796,796,796,796,796,796,796,796,796,796,796,796,796,796,796,796,796,796,796,796,796,796,796,796,796,796,796,796,796,796,796,796,796,803,822,856,901,983,1010,1024,1034,1038,1045,1050,1059,1071,1083,1094,1109],"ymouse":[513,513,513,513,513,513,513,513,513,513,513,513,513,513,513,513,513,513,513,513,513,513,513,513,513,513,513,513,513,513,513,513,513,513,513,513,513,513,513,513,513,513,513,501,473,426,373,278,246,229,217,211,200,190,173,154,133,114,91],"timestamp_mouse":[11,43,51,72,93,112,133,153,172,193,211,232,251,273,293,312,333,352,372,392,413,433,452,472,492,513,532,551,572,593,613,633,652,671,692,711,732,753,773,792,813,833,852,872,892,912,932,954,971,992,1011,1032,1053,1071,1092,1113,1132,1153,1171],"xSR":741.5,"ySR":469.95,"xT1":424.9,"yT1":0,"xT2":1058.1,"yT2":0,"toosoon":0,"cond_shown":"equaldotanddens","ratio_trial":250,"smaller_num":"6","larger_num":"24","correct_side":2,"subjID":"Gabrielatopañustes3","gender":"1","age":"12","school":"6"},{"start_time":1551801245975,"click_time":1551801247025,"finger_time":1551801246625,"fix_duration":250,"trial":21,"RT":650,"MT":400,"sideResp":2,"stimulus":"img/500/equaldotsize/R/14_Ratio_500_L_5_R_10.png","xmouse":[786,786,786,786,786,786,786,786,786,786,786,786,786,786,786,786,786,786,786,786,786,786,786,786,786,786,786,786,786,788,793,805,836,855,877,901,928,959,989,1005,1019,1029,1037,1045,1050,1053,1057,1063,1069,1071,1075,1079,1085],"ymouse":[514,514,514,514,514,514,514,514,514,514,514,514,514,514,514,514,514,514,514,514,514,514,514,514,514,514,514,514,514,511,504,492,465,449,429,405,374,334,291,269,249,232,212,179,165,155,144,134,123,118,109,100,90],"timestamp_mouse":[9,43,50,69,88,108,130,148,169,190,210,228,250,270,289,309,329,350,370,389,410,430,450,470,488,509,528,548,569,589,610,629,650,668,689,709,728,749,769,789,808,828,848,868,889,910,929,949,968,989,1009,1029,1050],"xSR":741.5,"ySR":469.95,"xT1":424.9,"yT1":0,"xT2":1058.1,"yT2":0,"toosoon":0,"cond_shown":"equaldotsize","ratio_trial":500,"smaller_num":"5","larger_num":"10","correct_side":2,"subjID":"Gabrielatopañustes3","gender":"1","age":"12","school":"6"},{"start_time":1551801248706,"click_time":1551801249964,"finger_time":1551801249464,"fix_duration":799.1667424756961,"trial":22,"RT":758,"MT":500,"sideResp":1,"stimulus":"img/900/randomdotsizeEA/L/2_Ratio_900_L_20_R_18.png","xmouse":[819,819,819,819,819,819,819,819,819,819,819,819,819,819,819,819,819,819,819,819,819,819,819,819,819,819,819,819,819,819,819,819,819,819,819,819,822,830,848,859,871,875,876,876,876,876,870,824,729,665,605,566,540,513,506,500,499,499,500,503,506,509,509,509],"ymouse":[501,501,501,501,501,501,501,501,501,501,501,501,501,501,501,501,501,501,501,501,501,501,501,501,501,501,501,501,501,501,501,501,501,501,501,501,499,488,465,452,439,434,433,433,433,433,428,407,371,343,318,296,276,244,225,209,196,167,150,141,130,120,102,98],"timestamp_mouse":[1,18,45,59,79,98,117,138,158,177,199,218,238,258,277,299,319,337,359,378,398,419,437,459,478,497,518,539,559,578,598,619,637,658,677,699,719,737,758,777,798,817,838,859,877,897,918,937,957,978,999,1017,1037,1057,1077,1097,1117,1138,1157,1178,1197,1217,1237,1257],"xSR":741.5,"ySR":469.95,"xT1":424.9,"yT1":0,"xT2":1058.1,"yT2":0,"toosoon":0,"cond_shown":"randomdotsizeEA","ratio_trial":900,"smaller_num":"18","larger_num":"20","correct_side":1,"subjID":"Gabrielatopañustes3","gender":"1","age":"12","school":"6"},{"start_time":1551801252087,"click_time":1551801253264,"finger_time":1551801252904,"fix_duration":1242.1812926111397,"trial":23,"RT":817,"MT":360,"sideResp":2,"stimulus":"img/500/randomdotsizeEA/R/1_Ratio_500_L_9_R_18.png","xmouse":[774,774,774,774,774,774,774,774,774,774,774,774,774,774,774,774,774,774,774,774,774,774,774,774,774,774,774,774,774,774,774,774,774,774,774,774,774,774,785,802,826,863,953,1002,1047,1087,1119,1142,1171,1175,1176,1177,1177,1176,1171,1166,1164,1159,1137],"ymouse":[509,509,509,509,509,509,509,509,509,509,509,509,509,509,509,509,509,509,509,509,509,509,509,509,509,509,509,509,509,509,509,509,509,509,509,509,509,509,494,475,443,401,300,257,217,187,167,152,131,125,117,106,92,70,62,57,56,56,53],"timestamp_mouse":[18,39,57,77,97,117,136,156,176,196,217,236,256,277,298,317,338,358,376,398,418,437,457,476,497,518,537,557,577,597,616,637,658,676,698,716,737,756,778,796,817,837,858,876,898,916,937,956,977,996,1017,1036,1056,1076,1096,1117,1137,1157,1177],"xSR":741.5,"ySR":469.95,"xT1":424.9,"yT1":0,"xT2":1058.1,"yT2":0,"toosoon":0,"cond_shown":"randomdotsizeEA","ratio_trial":500,"smaller_num":"9","larger_num":"18","correct_side":2,"subjID":"Gabrielatopañustes3","gender":"1","age":"12","school":"6"},{"start_time":1551801254445,"click_time":1551801255523,"finger_time":1551801255143,"fix_duration":399.69458408456984,"trial":24,"RT":698,"MT":380,"sideResp":2,"stimulus":"img/250/randomdotsizeEA/R/12_Ratio_250_L_5_R_20.png","xmouse":[793,793,793,793,793,793,793,793,793,793,793,793,793,793,793,793,793,793,793,793,793,793,793,793,793,793,793,793,793,793,793,793,793,793,798,813,830,849,884,898,921,930,940,953,980,993,1005,1015,1028,1033,1043,1049,1058,1072],"ymouse":[476,476,476,476,476,476,476,476,476,476,476,476,476,476,476,476,476,476,476,476,476,476,476,476,476,476,476,476,476,476,476,476,476,476,462,427,398,364,316,293,250,229,210,187,150,134,120,106,91,85,76,72,69,63],"timestamp_mouse":[18,50,59,79,98,119,138,160,178,198,218,239,260,278,298,318,338,359,380,400,419,439,458,478,499,518,540,560,579,599,618,639,660,678,698,718,738,758,778,798,818,838,859,878,900,918,940,959,979,999,1019,1038,1059,1078],"xSR":741.5,"ySR":469.95,"xT1":424.9,"yT1":0,"xT2":1058.1,"yT2":0,"toosoon":0,"cond_shown":"randomdotsizeEA","ratio_trial":250,"smaller_num":"5","larger_num":"20","correct_side":2,"subjID":"Gabrielatopañustes3","gender":"1","age":"12","school":"6"},{"start_time":1551801258457,"click_time":1551801259243,"finger_time":1551801259083,"fix_duration":430.1877297476654,"trial":25,"RT":626,"MT":160,"sideResp":1,"stimulus":"img/250/randomdotsizeEA/L/15_Ratio_250_L_12_R_3.png","xmouse":[771,771,771,771,771,771,771,771,771,771,771,771,771,771,771,771,771,771,771,771,771,771,771,771,771,771,771,771,771,771,744,716,681,642,608,543,505,481,466,460],"ymouse":[533,533,533,533,533,533,533,533,533,533,533,533,533,533,533,533,533,533,533,533,533,533,533,533,533,533,533,533,532,525,474,435,386,334,284,196,149,120,100,87],"timestamp_mouse":[9,27,47,67,87,106,127,147,167,187,206,228,246,266,287,306,328,348,367,387,407,426,446,467,488,507,526,546,567,587,607,626,648,667,687,707,727,747,766,786],"xSR":741.5,"ySR":469.95,"xT1":424.9,"yT1":0,"xT2":1058.1,"yT2":0,"toosoon":0,"cond_shown":"randomdotsizeEA","ratio_trial":250,"smaller_num":"3","larger_num":"12","correct_side":1,"subjID":"Gabrielatopañustes3","gender":"1","age":"12","school":"6"},{"start_time":1551801260681,"click_time":1551801261665,"finger_time":1551801261403,"fix_duration":297.9140851574029,"trial":26,"RT":722,"MT":262,"sideResp":1,"stimulus":"img/750/equaldotanddens/L/14_Ratio_750_L_8_R_6.png","xmouse":[791,791,791,791,791,791,791,791,791,791,791,791,791,791,791,791,791,791,791,791,791,791,791,791,791,791,791,791,791,791,791,791,791,792,793,773,753,719,679,645,587,555,533,514,495,490,486,486,486,494],"ymouse":[510,510,510,510,510,510,510,510,510,510,510,510,510,510,510,510,510,510,510,510,510,510,510,510,510,510,510,510,510,510,510,510,510,510,509,480,450,408,362,322,250,217,195,177,151,135,124,118,112,99],"timestamp_mouse":[12,25,44,63,82,102,123,142,163,183,202,223,242,262,283,303,322,344,363,383,402,424,443,463,483,502,523,542,562,583,604,622,643,663,682,702,722,743,762,782,802,822,843,863,883,902,922,942,962,983],"xSR":741.5,"ySR":469.95,"xT1":424.9,"yT1":0,"xT2":1058.1,"yT2":0,"toosoon":0,"cond_shown":"equaldotanddens","ratio_trial":750,"smaller_num":"6","larger_num":"8","correct_side":1,"subjID":"Gabrielatopañustes3","gender":"1","age":"12","school":"6"},{"start_time":1551801264164,"click_time":1551801265223,"finger_time":1551801264903,"fix_duration":1338.7337251002762,"trial":27,"RT":739,"MT":320,"sideResp":2,"stimulus":"img/250/equaldotsize/R/12_Ratio_250_L_5_R_20.png","xmouse":[784,784,784,784,784,784,784,784,784,784,784,784,784,784,784,784,784,784,784,784,784,784,784,784,784,784,784,784,784,784,784,784,784,784,784,787,807,826,854,908,947,1020,1045,1058,1067,1070,1071,1071,1071,1073,1076,1079,1080,1082],"ymouse":[504,504,504,504,504,504,504,504,504,504,504,504,504,504,504,504,504,504,504,504,504,504,504,504,504,504,504,504,504,504,504,504,504,504,504,503,473,446,412,351,314,240,209,189,172,163,153,148,144,135,127,113,106,96],"timestamp_mouse":[1,19,40,59,79,100,121,139,159,179,201,221,241,259,280,301,321,340,360,380,399,420,441,460,480,501,520,539,559,579,599,619,641,660,681,699,719,739,759,781,799,820,839,860,880,899,919,940,961,980,1000,1019,1039,1059],"xSR":741.5,"ySR":469.95,"xT1":424.9,"yT1":0,"xT2":1058.1,"yT2":0,"toosoon":0,"cond_shown":"equaldotsize","ratio_trial":250,"smaller_num":"5","larger_num":"20","correct_side":2,"subjID":"Gabrielatopañustes3","gender":"1","age":"12","school":"6"},{"start_time":1551801267001,"click_time":1551801267944,"finger_time":1551801267683,"fix_duration":914.7189781624375,"trial":28,"RT":682,"MT":261,"sideResp":2,"stimulus":"img/500/randomdotsizeEA/R/2_Ratio_500_L_3_R_6.png","xmouse":[813,813,813,813,813,813,813,813,813,813,813,813,813,813,813,813,813,813,813,813,813,813,813,813,813,813,813,813,813,813,813,813,815,820,845,879,901,929,951,978,990,1002,1020,1038,1062,1065,1065,1065],"ymouse":[531,531,531,531,531,531,531,531,531,531,531,531,531,531,531,531,531,531,531,531,531,531,531,531,531,531,531,531,531,531,531,526,513,498,443,384,349,310,280,236,216,197,180,162,126,108,101,98],"timestamp_mouse":[6,22,42,63,82,103,122,144,162,182,203,222,243,263,282,302,323,343,363,382,403,424,442,462,484,504,522,543,564,582,602,623,643,662,682,702,722,742,763,783,802,823,843,863,884,902,922,943],"xSR":741.5,"ySR":469.95,"xT1":424.9,"yT1":0,"xT2":1058.1,"yT2":0,"toosoon":0,"cond_shown":"randomdotsizeEA","ratio_trial":500,"smaller_num":"3","larger_num":"6","correct_side":2,"subjID":"Gabrielatopañustes3","gender":"1","age":"12","school":"6"},{"start_time":1551801269911,"click_time":1551801270883,"finger_time":1551801270584,"fix_duration":1005.7536054537986,"trial":29,"RT":673,"MT":299,"sideResp":1,"stimulus":"img/500/equaldotsize/L/8_Ratio_500_L_8_R_4.png","xmouse":[812,812,812,812,812,812,812,812,812,812,812,812,812,812,812,812,812,812,812,812,812,812,812,812,812,812,812,812,812,812,812,807,803,764,728,697,666,645,617,584,570,560,555,544,542,540,539,534,523],"ymouse":[531,531,531,531,531,531,531,531,531,531,531,531,531,531,531,531,531,531,531,531,531,531,531,531,531,531,531,531,531,531,531,522,516,466,426,384,347,318,279,233,212,191,172,132,117,106,98,92,83],"timestamp_mouse":[14,35,54,73,93,114,133,153,172,193,213,233,252,273,292,312,333,354,372,392,413,433,453,473,492,513,533,552,573,594,612,632,652,673,692,714,733,752,772,792,813,832,852,874,892,914,933,953,972],"xSR":741.5,"ySR":469.95,"xT1":424.9,"yT1":0,"xT2":1058.1,"yT2":0,"toosoon":0,"cond_shown":"equaldotsize","ratio_trial":500,"smaller_num":"4","larger_num":"8","correct_side":1,"subjID":"Gabrielatopañustes3","gender":"1","age":"12","school":"6"},{"start_time":1551801272482,"click_time":1551801273404,"finger_time":1551801273203,"fix_duration":716.4976545254441,"trial":30,"RT":721,"MT":201,"sideResp":2,"stimulus":"img/900/randomdotsizeEA/L/4_Ratio_900_L_20_R_18.png","xmouse":[779,779,779,779,779,779,779,779,779,779,779,779,779,779,779,779,779,779,779,779,779,779,779,779,779,779,779,779,779,779,779,779,779,779,781,784,805,835,877,927,993,1053,1073,1085,1094,1098,1104],"ymouse":[502,502,502,502,502,502,502,502,502,502,502,502,502,502,502,502,502,502,502,502,502,502,502,502,502,502,502,502,502,502,502,502,502,502,502,500,451,405,356,306,241,168,144,127,113,105,91],"timestamp_mouse":[10,22,41,63,83,102,122,142,162,183,203,222,241,262,281,302,322,341,361,382,401,422,443,462,482,502,522,543,563,581,601,622,643,663,681,701,721,742,762,782,802,821,842,862,882,901,922],"xSR":741.5,"ySR":469.95,"xT1":424.9,"yT1":0,"xT2":1058.1,"yT2":0,"toosoon":0,"cond_shown":"randomdotsizeEA","ratio_trial":900,"smaller_num":"18","larger_num":"20","correct_side":1,"subjID":"Gabrielatopañustes3","gender":"1","age":"12","school":"6"},{"start_time":1551801275113,"click_time":1551801276143,"finger_time":1551801276043,"fix_duration":829.8986006765084,"trial":31,"RT":930,"MT":100,"sideResp":1,"stimulus":"img/750/randomdotsizeEA/L/6_Ratio_750_L_24_R_18.png","xmouse":[798,798,798,798,798,798,798,798,798,798,798,798,798,798,798,798,798,798,798,798,798,798,798,798,798,798,798,798,798,798,798,798,798,798,798,798,798,798,798,798,798,798,798,798,798,786,725,643,565,464,447,442],"ymouse":[522,522,522,522,522,522,522,522,522,522,522,522,522,522,522,522,522,522,522,522,522,522,522,522,522,522,522,522,522,522,522,522,522,522,522,522,522,522,522,522,522,522,522,522,522,514,451,369,288,173,125,89],"timestamp_mouse":[10,31,52,71,91,111,131,151,170,192,210,230,250,270,290,311,330,352,372,390,410,430,450,472,490,511,530,550,571,591,612,630,651,670,692,710,730,751,771,790,811,831,851,872,891,910,930,951,971,991,1010,1030],"xSR":741.5,"ySR":469.95,"xT1":424.9,"yT1":0,"xT2":1058.1,"yT2":0,"toosoon":0,"cond_shown":"randomdotsizeEA","ratio_trial":750,"smaller_num":"18","larger_num":"24","correct_side":1,"subjID":"Gabrielatopañustes3","gender":"1","age":"12","school":"6"},{"start_time":1551801277455,"click_time":1551801278323,"finger_time":1551801278123,"fix_duration":250,"trial":32,"RT":668,"MT":200,"sideResp":1,"stimulus":"img/900/equaldotanddens/L/8_Ratio_900_L_20_R_18.png","xmouse":[794,794,794,794,794,794,794,794,794,795,795,795,795,795,795,795,795,795,795,795,795,795,795,795,795,795,795,795,795,795,795,788,766,741,710,676,641,607,548,536,526,518,512,501],"ymouse":[533,533,533,533,533,533,533,533,533,533,533,533,533,533,533,533,533,533,533,533,533,533,533,533,533,533,533,533,533,533,533,524,496,461,415,366,316,267,181,158,137,119,103,80],"timestamp_mouse":[9,44,49,68,90,110,129,150,170,188,209,230,250,269,288,308,329,349,370,389,410,428,449,469,488,509,530,549,568,588,608,628,649,668,688,709,729,748,768,788,809,828,848,868],"xSR":741.5,"ySR":469.95,"xT1":424.9,"yT1":0,"xT2":1058.1,"yT2":0,"toosoon":0,"cond_shown":"equaldotanddens","ratio_trial":900,"smaller_num":"18","larger_num":"20","correct_side":1,"subjID":"Gabrielatopañustes3","gender":"1","age":"12","school":"6"},{"start_time":1551801279960,"click_time":1551801280906,"finger_time":1551801280664,"fix_duration":915.5321737873425,"trial":33,"RT":704,"MT":242,"sideResp":2,"stimulus":"img/500/equaldotanddens/R/12_Ratio_500_L_1_R_2.png","xmouse":[765,765,765,765,765,765,765,765,765,765,765,765,765,765,765,765,765,765,765,765,765,765,765,765,765,765,765,765,765,765,765,765,766,779,789,803,823,843,876,891,909,940,957,989,1006,1024,1044,1084],"ymouse":[516,516,516,516,516,516,516,516,516,516,516,516,516,516,516,516,516,516,516,516,516,516,516,516,516,516,516,516,516,516,516,516,516,493,475,451,416,382,308,273,237,188,167,129,112,96,84,61],"timestamp_mouse":[9,23,43,64,83,104,124,145,164,183,203,225,244,263,284,303,325,344,365,384,403,425,445,463,484,504,525,544,563,584,603,624,643,663,683,704,723,743,763,783,803,823,844,864,883,904,923,945],"xSR":741.5,"ySR":469.95,"xT1":424.9,"yT1":0,"xT2":1058.1,"yT2":0,"toosoon":0,"cond_shown":"equaldotanddens","ratio_trial":500,"smaller_num":"1","larger_num":"2","correct_side":2,"subjID":"Gabrielatopañustes3","gender":"1","age":"12","school":"6"},{"start_time":1551801282846,"click_time":1551801283903,"finger_time":1551801283623,"fix_duration":1121.6158011745931,"trial":34,"RT":777,"MT":280,"sideResp":1,"stimulus":"img/500/equaldotanddens/L/13_Ratio_500_L_12_R_6.png","xmouse":[789,789,789,789,789,789,789,789,789,789,789,789,789,789,789,789,789,789,789,789,789,789,789,789,789,789,789,789,789,789,789,789,789,789,789,792,795,801,812,814,815,812,797,721,668,592,554,527,495,484,479,476,475],"ymouse":[510,510,510,510,510,510,510,510,510,510,510,510,510,510,510,510,510,510,510,510,510,510,510,510,510,510,510,510,510,510,510,510,510,510,510,500,488,474,447,432,420,404,388,341,322,290,267,243,186,154,126,104,88],"timestamp_mouse":[18,43,57,78,98,119,137,157,178,198,217,237,257,279,299,318,338,358,377,397,418,439,457,478,499,517,539,557,577,597,618,638,657,678,697,717,738,758,777,797,817,837,857,878,897,917,937,958,978,998,1018,1038,1057],"xSR":741.5,"ySR":469.95,"xT1":424.9,"yT1":0,"xT2":1058.1,"yT2":0,"toosoon":0,"cond_shown":"equaldotanddens","ratio_trial":500,"smaller_num":"6","larger_num":"12","correct_side":1,"subjID":"Gabrielatopañustes3","gender":"1","age":"12","school":"6"},{"start_time":1551801285174,"click_time":1551801286324,"finger_time":1551801286063,"fix_duration":250,"trial":35,"RT":889,"MT":261,"sideResp":2,"stimulus":"img/750/randomdotsizeEA/R/2_Ratio_750_L_6_R_8.png","xmouse":[773,773,773,773,773,773,773,773,773,773,773,773,773,773,773,773,773,773,773,773,773,773,773,773,773,773,773,773,773,773,773,773,773,773,773,773,773,773,773,773,773,773,774,782,796,821,860,954,999,1015,1025,1032,1050,1061,1074,1086,1095,1107],"ymouse":[527,527,527,527,527,527,527,527,527,527,527,527,527,527,527,527,527,527,527,527,527,527,527,527,527,527,527,527,527,527,527,527,527,527,527,527,527,527,527,527,527,527,512,491,459,414,364,294,267,252,241,230,204,188,169,153,133,93],"timestamp_mouse":[10,38,49,69,90,111,131,150,169,191,209,229,249,270,291,310,330,349,370,389,410,431,449,470,491,511,529,549,571,589,609,629,650,670,691,710,730,749,769,790,811,829,849,869,889,909,930,950,969,990,1010,1029,1049,1069,1089,1109,1130,1150],"xSR":741.5,"ySR":469.95,"xT1":424.9,"yT1":0,"xT2":1058.1,"yT2":0,"toosoon":0,"cond_shown":"randomdotsizeEA","ratio_trial":750,"smaller_num":"6","larger_num":"8","correct_side":2,"subjID":"Gabrielatopañustes3","gender":"1","age":"12","school":"6"},{"start_time":1551801288836,"click_time":1551801290324,"finger_time":1551801289545,"fix_duration":250,"trial":36,"RT":709,"MT":779,"sideResp":2,"stimulus":"img/750/equaldotanddens/R/15_Ratio_750_L_9_R_12.png","xmouse":[794,794,794,794,794,794,794,794,794,794,794,794,794,794,794,794,794,794,794,794,794,794,794,794,794,794,794,794,794,794,794,794,794,803,821,860,887,916,932,944,962,972,983,1006,1047,1069,1086,1097,1102,1106,1106,1106,1106,1106,1106,1106,1106,1106,1105,1104,1104,1104,1104,1104,1104,1104,1104,1104,1104,1104,1104,1104,1104,1104,1104],"ymouse":[518,518,518,518,518,518,518,518,518,518,518,518,518,518,518,518,518,518,518,518,518,518,518,518,518,518,518,518,518,518,518,518,518,514,494,444,410,375,353,333,294,276,257,227,183,161,139,121,109,101,100,100,100,100,100,100,100,100,100,100,100,100,100,100,100,100,100,100,100,100,100,100,100,100,97],"timestamp_mouse":[11,40,47,68,87,109,128,148,167,187,208,229,249,268,288,308,328,349,369,388,407,428,449,467,488,508,529,549,568,587,607,629,647,668,687,709,727,748,768,788,807,828,847,868,889,907,927,947,967,988,1007,1027,1049,1067,1087,1107,1127,1148,1168,1188,1208,1228,1249,1267,1288,1308,1328,1349,1368,1389,1407,1427,1448,1468,1488],"xSR":741.5,"ySR":469.95,"xT1":424.9,"yT1":0,"xT2":1058.1,"yT2":0,"toosoon":0,"cond_shown":"equaldotanddens","ratio_trial":750,"smaller_num":"9","larger_num":"12","correct_side":2,"subjID":"Gabrielatopañustes3","gender":"1","age":"12","school":"6"},{"start_time":1551801292566,"click_time":1551801293484,"finger_time":1551801293304,"fix_duration":1301.7407826716696,"trial":37,"RT":738,"MT":180,"sideResp":1,"stimulus":"img/250/equaldotanddens/L/7_Ratio_250_L_8_R_2.png","xmouse":[791,791,791,791,791,791,791,791,791,791,791,791,791,791,791,791,791,791,791,791,790,790,790,790,790,790,790,790,790,790,790,790,789,785,781,766,745,715,632,590,557,537,527,520,514,506],"ymouse":[521,521,521,521,521,521,521,521,521,521,521,521,521,521,521,521,521,519,515,514,513,513,513,513,513,513,513,513,513,513,513,513,510,502,494,474,453,427,330,280,228,185,160,142,118,98],"timestamp_mouse":[18,39,57,78,97,118,138,159,178,198,219,238,257,277,298,317,339,357,377,398,417,438,458,479,498,519,538,558,577,597,618,637,658,677,698,717,738,758,777,797,817,838,857,878,898,918],"xSR":741.5,"ySR":469.95,"xT1":424.9,"yT1":0,"xT2":1058.1,"yT2":0,"toosoon":0,"cond_shown":"equaldotanddens","ratio_trial":250,"smaller_num":"2","larger_num":"8","correct_side":1,"subjID":"Gabrielatopañustes3","gender":"1","age":"12","school":"6"},{"start_time":1551801295344,"click_time":1551801296524,"finger_time":1551801296064,"fix_duration":939.1646602527939,"trial":38,"RT":720,"MT":460,"sideResp":2,"stimulus":"img/900/equaldotsize/L/4_Ratio_900_L_20_R_18.png","xmouse":[797,797,797,797,797,797,797,797,797,797,797,797,797,797,797,797,797,797,797,797,797,797,797,797,797,797,797,797,798,799,800,800,801,803,806,809,835,859,888,916,948,1017,1054,1099,1137,1166,1192,1192,1192,1192,1193,1193,1193,1193,1193,1193,1187,1176,1163,1150],"ymouse":[485,485,485,485,485,485,485,485,485,485,485,485,485,485,485,485,485,485,485,485,485,485,485,485,485,485,485,485,485,485,485,485,485,484,480,470,417,382,340,304,266,200,170,135,104,78,50,50,50,50,49,49,49,49,49,49,51,58,66,72],"timestamp_mouse":[1,38,39,60,81,100,120,140,160,180,200,219,240,259,280,300,320,339,359,381,400,419,439,461,479,499,520,540,559,580,601,619,639,659,680,700,720,740,760,780,800,819,840,860,879,899,920,940,959,980,1000,1019,1039,1059,1081,1099,1119,1139,1161,1180],"xSR":741.5,"ySR":469.95,"xT1":424.9,"yT1":0,"xT2":1058.1,"yT2":0,"toosoon":0,"cond_shown":"equaldotsize","ratio_trial":900,"smaller_num":"18","larger_num":"20","correct_side":1,"subjID":"Gabrielatopañustes3","gender":"1","age":"12","school":"6"},{"start_time":1551801298304,"click_time":1551801299164,"finger_time":1551801299063,"fix_duration":979.478332186955,"trial":39,"RT":759,"MT":101,"sideResp":1,"stimulus":"img/500/randomdotsizeEA/L/4_Ratio_500_L_18_R_9.png","xmouse":[770,770,770,770,770,770,770,770,770,770,770,770,770,770,770,770,770,770,770,770,770,770,770,770,770,770,770,770,770,770,770,770,770,770,770,770,771,770,736,696,650,604,562,512],"ymouse":[510,510,510,510,510,510,510,510,510,510,510,510,510,510,510,510,510,510,510,510,510,510,510,510,510,510,510,510,510,510,510,510,510,510,510,510,510,488,393,329,270,219,168,92],"timestamp_mouse":[1,19,39,59,80,99,119,141,160,179,200,219,240,260,280,300,320,340,360,380,401,420,441,460,480,500,519,541,559,579,600,620,641,660,681,699,720,739,759,779,799,819,840,860],"xSR":741.5,"ySR":469.95,"xT1":424.9,"yT1":0,"xT2":1058.1,"yT2":0,"toosoon":0,"cond_shown":"randomdotsizeEA","ratio_trial":500,"smaller_num":"9","larger_num":"18","correct_side":1,"subjID":"Gabrielatopañustes3","gender":"1","age":"12","school":"6"},{"start_time":1551801300349,"click_time":1551801301504,"finger_time":1551801301003,"fix_duration":385.01058996891703,"trial":40,"RT":654,"MT":501,"sideResp":1,"stimulus":"img/250/equaldotsize/L/1_Ratio_250_L_8_R_2.png","xmouse":[773,773,773,773,773,773,773,773,773,773,773,773,773,773,773,773,773,773,773,773,773,773,773,773,773,773,773,773,773,773,773,766,742,709,665,557,503,454,419,402,393,393,393,393,393,393,393,397,400,406,413,414,414,416,416,418,421,429],"ymouse":[518,518,518,518,518,518,518,518,518,518,518,518,518,518,518,518,518,518,518,518,518,518,518,518,518,518,518,518,518,518,518,497,455,394,327,200,149,108,77,62,42,38,37,37,37,36,35,32,32,31,31,31,31,38,41,48,50,52],"timestamp_mouse":[14,34,55,75,95,115,134,156,174,194,215,235,256,276,294,314,334,354,375,394,414,435,454,475,495,515,536,554,574,594,614,634,654,675,695,714,734,756,775,794,815,835,855,874,894,914,934,954,975,994,1015,1035,1054,1075,1095,1114,1134,1155],"xSR":741.5,"ySR":469.95,"xT1":424.9,"yT1":0,"xT2":1058.1,"yT2":0,"toosoon":0,"cond_shown":"equaldotsize","ratio_trial":250,"smaller_num":"2","larger_num":"8","correct_side":1,"subjID":"Gabrielatopañustes3","gender":"1","age":"12","school":"6"},{"start_time":1551801302814,"click_time":1551801304083,"finger_time":1551801303764,"fix_duration":329.575515324427,"trial":41,"RT":950,"MT":319,"sideResp":2,"stimulus":"img/750/equaldotanddens/L/10_Ratio_750_L_4_R_3.png","xmouse":[764,764,765,765,765,765,765,765,765,765,765,765,765,765,765,765,765,765,765,765,765,765,765,765,765,765,765,765,765,765,765,765,765,765,765,765,765,765,765,765,765,765,765,765,765,769,775,852,914,985,1052,1109,1169,1181,1188,1192,1196,1203,1206,1206,1203,1195,1171,1155],"ymouse":[538,537,536,536,536,536,536,536,536,536,536,536,536,536,536,536,536,536,536,536,536,536,536,536,536,536,536,536,536,536,536,536,536,536,536,536,536,536,536,536,536,536,536,536,536,531,522,460,419,371,329,289,240,228,220,213,205,185,159,139,119,100,64,49],"timestamp_mouse":[10,30,50,69,89,110,131,149,170,190,210,231,250,269,290,310,329,350,371,389,410,430,450,469,490,509,530,549,571,589,609,629,650,669,689,709,729,749,770,789,811,830,849,871,889,909,930,950,969,989,1009,1030,1051,1069,1089,1109,1130,1150,1169,1190,1210,1229,1250,1269],"xSR":741.5,"ySR":469.95,"xT1":424.9,"yT1":0,"xT2":1058.1,"yT2":0,"toosoon":0,"cond_shown":"equaldotanddens","ratio_trial":750,"smaller_num":"3","larger_num":"4","correct_side":1,"subjID":"Gabrielatopañustes3","gender":"1","age":"12","school":"6"},{"start_time":1551801306263,"click_time":1551801308284,"finger_time":1551801307683,"fix_duration":1177.854303660758,"trial":42,"RT":1420,"MT":601,"sideResp":1,"stimulus":"img/750/equaldotanddens/L/8_Ratio_750_L_4_R_3.png","xmouse":[834,834,834,834,834,834,834,834,834,834,834,834,834,834,834,834,834,834,834,834,834,834,834,834,834,834,834,834,834,834,834,834,834,834,834,834,834,834,834,834,834,834,834,834,834,834,834,834,834,834,834,834,834,834,834,834,834,834,834,834,834,834,834,834,834,834,834,834,834,834,837,846,857,872,873,873,872,861,833,781,720,632,611,609,608,608,603,598,596,595,595,600,601,598,589,579,565,560,550,530,511,477],"ymouse":[539,539,539,539,539,539,539,539,539,539,539,539,539,539,539,539,539,539,539,539,539,539,539,539,539,539,539,539,539,539,539,539,539,539,539,539,539,539,539,539,539,539,539,539,539,539,539,539,539,539,539,539,539,539,539,539,539,539,539,539,539,539,539,539,539,539,539,539,539,539,539,534,525,507,501,501,497,486,465,428,397,358,352,350,350,349,334,322,312,303,291,262,240,223,199,177,154,150,143,131,118,85],"timestamp_mouse":[10,21,41,60,81,100,121,142,161,180,201,220,241,262,282,300,321,341,362,381,400,421,440,460,482,502,522,541,560,581,600,621,642,662,682,700,721,741,762,782,802,821,841,860,880,901,921,940,960,981,1001,1021,1040,1062,1080,1102,1121,1140,1161,1180,1201,1222,1242,1261,1281,1300,1321,1341,1360,1381,1402,1420,1440,1460,1480,1501,1521,1540,1561,1580,1600,1620,1641,1660,1681,1701,1720,1740,1760,1781,1802,1821,1842,1860,1881,1901,1920,1940,1961,1980,2000,2020],"xSR":741.5,"ySR":469.95,"xT1":424.9,"yT1":0,"xT2":1058.1,"yT2":0,"toosoon":0,"cond_shown":"equaldotanddens","ratio_trial":750,"smaller_num":"3","larger_num":"4","correct_side":1,"subjID":"Gabrielatopañustes3","gender":"1","age":"12","school":"6"},{"start_time":1551801313912,"click_time":1551801315103,"finger_time":1551801314763,"fix_duration":1308.148058934714,"trial":43,"RT":851,"MT":340,"sideResp":2,"stimulus":"img/750/equaldotanddens/L/6_Ratio_750_L_24_R_18.png","xmouse":[808,808,808,808,808,808,808,808,808,808,808,808,808,808,808,808,808,808,808,808,808,808,808,808,808,808,808,808,808,808,808,808,808,808,808,808,808,808,808,805,802,802,802,806,806,806,806,806,805,813,822,835,852,918,948,972,995,1014,1039,1097],"ymouse":[528,528,528,528,528,528,528,528,528,528,528,528,528,528,528,528,528,528,528,528,528,528,528,528,528,528,528,528,528,528,528,528,528,528,528,528,528,528,528,507,492,475,454,383,350,324,303,289,273,252,242,229,211,163,145,130,116,105,95,79],"timestamp_mouse":[11,41,52,71,92,112,132,151,172,192,212,231,251,271,291,311,331,352,371,392,412,432,451,473,492,513,531,552,572,591,612,632,651,672,692,711,732,751,771,792,811,832,851,874,891,912,932,952,971,991,1012,1031,1052,1074,1091,1112,1131,1152,1172,1191],"xSR":741.5,"ySR":469.95,"xT1":424.9,"yT1":0,"xT2":1058.1,"yT2":0,"toosoon":0,"cond_shown":"equaldotanddens","ratio_trial":750,"smaller_num":"18","larger_num":"24","correct_side":1,"subjID":"Gabrielatopañustes3","gender":"1","age":"12","school":"6"},{"start_time":1551801319070,"click_time":1551801319804,"finger_time":1551801319703,"fix_duration":1365.1692218070766,"trial":44,"RT":633,"MT":101,"sideResp":2,"stimulus":"img/250/randomdotsizeEA/R/10_Ratio_250_L_4_R_16.png","xmouse":[789,789,789,789,789,789,789,789,789,789,789,789,789,789,789,789,789,789,789,789,789,789,789,789,789,789,789,789,789,790,805,887,947,1004,1051,1089,1130],"ymouse":[542,542,542,542,542,542,542,542,542,542,542,542,542,542,542,542,542,542,542,542,542,542,542,542,542,542,542,542,542,541,507,392,324,260,199,142,79],"timestamp_mouse":[13,35,53,74,93,114,133,154,174,194,214,234,255,275,294,313,333,353,373,394,414,435,455,473,493,514,535,554,574,593,614,633,653,673,693,714,733],"xSR":741.5,"ySR":469.95,"xT1":424.9,"yT1":0,"xT2":1058.1,"yT2":0,"toosoon":0,"cond_shown":"randomdotsizeEA","ratio_trial":250,"smaller_num":"4","larger_num":"16","correct_side":2,"subjID":"Gabrielatopañustes3","gender":"1","age":"12","school":"6"},{"start_time":1551801321599,"click_time":1551801322444,"finger_time":1551801322323,"fix_duration":853.031503398677,"trial":45,"RT":724,"MT":121,"sideResp":2,"stimulus":"img/750/equaldotsize/R/2_Ratio_750_L_6_R_8.png","xmouse":[782,782,782,782,782,782,782,782,782,782,782,782,782,782,782,782,782,782,782,782,782,782,782,782,782,782,782,782,782,782,782,782,782,782,782,796,829,866,918,972,1064,1084,1098],"ymouse":[500,500,500,500,500,500,500,500,500,500,500,500,500,500,500,500,500,500,500,500,500,500,500,500,500,500,500,500,500,500,500,500,500,500,500,486,458,419,357,288,157,118,88],"timestamp_mouse":[9,36,44,66,86,105,125,145,164,185,205,224,244,265,286,304,324,344,366,385,405,425,445,465,485,505,524,545,566,585,605,625,645,664,685,705,724,744,764,785,806,824,845],"xSR":741.5,"ySR":469.95,"xT1":424.9,"yT1":0,"xT2":1058.1,"yT2":0,"toosoon":0,"cond_shown":"equaldotsize","ratio_trial":750,"smaller_num":"6","larger_num":"8","correct_side":2,"subjID":"Gabrielatopañustes3","gender":"1","age":"12","school":"6"},{"start_time":1551801324452,"click_time":1551801325323,"finger_time":1551801325223,"fix_duration":1226.0498388235633,"trial":46,"RT":771,"MT":100,"sideResp":2,"stimulus":"img/900/equaldotsize/L/8_Ratio_900_L_20_R_18.png","xmouse":[791,791,791,791,791,791,791,791,791,791,791,791,791,791,791,791,791,791,791,791,791,791,791,791,791,791,791,791,791,791,791,791,791,791,791,791,791,791,820,859,909,966,1026,1093],"ymouse":[495,495,495,495,495,495,495,495,495,495,495,495,495,495,495,495,495,495,495,495,495,495,495,495,495,495,495,495,495,495,495,495,495,495,495,495,495,495,443,378,310,236,170,93],"timestamp_mouse":[11,32,52,71,92,112,131,152,171,192,212,231,251,272,291,312,332,353,372,392,412,431,451,472,492,513,531,551,572,592,611,632,651,672,691,711,733,751,771,791,812,832,851,871],"xSR":741.5,"ySR":469.95,"xT1":424.9,"yT1":0,"xT2":1058.1,"yT2":0,"toosoon":0,"cond_shown":"equaldotsize","ratio_trial":900,"smaller_num":"18","larger_num":"20","correct_side":1,"subjID":"Gabrielatopañustes3","gender":"1","age":"12","school":"6"},{"start_time":1551801327666,"click_time":1551801328503,"finger_time":1551801328404,"fix_duration":1422.1540145452088,"trial":47,"RT":738,"MT":99,"sideResp":1,"stimulus":"img/750/equaldotsize/L/6_Ratio_750_L_24_R_18.png","xmouse":[783,783,783,783,783,783,783,783,783,783,783,783,783,783,783,783,783,783,783,783,783,783,783,783,783,783,783,783,783,783,783,783,783,783,781,771,750,669,611,561,535,519],"ymouse":[502,502,502,502,502,502,502,502,502,502,502,502,502,502,502,502,502,502,502,502,502,502,502,502,502,502,502,502,502,502,502,502,502,502,501,477,434,298,218,143,88,48],"timestamp_mouse":[23,37,57,78,97,117,138,157,177,198,218,237,258,278,299,318,337,358,379,398,418,438,457,478,497,517,538,557,577,598,618,638,657,678,697,719,738,758,777,799,818,837],"xSR":741.5,"ySR":469.95,"xT1":424.9,"yT1":0,"xT2":1058.1,"yT2":0,"toosoon":0,"cond_shown":"equaldotsize","ratio_trial":750,"smaller_num":"18","larger_num":"24","correct_side":1,"subjID":"Gabrielatopañustes3","gender":"1","age":"12","school":"6"},{"start_time":1551801330378,"click_time":1551801331323,"finger_time":1551801331224,"fix_duration":933.0694801491079,"trial":48,"RT":846,"MT":99,"sideResp":1,"stimulus":"img/750/equaldotsize/L/1_Ratio_750_L_20_R_15.png","xmouse":[766,766,766,766,766,766,766,766,766,766,766,766,766,766,766,766,766,766,766,766,766,766,766,766,766,766,766,766,766,766,766,766,766,766,766,766,766,766,766,766,766,763,757,722,680,623,560,473],"ymouse":[489,489,489,489,489,489,489,489,489,489,489,489,489,489,489,489,489,489,489,489,489,489,489,489,489,489,489,489,489,489,489,489,489,489,489,489,489,489,489,489,489,474,462,392,335,270,197,92],"timestamp_mouse":[11,27,45,65,85,105,125,146,165,185,205,226,245,266,286,305,326,346,366,385,406,426,446,467,487,506,526,545,566,585,607,626,646,665,686,706,727,746,765,786,806,825,846,865,887,906,925,945],"xSR":741.5,"ySR":469.95,"xT1":424.9,"yT1":0,"xT2":1058.1,"yT2":0,"toosoon":0,"cond_shown":"equaldotsize","ratio_trial":750,"smaller_num":"15","larger_num":"20","correct_side":1,"subjID":"Gabrielatopañustes3","gender":"1","age":"12","school":"6"},{"start_time":1551801333078,"click_time":1551801334543,"finger_time":1551801334184,"fix_duration":771.9309801796305,"trial":49,"RT":1106,"MT":359,"sideResp":2,"stimulus":"img/750/equaldotanddens/R/5_Ratio_750_L_15_R_20.png","xmouse":[764,764,764,764,764,764,764,764,764,764,764,764,764,764,764,764,764,764,764,764,764,764,764,764,764,764,764,764,764,764,764,764,764,764,764,764,764,764,764,764,764,764,764,767,768,769,769,769,769,769,769,769,770,780,792,808,830,855,931,984,1004,1020,1028,1036,1039,1045,1052,1059,1076,1082,1083,1089,1091,1095],"ymouse":[497,497,497,497,497,497,497,497,497,497,497,497,497,497,497,497,497,497,497,497,497,497,497,497,497,497,497,497,497,497,497,497,497,497,497,497,497,497,497,497,497,497,497,495,494,494,494,494,494,494,494,494,493,486,476,463,445,423,365,326,314,303,297,289,284,273,257,242,200,164,153,121,106,89],"timestamp_mouse":[10,25,46,65,86,106,126,145,167,186,205,226,246,266,286,305,327,345,366,385,406,426,446,465,486,505,526,545,565,586,605,625,645,666,685,706,725,745,765,786,807,826,845,865,885,907,925,945,966,986,1006,1025,1045,1065,1085,1106,1126,1145,1166,1185,1205,1225,1245,1265,1285,1306,1326,1347,1365,1385,1406,1426,1445,1465],"xSR":741.5,"ySR":469.95,"xT1":424.9,"yT1":0,"xT2":1058.1,"yT2":0,"toosoon":0,"cond_shown":"equaldotanddens","ratio_trial":750,"smaller_num":"15","larger_num":"20","correct_side":2,"subjID":"Gabrielatopañustes3","gender":"1","age":"12","school":"6"},{"start_time":1551801336772,"click_time":1551801337944,"finger_time":1551801337604,"fix_duration":1227.5132783649526,"trial":50,"RT":832,"MT":340,"sideResp":2,"stimulus":"img/500/equaldotanddens/R/9_Ratio_500_L_2_R_4.png","xmouse":[793,793,793,793,793,793,793,793,793,793,793,793,793,793,793,793,793,793,793,793,793,793,793,793,793,793,793,793,793,793,793,793,793,793,793,793,793,793,793,797,818,844,878,950,982,999,1017,1036,1060,1071,1078,1085,1091,1095,1102,1104,1105,1107,1113],"ymouse":[508,508,508,508,508,508,508,508,508,508,508,508,508,508,508,508,508,508,508,508,508,508,508,508,508,508,508,508,508,508,508,508,508,508,508,508,508,508,508,499,473,441,409,346,319,303,288,271,249,238,231,222,210,198,167,151,137,125,98],"timestamp_mouse":[11,46,52,72,92,111,132,151,173,192,212,233,252,272,292,312,331,351,372,392,412,432,451,471,491,511,531,553,573,592,611,631,652,673,691,712,731,751,771,791,812,832,852,871,892,911,932,951,972,991,1012,1032,1052,1071,1091,1111,1131,1152,1172],"xSR":741.5,"ySR":469.95,"xT1":424.9,"yT1":0,"xT2":1058.1,"yT2":0,"toosoon":0,"cond_shown":"equaldotanddens","ratio_trial":500,"smaller_num":"2","larger_num":"4","correct_side":2,"subjID":"Gabrielatopañustes3","gender":"1","age":"12","school":"6"},{"start_time":1551801339558,"click_time":1551801340463,"finger_time":1551801340184,"fix_duration":613.1852081052007,"trial":51,"RT":626,"MT":279,"sideResp":2,"stimulus":"img/500/equaldotanddens/R/15_Ratio_500_L_1_R_2.png","xmouse":[821,821,821,821,821,821,821,821,821,821,821,821,820,820,820,820,820,820,820,820,820,820,820,820,820,820,820,820,820,823,832,844,859,874,896,930,945,962,977,992,1026,1037,1048,1057,1075,1082],"ymouse":[510,510,510,510,510,510,510,510,510,510,510,510,511,511,511,511,511,511,511,511,511,511,511,511,511,511,511,511,511,500,482,460,438,416,387,348,329,311,291,271,215,195,174,153,111,95],"timestamp_mouse":[10,26,46,65,86,106,125,146,166,186,206,226,245,267,287,305,325,345,366,386,405,426,446,465,485,505,526,545,566,586,605,626,645,665,685,705,725,745,766,786,805,825,846,866,887,905],"xSR":741.5,"ySR":469.95,"xT1":424.9,"yT1":0,"xT2":1058.1,"yT2":0,"toosoon":0,"cond_shown":"equaldotanddens","ratio_trial":500,"smaller_num":"1","larger_num":"2","correct_side":2,"subjID":"Gabrielatopañustes3","gender":"1","age":"12","school":"6"},{"start_time":1551801341987,"click_time":1551801343284,"finger_time":1551801343023,"fix_duration":761.8389547798835,"trial":52,"RT":1036,"MT":261,"sideResp":2,"stimulus":"img/250/randomdotsizeEA/R/10_Ratio_250_L_4_R_16.png","xmouse":[771,771,771,771,771,771,771,771,771,771,771,771,771,771,771,771,771,771,771,771,771,771,771,771,771,771,771,771,771,771,771,771,771,771,771,771,771,771,771,771,771,771,771,771,771,771,771,771,771,771,780,791,804,855,877,900,920,942,987,1026,1053,1073,1091,1118,1125],"ymouse":[553,553,553,553,553,553,553,553,553,553,553,553,553,553,553,553,553,553,553,553,553,553,553,553,553,553,553,553,553,553,553,553,553,553,553,553,553,553,553,553,553,553,553,553,553,553,549,543,528,516,485,457,422,352,328,304,285,267,228,200,181,164,147,110,95],"timestamp_mouse":[21,45,56,77,97,118,136,156,176,196,216,236,257,276,297,317,336,357,377,398,417,437,457,477,498,517,537,558,578,597,617,638,658,677,697,717,737,757,776,797,817,838,858,876,896,916,936,956,976,997,1016,1036,1058,1076,1096,1116,1137,1157,1178,1196,1216,1237,1256,1276,1297],"xSR":741.5,"ySR":469.95,"xT1":424.9,"yT1":0,"xT2":1058.1,"yT2":0,"toosoon":0,"cond_shown":"randomdotsizeEA","ratio_trial":250,"smaller_num":"4","larger_num":"16","correct_side":2,"subjID":"Gabrielatopañustes3","gender":"1","age":"12","school":"6"},{"start_time":1551801344136,"click_time":1551801345223,"finger_time":1551801344883,"fix_duration":250,"trial":53,"RT":747,"MT":340,"sideResp":1,"stimulus":"img/500/equaldotsize/L/8_Ratio_500_L_8_R_4.png","xmouse":[775,775,775,775,775,775,775,775,775,775,775,775,775,775,775,775,775,775,775,775,775,775,775,775,775,775,775,775,775,775,775,775,775,775,775,775,772,757,733,702,666,587,564,553,552,551,551,551,551,551,551,549,537,527,515],"ymouse":[524,524,524,524,524,524,524,524,524,524,524,524,524,524,524,524,524,524,524,524,524,524,524,524,524,524,524,524,524,524,524,524,524,524,524,524,507,460,401,338,279,172,141,123,118,116,116,116,116,116,116,110,96,84,70],"timestamp_mouse":[10,29,48,68,87,107,128,147,167,188,209,229,248,267,287,307,329,347,368,387,407,427,449,468,488,508,527,548,568,589,608,627,648,668,688,708,727,747,768,787,808,828,848,867,888,908,927,948,967,988,1007,1028,1047,1067,1087],"xSR":741.5,"ySR":469.95,"xT1":424.9,"yT1":0,"xT2":1058.1,"yT2":0,"toosoon":0,"cond_shown":"equaldotsize","ratio_trial":500,"smaller_num":"4","larger_num":"8","correct_side":1,"subjID":"Gabrielatopañustes3","gender":"1","age":"12","school":"6"},{"start_time":1551801347975,"click_time":1551801349004,"finger_time":1551801348643,"fix_duration":1291.4135934131507,"trial":54,"RT":668,"MT":361,"sideResp":2,"stimulus":"img/250/equaldotanddens/R/9_Ratio_250_L_3_R_12.png","xmouse":[789,789,789,789,789,789,789,789,789,789,789,789,789,789,789,789,789,789,789,789,789,789,789,789,789,789,789,789,789,789,789,789,789,804,831,853,876,897,922,988,1006,1020,1030,1038,1044,1052,1057,1062,1064,1064,1065,1067],"ymouse":[475,475,475,475,475,475,475,475,475,475,475,475,475,475,475,475,475,475,475,475,475,475,475,475,475,475,475,475,475,475,475,475,475,466,443,424,404,384,355,268,236,216,203,191,178,152,134,118,113,108,104,98],"timestamp_mouse":[10,45,48,69,89,108,129,150,169,188,209,228,249,268,288,309,329,349,368,388,409,429,449,469,489,508,529,549,569,589,609,628,649,668,690,708,729,748,770,789,808,828,850,868,890,908,929,948,968,988,1009,1029],"xSR":741.5,"ySR":469.95,"xT1":424.9,"yT1":0,"xT2":1058.1,"yT2":0,"toosoon":0,"cond_shown":"equaldotanddens","ratio_trial":250,"smaller_num":"3","larger_num":"12","correct_side":2,"subjID":"Gabrielatopañustes3","gender":"1","age":"12","school":"6"},{"start_time":1551801350047,"click_time":1551801350984,"finger_time":1551801350763,"fix_duration":282.17249435797453,"trial":55,"RT":716,"MT":221,"sideResp":2,"stimulus":"img/750/equaldotsize/R/3_Ratio_750_L_15_R_20.png","xmouse":[802,802,802,802,802,802,802,802,802,802,802,802,802,802,802,802,802,802,802,802,802,802,802,802,802,802,802,802,802,802,802,802,808,813,832,850,902,934,975,1005,1026,1054,1065,1073,1083,1088,1099],"ymouse":[545,545,545,545,545,545,545,545,545,545,545,545,545,545,545,545,545,545,545,545,545,545,545,545,545,545,545,545,545,545,545,545,539,533,505,482,414,365,305,259,222,182,166,154,135,121,94],"timestamp_mouse":[17,36,70,76,96,117,138,157,177,198,218,237,256,278,297,318,337,357,378,397,417,437,456,476,497,516,538,556,578,596,617,637,657,677,697,716,736,757,777,797,816,836,857,877,897,917,937],"xSR":741.5,"ySR":469.95,"xT1":424.9,"yT1":0,"xT2":1058.1,"yT2":0,"toosoon":0,"cond_shown":"equaldotsize","ratio_trial":750,"smaller_num":"15","larger_num":"20","correct_side":2,"subjID":"Gabrielatopañustes3","gender":"1","age":"12","school":"6"},{"start_time":1551801352227,"click_time":1551801353364,"finger_time":1551801353044,"fix_duration":342.9733226827616,"trial":56,"RT":817,"MT":320,"sideResp":1,"stimulus":"img/250/equaldotsize/L/3_Ratio_250_L_8_R_2.png","xmouse":[780,780,780,780,780,780,780,780,780,780,780,780,780,780,780,780,780,780,780,780,780,780,780,780,780,780,780,780,780,780,780,780,780,780,780,780,780,780,779,774,747,706,646,556,534,531,530,531,531,532,533,533,535,535,535,529,520],"ymouse":[513,513,513,513,513,513,513,513,513,513,513,513,513,513,513,513,513,513,513,513,513,513,513,513,513,513,513,513,513,513,513,513,513,513,513,513,513,513,513,507,456,392,315,198,151,131,117,100,97,95,94,94,84,73,66,56,49],"timestamp_mouse":[16,36,56,77,96,117,137,157,178,197,216,237,257,276,297,317,337,357,376,396,416,437,457,477,497,517,536,557,578,596,617,637,657,676,696,717,738,756,776,797,817,836,856,876,896,916,936,957,976,998,1016,1037,1056,1077,1096,1117,1137],"xSR":741.5,"ySR":469.95,"xT1":424.9,"yT1":0,"xT2":1058.1,"yT2":0,"toosoon":0,"cond_shown":"equaldotsize","ratio_trial":250,"smaller_num":"2","larger_num":"8","correct_side":1,"subjID":"Gabrielatopañustes3","gender":"1","age":"12","school":"6"},{"start_time":1551801354764,"click_time":1551801355824,"finger_time":1551801355564,"fix_duration":698.5571069616285,"trial":57,"RT":800,"MT":260,"sideResp":2,"stimulus":"img/500/equaldotanddens/R/9_Ratio_500_L_2_R_4.png","xmouse":[824,824,824,824,824,824,824,824,824,824,824,824,824,824,824,824,824,824,824,824,824,824,824,824,824,824,824,824,824,824,824,824,824,824,824,824,824,824,833,849,879,899,920,944,964,984,1006,1016,1027,1037,1057,1067,1078],"ymouse":[530,530,530,530,530,530,530,530,530,530,530,530,530,530,530,530,530,530,530,530,530,530,530,530,530,530,530,530,530,530,530,530,530,530,530,530,530,529,505,477,426,392,360,328,302,273,239,224,203,182,134,110,88],"timestamp_mouse":[19,41,60,79,99,119,141,159,180,199,220,239,260,280,299,320,340,360,380,399,419,440,459,479,499,519,540,560,579,600,619,640,659,679,701,720,740,759,779,800,821,839,860,880,900,919,940,959,980,1000,1020,1039,1059],"xSR":741.5,"ySR":469.95,"xT1":424.9,"yT1":0,"xT2":1058.1,"yT2":0,"toosoon":0,"cond_shown":"equaldotanddens","ratio_trial":500,"smaller_num":"2","larger_num":"4","correct_side":2,"subjID":"Gabrielatopañustes3","gender":"1","age":"12","school":"6"},{"start_time":1551801357380,"click_time":1551801358663,"finger_time":1551801358203,"fix_duration":995.1267049618019,"trial":58,"RT":823,"MT":460,"sideResp":2,"stimulus":"img/750/randomdotsizeEA/R/12_Ratio_750_L_3_R_4.png","xmouse":[755,755,755,755,755,755,755,755,755,755,755,755,755,755,755,755,755,755,755,755,755,755,755,755,755,755,755,755,755,755,755,755,755,755,755,755,755,761,784,813,840,890,912,932,972,988,1018,1031,1043,1048,1050,1054,1056,1061,1067,1070,1072,1072,1072,1072,1072,1074,1076,1077,1078],"ymouse":[567,567,567,567,567,567,567,567,567,567,567,567,567,567,567,567,567,567,567,567,567,567,567,567,567,567,567,567,567,567,567,567,567,567,567,567,567,565,547,522,499,451,426,402,357,334,290,269,247,227,209,178,164,150,130,119,107,106,106,106,106,104,102,100,99],"timestamp_mouse":[10,39,45,63,84,104,123,143,163,184,203,223,245,264,284,303,324,344,363,384,403,423,445,463,483,504,524,543,563,583,604,625,645,664,684,704,723,743,763,783,804,823,843,863,884,904,923,943,963,984,1003,1023,1043,1063,1084,1103,1124,1144,1164,1183,1204,1223,1243,1263,1283],"xSR":741.5,"ySR":469.95,"xT1":424.9,"yT1":0,"xT2":1058.1,"yT2":0,"toosoon":0,"cond_shown":"randomdotsizeEA","ratio_trial":750,"smaller_num":"3","larger_num":"4","correct_side":2,"subjID":"Gabrielatopañustes3","gender":"1","age":"12","school":"6"},{"start_time":1551801359715,"click_time":1551801360763,"finger_time":1551801360424,"fix_duration":250,"trial":59,"RT":709,"MT":339,"sideResp":1,"stimulus":"img/500/equaldotsize/L/5_Ratio_500_L_4_R_2.png","xmouse":[792,792,792,792,792,792,792,792,792,792,792,792,792,792,792,792,792,792,792,792,792,792,792,792,792,792,792,792,792,792,792,792,792,792,791,781,753,726,690,640,618,603,590,590,590,590,590,590,590,590,590,528,515],"ymouse":[526,526,526,526,526,526,526,526,526,526,526,526,526,526,526,526,526,526,526,526,526,526,526,526,526,526,526,526,526,526,526,526,526,526,523,458,352,263,179,75,36,16,2,2,2,2,2,2,2,2,2,6,19],"timestamp_mouse":[10,38,50,69,89,109,128,149,170,189,209,229,248,270,290,310,329,349,369,388,409,429,449,468,488,509,529,548,569,589,609,628,649,670,688,709,728,750,769,788,809,829,849,870,890,909,929,948,970,989,1008,1028,1048],"xSR":741.5,"ySR":469.95,"xT1":424.9,"yT1":0,"xT2":1058.1,"yT2":0,"toosoon":0,"cond_shown":"equaldotsize","ratio_trial":500,"smaller_num":"2","larger_num":"4","correct_side":1,"subjID":"Gabrielatopañustes3","gender":"1","age":"12","school":"6"},{"start_time":1551801362002,"click_time":1551801362984,"finger_time":1551801362764,"fix_duration":576.107011088707,"trial":60,"RT":762,"MT":220,"sideResp":1,"stimulus":"img/900/equaldotanddens/L/10_Ratio_900_L_20_R_18.png","xmouse":[765,765,765,765,765,765,765,765,765,765,765,765,765,765,765,765,765,765,765,765,765,765,765,765,765,765,765,765,765,765,765,765,765,765,765,765,765,757,723,689,585,530,506,489,480,472,468,466,466,465],"ymouse":[523,523,523,523,523,523,523,523,523,523,523,523,523,523,523,523,523,523,523,523,523,523,523,523,523,523,523,523,523,523,523,523,523,523,523,523,523,491,437,388,255,192,162,144,130,118,111,107,103,96],"timestamp_mouse":[12,39,42,61,82,101,122,141,161,181,201,221,242,261,282,301,322,342,361,381,401,421,441,463,482,501,522,541,561,582,601,621,642,661,682,701,721,743,762,781,801,821,841,863,881,901,921,942,962,982],"xSR":741.5,"ySR":469.95,"xT1":424.9,"yT1":0,"xT2":1058.1,"yT2":0,"toosoon":0,"cond_shown":"equaldotanddens","ratio_trial":900,"smaller_num":"18","larger_num":"20","correct_side":1,"subjID":"Gabrielatopañustes3","gender":"1","age":"12","school":"6"},{"start_time":1551801367278,"click_time":1551801368344,"finger_time":1551801368004,"fix_duration":1452.4381812562585,"trial":61,"RT":726,"MT":340,"sideResp":1,"stimulus":"img/250/equaldotsize/L/14_Ratio_250_L_12_R_3.png","xmouse":[774,774,774,774,774,774,774,774,774,774,774,774,774,774,774,774,774,774,774,774,774,774,774,774,774,774,774,774,774,774,774,774,774,774,775,767,750,683,634,581,553,542,539,539,539,539,539,539,539,540,542,542,530,509],"ymouse":[515,515,515,515,515,515,515,515,515,515,515,515,515,515,515,515,515,515,515,515,515,515,515,515,515,515,515,515,515,515,515,515,515,515,512,491,460,362,312,267,241,225,210,209,208,208,208,203,194,186,178,166,112,67],"timestamp_mouse":[9,25,46,74,86,105,125,145,165,186,207,225,246,267,285,305,326,346,365,386,405,426,446,465,486,506,525,547,567,585,606,626,646,665,685,706,726,745,765,785,806,826,845,865,885,906,925,945,965,986,1006,1026,1046,1066],"xSR":741.5,"ySR":469.95,"xT1":424.9,"yT1":0,"xT2":1058.1,"yT2":0,"toosoon":0,"cond_shown":"equaldotsize","ratio_trial":250,"smaller_num":"3","larger_num":"12","correct_side":1,"subjID":"Gabrielatopañustes3","gender":"1","age":"12","school":"6"},{"start_time":1551801370687,"click_time":1551801371724,"finger_time":1551801371303,"fix_duration":1422.57224167938,"trial":62,"RT":616,"MT":421,"sideResp":2,"stimulus":"img/250/equaldotanddens/R/11_Ratio_250_L_3_R_12.png","xmouse":[786,786,786,786,786,786,786,786,786,786,786,786,786,786,786,786,786,786,786,786,786,786,786,786,786,786,786,786,795,808,831,885,913,930,954,973,1005,1017,1026,1030,1030,1030,1031,1038,1050,1056,1067,1069,1070,1072,1076,1089],"ymouse":[524,524,524,524,524,524,524,524,524,524,524,524,524,524,524,524,524,524,524,524,524,524,524,524,524,524,524,523,501,478,446,365,317,283,243,211,165,149,139,135,134,134,134,131,126,123,116,114,113,110,103,81],"timestamp_mouse":[18,41,56,76,96,116,138,157,177,197,216,237,257,276,296,318,336,357,378,397,418,437,456,477,496,518,538,556,577,596,616,636,656,676,697,716,737,756,776,796,816,836,857,876,897,916,936,956,977,997,1016,1036],"xSR":741.5,"ySR":469.95,"xT1":424.9,"yT1":0,"xT2":1058.1,"yT2":0,"toosoon":0,"cond_shown":"equaldotanddens","ratio_trial":250,"smaller_num":"3","larger_num":"12","correct_side":2,"subjID":"Gabrielatopañustes3","gender":"1","age":"12","school":"6"},{"start_time":1551801374217,"click_time":1551801375743,"finger_time":1551801375123,"fix_duration":250,"trial":63,"RT":906,"MT":620,"sideResp":2,"stimulus":"img/900/equaldotanddens/L/4_Ratio_900_L_20_R_18.png","xmouse":[806,806,806,806,806,806,806,806,806,806,806,806,806,806,806,806,806,806,806,806,806,806,806,806,806,806,806,806,806,806,806,806,806,806,806,806,806,806,806,806,806,806,806,819,841,878,910,922,931,940,968,989,1004,1018,1026,1030,1030,1030,1030,1030,1033,1040,1041,1041,1041,1041,1041,1041,1041,1041,1042,1045,1048,1051,1054,1058,1061],"ymouse":[538,538,538,538,538,538,538,538,538,538,538,538,538,538,538,538,538,538,538,538,538,538,538,538,538,538,538,538,538,538,538,538,538,538,538,538,538,538,538,538,538,538,532,511,485,444,400,388,375,360,311,283,262,241,225,214,214,214,212,203,188,161,151,135,120,113,111,111,110,110,108,104,102,99,95,91,91],"timestamp_mouse":[10,26,46,67,87,106,126,147,166,187,207,227,246,266,287,307,327,346,366,387,406,426,448,467,488,506,527,547,567,587,607,626,646,667,687,706,726,747,766,786,806,826,848,867,886,906,926,946,966,987,1007,1026,1047,1066,1086,1108,1126,1146,1167,1186,1206,1226,1246,1267,1287,1306,1327,1346,1366,1386,1408,1426,1446,1467,1486,1507,1526],"xSR":741.5,"ySR":469.95,"xT1":424.9,"yT1":0,"xT2":1058.1,"yT2":0,"toosoon":0,"cond_shown":"equaldotanddens","ratio_trial":900,"smaller_num":"18","larger_num":"20","correct_side":1,"subjID":"Gabrielatopañustes3","gender":"1","age":"12","school":"6"},{"start_time":1551801377992,"click_time":1551801379183,"finger_time":1551801378723,"fix_duration":1348.7572198918745,"trial":64,"RT":731,"MT":460,"sideResp":1,"stimulus":"img/250/equaldotanddens/L/15_Ratio_250_L_12_R_3.png","xmouse":[755,755,755,755,755,755,755,755,755,755,755,755,755,755,755,755,755,755,755,755,755,755,755,755,755,755,755,755,755,755,755,755,755,755,755,751,741,719,702,685,669,662,650,648,648,647,645,628,613,594,570,552,524,503,489,480,477,476,476,478],"ymouse":[518,518,518,518,518,518,518,518,518,518,518,518,518,518,518,518,518,518,518,518,518,518,518,518,518,518,518,518,518,518,518,518,518,518,518,508,490,457,434,405,369,337,278,254,228,221,216,207,200,191,181,171,149,131,123,115,110,108,103,99],"timestamp_mouse":[12,36,51,71,91,113,131,152,171,192,212,231,252,273,292,312,331,351,372,391,411,431,452,472,492,512,531,552,571,592,612,631,651,671,691,712,731,752,771,793,812,833,852,871,891,912,931,951,972,991,1012,1032,1052,1071,1091,1112,1131,1151,1171,1191],"xSR":741.5,"ySR":469.95,"xT1":424.9,"yT1":0,"xT2":1058.1,"yT2":0,"toosoon":0,"cond_shown":"equaldotanddens","ratio_trial":250,"smaller_num":"3","larger_num":"12","correct_side":1,"subjID":"Gabrielatopañustes3","gender":"1","age":"12","school":"6"},{"start_time":1551801380296,"click_time":1551801381504,"finger_time":1551801381083,"fix_duration":250,"trial":65,"RT":787,"MT":421,"sideResp":2,"stimulus":"img/900/equaldotanddens/R/9_Ratio_900_L_18_R_20.png","xmouse":[775,775,775,775,775,775,775,775,775,775,775,775,775,775,775,775,775,775,775,775,775,775,775,775,775,775,775,775,775,775,775,775,775,775,775,775,775,775,788,802,830,854,897,916,929,940,953,967,1001,1014,1026,1035,1049,1089,1112,1124,1129,1129,1129,1128,1128],"ymouse":[514,514,514,514,514,514,514,514,514,514,514,514,514,514,514,514,514,514,514,514,514,514,514,514,514,514,514,514,514,514,514,514,514,514,514,514,514,508,485,461,424,395,344,322,306,296,283,273,248,238,227,211,193,157,143,135,131,129,116,101,84],"timestamp_mouse":[14,27,47,67,87,108,129,147,168,188,208,228,247,268,288,308,329,347,368,389,408,428,448,468,488,508,529,547,567,587,608,628,647,668,688,709,727,747,767,787,808,828,848,867,888,907,928,948,968,987,1008,1027,1047,1067,1088,1107,1127,1148,1169,1187,1208],"xSR":741.5,"ySR":469.95,"xT1":424.9,"yT1":0,"xT2":1058.1,"yT2":0,"toosoon":0,"cond_shown":"equaldotanddens","ratio_trial":900,"smaller_num":"18","larger_num":"20","correct_side":2,"subjID":"Gabrielatopañustes3","gender":"1","age":"12","school":"6"},{"start_time":1551801384049,"click_time":1551801385145,"finger_time":1551801384784,"fix_duration":1485.7641009158824,"trial":66,"RT":735,"MT":361,"sideResp":2,"stimulus":"img/900/equaldotanddens/L/8_Ratio_900_L_20_R_18.png","xmouse":[759,759,759,759,759,759,759,759,759,759,759,759,759,759,759,759,759,759,759,759,759,759,759,759,759,759,759,759,759,759,759,759,759,759,765,784,819,881,899,932,955,959,962,969,999,1019,1041,1059,1072,1087,1101,1108,1115,1121,1123],"ymouse":[524,524,524,524,524,524,524,524,524,524,524,524,524,524,524,524,524,524,524,524,524,524,524,524,524,524,524,524,524,524,524,524,524,524,518,499,468,410,391,364,343,339,332,317,279,259,240,224,206,184,163,146,128,111,98],"timestamp_mouse":[14,45,55,75,94,114,134,154,174,194,214,235,256,274,295,314,334,354,375,395,414,438,455,474,495,515,534,554,575,594,615,634,656,674,695,714,735,754,775,795,814,834,855,874,895,914,935,954,975,995,1014,1034,1054,1074,1095],"xSR":741.5,"ySR":469.95,"xT1":424.9,"yT1":0,"xT2":1058.1,"yT2":0,"toosoon":0,"cond_shown":"equaldotanddens","ratio_trial":900,"smaller_num":"18","larger_num":"20","correct_side":1,"subjID":"Gabrielatopañustes3","gender":"1","age":"12","school":"6"},{"start_time":1551801388788,"click_time":1551801390285,"finger_time":1551801389643,"fix_duration":1202.3546625458935,"trial":67,"RT":855,"MT":642,"sideResp":2,"stimulus":"img/900/equaldotanddens/L/4_Ratio_900_L_20_R_18.png","xmouse":[792,792,792,792,792,792,792,792,792,792,792,792,792,792,792,792,792,792,792,792,792,792,792,792,792,792,792,792,792,792,792,792,792,792,792,792,792,792,792,792,798,815,846,924,968,996,1012,1022,1041,1080,1098,1111,1116,1118,1110,1101,1093,1088,1088,1088,1088,1088,1088,1088,1088,1088,1088,1088,1088,1093,1094,1095,1095,1095,1095],"ymouse":[528,528,528,528,528,528,528,528,528,528,528,528,528,528,528,528,528,528,528,528,528,528,528,528,528,528,528,528,528,528,528,528,528,528,528,528,528,528,528,528,523,512,495,445,417,395,376,358,326,276,254,232,211,167,147,132,121,115,110,110,110,110,110,110,110,110,110,109,109,103,102,101,100,100,98],"timestamp_mouse":[16,40,57,76,96,116,135,156,175,195,215,235,256,275,295,316,335,357,375,395,415,435,455,475,496,515,535,555,575,596,617,636,656,675,696,716,735,756,775,796,815,836,855,876,895,915,935,955,975,996,1015,1035,1055,1075,1095,1116,1135,1155,1176,1196,1215,1236,1256,1275,1296,1315,1336,1355,1376,1396,1415,1435,1456,1476,1497],"xSR":741.5,"ySR":469.95,"xT1":424.9,"yT1":0,"xT2":1058.1,"yT2":0,"toosoon":0,"cond_shown":"equaldotanddens","ratio_trial":900,"smaller_num":"18","larger_num":"20","correct_side":1,"subjID":"Gabrielatopañustes3","gender":"1","age":"12","school":"6"},{"start_time":1551801392705,"click_time":1551801393963,"finger_time":1551801393523,"fix_duration":1340.9494267481846,"trial":68,"RT":818,"MT":440,"sideResp":1,"stimulus":"img/500/equaldotanddens/L/5_Ratio_500_L_4_R_2.png","xmouse":[780,780,780,780,780,780,780,780,780,780,780,780,780,780,780,780,780,780,780,780,780,780,780,780,780,780,780,780,780,780,780,780,780,780,780,781,782,785,778,765,745,733,727,706,695,680,666,645,636,628,614,607,598,575,566,560,556,556,554,549,541,528,513],"ymouse":[540,540,540,540,540,540,540,540,540,540,540,540,540,540,540,540,540,540,540,540,540,540,540,540,540,540,540,540,540,540,540,540,540,540,540,535,530,519,490,474,447,427,416,351,312,277,245,196,176,158,135,123,111,86,77,72,69,69,69,69,71,74,78],"timestamp_mouse":[24,40,59,78,98,118,139,158,179,199,219,239,258,279,298,319,338,359,379,400,418,439,459,479,499,519,540,559,580,599,619,638,659,680,698,719,738,758,778,799,818,838,859,878,899,918,938,960,978,1000,1018,1039,1058,1079,1099,1118,1139,1158,1178,1198,1218,1238,1258],"xSR":741.5,"ySR":469.95,"xT1":424.9,"yT1":0,"xT2":1058.1,"yT2":0,"toosoon":0,"cond_shown":"equaldotanddens","ratio_trial":500,"smaller_num":"2","larger_num":"4","correct_side":1,"subjID":"Gabrielatopañustes3","gender":"1","age":"12","school":"6"},{"start_time":1551801395808,"click_time":1551801397163,"finger_time":1551801396784,"fix_duration":1023.5544791972579,"trial":69,"RT":976,"MT":379,"sideResp":2,"stimulus":"img/500/equaldotsize/R/6_Ratio_500_L_9_R_18.png","xmouse":[781,781,781,781,781,781,781,781,781,781,781,781,781,781,781,781,781,781,781,781,781,781,781,781,781,781,781,781,781,781,781,781,781,781,781,781,781,781,781,781,781,781,781,781,785,797,811,822,836,837,840,844,851,881,914,937,959,978,1010,1026,1043,1058,1070,1087,1092,1092,1092,1092],"ymouse":[528,528,528,528,528,528,528,528,528,528,528,528,528,528,528,528,528,528,528,528,528,528,528,528,528,528,528,528,528,528,528,528,528,528,528,528,528,528,528,528,528,528,528,528,524,509,493,473,428,408,392,379,366,327,290,268,250,234,209,197,186,177,166,143,122,111,103,96],"timestamp_mouse":[15,38,56,75,95,116,135,155,175,196,216,235,256,277,296,316,335,355,376,395,415,436,455,475,495,515,536,556,576,595,616,635,655,677,695,716,736,757,776,795,815,836,856,875,895,915,935,955,976,995,1015,1035,1055,1077,1095,1115,1136,1155,1175,1195,1216,1235,1255,1276,1296,1315,1336,1355],"xSR":741.5,"ySR":469.95,"xT1":424.9,"yT1":0,"xT2":1058.1,"yT2":0,"toosoon":0,"cond_shown":"equaldotsize","ratio_trial":500,"smaller_num":"9","larger_num":"18","correct_side":2,"subjID":"Gabrielatopañustes3","gender":"1","age":"12","school":"6"},{"start_time":1551801399249,"click_time":1551801400264,"finger_time":1551801400064,"fix_duration":1244.6979792531356,"trial":70,"RT":815,"MT":200,"sideResp":1,"stimulus":"img/250/equaldotanddens/L/2_Ratio_250_L_16_R_4.png","xmouse":[801,801,801,801,801,801,801,801,801,801,801,801,801,801,801,801,801,801,801,801,801,801,801,801,801,801,801,801,801,801,801,801,801,801,801,801,801,801,798,771,724,592,557,535,518