[{"start_time":1551886912496,"click_time":1551886915172,"finger_time":1551886914173,"fix_duration":541.9600313465477,"trial":0,"RT":1677,"MT":999,"sideResp":1,"stimulus":[],"xmouse":[773,773,773,773,773,773,773,773,773,773,773,773,773,773,773,773,773,773,773,773,773,773,773,773,773,773,773,773,773,773,773,773,773,773,773,773,773,773,773,773,773,773,773,773,773,773,773,773,773,773,773,773,773,773,773,773,773,773,773,773,773,773,773,773,773,773,773,773,773,773,773,773,773,773,773,773,773,773,773,773,773,773,771,765,752,735,713,711,710,710,710,710,710,710,711,714,725,733,740,749,758,765,783,789,791,791,791,794,799,803,805,806,806,806,807,807,807,807,807,807,807,807,807,806,791,752,673,566,519,504,502,502,502,501],"ymouse":[505,505,505,505,505,505,505,505,505,505,505,505,505,505,505,505,505,505,505,505,505,505,505,505,505,505,505,505,505,505,505,505,505,505,505,505,505,505,505,505,505,505,505,505,505,505,505,505,505,505,505,505,505,505,505,505,505,505,505,505,505,505,505,505,505,505,505,505,505,505,505,505,505,505,505,505,505,505,505,505,505,505,505,477,424,381,332,326,324,324,324,324,324,324,331,346,387,410,431,449,467,484,507,514,516,516,516,521,527,532,535,536,536,536,535,534,533,533,533,533,533,533,530,522,490,431,354,241,194,167,140,118,100,93],"timestamp_mouse":[15,35,55,75,95,115,136,157,175,197,215,237,255,276,297,316,335,357,376,396,416,435,455,475,497,516,535,556,576,596,617,637,656,675,695,716,735,756,776,796,815,835,855,876,895,916,935,956,977,995,1016,1035,1055,1075,1097,1115,1135,1155,1175,1195,1216,1235,1256,1277,1295,1315,1337,1355,1377,1396,1416,1435,1457,1476,1497,1515,1536,1557,1576,1596,1616,1635,1655,1677,1697,1716,1737,1756,1776,1796,1817,1837,1856,1877,1895,1916,1937,1955,1976,1995,2017,2036,2056,2075,2095,2115,2136,2156,2177,2197,2216,2237,2255,2277,2295,2316,2335,2355,2376,2397,2415,2435,2456,2477,2495,2515,2535,2556,2576,2596,2616,2636,2655,2676],"xSR":741.5,"ySR":469.95,"xT1":424.9,"yT1":0,"xT2":1058.1,"yT2":0,"toosoon":0,"cond_shown":"Congruent","ratio_trial":100,"L_num":11,"L_den":22,"R_num":6,"R_den":15,"correct_side":1,"subjID":"gabrielbrocherobustillo35","gender":null,"age":"12","school":"cafam","test":{"fix_dur":[250,1500],"timestim":1000,"targets_dim":[100,100],"targets_relative_coord":[0.3,0.7],"size_stim":[880,420],"start_dim":[100,100],"size_start":[300,300],"size_fix":60,"samplingrate":20,"img_types":["Congruent","Incongruent"],"ratios":[100,200,300],"rep_conds":19,"nTrials":120,"trials_to_rest":500,"Trials_order":[18,89,70,50,73,54,79,28,65,41,84,76,30,62,27,15,51,11,58,94,119,2,26,45,63,60,101,82,16,24,111,33,80,20,35,114,13,6,7,17,12,57,46,25,118,85,88,23,47,34,95,40,83,14,69,74,72,66,8,19,37,98,108,9,93,64,110,42,52,49,106,75,96,113,22,102,1,10,115,99,104,81,5,29,90,39,116,48,53,112,105,3,103,36,56,32,67,117,78,43,0,44,55,97,109,86,77,4,38,107,59,21,100,91,87,31,61,71,92,68],"cond_shown":["Congruent","Incongruent","Congruent","Congruent","Incongruent","Congruent","Incongruent","Congruent","Incongruent","Incongruent","Congruent","Congruent","Congruent","Congruent","Incongruent","Incongruent","Incongruent","Incongruent","Congruent","Congruent","Incongruent","Congruent","Congruent","Incongruent","Incongruent","Congruent","Incongruent","Congruent","Congruent","Congruent","Incongruent","Incongruent","Congruent","Congruent","Incongruent","Congruent","Incongruent","Congruent","Incongruent","Incongruent","Congruent","Incongruent","Congruent","Incongruent","Congruent","Incongruent","Congruent","Incongruent","Incongruent","Congruent","Incongruent","Congruent","Incongruent","Congruent","Incongruent","Congruent","Congruent","Congruent","Congruent","Incongruent","Incongruent","Congruent","Congruent","Incongruent","Incongruent","Congruent","Congruent","Congruent","Congruent","Incongruent","Congruent","Incongruent","Congruent","Incongruent","Congruent","Congruent","Incongruent","Congruent","Incongruent","Incongruent","Congruent","Incongruent","Incongruent","Incongruent","Congruent","Incongruent","Congruent","Congruent","Incongruent","Congruent","Incongruent","Incongruent","Incongruent","Congruent","Congruent","Congruent","Incongruent","Incongruent","Congruent","Incongruent","Congruent","Congruent","Incongruent","Incongruent","Incongruent","Congruent","Incongruent","Congruent","Congruent","Incongruent","Incongruent","Incongruent","Congruent","Incongruent","Incongruent","Incongruent","Incongruent","Incongruent","Congruent","Congruent"],"ratio_trial":[100,300,300,200,100,100,100,300,300,300,100,300,100,200,200,200,200,300,300,300,300,200,200,200,200,100,300,300,300,100,200,200,200,200,300,100,100,100,100,300,100,200,300,100,300,100,300,300,300,300,300,300,300,200,200,200,100,100,200,100,100,200,100,200,200,300,200,100,300,100,300,200,100,300,300,100,100,300,100,200,200,200,300,300,100,200,200,100,300,300,200,200,100,100,200,200,100,200,100,100,100,200,100,100,100,200,300,300,200,300,300,200,300,100,200,100,100,300,200,200],"left_num":[11,8,4,7,10,12,6,11,4,4,7,9,3,4,9,1,14,8,1,1,13,8,6,6,1,1,4,4,8,11,4,7,7,13,1,2,9,15,8,4,3,7,2,9,1,12,8,2,3,20,3,4,4,3,4,4,11,8,6,6,13,6,7,7,7,24,6,6,24,4,5,9,9,8,7,11,6,8,13,4,7,7,7,13,4,7,16,3,13,9,4,3,8,7,6,21,10,7,12,12,15,1,13,3,8,20,13,24,8,4,13,14,18,2,4,13,6,1,1,7],"right_num":[6,14,2,18,9,13,13,1,2,2,9,3,4,3,8,2,6,9,3,3,12,3,11,3,2,3,2,1,1,4,6,12,18,14,3,6,20,13,1,2,4,8,10,13,8,9,10,6,4,9,4,2,6,9,6,3,4,2,11,3,6,7,15,6,14,8,11,15,8,8,6,8,8,9,20,4,7,10,6,14,18,6,8,12,6,14,12,4,12,3,1,1,1,15,7,2,8,8,13,2,13,21,12,11,6,9,12,8,3,2,12,12,9,8,1,6,11,3,21,18],"left_den":[22,10,5,15,25,30,10,22,20,20,14,10,20,10,15,3,30,10,5,5,26,15,20,20,3,2,20,10,16,22,5,10,15,26,2,5,10,25,20,20,20,10,20,15,30,24,15,4,6,25,6,5,5,12,5,10,22,16,20,12,26,12,14,15,10,30,20,12,30,8,25,15,15,10,14,22,10,15,26,6,15,15,10,26,8,10,20,20,26,10,30,10,20,14,12,30,25,10,30,30,25,2,26,5,16,25,26,30,15,20,26,30,20,4,30,26,10,2,2,15],"right_den":[15,28,4,27,18,26,26,5,4,4,15,5,16,15,10,15,9,18,6,6,15,9,22,6,15,5,4,10,5,10,10,24,27,20,15,12,25,26,2,4,16,16,25,26,24,15,12,30,20,18,20,4,12,20,10,15,10,5,22,5,10,10,25,9,28,16,22,25,16,20,12,10,16,18,25,10,14,12,10,30,27,9,20,15,10,28,20,16,15,5,3,2,2,25,10,4,16,16,26,4,26,30,20,22,10,15,15,16,9,4,15,18,15,20,3,10,22,15,30,27],"correct_side":[1,1,1,2,2,2,1,1,2,2,2,1,2,1,2,1,2,1,2,2,2,1,2,2,1,2,2,1,1,1,1,1,2,2,1,2,1,1,2,2,2,1,2,1,2,2,2,1,1,1,1,1,1,2,1,1,1,1,2,2,2,2,2,2,1,1,2,2,1,1,2,2,1,1,2,1,1,2,2,1,2,2,1,2,2,1,1,2,2,1,2,2,2,2,2,1,2,1,2,2,1,2,2,1,2,1,2,1,1,2,2,2,1,1,2,2,1,1,2,2],"img_shown":["img2/100/Congruent/L/C_Dist_100_LN_11_LD_22_RN_6_RD_15_0.png","img2/300/Incongruent/L/I_Dist_300_LN_8_LD_10_RN_14_RD_28_0.png","img2/300/Congruent/L/C_Dist_300_LN_4_LD_5_RN_2_RD_4_0.png","img2/200/Congruent/R/C_Dist_200_LN_7_LD_15_RN_18_RD_27_1.png","img2/100/Incongruent/R/I_Dist_100_LN_10_LD_25_RN_9_RD_18_1.png","img2/100/Congruent/R/C_Dist_100_LN_12_LD_30_RN_13_RD_26_1.png","img2/100/Incongruent/L/I_Dist_100_LN_6_LD_10_RN_13_RD_26_0.png","img2/300/Congruent/L/C_Dist_300_LN_11_LD_22_RN_1_RD_5_0.png","img2/300/Incongruent/R/I_Dist_300_LN_4_LD_20_RN_2_RD_4_1.png","img2/300/Incongruent/R/I_Dist_300_LN_4_LD_20_RN_2_RD_4_1.png","img2/100/Congruent/R/C_Dist_100_LN_7_LD_14_RN_9_RD_15_1.png","img2/300/Congruent/L/C_Dist_300_LN_9_LD_10_RN_3_RD_5_0.png","img2/100/Congruent/R/C_Dist_100_LN_3_LD_20_RN_4_RD_16_1.png","img2/200/Congruent/L/C_Dist_200_LN_4_LD_10_RN_3_RD_15_0.png","img2/200/Incongruent/R/I_Dist_200_LN_9_LD_15_RN_8_RD_10_1.png","img2/200/Incongruent/L/I_Dist_200_LN_1_LD_3_RN_2_RD_15_0.png","img2/200/Incongruent/R/I_Dist_200_LN_14_LD_30_RN_6_RD_9_1.png","img2/300/Incongruent/L/I_Dist_300_LN_8_LD_10_RN_9_RD_18_0.png","img2/300/Congruent/R/C_Dist_300_LN_1_LD_5_RN_3_RD_6_1.png","img2/300/Congruent/R/C_Dist_300_LN_1_LD_5_RN_3_RD_6_1.png","img2/300/Incongruent/R/I_Dist_300_LN_13_LD_26_RN_12_RD_15_1.png","img2/200/Congruent/L/C_Dist_200_LN_8_LD_15_RN_3_RD_9_0.png","img2/200/Congruent/R/C_Dist_200_LN_6_LD_20_RN_11_RD_22_1.png","img2/200/Incongruent/R/I_Dist_200_LN_6_LD_20_RN_3_RD_6_1.png","img2/200/Incongruent/L/I_Dist_200_LN_1_LD_3_RN_2_RD_15_0.png","img2/100/Congruent/R/C_Dist_100_LN_1_LD_2_RN_3_RD_5_1.png","img2/300/Incongruent/R/I_Dist_300_LN_4_LD_20_RN_2_RD_4_1.png","img2/300/Congruent/L/C_Dist_300_LN_4_LD_10_RN_1_RD_10_0.png","img2/300/Congruent/L/C_Dist_300_LN_8_LD_16_RN_1_RD_5_0.png","img2/100/Congruent/L/C_Dist_100_LN_11_LD_22_RN_4_RD_10_0.png","img2/200/Incongruent/L/I_Dist_200_LN_4_LD_5_RN_6_RD_10_0.png","img2/200/Incongruent/L/I_Dist_200_LN_7_LD_10_RN_12_RD_24_0.png","img2/200/Congruent/R/C_Dist_200_LN_7_LD_15_RN_18_RD_27_1.png","img2/200/Congruent/R/C_Dist_200_LN_13_LD_26_RN_14_RD_20_1.png","img2/300/Incongruent/L/I_Dist_300_LN_1_LD_2_RN_3_RD_15_0.png","img2/100/Congruent/R/C_Dist_100_LN_2_LD_5_RN_6_RD_12_1.png","img2/100/Incongruent/L/I_Dist_100_LN_9_LD_10_RN_20_RD_25_0.png","img2/100/Congruent/L/C_Dist_100_LN_15_LD_25_RN_13_RD_26_0.png","img2/100/Incongruent/R/I_Dist_100_LN_8_LD_20_RN_1_RD_2_1.png","img2/300/Incongruent/R/I_Dist_300_LN_4_LD_20_RN_2_RD_4_1.png","img2/100/Congruent/R/C_Dist_100_LN_3_LD_20_RN_4_RD_16_1.png","img2/200/Incongruent/L/I_Dist_200_LN_7_LD_10_RN_8_RD_16_0.png","img2/300/Congruent/R/C_Dist_300_LN_2_LD_20_RN_10_RD_25_1.png","img2/100/Incongruent/L/I_Dist_100_LN_9_LD_15_RN_13_RD_26_0.png","img2/300/Congruent/R/C_Dist_300_LN_1_LD_30_RN_8_RD_24_1.png","img2/100/Incongruent/R/I_Dist_100_LN_12_LD_24_RN_9_RD_15_1.png","img2/300/Congruent/R/C_Dist_300_LN_8_LD_15_RN_10_RD_12_1.png","img2/300/Incongruent/L/I_Dist_300_LN_2_LD_4_RN_6_RD_30_0.png","img2/300/Incongruent/L/I_Dist_300_LN_3_LD_6_RN_4_RD_20_0.png","img2/300/Congruent/L/C_Dist_300_LN_20_LD_25_RN_9_RD_18_0.png","img2/300/Incongruent/L/I_Dist_300_LN_3_LD_6_RN_4_RD_20_0.png","img2/300/Congruent/L/C_Dist_300_LN_4_LD_5_RN_2_RD_4_0.png","img2/300/Incongruent/L/I_Dist_300_LN_4_LD_5_RN_6_RD_12_0.png","img2/200/Congruent/R/C_Dist_200_LN_3_LD_12_RN_9_RD_20_1.png","img2/200/Incongruent/L/I_Dist_200_LN_4_LD_5_RN_6_RD_10_0.png","img2/200/Congruent/L/C_Dist_200_LN_4_LD_10_RN_3_RD_15_0.png","img2/100/Congruent/L/C_Dist_100_LN_11_LD_22_RN_4_RD_10_0.png","img2/100/Congruent/L/C_Dist_100_LN_8_LD_16_RN_2_RD_5_0.png","img2/200/Congruent/R/C_Dist_200_LN_6_LD_20_RN_11_RD_22_1.png","img2/100/Incongruent/R/I_Dist_100_LN_6_LD_12_RN_3_RD_5_1.png","img2/100/Incongruent/R/I_Dist_100_LN_13_LD_26_RN_6_RD_10_1.png","img2/200/Congruent/R/C_Dist_200_LN_6_LD_12_RN_7_RD_10_1.png","img2/100/Congruent/R/C_Dist_100_LN_7_LD_14_RN_15_RD_25_1.png","img2/200/Incongruent/R/I_Dist_200_LN_7_LD_15_RN_6_RD_9_1.png","img2/200/Incongruent/L/I_Dist_200_LN_7_LD_10_RN_14_RD_28_0.png","img2/300/Congruent/L/C_Dist_300_LN_24_LD_30_RN_8_RD_16_0.png","img2/200/Congruent/R/C_Dist_200_LN_6_LD_20_RN_11_RD_22_1.png","img2/100/Congruent/R/C_Dist_100_LN_6_LD_12_RN_15_RD_25_1.png","img2/300/Congruent/L/C_Dist_300_LN_24_LD_30_RN_8_RD_16_0.png","img2/100/Incongruent/L/I_Dist_100_LN_4_LD_8_RN_8_RD_20_0.png","img2/300/Congruent/R/C_Dist_300_LN_5_LD_25_RN_6_RD_12_1.png","img2/200/Incongruent/R/I_Dist_200_LN_9_LD_15_RN_8_RD_10_1.png","img2/100/Congruent/L/C_Dist_100_LN_9_LD_15_RN_8_RD_16_0.png","img2/300/Incongruent/L/I_Dist_300_LN_8_LD_10_RN_9_RD_18_0.png","img2/300/Congruent/R/C_Dist_300_LN_7_LD_14_RN_20_RD_25_1.png","img2/100/Congruent/L/C_Dist_100_LN_11_LD_22_RN_4_RD_10_0.png","img2/100/Incongruent/L/I_Dist_100_LN_6_LD_10_RN_7_RD_14_0.png","img2/300/Congruent/R/C_Dist_300_LN_8_LD_15_RN_10_RD_12_1.png","img2/100/Incongruent/R/I_Dist_100_LN_13_LD_26_RN_6_RD_10_1.png","img2/200/Incongruent/L/I_Dist_200_LN_4_LD_6_RN_14_RD_30_0.png","img2/200/Congruent/R/C_Dist_200_LN_7_LD_15_RN_18_RD_27_1.png","img2/200/Incongruent/R/I_Dist_200_LN_7_LD_15_RN_6_RD_9_1.png","img2/300/Incongruent/L/I_Dist_300_LN_7_LD_10_RN_8_RD_20_0.png","img2/300/Incongruent/R/I_Dist_300_LN_13_LD_26_RN_12_RD_15_1.png","img2/100/Congruent/R/C_Dist_100_LN_4_LD_8_RN_6_RD_10_1.png","img2/200/Incongruent/L/I_Dist_200_LN_7_LD_10_RN_14_RD_28_0.png","img2/200/Congruent/L/C_Dist_200_LN_16_LD_20_RN_12_RD_20_0.png","img2/100/Congruent/R/C_Dist_100_LN_3_LD_20_RN_4_RD_16_1.png","img2/300/Incongruent/R/I_Dist_300_LN_13_LD_26_RN_12_RD_15_1.png","img2/300/Congruent/L/C_Dist_300_LN_9_LD_10_RN_3_RD_5_0.png","img2/200/Incongruent/R/I_Dist_200_LN_4_LD_30_RN_1_RD_3_1.png","img2/200/Incongruent/R/I_Dist_200_LN_3_LD_10_RN_1_RD_2_1.png","img2/100/Incongruent/R/I_Dist_100_LN_8_LD_20_RN_1_RD_2_1.png","img2/100/Congruent/R/C_Dist_100_LN_7_LD_14_RN_15_RD_25_1.png","img2/200/Congruent/R/C_Dist_200_LN_6_LD_12_RN_7_RD_10_1.png","img2/200/Congruent/L/C_Dist_200_LN_21_LD_30_RN_2_RD_4_0.png","img2/100/Incongruent/R/I_Dist_100_LN_10_LD_25_RN_8_RD_16_1.png","img2/200/Incongruent/L/I_Dist_200_LN_7_LD_10_RN_8_RD_16_0.png","img2/100/Congruent/R/C_Dist_100_LN_12_LD_30_RN_13_RD_26_1.png","img2/100/Incongruent/R/I_Dist_100_LN_12_LD_30_RN_2_RD_4_1.png","img2/100/Congruent/L/C_Dist_100_LN_15_LD_25_RN_13_RD_26_0.png","img2/200/Congruent/R/C_Dist_200_LN_1_LD_2_RN_21_RD_30_1.png","img2/100/Incongruent/R/I_Dist_100_LN_13_LD_26_RN_12_RD_20_1.png","img2/100/Incongruent/L/I_Dist_100_LN_3_LD_5_RN_11_RD_22_0.png","img2/100/Incongruent/R/I_Dist_100_LN_8_LD_16_RN_6_RD_10_1.png","img2/200/Congruent/L/C_Dist_200_LN_20_LD_25_RN_9_RD_15_0.png","img2/300/Incongruent/R/I_Dist_300_LN_13_LD_26_RN_12_RD_15_1.png","img2/300/Congruent/L/C_Dist_300_LN_24_LD_30_RN_8_RD_16_0.png","img2/200/Congruent/L/C_Dist_200_LN_8_LD_15_RN_3_RD_9_0.png","img2/300/Incongruent/R/I_Dist_300_LN_4_LD_20_RN_2_RD_4_1.png","img2/300/Incongruent/R/I_Dist_300_LN_13_LD_26_RN_12_RD_15_1.png","img2/200/Incongruent/R/I_Dist_200_LN_14_LD_30_RN_12_RD_18_1.png","img2/300/Congruent/L/C_Dist_300_LN_18_LD_20_RN_9_RD_15_0.png","img2/100/Incongruent/L/I_Dist_100_LN_2_LD_4_RN_8_RD_20_0.png","img2/200/Incongruent/R/I_Dist_200_LN_4_LD_30_RN_1_RD_3_1.png","img2/100/Incongruent/R/I_Dist_100_LN_13_LD_26_RN_6_RD_10_1.png","img2/100/Incongruent/L/I_Dist_100_LN_6_LD_10_RN_11_RD_22_0.png","img2/300/Incongruent/L/I_Dist_300_LN_1_LD_2_RN_3_RD_15_0.png","img2/200/Congruent/R/C_Dist_200_LN_1_LD_2_RN_21_RD_30_1.png","img2/200/Congruent/R/C_Dist_200_LN_7_LD_15_RN_18_RD_27_1.png"],"dist100_C":[["C_Dist_100_LN_10_LD_25_RN_3_RD_10_0.png","C_Dist_100_LN_11_LD_22_RN_4_RD_10_0.png","C_Dist_100_LN_11_LD_22_RN_6_RD_15_0.png","C_Dist_100_LN_15_LD_25_RN_13_RD_26_0.png","C_Dist_100_LN_3_LD_6_RN_2_RD_5_0.png","C_Dist_100_LN_6_LD_20_RN_5_RD_25_0.png","C_Dist_100_LN_8_LD_16_RN_2_RD_5_0.png","C_Dist_100_LN_9_LD_15_RN_8_RD_16_0.png"],["C_Dist_100_LN_1_LD_2_RN_18_RD_30_1.png","C_Dist_100_LN_1_LD_2_RN_3_RD_5_1.png","C_Dist_100_LN_12_LD_30_RN_13_RD_26_1.png","C_Dist_100_LN_2_LD_5_RN_11_RD_22_1.png","C_Dist_100_LN_2_LD_5_RN_6_RD_12_1.png","C_Dist_100_LN_3_LD_20_RN_4_RD_16_1.png","C_Dist_100_LN_4_LD_10_RN_15_RD_30_1.png","C_Dist_100_LN_4_LD_8_RN_6_RD_10_1.png","C_Dist_100_LN_6_LD_12_RN_15_RD_25_1.png","C_Dist_100_LN_7_LD_14_RN_15_RD_25_1.png","C_Dist_100_LN_7_LD_14_RN_9_RD_15_1.png"]],"dist100_I":[["I_Dist_100_LN_1_LD_2_RN_8_RD_20_0.png","I_Dist_100_LN_2_LD_4_RN_6_RD_15_0.png","I_Dist_100_LN_2_LD_4_RN_8_RD_20_0.png","I_Dist_100_LN_3_LD_5_RN_11_RD_22_0.png","I_Dist_100_LN_3_LD_5_RN_8_RD_16_0.png","I_Dist_100_LN_3_LD_6_RN_4_RD_10_0.png","I_Dist_100_LN_3_LD_9_RN_7_RD_30_0.png","I_Dist_100_LN_4_LD_8_RN_8_RD_20_0.png","I_Dist_100_LN_6_LD_10_RN_11_RD_22_0.png","I_Dist_100_LN_6_LD_10_RN_13_RD_26_0.png","I_Dist_100_LN_6_LD_10_RN_7_RD_14_0.png","I_Dist_100_LN_9_LD_10_RN_20_RD_25_0.png","I_Dist_100_LN_9_LD_15_RN_13_RD_26_0.png","I_Dist_100_LN_9_LD_15_RN_14_RD_28_0.png"],["I_Dist_100_LN_10_LD_25_RN_8_RD_16_1.png","I_Dist_100_LN_10_LD_25_RN_9_RD_18_1.png","I_Dist_100_LN_11_LD_22_RN_9_RD_15_1.png","I_Dist_100_LN_12_LD_24_RN_9_RD_15_1.png","I_Dist_100_LN_12_LD_30_RN_2_RD_4_1.png","I_Dist_100_LN_13_LD_26_RN_12_RD_20_1.png","I_Dist_100_LN_13_LD_26_RN_6_RD_10_1.png","I_Dist_100_LN_17_LD_30_RN_10_RD_15_1.png","I_Dist_100_LN_6_LD_12_RN_3_RD_5_1.png","I_Dist_100_LN_8_LD_16_RN_6_RD_10_1.png","I_Dist_100_LN_8_LD_20_RN_1_RD_2_1.png","I_Dist_100_LN_9_LD_18_RN_6_RD_10_1.png"]],"dist100_S":[["E_Dist_100_LN_2_LD_12_RN_2_RD_30_0.png","E_Dist_100_LN_6_LD_10_RN_6_RD_12_0.png"],["E_Dist_100_LN_6_LD_12_RN_6_RD_10_1.png"]],"dist200_C":[["C_Dist_200_LN_11_LD_22_RN_3_RD_10_0.png","C_Dist_200_LN_12_LD_15_RN_6_RD_10_0.png","C_Dist_200_LN_12_LD_20_RN_6_RD_15_0.png","C_Dist_200_LN_14_LD_28_RN_6_RD_20_0.png","C_Dist_200_LN_15_LD_25_RN_4_RD_10_0.png","C_Dist_200_LN_16_LD_20_RN_12_RD_20_0.png","C_Dist_200_LN_16_LD_30_RN_9_RD_27_0.png","C_Dist_200_LN_20_LD_25_RN_9_RD_15_0.png","C_Dist_200_LN_21_LD_30_RN_2_RD_4_0.png","C_Dist_200_LN_4_LD_10_RN_3_RD_15_0.png","C_Dist_200_LN_4_LD_8_RN_3_RD_10_0.png","C_Dist_200_LN_6_LD_15_RN_3_RD_15_0.png","C_Dist_200_LN_7_LD_21_RN_2_RD_15_0.png","C_Dist_200_LN_8_LD_15_RN_2_RD_6_0.png","C_Dist_200_LN_8_LD_15_RN_3_RD_9_0.png","C_Dist_200_LN_8_LD_15_RN_7_RD_21_0.png","C_Dist_200_LN_9_LD_20_RN_4_RD_16_0.png"],["C_Dist_200_LN_1_LD_2_RN_21_RD_30_1.png","C_Dist_200_LN_13_LD_26_RN_14_RD_20_1.png","C_Dist_200_LN_3_LD_10_RN_11_RD_22_1.png","C_Dist_200_LN_3_LD_10_RN_14_RD_28_1.png","C_Dist_200_LN_3_LD_10_RN_7_RD_14_1.png","C_Dist_200_LN_3_LD_12_RN_9_RD_20_1.png","C_Dist_200_LN_3_LD_6_RN_14_RD_20_1.png","C_Dist_200_LN_5_LD_10_RN_14_RD_20_1.png","C_Dist_200_LN_6_LD_12_RN_7_RD_10_1.png","C_Dist_200_LN_6_LD_20_RN_11_RD_22_1.png","C_Dist_200_LN_7_LD_15_RN_18_RD_27_1.png","C_Dist_200_LN_9_LD_30_RN_13_RD_26_1.png"]],"dist200_I":[["I_Dist_200_LN_1_LD_2_RN_3_RD_10_0.png","I_Dist_200_LN_1_LD_3_RN_2_RD_15_0.png","I_Dist_200_LN_3_LD_4_RN_11_RD_20_0.png","I_Dist_200_LN_4_LD_5_RN_6_RD_10_0.png","I_Dist_200_LN_4_LD_6_RN_14_RD_30_0.png","I_Dist_200_LN_7_LD_10_RN_12_RD_24_0.png","I_Dist_200_LN_7_LD_10_RN_14_RD_28_0.png","I_Dist_200_LN_7_LD_10_RN_8_RD_16_0.png"],["I_Dist_200_LN_11_LD_20_RN_3_RD_4_1.png","I_Dist_200_LN_14_LD_30_RN_12_RD_18_1.png","I_Dist_200_LN_14_LD_30_RN_6_RD_9_1.png","I_Dist_200_LN_3_LD_10_RN_1_RD_2_1.png","I_Dist_200_LN_4_LD_30_RN_1_RD_3_1.png","I_Dist_200_LN_6_LD_20_RN_3_RD_6_1.png","I_Dist_200_LN_7_LD_15_RN_4_RD_6_1.png","I_Dist_200_LN_7_LD_15_RN_6_RD_9_1.png","I_Dist_200_LN_9_LD_15_RN_8_RD_10_1.png"]],"dist200_S":[["E_Dist_200_LN_3_LD_6_RN_3_RD_10_0.png"],["E_Dist_200_LN_3_LD_10_RN_3_RD_6_1.png"]],"dist300_C":[["C_Dist_300_LN_11_LD_22_RN_1_RD_5_0.png","C_Dist_300_LN_11_LD_22_RN_2_RD_10_0.png","C_Dist_300_LN_11_LD_22_RN_4_RD_20_0.png","C_Dist_300_LN_12_LD_24_RN_2_RD_10_0.png","C_Dist_300_LN_18_LD_20_RN_9_RD_15_0.png","C_Dist_300_LN_20_LD_25_RN_13_RD_26_0.png","C_Dist_300_LN_20_LD_25_RN_14_RD_28_0.png","C_Dist_300_LN_20_LD_25_RN_5_RD_10_0.png","C_Dist_300_LN_20_LD_25_RN_8_RD_16_0.png","C_Dist_300_LN_20_LD_25_RN_9_RD_18_0.png","C_Dist_300_LN_24_LD_30_RN_2_RD_4_0.png","C_Dist_300_LN_24_LD_30_RN_8_RD_16_0.png","C_Dist_300_LN_3_LD_6_RN_2_RD_10_0.png","C_Dist_300_LN_4_LD_10_RN_1_RD_10_0.png","C_Dist_300_LN_4_LD_5_RN_2_RD_4_0.png","C_Dist_300_LN_8_LD_16_RN_1_RD_5_0.png","C_Dist_300_LN_9_LD_10_RN_3_RD_5_0.png"],["C_Dist_300_LN_1_LD_20_RN_7_RD_20_1.png","C_Dist_300_LN_1_LD_3_RN_19_RD_30_1.png","C_Dist_300_LN_1_LD_30_RN_8_RD_24_1.png","C_Dist_300_LN_1_LD_5_RN_11_RD_22_1.png","C_Dist_300_LN_1_LD_5_RN_3_RD_6_1.png","C_Dist_300_LN_1_LD_5_RN_6_RD_12_1.png","C_Dist_300_LN_2_LD_10_RN_12_RD_24_1.png","C_Dist_300_LN_2_LD_20_RN_10_RD_25_1.png","C_Dist_300_LN_3_LD_12_RN_11_RD_20_1.png","C_Dist_300_LN_3_LD_6_RN_4_RD_5_1.png","C_Dist_300_LN_4_LD_20_RN_13_RD_26_1.png","C_Dist_300_LN_5_LD_25_RN_6_RD_12_1.png","C_Dist_300_LN_5_LD_25_RN_7_RD_14_1.png","C_Dist_300_LN_7_LD_14_RN_20_RD_25_1.png","C_Dist_300_LN_8_LD_15_RN_10_RD_12_1.png"]],"dist300_I":[["I_Dist_300_LN_1_LD_2_RN_2_RD_10_0.png","I_Dist_300_LN_1_LD_2_RN_3_RD_15_0.png","I_Dist_300_LN_2_LD_4_RN_6_RD_30_0.png","I_Dist_300_LN_3_LD_6_RN_4_RD_20_0.png","I_Dist_300_LN_4_LD_5_RN_6_RD_12_0.png","I_Dist_300_LN_4_LD_5_RN_8_RD_16_0.png","I_Dist_300_LN_7_LD_10_RN_8_RD_20_0.png","I_Dist_300_LN_8_LD_10_RN_14_RD_28_0.png","I_Dist_300_LN_8_LD_10_RN_9_RD_18_0.png"],["I_Dist_300_LN_13_LD_26_RN_12_RD_15_1.png","I_Dist_300_LN_4_LD_20_RN_2_RD_4_1.png"]],"dist300_S":[["E_Dist_300_LN_9_LD_12_RN_9_RD_20_0.png"],["E_Dist_300_LN_18_LD_30_RN_18_RD_20_1.png","E_Dist_300_LN_3_LD_10_RN_3_RD_5_1.png","E_Dist_300_LN_9_LD_20_RN_9_RD_12_1.png"]],"dist500_C":[["C_Dist_500_LN_10_LD_13_RN_7_RD_26_0.png","C_Dist_500_LN_10_LD_15_RN_4_RD_24_0.png","C_Dist_500_LN_12_LD_16_RN_3_RD_12_0.png","C_Dist_500_LN_12_LD_18_RN_4_RD_24_0.png","C_Dist_500_LN_15_LD_18_RN_5_RD_15_0.png","C_Dist_500_LN_15_LD_20_RN_1_RD_4_0.png","C_Dist_500_LN_18_LD_27_RN_1_RD_6_0.png","C_Dist_500_LN_20_LD_24_RN_1_RD_3_0.png","C_Dist_500_LN_20_LD_24_RN_3_RD_9_0.png","C_Dist_500_LN_20_LD_24_RN_7_RD_21_0.png","C_Dist_500_LN_20_LD_28_RN_3_RD_14_0.png","C_Dist_500_LN_21_LD_28_RN_6_RD_24_0.png","C_Dist_500_LN_22_LD_28_RN_2_RD_7_0.png","C_Dist_500_LN_25_LD_30_RN_9_RD_27_0.png","C_Dist_500_LN_4_LD_6_RN_1_RD_6_0.png","C_Dist_500_LN_5_LD_6_RN_2_RD_6_0.png","C_Dist_500_LN_6_LD_9_RN_1_RD_6_0.png","C_Dist_500_LN_7_LD_10_RN_1_RD_5_0.png","C_Dist_500_LN_8_LD_12_RN_1_RD_6_0.png","C_Dist_500_LN_8_LD_12_RN_4_RD_24_0.png"],["C_Dist_500_LN_1_LD_4_RN_12_RD_16_1.png","C_Dist_500_LN_1_LD_4_RN_9_RD_12_1.png","C_Dist_500_LN_1_LD_9_RN_11_RD_18_1.png","C_Dist_500_LN_10_LD_24_RN_22_RD_24_1.png","C_Dist_500_LN_2_LD_12_RN_10_RD_15_1.png","C_Dist_500_LN_2_LD_12_RN_12_RD_18_1.png","C_Dist_500_LN_2_LD_12_RN_4_RD_6_1.png","C_Dist_500_LN_2_LD_24_RN_7_RD_12_1.png","C_Dist_500_LN_2_LD_5_RN_18_RD_20_1.png","C_Dist_500_LN_2_LD_5_RN_9_RD_10_1.png","C_Dist_500_LN_2_LD_8_RN_12_RD_16_1.png","C_Dist_500_LN_2_LD_8_RN_21_RD_28_1.png","C_Dist_500_LN_3_LD_10_RN_4_RD_5_1.png","C_Dist_500_LN_3_LD_12_RN_15_RD_20_1.png","C_Dist_500_LN_3_LD_30_RN_6_RD_10_1.png","C_Dist_500_LN_3_LD_8_RN_14_RD_16_1.png","C_Dist_500_LN_4_LD_16_RN_15_RD_20_1.png","C_Dist_500_LN_4_LD_24_RN_12_RD_18_1.png","C_Dist_500_LN_5_LD_14_RN_6_RD_7_1.png","C_Dist_500_LN_7_LD_21_RN_20_RD_24_1.png","C_Dist_500_LN_7_LD_28_RN_12_RD_16_1.png","C_Dist_500_LN_7_LD_28_RN_9_RD_12_1.png","C_Dist_500_LN_9_LD_27_RN_20_RD_24_1.png"]],"dist500_I":[["I_Dist_500_LN_2_LD_3_RN_4_RD_24_0.png","I_Dist_500_LN_5_LD_6_RN_6_RD_18_0.png","I_Dist_500_LN_7_LD_8_RN_9_RD_24_0.png"],["I_Dist_500_LN_7_LD_21_RN_5_RD_6_1.png"]],"dist500_S":[["E_Dist_500_LN_6_LD_8_RN_6_RD_24_0.png"],["E_Dist_500_LN_2_LD_12_RN_2_RD_3_1.png","E_Dist_500_LN_6_LD_24_RN_6_RD_8_1.png"]]}},{"start_time":1551886919116,"click_time":1551886920113,"finger_time":1551886919172,"fix_duration":343.2361197070068,"trial":1,"RT":56,"MT":941,"sideResp":1,"stimulus":[],"xmouse":[802,802,756,676,652,648,653,663,675,677,677,677,677,677,678,671,671,681,713,759,789,814,814,814,816,820,820,808,805,805,799,783,769,747,700,615,396,330,323,323,323,323,323,323,323,323,327,348,378,428],"ymouse":[560,554,428,314,283,253,237,225,217,215,215,215,215,215,215,238,250,265,275,279,283,288,288,288,284,271,213,187,164,153,117,90,82,79,72,59,28,18,17,17,17,17,17,17,17,17,17,18,22,33],"timestamp_mouse":[17,36,56,77,96,117,136,156,176,196,216,236,256,276,295,316,335,357,376,396,416,435,457,476,496,517,535,557,577,596,617,635,657,675,696,716,735,757,776,797,816,835,856,877,897,917,935,955,975,997],"xSR":741.5,"ySR":501.8,"xT1":424.9,"yT1":0,"xT2":1058.1,"yT2":0,"toosoon":0,"cond_shown":"Incongruent","ratio_trial":300,"L_num":8,"L_den":10,"R_num":14,"R_den":28,"correct_side":1,"subjID":"gabrielbrocherobustillo35","gender":null,"school":"cafam","age":"12"},{"start_time":1551886927945,"click_time":1551886931573,"finger_time":1551886929051,"fix_duration":410.41653311850035,"trial":2,"RT":1106,"MT":2522,"sideResp":1,"stimulus":[],"xmouse":[833,833,833,833,833,833,833,833,833,833,833,833,833,833,833,833,833,833,832,831,830,830,830,830,830,830,830,830,830,830,830,830,830,830,830,830,830,830,830,830,830,830,830,830,830,830,830,830,830,830,829,829,829,830,830,832,842,856,865,876,884,887,887,887,889,889,887,878,870,861,841,839,838,838,834,824,824,823,826,829,829,829,829,829,829,829,829,829,829,825,819,816,815,815,815,815,815,815,815,815,814,813,813,813,813,813,813,813,813,813,813,813,813,813,813,813,813,813,813,813,813,813,813,813,811,810,810,810,810,810,810,810,810,810,810,810,810,810,810,810,810,810,810,810,810,810,810,810,810,810,810,810,810,810,810,810,810,810,810,810,810,810,792,765,736,708,692,685,677,668,657,652,650,649,646,638,618,597,571,544,512,504],"ymouse":[530,530,530,530,530,530,530,530,530,530,530,530,530,530,530,530,530,530,529,529,528,528,528,528,528,528,528,528,528,528,528,528,528,528,528,528,528,528,528,528,528,528,528,528,528,528,528,528,528,528,519,506,503,502,502,501,496,492,487,458,435,424,419,414,405,375,361,344,330,318,293,292,291,291,305,392,463,523,555,565,567,567,567,567,567,567,567,567,568,559,548,543,542,542,542,542,542,542,542,542,542,542,542,542,542,542,542,542,542,542,542,542,542,542,542,542,542,542,542,542,542,542,542,542,542,539,539,539,539,539,539,539,539,539,539,539,539,539,539,539,539,539,539,539,539,539,539,539,539,539,539,539,539,539,539,539,539,539,539,539,539,538,496,451,384,322,294,277,257,238,214,203,199,197,194,187,177,164,146,128,102,96],"timestamp_mouse":[10,32,47,68,87,107,126,147,168,186,206,227,248,267,288,306,327,347,366,387,407,427,447,467,487,507,527,546,567,586,608,627,647,666,687,706,728,746,767,787,807,828,847,867,887,910,926,947,966,986,1007,1027,1046,1067,1087,1106,1127,1146,1167,1188,1207,1226,1247,1266,1286,1306,1328,1346,1368,1387,1407,1426,1447,1466,1487,1506,1527,1547,1568,1586,1606,1626,1646,1667,1686,1708,1727,1748,1767,1788,1807,1827,1848,1866,1888,1907,1927,1946,1968,1986,2006,2027,2047,2066,2087,2106,2128,2146,2166,2187,2206,2227,2246,2267,2288,2306,2328,2346,2366,2387,2406,2428,2446,2467,2487,2506,2527,2548,2567,2587,2608,2628,2646,2667,2687,2706,2727,2747,2766,2788,2807,2828,2848,2866,2886,2907,2927,2946,2966,2988,3006,3028,3046,3066,3086,3106,3127,3146,3166,3187,3206,3228,3248,3267,3288,3306,3328,3348,3367,3386,3407,3426,3446,3467,3488,3506,3527,3546,3566,3587,3606,3628],"xSR":741.5,"ySR":501.8,"xT1":424.9,"yT1":0,"xT2":1058.1,"yT2":0,"toosoon":0,"cond_shown":"Congruent","ratio_trial":300,"L_num":4,"L_den":5,"R_num":2,"R_den":4,"correct_side":1,"subjID":"gabrielbrocherobustillo35","gender":null,"school":"cafam","age":"12"},{"start_time":1551886935060,"click_time":1551886936973,"finger_time":1551886936693,"fix_duration":1426.748078231243,"trial":3,"RT":1633,"MT":280,"sideResp":2,"stimulus":[],"xmouse":[813,813,813,813,813,813,813,813,813,813,813,813,813,813,813,813,813,813,813,813,813,813,813,813,813,813,813,813,813,813,813,813,813,813,813,813,813,813,813,813,813,813,813,813,813,813,813,813,813,813,813,813,813,813,813,813,813,813,813,813,813,813,813,813,813,813,813,813,813,813,813,813,813,813,813,813,813,813,813,813,831,856,873,891,906,930,971,992,1024,1040,1049,1056,1060,1064,1074,1081],"ymouse":[558,558,558,558,558,558,558,558,558,558,558,558,558,558,558,558,558,558,558,558,558,558,558,558,558,558,558,558,558,558,558,558,558,558,558,558,558,558,558,558,558,558,558,558,558,558,558,558,558,558,558,558,558,558,558,558,558,558,558,558,558,558,558,558,558,558,558,558,558,558,558,558,558,558,558,558,558,558,558,558,543,526,508,480,456,420,365,330,251,194,171,150,133,122,100,86],"timestamp_mouse":[12,35,53,73,92,111,131,152,172,191,211,232,251,271,292,311,332,352,372,392,411,432,452,471,492,511,533,551,573,592,611,632,651,672,692,712,732,753,771,792,811,832,853,871,891,912,932,951,973,991,1012,1032,1051,1072,1092,1111,1132,1153,1172,1192,1212,1231,1251,1271,1291,1312,1333,1351,1373,1393,1413,1433,1453,1473,1493,1512,1533,1553,1572,1592,1613,1633,1653,1673,1692,1712,1732,1752,1773,1791,1811,1833,1853,1873,1892,1913],"xSR":741.5,"ySR":501.8,"xT1":424.9,"yT1":0,"xT2":1058.1,"yT2":0,"toosoon":0,"cond_shown":"Congruent","ratio_trial":200,"L_num":7,"L_den":15,"R_num":18,"R_den":27,"correct_side":2,"subjID":"gabrielbrocherobustillo35","gender":null,"school":"cafam","age":"12"},{"start_time":1551886940119,"click_time":1551886941952,"finger_time":1551886941653,"fix_duration":1385.0225236349454,"trial":4,"RT":1534,"MT":299,"sideResp":2,"stimulus":[],"xmouse":[824,824,824,824,824,824,824,824,824,824,824,824,824,824,824,824,824,824,824,824,824,824,824,824,824,824,824,824,824,824,824,824,824,824,824,824,824,824,824,824,824,824,824,824,824,824,824,824,824,824,824,824,824,824,824,824,824,824,824,824,824,824,824,824,824,824,824,824,824,824,824,824,824,824,824,838,898,918,935,953,1000,1029,1038,1047,1050,1056,1060,1062,1063,1064,1068,1070],"ymouse":[529,529,529,529,529,529,529,529,529,529,529,529,529,529,529,529,529,529,529,529,529,529,529,529,529,529,529,529,529,529,529,529,529,529,529,529,529,529,529,529,529,529,529,529,529,529,529,529,529,529,529,529,529,529,529,529,529,529,529,529,529,529,529,529,529,529,529,529,529,529,529,529,529,529,527,507,420,389,365,333,248,190,174,160,151,136,126,119,117,112,103,98],"timestamp_mouse":[14,34,53,72,92,114,133,153,173,193,213,232,252,274,293,313,333,353,372,392,414,433,452,473,494,514,532,552,574,593,614,632,653,673,694,713,733,752,774,793,813,832,852,873,894,912,933,953,973,992,1012,1033,1053,1074,1094,1113,1134,1154,1172,1192,1213,1233,1253,1273,1292,1313,1334,1353,1373,1394,1412,1432,1454,1474,1493,1512,1534,1553,1572,1593,1614,1632,1652,1672,1693,1714,1732,1752,1772,1793,1814,1832],"xSR":741.5,"ySR":501.8,"xT1":424.9,"yT1":0,"xT2":1058.1,"yT2":0,"toosoon":0,"cond_shown":"Incongruent","ratio_trial":100,"L_num":10,"L_den":25,"R_num":9,"R_den":18,"correct_side":2,"subjID":"gabrielbrocherobustillo35","gender":null,"school":"cafam","age":"12"},{"start_time":1551887234288,"click_time":1551887242516,"finger_time":1551887242136,"fix_duration":291.99626308527417,"trial":5,"RT":7848,"MT":380,"sideResp":1,"stimulus":[],"xmouse":[790,790,790,790,790,790,790,790,790,790,790,790,790,790,790,790,790,790,790,790,790,790,790,790,790,790,790,790,790,790,790,790,790,790,790,790,790,790,790,790,790,790,790,790,790,790,790,790,790,790,790,790,790,790,790,790,790,790,790,790,790,790,790,790,790,790,790,790,790,790,790,790,790,790,790,790,790,790,790,790,790,790,790,790,790,790,790,790,790,790,790,790,790,790,790,790,790,790,790,790,790,790,790,790,790,790,790,790,790,790,790,790,790,790,790,790,790,790,790,790,790,790,790,790,790,790,790,790,790,790,790,790,790,790,790,790,790,790,790,790,790,790,790,790,790,790,790,790,790,790,790,790,790,790,790,790,790,790,790,790,790,790,790,790,790,790,790,790,790,790,790,790,790,790,790,790,790,790,790,790,790,790,790,790,790,790,790,790,790,790,790,790,790,790,790,790,790,790,790,790,790,790,790,790,790,790,790,790,790,790,790,790,790,790,790,790,790,790,790,790,787,785,785,785,784,786,787,793,804,808,810,810,810,810,810,810,810,810,810,810,810,810,810,810,810,810,810,810,810,810,810,810,810,810,810,810,810,810,810,810,810,810,810,810,810,810,810,810,810,810,810,810,810,810,810,810,810,810,810,810,810,810,810,810,810,810,810,810,810,810,810,810,810,810,810,810,810,810,810,810,810,810,810,810,810,810,810,810,810,810,810,810,810,810,810,810,810,810,810,810,810,810,810,810,810,810,810,810,810,810,810,810,810,810,810,810,810,810,810,810,810,810,810,810,809,809,809,809,807,805,802,802,802,802,802,802,802,802,802,802,802,802,802,802,802,802,806,810,812,812,812,812,812,812,812,812,812,812,812,812,812,812,812,812,812,812,812,809,807,801,794,781,769,749,732,721,714,708,699,696,689,676,641,614,600,592,587,579,563,549,531,516],"ymouse":[569,569,569,569,569,569,569,569,569,569,569,569,569,569,569,569,569,569,569,569,569,569,569,569,569,569,569,569,569,569,569,569,569,569,569,569,569,569,569,569,569,569,569,569,569,569,569,569,569,569,569,569,569,569,569,569,569,569,569,569,569,569,569,569,569,569,569,569,569,569,569,569,569,569,569,569,569,569,569,569,569,569,569,569,569,569,569,569,569,569,569,569,569,569,569,569,569,569,569,569,569,569,569,569,569,569,569,569,569,569,569,569,569,569,569,569,569,569,569,569,569,569,569,569,569,569,569,569,569,569,569,569,569,569,569,569,569,569,569,569,569,569,569,569,569,569,569,569,569,569,569,569,569,569,569,569,569,569,569,569,569,569,569,569,569,569,569,569,569,569,569,569,569,569,569,569,569,569,569,569,569,569,569,569,569,569,569,569,569,569,569,569,569,569,569,569,569,569,569,569,569,569,569,569,569,569,569,569,569,569,569,569,569,569,569,569,569,569,569,569,567,566,566,566,565,563,561,558,550,548,547,547,547,547,545,544,544,544,544,544,544,542,542,542,542,542,542,542,542,542,542,542,542,542,542,542,542,542,542,542,542,542,542,542,542,542,542,542,542,542,542,542,542,542,542,542,542,542,542,542,542,542,542,542,542,542,542,542,542,542,542,542,542,542,542,542,542,542,542,542,542,542,542,542,542,542,542,542,542,542,542,542,542,542,542,542,542,542,542,542,542,542,542,542,542,542,542,542,542,542,542,542,542,542,542,542,542,542,542,542,542,542,542,542,542,542,542,542,535,523,509,507,507,507,507,507,507,507,507,507,507,507,507,507,507,515,538,557,563,564,564,564,564,564,564,564,564,564,564,564,564,564,564,564,564,564,564,562,561,558,550,520,484,455,434,423,416,410,397,392,375,351,298,258,239,228,218,202,162,134,101,66],"timestamp_mouse":[10,27,47,67,87,107,128,148,167,187,207,227,248,266,287,307,327,348,368,387,407,427,447,468,488,507,527,547,567,587,608,627,648,667,687,707,726,747,768,787,806,828,847,868,887,907,928,947,966,987,1008,1027,1047,1067,1087,1107,1127,1147,1168,1187,1207,1227,1248,1266,1287,1308,1328,1348,1368,1388,1407,1427,1448,1467,1487,1507,1527,1547,1567,1588,1607,1626,1648,1667,1687,1708,1727,1747,1768,1786,1808,1827,1847,1867,1888,1907,1927,1948,1968,1987,2007,2028,2047,2067,2088,2106,2128,2147,2167,2187,2208,2227,2248,2267,2286,2306,2328,2347,2367,2388,2407,2427,2448,2468,2488,2508,2527,2547,2567,2586,2608,2628,2647,2668,2687,2707,2727,2748,2767,2786,2808,2827,2848,2867,2887,2907,2927,2948,2967,2988,3007,3027,3048,3066,3088,3108,3128,3147,3168,3187,3207,3228,3247,3267,3287,3307,3328,3348,3368,3388,3407,3427,3448,3467,3487,3508,3528,3548,3566,3588,3607,3627,3648,3667,3688,3708,3727,3748,3768,3787,3808,3828,3848,3868,3887,3908,3928,3947,3968,3987,4007,4028,4048,4068,4088,4107,4128,4148,4166,4188,4208,4227,4248,4266,4287,4308,4328,4348,4366,4387,4407,4427,4446,4468,4488,4507,4527,4548,4566,4588,4608,4626,4648,4668,4687,4707,4727,4748,4768,4788,4808,4828,4847,4866,4887,4907,4928,4947,4967,4987,5007,5027,5047,5068,5088,5107,5127,5148,5168,5186,5207,5227,5248,5267,5287,5308,5327,5348,5367,5386,5407,5427,5447,5468,5488,5507,5527,5547,5567,5587,5608,5627,5647,5667,5686,5707,5727,5747,5768,5787,5807,5827,5847,5868,5887,5907,5928,5948,5967,5987,6007,6027,6047,6068,6087,6107,6128,6147,6167,6187,6207,6228,6247,6267,6287,6307,6328,6348,6368,6386,6408,6426,6448,6468,6487,6508,6528,6547,6568,6588,6608,6627,6647,6666,6688,6707,6727,6748,6767,6788,6806,6828,6846,6867,6888,6906,6927,6947,6967,6988,7007,7028,7048,7068,7088,7108,7127,7148,7168,7187,7207,7228,7248,7268,7287,7308,7328,7347,7367,7387,7408,7428,7447,7468,7487,7508,7528,7546,7568,7587,7607,7626,7648,7667,7688,7707,7726,7747,7767,7788,7807,7828,7848,7867,7887,7907,7928,7947,7968,7987,8008,8027,8048,8067,8088,8108,8128,8147,8167,8187,8208,8227],"xSR":741.5,"ySR":501.8,"xT1":424.9,"yT1":0,"xT2":1058.1,"yT2":0,"toosoon":0,"cond_shown":"Congruent","ratio_trial":100,"L_num":12,"L_den":30,"R_num":13,"R_den":26,"correct_side":2,"subjID":"gabrielbrocherobustillo35","gender":null,"school":"cafam","age":"12"},{"start_time":1551887244954,"click_time":1551887246736,"finger_time":1551887246275,"fix_duration":1037.7714614535396,"trial":6,"RT":1321,"MT":461,"sideResp":2,"stimulus":[],"xmouse":[775,775,775,775,775,775,775,775,775,775,775,775,775,775,775,775,775,775,775,775,775,775,775,775,775,775,775,775,775,775,775,775,775,775,775,775,775,775,775,775,775,775,775,775,775,775,775,775,775,775,775,775,775,774,774,774,774,774,774,774,774,774,774,774,774,784,821,853,872,888,889,899,912,923,933,958,977,989,993,993,993,999,1006,1014,1019,1029,1036,1043,1053,1070],"ymouse":[536,536,536,536,536,536,536,536,536,536,536,536,536,536,536,536,536,536,536,536,536,536,536,536,536,536,536,536,536,536,536,536,536,536,536,536,536,536,536,536,536,536,536,536,536,536,536,536,536,536,536,536,536,533,533,533,533,533,533,533,533,533,533,533,533,510,448,402,361,307,297,276,252,229,210,177,160,150,147,147,147,145,142,136,132,119,104,85,68,44],"timestamp_mouse":[9,28,41,61,82,102,121,141,160,182,202,222,242,261,281,302,321,340,361,382,401,421,441,461,482,501,521,541,562,581,602,621,641,661,682,702,721,742,762,781,802,821,842,862,882,902,922,942,962,981,1001,1021,1041,1062,1082,1102,1122,1142,1162,1181,1201,1222,1242,1262,1282,1301,1321,1341,1361,1382,1401,1422,1441,1460,1480,1501,1522,1541,1561,1581,1601,1622,1641,1662,1683,1701,1721,1742,1762,1782],"xSR":741.5,"ySR":501.8,"xT1":424.9,"yT1":0,"xT2":1058.1,"yT2":0,"toosoon":0,"cond_shown":"Incongruent","ratio_trial":100,"L_num":6,"L_den":10,"R_num":13,"R_den":26,"correct_side":1,"subjID":"gabrielbrocherobustillo35","gender":null,"school":"cafam","age":"12"},{"start_time":1551887248204,"click_time":1551887250215,"finger_time":1551887249776,"fix_duration":487.0624830324987,"trial":7,"RT":1572,"MT":439,"sideResp":1,"stimulus":[],"xmouse":[762,762,762,762,762,762,762,763,763,763,763,763,763,763,763,763,763,763,763,763,763,763,763,763,763,763,763,763,763,763,763,763,763,763,763,763,763,763,763,763,763,763,763,763,763,763,763,763,763,763,763,763,763,763,763,763,763,763,763,763,763,763,763,763,763,763,763,763,763,763,763,763,763,763,763,763,763,748,732,714,703,688,674,654,625,590,561,531,526,521,516,511,500,499,499,499,500,502,503,505,505],"ymouse":[556,556,556,556,556,556,556,556,556,556,556,556,556,556,556,556,556,556,556,556,556,556,556,556,556,556,556,556,556,556,556,556,556,556,556,556,556,556,556,556,556,556,556,556,556,556,556,556,556,556,556,556,556,556,556,556,556,556,556,556,556,556,556,556,556,556,556,556,556,556,556,556,556,556,556,556,556,527,497,469,454,435,415,383,342,304,275,245,238,232,222,205,168,160,159,157,149,138,124,100,90],"timestamp_mouse":[12,31,59,72,92,111,131,152,171,192,211,232,252,271,291,312,330,351,372,390,412,433,452,471,492,512,532,552,571,592,610,631,652,671,692,711,732,752,770,792,811,831,851,872,892,911,931,952,971,991,1011,1031,1051,1071,1091,1110,1132,1150,1171,1191,1212,1232,1251,1271,1290,1311,1331,1351,1371,1391,1411,1431,1451,1470,1491,1511,1530,1551,1572,1590,1612,1632,1651,1671,1691,1712,1730,1750,1771,1791,1812,1832,1851,1871,1890,1911,1932,1951,1971,1992,2011],"xSR":741.5,"ySR":501.8,"xT1":424.9,"yT1":0,"xT2":1058.1,"yT2":0,"toosoon":0,"cond_shown":"Congruent","ratio_trial":300,"L_num":11,"L_den":22,"R_num":1,"R_den":5,"correct_side":1,"subjID":"gabrielbrocherobustillo35","gender":null,"school":"cafam","age":"12"},{"start_time":1551887252634,"click_time":1551887255455,"finger_time":1551887255076,"fix_duration":1478.9459321164156,"trial":8,"RT":2442,"MT":379,"sideResp":2,"stimulus":[],"xmouse":[809,809,809,809,809,809,809,809,809,809,809,809,809,809,809,809,809,809,809,809,809,809,809,809,809,809,809,809,809,809,809,809,809,809,809,809,809,809,809,809,809,809,809,809,809,809,809,809,809,809,809,809,809,809,809,809,809,809,809,809,809,809,809,809,809,809,809,809,809,809,809,809,809,809,809,809,809,809,809,809,809,809,809,809,809,807,804,799,798,797,797,797,797,797,797,797,797,797,797,797,797,797,797,797,797,797,797,797,797,797,797,797,797,797,797,797,797,797,797,800,812,840,854,865,873,882,916,934,953,962,973,981,990,997,1003,1008,1025,1037,1048,1060,1082,1090],"ymouse":[564,564,564,564,564,564,564,564,564,564,564,564,564,564,564,564,564,564,564,564,564,564,564,564,564,564,564,564,564,564,564,564,564,564,564,564,564,564,564,564,564,564,564,564,564,564,564,564,564,564,564,564,564,564,564,564,564,564,564,564,564,564,564,564,564,564,564,564,564,564,564,564,564,563,563,563,563,563,563,563,563,563,563,563,562,562,560,554,552,551,551,551,551,551,551,551,551,551,551,551,551,551,551,551,551,551,551,551,551,551,551,551,551,551,551,551,551,551,551,547,539,520,508,495,481,464,420,390,358,346,325,311,292,274,258,243,205,175,153,137,107,90],"timestamp_mouse":[9,28,40,61,81,101,121,141,162,181,202,222,240,262,281,301,321,341,362,382,401,422,441,461,481,502,521,541,562,581,600,621,641,661,682,701,721,741,762,780,802,821,841,861,882,901,921,941,961,981,1002,1021,1042,1061,1081,1101,1122,1140,1161,1182,1201,1222,1242,1261,1282,1301,1321,1341,1362,1381,1401,1420,1442,1462,1481,1501,1521,1541,1562,1581,1600,1621,1642,1661,1681,1702,1721,1742,1762,1781,1801,1822,1841,1861,1882,1900,1922,1941,1962,1981,2001,2021,2041,2061,2081,2101,2122,2142,2161,2181,2202,2222,2240,2261,2282,2301,2321,2340,2361,2380,2400,2421,2442,2462,2481,2502,2521,2542,2561,2581,2602,2621,2642,2661,2681,2700,2721,2741,2761,2782,2802,2821],"xSR":741.5,"ySR":501.8,"xT1":424.9,"yT1":0,"xT2":1058.1,"yT2":0,"toosoon":0,"cond_shown":"Incongruent","ratio_trial":300,"L_num":4,"L_den":20,"R_num":2,"R_den":4,"correct_side":2,"subjID":"gabrielbrocherobustillo35","gender":null,"school":"cafam","age":"12"},{"start_time":1551887256846,"click_time":1551887258795,"finger_time":1551887258415,"fix_duration":448.01239150615845,"trial":9,"RT":1569,"MT":380,"sideResp":2,"stimulus":[],"xmouse":[791,791,791,791,791,791,791,791,791,791,791,791,791,791,791,791,791,791,791,791,791,791,791,791,791,791,791,791,791,791,791,791,791,791,791,791,791,791,791,791,791,791,791,791,791,791,791,791,791,791,791,791,791,791,791,791,791,791,791,791,791,791,791,791,791,791,791,791,791,791,791,791,791,791,791,791,805,824,849,933,961,986,1006,1023,1039,1047,1050,1059,1064,1075,1077,1081,1086,1093,1101,1112,1115,1124],"ymouse":[569,569,569,569,569,569,569,569,569,569,569,569,569,569,569,569,569,569,569,569,569,569,569,569,569,569,569,569,569,569,569,569,569,569,569,569,569,569,569,569,569,569,569,569,569,569,569,569,569,569,569,569,569,569,569,569,569,569,569,569,569,569,569,569,569,569,569,569,569,569,569,569,569,569,569,569,560,546,527,453,418,382,345,317,290,271,262,247,231,199,190,180,170,156,143,115,105,78],"timestamp_mouse":[8,30,50,69,89,109,129,149,170,189,210,229,249,270,289,309,329,349,369,390,409,430,449,470,490,509,529,550,569,589,609,630,650,669,690,708,730,749,769,789,809,829,850,870,890,908,929,950,970,989,1009,1030,1049,1069,1089,1110,1129,1149,1169,1189,1209,1230,1249,1269,1289,1309,1330,1349,1369,1389,1408,1429,1449,1469,1488,1509,1529,1549,1569,1591,1609,1629,1649,1670,1690,1709,1729,1749,1769,1791,1809,1829,1849,1870,1889,1909,1930,1949],"xSR":741.5,"ySR":501.8,"xT1":424.9,"yT1":0,"xT2":1058.1,"yT2":0,"toosoon":0,"cond_shown":"Incongruent","ratio_trial":300,"L_num":4,"L_den":20,"R_num":2,"R_den":4,"correct_side":2,"subjID":"gabrielbrocherobustillo35","gender":null,"school":"cafam","age":"12"},{"start_time":1551887261160,"click_time":1551887262875,"finger_time":1551887262515,"fix_duration":1423.4095683356575,"trial":10,"RT":1355,"MT":360,"sideResp":2,"stimulus":[],"xmouse":[784,784,784,784,784,784,784,784,784,784,784,784,784,784,784,784,784,784,783,783,783,783,783,783,783,783,783,783,783,783,783,783,783,783,783,783,783,783,783,783,783,783,783,783,783,783,783,783,783,783,783,783,783,783,783,783,783,783,783,783,783,783,783,783,783,804,825,852,892,917,933,952,966,978,980,980,980,982,985,998,1011,1014,1014,1024,1044,1071],"ymouse":[578,578,578,578,578,578,578,578,578,578,578,578,578,578,578,578,578,578,578,578,578,578,578,577,577,577,577,577,577,577,577,577,577,577,577,577,577,577,577,577,577,577,577,577,577,577,577,577,577,577,577,577,577,577,577,577,577,577,577,577,577,577,577,577,574,560,542,508,429,340,293,261,243,224,222,222,222,216,194,146,129,127,127,119,97,69],"timestamp_mouse":[15,37,55,76,94,115,135,155,176,195,215,236,255,275,296,315,336,355,375,396,415,435,455,476,495,516,536,555,575,596,616,636,655,675,694,716,736,754,775,796,814,835,855,876,895,915,936,954,975,995,1014,1035,1054,1076,1096,1115,1136,1155,1175,1195,1215,1236,1255,1275,1295,1315,1336,1355,1376,1395,1415,1435,1455,1476,1495,1515,1535,1556,1574,1595,1615,1636,1656,1675,1695,1715],"xSR":741.5,"ySR":501.8,"xT1":424.9,"yT1":0,"xT2":1058.1,"yT2":0,"toosoon":0,"cond_shown":"Congruent","ratio_trial":100,"L_num":7,"L_den":14,"R_num":9,"R_den":15,"correct_side":2,"subjID":"gabrielbrocherobustillo35","gender":null,"school":"cafam","age":"12"},{"start_time":1551887266166,"click_time":1551887268236,"finger_time":1551887267356,"fix_duration":1069.3446523003188,"trial":11,"RT":1190,"MT":880,"sideResp":1,"stimulus":[],"xmouse":[769,769,769,769,769,769,769,769,769,769,769,769,769,769,769,769,769,769,769,769,769,769,769,769,769,769,769,769,769,769,769,769,769,769,769,769,769,769,769,769,769,769,769,769,769,769,769,769,769,769,769,769,769,769,769,767,763,754,744,717,691,671,656,639,593,572,552,539,538,544,549,549,548,546,544,544,544,543,542,529,520,516,511,504,494,490,487,485,483,481,480,480,479,476,473,473,471,470,469,467,467,467,466,464],"ymouse":[556,556,556,556,556,556,556,556,556,556,556,556,556,556,556,556,556,556,556,556,556,556,556,556,556,556,556,556,556,556,556,556,556,556,556,556,556,556,556,556,556,556,556,556,556,556,556,556,556,556,556,556,556,556,556,552,545,535,523,479,440,416,401,387,358,345,328,313,264,239,199,182,171,165,161,160,156,151,147,141,139,138,136,134,128,125,124,120,117,111,110,110,108,107,105,105,104,102,102,101,101,101,100,98],"timestamp_mouse":[11,34,49,70,89,109,129,149,170,190,209,230,250,270,290,310,329,350,369,389,410,429,448,469,490,509,529,549,569,590,609,630,649,669,690,709,729,749,770,790,809,830,848,870,889,910,929,948,970,989,1009,1029,1049,1070,1090,1109,1129,1150,1170,1190,1209,1229,1250,1269,1290,1309,1329,1349,1370,1389,1409,1429,1450,1470,1488,1509,1529,1550,1570,1589,1608,1629,1649,1669,1690,1709,1729,1749,1769,1790,1810,1829,1849,1868,1889,1910,1930,1949,1969,1988,2009,2029,2049,2070],"xSR":741.5,"ySR":501.8,"xT1":424.9,"yT1":0,"xT2":1058.1,"yT2":0,"toosoon":0,"cond_shown":"Congruent","ratio_trial":300,"L_num":9,"L_den":10,"R_num":3,"R_den":5,"correct_side":1,"subjID":"gabrielbrocherobustillo35","gender":null,"school":"cafam","age":"12"},{"start_time":1551887269948,"click_time":1551887271775,"finger_time":1551887271015,"fix_duration":250,"trial":12,"RT":1067,"MT":760,"sideResp":2,"stimulus":[],"xmouse":[836,836,836,836,836,836,836,836,836,836,826,820,803,801,801,801,801,801,801,801,801,801,801,801,801,801,801,801,801,801,801,801,801,801,801,801,801,801,801,801,801,801,801,802,803,805,806,807,808,809,812,814,816,816,817,818,818,818,818,818,818,818,818,818,818,818,822,839,855,898,917,943,956,967,975,985,989,995,1001,1009,1011,1011,1011,1023,1048,1053,1055,1057,1057,1057,1057,1063],"ymouse":[538,538,538,538,538,538,538,538,538,538,538,536,536,536,536,536,536,536,536,536,536,536,536,536,536,536,536,536,536,536,536,536,536,536,536,536,536,536,536,536,536,536,535,533,527,523,518,515,513,511,508,505,502,500,497,496,496,496,496,496,496,496,496,496,496,496,490,473,442,352,307,243,211,190,177,158,152,140,127,106,103,102,101,93,81,78,76,75,75,75,73,65],"timestamp_mouse":[10,32,47,66,88,106,127,148,168,187,207,227,247,268,287,308,327,348,368,387,408,428,447,468,488,507,527,547,568,586,608,627,648,666,687,707,726,747,767,787,808,827,847,866,888,907,928,948,967,987,1007,1026,1048,1067,1088,1107,1127,1147,1168,1188,1207,1228,1247,1268,1288,1306,1327,1347,1367,1389,1407,1427,1447,1467,1486,1506,1527,1547,1567,1589,1606,1627,1648,1668,1689,1706,1728,1747,1767,1788,1807,1827],"xSR":741.5,"ySR":501.8,"xT1":424.9,"yT1":0,"xT2":1058.1,"yT2":0,"toosoon":0,"cond_shown":"Congruent","ratio_trial":100,"L_num":3,"L_den":20,"R_num":4,"R_den":16,"correct_side":2,"subjID":"gabrielbrocherobustillo35","gender":null,"school":"cafam","age":"12"},{"start_time":1551887272988,"click_time":1551887275376,"finger_time":1551887274316,"fix_duration":250,"trial":13,"RT":1328,"MT":1060,"sideResp":1,"stimulus":[],"xmouse":[807,807,806,806,806,806,806,806,806,806,806,806,806,806,806,806,806,806,806,806,806,806,806,806,806,806,806,806,806,806,806,806,806,806,806,806,806,806,806,806,806,806,806,806,806,806,806,806,806,806,806,806,806,806,806,806,806,806,806,806,806,806,806,812,821,834,844,866,920,963,1022,1044,1056,1074,1079,1081,1082,1096,1107,1113,1113,1113,1113,1113,1114,1114,1114,1114,1114,1114,1114,1114,1114,1113,1103,1084,1042,982,913,855,776,727,710,705,704,702,699,673,663,655,647,633,593,567,548,545,545,543,538,522],"ymouse":[536,536,536,536,536,536,536,536,536,536,536,536,536,536,536,536,536,536,536,536,536,536,536,536,536,536,536,536,536,536,536,536,536,536,536,536,536,536,536,536,536,536,536,536,536,536,536,536,536,536,536,536,536,536,536,536,536,536,536,536,536,536,536,533,525,513,500,473,404,339,268,239,220,191,187,184,183,162,144,130,129,129,129,128,125,125,125,123,122,122,122,122,122,122,122,128,138,144,144,134,110,94,88,84,83,82,82,78,78,78,78,78,78,78,78,78,78,76,75,72],"timestamp_mouse":[8,33,48,67,87,107,127,147,167,187,207,227,247,268,287,307,328,347,368,387,407,427,447,467,487,508,528,547,568,587,606,627,648,668,687,708,728,748,767,787,807,828,848,868,887,907,928,948,967,986,1007,1028,1047,1067,1087,1108,1127,1147,1168,1188,1207,1227,1248,1267,1287,1307,1328,1347,1367,1387,1407,1428,1446,1467,1487,1508,1527,1549,1567,1587,1607,1628,1648,1667,1686,1707,1727,1748,1767,1786,1807,1827,1848,1868,1887,1907,1927,1947,1967,1987,2007,2027,2047,2066,2087,2107,2127,2148,2166,2187,2208,2227,2248,2267,2288,2307,2326,2347,2367,2388],"xSR":741.5,"ySR":501.8,"xT1":424.9,"yT1":0,"xT2":1058.1,"yT2":0,"toosoon":0,"cond_shown":"Congruent","ratio_trial":200,"L_num":4,"L_den":10,"R_num":3,"R_den":15,"correct_side":1,"subjID":"gabrielbrocherobustillo35","gender":null,"school":"cafam","age":"12"},{"start_time":1551887277708,"click_time":1551887279175,"finger_time":1551887278596,"fix_duration":1390.9721223635886,"trial":14,"RT":888,"MT":579,"sideResp":2,"stimulus":[],"xmouse":[821,821,821,821,821,821,821,821,821,821,821,821,821,821,821,821,821,821,821,821,821,821,821,821,821,821,821,821,821,821,821,821,821,821,821,821,821,821,821,821,821,821,823,835,861,892,960,987,1007,1016,1025,1029,1033,1033,1036,1037,1040,1044,1045,1045,1046,1046,1046,1046,1046,1046,1046,1051,1052,1054,1055,1055,1056,1059],"ymouse":[553,553,553,553,553,553,553,553,553,553,553,553,553,553,553,553,553,553,553,553,553,553,553,553,553,553,553,553,553,553,553,553,553,553,553,553,553,553,553,553,553,553,549,537,515,482,376,309,233,173,108,74,65,64,55,49,44,34,29,24,23,23,23,23,23,23,23,33,36,40,42,42,44,48],"timestamp_mouse":[10,27,47,67,87,107,127,147,167,187,207,227,247,267,288,307,327,348,368,388,407,427,448,467,487,507,527,548,568,587,608,628,647,668,687,707,726,748,767,787,807,827,847,868,888,907,928,947,968,988,1007,1028,1047,1067,1088,1108,1127,1147,1167,1187,1207,1227,1247,1267,1287,1308,1327,1348,1367,1387,1408,1427,1448,1466],"xSR":741.5,"ySR":501.8,"xT1":424.9,"yT1":0,"xT2":1058.1,"yT2":0,"toosoon":0,"cond_shown":"Incongruent","ratio_trial":200,"L_num":9,"L_den":15,"R_num":8,"R_den":10,"correct_side":2,"subjID":"gabrielbrocherobustillo35","gender":null,"school":"cafam","age":"12"},{"start_time":1551887280306,"click_time":1551887281895,"finger_time":1551887281656,"fix_duration":250,"trial":15,"RT":1350,"MT":239,"sideResp":1,"stimulus":[],"xmouse":[803,803,803,803,803,803,803,803,803,803,803,803,803,803,803,803,803,803,803,803,803,803,803,803,803,803,803,803,803,803,803,803,803,803,803,803,803,803,803,803,803,803,803,803,803,803,803,803,803,803,803,803,803,803,803,803,803,803,803,803,803,803,803,803,803,802,782,771,755,740,721,695,608,540,526,521,514,513,512,510],"ymouse":[524,524,524,524,524,524,524,524,524,524,524,524,524,524,524,524,524,524,524,524,524,524,524,524,524,524,524,524,524,524,524,524,524,524,524,524,524,524,524,524,524,524,524,524,524,524,524,524,524,524,524,524,524,524,524,524,524,524,524,524,524,524,524,524,524,524,509,500,485,467,426,365,223,148,132,126,111,105,100,96],"timestamp_mouse":[11,28,48,69,89,110,130,148,170,188,209,229,249,270,288,309,330,349,369,389,410,428,449,469,488,510,529,550,569,588,609,629,649,670,689,710,729,748,769,790,810,830,849,870,889,909,928,950,969,989,1009,1029,1050,1068,1090,1110,1128,1150,1169,1189,1208,1230,1250,1269,1289,1310,1330,1350,1370,1389,1410,1430,1448,1470,1490,1509,1531,1549,1569,1589],"xSR":741.5,"ySR":501.8,"xT1":424.9,"yT1":0,"xT2":1058.1,"yT2":0,"toosoon":0,"cond_shown":"Incongruent","ratio_trial":200,"L_num":1,"L_den":3,"R_num":2,"R_den":15,"correct_side":1,"subjID":"gabrielbrocherobustillo35","gender":null,"school":"cafam","age":"12"},{"start_time":1551887283881,"click_time":1551887285475,"finger_time":1551887285335,"fix_duration":725.3731277146564,"trial":16,"RT":1454,"MT":140,"sideResp":1,"stimulus":[],"xmouse":[796,796,796,796,796,796,796,796,796,796,796,796,796,796,796,796,796,796,796,796,796,796,796,796,796,796,796,796,796,796,796,796,796,796,796,796,796,796,796,796,796,796,796,796,796,796,796,796,796,796,796,796,796,796,796,796,796,796,796,796,796,796,796,796,796,796,796,796,796,795,793,792,789,784,767,729,677,564,530,514],"ymouse":[518,518,518,518,518,518,518,518,518,518,518,518,518,518,518,518,518,518,518,518,518,518,518,518,518,518,518,518,518,518,518,518,518,518,518,518,518,518,518,518,518,518,518,518,518,518,518,518,518,518,518,518,518,518,518,518,518,518,518,518,518,518,518,518,518,518,518,518,518,509,507,503,496,481,442,366,280,149,104,82],"timestamp_mouse":[13,34,53,74,93,114,134,154,174,195,214,234,255,275,294,314,334,353,375,394,415,434,454,474,494,513,534,555,574,594,614,635,653,674,694,713,735,755,773,794,814,835,854,875,894,914,934,955,975,994,1015,1034,1055,1074,1094,1114,1135,1153,1174,1195,1215,1234,1254,1275,1293,1315,1334,1353,1374,1395,1414,1435,1454,1473,1494,1514,1535,1555,1574,1594],"xSR":741.5,"ySR":501.8,"xT1":424.9,"yT1":0,"xT2":1058.1,"yT2":0,"toosoon":0,"cond_shown":"Incongruent","ratio_trial":200,"L_num":14,"L_den":30,"R_num":6,"R_den":9,"correct_side":2,"subjID":"gabrielbrocherobustillo35","gender":null,"school":"cafam","age":"12"},{"start_time":1551887287505,"click_time":1551887289395,"finger_time":1551887288975,"fix_duration":647.6142652191766,"trial":17,"RT":1470,"MT":420,"sideResp":1,"stimulus":[],"xmouse":[789,789,789,789,789,789,789,789,789,789,789,789,789,789,789,789,789,789,789,789,789,789,789,789,789,789,789,789,789,789,789,789,789,789,789,789,789,789,789,789,789,789,789,789,789,789,789,789,789,789,789,789,789,789,789,789,789,789,789,789,789,789,789,789,789,789,789,789,789,789,789,789,787,738,684,650,624,616,608,599,583,556,553,553,552,552,549,547,544,542,540,539,530,510,482],"ymouse":[533,533,533,533,533,533,533,533,533,533,533,533,533,533,533,533,533,533,533,533,533,533,533,533,533,533,533,533,533,533,533,533,533,533,533,533,533,533,533,533,533,533,533,533,533,533,533,533,533,533,533,533,533,533,533,533,533,533,533,533,533,533,533,533,533,533,533,533,533,533,533,533,527,471,416,380,342,323,301,266,223,158,144,140,137,137,132,129,126,123,122,122,115,103,90],"timestamp_mouse":[10,29,50,70,90,110,131,151,170,189,210,230,250,271,290,310,330,349,371,391,411,430,451,470,491,511,529,550,571,590,611,629,651,669,691,710,731,750,771,789,810,830,850,871,890,910,930,950,970,989,1010,1031,1050,1070,1090,1110,1130,1151,1169,1190,1210,1231,1251,1270,1290,1309,1329,1351,1371,1391,1410,1430,1450,1470,1491,1510,1530,1549,1570,1591,1610,1631,1650,1670,1689,1710,1732,1750,1770,1790,1810,1831,1850,1870,1890],"xSR":741.5,"ySR":501.8,"xT1":424.9,"yT1":0,"xT2":1058.1,"yT2":0,"toosoon":0,"cond_shown":"Incongruent","ratio_trial":300,"L_num":8,"L_den":10,"R_num":9,"R_den":18,"correct_side":1,"subjID":"gabrielbrocherobustillo35","gender":null,"school":"cafam","age":"12"},{"start_time":1551887292879,"click_time":1551887294536,"finger_time":1551887293955,"fix_duration":1002.5727655347855,"trial":18,"RT":1076,"MT":581,"sideResp":1,"stimulus":[],"xmouse":[786,786,786,786,786,786,786,786,786,786,786,786,786,786,786,786,786,786,786,786,786,786,786,786,786,786,786,786,786,786,786,786,786,786,786,786,786,786,786,786,786,786,786,786,786,786,786,786,786,786,786,786,782,655,621,607,597,589,588,588,588,588,586,572,565,554,544,534,519,515,513,513,512,511,507,503,501,495,493,493,492,490,484],"ymouse":[560,560,560,560,560,560,560,560,560,560,560,560,560,560,560,560,560,560,560,560,560,560,560,560,560,560,560,560,560,560,560,560,560,560,560,560,560,560,560,560,560,560,560,560,560,560,560,560,560,560,560,560,559,479,439,418,403,391,390,390,390,389,389,362,345,316,291,268,234,226,222,218,208,201,186,175,167,148,140,135,128,112,96],"timestamp_mouse":[17,36,57,77,96,117,135,157,177,196,216,236,255,276,296,317,337,356,377,396,417,437,456,476,496,517,535,557,575,597,615,636,656,676,697,716,737,756,777,796,816,836,855,877,897,917,936,955,976,996,1016,1036,1056,1076,1096,1116,1137,1157,1176,1196,1216,1236,1256,1277,1297,1316,1336,1356,1377,1396,1417,1437,1458,1477,1496,1516,1537,1558,1577,1597,1617,1638,1657],"xSR":741.5,"ySR":501.8,"xT1":424.9,"yT1":0,"xT2":1058.1,"yT2":0,"toosoon":0,"cond_shown":"Congruent","ratio_trial":300,"L_num":1,"L_den":5,"R_num":3,"R_den":6,"correct_side":2,"subjID":"gabrielbrocherobustillo35","gender":null,"school":"cafam","age":"12"},{"start_time":1551887301551,"click_time":1551887303436,"finger_time":1551887302956,"fix_duration":553.5500645391007,"trial":19,"RT":1405,"MT":480,"sideResp":2,"stimulus":[],"xmouse":[801,800,800,800,800,800,800,800,800,799,799,799,799,799,799,799,799,799,799,799,799,799,799,799,799,799,799,799,799,799,799,799,799,799,799,799,799,799,799,799,799,799,799,799,799,799,799,799,799,799,799,799,799,799,799,799,799,799,799,799,799,799,799,799,799,799,799,799,799,803,834,850,862,869,876,922,952,985,998,1011,1012,1012,1012,1012,1026,1037,1044,1045,1046,1047,1048,1052,1053,1058,1061],"ymouse":[562,561,561,561,561,561,561,561,561,561,561,561,561,561,561,561,561,561,561,561,561,561,561,561,561,561,561,561,561,561,561,561,561,561,561,561,561,561,561,561,561,561,561,561,561,561,561,561,561,561,561,561,561,561,561,561,561,561,561,561,561,561,561,561,561,561,561,561,561,540,489,463,445,433,422,359,324,282,256,219,205,202,200,195,172,157,144,138,133,131,120,113,106,96,82],"timestamp_mouse":[8,24,45,65,85,105,125,145,166,186,204,225,246,265,286,306,326,346,365,385,406,426,446,464,486,506,526,545,566,586,606,624,646,666,686,704,726,744,765,786,806,824,845,865,884,906,924,945,966,985,1004,1024,1046,1065,1085,1106,1124,1145,1165,1186,1205,1226,1246,1265,1284,1306,1324,1345,1365,1385,1405,1425,1445,1465,1484,1504,1525,1546,1565,1586,1605,1626,1646,1665,1686,1704,1724,1745,1765,1785,1806,1826,1845,1864,1885],"xSR":741.5,"ySR":501.8,"xT1":424.9,"yT1":0,"xT2":1058.1,"yT2":0,"toosoon":0,"cond_shown":"Congruent","ratio_trial":300,"L_num":1,"L_den":5,"R_num":3,"R_den":6,"correct_side":2,"subjID":"gabrielbrocherobustillo35","gender":null,"school":"cafam","age":"12"},{"start_time":1551887305416,"click_time":1551887307056,"finger_time":1551887306956,"fix_duration":878.3634461563172,"trial":20,"RT":1540,"MT":100,"sideResp":2,"stimulus":[],"xmouse":[797,797,797,797,797,797,797,797,797,797,797,797,797,797,797,797,797,797,797,797,797,797,797,797,797,797,797,797,797,797,797,797,797,797,797,797,797,798,798,798,798,798,798,798,799,799,799,799,799,799,799,799,799,799,799,799,799,799,799,799,799,799,799,799,799,799,799,799,799,799,799,799,799,799,799,800,811,833,871,910,963,1021,1121],"ymouse":[540,540,540,540,540,540,540,540,540,540,540,540,540,540,540,540,540,540,540,540,540,540,540,540,540,540,540,540,540,540,540,540,540,540,540,540,540,540,540,540,540,540,540,540,540,540,540,540,540,540,540,540,540,540,540,540,540,540,540,540,540,540,540,540,540,540,540,540,540,540,540,540,540,540,540,540,528,500,449,394,293,202,74],"timestamp_mouse":[8,21,40,60,80,99,121,140,159,179,200,220,240,261,280,299,320,340,360,379,401,420,439,461,480,499,521,541,560,580,600,621,641,660,679,701,721,741,760,780,801,819,841,859,880,901,920,940,960,980,1000,1021,1040,1060,1080,1100,1120,1140,1159,1179,1200,1220,1240,1259,1281,1301,1321,1341,1360,1381,1399,1421,1439,1460,1481,1499,1521,1540,1559,1581,1600,1620,1640],"xSR":741.5,"ySR":501.8,"xT1":424.9,"yT1":0,"xT2":1058.1,"yT2":0,"toosoon":0,"cond_shown":"Incongruent","ratio_trial":300,"L_num":13,"L_den":26,"R_num":12,"R_den":15,"correct_side":2,"subjID":"gabrielbrocherobustillo35","gender":null,"school":"cafam","age":"12"},{"start_time":1551887309790,"click_time":1551887313596,"finger_time":1551887311437,"fix_duration":1471.7810494470662,"trial":21,"RT":1647,"MT":2159,"sideResp":1,"stimulus":[],"xmouse":[793,793,793,793,793,793,793,793,793,793,793,793,793,793,793,793,793,793,793,793,793,793,793,793,793,793,793,793,793,793,793,793,793,793,793,793,793,793,793,793,793,793,793,793,793,793,793,793,793,793,793,793,793,793,793,793,793,793,793,793,793,793,793,793,793,793,793,793,793,793,793,793,793,793,793,793,793,793,793,793,794,797,854,903,937,954,970,997,1006,1008,1013,1014,1016,1022,1029,1033,1033,1037,1038,1040,1044,1045,1046,1046,1046,1046,1046,1046,1046,1046,1046,1046,1046,1049,1051,1054,1055,1056,1056,1056,1056,1056,1056,1052,1046,1043,1039,1031,1008,980,947,920,872,853,835,815,793,776,750,744,741,740,740,740,740,740,740,753,775,808,844,871,910,916,921,926,937,949,956,963,967,972,976,980,981,981,981,981,981,965,945,923,897,850,830,813,802,796,789,786,783,777,754,731,706,675,641,616,568,532,514],"ymouse":[504,504,504,504,504,504,504,504,504,504,504,504,504,505,505,505,505,505,505,505,505,505,505,505,505,505,505,505,505,505,505,505,505,505,505,505,505,505,505,505,505,505,505,505,505,505,505,505,505,505,505,505,505,505,505,505,505,505,505,505,505,505,505,505,505,505,505,505,505,505,505,505,505,505,505,505,505,505,505,505,505,503,452,418,394,380,367,343,323,315,300,296,290,268,251,237,230,211,199,189,161,155,151,151,151,151,151,151,151,151,151,151,147,142,137,128,122,118,117,117,117,117,116,116,116,116,117,121,122,122,117,114,110,107,107,106,106,106,106,106,106,106,106,106,106,106,106,106,106,109,108,107,102,101,99,96,91,84,80,79,77,76,75,74,74,74,74,74,73,73,73,73,74,74,74,73,71,71,71,71,71,74,78,82,82,83,83,83,83,83,82],"timestamp_mouse":[9,27,47,66,86,106,126,147,166,185,207,225,247,267,287,305,326,346,367,386,405,427,446,466,485,507,527,546,566,587,606,626,647,667,686,705,727,747,765,786,805,827,846,866,886,906,926,946,966,987,1006,1026,1047,1065,1087,1106,1126,1146,1167,1186,1207,1226,1246,1267,1287,1306,1327,1346,1367,1386,1406,1426,1446,1467,1487,1506,1526,1547,1566,1586,1605,1626,1647,1666,1686,1707,1726,1747,1768,1786,1806,1826,1847,1867,1886,1907,1925,1947,1965,1986,2007,2026,2047,2066,2086,2107,2126,2147,2165,2186,2206,2226,2246,2265,2287,2305,2325,2347,2365,2386,2407,2426,2447,2466,2486,2507,2526,2546,2566,2586,2606,2626,2647,2666,2686,2706,2726,2746,2766,2786,2806,2826,2847,2866,2886,2907,2926,2946,2965,2985,3006,3027,3047,3066,3086,3107,3125,3147,3165,3185,3207,3227,3246,3266,3287,3307,3325,3347,3366,3386,3407,3427,3445,3466,3486,3507,3526,3546,3566,3585,3605,3627,3647,3665,3687,3706,3726,3745,3765,3786,3806],"xSR":741.5,"ySR":501.8,"xT1":424.9,"yT1":0,"xT2":1058.1,"yT2":0,"toosoon":0,"cond_shown":"Congruent","ratio_trial":200,"L_num":8,"L_den":15,"R_num":3,"R_den":9,"correct_side":1,"subjID":"gabrielbrocherobustillo35","gender":null,"school":"cafam","age":"12"},{"start_time":1551887316414,"click_time":1551887318155,"finger_time":1551887317757,"fix_duration":956.0708649848142,"trial":22,"RT":1343,"MT":398,"sideResp":2,"stimulus":[],"xmouse":[766,766,766,766,766,766,766,766,766,766,766,766,766,766,766,766,766,766,766,766,766,766,766,766,766,766,766,766,766,766,766,766,766,766,766,766,766,766,766,766,766,766,766,766,766,766,766,766,766,766,766,766,766,766,766,766,766,766,766,766,766,766,766,766,769,771,812,877,944,978,1000,1023,1060,1072,1082,1090,1097,1098,1099,1099,1101,1101,1101,1102,1102,1102,1102,1100],"ymouse":[575,575,575,575,575,575,575,575,575,575,575,575,575,575,575,575,575,575,575,575,575,575,575,575,575,575,575,575,575,575,575,575,575,575,575,575,575,575,575,575,575,575,575,575,575,575,575,575,575,575,575,575,575,575,575,575,575,575,575,575,575,575,575,575,575,575,549,504,446,414,386,352,299,280,263,248,216,186,146,130,128,128,128,128,128,116,108,98],"timestamp_mouse":[10,34,42,61,82,102,123,142,162,182,202,221,243,262,281,302,322,341,362,383,401,423,442,462,482,502,521,542,562,581,603,622,642,661,683,703,721,742,762,783,801,822,842,863,881,902,921,943,961,981,1002,1022,1041,1063,1082,1102,1122,1143,1163,1182,1203,1222,1242,1262,1282,1303,1322,1343,1362,1383,1401,1422,1443,1461,1483,1502,1523,1541,1561,1582,1602,1622,1641,1663,1682,1702,1723,1741],"xSR":741.5,"ySR":501.8,"xT1":424.9,"yT1":0,"xT2":1058.1,"yT2":0,"toosoon":0,"cond_shown":"Congruent","ratio_trial":200,"L_num":6,"L_den":20,"R_num":11,"R_den":22,"correct_side":2,"subjID":"gabrielbrocherobustillo35","gender":null,"school":"cafam","age":"12"},{"start_time":1551887320360,"click_time":1551887322056,"finger_time":1551887321357,"fix_duration":762.336883313989,"trial":23,"RT":997,"MT":699,"sideResp":1,"stimulus":[],"xmouse":[792,792,792,792,792,792,792,792,792,792,792,792,792,792,792,792,792,792,792,792,792,792,792,792,792,792,792,792,792,792,792,792,792,792,792,792,792,792,792,792,792,792,792,792,792,792,792,789,772,736,721,701,699,699,699,699,698,689,651,636,628,628,628,628,628,627,621,599,558,495,483,478,475,473,472,470,467,465,465,465,465,465,465,465,465],"ymouse":[542,542,542,542,542,542,542,542,542,542,542,542,542,542,542,542,542,542,542,542,542,542,542,542,542,542,542,542,542,542,542,542,543,543,543,543,543,543,543,543,543,543,543,543,543,543,543,541,535,525,520,515,515,515,515,515,514,506,475,467,465,465,465,465,465,464,448,408,343,283,278,274,262,244,184,158,146,143,142,142,142,134,119,102,92],"timestamp_mouse":[17,37,55,77,97,116,136,156,177,195,216,237,255,277,295,316,337,357,376,396,415,437,456,476,497,517,536,555,576,596,617,636,656,677,697,716,735,757,777,797,816,837,856,877,895,916,936,955,977,997,1016,1037,1057,1077,1097,1116,1135,1156,1177,1196,1216,1236,1255,1276,1297,1316,1337,1356,1376,1396,1415,1436,1457,1476,1497,1516,1536,1556,1575,1595,1616,1636,1656,1675,1696],"xSR":741.5,"ySR":501.8,"xT1":424.9,"yT1":0,"xT2":1058.1,"yT2":0,"toosoon":0,"cond_shown":"Incongruent","ratio_trial":200,"L_num":6,"L_den":20,"R_num":3,"R_den":6,"correct_side":2,"subjID":"gabrielbrocherobustillo35","gender":null,"school":"cafam","age":"12"},{"start_time":1551887323921,"click_time":1551887327238,"finger_time":1551887326776,"fix_duration":863.304501212297,"trial":24,"RT":2855,"MT":462,"sideResp":1,"stimulus":[],"xmouse":[787,787,787,787,787,787,787,787,787,787,787,787,787,787,787,787,787,787,787,787,787,787,787,787,787,787,787,787,787,787,787,787,787,787,787,787,787,787,787,787,787,787,787,787,787,787,787,787,787,787,787,787,787,787,787,787,787,787,787,787,787,787,787,787,787,787,787,787,787,787,787,787,787,787,787,787,787,787,787,787,787,787,787,787,787,787,787,787,787,787,787,787,787,787,787,787,787,787,787,787,787,787,787,787,787,787,787,787,787,787,787,787,787,787,787,787,787,787,787,787,787,787,787,787,787,787,787,787,787,787,787,787,787,787,787,787,787,787,787,787,782,766,733,668,649,633,620,603,591,584,577,559,548,546,543,534,525,516,508,505,503,498,495,493,490,483],"ymouse":[546,546,546,546,546,546,546,546,546,546,546,546,546,546,546,546,546,546,546,546,546,546,546,546,546,546,546,546,546,546,546,546,546,546,546,546,546,546,546,546,546,546,546,546,546,546,546,546,546,546,546,546,546,546,546,546,546,546,546,546,546,546,546,546,546,546,546,546,546,546,546,546,546,546,546,546,546,546,546,546,546,546,546,546,546,546,546,546,546,546,546,546,546,546,546,546,546,546,546,546,546,546,546,546,546,546,546,546,546,546,546,546,546,546,546,546,546,546,546,546,546,546,546,546,546,546,546,546,546,546,546,546,546,546,546,546,546,546,546,547,546,540,518,460,434,383,351,325,304,290,278,244,220,207,200,185,175,163,153,147,141,134,130,125,119,85],"timestamp_mouse":[15,35,56,74,95,114,135,156,175,194,216,236,255,275,295,314,336,356,374,396,415,436,454,476,494,516,535,554,575,595,614,636,656,674,694,716,736,756,775,794,815,835,856,876,895,915,935,956,975,996,1016,1035,1054,1076,1095,1116,1134,1154,1175,1194,1216,1235,1255,1275,1295,1316,1335,1356,1375,1394,1416,1435,1456,1474,1496,1515,1534,1554,1576,1596,1616,1636,1656,1676,1695,1716,1735,1755,1775,1796,1815,1834,1856,1875,1894,1916,1935,1956,1974,1995,2015,2034,2055,2075,2096,2115,2136,2156,2175,2196,2214,2236,2254,2275,2295,2315,2334,2356,2375,2396,2415,2435,2455,2474,2496,2516,2535,2556,2576,2595,2615,2636,2656,2674,2696,2715,2736,2756,2774,2795,2815,2834,2855,2876,2895,2916,2934,2955,2975,2995,3016,3036,3055,3074,3095,3116,3135,3156,3175,3196,3214,3235,3256,3276,3296,3317],"xSR":741.5,"ySR":501.8,"xT1":424.9,"yT1":0,"xT2":1058.1,"yT2":0,"toosoon":0,"cond_shown":"Incongruent","ratio_trial":200,"L_num":1,"L_den":3,"R_num":2,"R_den":15,"correct_side":1,"subjID":"gabrielbrocherobustillo35","gender":null,"school":"cafam","age":"12"},{"start_time":1551887328964,"click_time":1551887330836,"finger_time":1551887330716,"fix_duration":306.7061564071533,"trial":25,"RT":1752,"MT":120,"sideResp":2,"stimulus":[],"xmouse":[775,775,775,775,775,775,775,775,775,775,775,775,775,775,775,775,777,777,777,777,777,777,777,777,777,777,777,777,777,777,777,777,777,777,777,777,775,774,768,767,765,765,765,765,765,765,765,765,765,765,765,765,765,765,765,765,765,765,765,765,765,765,765,765,765,765,765,765,765,765,765,765,765,765,765,765,765,765,765,765,765,765,765,765,765,765,770,777,798,904,991,1017,1036,1067],"ymouse":[542,542,542,542,542,542,542,542,542,542,542,542,542,542,542,542,542,542,542,542,542,542,542,542,542,542,542,542,542,542,542,542,542,542,542,542,539,539,537,536,535,535,535,535,535,535,535,535,535,535,535,535,535,535,535,535,535,535,535,535,535,535,535,535,535,535,535,535,535,535,535,535,535,535,535,535,535,535,535,535,535,535,535,535,535,527,514,499,475,391,303,238,173,95],"timestamp_mouse":[11,33,52,73,91,111,132,151,173,193,213,232,252,271,293,312,332,351,372,393,413,433,453,471,493,511,532,552,572,592,613,632,651,673,693,712,732,752,773,793,812,832,852,873,892,912,932,953,971,992,1012,1031,1052,1072,1092,1112,1132,1152,1172,1193,1213,1233,1252,1271,1293,1313,1331,1352,1373,1392,1412,1432,1452,1473,1492,1512,1531,1551,1573,1592,1612,1633,1652,1672,1692,1713,1733,1752,1773,1791,1812,1833,1852,1872],"xSR":741.5,"ySR":501.8,"xT1":424.9,"yT1":0,"xT2":1058.1,"yT2":0,"toosoon":0,"cond_shown":"Congruent","ratio_trial":100,"L_num":1,"L_den":2,"R_num":3,"R_den":5,"correct_side":2,"subjID":"gabrielbrocherobustillo35","gender":null,"school":"cafam","age":"12"},{"start_time":1551887333186,"click_time":1551887335038,"finger_time":1551887334277,"fix_duration":1088.9999485801234,"trial":26,"RT":1091,"MT":761,"sideResp":2,"stimulus":[],"xmouse":[792,792,792,792,792,792,792,792,792,792,792,792,792,792,792,792,792,792,792,792,791,791,791,791,791,790,787,783,782,782,782,782,782,782,782,782,782,782,782,782,782,782,782,782,782,782,782,782,782,782,782,782,785,787,790,791,792,794,794,794,794,794,794,794,794,794,794,794,794,794,796,806,818,824,837,875,933,975,1008,1019,1023,1031,1041,1041,1041,1041,1041,1041,1041,1041,1041,1041,1079],"ymouse":[567,567,567,567,567,567,567,567,567,567,567,567,567,567,567,567,567,567,567,567,567,566,564,552,548,543,534,522,520,520,520,520,520,520,520,520,520,520,520,520,520,520,520,520,520,520,520,520,520,520,520,517,509,502,497,494,492,490,490,490,490,490,490,490,490,490,490,490,490,490,479,459,432,420,404,364,273,193,126,95,69,45,1,1,1,1,1,1,1,1,1,1,26],"timestamp_mouse":[10,30,50,70,91,109,130,150,170,190,210,231,249,271,291,310,330,349,370,390,410,429,450,471,490,511,531,551,570,590,610,630,650,670,690,711,730,750,770,789,809,830,850,870,890,910,930,951,969,989,1010,1031,1050,1071,1091,1111,1130,1151,1170,1190,1211,1229,1251,1270,1290,1309,1331,1350,1370,1389,1411,1429,1451,1470,1491,1511,1529,1549,1570,1589,1609,1630,1651,1670,1690,1710,1730,1751,1770,1789,1809,1831,1852],"xSR":741.5,"ySR":501.8,"xT1":424.9,"yT1":0,"xT2":1058.1,"yT2":0,"toosoon":0,"cond_shown":"Incongruent","ratio_trial":300,"L_num":4,"L_den":20,"R_num":2,"R_den":4,"correct_side":2,"subjID":"gabrielbrocherobustillo35","gender":null,"school":"cafam","age":"12"},{"start_time":1551887336850,"click_time":1551887338638,"finger_time":1551887338337,"fix_duration":991.1595839091108,"trial":27,"RT":1487,"MT":301,"sideResp":1,"stimulus":[],"xmouse":[810,810,810,810,810,810,810,810,810,810,810,810,810,810,810,810,810,810,810,810,810,810,810,810,810,810,810,810,810,810,810,810,810,810,810,810,810,810,810,810,810,810,810,810,810,810,810,810,810,810,810,810,810,810,810,810,810,810,810,810,810,810,810,810,810,810,810,810,810,810,810,810,810,809,778,742,662,593,535,505,500,494,490,485,483,483,483,483,483,477],"ymouse":[531,531,531,531,531,531,531,531,531,531,531,531,531,531,531,531,531,531,531,531,531,531,531,531,531,531,531,531,531,531,531,531,531,531,531,531,531,531,531,531,531,531,531,531,531,531,531,531,531,531,531,531,531,531,531,531,531,531,531,531,531,531,531,531,531,531,531,531,531,531,531,531,531,523,436,367,267,207,165,143,138,130,122,114,109,109,109,109,109,86],"timestamp_mouse":[10,30,46,66,87,106,125,147,166,187,206,227,245,267,285,306,326,346,367,387,407,426,446,467,487,507,525,546,567,586,607,626,647,666,687,707,725,746,767,787,806,826,847,865,886,907,926,945,967,986,1006,1025,1047,1066,1085,1106,1127,1146,1166,1186,1205,1226,1245,1266,1286,1306,1326,1346,1365,1387,1407,1425,1446,1466,1487,1506,1526,1547,1565,1587,1606,1626,1647,1666,1686,1706,1726,1746,1766,1787],"xSR":741.5,"ySR":501.8,"xT1":424.9,"yT1":0,"xT2":1058.1,"yT2":0,"toosoon":0,"cond_shown":"Congruent","ratio_trial":300,"L_num":4,"L_den":10,"R_num":1,"R_den":10,"correct_side":1,"subjID":"gabrielbrocherobustillo35","gender":null,"school":"cafam","age":"12"},{"start_time":1551887339808,"click_time":1551887341137,"finger_time":1551887340736,"fix_duration":250,"trial":28,"RT":928,"MT":401,"sideResp":1,"stimulus":[],"xmouse":[765,765,765,765,765,765,765,765,765,765,765,765,765,765,765,765,765,765,765,765,765,765,765,765,765,765,765,765,765,765,765,765,765,765,765,765,765,765,765,765,765,765,765,765,762,758,726,701,680,653,642,610,594,576,565,557,554,552,552,552,552,551,546,542,532,526,515],"ymouse":[515,515,515,515,515,515,515,515,515,515,515,515,515,515,515,515,515,515,515,515,515,515,515,515,515,515,515,515,515,515,515,515,515,515,515,515,515,515,515,515,515,515,515,515,515,513,459,421,384,334,307,254,231,207,195,184,179,176,176,176,176,164,149,126,100,89,59],"timestamp_mouse":[8,29,48,68,88,109,127,148,168,187,207,229,249,267,288,307,328,348,368,388,407,428,447,467,488,508,527,547,568,589,607,627,648,668,688,708,728,748,767,788,808,828,847,868,889,908,928,947,968,988,1009,1029,1048,1069,1089,1109,1128,1147,1167,1189,1208,1229,1247,1269,1287,1307,1329],"xSR":741.5,"ySR":501.8,"xT1":424.9,"yT1":0,"xT2":1058.1,"yT2":0,"toosoon":0,"cond_shown":"Congruent","ratio_trial":300,"L_num":8,"L_den":16,"R_num":1,"R_den":5,"correct_side":1,"subjID":"gabrielbrocherobustillo35","gender":null,"school":"cafam","age":"12"},{"start_time":1551887342103,"click_time":1551887343737,"finger_time":1551887343137,"fix_duration":324.4624652997044,"trial":29,"RT":1034,"MT":600,"sideResp":1,"stimulus":[],"xmouse":[804,804,804,804,804,804,804,804,804,804,804,804,804,804,804,804,804,804,804,804,804,804,804,804,804,804,804,804,804,804,804,804,804,804,804,804,804,804,804,804,804,804,804,804,804,804,803,798,787,777,765,728,703,685,667,651,628,619,611,604,591,583,573,564,561,559,557,550,545,537,534,531,530,529,528,528,528,528,528,528,526,522],"ymouse":[567,567,567,567,567,567,567,567,567,567,567,567,567,567,567,567,567,567,567,567,567,567,567,567,567,567,567,567,567,567,567,567,567,567,567,567,567,567,567,567,567,567,567,567,567,567,566,562,548,535,516,465,434,412,391,372,337,319,300,282,246,221,172,145,132,123,118,105,98,90,86,83,81,80,80,80,80,80,80,80,79,74],"timestamp_mouse":[13,34,53,72,94,113,133,152,172,193,213,233,254,273,294,313,333,353,374,393,414,433,453,472,493,513,533,552,573,594,612,634,652,674,693,713,732,754,773,793,814,834,852,873,893,913,932,953,973,994,1012,1034,1053,1073,1093,1113,1134,1153,1173,1193,1214,1234,1253,1273,1293,1313,1333,1354,1374,1393,1412,1433,1452,1474,1493,1514,1533,1552,1573,1593,1613,1634],"xSR":741.5,"ySR":501.8,"xT1":424.9,"yT1":0,"xT2":1058.1,"yT2":0,"toosoon":0,"cond_shown":"Congruent","ratio_trial":100,"L_num":11,"L_den":22,"R_num":4,"R_den":10,"correct_side":1,"subjID":"gabrielbrocherobustillo35","gender":null,"school":"cafam","age":"12"},{"start_time":1551887346477,"click_time":1551887348176,"finger_time":1551887347736,"fix_duration":1380.6262968200153,"trial":30,"RT":1259,"MT":440,"sideResp":1,"stimulus":[],"xmouse":[776,776,776,776,776,776,776,776,776,776,776,776,776,776,776,776,776,776,776,776,776,776,776,776,776,776,776,776,776,776,776,776,776,776,776,776,776,776,776,776,776,776,776,776,776,776,776,776,776,776,776,776,776,776,776,776,776,776,776,772,764,755,741,700,654,623,582,513,499,492,488,486,486,486,486,486,486,486,486,486,484,482,480,474,473],"ymouse":[583,583,583,583,583,583,583,582,581,581,581,580,580,580,580,580,580,580,580,580,580,580,580,580,580,580,580,580,580,580,580,580,580,580,580,580,580,580,580,580,580,580,580,580,580,579,579,579,579,576,574,574,574,574,574,574,574,574,573,570,563,552,538,492,437,399,353,268,241,217,196,178,170,170,170,170,170,170,170,170,167,157,144,110,89],"timestamp_mouse":[21,40,60,79,100,119,139,160,180,199,218,238,260,279,298,319,339,359,378,398,418,440,459,480,498,519,538,560,579,598,620,638,658,680,700,719,738,759,778,800,819,838,859,880,898,919,939,959,980,1000,1020,1039,1059,1079,1098,1120,1139,1160,1179,1199,1218,1240,1259,1279,1299,1319,1339,1359,1378,1399,1418,1439,1460,1478,1500,1520,1540,1559,1579,1600,1620,1640,1659,1678,1698],"xSR":741.5,"ySR":501.8,"xT1":424.9,"yT1":0,"xT2":1058.1,"yT2":0,"toosoon":0,"cond_shown":"Incongruent","ratio_trial":200,"L_num":4,"L_den":5,"R_num":6,"R_den":10,"correct_side":1,"subjID":"gabrielbrocherobustillo35","gender":null,"school":"cafam","age":"12"},{"start_time":1551887349427,"click_time":1551887351256,"finger_time":1551887350816,"fix_duration":590.0582170322333,"trial":31,"RT":1389,"MT":440,"sideResp":1,"stimulus":[],"xmouse":[795,795,795,795,795,795,795,795,795,795,795,795,795,795,795,795,795,795,795,795,795,795,795,795,795,795,795,795,795,795,795,795,795,795,795,795,795,795,795,795,795,795,795,795,795,795,795,795,795,795,795,795,795,795,795,795,795,795,795,795,795,795,795,795,795,795,795,790,782,772,763,754,748,741,737,719,706,675,658,646,640,630,624,618,606,583,579,575,568,558,537,522],"ymouse":[552,552,552,552,552,552,552,552,552,552,552,552,552,552,552,552,552,552,552,552,552,552,552,552,552,552,552,552,552,552,552,552,552,552,552,552,552,552,552,552,552,552,552,552,552,552,552,552,552,552,552,552,552,552,552,552,552,552,552,552,552,552,552,552,552,552,546,532,511,487,465,437,416,394,366,302,278,228,213,208,206,199,194,186,173,154,150,145,137,128,99,87],"timestamp_mouse":[9,37,50,69,89,109,129,149,170,189,210,230,248,270,289,309,328,350,370,388,408,429,450,469,489,509,530,550,569,589,609,630,649,669,690,709,729,749,770,790,808,829,850,869,889,910,928,950,969,989,1011,1029,1049,1069,1088,1109,1129,1149,1169,1189,1209,1229,1249,1269,1289,1310,1330,1349,1369,1389,1409,1430,1449,1469,1489,1511,1529,1548,1569,1590,1609,1630,1649,1670,1689,1710,1729,1749,1770,1789,1810,1829],"xSR":741.5,"ySR":501.8,"xT1":424.9,"yT1":0,"xT2":1058.1,"yT2":0,"toosoon":0,"cond_shown":"Incongruent","ratio_trial":200,"L_num":7,"L_den":10,"R_num":12,"R_den":24,"correct_side":1,"subjID":"gabrielbrocherobustillo35","gender":null,"school":"cafam","age":"12"},{"start_time":1551887353090,"click_time":1551887354856,"finger_time":1551887354176,"fix_duration":972.5872577931622,"trial":32,"RT":1086,"MT":680,"sideResp":2,"stimulus":[],"xmouse":[780,780,780,780,780,780,780,780,780,780,780,780,782,783,783,783,783,783,783,784,784,784,784,784,784,784,784,786,786,787,788,789,791,791,791,791,791,791,791,791,791,791,791,791,791,791,791,791,791,791,791,792,799,830,859,883,896,906,934,942,946,950,958,974,986,993,1003,1036,1048,1052,1054,1054,1054,1054,1054,1054,1054,1054,1054,1054,1054,1055,1057,1058,1058,1058,1058,1060,1064],"ymouse":[569,569,569,569,569,569,569,569,569,569,569,569,570,570,570,570,570,570,570,571,571,571,571,571,571,571,571,571,571,571,571,571,573,573,573,573,573,573,573,573,573,573,573,573,573,573,573,573,573,573,573,572,568,548,533,522,516,511,485,475,468,457,439,398,361,337,304,222,201,190,188,188,188,188,188,188,188,188,188,188,186,177,159,140,127,119,111,100,92],"timestamp_mouse":[10,28,47,67,87,107,127,146,166,186,207,226,246,267,286,306,327,346,366,386,407,426,446,466,485,507,527,547,566,586,607,626,645,667,686,706,726,746,765,787,806,826,847,867,885,906,926,946,967,985,1005,1026,1047,1067,1086,1106,1126,1147,1167,1186,1205,1226,1246,1266,1286,1307,1327,1347,1366,1386,1408,1427,1447,1466,1487,1508,1526,1547,1566,1586,1607,1626,1647,1666,1686,1706,1727,1748,1766],"xSR":741.5,"ySR":501.8,"xT1":424.9,"yT1":0,"xT2":1058.1,"yT2":0,"toosoon":0,"cond_shown":"Congruent","ratio_trial":200,"L_num":7,"L_den":15,"R_num":18,"R_den":27,"correct_side":2,"subjID":"gabrielbrocherobustillo35","gender":null,"school":"cafam","age":"12"},{"start_time":1551887358506,"click_time":1551887365457,"finger_time":1551887365057,"fix_duration":1228.6312502451692,"trial":33,"RT":6551,"MT":400,"sideResp":1,"stimulus":[],"xmouse":[776,789,789,801,803,803,803,803,803,803,803,803,803,803,803,803,803,803,803,803,803,803,803,803,803,803,803,803,803,803,803,803,803,803,803,803,803,803,803,803,803,803,803,803,803,803,803,803,803,803,803,803,803,803,803,803,803,803,803,803,803,803,803,803,803,803,803,803,803,803,803,803,803,803,803,803,803,803,803,803,803,803,803,803,803,803,803,803,803,803,803,803,803,803,803,803,803,803,803,803,803,803,803,803,803,803,803,803,803,803,803,803,803,803,803,803,803,803,803,803,803,803,803,803,803,803,803,803,803,803,803,803,803,803,803,803,803,803,803,803,803,803,803,803,803,803,803,803,803,803,803,803,803,803,803,803,803,803,803,803,803,803,803,803,803,803,803,803,803,803,803,803,803,803,803,803,803,803,803,803,803,803,803,803,803,803,803,803,803,803,803,803,803,803,803,803,803,803,803,803,803,803,803,803,803,803,803,803,803,803,803,803,803,803,803,803,803,803,803,803,803,803,803,803,803,803,803,803,803,803,803,803,803,803,803,803,803,803,803,803,803,803,803,803,803,803,803,803,803,803,803,803,803,803,803,803,803,803,803,803,803,803,803,803,803,803,803,803,803,803,803,803,811,816,816,816,816,816,816,816,816,816,816,816,816,816,816,811,805,797,790,785,783,780,778,777,777,777,777,779,781,797,805,809,809,809,809,809,809,809,809,809,809,809,809,809,809,809,809,809,809,808,803,796,793,792,784,760,739,726,715,688,663,652,641,631,617,609,604,601,596,578,553,531,509,498,472,451],"ymouse":[526,535,535,552,555,555,555,555,555,555,555,555,555,555,555,555,555,555,555,555,555,555,555,555,555,555,555,555,555,555,555,555,555,555,555,555,555,555,555,555,555,555,555,555,555,555,555,555,555,555,555,555,555,555,555,555,555,555,555,555,555,555,555,555,555,555,555,555,555,555,555,555,555,555,555,555,555,555,555,555,555,555,555,555,555,555,555,555,555,555,555,555,555,555,555,555,555,555,555,555,555,555,555,555,555,555,555,555,555,555,555,555,555,555,555,555,555,555,555,555,555,555,555,555,555,555,555,555,555,555,555,555,555,555,555,555,555,555,555,555,555,555,555,555,555,555,555,555,555,555,555,555,555,555,555,555,555,555,555,555,555,555,555,555,555,555,555,555,555,555,555,555,555,555,555,555,555,555,555,555,555,555,555,555,555,555,555,555,555,555,555,555,555,555,555,555,555,555,555,555,555,555,555,555,555,555,555,555,555,555,555,555,555,555,555,555,555,555,555,555,555,555,555,555,555,555,555,555,555,555,555,555,555,555,555,555,555,555,555,555,555,555,555,555,555,555,555,555,555,555,555,555,555,555,555,555,555,555,555,555,555,555,555,555,555,555,555,555,555,555,555,555,559,560,560,560,560,560,560,560,560,560,560,560,560,560,560,558,554,551,547,545,545,543,542,542,541,541,541,539,539,539,538,537,537,537,537,537,537,537,537,537,537,537,537,537,537,537,536,536,535,534,532,529,527,527,516,469,425,401,388,347,308,285,258,233,200,186,178,173,164,142,129,124,121,118,108,93],"timestamp_mouse":[11,44,51,71,91,110,132,151,170,192,211,230,251,271,290,310,331,351,371,390,410,432,451,471,492,511,531,550,571,591,611,631,651,671,690,710,730,750,771,790,811,830,851,871,891,911,931,952,971,991,1011,1030,1050,1070,1091,1110,1132,1150,1171,1192,1211,1230,1251,1270,1291,1311,1330,1350,1371,1391,1410,1431,1450,1471,1491,1510,1530,1550,1572,1591,1610,1630,1651,1670,1691,1711,1731,1751,1771,1790,1810,1832,1850,1871,1890,1910,1932,1952,1971,1991,2010,2031,2052,2070,2092,2110,2132,2151,2171,2190,2210,2230,2251,2272,2292,2310,2331,2350,2371,2390,2410,2431,2452,2470,2490,2511,2530,2551,2571,2590,2611,2632,2651,2671,2690,2712,2731,2750,2771,2790,2811,2832,2851,2870,2891,2910,2932,2952,2971,2991,3011,3032,3051,3071,3091,3111,3131,3151,3171,3190,3212,3231,3252,3271,3290,3312,3330,3350,3371,3391,3412,3430,3450,3471,3491,3512,3530,3551,3572,3590,3611,3631,3651,3670,3690,3711,3731,3752,3770,3791,3810,3832,3850,3871,3891,3912,3930,3951,3972,3991,4010,4032,4050,4070,4091,4110,4131,4150,4170,4191,4210,4232,4251,4270,4290,4311,4330,4352,4370,4390,4411,4431,4450,4472,4492,4511,4531,4551,4571,4591,4611,4631,4650,4671,4691,4710,4730,4751,4771,4791,4810,4830,4851,4871,4890,4911,4932,4952,4971,4992,5010,5031,5050,5070,5090,5111,5131,5150,5170,5191,5212,5230,5251,5271,5290,5311,5332,5350,5370,5390,5411,5430,5450,5471,5490,5512,5531,5550,5572,5590,5611,5631,5650,5671,5690,5711,5731,5750,5771,5791,5811,5832,5851,5870,5891,5912,5930,5950,5970,5992,6010,6031,6051,6071,6090,6111,6131,6151,6171,6192,6210,6230,6252,6271,6291,6311,6330,6351,6371,6391,6410,6430,6451,6471,6491,6511,6532,6550,6570,6592,6611,6631,6650,6671,6691,6710,6731,6750,6770,6792,6810,6831,6850,6870,6892,6910,6932,6950],"xSR":741.5,"ySR":501.8,"xT1":424.9,"yT1":0,"xT2":1058.1,"yT2":0,"toosoon":0,"cond_shown":"Congruent","ratio_trial":200,"L_num":13,"L_den":26,"R_num":14,"R_den":20,"correct_side":2,"subjID":"gabrielbrocherobustillo35","gender":null,"school":"cafam","age":"12"},{"start_time":1551887367728,"click_time":1551887373398,"finger_time":1551887372337,"fix_duration":871.7279028077593,"trial":34,"RT":4609,"MT":1061,"sideResp":1,"stimulus":[],"xmouse":[781,781,781,781,781,781,781,781,781,781,781,781,781,781,781,781,781,781,781,781,781,781,781,781,781,781,781,781,781,781,781,781,781,781,781,781,781,781,781,781,781,781,781,781,781,781,781,781,781,781,781,781,781,781,781,781,781,781,781,781,781,781,781,781,781,781,781,781,781,781,781,781,781,781,781,781,781,781,781,781,781,781,781,780,779,778,778,778,778,778,778,778,778,778,778,778,778,778,778,778,778,778,778,778,779,780,780,780,780,780,780,780,780,781,781,781,781,782,782,782,782,782,782,782,782,782,782,782,782,782,782,782,782,782,782,782,782,781,780,780,780,780,780,780,780,780,780,780,780,780,780,780,780,780,780,780,780,780,780,780,781,781,781,781,782,783,784,784,784,784,784,784,784,784,784,784,784,784,784,784,780,779,779,779,779,779,779,779,779,779,779,779,779,779,779,779,779,779,779,779,779,779,779,779,779,779,779,779,780,780,784,786,788,788,788,788,788,789,789,789,789,789,789,789,789,784,781,780,780,780,779,779,779,779,779,779,779,779,782,783,787,790,790,790,790,790,790,790,790,790,790,790,790,790,790,790,790,790,790,790,790,790,789,787,783,781,777,772,768,764,751,717,691,668,643,610,549,526,514,509,508,504,499,495],"ymouse":[544,544,544,544,544,544,544,544,544,544,544,544,544,544,544,544,544,544,544,544,544,544,544,544,544,544,544,544,544,544,544,544,544,544,544,544,544,544,544,544,544,544,544,544,544,544,544,544,544,544,544,544,544,544,544,544,544,544,544,544,544,544,544,544,544,544,544,544,544,544,544,544,544,544,544,544,544,544,544,544,544,544,544,543,542,542,542,542,542,542,542,542,542,542,542,542,542,542,542,542,542,541,541,543,544,545,545,545,545,545,545,545,545,546,546,546,546,546,546,546,546,546,546,546,546,546,546,546,546,547,547,547,547,547,547,547,547,542,540,538,537,536,536,536,536,536,536,536,536,536,536,536,536,536,536,536,536,536,536,536,536,536,536,536,536,536,537,538,538,538,538,538,538,538,538,538,538,538,538,540,549,553,553,553,553,553,553,553,553,553,553,553,553,553,553,553,553,553,553,553,553,553,553,553,553,553,553,553,546,543,532,525,517,515,514,514,513,512,512,512,512,512,512,513,516,551,567,578,585,596,603,606,608,608,608,608,608,602,591,582,569,548,544,544,544,544,544,544,544,544,543,543,543,543,543,543,543,543,543,543,543,543,543,542,538,530,512,495,489,487,475,438,408,384,356,321,240,206,183,165,153,130,109,96],"timestamp_mouse":[9,36,48,70,88,108,128,149,169,188,209,228,248,270,288,308,330,348,369,388,408,429,448,468,489,508,529,550,568,589,609,629,648,668,688,708,728,748,769,788,808,828,849,868,889,909,930,948,968,988,1008,1028,1048,1068,1088,1108,1130,1148,1170,1190,1209,1228,1249,1270,1289,1309,1329,1348,1369,1389,1408,1429,1448,1468,1488,1509,1528,1548,1569,1588,1609,1628,1649,1670,1688,1708,1728,1749,1768,1788,1808,1830,1849,1868,1890,1908,1929,1948,1969,1988,2008,2029,2049,2069,2088,2110,2129,2148,2170,2190,2208,2229,2249,2270,2288,2309,2329,2349,2368,2389,2409,2430,2448,2469,2489,2510,2529,2549,2569,2588,2608,2630,2649,2668,2689,2708,2729,2749,2768,2789,2809,2828,2849,2869,2888,2909,2929,2949,2970,2989,3009,3028,3049,3069,3090,3110,3128,3150,3168,3188,3208,3228,3248,3269,3289,3309,3330,3348,3369,3388,3408,3428,3450,3468,3489,3509,3530,3548,3568,3588,3609,3629,3650,3668,3688,3708,3728,3748,3770,3789,3809,3830,3848,3868,3888,3908,3928,3950,3969,3989,4008,4029,4049,4069,4088,4109,4129,4150,4169,4190,4209,4229,4250,4268,4288,4309,4330,4350,4368,4389,4409,4428,4449,4470,4488,4509,4529,4550,4570,4588,4609,4628,4649,4670,4689,4709,4729,4749,4768,4788,4808,4828,4850,4868,4888,4908,4929,4949,4969,4988,5009,5029,5048,5070,5089,5109,5128,5148,5169,5188,5208,5228,5249,5269,5288,5310,5329,5348,5370,5389,5410,5429,5448,5468,5488,5509,5528,5549,5568,5588,5609,5629,5649,5670],"xSR":741.5,"ySR":501.8,"xT1":424.9,"yT1":0,"xT2":1058.1,"yT2":0,"toosoon":0,"cond_shown":"Incongruent","ratio_trial":300,"L_num":1,"L_den":2,"R_num":3,"R_den":15,"correct_side":1,"subjID":"gabrielbrocherobustillo35","gender":null,"school":"cafam","age":"12"},{"start_time":1551887374685,"click_time":1551887376197,"finger_time":1551887376036,"fix_duration":386.4816459438775,"trial":35,"RT":1351,"MT":161,"sideResp":1,"stimulus":[],"xmouse":[776,777,777,777,777,777,777,777,777,777,777,777,777,777,777,777,777,777,777,777,777,777,777,777,777,777,777,777,777,777,777,777,777,777,777,777,777,777,777,777,777,777,777,777,777,777,777,777,777,777,777,777,777,777,777,777,777,777,777,777,777,777,777,778,778,770,759,744,723,711,702,688,595,532,526,518],"ymouse":[538,538,538,538,538,538,538,538,538,538,538,538,538,538,538,538,538,538,538,538,538,538,538,538,538,538,538,538,538,538,538,538,538,538,538,538,538,538,538,538,538,538,538,538,538,538,538,538,538,538,538,538,538,538,538,538,538,538,538,538,538,538,538,538,535,521,503,483,453,434,418,390,189,108,100,89],"timestamp_mouse":[13,32,51,72,92,111,132,152,172,193,212,232,251,273,291,312,331,351,371,392,411,432,451,473,491,511,532,552,571,591,611,632,651,671,692,712,731,753,771,791,811,831,851,872,892,912,931,951,972,991,1012,1032,1052,1071,1092,1112,1131,1152,1172,1191,1213,1231,1251,1271,1293,1312,1332,1351,1372,1391,1413,1432,1452,1471,1491,1512],"xSR":741.5,"ySR":501.8,"xT1":424.9,"yT1":0,"xT2":1058.1,"yT2":0,"toosoon":0,"cond_shown":"Congruent","ratio_trial":100,"L_num":2,"L_den":5,"R_num":6,"R_den":12,"correct_side":2,"subjID":"gabrielbrocherobustillo35","gender":null,"school":"cafam","age":"12"},{"start_time":1551887377669,"click_time":1551887379257,"finger_time":1551887378857,"fix_duration":250,"trial":36,"RT":1188,"MT":400,"sideResp":1,"stimulus":[],"xmouse":[810,810,810,810,810,810,810,810,810,810,810,810,810,810,810,810,810,810,810,810,810,810,810,810,810,810,810,810,810,810,810,810,810,810,810,810,810,810,810,810,810,810,810,810,810,810,810,810,810,810,810,810,810,810,810,810,808,807,790,738,712,692,672,610,582,565,539,521,511,499,498,498,497,495,495,495,495,495,495,494],"ymouse":[557,557,557,557,557,557,557,557,557,557,557,557,557,557,557,557,557,557,557,557,557,557,557,557,557,557,557,557,557,557,557,557,557,557,557,557,557,557,557,557,557,557,557,557,557,557,557,557,557,557,557,557,557,557,557,557,556,555,531,483,461,444,425,350,314,292,262,237,220,187,181,178,172,152,146,139,131,119,104,74],"timestamp_mouse":[10,29,49,68,88,109,129,148,168,188,208,228,247,267,289,309,329,347,367,388,407,428,448,467,487,507,527,547,567,587,608,629,647,668,687,707,728,747,769,788,808,828,847,868,888,907,928,948,968,988,1007,1029,1047,1068,1088,1107,1127,1147,1167,1188,1208,1227,1248,1268,1287,1307,1328,1347,1368,1388,1407,1429,1448,1468,1487,1508,1528,1548,1567,1588],"xSR":741.5,"ySR":501.8,"xT1":424.9,"yT1":0,"xT2":1058.1,"yT2":0,"toosoon":0,"cond_shown":"Incongruent","ratio_trial":100,"L_num":9,"L_den":10,"R_num":20,"R_den":25,"correct_side":1,"subjID":"gabrielbrocherobustillo35","gender":null,"school":"cafam","age":"12"},{"start_time":1551887381289,"click_time":1551887383238,"finger_time":1551887382656,"fix_duration":1210.4045139800116,"trial":37,"RT":1367,"MT":582,"sideResp":1,"stimulus":[],"xmouse":[802,802,802,802,802,800,797,788,783,781,779,779,779,779,779,779,779,779,779,779,779,778,778,778,778,778,778,778,778,778,778,778,778,778,778,778,778,778,778,778,778,778,778,778,778,778,778,778,778,778,778,778,778,776,775,774,773,772,772,772,770,770,770,770,770,768,760,753,741,733,724,714,671,648,622,610,604,602,595,592,587,581,569,564,557,551,545,540,528,524,523,521,519,519,519,519,518,516],"ymouse":[539,539,539,539,541,547,551,561,567,571,572,572,572,572,572,572,572,572,572,572,572,572,572,572,572,572,572,572,572,572,572,572,572,572,572,572,572,572,572,572,572,572,572,572,572,572,572,572,572,572,572,572,572,572,572,572,571,571,571,571,571,571,571,571,570,568,555,530,479,452,428,409,349,322,289,273,259,250,233,228,221,208,180,162,139,130,120,116,109,107,105,104,103,103,103,103,102,97],"timestamp_mouse":[21,34,48,68,89,108,127,148,167,187,208,229,247,269,289,307,328,349,367,388,407,427,449,467,489,508,527,548,567,587,609,628,647,668,687,707,728,748,767,788,807,827,848,869,887,908,928,947,967,989,1008,1028,1048,1068,1088,1109,1128,1149,1168,1188,1208,1228,1248,1268,1287,1307,1328,1347,1367,1388,1408,1427,1449,1468,1487,1508,1527,1548,1567,1588,1608,1627,1648,1667,1688,1709,1728,1748,1768,1787,1807,1828,1849,1867,1887,1907,1928,1949],"xSR":741.5,"ySR":501.8,"xT1":424.9,"yT1":0,"xT2":1058.1,"yT2":0,"toosoon":0,"cond_shown":"Congruent","ratio_trial":100,"L_num":15,"L_den":25,"R_num":13,"R_den":26,"correct_side":1,"subjID":"gabrielbrocherobustillo35","gender":null,"school":"cafam","age":"12"},{"start_time":1551887385289,"click_time":1551887386877,"finger_time":1551887386336,"fix_duration":1171.0650056910865,"trial":38,"RT":1047,"MT":541,"sideResp":2,"stimulus":[],"xmouse":[787,787,787,787,787,787,787,787,787,787,787,787,787,787,787,787,787,787,787,787,787,787,787,787,788,788,788,788,788,788,788,788,788,788,788,788,788,788,788,788,788,788,788,788,788,788,788,788,788,788,807,816,837,857,864,868,874,894,905,917,927,936,957,976,991,1008,1025,1043,1072,1080,1081,1082,1082,1082,1082,1082,1084,1086,1086,1086],"ymouse":[543,543,543,543,543,543,543,543,543,543,543,543,543,543,543,543,543,543,543,543,543,543,543,543,543,543,543,543,543,543,543,543,543,543,543,543,543,543,543,543,543,543,543,543,543,543,543,543,543,543,514,502,479,449,435,425,413,385,369,350,338,325,301,284,269,251,236,216,179,166,163,163,163,163,160,155,145,132,105,97],"timestamp_mouse":[9,37,48,67,88,107,127,148,167,187,208,228,247,268,287,308,328,347,368,388,408,427,449,468,487,507,527,547,567,587,607,627,647,667,688,709,727,748,768,787,807,827,847,868,887,907,927,948,968,988,1008,1028,1047,1069,1087,1108,1129,1149,1167,1187,1209,1229,1248,1267,1288,1308,1329,1349,1368,1387,1408,1428,1447,1467,1487,1507,1527,1548,1568,1588],"xSR":741.5,"ySR":501.8,"xT1":424.9,"yT1":0,"xT2":1058.1,"yT2":0,"toosoon":0,"cond_shown":"Incongruent","ratio_trial":100,"L_num":8,"L_den":20,"R_num":1,"R_den":2,"correct_side":2,"subjID":"gabrielbrocherobustillo35","gender":null,"school":"cafam","age":"12"},{"start_time":1551887389121,"click_time":1551887390596,"finger_time":1551887390078,"fix_duration":963.7973922300498,"trial":39,"RT":957,"MT":518,"sideResp":2,"stimulus":[],"xmouse":[817,817,817,817,817,817,817,817,817,817,817,817,817,817,817,817,817,817,817,817,817,817,817,817,817,817,817,817,817,817,817,817,817,817,817,817,817,817,817,817,817,817,817,817,817,817,828,843,875,897,919,948,984,1004,1016,1023,1028,1029,1029,1029,1029,1029,1033,1033,1034,1035,1035,1035,1036,1038,1040,1045,1054,1059],"ymouse":[539,539,539,539,539,539,539,539,539,539,539,539,539,539,539,539,539,539,539,539,539,539,539,539,539,539,539,539,539,539,539,539,539,539,539,539,539,539,539,539,539,539,539,539,539,539,516,490,453,422,389,333,269,221,189,163,132,127,126,126,126,126,123,120,118,117,117,117,117,117,117,112,97,88],"timestamp_mouse":[15,35,55,77,96,115,137,155,175,196,215,236,256,275,295,316,336,356,376,397,416,436,455,476,496,516,536,555,575,596,615,637,656,676,696,715,737,756,776,797,815,836,856,875,895,917,936,957,975,997,1016,1035,1055,1075,1095,1116,1136,1156,1176,1195,1216,1237,1255,1276,1295,1316,1335,1355,1375,1395,1416,1436,1456,1475],"xSR":741.5,"ySR":501.8,"xT1":424.9,"yT1":0,"xT2":1058.1,"yT2":0,"toosoon":0,"cond_shown":"Incongruent","ratio_trial":300,"L_num":4,"L_den":20,"R_num":2,"R_den":4,"correct_side":2,"subjID":"gabrielbrocherobustillo35","gender":null,"school":"cafam","age":"12"},{"start_time":1551887392426,"click_time":1551887394317,"finger_time":1551887393917,"fix_duration":1088.9392829053004,"trial":40,"RT":1491,"MT":400,"sideResp":2,"stimulus":[],"xmouse":[813,813,813,813,813,813,813,813,813,813,813,813,813,813,813,813,813,813,813,813,813,813,813,813,813,813,813,813,813,813,813,813,813,813,813,813,813,813,813,813,813,813,813,813,813,813,813,813,813,813,813,813,813,813,813,813,813,813,813,813,813,813,813,813,813,813,813,813,813,813,813,813,813,834,873,958,1065,1083,1084,1084,1085,1085,1085,1086,1092,1095,1097,1098,1100,1102,1101,1093,1090,1087,1087],"ymouse":[537,537,537,537,537,537,537,537,537,537,537,537,537,537,537,537,537,537,537,537,537,537,537,537,537,537,537,537,537,537,537,537,537,537,537,537,537,537,537,537,537,537,537,537,537,537,537,537,537,537,537,537,537,537,537,537,537,537,537,537,537,537,537,537,537,537,537,537,537,537,537,537,537,528,507,467,398,365,354,345,334,299,291,265,250,238,218,208,193,180,157,140,122,106,95],"timestamp_mouse":[11,30,51,71,91,111,132,151,170,191,210,230,251,271,292,312,332,350,371,391,410,431,450,470,492,510,530,550,571,591,610,631,650,670,691,711,730,750,770,790,812,830,850,870,891,910,931,950,971,990,1010,1031,1050,1070,1090,1110,1131,1152,1170,1191,1210,1230,1250,1271,1290,1312,1330,1352,1370,1390,1410,1431,1451,1470,1491,1511,1531,1552,1570,1590,1610,1630,1651,1670,1690,1710,1730,1750,1772,1791,1812,1830,1850,1871,1891],"xSR":741.5,"ySR":501.8,"xT1":424.9,"yT1":0,"xT2":1058.1,"yT2":0,"toosoon":0,"cond_shown":"Congruent","ratio_trial":100,"L_num":3,"L_den":20,"R_num":4,"R_den":16,"correct_side":2,"subjID":"gabrielbrocherobustillo35","gender":null,"school":"cafam","age":"12"},{"start_time":1551887395545,"click_time":1551887397237,"finger_time":1551887396897,"fix_duration":368.5428746431858,"trial":41,"RT":1352,"MT":340,"sideResp":1,"stimulus":[],"xmouse":[794,794,794,794,794,794,794,794,794,794,794,794,794,794,794,794,794,794,794,794,794,794,794,794,794,794,794,794,794,794,794,794,794,794,794,794,794,794,794,794,794,794,794,794,794,794,794,794,794,794,794,794,794,794,794,794,794,794,794,794,794,794,794,794,792,778,752,720,673,628,552,531,492,453,424,420,418,416,414,411,411,411,416,421,426],"ymouse":[545,545,545,545,545,545,545,545,545,545,545,545,545,545,545,545,545,545,545,545,545,545,545,545,545,545,545,545,545,545,545,545,545,545,545,545,545,545,545,545,545,545,545,545,545,545,545,545,545,545,545,545,545,545,545,545,545,545,545,545,545,545,545,545,545,533,510,476,429,386,312,278,213,151,114,107,103,100,93,78,73,70,64,61,59],"timestamp_mouse":[11,36,53,72,91,113,131,152,172,191,212,232,251,273,291,311,331,351,372,392,412,432,451,471,492,513,531,552,572,591,6