[{"start_time":1551887833434,"click_time":1551887834737,"finger_time":1551887834177,"fix_duration":1293.6392142287918,"trial":0,"RT":743,"MT":560,"sideResp":1,"stimulus":"img/900/equaldotanddens/L/1_Ratio_900_L_10_R_9.png","xmouse":[790,790,790,790,790,790,790,790,790,790,790,790,790,790,790,790,790,790,791,803,815,815,815,815,815,815,815,815,815,815,815,815,815,815,815,818,838,828,814,803,793,775,765,763,762,758,740,740,740,740,734,694,661,620,607,595,594,592,592,592,592,592,587,574,534,483],"ymouse":[522,522,522,522,522,522,522,522,522,522,522,522,522,522,522,522,522,522,522,516,515,515,515,515,515,515,515,515,515,515,515,515,515,515,515,512,486,461,442,415,393,330,309,298,298,293,272,271,271,271,266,223,196,156,137,121,117,116,115,115,115,115,112,102,87,64],"timestamp_mouse":[8,31,43,62,83,103,122,144,162,184,203,224,243,263,282,303,324,344,362,383,403,422,444,464,482,503,523,543,564,582,603,623,642,662,684,703,724,743,763,782,802,823,842,863,884,903,924,944,963,984,1002,1023,1043,1064,1084,1103,1122,1143,1163,1182,1203,1223,1243,1262,1283,1303],"xSR":741.5,"ySR":469.95,"xT1":424.9,"yT1":0,"xT2":1058.1,"yT2":0,"toosoon":0,"cond_shown":"equaldotanddens","ratio_trial":900,"smaller_num":"9","larger_num":"10","correct_side":1,"subjID":"gabrielbrocherobustillo","gender":"0","age":"12","school":"6","test":{"fix_dur":[250,1500],"timestim":300,"targets_dim":[100,100],"targets_relative_coord":[0.3,0.7],"size_stim":[880,420],"start_dim":[100,100],"size_start":[300,300],"size_fix":60,"samplingrate":20,"img_types":["equaldotsize","equaldotanddens","randomdotsizeEA"],"ratios":[250,500,750,900],"rep_conds":9,"nTrials":120,"trials_to_rest":500,"Trials_order":[82,29,69,40,81,1,25,35,49,89,32,115,4,100,98,53,85,86,41,95,55,80,39,52,64,19,119,112,26,36,54,47,30,3,63,44,14,46,62,48,38,114,13,109,0,51,43,91,101,84,61,108,60,56,34,50,11,87,23,42,73,8,97,79,5,7,104,113,88,96,12,71,22,37,2,33,68,67,16,117,17,57,102,59,6,18,116,105,90,15,58,27,94,66,74,118,10,93,20,28,110,45,107,78,70,111,75,24,99,83,76,31,103,21,9,92,72,65,77,106],"cond_shown":["equaldotanddens","randomdotsizeEA","equaldotsize","equaldotanddens","equaldotsize","equaldotanddens","equaldotanddens","randomdotsizeEA","equaldotanddens","randomdotsizeEA","randomdotsizeEA","equaldotanddens","equaldotanddens","equaldotanddens","randomdotsizeEA","randomdotsizeEA","equaldotanddens","randomdotsizeEA","randomdotsizeEA","randomdotsizeEA","equaldotanddens","randomdotsizeEA","equaldotsize","equaldotanddens","equaldotanddens","equaldotanddens","randomdotsizeEA","equaldotanddens","randomdotsizeEA","equaldotsize","equaldotsize","randomdotsizeEA","equaldotsize","equaldotsize","equaldotsize","randomdotsizeEA","randomdotsizeEA","equaldotanddens","randomdotsizeEA","equaldotsize","randomdotsizeEA","equaldotsize","equaldotanddens","equaldotanddens","equaldotsize","equaldotsize","equaldotanddens","equaldotanddens","randomdotsizeEA","equaldotsize","equaldotanddens","equaldotsize","equaldotsize","randomdotsizeEA","equaldotanddens","randomdotsizeEA","randomdotsizeEA","equaldotsize","randomdotsizeEA","equaldotsize","equaldotanddens","randomdotsizeEA","equaldotanddens","equaldotanddens","randomdotsizeEA","equaldotanddens","randomdotsizeEA","randomdotsizeEA","equaldotanddens","equaldotsize","equaldotsize","randomdotsizeEA","equaldotanddens","equaldotanddens","randomdotsizeEA","equaldotsize","randomdotsizeEA","equaldotanddens","equaldotanddens","equaldotsize","randomdotsizeEA","equaldotsize","equaldotsize","randomdotsizeEA","equaldotsize","equaldotsize","randomdotsizeEA","equaldotsize","equaldotsize","equaldotsize","equaldotanddens","equaldotsize","equaldotanddens","equaldotsize","randomdotsizeEA","equaldotanddens","equaldotanddens","equaldotsize","randomdotsizeEA","equaldotanddens","randomdotsizeEA","equaldotsize","randomdotsizeEA","equaldotsize","equaldotanddens","equaldotsize","equaldotsize","equaldotsize","equaldotsize","randomdotsizeEA","equaldotanddens","equaldotanddens","equaldotanddens","equaldotsize","equaldotsize","randomdotsizeEA","equaldotsize","randomdotsizeEA","randomdotsizeEA","equaldotanddens"],"ratio_trial":[900,500,900,500,900,250,250,900,250,500,750,750,500,500,250,500,250,250,500,900,750,750,500,500,500,750,900,500,250,250,750,900,750,500,500,750,250,900,250,250,250,750,250,250,250,500,750,750,500,250,250,250,250,750,900,250,900,500,900,750,250,750,250,750,500,750,750,500,500,250,250,900,900,250,250,900,750,750,500,900,500,900,750,900,750,750,750,900,750,500,900,500,900,750,250,900,900,900,750,500,250,900,900,750,900,500,500,250,500,900,500,750,750,900,900,750,250,500,500,900],"smaller_num":["9","1","9","1","9","2","4","18","2","9","15","6","9","10","4","6","2","3","2","18","3","9","2","2","9","3","18","9","2","5","18","18","6","2","3","15","4","18","6","1","2","3","5","6","4","5","6","6","9","6","2","2","2","6","9","2","9","2","18","15","4","6","4","15","10","15","9","5","1","3","6","18","9","3","3","9","3","15","10","18","4","9","15","18","3","9","3","18","15","9","18","2","9","3","2","18","18","9","3","9","3","9","18","3","18","9","2","4","2","9","2","3","15","9","18","12","4","9","3","9"],"larger_num":["10","2","10","2","10","8","16","20","8","18","20","8","18","20","16","12","8","12","4","20","4","12","4","4","18","4","20","18","8","20","24","20","8","4","6","20","16","20","24","4","8","4","20","24","16","10","8","8","18","24","8","8","8","8","10","8","10","4","20","20","16","8","16","20","20","20","12","10","2","12","24","20","10","12","12","10","4","20","20","20","8","10","20","20","4","12","4","20","20","18","20","4","10","4","8","20","20","10","4","18","12","10","20","4","20","18","4","16","4","10","4","4","20","10","20","16","16","18","6","10"],"correct_side":[1,2,2,2,2,1,1,2,2,2,2,1,2,2,1,1,1,1,1,1,2,2,1,1,2,1,2,2,2,2,1,1,1,1,2,2,2,2,2,2,1,2,2,1,1,1,1,1,2,2,1,1,1,1,2,1,2,1,1,1,1,1,1,1,2,2,2,1,2,1,1,2,2,2,2,1,1,2,2,2,1,1,2,2,2,2,1,1,2,2,1,1,2,1,1,1,1,2,1,2,1,2,1,1,1,2,2,2,1,2,2,2,2,2,1,2,1,1,2,2],"img_shown":["img/900/equaldotanddens/L/1_Ratio_900_L_10_R_9.png","img/500/randomdotsizeEA/R/12_Ratio_500_L_1_R_2.png","img/900/equaldotsize/R/5_Ratio_900_L_9_R_10.png","img/500/equaldotanddens/R/15_Ratio_500_L_1_R_2.png","img/900/equaldotsize/R/6_Ratio_900_L_9_R_10.png","img/250/equaldotanddens/L/7_Ratio_250_L_8_R_2.png","img/250/equaldotanddens/L/2_Ratio_250_L_16_R_4.png","img/900/randomdotsizeEA/R/12_Ratio_900_L_18_R_20.png","img/250/equaldotanddens/R/13_Ratio_250_L_2_R_8.png","img/500/randomdotsizeEA/R/6_Ratio_500_L_9_R_18.png","img/750/randomdotsizeEA/R/3_Ratio_750_L_15_R_20.png","img/750/equaldotanddens/L/14_Ratio_750_L_8_R_6.png","img/500/equaldotanddens/R/6_Ratio_500_L_9_R_18.png","img/500/equaldotanddens/R/3_Ratio_500_L_10_R_20.png","img/250/randomdotsizeEA/L/2_Ratio_250_L_16_R_4.png","img/500/randomdotsizeEA/L/11_Ratio_500_L_12_R_6.png","img/250/equaldotanddens/L/1_Ratio_250_L_8_R_2.png","img/250/randomdotsizeEA/L/14_Ratio_250_L_12_R_3.png","img/500/randomdotsizeEA/L/10_Ratio_500_L_4_R_2.png","img/900/randomdotsizeEA/L/8_Ratio_900_L_20_R_18.png","img/750/equaldotanddens/R/12_Ratio_750_L_3_R_4.png","img/750/randomdotsizeEA/R/15_Ratio_750_L_9_R_12.png","img/500/equaldotsize/L/10_Ratio_500_L_4_R_2.png","img/500/equaldotanddens/L/5_Ratio_500_L_4_R_2.png","img/500/equaldotanddens/R/1_Ratio_500_L_9_R_18.png","img/750/equaldotanddens/L/9_Ratio_750_L_4_R_3.png","img/900/randomdotsizeEA/R/12_Ratio_900_L_18_R_20.png","img/500/equaldotanddens/R/6_Ratio_500_L_9_R_18.png","img/250/randomdotsizeEA/R/13_Ratio_250_L_2_R_8.png","img/250/equaldotsize/R/12_Ratio_250_L_5_R_20.png","img/750/equaldotsize/L/6_Ratio_750_L_24_R_18.png","img/900/randomdotsizeEA/L/8_Ratio_900_L_20_R_18.png","img/750/equaldotsize/L/13_Ratio_750_L_8_R_6.png","img/500/equaldotsize/L/5_Ratio_500_L_4_R_2.png","img/500/equaldotsize/R/2_Ratio_500_L_3_R_6.png","img/750/randomdotsizeEA/R/4_Ratio_750_L_15_R_20.png","img/250/randomdotsizeEA/R/10_Ratio_250_L_4_R_16.png","img/900/equaldotanddens/R/9_Ratio_900_L_18_R_20.png","img/250/randomdotsizeEA/R/6_Ratio_250_L_6_R_24.png","img/250/equaldotsize/R/8_Ratio_250_L_1_R_4.png","img/250/randomdotsizeEA/L/3_Ratio_250_L_8_R_2.png","img/750/equaldotsize/R/12_Ratio_750_L_3_R_4.png","img/250/equaldotanddens/R/12_Ratio_250_L_5_R_20.png","img/250/equaldotanddens/L/5_Ratio_250_L_24_R_6.png","img/250/equaldotsize/L/2_Ratio_250_L_16_R_4.png","img/500/equaldotsize/L/7_Ratio_500_L_10_R_5.png","img/750/equaldotanddens/L/14_Ratio_750_L_8_R_6.png","img/750/equaldotanddens/L/13_Ratio_750_L_8_R_6.png","img/500/randomdotsizeEA/R/6_Ratio_500_L_9_R_18.png","img/250/equaldotsize/R/6_Ratio_250_L_6_R_24.png","img/250/equaldotanddens/L/3_Ratio_250_L_8_R_2.png","img/250/equaldotsize/L/3_Ratio_250_L_8_R_2.png","img/250/equaldotsize/L/1_Ratio_250_L_8_R_2.png","img/750/randomdotsizeEA/L/14_Ratio_750_L_8_R_6.png","img/900/equaldotanddens/R/5_Ratio_900_L_9_R_10.png","img/250/randomdotsizeEA/L/7_Ratio_250_L_8_R_2.png","img/900/randomdotsizeEA/R/7_Ratio_900_L_9_R_10.png","img/500/equaldotsize/L/5_Ratio_500_L_4_R_2.png","img/900/randomdotsizeEA/L/4_Ratio_900_L_20_R_18.png","img/750/equaldotsize/L/1_Ratio_750_L_20_R_15.png","img/250/equaldotanddens/L/2_Ratio_250_L_16_R_4.png","img/750/randomdotsizeEA/L/14_Ratio_750_L_8_R_6.png","img/250/equaldotanddens/L/2_Ratio_250_L_16_R_4.png","img/750/equaldotanddens/L/1_Ratio_750_L_20_R_15.png","img/500/randomdotsizeEA/R/3_Ratio_500_L_10_R_20.png","img/750/equaldotanddens/R/4_Ratio_750_L_15_R_20.png","img/750/randomdotsizeEA/R/15_Ratio_750_L_9_R_12.png","img/500/randomdotsizeEA/L/7_Ratio_500_L_10_R_5.png","img/500/equaldotanddens/R/12_Ratio_500_L_1_R_2.png","img/250/equaldotsize/L/15_Ratio_250_L_12_R_3.png","img/250/equaldotsize/L/5_Ratio_250_L_24_R_6.png","img/900/randomdotsizeEA/R/13_Ratio_900_L_18_R_20.png","img/900/equaldotanddens/R/6_Ratio_900_L_9_R_10.png","img/250/equaldotanddens/R/4_Ratio_250_L_3_R_12.png","img/250/randomdotsizeEA/R/11_Ratio_250_L_3_R_12.png","img/900/equaldotsize/L/1_Ratio_900_L_10_R_9.png","img/750/randomdotsizeEA/L/8_Ratio_750_L_4_R_3.png","img/750/equaldotanddens/R/3_Ratio_750_L_15_R_20.png","img/500/equaldotanddens/R/3_Ratio_500_L_10_R_20.png","img/900/equaldotsize/R/11_Ratio_900_L_18_R_20.png","img/500/randomdotsizeEA/L/8_Ratio_500_L_8_R_4.png","img/900/equaldotsize/L/1_Ratio_900_L_10_R_9.png","img/750/equaldotsize/R/5_Ratio_750_L_15_R_20.png","img/900/randomdotsizeEA/R/9_Ratio_900_L_18_R_20.png","img/750/equaldotsize/R/12_Ratio_750_L_3_R_4.png","img/750/equaldotsize/R/15_Ratio_750_L_9_R_12.png","img/750/randomdotsizeEA/L/9_Ratio_750_L_4_R_3.png","img/900/equaldotsize/L/2_Ratio_900_L_20_R_18.png","img/750/equaldotsize/R/5_Ratio_750_L_15_R_20.png","img/500/equaldotsize/R/1_Ratio_500_L_9_R_18.png","img/900/equaldotanddens/L/2_Ratio_900_L_20_R_18.png","img/500/equaldotsize/L/10_Ratio_500_L_4_R_2.png","img/900/equaldotanddens/R/15_Ratio_900_L_9_R_10.png","img/750/equaldotsize/L/10_Ratio_750_L_4_R_3.png","img/250/randomdotsizeEA/L/7_Ratio_250_L_8_R_2.png","img/900/equaldotanddens/L/2_Ratio_900_L_20_R_18.png","img/900/equaldotanddens/L/2_Ratio_900_L_20_R_18.png","img/900/equaldotsize/R/15_Ratio_900_L_9_R_10.png","img/750/randomdotsizeEA/L/8_Ratio_750_L_4_R_3.png","img/500/equaldotanddens/R/1_Ratio_500_L_9_R_18.png","img/250/randomdotsizeEA/L/15_Ratio_250_L_12_R_3.png","img/900/equaldotsize/R/6_Ratio_900_L_9_R_10.png","img/900/randomdotsizeEA/L/10_Ratio_900_L_20_R_18.png","img/750/equaldotsize/L/9_Ratio_750_L_4_R_3.png","img/900/equaldotanddens/L/4_Ratio_900_L_20_R_18.png","img/500/equaldotsize/R/6_Ratio_500_L_9_R_18.png","img/500/equaldotsize/R/9_Ratio_500_L_2_R_4.png","img/250/equaldotsize/R/10_Ratio_250_L_4_R_16.png","img/500/equaldotsize/L/5_Ratio_500_L_4_R_2.png","img/900/randomdotsizeEA/R/6_Ratio_900_L_9_R_10.png","img/500/equaldotanddens/R/9_Ratio_500_L_2_R_4.png","img/750/equaldotanddens/R/7_Ratio_750_L_3_R_4.png","img/750/equaldotanddens/R/4_Ratio_750_L_15_R_20.png","img/900/equaldotsize/R/6_Ratio_900_L_9_R_10.png","img/900/equaldotsize/L/10_Ratio_900_L_20_R_18.png","img/750/randomdotsizeEA/R/11_Ratio_750_L_12_R_16.png","img/250/equaldotsize/L/2_Ratio_250_L_16_R_4.png","img/500/randomdotsizeEA/L/4_Ratio_500_L_18_R_9.png","img/500/randomdotsizeEA/R/2_Ratio_500_L_3_R_6.png","img/900/equaldotanddens/R/5_Ratio_900_L_9_R_10.png"],"Rat0":[["12_Ratio_0_L_9_R_0.png","13_Ratio_0_L_6_R_0.png","5_Ratio_0_L_2_R_0.png","6_Ratio_0_L_4_R_0.png","8_Ratio_0_L_6_R_0.png"],["1_Ratio_0_L_0_R_17.png","10_Ratio_0_L_0_R_22.png","11_Ratio_0_L_0_R_1.png","14_Ratio_0_L_0_R_24.png","15_Ratio_0_L_0_R_4.png","2_Ratio_0_L_0_R_5.png","3_Ratio_0_L_0_R_17.png","4_Ratio_0_L_0_R_7.png","7_Ratio_0_L_0_R_19.png","9_Ratio_0_L_0_R_15.png"]],"Rat250":[["1_Ratio_250_L_8_R_2.png","14_Ratio_250_L_12_R_3.png","15_Ratio_250_L_12_R_3.png","2_Ratio_250_L_16_R_4.png","3_Ratio_250_L_8_R_2.png","5_Ratio_250_L_24_R_6.png","7_Ratio_250_L_8_R_2.png"],["10_Ratio_250_L_4_R_16.png","11_Ratio_250_L_3_R_12.png","12_Ratio_250_L_5_R_20.png","13_Ratio_250_L_2_R_8.png","4_Ratio_250_L_3_R_12.png","6_Ratio_250_L_6_R_24.png","8_Ratio_250_L_1_R_4.png","9_Ratio_250_L_3_R_12.png"]],"Rat500":[["10_Ratio_500_L_4_R_2.png","11_Ratio_500_L_12_R_6.png","13_Ratio_500_L_12_R_6.png","4_Ratio_500_L_18_R_9.png","5_Ratio_500_L_4_R_2.png","7_Ratio_500_L_10_R_5.png","8_Ratio_500_L_8_R_4.png"],["1_Ratio_500_L_9_R_18.png","12_Ratio_500_L_1_R_2.png","14_Ratio_500_L_5_R_10.png","15_Ratio_500_L_1_R_2.png","2_Ratio_500_L_3_R_6.png","3_Ratio_500_L_10_R_20.png","6_Ratio_500_L_9_R_18.png","9_Ratio_500_L_2_R_4.png"]],"Rat750":[["1_Ratio_750_L_20_R_15.png","10_Ratio_750_L_4_R_3.png","13_Ratio_750_L_8_R_6.png","14_Ratio_750_L_8_R_6.png","6_Ratio_750_L_24_R_18.png","8_Ratio_750_L_4_R_3.png","9_Ratio_750_L_4_R_3.png"],["11_Ratio_750_L_12_R_16.png","12_Ratio_750_L_3_R_4.png","15_Ratio_750_L_9_R_12.png","2_Ratio_750_L_6_R_8.png","3_Ratio_750_L_15_R_20.png","4_Ratio_750_L_15_R_20.png","5_Ratio_750_L_15_R_20.png","7_Ratio_750_L_3_R_4.png"]],"Rat900":[["1_Ratio_900_L_10_R_9.png","10_Ratio_900_L_20_R_18.png","2_Ratio_900_L_20_R_18.png","4_Ratio_900_L_20_R_18.png","8_Ratio_900_L_20_R_18.png"],["11_Ratio_900_L_18_R_20.png","12_Ratio_900_L_18_R_20.png","13_Ratio_900_L_18_R_20.png","14_Ratio_900_L_18_R_20.png","15_Ratio_900_L_9_R_10.png","3_Ratio_900_L_9_R_10.png","5_Ratio_900_L_9_R_10.png","6_Ratio_900_L_9_R_10.png","7_Ratio_900_L_9_R_10.png","9_Ratio_900_L_18_R_20.png"]],"Rat1000":[["10_Ratio_1000_L_16_R_16.png","11_Ratio_1000_L_6_R_6.png","12_Ratio_1000_L_14_R_14.png","13_Ratio_1000_L_20_R_20.png","15_Ratio_1000_L_15_R_15.png","2_Ratio_1000_L_17_R_17.png","4_Ratio_1000_L_9_R_9.png","5_Ratio_1000_L_6_R_6.png","6_Ratio_1000_L_19_R_19.png","8_Ratio_1000_L_14_R_14.png","9_Ratio_1000_L_25_R_25.png"],["1_Ratio_1000_L_1_R_1.png","14_Ratio_1000_L_17_R_17.png","3_Ratio_1000_L_17_R_17.png","7_Ratio_1000_L_6_R_6.png"]]}},{"start_time":1551887836130,"click_time":1551887837098,"finger_time":1551887836777,"fix_duration":250,"trial":1,"RT":647,"MT":321,"sideResp":2,"stimulus":"img/500/randomdotsizeEA/R/12_Ratio_500_L_1_R_2.png","xmouse":[755,755,755,755,755,755,755,755,755,755,755,755,755,755,755,755,755,755,755,755,755,755,755,755,755,755,755,755,755,755,755,762,794,810,832,846,854,866,899,947,1027,1053,1058,1062,1064,1064,1067,1070,1073],"ymouse":[483,483,483,483,483,483,483,483,483,483,483,483,483,483,483,483,483,483,483,483,483,483,483,483,483,483,483,483,483,483,484,484,467,451,427,401,382,357,312,242,141,119,115,109,108,108,105,101,95],"timestamp_mouse":[9,37,47,67,87,107,128,147,167,187,207,228,247,268,288,307,327,347,367,388,407,427,447,467,488,508,527,548,568,586,606,628,647,667,690,707,727,747,768,786,808,827,847,866,886,908,927,946,968],"xSR":741.5,"ySR":469.95,"xT1":424.9,"yT1":0,"xT2":1058.1,"yT2":0,"toosoon":0,"cond_shown":"randomdotsizeEA","ratio_trial":500,"smaller_num":"1","larger_num":"2","correct_side":2,"subjID":"gabrielbrocherobustillo","gender":"0","age":"12","school":"6"},{"start_time":1551887838731,"click_time":1551887839698,"finger_time":1551887839397,"fix_duration":591.9173468874795,"trial":2,"RT":666,"MT":301,"sideResp":1,"stimulus":"img/900/equaldotsize/R/5_Ratio_900_L_9_R_10.png","xmouse":[788,788,788,788,788,788,788,788,788,788,788,788,788,788,788,788,788,788,788,788,788,788,788,788,788,788,788,788,788,788,788,788,789,783,774,743,731,721,715,709,688,661,632,605,585,560,548,527,506],"ymouse":[497,497,497,497,497,497,497,497,497,497,497,497,497,497,497,497,497,497,497,497,497,497,497,497,497,497,497,497,497,497,497,497,484,464,437,389,373,357,344,322,272,213,163,124,101,70,57,42,27],"timestamp_mouse":[10,35,47,66,85,106,126,145,167,187,206,227,245,265,287,306,327,346,366,386,407,426,446,466,486,505,526,545,565,587,606,625,646,666,685,707,725,745,766,786,807,825,846,867,885,906,926,946,967],"xSR":741.5,"ySR":469.95,"xT1":424.9,"yT1":0,"xT2":1058.1,"yT2":0,"toosoon":0,"cond_shown":"equaldotsize","ratio_trial":900,"smaller_num":"9","larger_num":"10","correct_side":2,"subjID":"gabrielbrocherobustillo","gender":"0","age":"12","school":"6"},{"start_time":1551887841387,"click_time":1551887842356,"finger_time":1551887842116,"fix_duration":969.7678259213021,"trial":3,"RT":729,"MT":240,"sideResp":2,"stimulus":"img/500/equaldotanddens/R/15_Ratio_500_L_1_R_2.png","xmouse":[814,814,814,814,814,814,814,814,814,814,814,814,814,814,814,814,814,814,814,814,814,814,814,814,814,814,814,814,814,814,814,814,814,814,815,821,841,895,965,994,1013,1025,1033,1048,1050,1051,1052,1055,1060],"ymouse":[503,503,503,503,503,503,503,503,503,503,503,503,503,503,503,503,503,503,503,503,503,503,503,503,503,503,503,503,503,503,503,503,503,503,498,490,454,380,302,265,220,174,141,102,91,84,83,74,67],"timestamp_mouse":[9,35,51,70,91,109,130,150,170,189,211,229,250,270,290,310,330,350,369,390,409,430,451,470,489,511,529,549,571,589,610,630,650,670,691,710,729,751,770,789,809,830,850,870,889,911,931,950,969],"xSR":741.5,"ySR":469.95,"xT1":424.9,"yT1":0,"xT2":1058.1,"yT2":0,"toosoon":0,"cond_shown":"equaldotanddens","ratio_trial":500,"smaller_num":"1","larger_num":"2","correct_side":2,"subjID":"gabrielbrocherobustillo","gender":"0","age":"12","school":"6"},{"start_time":1551887843669,"click_time":1551887845277,"finger_time":1551887844357,"fix_duration":250,"trial":4,"RT":688,"MT":920,"sideResp":2,"stimulus":"img/900/equaldotsize/R/6_Ratio_900_L_9_R_10.png","xmouse":[818,818,818,818,818,818,818,818,818,818,818,818,818,818,818,818,818,818,818,818,818,818,818,818,818,818,818,818,818,818,818,818,817,832,900,916,925,934,948,948,948,948,948,948,948,948,944,892,761,712,656,636,634,634,642,650,655,662,666,666,666,666,665,663,660,660,660,660,663,710,776,860,934,1009,1024,1026,1026,1028,1035,1047,1059],"ymouse":[499,499,499,499,499,499,499,499,499,499,499,499,499,499,499,499,499,499,499,499,499,499,499,499,499,499,499,499,499,499,499,499,496,476,378,356,344,332,310,307,306,306,306,306,306,306,304,304,271,251,228,215,213,213,206,201,197,190,185,180,174,170,168,166,165,165,165,165,165,165,165,163,149,122,109,107,105,101,88,77,66],"timestamp_mouse":[8,31,48,69,88,107,128,147,169,188,208,229,247,269,288,308,327,348,368,389,407,427,447,468,489,507,527,548,569,588,608,627,647,668,688,708,727,748,769,787,808,828,847,868,889,908,928,949,968,988,1008,1029,1048,1068,1087,1108,1128,1147,1168,1188,1208,1228,1248,1268,1289,1307,1328,1349,1368,1388,1408,1428,1447,1469,1487,1508,1528,1549,1568,1587,1608],"xSR":741.5,"ySR":469.95,"xT1":424.9,"yT1":0,"xT2":1058.1,"yT2":0,"toosoon":0,"cond_shown":"equaldotsize","ratio_trial":900,"smaller_num":"9","larger_num":"10","correct_side":2,"subjID":"gabrielbrocherobustillo","gender":"0","age":"12","school":"6"},{"start_time":1551887846548,"click_time":1551887847338,"finger_time":1551887847237,"fix_duration":250,"trial":5,"RT":689,"MT":101,"sideResp":1,"stimulus":"img/250/equaldotanddens/L/7_Ratio_250_L_8_R_2.png","xmouse":[809,809,809,809,809,809,809,809,809,809,809,809,809,809,809,809,809,809,809,809,809,809,809,809,809,809,809,809,809,809,809,809,809,801,742,687,635,586,543,476],"ymouse":[503,503,503,503,503,503,503,503,503,503,503,503,503,503,503,503,503,503,503,503,503,503,503,503,503,503,503,503,503,503,503,503,503,489,395,324,255,189,127,41],"timestamp_mouse":[8,33,49,69,88,110,129,150,169,189,210,229,248,270,289,309,328,349,369,389,408,429,449,468,489,509,529,549,568,589,609,629,648,669,689,708,730,750,769,790],"xSR":741.5,"ySR":469.95,"xT1":424.9,"yT1":0,"xT2":1058.1,"yT2":0,"toosoon":0,"cond_shown":"equaldotanddens","ratio_trial":250,"smaller_num":"2","larger_num":"8","correct_side":1,"subjID":"gabrielbrocherobustillo","gender":"0","age":"12","school":"6"},{"start_time":1551887848788,"click_time":1551887849638,"finger_time":1551887849317,"fix_duration":250,"trial":6,"RT":529,"MT":321,"sideResp":1,"stimulus":"img/250/equaldotanddens/L/2_Ratio_250_L_16_R_4.png","xmouse":[785,785,785,785,785,785,785,785,785,785,785,785,785,785,785,785,785,785,785,785,785,785,785,785,781,779,770,747,729,717,701,691,678,647,641,637,632,622,599,571,525,497,450],"ymouse":[473,473,473,473,473,473,473,473,473,473,473,473,473,473,473,473,473,473,473,473,473,473,473,473,472,471,460,420,382,308,231,201,170,128,118,111,106,101,99,99,104,105,95],"timestamp_mouse":[8,28,49,70,90,110,129,149,168,188,210,229,249,269,289,308,329,349,368,390,410,429,449,468,489,509,529,550,568,589,608,629,648,669,690,709,730,749,768,789,808,829,849],"xSR":741.5,"ySR":469.95,"xT1":424.9,"yT1":0,"xT2":1058.1,"yT2":0,"toosoon":0,"cond_shown":"equaldotanddens","ratio_trial":250,"smaller_num":"4","larger_num":"16","correct_side":1,"subjID":"gabrielbrocherobustillo","gender":"0","age":"12","school":"6"},{"start_time":1551887851464,"click_time":1551887853097,"finger_time":1551887852317,"fix_duration":945.021564038459,"trial":7,"RT":853,"MT":780,"sideResp":2,"stimulus":"img/900/randomdotsizeEA/R/12_Ratio_900_L_18_R_20.png","xmouse":[798,798,798,798,798,798,798,798,798,798,798,798,798,798,798,798,798,798,798,798,798,798,798,798,798,798,798,798,798,798,798,798,798,798,798,798,798,798,798,798,799,813,850,887,925,946,961,993,1039,1045,1046,1046,1046,1046,1046,1046,1046,1050,1051,1051,1051,1051,1051,1051,1051,1051,1051,1051,1038,1027,1025,1026,1029,1029,1034,1058,1066,1075,1084,1093,1097,1100],"ymouse":[485,485,485,485,485,485,485,485,485,485,485,485,485,485,485,485,485,485,485,485,485,485,485,485,485,485,485,485,485,485,485,485,485,485,485,485,485,485,485,485,485,474,445,414,377,344,303,233,108,92,90,89,89,89,89,87,77,69,67,67,67,67,67,67,67,67,72,92,138,165,191,201,205,205,203,183,171,159,147,127,107,91],"timestamp_mouse":[18,34,53,73,93,114,134,153,173,193,213,233,254,273,294,313,332,353,373,393,414,434,454,473,492,514,532,552,574,594,613,634,653,672,694,712,734,752,772,792,813,833,853,874,894,914,934,953,973,993,1013,1033,1053,1074,1094,1113,1133,1154,1174,1194,1213,1233,1253,1273,1292,1313,1334,1353,1373,1393,1414,1433,1454,1474,1494,1513,1533,1553,1574,1593,1614,1633],"xSR":741.5,"ySR":469.95,"xT1":424.9,"yT1":0,"xT2":1058.1,"yT2":0,"toosoon":0,"cond_shown":"randomdotsizeEA","ratio_trial":900,"smaller_num":"18","larger_num":"20","correct_side":2,"subjID":"gabrielbrocherobustillo","gender":"0","age":"12","school":"6"},{"start_time":1551887854847,"click_time":1551887855838,"finger_time":1551887855557,"fix_duration":927.7306975585642,"trial":8,"RT":710,"MT":281,"sideResp":2,"stimulus":"img/250/equaldotanddens/R/13_Ratio_250_L_2_R_8.png","xmouse":[790,790,790,790,790,790,790,790,790,790,789,789,787,787,787,787,787,786,785,785,785,785,785,785,785,785,785,785,785,785,785,785,785,785,790,821,846,860,885,914,929,943,956,966,993,1012,1063,1084,1100,1117],"ymouse":[520,520,520,520,520,520,520,520,520,520,520,520,518,518,518,518,518,518,518,518,518,518,518,518,518,518,518,518,518,518,518,518,518,518,507,462,434,416,390,369,354,340,325,313,283,251,180,157,134,99],"timestamp_mouse":[10,34,50,69,90,109,129,149,170,190,210,229,249,271,290,310,330,350,370,389,410,429,451,471,489,509,531,550,570,590,610,629,650,670,690,710,729,749,769,791,809,830,850,870,890,909,930,950,969,990],"xSR":741.5,"ySR":469.95,"xT1":424.9,"yT1":0,"xT2":1058.1,"yT2":0,"toosoon":0,"cond_shown":"equaldotanddens","ratio_trial":250,"smaller_num":"2","larger_num":"8","correct_side":2,"subjID":"gabrielbrocherobustillo","gender":"0","age":"12","school":"6"},{"start_time":1551887858185,"click_time":1551887859017,"finger_time":1551887858937,"fix_duration":1465.1473348956683,"trial":9,"RT":752,"MT":80,"sideResp":2,"stimulus":"img/500/randomdotsizeEA/R/6_Ratio_500_L_9_R_18.png","xmouse":[800,800,800,800,800,800,800,800,800,800,800,800,800,800,800,800,800,800,800,800,800,800,800,800,800,800,800,800,800,800,798,795,772,772,772,787,803,824,862,902,976,1071],"ymouse":[534,534,534,534,534,534,534,534,534,534,534,534,534,534,534,534,534,534,534,534,534,534,534,534,534,534,534,534,534,534,534,534,524,524,520,502,486,448,382,295,161,13],"timestamp_mouse":[11,33,52,73,92,111,131,153,171,192,212,232,252,271,292,312,332,352,373,392,413,432,452,472,492,513,532,553,572,593,611,632,652,672,693,711,733,752,772,791,813,832],"xSR":741.5,"ySR":469.95,"xT1":424.9,"yT1":0,"xT2":1058.1,"yT2":0,"toosoon":0,"cond_shown":"randomdotsizeEA","ratio_trial":500,"smaller_num":"9","larger_num":"18","correct_side":2,"subjID":"gabrielbrocherobustillo","gender":"0","age":"12","school":"6"},{"start_time":1551887860648,"click_time":1551887861817,"finger_time":1551887861476,"fix_duration":250,"trial":10,"RT":828,"MT":341,"sideResp":2,"stimulus":"img/750/randomdotsizeEA/R/3_Ratio_750_L_15_R_20.png","xmouse":[786,786,786,786,786,786,786,786,786,786,786,786,786,785,785,785,785,783,783,783,783,783,783,783,783,783,783,783,783,783,783,783,783,783,783,783,783,783,785,790,818,830,837,848,874,909,923,934,939,942,951,958,965,973,989,1011,1031,1051,1069],"ymouse":[499,499,499,499,499,499,499,499,499,499,499,499,499,499,499,499,499,499,499,499,499,499,499,499,499,499,499,499,499,499,499,499,499,499,499,499,499,499,498,493,475,467,459,441,393,303,278,260,252,242,213,193,175,162,147,132,117,98,80],"timestamp_mouse":[9,33,50,70,89,110,130,149,169,189,209,229,249,268,289,308,329,349,368,389,409,429,449,469,490,508,528,549,569,589,608,629,649,670,690,708,730,749,769,789,809,828,849,868,890,909,929,949,969,989,1010,1029,1049,1068,1090,1109,1129,1149,1169],"xSR":741.5,"ySR":469.95,"xT1":424.9,"yT1":0,"xT2":1058.1,"yT2":0,"toosoon":0,"cond_shown":"randomdotsizeEA","ratio_trial":750,"smaller_num":"15","larger_num":"20","correct_side":2,"subjID":"gabrielbrocherobustillo","gender":"0","age":"12","school":"6"},{"start_time":1551887863254,"click_time":1551887865137,"finger_time":1551887864257,"fix_duration":795.3557026872634,"trial":11,"RT":1003,"MT":880,"sideResp":2,"stimulus":"img/750/equaldotanddens/L/14_Ratio_750_L_8_R_6.png","xmouse":[816,816,816,816,816,816,816,816,816,816,816,816,816,816,816,816,816,816,816,816,816,816,817,818,819,820,820,820,820,820,820,820,820,820,820,820,820,820,820,820,820,820,820,820,820,820,820,811,777,757,702,686,684,684,684,684,684,684,684,684,684,684,684,684,684,684,679,667,660,656,656,654,655,658,658,662,662,684,716,767,783,804,818,826,898,908,913,913,913,916,942,969,1000,1061,1131],"ymouse":[523,523,523,523,523,523,523,523,523,523,523,523,523,523,523,523,523,523,523,523,523,523,523,523,524,524,524,524,524,524,524,524,524,524,524,524,524,524,524,524,524,524,524,524,524,524,524,519,498,481,441,430,429,429,427,427,427,427,427,427,427,427,427,427,427,427,422,416,410,405,405,398,390,387,387,387,387,385,385,366,351,330,315,306,199,189,184,184,184,177,155,143,127,105,73],"timestamp_mouse":[10,28,42,63,83,104,124,143,164,182,204,222,243,262,283,302,324,342,363,382,402,423,442,464,482,504,523,543,563,582,604,624,643,664,683,702,723,743,764,782,804,823,842,863,882,904,923,942,963,982,1003,1023,1044,1063,1083,1104,1123,1144,1164,1184,1203,1224,1244,1262,1284,1303,1324,1342,1363,1383,1403,1422,1443,1463,1483,1504,1522,1543,1562,1583,1603,1623,1643,1663,1684,1702,1723,1743,1763,1783,1803,1823,1842,1863,1883],"xSR":741.5,"ySR":469.95,"xT1":424.9,"yT1":0,"xT2":1058.1,"yT2":0,"toosoon":0,"cond_shown":"equaldotanddens","ratio_trial":750,"smaller_num":"6","larger_num":"8","correct_side":1,"subjID":"gabrielbrocherobustillo","gender":"0","age":"12","school":"6"},{"start_time":1551887866809,"click_time":1551887867778,"finger_time":1551887867397,"fix_duration":250,"trial":12,"RT":588,"MT":381,"sideResp":2,"stimulus":"img/500/equaldotanddens/R/6_Ratio_500_L_9_R_18.png","xmouse":[779,779,779,780,781,782,783,783,783,784,784,784,784,784,784,784,785,785,785,785,785,785,785,785,785,785,796,810,834,856,880,948,990,1024,1036,1036,1036,1036,1036,1036,1036,1036,1036,1036,1036,1036,1036,1036,1091],"ymouse":[552,552,549,548,548,548,548,548,548,548,548,548,548,548,548,548,548,548,548,548,548,548,548,548,548,548,539,524,497,472,442,251,116,15,0,0,0,0,0,0,0,0,0,0,0,0,0,0,2],"timestamp_mouse":[13,27,47,68,88,108,129,148,168,188,207,227,248,267,289,308,328,347,369,389,407,428,449,467,489,507,529,549,568,588,607,629,648,667,688,707,728,747,768,788,808,829,847,868,888,909,928,948,969],"xSR":741.5,"ySR":469.95,"xT1":424.9,"yT1":0,"xT2":1058.1,"yT2":0,"toosoon":0,"cond_shown":"equaldotanddens","ratio_trial":500,"smaller_num":"9","larger_num":"18","correct_side":2,"subjID":"gabrielbrocherobustillo","gender":"0","age":"12","school":"6"},{"start_time":1551887868908,"click_time":1551887869957,"finger_time":1551887869557,"fix_duration":250,"trial":13,"RT":649,"MT":400,"sideResp":2,"stimulus":"img/500/equaldotanddens/R/3_Ratio_500_L_10_R_20.png","xmouse":[795,795,795,795,795,795,795,795,795,795,795,795,795,795,795,795,795,795,795,795,795,795,795,795,795,795,795,795,795,804,812,833,885,895,906,927,963,971,975,979,984,1005,1024,1036,1046,1056,1066,1080,1082,1083,1084,1084,1084],"ymouse":[522,522,522,522,522,522,522,522,522,522,522,522,522,522,522,522,522,522,522,522,522,522,522,522,522,522,522,522,522,514,506,480,398,378,356,325,289,278,275,264,255,226,206,193,184,170,159,130,118,108,103,101,98],"timestamp_mouse":[10,28,49,70,90,110,128,149,169,189,208,229,249,269,289,309,329,350,368,389,409,429,450,468,489,509,530,548,570,589,608,629,649,669,689,709,729,749,768,789,809,829,848,869,890,909,928,949,969,990,1010,1028,1048],"xSR":741.5,"ySR":469.95,"xT1":424.9,"yT1":0,"xT2":1058.1,"yT2":0,"toosoon":0,"cond_shown":"equaldotanddens","ratio_trial":500,"smaller_num":"10","larger_num":"20","correct_side":2,"subjID":"gabrielbrocherobustillo","gender":"0","age":"12","school":"6"},{"start_time":1551887871769,"click_time":1551887873796,"finger_time":1551887873337,"fix_duration":929.0738598781618,"trial":14,"RT":1568,"MT":459,"sideResp":2,"stimulus":"img/250/randomdotsizeEA/L/2_Ratio_250_L_16_R_4.png","xmouse":[803,803,803,803,803,803,803,803,803,803,803,803,803,803,803,803,803,803,803,803,803,803,803,803,803,803,803,803,803,803,803,803,803,803,803,803,803,803,803,803,803,803,803,803,803,803,803,803,803,803,803,803,803,803,803,803,803,803,803,803,803,805,805,805,805,805,805,805,805,805,805,805,805,805,806,813,819,821,830,833,834,841,843,862,871,884,902,915,936,974,1039,1085,1092,1094,1094,1097,1100,1101,1101,1098,1098,1109],"ymouse":[516,516,516,516,516,516,516,516,516,516,516,516,516,516,516,516,516,516,516,516,516,514,513,511,508,506,504,501,501,501,501,501,501,501,501,501,501,501,501,501,501,501,501,501,501,501,501,501,501,501,501,501,501,501,501,501,501,501,501,501,501,502,506,506,506,506,506,506,506,506,506,506,506,506,507,499,486,474,454,447,441,426,415,370,348,331,313,302,274,240,208,182,175,168,163,158,151,148,146,129,116,78],"timestamp_mouse":[10,28,48,68,88,107,127,148,168,188,208,228,248,267,289,308,328,348,367,387,408,429,448,468,488,508,528,548,567,589,609,628,649,668,689,708,728,747,767,788,808,828,849,867,889,909,929,949,969,989,1008,1027,1049,1068,1087,1109,1129,1147,1167,1188,1207,1227,1248,1269,1289,1307,1328,1347,1368,1389,1407,1429,1447,1467,1488,1509,1527,1548,1568,1588,1608,1628,1649,1668,1688,1707,1728,1748,1769,1788,1808,1829,1848,1868,1888,1908,1928,1948,1969,1988,2008,2027],"xSR":741.5,"ySR":469.95,"xT1":424.9,"yT1":0,"xT2":1058.1,"yT2":0,"toosoon":0,"cond_shown":"randomdotsizeEA","ratio_trial":250,"smaller_num":"4","larger_num":"16","correct_side":1,"subjID":"gabrielbrocherobustillo","gender":"0","age":"12","school":"6"},{"start_time":1551887876583,"click_time":1551887877738,"finger_time":1551887877238,"fix_duration":1483.6019505259858,"trial":15,"RT":655,"MT":500,"sideResp":1,"stimulus":"img/500/randomdotsizeEA/L/11_Ratio_500_L_12_R_6.png","xmouse":[769,769,769,769,769,769,769,769,769,769,769,769,769,769,769,769,769,769,769,769,769,769,769,769,769,769,769,769,769,769,769,767,744,737,732,727,716,682,656,632,610,595,567,552,539,532,525,519,509,505,503,500,495,490,489,473,462,461],"ymouse":[513,513,513,513,513,513,513,513,513,513,513,513,513,513,513,513,513,513,513,513,513,513,513,513,513,513,513,513,513,513,509,495,457,444,433,419,398,359,335,310,281,261,229,218,212,208,202,197,184,175,169,161,145,135,130,107,100,98],"timestamp_mouse":[14,35,53,74,93,114,135,154,174,194,215,234,255,273,295,314,334,354,373,395,415,434,454,474,493,515,534,554,573,595,615,634,655,674,694,715,735,754,773,794,815,835,854,873,894,914,933,955,974,994,1014,1034,1054,1074,1093,1115,1134,1155],"xSR":741.5,"ySR":469.95,"xT1":424.9,"yT1":0,"xT2":1058.1,"yT2":0,"toosoon":0,"cond_shown":"randomdotsizeEA","ratio_trial":500,"smaller_num":"6","larger_num":"12","correct_side":1,"subjID":"gabrielbrocherobustillo","gender":"0","age":"12","school":"6"},{"start_time":1551887880161,"click_time":1551887881037,"finger_time":1551887880757,"fix_duration":981.4728081037425,"trial":16,"RT":596,"MT":280,"sideResp":1,"stimulus":"img/250/equaldotanddens/L/1_Ratio_250_L_8_R_2.png","xmouse":[815,815,815,815,815,815,815,815,815,815,815,815,815,815,815,815,815,815,815,815,815,815,815,815,815,815,815,815,812,739,693,656,642,631,616,603,587,564,526,511,508,504,493,476],"ymouse":[493,493,493,493,493,493,493,493,493,493,493,493,493,493,493,493,493,493,493,493,493,493,493,493,493,493,493,492,489,425,393,365,346,328,295,276,257,233,189,167,158,148,129,96],"timestamp_mouse":[16,37,56,76,96,115,135,156,175,196,217,236,255,276,296,315,337,356,376,397,415,436,457,477,497,517,536,556,576,596,616,636,656,677,696,716,736,756,776,796,816,836,857,876],"xSR":741.5,"ySR":469.95,"xT1":424.9,"yT1":0,"xT2":1058.1,"yT2":0,"toosoon":0,"cond_shown":"equaldotanddens","ratio_trial":250,"smaller_num":"2","larger_num":"8","correct_side":1,"subjID":"gabrielbrocherobustillo","gender":"0","age":"12","school":"6"},{"start_time":1551887882592,"click_time":1551887883977,"finger_time":1551887883357,"fix_duration":893.7161133224857,"trial":17,"RT":765,"MT":620,"sideResp":1,"stimulus":"img/250/randomdotsizeEA/L/14_Ratio_250_L_12_R_3.png","xmouse":[768,768,768,768,768,768,768,768,768,768,768,768,768,768,768,768,768,768,768,768,768,768,768,768,768,768,768,768,771,773,776,778,780,781,782,782,783,786,792,804,810,813,815,812,793,772,746,689,676,673,666,661,645,633,622,611,596,559,539,529,525,519,516,514,513,511,507,500,499,497],"ymouse":[542,542,542,542,541,541,541,541,541,541,541,541,541,541,541,541,541,541,541,541,541,541,540,540,540,540,540,540,530,522,515,510,504,501,499,496,493,483,461,430,412,398,392,383,369,354,339,312,302,298,290,282,258,243,230,219,208,184,166,155,149,141,134,131,127,124,118,105,102,99],"timestamp_mouse":[9,26,45,64,85,104,125,145,165,184,205,225,244,265,285,304,325,345,365,385,405,425,446,466,485,504,525,545,564,585,605,625,646,665,685,705,726,744,765,785,805,824,846,865,885,905,925,946,965,985,1006,1025,1045,1065,1085,1104,1124,1146,1165,1185,1205,1225,1245,1264,1284,1304,1326,1346,1365,1385],"xSR":741.5,"ySR":469.95,"xT1":424.9,"yT1":0,"xT2":1058.1,"yT2":0,"toosoon":0,"cond_shown":"randomdotsizeEA","ratio_trial":250,"smaller_num":"3","larger_num":"12","correct_side":1,"subjID":"gabrielbrocherobustillo","gender":"0","age":"12","school":"6"},{"start_time":1551887884909,"click_time":1551887886297,"finger_time":1551887885897,"fix_duration":250,"trial":18,"RT":988,"MT":400,"sideResp":1,"stimulus":"img/500/randomdotsizeEA/L/10_Ratio_500_L_4_R_2.png","xmouse":[816,816,816,816,816,816,816,816,816,816,816,816,816,816,816,816,816,816,816,816,816,816,816,816,816,816,816,816,816,816,816,816,816,816,816,816,816,816,816,816,816,816,816,816,816,816,816,814,814,769,695,589,570,555,547,540,523,508,493,488,488,488,488,487,486,485,484,477,476,473],"ymouse":[494,494,494,494,494,494,494,494,494,494,494,494,494,494,494,494,494,494,494,494,494,494,494,494,494,494,494,494,494,494,494,494,494,494,494,494,494,494,494,494,494,494,494,494,494,494,494,492,492,456,401,325,306,279,263,250,231,219,207,199,194,186,178,174,166,159,149,114,101,79],"timestamp_mouse":[7,29,48,69,88,107,129,149,168,189,209,227,248,268,289,308,327,348,369,387,408,428,449,468,488,508,529,549,569,588,607,628,647,668,689,708,729,747,769,788,808,828,849,868,887,909,927,948,969,988,1008,1029,1047,1068,1088,1108,1129,1147,1167,1188,1207,1228,1247,1268,1288,1308,1327,1348,1368,1388],"xSR":741.5,"ySR":469.95,"xT1":424.9,"yT1":0,"xT2":1058.1,"yT2":0,"toosoon":0,"cond_shown":"randomdotsizeEA","ratio_trial":500,"smaller_num":"2","larger_num":"4","correct_side":1,"subjID":"gabrielbrocherobustillo","gender":"0","age":"12","school":"6"},{"start_time":1551887887188,"click_time":1551887888697,"finger_time":1551887888057,"fix_duration":250,"trial":19,"RT":869,"MT":640,"sideResp":1,"stimulus":"img/900/randomdotsizeEA/L/8_Ratio_900_L_20_R_18.png","xmouse":[782,782,782,782,782,782,782,782,782,782,782,782,782,782,782,782,782,782,782,782,782,782,782,782,782,782,782,782,782,782,782,782,782,782,782,782,782,782,782,782,780,778,764,748,732,713,692,676,659,647,639,631,611,602,601,598,593,587,566,548,542,539,535,523,505,483,464,460,460,459,459,459,458,457,454,451],"ymouse":[511,511,511,511,511,511,511,511,511,511,511,511,511,511,511,511,511,511,511,511,511,511,511,511,511,511,511,511,511,511,511,511,511,511,511,511,511,511,511,511,510,506,484,465,448,429,405,387,353,332,311,294,257,242,233,223,209,194,161,145,141,139,138,134,129,122,118,117,117,116,116,116,114,109,102,90],"timestamp_mouse":[9,32,49,70,88,109,130,149,169,189,208,228,249,268,290,308,330,349,368,389,409,429,449,470,490,508,528,549,570,590,609,629,649,668,689,708,730,749,769,789,809,829,849,869,889,908,929,949,969,989,1009,1029,1049,1069,1088,1109,1129,1150,1169,1189,1210,1229,1249,1268,1289,1309,1328,1350,1370,1389,1410,1429,1449,1469,1489,1509],"xSR":741.5,"ySR":469.95,"xT1":424.9,"yT1":0,"xT2":1058.1,"yT2":0,"toosoon":0,"cond_shown":"randomdotsizeEA","ratio_trial":900,"smaller_num":"18","larger_num":"20","correct_side":1,"subjID":"gabrielbrocherobustillo","gender":"0","age":"12","school":"6"},{"start_time":1551887889798,"click_time":1551887890918,"finger_time":1551887890398,"fix_duration":359.4660895933364,"trial":20,"RT":600,"MT":520,"sideResp":2,"stimulus":"img/750/equaldotanddens/R/12_Ratio_750_L_3_R_4.png","xmouse":[768,768,768,768,768,768,768,768,768,768,768,768,768,768,768,768,768,768,768,768,768,768,768,768,768,768,768,768,777,792,811,829,866,885,897,905,911,924,931,938,945,958,961,962,962,962,962,966,974,981,992,1016,1031,1044,1056,1063],"ymouse":[494,494,494,494,494,494,494,494,494,494,494,494,494,494,494,494,494,494,494,494,494,494,494,494,494,494,494,494,487,467,445,422,360,330,311,295,282,252,239,230,215,196,190,188,188,188,188,183,175,168,158,133,117,98,78,63],"timestamp_mouse":[20,40,58,80,98,120,139,159,179,200,219,239,258,280,298,318,339,359,380,399,419,439,460,478,499,519,540,560,579,600,619,639,659,679,699,719,740,759,779,799,819,839,859,879,900,918,940,960,979,999,1019,1039,1059,1080,1100,1120],"xSR":741.5,"ySR":469.95,"xT1":424.9,"yT1":0,"xT2":1058.1,"yT2":0,"toosoon":0,"cond_shown":"equaldotanddens","ratio_trial":750,"smaller_num":"3","larger_num":"4","correct_side":2,"subjID":"gabrielbrocherobustillo","gender":"0","age":"12","school":"6"},{"start_time":1551887892372,"click_time":1551887893337,"finger_time":1551887893078,"fix_duration":673.290324998766,"trial":21,"RT":706,"MT":259,"sideResp":2,"stimulus":"img/750/randomdotsizeEA/R/15_Ratio_750_L_9_R_12.png","xmouse":[780,780,780,780,780,780,780,780,780,780,780,780,780,780,780,780,780,780,780,780,780,780,780,780,780,780,780,780,780,780,780,780,780,799,812,829,855,874,933,968,995,1011,1026,1050,1057,1061,1065,1066,1073],"ymouse":[516,516,516,516,516,516,516,516,516,516,516,516,516,516,516,516,516,516,516,516,516,516,516,516,516,516,516,516,516,516,516,517,517,495,476,452,413,378,293,248,208,188,169,140,131,123,115,107,97],"timestamp_mouse":[8,24,46,65,86,104,126,144,166,186,206,224,245,264,285,304,326,345,365,385,405,424,444,465,486,504,525,545,565,585,605,625,645,665,685,706,724,744,765,784,804,825,846,865,884,905,926,945,965],"xSR":741.5,"ySR":469.95,"xT1":424.9,"yT1":0,"xT2":1058.1,"yT2":0,"toosoon":0,"cond_shown":"randomdotsizeEA","ratio_trial":750,"smaller_num":"9","larger_num":"12","correct_side":2,"subjID":"gabrielbrocherobustillo","gender":"0","age":"12","school":"6"},{"start_time":1551887895894,"click_time":1551887896777,"finger_time":1551887896537,"fix_duration":1393.9663113596453,"trial":22,"RT":643,"MT":240,"sideResp":1,"stimulus":"img/500/equaldotsize/L/10_Ratio_500_L_4_R_2.png","xmouse":[813,813,813,813,813,813,813,813,813,813,813,813,813,813,813,813,813,813,813,813,813,813,813,813,813,813,813,813,813,813,812,800,757,710,674,653,638,620,575,564,554,550,543,532,524],"ymouse":[507,507,507,507,507,507,507,507,507,507,507,507,507,507,507,507,507,507,507,507,507,507,507,507,507,507,507,507,507,507,502,473,363,304,259,229,206,179,119,101,88,83,74,59,48],"timestamp_mouse":[8,22,44,62,83,102,123,143,164,184,202,224,243,263,283,303,324,343,363,382,404,423,443,463,484,502,522,543,563,582,603,623,643,662,683,702,722,743,762,782,804,824,843,862,883],"xSR":741.5,"ySR":469.95,"xT1":424.9,"yT1":0,"xT2":1058.1,"yT2":0,"toosoon":0,"cond_shown":"equaldotsize","ratio_trial":500,"smaller_num":"2","larger_num":"4","correct_side":1,"subjID":"gabrielbrocherobustillo","gender":"0","age":"12","school":"6"},{"start_time":1551887898467,"click_time":1551887899617,"finger_time":1551887899338,"fix_duration":988.2260988735244,"trial":23,"RT":871,"MT":279,"sideResp":1,"stimulus":"img/500/equaldotanddens/L/5_Ratio_500_L_4_R_2.png","xmouse":[791,791,791,791,791,791,791,791,791,791,791,791,791,791,791,791,791,791,791,791,791,791,791,791,791,791,791,791,791,791,791,791,791,791,791,791,791,791,791,791,791,787,781,755,736,725,711,696,663,652,634,606,586,564,534,531,525,522],"ymouse":[506,506,506,506,506,506,507,507,507,507,507,507,507,507,507,507,507,507,507,507,507,507,507,507,507,507,507,507,507,507,507,507,507,507,507,507,507,507,507,507,507,485,475,423,389,368,344,318,265,245,203,150,120,92,62,59,55,52],"timestamp_mouse":[10,30,50,70,91,109,131,150,170,189,209,231,249,271,289,310,331,349,369,391,409,429,450,470,490,510,530,551,571,590,610,631,650,670,690,721,730,749,771,790,810,830,849,871,889,909,929,949,970,990,1010,1029,1051,1070,1091,1110,1129,1149],"xSR":741.5,"ySR":469.95,"xT1":424.9,"yT1":0,"xT2":1058.1,"yT2":0,"toosoon":0,"cond_shown":"equaldotanddens","ratio_trial":500,"smaller_num":"2","larger_num":"4","correct_side":1,"subjID":"gabrielbrocherobustillo","gender":"0","age":"12","school":"6"},{"start_time":1551887901161,"click_time":1551887901958,"finger_time":1551887901837,"fix_duration":923.5901180771411,"trial":24,"RT":676,"MT":121,"sideResp":2,"stimulus":"img/500/equaldotanddens/R/1_Ratio_500_L_9_R_18.png","xmouse":[760,760,760,760,760,760,760,760,760,760,760,760,760,760,760,760,760,760,760,760,760,760,760,760,760,760,760,760,760,760,766,776,801,864,903,966,1022,1064,1097,1116],"ymouse":[557,557,557,557,557,557,557,557,557,557,557,557,557,557,557,557,557,557,557,557,557,557,557,557,557,557,557,557,557,557,551,532,497,399,337,253,183,135,107,94],"timestamp_mouse":[18,37,56,77,95,116,137,156,176,196,215,237,255,275,296,316,336,356,375,397,416,437,456,475,496,516,536,555,577,596,615,635,655,676,695,715,736,756,775,797],"xSR":741.5,"ySR":469.95,"xT1":424.9,"yT1":0,"xT2":1058.1,"yT2":0,"toosoon":0,"cond_shown":"equaldotanddens","ratio_trial":500,"smaller_num":"9","larger_num":"18","correct_side":2,"subjID":"gabrielbrocherobustillo","gender":"0","age":"12","school":"6"},{"start_time":1551887903443,"click_time":1551887904477,"finger_time":1551887904217,"fix_duration":505.8237412190876,"trial":25,"RT":774,"MT":260,"sideResp":1,"stimulus":"img/750/equaldotanddens/L/9_Ratio_750_L_4_R_3.png","xmouse":[771,771,771,771,771,771,771,771,771,771,771,771,771,771,771,771,771,771,771,771,771,771,771,771,771,771,771,771,771,771,771,771,771,771,771,771,771,771,757,665,581,510,467,450,440,439,438,436,435,432,432,431],"ymouse":[518,518,518,518,518,518,518,518,518,518,518,518,518,518,518,518,518,518,518,518,518,518,518,518,518,518,518,518,518,518,518,518,518,518,518,518,518,513,453,320,245,192,160,145,131,129,128,123,119,107,105,98],"timestamp_mouse":[15,38,54,75,95,114,135,154,174,194,214,233,255,274,293,313,333,353,373,393,413,435,454,473,494,514,534,554,574,594,614,634,653,674,694,715,733,753,774,794,814,834,853,873,894,913,934,954,975,994,1014,1034],"xSR":741.5,"ySR":469.95,"xT1":424.9,"yT1":0,"xT2":1058.1,"yT2":0,"toosoon":0,"cond_shown":"equaldotanddens","ratio_trial":750,"smaller_num":"3","larger_num":"4","correct_side":1,"subjID":"gabrielbrocherobustillo","gender":"0","age":"12","school":"6"},{"start_time":1551887905569,"click_time":1551887906638,"finger_time":1551887906217,"fix_duration":250,"trial":26,"RT":648,"MT":421,"sideResp":2,"stimulus":"img/900/randomdotsizeEA/R/12_Ratio_900_L_18_R_20.png","xmouse":[794,794,794,794,794,794,794,794,794,794,794,794,794,794,794,794,794,794,794,794,794,794,794,794,794,794,794,794,794,794,798,825,861,883,900,905,916,939,957,1007,1015,1020,1022,1028,1030,1034,1035,1040,1055,1063,1065,1065,1066,1067],"ymouse":[536,536,536,536,536,536,536,536,536,536,536,536,536,536,536,536,536,536,536,536,536,536,536,536,536,536,536,536,536,536,535,506,466,437,403,388,364,320,296,232,223,212,207,194,187,181,174,163,133,115,109,106,103,97],"timestamp_mouse":[9,29,48,67,88,107,127,148,169,189,208,228,249,268,289,308,328,348,369,389,407,429,449,468,488,507,529,547,567,589,608,629,648,668,687,707,728,749,768,788,808,828,849,868,888,908,928,948,969,988,1008,1027,1047,1069],"xSR":741.5,"ySR":469.95,"xT1":424.9,"yT1":0,"xT2":1058.1,"yT2":0,"toosoon":0,"cond_shown":"randomdotsizeEA","ratio_trial":900,"smaller_num":"18","larger_num":"20","correct_side":2,"subjID":"gabrielbrocherobustillo","gender":"0","age":"12","school":"6"},{"start_time":1551887908475,"click_time":1551887909477,"finger_time":1551887909157,"fix_duration":1116.564614083447,"trial":27,"RT":682,"MT":320,"sideResp":2,"stimulus":"img/500/equaldotanddens/R/6_Ratio_500_L_9_R_18.png","xmouse":[820,820,820,820,820,820,820,820,820,820,820,820,820,820,820,820,820,820,820,820,820,820,820,820,820,820,820,820,820,820,820,820,827,836,864,911,948,998,1063,1067,1067,1067,1069,1076,1086,1087,1087,1084,1081,1077,1072],"ymouse":[559,559,559,559,559,559,559,559,559,559,559,559,559,559,559,559,559,559,559,559,559,559,559,559,559,559,559,559,559,559,559,559,540,528,489,436,382,323,263,260,258,258,256,246,218,198,178,160,135,117,93],"timestamp_mouse":[10,26,42,62,83,103,123,141,161,182,202,222,241,263,281,302,321,341,362,381,402,423,441,463,482,502,521,543,562,582,603,622,641,662,682,702,722,742,762,781,801,823,842,861,881,901,923,942,962,981,1002],"xSR":741.5,"ySR":469.95,"xT1":424.9,"yT1":0,"xT2":1058.1,"yT2":0,"toosoon":0,"cond_shown":"equaldotanddens","ratio_trial":500,"smaller_num":"9","larger_num":"18","correct_side":2,"subjID":"gabrielbrocherobustillo","gender":"0","age":"12","school":"6"},{"start_time":1551887910660,"click_time":1551887911537,"finger_time":1551887911236,"fix_duration":362.645485899902,"trial":28,"RT":576,"MT":301,"sideResp":2,"stimulus":"img/250/randomdotsizeEA/R/13_Ratio_250_L_2_R_8.png","xmouse":[829,829,829,829,829,829,829,829,829,829,829,829,829,829,829,829,829,829,829,829,829,829,829,829,829,829,830,836,842,877,901,926,953,980,1061,1073,1080,1081,1081,1081,1081,1081,1081,1083],"ymouse":[481,481,481,481,481,481,481,481,481,481,481,481,481,481,481,481,481,481,481,481,481,481,481,481,481,481,481,476,469,430,404,374,342,306,195,170,143,134,131,129,125,119,109,82],"timestamp_mouse":[17,37,56,76,97,116,138,156,176,196,218,236,257,277,298,317,336,358,377,397,416,437,457,478,497,517,537,557,576,597,617,637,656,677,698,717,737,756,777,796,817,836,856,877],"xSR":741.5,"ySR":469.95,"xT1":424.9,"yT1":0,"xT2":1058.1,"yT2":0,"toosoon":0,"cond_shown":"randomdotsizeEA","ratio_trial":250,"smaller_num":"2","larger_num":"8","correct_side":2,"subjID":"gabrielbrocherobustillo","gender":"0","age":"12","school":"6"},{"start_time":1551887913387,"click_time":1551887914237,"finger_time":1551887913977,"fix_duration":1269.4956705147702,"trial":29,"RT":590,"MT":260,"sideResp":2,"stimulus":"img/250/equaldotsize/R/12_Ratio_250_L_5_R_20.png","xmouse":[802,802,802,802,802,802,802,802,802,802,802,802,802,802,802,802,802,802,802,802,802,802,802,802,802,802,802,802,824,851,885,920,964,983,1000,1019,1030,1039,1049,1052,1057,1062,1073],"ymouse":[522,522,522,522,522,522,522,522,522,522,522,522,522,522,522,522,522,522,522,522,522,522,522,522,522,522,522,522,503,479,445,402,318,277,232,201,181,165,138,127,116,104,83],"timestamp_mouse":[10,34,50,70,89,109,131,149,170,189,211,231,251,269,290,310,330,350,369,389,411,430,450,470,491,510,530,550,571,590,610,629,651,670,690,710,729,750,770,790,811,830,850],"xSR":741.5,"ySR":469.95,"xT1":424.9,"yT1":0,"xT2":1058.1,"yT2":0,"toosoon":0,"cond_shown":"equaldotsize","ratio_trial":250,"smaller_num":"5","larger_num":"20","correct_side":2,"subjID":"gabrielbrocherobustillo","gender":"0","age":"12","school":"6"},{"start_time":1551887915575,"click_time":1551887916457,"finger_time":1551887916177,"fix_duration":737.96217382008,"trial":30,"RT":602,"MT":280,"sideResp":1,"stimulus":"img/750/equaldotsize/L/6_Ratio_750_L_24_R_18.png","xmouse":[804,804,804,804,804,804,804,804,804,804,804,804,804,804,804,804,804,804,804,804,804,804,804,804,804,804,804,804,803,777,728,674,639,625,602,593,581,570,553,542,539,536,533,528,510],"ymouse":[521,521,521,521,521,521,521,521,521,521,521,521,521,521,521,521,521,521,521,521,521,521,521,521,521,521,521,521,521,488,400,319,265,244,206,188,171,153,120,93,83,78,74,71,63],"timestamp_mouse":[8,27,42,61,82,103,121,141,161,182,201,223,242,262,283,301,321,343,362,382,401,422,443,461,483,501,522,541,562,583,602,621,641,663,682,702,723,741,763,782,802,822,842,863,881],"xSR":741.5,"ySR":469.95,"xT1":424.9,"yT1":0,"xT2":1058.1,"yT2":0,"toosoon":0,"cond_shown":"equaldotsize","ratio_trial":750,"smaller_num":"18","larger_num":"24","correct_side":1,"subjID":"gabrielbrocherobustillo","gender":"0","age":"12","school":"6"},{"start_time":1551887917966,"click_time":1551887918998,"finger_time":1551887918837,"fix_duration":949.5908668914469,"trial":31,"RT":871,"MT":161,"sideResp":1,"stimulus":"img/900/randomdotsizeEA/L/8_Ratio_900_L_20_R_18.png","xmouse":[768,770,772,772,772,772,772,772,772,772,772,772,772,772,772,772,772,772,772,772,772,772,772,772,772,772,772,772,772,772,772,772,773,773,773,773,773,773,772,770,769,766,759,699,649,606,564,531,501,478,459,432],"ymouse":[550,550,551,551,551,551,551,551,551,551,551,551,551,551,551,551,551,551,551,551,551,551,551,551,551,551,551,551,551,551,551,551,551,551,551,551,551,551,551,550,550,546,540,452,390,337,295,259,191,141,111,83],"timestamp_mouse":[13,33,51,72,91,110,132,152,170,191,210,232,251,270,292,312,332,350,370,392,410,431,450,471,490,511,530,551,572,590,610,631,650,671,690,710,732,750,770,792,811,831,852,871,890,911,931,951,972,990,1011,1032],"xSR":741.5,"ySR":469.95,"xT1":424.9,"yT1":0,"xT2":1058.1,"yT2":0,"toosoon":0,"cond_shown":"randomdotsizeEA","ratio_trial":900,"smaller_num":"18","larger_num":"20","correct_side":1,"subjID":"gabrielbrocherobustillo","gender":"0","age":"12","school":"6"},{"start_time":1551887921193,"click_time":1551887922517,"finger_time":1551887921757,"fix_duration":1273.035769326955,"trial":32,"RT":564,"MT":760,"sideResp":2,"stimulus":"img/750/equaldotsize/L/13_Ratio_750_L_8_R_6.png","xmouse":[782,782,782,782,782,782,782,782,782,782,782,782,782,782,782,782,782,782,782,782,782,782,782,782,782,782,786,816,847,878,911,935,981,989,997,999,999,1000,1000,1002,1006,1008,1010,1010,1012,1018,1024,1040,1043,1044,1045,1045,1046,1048,1048,1048,1048,1048,1051,1052,1052,1052,1052,1052,1054,1058,1061],"ymouse":[551,551,551,551,551,551,551,551,551,551,551,551,551,551,551,551,551,551,551,551,551,551,551,551,551,550,544,519,486,445,396,347,211,190,178,168,163,159,157,153,148,144,139,139,135,127,117,86,78,75,71,70,70,66,65,65,65,65,71,73,73,73,73,73,73,72,71],"timestamp_mouse":[8,28,44,63,83,105,125,144,165,184,204,223,245,264,284,303,325,344,363,384,403,425,444,465,484,503,525,544,564,584,603,624,645,663,684,705,723,745,763,784,805,823,845,864,884,903,925,945,963,984,1005,1023,1045,1064,1084,1105,1124,1145,1165,1184,1204,1223,1245,1264,1284,1304,1324],"xSR":741.5,"ySR":469.95,"xT1":424.9,"yT1":0,"xT2":1058.1,"yT2":0,"toosoon":0,"cond_shown":"equaldotsize","ratio_trial":750,"smaller_num":"6","larger_num":"8","correct_side":1,"subjID":"gabrielbrocherobustillo","gender":"0","age":"12","school":"6"},{"start_time":1551887923945,"click_time":1551887924997,"finger_time":1551887924616,"fix_duration":507.9861007742723,"trial":33,"RT":671,"MT":381,"sideResp":1,"stimulus":"img/500/equaldotsize/L/5_Ratio_500_L_4_R_2.png","xmouse":[780,780,780,777,777,777,777,777,777,777,777,777,777,777,777,777,777,777,777,777,775,775,775,775,775,775,775,775,775,773,773,768,763,751,744,722,716,712,708,695,689,676,672,661,646,644,644,624,602,572,545,531,523],"ymouse":[515,515,516,518,518,518,518,518,518,518,518,518,518,518,518,518,518,518,519,519,513,513,513,513,512,512,512,508,506,502,495,484,470,447,428,369,343,324,301,262,248,225,221,205,186,182,182,168,152,127,105,94,85],"timestamp_mouse":[11,36,53,71,93,112,133,153,173,191,213,233,252,272,293,313,332,351,372,393,412,432,452,472,493,513,532,551,571,592,612,632,651,671,692,712,732,753,771,793,811,832,853,872,892,911,933,953,972,992,1011,1032,1052],"xSR":741.5,"ySR":469.95,"xT1":424.9,"yT1":0,"xT2":1058.1,"yT2":0,"toosoon":0,"cond_shown":"equaldotsize","ratio_trial":500,"smaller_num":"2","larger_num":"4","correct_side":1,"subjID":"gabrielbrocherobustillo","gender":"0","age":"12","school":"6"},{"start_time":1551887926898,"click_time":1551887927838,"finger_time":1551887927637,"fix_duration":1081.5858035829942,"trial":34,"RT":739,"MT":201,"sideResp":2,"stimulus":"img/500/equaldotsize/R/2_Ratio_500_L_3_R_6.png","xmouse":[804,804,804,804,804,804,804,804,804,804,804,804,804,804,804,804,804,804,804,804,804,804,804,804,804,804,804,804,804,804,804,804,804,804,804,825,912,992,1053,1085,1109,1133,1141,1144,1146,1147,1148],"ymouse":[521,521,521,521,521,521,521,521,521,521,521,521,521,521,521,521,521,521,521,521,521,521,521,521,521,521,521,521,521,521,521,521,521,521,521,501,429,360,297,253,211,147,124,115,109,105,96],"timestamp_mouse":[20,39,59,80,98,118,139,160,178,200,219,238,260,278,298,319,339,360,378,398,419,439,459,478,499,519,539,558,580,599,618,639,660,679,699,719,739,758,779,799,818,840,858,879,899,918,939],"xSR":741.5,"ySR":469.95,"xT1":424.9,"yT1":0,"xT2":1058.1,"yT2":0,"toosoon":0,"cond_shown":"equaldotsize","ratio_trial":500,"smaller_num":"3","larger_num":"6","correct_side":2,"subjID":"gabrielbrocherobustillo","gender":"0","age":"12","school":"6"},{"start_time":1551887928948,"click_time":1551887929938,"finger_time":1551887929657,"fix_duration":250,"trial":35,"RT":709,"MT":281,"sideResp":1,"stimulus":"img/750/randomdotsizeEA/R/4_Ratio_750_L_15_R_20.png","xmouse":[812,812,812,812,812,812,812,812,812,812,812,812,812,812,812,812,812,812,812,812,812,812,812,812,812,812,812,812,812,812,812,812,809,806,787,771,744,709,673,619,604,596,587,577,568,541,533,531,528,520],"ymouse":[518,518,518,518,518,518,518,518,518,518,518,518,518,518,518,518,518,518,518,518,518,518,518,518,518,518,518,518,518,518,518,518,511,506,477,452,415,379,346,303,280,265,244,225,203,130,119,111,99,74],"timestamp_mouse":[13,34,49,68,89,109,128,149,169,189,210,228,249,269,290,310,329,350,370,389,409,428,449,468,489,508,530,548,569,588,610,629,648,669,689,709,730,750,769,789,808,828,848,869,890,909,929,950,969,990],"xSR":741.5,"ySR":469.95,"xT1":424.9,"yT1":0,"xT2":1058.1,"yT2":0,"toosoon":0,"cond_shown":"randomdotsizeEA","ratio_trial":750,"smaller_num":"15","larger_num":"20","correct_side":2,"subjID":"gabrielbrocherobustillo","gender":"0","age":"12","school":"6"},{"start_time":1551887931391,"click_time":1551887932537,"finger_time":1551887932137,"fix_duration":733.7502541802486,"trial":36,"RT":746,"MT":400,"sideResp":2,"stimulus":"img/250/randomdotsizeEA/R/10_Ratio_250_L_4_R_16.png","xmouse":[818,818,818,818,818,818,818,818,818,818,818,818,818,818,818,818,818,818,818,818,818,818,818,818,818,818,818,818,818,818,818,818,818,818,818,820,827,847,881,901,911,922,933,944,952,962,972,990,998,1002,1006,1014,1032,1042,1053,1057,1065,1084],"ymouse":[516,516,516,516,516,516,516,516,516,516,516,516,516,516,516,516,516,516,516,516,516,516,516,516,516,516,516,516,516,516,516,516,516,516,516,515,506,471,396,358,337,316,299,269,251,229,208,181,172,167,162,155,139,128,117,112,101,79],"timestamp_mouse":[8,27,45,65,85,107,125,146,165,185,206,226,245,267,286,305,327,345,365,386,405,426,446,466,486,507,525,545,566,587,605,625,646,666,685,706,725,746,766,786,807,826,846,866,886,907,925,947,965,986,1006,1025,1046,1065,1086,1106,1126,1146],"xSR":741.5,"ySR":469.95,"xT1":424.9,"yT1":0,"xT2":1058.1,"yT2":0,"toosoon":0,"cond_shown":"randomdotsizeEA","ratio_trial":250,"smaller_num":"4","larger_num":"16","correct_side":2,"subjID":"gabrielbrocherobustillo","gender":"0","age":"12","school":"6"},{"start_time":1551887934501,"click_time":1551887935717,"finger_time":1551887935376,"fix_duration":1162.686229202196,"trial":37,"RT":875,"MT":341,"sideResp":2,"stimulus":"img/900/equaldotanddens/R/9_Ratio_900_L_18_R_20.png","xmouse":[814,814,814,814,814,814,814,814,814,814,814,814,814,814,814,814,814,814,814,814,814,814,814,814,814,814,814,814,814,814,813,813,811,810,809,808,808,808,808,808,808,808,822,842,869,898,945,965,985,1001,1009,1014,1018,1023,1027,1031,1051,1062,1077,1089,1098],"ymouse":[493,493,493,493,493,493,493,493,493,493,493,493,493,493,493,493,493,493,493,493,493,493,493,493,493,493,493,493,493,493,493,493,492,492,492,491,491,491,491,491,491,487,474,459,437,406,346,316,283,256,244,236,230,224,218,208,172,151,127,108,95],"timestamp_mouse":[15,35,56,75,97,115,136,157,176,197,217,236,256,276,296,315,335,356,375,395,415,436,456,477,495,515,536,557,576,597,616,636,657,676,697,715,736,756,777,796,815,836,856,875,896,915,937,956,976,995,1016,1036,1055,1075,1096,1116,1137,1156,1177,1196,1216],"xSR":741.5,"ySR":469.95,"xT1":424.9,"yT1":0,"xT2":1058.1,"yT2":0,"toosoon":0,"cond_shown":"equaldotanddens","ratio_trial":900,"smaller_num":"18","larger_num":"20","correct_side":2,"subjID":"gabrielbrocherobustillo","gender":"0","age":"12","school":"6"},{"start_time":1551887937856,"click_time":1551887939036,"finger_time":1551887938558,"fix_duration":979.6380599014115,"trial":38,"RT":702,"MT":478,"sideResp":2,"stimulus":"img/250/randomdotsizeEA/R/6_Ratio_250_L_6_R_24.png","xmouse":[806,806,806,806,806,806,806,806,806,806,806,806,806,806,806,806,806,806,806,806,806,806,806,806,806,806,806,806,806,806,806,806,806,808,836,898,961,1022,1069,1114,1165,1172,1173,1173,1173,1176,1177,1178,1178,1178,1178,1178,1178,1177,1175,1173,1167,1163,1159,1154],"ymouse":[537,537,537,537,537,537,537,537,537,537,537,537,537,537,537,537,537,537,537,537,537,537,537,537,537,537,537,537,537,537,537,537,537,533,497,432,369,308,247,198,140,128,124,122,122,116,110,107,106,103,102,100,98,96,90,85,76,71,68,65],"timestamp_mouse":[9,32,40,61,80,101,121,140,160,181,200,220,241,260,281,301,321,340,360,380,401,421,440,460,480,501,522,541,561,582,601,622,641,662,681,702,721,741,761,780,801,821,840,860,881,900,920,940,960,981,1001,1021,1041,1061,1081,1101,1121,1141,1160,1180],"xSR":741.5,"ySR":469.95,"xT1":424.9,"yT1":0,"xT2":1058.1,"yT2":0,"toosoon":0,"cond_shown":"randomdotsizeEA","ratio_trial":250,"smaller_num":"6","larger_num":"24","correct_side":2,"subjID":"gabrielbrocherobustillo","gender":"0","age":"12","school":"6"},{"start_time":1551887940146,"click_time":1551887941437,"finger_time":1551887940937,"fix_duration":507.31394611826096,"trial":39,"RT":791,"MT":500,"sideResp":2,"stimulus":"img/250/equaldotsize/R/8_Ratio_250_L_1_R_4.png","xmouse":[812,812,812,812,812,812,812,812,812,812,812,812,812,812,812,812,812,812,812,812,812,812,812,812,812,812,812,812,812,812,812,812,812,812,812,812,812,812,811,816,865,889,904,917,936,941,945,951,955,956,967,976,982,986,994,1000,1006,1016,1023,1036,1044,1048,1053,1057,1064],"ymouse":[501,501,501,501,501,501,501,501,501,501,501,501,501,501,501,501,501,501,501,501,501,501,501,501,501,501,501,501,501,501,501,501,501,501,501,501,501,501,501,468,344,295,271,250,217,209,200,190,182,180,156,140,132,127,118,112,106,99,93,78,68,62,57,53,44],"timestamp_mouse":[11,32,52,71,91,111,132,150,170,191,210,230,250,270,290,310,330,350,370,390,411,430,452,470,490,511,530,552,570,591,611,632,650,671,691,711,732,750,771,791,811,831,850,872,891,910,930,952,970,991,1012,1031,1051,1071,1091,1111,1132,1152,1170,1191,1210,1231,1252,1271,1291],"xSR":741.5,"ySR":469.95,"xT1":424.9,"yT1":0,"xT2":1058.1,"yT2":0,"toosoon":0,"cond_shown":"equaldotsize","ratio_trial":250,"smaller_num":"1","larger_num":"4","correct_side":2,"subjID":"gabrielbrocherobustillo","gender":"0","age":"12","school":"6"},{"start_time":1551887944914,"click_time":1551887945917,"finger_time":1551887945638,"fix_duration":516.6388718612395,"trial":40,"RT":724,"MT":279,"sideResp":1,"stimulus":"img/250/randomdotsizeEA/L/3_Ratio_250_L_8_R_2.png","xmouse":[792,792,792,792,792,792,792,792,792,792,792,792,792,792,792,792,792,792,792,792,792,792,792,792,792,792,792,792,792,792,792,792,792,792,787,770,737,720,707,692,679,636,594,571,559,548,541,530,520,503,472],"ymouse":[525,525,525,525,525,525,525,525,525,525,525,525,525,525,525,525,525,525,525,525,525,525,525,525,525,525,525,525,525,525,525,525,525,525,520,502,466,446,426,400,375,309,259,234,220,201,181,145,131,116,99],"timestamp_mouse":[8,23,43,63,83,103,122,143,164,183,202,224,243,263,282,302,324,344,362,382,403,422,444,462,483,503,523,544,562,582,604,622,644,662,683,703,724,743,763,783,802,824,842,863,883,903,923,942,962,983,1003],"xSR":741.5,"ySR":469.95,"xT1":424.9,"yT1":0,"xT2":1058.1,"yT2":0,"toosoon":0,"cond_shown":"randomdotsizeEA","ratio_trial":250,"smaller_num":"2","larger_num":"8","correct_side":1,"subjID":"gabrielbrocherobustillo","gender":"0","age":"12","school":"6"},{"start_time":1551887947399,"click_time":1551887948737,"finger_time":1551887947738,"fix_duration":701.1642788431373,"trial":41,"RT":339,"MT":999,"sideResp":2,"stimulus":"img/750/equaldotsize/R/12_Ratio_750_L_3_R_4.png","xmouse":[781,781,781,781,781,781,781,781,781,781,781,781,786,789,790,791,791,792,792,792,792,792,792,792,792,792,792,792,792,792,792,792,792,792,793,803,843,864,872,877,881,896,906,922,940,982,1106,1176,1176,1176,1176,1176,1176,1176,1176,1176,1176,1176,1176,1176,1176,1193,1179,1172,1165,1162,1157],"ymouse":[535,535,535,535,535,535,535,535,535,535,535,528,506,490,480,474,466,464,462,462,462,462,462,460,459,459,459,459,459,459,459,459,459,459,457,454,443,433,427,422,418,400,387,369,342,285,113,25,25,25,25,25,25,25,25,25,25,25,25,25,25,36,51,60,70,75,80],"timestamp_mouse":[21,38,59,79,98,117,138,157,179,197,217,238,258,277,299,319,339,358,377,398,419,438,458,477,499,517,539,558,578,598,617,638,657,679,697,718,738,757,778,797,817,838,858,877,898,918,938,957,978,998,1018,1039,1059,1078,1098,1117,1138,1158,1178,1197,1218,1238,1257,1278,1299,1318,1338],"xSR":741.5,"ySR":469.95,"xT1":424.9,"yT1":0,"xT2":1058.1,"yT2":0,"toosoon":0,"cond_shown":"equaldotsize","ratio_trial":750,"smaller_num":"3","larger_num":"4","correct_side":2,"subjID":"gabrielbrocherobustillo","gender":"0","age":"12","school":"6"},{"start_time":1551887951063,"click_time":1551887951976,"finger_time":1551887951456,"fix_duration":744.0738055023234,"trial":42,"RT":393,"MT":520,"sideResp":2,"stimulus":"img/250/equaldotanddens/R/12_Ratio_250_L_5_R_20.png","xmouse":[805,805,805,805,805,805,805,805,805,805,805,805,805,805,805,805,805,805,806,812,820,824,825,825,825,825,825,826,853,872,893,909,919,936,967,1018,1061,1085,1097,1114,1119,1123,1124,1127,1132,1132],"ymouse":[488,488,488,488,488,488,488,488,488,488,488,488,488,488,488,488,488,488,482,466,454,449,447,447,447,447,447,445,414,394,371,355,343,320,288,244,211,191,179,155,145,134,127,120,102,95],"timestamp_mouse":[13,41,54,75,95,114,134,153,174,194,214,233,255,275,293,314,334,353,373,393,414,434,454,474,494,514,534,554,574,593,614,633,654,674,693,714,733,754,775,794,814,834,854,873,893,913],"xSR":741.5,"ySR":469.95,"xT1":424.9,"yT1":0,"xT2":1058.1,"yT2":0,"toosoon":0,"cond_shown":"equaldotanddens","ratio_trial":250,"smaller_num":"5","larger_num":"20","correct_side":2,"subjID":"gabrielbrocherobustillo","gender":"0","age":"12","school":"6"},{"start_time":1551887953028,"click_time":1551887954257,"finger_time":1551887953897,"fix_duration":250,"trial":43,"RT":869,"MT":360,"sideResp":1,"stimulus":"img/250/equaldotanddens/L/5_Ratio_250_L_24_R_6.png","xmouse":[800,800,800,800,800,800,800,800,800,800,800,800,800,800,800,800,800,800,800,800,800,800,800,800,800,800,800,800,800,800,800,800,800,800,800,800,800,800,800,800,795,776,764,748,724,670,631,607,599,586,573,565,559,553,545,539,539,539,539,537,526,522],"ymouse":[522,522,522,522,522,522,522,522,522,522,522,522,522,522,522,522,522,522,522,522,522,522,522,522,522,522,522,522,522,522,522,522,522,522,522,522,522,522,522,522,521,514,504,459,395,278,211,176,164,145,123,112,105,94,82,70,69,69,69,69,73,75],"timestamp_mouse":[17,29,50,69,89,109,129,150,169,190,210,228,250,269,289,309,329,349,369,389,409,429,450,468,490,509,529,550,568,590,609,629,649,669,690,708,730,748,769,790,809,829,848,869,890,910,929,949,969,989,1010,1028,1049,1070,1090,1110,1129,1149,1168,1190,1209,1229],"xSR":741.5,"ySR":469.95,"xT1":424.9,"yT1":0,"xT2":1058.1,"yT2":0,"toosoon":0,"cond_shown":"equaldotanddens","ratio_trial":250,"smaller_num":"6","larger_num":"24","correct_side":1,"subjID":"gabrielbrocherobustillo","gender":"0","age":"12","school":"6"},{"start_time":1551887956011,"click_time":1551887957077,"finger_time":1551887956757,"fix_duration":792.9210532997752,"trial":44,"RT":746,"MT":320,"sideResp":1,"stimulus":"img/250/equaldotsize/L/2_Ratio_250_L_16_R_4.png","xmouse":[790,791,792,792,792,792,792,792,792,792,792,792,792,792,792,792,792,792,792,792,792,792,792,792,792,792,792,792,792,792,792,792,792,792,792,791,788,723,691,674,659,650,645,642,634,623,607,603,601,599,592,535,510,497],"ymouse":[529,529,530,530,530,530,530,530,530,530,530,530,530,530,530,530,530,530,530,530,530,530,530,530,530,530,530,530,530,530,530,530,530,530,530,529,526,381,311,266,238,206,190,184,174,163,147,144,143,142,139,115,104,95],"timestamp_mouse":[8,33,46,66,86,107,126,147,166,186,206,226,246,267,286,306,327,346,365,386,406,426,446,467,486,507,527,545,566,586,606,626,647,667,687,706,726,746,766,786,806,827,846,866,887,906,926,946,965,986,1007,1026,1046,1066],"xSR":741.5,"ySR":469.95,"xT1":424.9,"yT1":0,"xT2":1058.1,"yT2":0,"toosoon":0,"cond_shown":"equaldotsize","ratio_trial":250,"smaller_num":"4","larger_num":"16","correct_side":1,"subjID":"gabrielbrocherobustillo","gender":"0","age":"12","school":"6"},{"start_time":1551887959329,"click_time":1551887960617,"finger_time":1551887960138,"fix_duration":1189.0751748448884,"trial":45,"RT":809,"MT":479,"sideResp":1,"stimulus":"img/500/equaldotsize/L/7_Ratio_500_L_10_R_5.png","xmouse":[752,752,752,752,752,752,752,752,752,752,752,752,752,752,752,752,752,752,752,752,752,752,752,752,752,752,752,752,752,752,752,752,752,752,752,752,752,752,752,749,738,727,719,709,700,677,665,652,639,630,620,605,592,589,585,569,560,553,551,549,546,538,526,515,499],"ymouse":[493,493,493,493,493,493,493,493,493,493,493,493,493,493,493,493,493,493,493,493,493,493,493,493,493,493,493,493,493,493,493,493,493,493,493,493,493,493,493,477,440,409,386,362,348,316,301,286,271,258,245,222,200,195,187,166,156,149,147,145,142,132,121,109,98],"timestamp_mouse":[9,29,48,69,88,108,129,148,167,188,208,227,247,269,289,308,328,348,369,388,409,429,448,469,488,508,528,549,568,588,609,628,648,669,688,709,729,749,769,789,809,828,848,869,889,908,928,948,968,988,1009,1029,1048,1069,1088,1108,1128,1149,1168,1189,1208,1227,1248,1268,1288],"xSR":741.5,"ySR":469.95,"xT1":424.9,"yT1":0,"xT2":1058.1,"yT2":0,"toosoon":0,"cond_shown":"equaldotsize","ratio_trial":500,"smaller_num":"5","larger_num":"10","correct_side":1,"subjID":"gabrielbrocherobustillo","gender":"0","age":"12","school":"6"},{"start_time":1551887962459,"click_time":1551887963357,"finger_time":1551887962957,"fix_duration":940.5326712079011,"trial":46,"RT":498,"MT":400,"sideResp":2,"stimulus":"img/750/equaldotanddens/L/14_Ratio_750_L_8_R_6.png","xmouse":[768,768,768,768,768,768,768,768,768,768,768,768,768,768,768,768,768,768,768,768,768,769,769,776,801,826,863,873,910,922,930,937,948,969,981,996,1008,1014,1023,1026,1031,1037,1045,1054,1073],"ymouse":[491,491,491,491,491,491,491,491,491,491,491,491,491,491,491,491,491,491,491,491,491,492,492,488,456,425,365,345,288,271,262,251,237,216,203,183,170,160,149,144,134,121,106,89,56],"timestamp_mouse":[33,38,58,78,99,119,139,158,178,198,218,238,259,278,299,318,339,359,378,398,418,438,458,478,498,518,538,559,578,597,619,640,658,679,698,719,738,759,778,797,818,838,858,879,898],"xSR":741.5,"ySR":469.95,"xT1":424.9,"yT1":0,"xT2":1058.1,"yT2":0,"toosoon":0,"cond_shown":"equaldotanddens","ratio_trial":750,"smaller_num":"6","larger_num":"8","correct_side":1,"subjID":"gabrielbrocherobustillo","gender":"0","age":"12","school":"6"},{"start_time":1551887964792,"click_time":1551887965817,"finger_time":1551887965397,"fix_duration":713.5963577094449,"trial":47,"RT":605,"MT":420,"sideResp":1,"stimulus":"img/750/equaldotanddens/L/13_Ratio_750_L_8_R_6.png","xmouse":[825,825,825,825,825,825,825,825,825,825,825,825,825,825,825,825,825,825,825,825,825,825,825,825,825,825,825,825,824,821,810,764,682,660,646,639,637,629,621,602,594,589,583,577,567,553,536,521,521,518,512,509],"ymouse":[485,485,485,485,485,485,485,485,485,485,485,485,485,485,485,485,485,485,485,485,485,485,485,485,485,485,485,485,485,482,460,365,251,228,215,209,207,193,185,165,159,154,147,141,131,123,116,109,109,107,101,97],"timestamp_mouse":[8,41,46,65,86,105,125,145,166,185,206,226,246,266,285,305,326,345,364,385,405,425,445,465,486,505,525,546,565,585,605,625,645,665,685,706,726,745,764,785,805,826,845,865,885,905,924,946,965,985,1006,1025],"xSR":741.5,"ySR":469.95,"xT1":424.9,"yT1":0,"xT2":1058.1,"yT2":0,"toosoon":0,"cond_shown":"equaldotanddens","ratio_trial":750,"smaller_num":"6","larger_num":"8","correct_side":1,"subjID":"gabrielbrocherobustillo","gender":"0","age":"12","school":"6"},{"start_time":1551887967568,"click_time":1551887968538,"finger_time":1551887968177,"fix_duration":1209.95791386568,"trial":48,"RT":609,"MT":361,"sideResp":2,"stimulus":"img/500/randomdotsizeEA/R/6_Ratio_500_L_9_R_18.png","xmouse":[761,761,761,761,761,761,761,761,761,761,761,761,761,761,761,761,761,761,761,761,761,761,761,761,761,761,761,761,761,773,784,804,828,864,884,901,913,920,924,931,936,937,943,966,980,996,1012,1029,1059],"ymouse":[490,490,490,490,490,490,490,490,490,490,490,490,490,490,490,490,490,490,490,490,490,490,490,490,490,490,490,490,490,473,448,415,380,317,288,261,239,222,207,184,173,168,159,148,142,134,126,115,95],"timestamp_mouse":[10,36,50,69,89,109,129,149,168,189,210,230,250,270,289,309,329,350,369,389,410,429,450,469,489,509,529,549,569,590,609,630,649,670,689,710,729,750,770,790,810,829,850,869,889,909,930,949,969],"xSR":741.5,"ySR":469.95,"xT1":424.9,"yT1":0,"xT2":1058.1,"yT2":0,"toosoon":0,"cond_shown":"randomdotsizeEA","ratio_trial":500,"smaller_num":"9","larger_num":"18","correct_side":2,"subjID":"gabrielbrocherobustillo","gender":"0","age":"12","school":"6"},{"start_time":1551887969669,"click_time":1551887970419,"finger_time":1551887970118,"fix_duration":250,"trial":49,"RT":449,"MT":301,"sideResp":2,"stimulus":"img/250/equaldotsize/R/6_Ratio_250_L_6_R_24.png","xmouse":[832,832,832,832,832,832,832,832,832,832,832,832,832,832,832,832,832,832,831,831,831,831,842,874,903,919,938,959,998,1011,1023,1034,1041,1049,1052,1054,1056,1059],"ymouse":[523,523,523,523,523,523,523,523,523,523,523,523,523,523,523,523,523,523,523,523,522,519,489,444,405,375,340,299,228,200,180,164,150,125,112,104,96,92],"timestamp_mouse":[8,40,48,69,87,109,128,148,168,189,208,229,249,269,288,309,328,348,369,389,408,429,449,468,487,509,528,549,568,588,608,629,648,670,688,708,728,749],"xSR":741.5,"ySR":469.95,"xT1":424.9,"yT1":0,"xT2":1058.1,"yT2":0,"toosoon":0,"cond_shown":"equaldotsize","ratio_trial":250,"smaller_num":"6","larger_num":"24","correct_side":2,"subjID":"gabrielbrocherobustillo","gender":"0","age":"12","school":"6"},{"start_time":1551887972744,"click_time":1551887973837,"finger_time":1551887973336,"fix_duration":1384.4892696486254,"trial":50,"RT":592,"MT":501,"sideResp":1,"stimulus":"img/250/equaldotanddens/L/3_Ratio_250_L_8_R_2.png","xmouse":[835,835,835,835,835,835,835,835,835,835,835,835,835,835,835,835,835,835,835,835,835,835,835,835,835,835,835,835,824,803,769,710,668,641,605,599,598,595,593,581,569,565,558,551,529,518,511,508,506,506,505,499,495,490,485],"ymouse":[501,501,501,501,501,501,501,501,501,501,501,501,501,501,501,501,501,501,501,501,501,501,501,501,501,501,501,501,479,449,405,355,324,305,274,267,262,255,247,223,210,204,196,185,154,141,134,130,128,127,126,119,114,109,98],"timestamp_mouse":[13,33,53,75,94,113,133,153,173,193,213,233,254,273,294,313,333,354,374,393,413,433,454,474,493,513,533,553,574,592,613,633,653,674,693,712,734,754,773,793,813,833,853,873,893,913,934,954,973,994,1013,1033,1053,1073,1093],"xSR":741.5,"ySR":469.95,"xT1":424.9,"yT1":0,"xT2":1058.1,"yT2":0,"toosoon":0,"cond_shown":"equaldotanddens","ratio_trial":250,"smaller_num":"2","larger_num":"8","correct_side":1,"subjID":"gabrielbrocherobustillo","gender":"0","age":"12","school":"6"},{"start_time":1551887974609,"click_time":1551887975438,"finger_time":1551887975117,"fix_duration":250,"trial":51,"RT":508,"MT":321,"sideResp":1,"stimulus":"img/250/equaldotsize/L/3_Ratio_250_L_8_R_2.png","xmouse":[762,762,762,762,762,762,762,762,762,762,762,762,762,762,762,762,762,762,762,762,762,762,762,760,756,724,701,632,613,602,595,582,577,574,572,569,564,558,536,519,498,479],"ymouse":[504,504,504,504,504,504,504,504,504,504,504,504,504,504,504,504,504,504,504,504,504,504,504,504,496,447,420,318,294,273,256,229,216,209,202,194,184,177,155,137,115,92],"timestamp_mouse":[8,33,49,69,89,108,128,149,169,188,208,228,248,268,288,308,328,349,367,388,409,428,448,469,488,508,529,548,568,589,609,628,648,668,688,709,729,747,768,788,808,829],"xSR":741.5,"ySR":469.95,"xT1":424.9,"yT1":0,"xT2":1058.1,"yT2":0,"toosoon":0,"cond_shown":"equaldotsize","ratio_trial":250,"smaller_num":"2","larger_num":"8","correct_side":1,"subjID":"gabrielbrocherobustillo","gender":"0","age":"12","school":"6"},{"start_time":1551887976475,"click_time":1551887977158,"finger_time":1551887976957,"fix_duration":315.5194861999192,"trial":52,"RT":482,"MT":201,"sideResp":1,"stimulus":"img/250/equaldotsize/L/1_Ratio_250_L_8_R_2.png","xmouse":[784,784,784,784,784,784,783,783,783,783,783,783,783,783,783,783,783,783,783,783,783,783,783,782,753,720,685,645,578,561,548,535,527,524,520],"ymouse":[525,525,525,525,524,524,524,524,524,524,524,524,524,524,524,524,524,524,524,524,524,524,524,522,426,374,329,279,192,168,148,129,116,108,91],"timestamp_mouse":[5,37,42,63,82,102,123,142,162,183,201,222,242,262,282,302,321,343,362,382,403,421,442,462,482,502,522,542,562,582,602,623,642,663,683],"xSR":741.5,"ySR":469.95,"xT1":424.9,"yT1":0,"xT2":1058.1,"yT2":0,"toosoon":0,"cond_shown":"equaldotsize","ratio_trial":250,"smaller_num":"2","larger_num":"8","correct_side":1,"subjID":"gabrielbrocherobustillo","gender":"0","age":"12","school":"6"},{"start_time":1551887978940,"click_time":1551887980157,"finger_time":1551887979316,"fix_duration":1041.9782150229391,"trial":53,"RT":376,"MT":841,"sideResp":1,"stimulus":"img/750/randomdotsizeEA/L/14_Ratio_750_L_8_R_6.png","xmouse":[807,807,807,807,807,807,807,807,807,807,807,807,807,807,807,807,807,800,766,723,643,627,627,627,627,627,627,627,627,627,627,627,627,627,627,627,627,627,627,627,629,636,645,660,683,688,689,689,689,689,667,646,617,595,549,542,537,535,533,532,524],"ymouse":[502,502,502,502,502,502,502,502,502,502,502,502,502,502,502,502,502,493,459,424,375,363,363,363,363,363,363,363,363,363,363,363,363,363,363,363,363,363,363,362,362,365,371,382,399,401,401,401,401,401,349,312,261,217,145,126,114,106,100,90,69],"timestamp_mouse":[17,37,57,78,97,118,136,157,177,198,217,238,257,278,297,317,337,357,376,398,417,437,458,477,498,517,538,557,577,598,616,637,656,677,698,717,737,758,778,798,816,837,857,878,898,917,938,957,977,998,1017,1037,1057,1078,1098,1117,1137,1158,1176,1198,1217],"xSR":741.5,"ySR":469.95,"xT1":424.9,"yT1":0,"xT2":1058.1,"yT2":0,"toosoon":0,"cond_shown":"randomdotsizeEA","ratio_trial":750,"smaller_num":"6","larger_num":"8","correct_side":1,"subjID":"gabrielbrocherobustillo","gender":"0","age":"12","school":"6"},{"start_time":1551887981734,"click_time":1551887982917,"finger_time":1551887982457,"fix_duration":975.600087934646,"trial":54,"RT":723,"MT":460,"sideResp":2,"stimulus":"img/900/equaldotanddens/R/5_Ratio_900_L_9_R_10.png","xmouse":[755,755,755,755,755,755,755,755,755,755,755,755,755,755,755,755,755,755,755,755,755,755,755,755,755,757,757,757,757,757,758,760,761,761,768,824,887,927,959,978,1061,1126,1141,1148,1152,1156,1160,1161,1161,1161,1157,1153,1148,1146,1144,1139,1138,1136,1134,1132],"ymouse":[551,551,551,551,551,551,551,551,551,551,551,551,551,551,551,551,551,551,551,551,551,551,551,551,551,552,552,552,552,552,552,553,553,553,551,517,486,460,435,415,336,294,286,281,275,252,240,228,219,208,180,157,144,134,130,114,108,104,100,95],"timestamp_mouse":[9,37,44,63,84,104,124,143,163,183,203,224,244,263,284,303,323,344,363,382,403,423,443,464,483,503,524,544,563,584,604,623,643,663,682,704,723,743,763,784,804,823,843,863,882,904,923,944,964,984,1004,1023,1043,1062,1083,1103,1123,1143,1164,1183],"xSR":741.5,"ySR":469.95,"xT1":424.9,"yT1":0,"xT2":1058.1,"yT2":0,"toosoon":0,"cond_shown":"equaldotanddens","ratio_trial":900,"smaller_num":"9","larger_num":"10","correct_side":2,"subjID":"gabrielbrocherobustillo","gender":"0","age":"12","school":"6"},{"start_time":1551887985131,"click_time":1551887986037,"finger_time":1551887985738,"fix_duration":1353.6018023804013,"trial":55,"RT":607,"MT":299,"sideResp":1,"stimulus":"img/250/randomdotsizeEA/L/7_Ratio_250_L_8_R_2.png","xmouse":[800,800,800,800,800,800,800,800,800,800,800,800,800,800,800,800,800,800,800,800,800,800,800,800,800,800,800,800,800,797,781,770,753,732,717,691,674,659,639,613,557,530,522,518,514,508],"ymouse":[503,503,503,503,503,503,503,503,503,503,503,503,503,503,503,503,503,503,503,503,503,503,504,504,504,504,504,504,504,504,469,449,410,375,344,297,273,253,232,206,157,134,122,113,100,76],"timestamp_mouse":[8,37,46,67,87,116,127,146,167,187,205,226,246,267,286,306,326,346,367,387,406,426,446,467,486,507,525,546,566,586,607,626,646,666,686,707,725,747,766,786,806,826,846,867,886,906],"xSR":741.5,"ySR":469.95,"xT1":424.9,"yT1":0,"xT2":1058.1,"yT2":0,"toosoon":0,"cond_shown":"randomdotsizeEA","ratio_trial":250,"smaller_num":"2","larger_num":"8","correct_side":1,"subjID":"gabrielbrocherobustillo","gender":"0","age":"12","school":"6"},{"start_time":1551887987727,"click_time":1551887989038,"finger_time":1551887988557,"fix_duration":888.8763493329706,"trial":56,"RT":830,"MT":481,"sideResp":2,"stimulus":"img/900/randomdotsizeEA/R/7_Ratio_900_L_9_R_10.png","xmouse":[773,773,773,773,773,773,773,773,773,773,773,773,773,773,773,773,772,772,772,772,772,772,772,772,772,773,773,773,773,773,773,776,779,782,783,792,796,798,801,804,808,853,896,956,1014,1078,1089,1094,1095,1097,1108,1111,1113,1113,1113,1113,1114,1114,1114,1114,1114,1112,1111,1109,1108,1106],"ymouse":[518,518,518,518,518,518,518,518,518,518,518,518,518,517,517,517,517,517,517,517,517,517,517,517,517,514,513,511,511,511,511,511,511,511,510,506,502,501,498,495,492,479,467,451,420,363,329,289,242,207,162,148,140,134,131,130,129,127,125,123,121,115,110,106,101,89],"timestamp_mouse":[20,44,50,70,90,110,130,151,170,191,210,230,250,270,290,310,331,350,371,390,410,431,450,471,489,510,530,550,571,591,611,630,650,671,689,711,730,750,771,790,809,830,850,870,890,911,930,950,970,990,1010,1030,1050,1071,1090,1110,1130,1150,1170,1190,1210,1230,1251,1270,1290,1311],"xSR":741.5,"ySR":469.95,"xT1":424.9,"yT1":0,"xT2":1058.1,"yT2":0,"toosoon":0,"cond_shown":"randomdotsizeEA","ratio_trial":900,"smaller_num":"9","larger_num":"10","correct_side":2,"subjID":"gabrielbrocherobustillo","gender":"0","age":"12","school":"6"},{"start_time":1551887989961,"click_time":1551887991037,"finger_time":1551887990657,"fix_duration":361.5838231208882,"trial":57,"RT":696,"MT":380,"sideResp":1,"stimulus":"img/500/equaldotsize/L/5_Ratio_500_L_4_R_2.png","xmouse":[769,769,769,769,769,769,769,770,773,773,773,773,773,773,773,773,773,773,773,773,773,773,773,773,773,773,773,773,773,773,773,773,773,762,703,655,606,567,514,486,475,462,453,447,439,439,439,439,442,444,446,449,450,455],"ymouse":[566,566,566,566,566,566,566,565,555,554,553,553,553,552,552,552,552,552,552,552,552,552,552,552,552,552,552,552,552,552,552,552,552,527,459,419,383,354,305,262,245,227,211,198,171,161,149,138,124,118,113,107,100,85],"timestamp_mouse":[25,37,56,75,96,116,137,157,176,196,216,236,256,276,296,316,337,357,377,397,416,437,457,476,496,517,536,557,577,596,617,637,656,676,696,716,737,756,776,796,816,836,857,876,896,917,936,956,977,996,1016,1036,1056,1076],"xSR":741.5,"ySR":469.95,"xT1":424.9,"yT1":0,"xT2":1058.1,"yT2":0,"toosoon":0,"cond_shown":"equaldotsize","ratio_trial":500,"smaller_num":"2","larger_num":"4","correct_side":1,"subjID":"gabrielbrocherobustillo","gender":"0","age":"12","school":"6"},{"start_time":1551887992745,"click_time":1551887993739,"finger_time":1551887993518,"fix_duration":1046.7165284652967,"trial":58,"RT":773,"MT":221,"sideResp":2,"stimulus":"img/900/randomdotsizeEA/L/4_Ratio_900_L_20_R_18.png","xmouse":[792,792,792,792,792,792,792,792,792,792,792,792,792,792,792,792,792,792,792,792,792,792,792,792,792,792,792,792,792,792,792,792,792,792,792,792,797,813,856,954,1036,1080,1100,1108,1114,1114,1114,1114,1114,1114],"ymouse":[504,504,504,504,504,504,504,504,504,504,504,504,504,504,504,504,504,504,504,504,504,504,504,504,504,504,504,504,504,504,504,504,504,504,504,504,503,498,487,408,312,247,208,186,153,140,126,115,107,83],"timestamp_mouse":[13,43,52,73,92,112,133,153,173,192,212,231,253,273,292,313,332,353,372,393,413,433,453,473,493,512,532,552,572,593,612,631,653,672,693,713,732,753,773,792,812,832,853,872,892,912,932,952,972,993],"xSR":741.5,"ySR":469.95,"xT1":424.9,"yT1":0,"xT2":1058.1,"yT2":0,"toosoon":0,"cond_shown":"randomdotsizeEA","ratio_trial":900,"smaller_num":"18","larger_num":"20","correct_side":1,"subjID":"gabrielbrocherobustillo","gender":"0","age":"12","school":"6"},{"start_time":1551887994789,"click_time":1551887995837,"finger_time":1551887995537,"fix_duration":250,"trial":59,"RT":748,"MT":300,"sideResp":1,"stimulus":"img/750/equaldotsize/L/1_Ratio_750_L_20_R_15.png","xmouse":[833,833,833,833,833,833,833,833,833,833,833,833,833,833,833,833,833,833,833,833,833,833,833,833,833,833,833,833,833,833,833,833,833,833,833,829,818,777,697,683,675,674,668,667,662,652,636,596,578,570,560,545,498],"ymouse":[505,505,505,505,505,505,505,505,505,505,505,505,505,505,505,505,505,505,505,505,505,505,505,505,505,505,505,505,505,505,505,505,505,505,505,504,487,434,314,280,266,259,238,230,221,204,180,134,115,110,105,93,69],"timestamp_mouse":[9,37,48,68,88,108,129,149,168,189,209,227,248,268,289,308,327,349,368,389,408,428,448,468,489,509,528,547,568,588,609,629,649,669,688,708,728,748,769,788,808,828,849,868,889,909,928,949,968,989,1008,1028,1048],"xSR":741.5,"ySR":469.95,"xT1":424.9,"yT1":0,"xT2":1058.1,"yT2":0,"toosoon":0,"cond_shown":"equaldotsize","ratio_trial":750,"smaller_num":"15","larger_num":"20","correct_side":1,"subjID":"gabrielbrocherobustillo","gender":"0","age":"12","school":"6"},{"start_time":1551887997663,"click_time":1551887998797,"finger_time":1551887998398,"fix_duration":584.2573563656796,"trial":60,"RT":735,"MT":399,"sideResp":1,"stimulus":"img/250/equaldotanddens/L/2_Ratio_250_L_16_R_4.png","xmouse":[785,785,785,785,785,785,785,785,785,785,785,785,785,785,785,785,785,785,785,785,785,785,785,785,785,785,785,785,785,785,785,785,785,785,787,784,775,757,727,718,711,704,695,666,655,648,635,620,591,572,556,543,534,524,517,513,506],"ymouse":[531,531,531,531,531,531,531,531,531,531,531,531,531,531,531,531,531,531,531,531,531,531,531,531,531,531,531,531,531,531,531,531,531,531,509,486,463,417,340,319,304,288,267,228,213,203,186,171,148,138,128,121,117,110,106,101,95],"timestamp_mouse":[15,41,54,74,94,114,135,154,174,195,215,234,254,275,294,313,335,354,375,395,414,434,455,474,494,515,535,553,574,594,614,633,654,674,694,714,735,755,774,795,814,834,855,874,894,914,934,954,975,994,1014,1034,1054,1074,1094,1115,1134],"xSR":741.5,"ySR":469.95,"xT1":424.9,"yT1":0,"xT2":1058.1,"yT2":0,"toosoon":0,"cond_shown":"equaldotanddens","ratio_trial":250,"smaller_num":"4","larger_num":"16","correct_side":1,"subjID":"gabrielbrocherobustillo","gender":"0","age":"12","school":"6"},{"start_time":1551888000233,"click_time":1551888001938,"finger_time":1551888000997,"fix_duration":374.342765142863,"trial":61,"RT":764,"MT":941,"sideResp":1,"stimulus":"img/750/randomdotsizeEA/L/14_Ratio_750_L_8_R_6.png","xmouse":[791,791,791,791,791,791,791,791,791,791,791,791,791,791,791,791,791,791,791,791,791,791,791,791,791,791,791,791,791,791,791,791,791,791,791,803,816,832,866,901,940,955,973,989,1004,1021,1034,1040,1045,1049,1056,1060,1062,1063,1066,1068,1071,1072,1073,1073,1073,1073,1073,1073,1073,1073,1073,1071,1066,1062,1052,1041,1021,993,951,903,787,742,721,703,675,652,629,597,564,497],"ymouse":[515,515,515,515,515,515,515,515,515,515,515,515,515,515,515,515,515,515,515,515,515,515,515,515,515,515,515,515,515,515,515,515,515,515,515,507,496,485,464,444,411,392,370,347,325,290,259,244,232,220,201,195,191,188,183,172,164,160,158,158,157,156,155,155,155,155,155,155,157,160,163,164,164,164,160,148,123,105,94,88,82,78,73,71,71,65],"timestamp_mouse":[20,36,45,64,84,105,124,145,164,184,205,224,244,264,284,304,324,344,364,385,404,425,444,465,485,505,523,545,565,584,604,624,645,665,684,705,725,744,764,785,804,823,844,865,884,904,924,944,965,984,1004,1024,1044,1064,1084,1105,1123,1144,1164,1185,1204,1224,1244,1265,1283,1305,1325,1344,1364,1384,1404,1424,1444,1465,1484,1504,1525,1544,1564,1584,1604,1624,1644,1664,1684,1705],"xSR":741.5,"ySR":469.95,"xT1":424.9,"yT1":0,"xT2":1058.1,"yT2":0,"toosoon":0,"cond_shown":"randomdotsizeEA","ratio_trial":750,"smaller_num":"6","larger_num":"8","correct_side":1,"subjID":"gabrielbrocherobustillo","gender":"0","age":"12","school":"6"},{"start_time":1551888003545,"click_time":1551888004497,"finger_time":1551888004238,"fix_duration":845.9366793098649,"trial":62,"RT":693,"MT":259,"sideResp":1,"stimulus":"img/250/equaldotanddens/L/2_Ratio_250_L_16_R_4.png","xmouse":[743,743,743,743,743,743,743,743,743,743,743,743,743,743,743,743,743,743,743,743,743,743,743,743,743,743,743,743,743,743,743,743,743,743,736,736,739,742,731,663,617,592,572,558,543,537,532,524],"ymouse":[557,557,557,557,557,557,557,557,557,557,557,557,557,557,557,557,557,557,557,557,557,557,557,557,557,557,557,557,557,557,557,557,556,543,505,475,427,371,320,227,178,151,132,118,97,86,76,62],"timestamp_mouse":[28,32,52,71,92,113,132,153,172,192,213,233,251,272,293,312,332,353,371,393,412,432,452,472,492,513,533,552,573,593,613,632,653,671,693,712,732,753,771,793,812,832,853,871,892,912,932,952],"xSR":741.5,"ySR":469.95,"xT1":424.9,"yT1":0,"xT2":1058.1,"yT2":0,"toosoon":0,"cond_shown":"equaldotanddens","ratio_trial":250,"smaller_num":"4","larger_num":"16","correct_side":1,"subjID":"gabrielbrocherobustillo","gender":"0","age":"12","school":"6"},{"start_time":1551888006315,"click_time":1551888007877,"finger_time":1551888007077,"fix_duration":1075.1906806345341,"trial":63,"RT":762,"MT":800,"sideResp":1,"stimulus":"img/750/equaldotanddens/L/1_Ratio_750_L_20_R_15.png","xmouse":[796,796,796,796,796,796,796,796,796,796,796,796,796,796,796,796,796,796,796,796,796,796,796,796,796,795,795,795,794,792,791,791,788,787,786,785,780,776,771,765,766,745,693,693,693,693,693,693,693,693,693,693,693,586,572,561,549,548,547,546,546,546,546,545,543,542,535,531,529,529,529,527,526,526,526,525,525,525,524],"ymouse":[545,545,545,545,545,545,545,545,545,545,545,545,545,545,545,545,545,545,545,545,545,545,545,545,545,545,545,545,544,543,543,542,540,531,524,516,498,480,453,412,349,157,2,2,2,2,2,2,2,2,2,2,2,12,61,90,109,111,111,111,111,111,111,110,103,95,81,77,75,75,74,74,73,73,73,73,73,73,73],"timestamp_mouse":[8,22,42,63,81,103,122,142,162,182,202,222,243,261,283,302,323,343,361,382,401,422,443,462,481,502,522,542,562,582,603,622,642,662,683,702,722,742,762,782,802,822,842,862,882,902,922,942,961,982,1002,1022,1042,1062,1081,1102,1122,1142,1162,1182,1203,1222,1242,1262,1282,1303,1322,1341,1361,1382,1403,1423,1443,1463,1483,1502,1522,1543,1562],"xSR":741.5,"ySR":469.95,"xT1":424.9,"yT1":0,"xT2":1058.1,"yT2":0,"toosoon":0,"cond_shown":"equaldotanddens","ratio_trial":750,"smaller_num":"15","larger_num":"20","correct_side":1,"subjID":"gabrielbrocherobustillo","gender":"0","age":"12","school":"6"},{"start_time":1551888009488,"click_time":1551888010757,"finger_time":1551888010118,"fix_duration":569.0010084555147,"trial":64,"RT":630,"MT":639,"sideResp":2,"stimulus":"img/500/randomdotsizeEA/R/3_Ratio_500_L_10_R_20.png","xmouse":[755,755,755,755,755,755,755,755,755,755,755,755,755,755,755,755,755,755,755,755,755,755,755,755,755,755,755,755,758,765,777,794,853,876,884,895,905,928,942,953,966,979,1004,1008,1008,1008,1008,1008,1009,1011,1012,1013,1015,1021,1026,1032,1037,1044,1047,1050,1052,1054,1057,1059],"ymouse":[516,516,516,516,516,516,516,516,516,516,516,516,516,516,516,516,516,516,516,516,516,516,516,516,516,516,516,516,515,508,492,468,373,329,312,297,282,251,234,218,197,174,133,126,126,126,126,126,124,120,117,114,109,99,87,73,66,52,46,41,38,36,32,32],"timestamp_mouse":[9,34,49,68,89,109,129,150,169,189,209,229,249,269,289,309,329,350,368,389,409,429,449,469,489,509,529,550,569,588,609,630,650,669,689,708,729,749,768,790,810,829,849,869,889,908,928,950,969,989,1009,1030,1050,1069,1089,1109,1130,1149,1169,1190,1210,1229,1250,1269],"xSR":741.5,"ySR":469.95,"xT1":424.9,"yT1":0,"xT2":1058.1,"yT2":0,"toosoon":0,"cond_shown":"randomdotsizeEA","ratio_trial":500,"smaller_num":"10","larger_num":"20","correct_side":2,"subjID":"gabrielbrocherobustillo","gender":"0","age":"12","school":"6"},{"start_time":1551888011830,"click_time":1551888013138,"finger_time":1551888012677,"fix_duration":250,"trial":65,"RT":847,"MT":461,"sideResp":2,"stimulus":"img/750/equaldotanddens/R/4_Ratio_750_L_15_R_20.png","xmouse":[749,749,749,749,749,749,749,749,749,749,749,749,749,749,749,749,749,749,749,749,749,749,749,749,749,749,749,749,749,749,749,749,749,760,766,783,788,793,794,796,819,835,854,869,882,908,926,936,938,938,943,971,1015,1048,1061,1065,1063,1054,1046,1039,1030,1026,1028,1037,1048,1064],"ymouse":[546,546,546,546,546,546,546,546,546,546,546,546,546,546,546,546,546,546,546,546,546,546,546,546,546,546,546,546,546,546,546,546,546,545,542,535,532,529,528,525,504,487,465,447,430,403,392,389,388,388,380,349,317,298,285,260,244,224,208,199,184,155,132,108,84,47],"timestamp_mouse":[8,38,47,67,87,107,127,146,168,187,208,227,248,267,288,307,327,347,367,387,407,426,447,467,486,508,528,547,567,587,608,628,648,667,688,707,727,747,768,787,807,827,847,867,887,908,927,947,966,988,1008,1027,1048,1067,1088,1108,1127,1147,1167,1187,1208,1228,1248,1269,1287,1308],"xSR":741.5,"ySR":469.95,"xT1":424.9,"yT1":0,"xT2":1058.1,"yT2":0,"toosoon":0,"cond_shown":"equaldotanddens","ratio_trial":750,"smaller_num":"15","larger_num":"20","correct_side":2,"subjID":"gabrielbrocherobustillo","gender":"0","age":"12","school":"6"},{"start_time":1551888014510,"click_time":1551888015357,"finger_time":1551888015237,"fix_duration":250,"trial":66,"RT":727,"MT":120,"sideResp":2,"stimulus":"img/750/randomdotsizeEA/R/15_Ratio_750_L_9_R_12.png","xmouse":[767,767,767,767,767,767,767,767,767,767,767,767,767,767,767,767,767,767,767,767,767,767,767,767,767,767,767,767,767,767,767,767,767,778,795,823,888,985,1009,1034,1066,1117,1142],"ymouse":[545,545,545,545,545,545,545,545,545,545,545,545,545,545,545,545,545,545,545,545,545,545,545,545,545,545,545,545,545,545,545,545,545,532,514,487,441,313,264,226,186,112,70],"timestamp_mouse":[20,43,47,67,89,107,128,148,167,189,208,227,247,267,287,307,328,348,367,387,407,427,447,468,487,507,528,547,568,588,607,628,648,668,688,707,727,747,767,788,808,827,847],"xSR":741.5,"ySR":469.95,"xT1":424.9,"yT1":0,"xT2":1058.1,"yT2":0,"toosoon":0,"cond_shown":"randomdotsizeEA","ratio_trial":750,"smaller_num":"9","larger_num":"12","correct_side":2,"subjID":"gabrielbrocherobustillo","gender":"0","age":"12","school":"6"},{"start_time":1551888018177,"click_time":1551888019057,"finger_time":1551888018817,"fix_duration":1097.7190267500105,"trial":67,"RT":640,"MT":240,"sideResp":1,"stimulus":"img/500/randomdotsizeEA/L/7_Ratio_500_L_10_R_5.png","xmouse":[824,824,824,824,824,824,824,824,824,824,824,824,824,824,824,824,824,824,824,824,824,824,824,824,824,824,824,824,822,806,789,757,720,687,611,588,572,554,522,500,494,488,485,485,484],"ymouse":[518,518,518,518,518,518,518,518,518,518,518,518,518,518,518,518,518,518,518,518,518,518,518,518,518,518,518,518,518,514,503,480,444,397,310,281,264,245,186,144,125,110,104,102,99],"timestamp_mouse":[4,20,41,61,81,100,120,140,161,180,200,220,240,260,280,300,320,340,360,381,400,420,440,460,480,500,520,540,560,581,600,620,640,660,680,700,721,741,762,780,800,821,841,860,880],"xSR":741.5,"ySR":469.95,"xT1":424.9,"yT1":0,"xT2":1058.1,"yT2":0,"toosoon":0,"cond_shown":"randomdotsizeEA","ratio_trial":500,"smaller_num":"5","larger_num":"10","correct_side":1,"subjID":"gabrielbrocherobustillo","gender":"0","age":"12","school":"6"},{"start_time":1551888020164,"click_time":1551888021237,"finger_time":1551888020858,"fix_duration":464.1897020611815,"trial":68,"RT":694,"MT":379,"sideResp":2,"stimulus":"img/500/equaldotanddens/R/12_Ratio_500_L_1_R_2.png","xmouse":[782,782,782,782,782,782,782,782,782,782,782,782,782,782,782,782,782,782,782,782,782,782,782,782,782,782,782,782,782,782,782,782,784,802,920,985,1044,1092,1208,1271,1309,1320,1320,1320,1320,1320,1320,1320,1320,1320,1320,1320,1320,1101],"ymouse":[529,529,529,529,529,529,529,529,529,529,529,529,529,529,529,529,529,529,529,529,529,529,529,529,529,529,529,529,529,529,529,529,529,519,431,373,321,272,147,68,21,4,4,4,4,4,4,4,4,4,4,4,4,21],"timestamp_mouse":[13,40,54,73,93,114,133,153,174,194,214,235,253,274,294,313,334,353,373,394,413,434,453,474,493,514,533,553,573,593,613,633,653,673,694,713,734,753,774,793,814,833,853,873,893,913,934,954,974,994,1014,1033,1053,1073],"xSR":741.5,"ySR":469.95,"xT1":424.9,"yT1":0,"xT2":1058.1,"yT2":0,"toosoon":0,"cond_shown":"equaldotanddens","ratio_trial":500,"smaller_num":"1","larger_num":"2","correct_side":2,"subjID":"gabrielbrocherobustillo","gender":"0","age":"12","school":"6"},{"start_time":1551888023808,"click_time":1551888024738,"finger_time":1551888024378,"fix_duration":250,"trial":69,"RT":570,"MT":360,"sideResp":1,"stimulus":"img/250/equaldotsize/L/15_Ratio_250_L_12_R_3.png","xmouse":[790,790,790,790,790,791,791,791,791,791,791,791,791,791,791,791,791,791,791,791,791,791,791,791,791,791,791,775,724,671,622,559,543,535,533,533,533,533,533,533,533,533,533,533,533,533,493],"ymouse":[552,552,552,552,552,551,551,551,551,551,551,551,551,551,551,551,551,551,551,551,551,551,551,551,551,551,551,520,432,326,233,80,38,10,2,2,2,2,2,2,2,2,2,2,2,2,6],"timestamp_mouse":[10,32,49,69,90,109,129,149,170,189,211,230,250,270,290,310,330,349,370,390,410,429,449,470,489,510,531,550,570,590,609,630,649,669,690,709,730,749,769,789,810,829,849,869,889,909,929],"xSR":741.5,"ySR":469.95,"xT1":424.9,"yT1":0,"xT2":1058.1,"yT2":0,"toosoon":0,"cond_shown":"equaldotsize","ratio_trial":250,"smaller_num":"3","larger_num":"12","correct_side":1,"subjID":"gabrielbrocherobustillo","gender":"0","age":"12","school":"6"},{"start_time":1551888026225,"click_time":1551888027078,"finger_time":1551888026737,"fix_duration":645.6058482707195,"trial":70,"RT":512,"MT":341,"sideResp":1,"stimulus":"img/250/equaldotsize/L/5_Ratio_250_L_24_R_6.png","xmouse":[768,768,768,768,768,768,768,768,768,768,768,768,768,768,768,768,768,768,768,769,770,770,770,770,770,756,699,636,588,570,562,560,559,557,556,555,555,554,552,548,537,526,510],"ymouse":[511,511,511,511,511,511,511,511,511,511,511,511,511,511,511,511,511,511,511,509,506,506,506,506,502,464,358,261,181,146,118,107,103,92,86,84,84,82,82,82,79,78,76],"timestamp_mouse":[12,37,53,72,94,112,133,153,173,192,212,232,254,274,293,312,334,354,372,392,412,432,453,472,492,512,532,552,573,592,613,632,652,672,692,712,732,753,773,793,814,832,853],"xSR":741.5,"ySR":469.95,"xT1":424.9,"yT1":0,"xT2":1058.1,"yT2":0,"toosoon":0,"cond_shown":"equaldotsize","ratio_trial":250,"smaller_num":"6","larger_num":"24","correct_side":1,"subjID":"gabrielbrocherobustillo","gender":"0","age":"12","school":"6"},{"start_time":1551888029151,"click_time":1551888030318,"finger_time":1551888029758,"fix_duration":1092.7651715107208,"trial":71,"RT":607,"MT":560,"sideResp":2,"stimulus":"img/900/randomdotsizeEA/R/13_Ratio_900_L_18_R_20.png","xmouse":[776,776,776,776,777,777,777,777,777,777,777,777,777,777,777,777,777,777,777,777,777,777,777,777,777,777,777,777,777,783,801,809,815,818,828,834,842,853,868,904,933,954,965,974,989,1000,1014,1028,1042,1057,1074,1076,1076,1076,1077,1079,1080,1081,1085],"ymouse":[478,478,478,478,478,478,478,478,478,478,478,478,478,478,478,478,478,478,478,478,478,478,478,478,478,478,478,478,477,474,456,447,438,434,422,416,408,398,385,353,326,307,295,286,270,260,245,226,206,183,146,141,139,137,131,127,120,107,98],"timestamp_mouse":[10,34,46,68,87,107,127,146,168,186,207,227,247,267,287,306,326,346,367,386,408,427,446,467,486,508,528,547,567,587,607,626,647,667,688,706,726,748,766,788,806,826,847,867,887,906,926,947,966,987,1006,1026,1046,1067,1086,1106,1128,1147,1167],"xSR":741.5,"ySR":469.95,"xT1":424.9,"yT1":0,"xT2":1058.1,"yT2":0,"toosoon":0,"cond_shown":"randomdotsizeEA","ratio_trial":900,"smaller_num":"18","larger_num":"20","correct_side":2,"subjID":"gabrielbrocherobustillo","gender":"0","age":"12","school":"6"},{"start_time":1551888033382,"click_time":1551888034198,"finger_time":1551888034037,"fix_duration":1124.6576464914758,"trial":72,"RT":655,"MT":161,"sideResp":2,"stimulus":"img/900/equaldotanddens/R/6_Ratio_900_L_9_R_10.png","xmouse":[790,790,790,790,790,790,791,791,791,791,791,791,791,791,791,791,791,791,791,791,791,791,791,791,793,793,793,793,793,793,793,827,958,1026,1060,1077,1086,1086,1087,1093,1097],"ymouse":[512,512,512,512,512,512,512,512,512,512,512,512,512,512,512,512,512,512,512,512,512,512,512,512,512,512,512,512,512,512,512,501,459,425,391,351,278,168,137,106,97],"timestamp_mouse":[16,38,56,75,95,116,136,155,175,195,216,237,255,276,297,315,336,356,375,395,416,435,455,475,496,515,535,555,575,596,615,635,655,675,695,716,735,756,775,795,815],"xSR":741.5,"ySR":469.95,"xT1":424.9,"yT1":0,"xT2":1058.1,"yT2":0,"toosoon":0,"cond_shown":"equaldotanddens","ratio_trial":900,"smaller_num":"9","larger_num":"10","correct_side":2,"subjID":"gabrielbrocherobustillo","gender":"0","age":"12","school":"6"},{"start_time":1551888036118,"click_time":1551888037237,"finger_time":1551888036817,"fix_duration":1140.1680310448535,"trial":73,"RT":699,"M