[{"start_time":1551790905335,"click_time":1551790907945,"finger_time":1551790907545,"fix_duration":547.2245652447048,"trial":0,"RT":2210,"MT":400,"sideResp":2,"stimulus":"img/500/randomdotsizeEA/R/6_Ratio_500_L_9_R_18.png","xmouse":[814,814,814,814,814,814,814,814,814,813,813,818,822,826,826,826,826,826,826,826,826,826,826,826,826,826,826,826,826,826,825,822,820,819,819,819,819,819,818,817,816,811,803,801,796,794,794,794,794,794,794,794,794,794,794,794,794,795,795,795,795,795,795,795,793,790,788,788,787,787,787,787,787,787,787,794,801,809,809,809,809,811,812,813,813,813,813,813,813,814,814,814,814,814,814,814,814,814,810,807,807,807,807,807,807,807,807,807,805,801,792,789,784,784,784,784,785,800,810,820,829,838,850,860,876,899,930,996,1025,1049,1060],"ymouse":[519,519,519,519,519,519,519,519,519,519,518,517,514,513,513,513,513,513,513,513,513,513,513,513,513,513,513,513,513,513,512,512,512,512,512,512,512,512,512,512,512,516,526,530,534,536,536,536,536,536,536,536,536,536,536,536,536,535,535,535,533,531,529,516,508,497,491,486,484,484,484,484,484,488,498,511,520,530,530,530,530,529,527,522,520,515,509,502,490,487,486,485,485,485,485,485,485,485,487,488,488,488,488,488,488,488,488,488,482,468,446,440,424,420,416,413,408,382,369,350,336,314,289,275,256,238,217,164,134,104,81],"timestamp_mouse":[11,39,50,71,91,111,130,150,171,191,210,230,250,271,290,310,330,350,370,391,410,430,451,470,491,511,530,551,570,590,611,631,651,670,690,711,730,750,770,791,810,831,850,870,890,910,930,950,970,991,1011,1030,1051,1071,1090,1110,1130,1150,1171,1190,1211,1230,1250,1271,1290,1310,1330,1350,1371,1390,1410,1430,1451,1471,1490,1510,1530,1550,1570,1591,1611,1630,1650,1671,1690,1710,1730,1750,1772,1790,1810,1831,1851,1872,1890,1910,1930,1951,1970,1992,2011,2031,2050,2070,2091,2111,2130,2150,2171,2191,2210,2230,2250,2270,2291,2310,2330,2350,2370,2391,2410,2430,2450,2470,2490,2511,2531,2550,2570,2591,2610],"xSR":741.5,"ySR":449.15000000000003,"xT1":424.9,"yT1":0,"xT2":1058.1,"yT2":0,"toosoon":0,"cond_shown":"randomdotsizeEA","ratio_trial":500,"smaller_num":"9","larger_num":"18","correct_side":2,"subjID":"Geraldineavilajoaqui5","gender":"1","age":"11","school":"6","test":{"fix_dur":[250,1500],"timestim":300,"targets_dim":[100,100],"targets_relative_coord":[0.3,0.7],"size_stim":[880,420],"start_dim":[100,100],"size_start":[300,300],"size_fix":60,"samplingrate":20,"img_types":["equaldotsize","equaldotanddens","randomdotsizeEA"],"ratios":[250,500,750,900],"rep_conds":9,"nTrials":120,"trials_to_rest":500,"Trials_order":[65,85,77,53,57,10,18,63,74,109,30,58,17,36,86,80,92,84,97,34,108,89,76,52,4,48,102,78,96,116,47,32,88,13,31,14,61,104,67,100,43,3,115,23,59,55,94,49,110,117,8,95,2,91,27,73,90,106,70,111,64,105,119,44,82,29,113,56,26,11,83,22,1,37,46,9,16,5,39,7,114,66,93,62,112,75,41,107,15,35,51,50,101,33,68,25,38,54,71,79,6,103,87,19,98,69,118,60,0,28,20,42,12,24,72,40,21,99,45,81],"cond_shown":["randomdotsizeEA","equaldotanddens","randomdotsizeEA","randomdotsizeEA","equaldotsize","equaldotanddens","equaldotsize","equaldotsize","randomdotsizeEA","equaldotanddens","equaldotsize","equaldotanddens","randomdotsizeEA","equaldotsize","randomdotsizeEA","randomdotsizeEA","randomdotsizeEA","equaldotsize","equaldotanddens","equaldotanddens","equaldotsize","randomdotsizeEA","equaldotanddens","equaldotanddens","equaldotanddens","equaldotsize","equaldotsize","equaldotsize","equaldotsize","randomdotsizeEA","randomdotsizeEA","randomdotsizeEA","equaldotanddens","equaldotanddens","equaldotanddens","randomdotsizeEA","equaldotanddens","randomdotsizeEA","equaldotanddens","equaldotanddens","equaldotanddens","equaldotsize","equaldotanddens","randomdotsizeEA","randomdotsizeEA","equaldotanddens","equaldotanddens","equaldotanddens","randomdotsizeEA","equaldotsize","randomdotsizeEA","randomdotsizeEA","randomdotsizeEA","equaldotanddens","equaldotsize","equaldotanddens","equaldotsize","equaldotanddens","equaldotanddens","equaldotsize","equaldotanddens","equaldotsize","randomdotsizeEA","randomdotsizeEA","equaldotanddens","randomdotsizeEA","randomdotsizeEA","randomdotsizeEA","randomdotsizeEA","randomdotsizeEA","randomdotsizeEA","equaldotanddens","equaldotanddens","equaldotanddens","equaldotanddens","equaldotsize","equaldotanddens","randomdotsizeEA","equaldotsize","equaldotanddens","equaldotsize","equaldotsize","equaldotsize","randomdotsizeEA","equaldotanddens","equaldotsize","randomdotsizeEA","randomdotsizeEA","equaldotsize","randomdotsizeEA","equaldotsize","randomdotsizeEA","randomdotsizeEA","equaldotsize","randomdotsizeEA","equaldotanddens","randomdotsizeEA","equaldotsize","randomdotsizeEA","equaldotanddens","equaldotsize","equaldotanddens","equaldotsize","equaldotanddens","randomdotsizeEA","equaldotsize","equaldotanddens","equaldotsize","equaldotsize","equaldotanddens","randomdotsizeEA","equaldotsize","equaldotsize","equaldotsize","equaldotsize","equaldotanddens","equaldotsize","equaldotsize","equaldotsize","equaldotsize"],"ratio_trial":[500,250,500,500,900,900,750,500,250,250,750,900,500,250,250,750,750,250,250,900,250,500,500,500,500,250,750,750,250,750,900,750,500,250,750,250,250,750,750,500,750,500,750,900,900,750,900,250,250,900,750,900,250,750,500,250,750,900,900,500,500,900,900,750,900,500,500,750,250,900,900,900,250,250,900,900,500,500,500,750,750,750,900,250,500,500,500,900,500,900,500,250,500,900,750,250,250,750,900,750,750,750,500,750,250,900,900,250,250,500,750,750,250,250,250,500,900,500,900,900],"smaller_num":["9","3","2","1","18","18","9","10","3","3","3","9","2","6","2","6","3","3","3","18","1","3","5","1","10","3","15","9","2","3","18","18","2","5","15","2","4","15","15","3","15","1","3","18","9","15","9","3","2","18","3","18","6","15","1","3","3","9","18","3","2","9","18","12","18","2","4","15","2","9","18","9","3","3","9","9","2","10","2","3","15","15","18","3","6","9","2","18","5","9","2","3","2","9","15","2","3","6","18","9","15","6","3","9","3","18","18","4","2","9","6","3","3","4","6","5","18","5","18","18"],"larger_num":["18","12","4","2","20","20","12","20","12","12","4","10","4","24","8","8","4","12","12","20","4","6","10","2","20","12","20","12","8","4","20","24","4","20","20","8","16","20","20","6","20","2","4","20","10","20","10","12","8","20","4","20","24","20","2","12","4","10","20","6","4","10","20","16","20","4","8","20","8","10","20","10","12","12","10","10","4","20","4","4","20","20","20","12","12","18","4","20","10","10","4","12","4","10","20","8","12","8","20","12","20","8","6","12","12","20","20","16","8","18","8","4","12","16","24","10","20","10","20","20"],"correct_side":[2,2,2,2,1,1,2,2,2,2,1,2,1,2,1,1,2,2,1,2,2,2,2,2,2,1,1,2,2,1,1,1,1,2,1,1,2,2,1,2,2,2,1,1,2,2,2,1,1,2,2,1,2,1,2,2,2,2,2,2,1,1,2,2,1,1,1,2,1,2,2,2,2,2,2,2,2,2,1,2,1,2,1,2,1,1,1,2,2,2,1,1,1,1,2,2,2,2,1,2,2,1,2,2,2,2,1,2,2,1,1,1,2,2,1,1,2,1,2,2],"img_shown":["img/500/randomdotsizeEA/R/6_Ratio_500_L_9_R_18.png","img/250/equaldotanddens/R/9_Ratio_250_L_3_R_12.png","img/500/randomdotsizeEA/R/9_Ratio_500_L_2_R_4.png","img/500/randomdotsizeEA/R/12_Ratio_500_L_1_R_2.png","img/900/equaldotsize/L/8_Ratio_900_L_20_R_18.png","img/900/equaldotanddens/L/2_Ratio_900_L_20_R_18.png","img/750/equaldotsize/R/15_Ratio_750_L_9_R_12.png","img/500/equaldotsize/R/3_Ratio_500_L_10_R_20.png","img/250/randomdotsizeEA/R/9_Ratio_250_L_3_R_12.png","img/250/equaldotanddens/R/4_Ratio_250_L_3_R_12.png","img/750/equaldotsize/L/10_Ratio_750_L_4_R_3.png","img/900/equaldotanddens/R/6_Ratio_900_L_9_R_10.png","img/500/randomdotsizeEA/L/10_Ratio_500_L_4_R_2.png","img/250/equaldotsize/R/6_Ratio_250_L_6_R_24.png","img/250/randomdotsizeEA/L/3_Ratio_250_L_8_R_2.png","img/750/randomdotsizeEA/L/13_Ratio_750_L_8_R_6.png","img/750/randomdotsizeEA/R/7_Ratio_750_L_3_R_4.png","img/250/equaldotsize/R/11_Ratio_250_L_3_R_12.png","img/250/equaldotanddens/L/15_Ratio_250_L_12_R_3.png","img/900/equaldotanddens/R/11_Ratio_900_L_18_R_20.png","img/250/equaldotsize/R/8_Ratio_250_L_1_R_4.png","img/500/randomdotsizeEA/R/2_Ratio_500_L_3_R_6.png","img/500/equaldotanddens/R/14_Ratio_500_L_5_R_10.png","img/500/equaldotanddens/R/12_Ratio_500_L_1_R_2.png","img/500/equaldotanddens/R/3_Ratio_500_L_10_R_20.png","img/250/equaldotsize/L/15_Ratio_250_L_12_R_3.png","img/750/equaldotsize/L/1_Ratio_750_L_20_R_15.png","img/750/equaldotsize/R/15_Ratio_750_L_9_R_12.png","img/250/equaldotsize/R/13_Ratio_250_L_2_R_8.png","img/750/randomdotsizeEA/L/10_Ratio_750_L_4_R_3.png","img/900/randomdotsizeEA/L/2_Ratio_900_L_20_R_18.png","img/750/randomdotsizeEA/L/6_Ratio_750_L_24_R_18.png","img/500/equaldotanddens/L/10_Ratio_500_L_4_R_2.png","img/250/equaldotanddens/R/12_Ratio_250_L_5_R_20.png","img/750/equaldotanddens/L/1_Ratio_750_L_20_R_15.png","img/250/randomdotsizeEA/L/3_Ratio_250_L_8_R_2.png","img/250/equaldotanddens/R/10_Ratio_250_L_4_R_16.png","img/750/randomdotsizeEA/R/4_Ratio_750_L_15_R_20.png","img/750/equaldotanddens/L/1_Ratio_750_L_20_R_15.png","img/500/equaldotanddens/R/2_Ratio_500_L_3_R_6.png","img/750/equaldotanddens/R/4_Ratio_750_L_15_R_20.png","img/500/equaldotsize/R/12_Ratio_500_L_1_R_2.png","img/750/equaldotanddens/L/9_Ratio_750_L_4_R_3.png","img/900/randomdotsizeEA/L/4_Ratio_900_L_20_R_18.png","img/900/randomdotsizeEA/R/15_Ratio_900_L_9_R_10.png","img/750/equaldotanddens/R/5_Ratio_750_L_15_R_20.png","img/900/equaldotanddens/R/5_Ratio_900_L_9_R_10.png","img/250/equaldotanddens/L/14_Ratio_250_L_12_R_3.png","img/250/randomdotsizeEA/L/1_Ratio_250_L_8_R_2.png","img/900/equaldotsize/R/9_Ratio_900_L_18_R_20.png","img/750/randomdotsizeEA/R/12_Ratio_750_L_3_R_4.png","img/900/randomdotsizeEA/L/2_Ratio_900_L_20_R_18.png","img/250/randomdotsizeEA/R/6_Ratio_250_L_6_R_24.png","img/750/equaldotanddens/L/1_Ratio_750_L_20_R_15.png","img/500/equaldotsize/R/15_Ratio_500_L_1_R_2.png","img/250/equaldotanddens/R/11_Ratio_250_L_3_R_12.png","img/750/equaldotsize/R/12_Ratio_750_L_3_R_4.png","img/900/equaldotanddens/R/15_Ratio_900_L_9_R_10.png","img/900/equaldotanddens/R/14_Ratio_900_L_18_R_20.png","img/500/equaldotsize/R/2_Ratio_500_L_3_R_6.png","img/500/equaldotanddens/L/10_Ratio_500_L_4_R_2.png","img/900/equaldotsize/L/1_Ratio_900_L_10_R_9.png","img/900/randomdotsizeEA/R/12_Ratio_900_L_18_R_20.png","img/750/randomdotsizeEA/R/11_Ratio_750_L_12_R_16.png","img/900/equaldotanddens/L/4_Ratio_900_L_20_R_18.png","img/500/randomdotsizeEA/L/10_Ratio_500_L_4_R_2.png","img/500/randomdotsizeEA/L/8_Ratio_500_L_8_R_4.png","img/750/randomdotsizeEA/R/4_Ratio_750_L_15_R_20.png","img/250/randomdotsizeEA/L/7_Ratio_250_L_8_R_2.png","img/900/randomdotsizeEA/R/6_Ratio_900_L_9_R_10.png","img/900/randomdotsizeEA/R/9_Ratio_900_L_18_R_20.png","img/900/equaldotanddens/R/3_Ratio_900_L_9_R_10.png","img/250/equaldotanddens/R/4_Ratio_250_L_3_R_12.png","img/250/equaldotanddens/R/11_Ratio_250_L_3_R_12.png","img/900/equaldotanddens/R/15_Ratio_900_L_9_R_10.png","img/900/equaldotsize/R/5_Ratio_900_L_9_R_10.png","img/500/equaldotanddens/R/9_Ratio_500_L_2_R_4.png","img/500/randomdotsizeEA/R/3_Ratio_500_L_10_R_20.png","img/500/equaldotsize/L/10_Ratio_500_L_4_R_2.png","img/750/equaldotanddens/R/12_Ratio_750_L_3_R_4.png","img/750/equaldotsize/L/1_Ratio_750_L_20_R_15.png","img/750/equaldotsize/R/4_Ratio_750_L_15_R_20.png","img/900/equaldotsize/L/2_Ratio_900_L_20_R_18.png","img/250/randomdotsizeEA/R/4_Ratio_250_L_3_R_12.png","img/500/equaldotanddens/L/11_Ratio_500_L_12_R_6.png","img/500/equaldotsize/L/4_Ratio_500_L_18_R_9.png","img/500/randomdotsizeEA/L/5_Ratio_500_L_4_R_2.png","img/900/randomdotsizeEA/R/12_Ratio_900_L_18_R_20.png","img/500/equaldotsize/R/14_Ratio_500_L_5_R_10.png","img/900/randomdotsizeEA/R/7_Ratio_900_L_9_R_10.png","img/500/equaldotsize/L/10_Ratio_500_L_4_R_2.png","img/250/randomdotsizeEA/L/15_Ratio_250_L_12_R_3.png","img/500/randomdotsizeEA/L/10_Ratio_500_L_4_R_2.png","img/900/equaldotsize/L/1_Ratio_900_L_10_R_9.png","img/750/randomdotsizeEA/R/4_Ratio_750_L_15_R_20.png","img/250/equaldotanddens/R/13_Ratio_250_L_2_R_8.png","img/250/randomdotsizeEA/R/11_Ratio_250_L_3_R_12.png","img/750/equaldotsize/R/2_Ratio_750_L_6_R_8.png","img/900/randomdotsizeEA/L/8_Ratio_900_L_20_R_18.png","img/750/equaldotanddens/R/15_Ratio_750_L_9_R_12.png","img/750/equaldotsize/R/3_Ratio_750_L_15_R_20.png","img/750/equaldotanddens/L/14_Ratio_750_L_8_R_6.png","img/500/equaldotsize/R/2_Ratio_500_L_3_R_6.png","img/750/equaldotanddens/R/15_Ratio_750_L_9_R_12.png","img/250/randomdotsizeEA/R/4_Ratio_250_L_3_R_12.png","img/900/equaldotsize/R/11_Ratio_900_L_18_R_20.png","img/900/equaldotanddens/L/4_Ratio_900_L_20_R_18.png","img/250/equaldotsize/R/10_Ratio_250_L_4_R_16.png","img/250/equaldotsize/R/13_Ratio_250_L_2_R_8.png","img/500/equaldotanddens/L/4_Ratio_500_L_18_R_9.png","img/750/randomdotsizeEA/L/14_Ratio_750_L_8_R_6.png","img/750/equaldotsize/L/10_Ratio_750_L_4_R_3.png","img/250/equaldotsize/R/9_Ratio_250_L_3_R_12.png","img/250/equaldotsize/R/10_Ratio_250_L_4_R_16.png","img/250/equaldotsize/L/5_Ratio_250_L_24_R_6.png","img/500/equaldotanddens/L/7_Ratio_500_L_10_R_5.png","img/900/equaldotsize/R/13_Ratio_900_L_18_R_20.png","img/500/equaldotsize/L/7_Ratio_500_L_10_R_5.png","img/900/equaldotsize/R/12_Ratio_900_L_18_R_20.png","img/900/equaldotsize/R/14_Ratio_900_L_18_R_20.png"],"Rat0":[["12_Ratio_0_L_9_R_0.png","13_Ratio_0_L_6_R_0.png","5_Ratio_0_L_2_R_0.png","6_Ratio_0_L_4_R_0.png","8_Ratio_0_L_6_R_0.png"],["1_Ratio_0_L_0_R_17.png","10_Ratio_0_L_0_R_22.png","11_Ratio_0_L_0_R_1.png","14_Ratio_0_L_0_R_24.png","15_Ratio_0_L_0_R_4.png","2_Ratio_0_L_0_R_5.png","3_Ratio_0_L_0_R_17.png","4_Ratio_0_L_0_R_7.png","7_Ratio_0_L_0_R_19.png","9_Ratio_0_L_0_R_15.png"]],"Rat250":[["1_Ratio_250_L_8_R_2.png","14_Ratio_250_L_12_R_3.png","15_Ratio_250_L_12_R_3.png","2_Ratio_250_L_16_R_4.png","3_Ratio_250_L_8_R_2.png","5_Ratio_250_L_24_R_6.png","7_Ratio_250_L_8_R_2.png"],["10_Ratio_250_L_4_R_16.png","11_Ratio_250_L_3_R_12.png","12_Ratio_250_L_5_R_20.png","13_Ratio_250_L_2_R_8.png","4_Ratio_250_L_3_R_12.png","6_Ratio_250_L_6_R_24.png","8_Ratio_250_L_1_R_4.png","9_Ratio_250_L_3_R_12.png"]],"Rat500":[["10_Ratio_500_L_4_R_2.png","11_Ratio_500_L_12_R_6.png","13_Ratio_500_L_12_R_6.png","4_Ratio_500_L_18_R_9.png","5_Ratio_500_L_4_R_2.png","7_Ratio_500_L_10_R_5.png","8_Ratio_500_L_8_R_4.png"],["1_Ratio_500_L_9_R_18.png","12_Ratio_500_L_1_R_2.png","14_Ratio_500_L_5_R_10.png","15_Ratio_500_L_1_R_2.png","2_Ratio_500_L_3_R_6.png","3_Ratio_500_L_10_R_20.png","6_Ratio_500_L_9_R_18.png","9_Ratio_500_L_2_R_4.png"]],"Rat750":[["1_Ratio_750_L_20_R_15.png","10_Ratio_750_L_4_R_3.png","13_Ratio_750_L_8_R_6.png","14_Ratio_750_L_8_R_6.png","6_Ratio_750_L_24_R_18.png","8_Ratio_750_L_4_R_3.png","9_Ratio_750_L_4_R_3.png"],["11_Ratio_750_L_12_R_16.png","12_Ratio_750_L_3_R_4.png","15_Ratio_750_L_9_R_12.png","2_Ratio_750_L_6_R_8.png","3_Ratio_750_L_15_R_20.png","4_Ratio_750_L_15_R_20.png","5_Ratio_750_L_15_R_20.png","7_Ratio_750_L_3_R_4.png"]],"Rat900":[["1_Ratio_900_L_10_R_9.png","10_Ratio_900_L_20_R_18.png","2_Ratio_900_L_20_R_18.png","4_Ratio_900_L_20_R_18.png","8_Ratio_900_L_20_R_18.png"],["11_Ratio_900_L_18_R_20.png","12_Ratio_900_L_18_R_20.png","13_Ratio_900_L_18_R_20.png","14_Ratio_900_L_18_R_20.png","15_Ratio_900_L_9_R_10.png","3_Ratio_900_L_9_R_10.png","5_Ratio_900_L_9_R_10.png","6_Ratio_900_L_9_R_10.png","7_Ratio_900_L_9_R_10.png","9_Ratio_900_L_18_R_20.png"]],"Rat1000":[["10_Ratio_1000_L_16_R_16.png","11_Ratio_1000_L_6_R_6.png","12_Ratio_1000_L_14_R_14.png","13_Ratio_1000_L_20_R_20.png","15_Ratio_1000_L_15_R_15.png","2_Ratio_1000_L_17_R_17.png","4_Ratio_1000_L_9_R_9.png","5_Ratio_1000_L_6_R_6.png","6_Ratio_1000_L_19_R_19.png","8_Ratio_1000_L_14_R_14.png","9_Ratio_1000_L_25_R_25.png"],["1_Ratio_1000_L_1_R_1.png","14_Ratio_1000_L_17_R_17.png","3_Ratio_1000_L_17_R_17.png","7_Ratio_1000_L_6_R_6.png"]]}},{"start_time":1551790913591,"click_time":1551790915466,"finger_time":1551790914845,"fix_duration":1424.8389276868136,"trial":1,"RT":1254,"MT":621,"sideResp":2,"stimulus":"img/250/equaldotanddens/R/9_Ratio_250_L_3_R_12.png","xmouse":[793,793,793,793,793,793,793,793,793,793,793,793,793,793,793,793,793,793,793,793,793,793,793,793,793,793,793,793,793,793,793,793,793,793,793,793,793,792,791,777,772,768,764,764,764,764,764,764,764,764,764,764,764,764,764,764,764,764,764,764,770,775,782,790,803,806,806,806,806,812,821,837,857,880,929,952,969,985,986,997,1000,1004,1006,1009,1011,1012,1013,1015,1020,1032,1040,1047,1055,1062],"ymouse":[497,497,497,497,497,497,497,497,497,497,497,497,497,497,497,497,497,497,497,497,497,497,497,497,497,497,497,497,497,497,497,497,497,497,497,497,497,497,496,477,469,463,460,459,459,459,459,459,459,459,459,459,458,458,457,457,457,457,457,456,454,452,448,441,407,379,346,314,277,248,235,221,210,200,183,175,169,163,162,155,153,148,144,140,129,124,119,114,105,94,88,82,77,73],"timestamp_mouse":[14,39,55,75,94,114,134,154,175,194,214,234,255,274,295,315,334,354,375,394,415,436,455,474,494,514,534,555,574,594,614,636,654,674,695,714,734,754,774,794,815,836,854,875,895,915,935,954,975,994,1014,1035,1055,1074,1095,1115,1134,1154,1174,1194,1215,1235,1254,1275,1295,1314,1334,1356,1374,1395,1414,1435,1455,1475,1495,1514,1534,1554,1574,1594,1614,1635,1655,1674,1694,1714,1735,1754,1774,1794,1814,1835,1854,1875],"xSR":741.5,"ySR":449.15000000000003,"xT1":424.9,"yT1":0,"xT2":1058.1,"yT2":0,"toosoon":0,"cond_shown":"equaldotanddens","ratio_trial":250,"smaller_num":"3","larger_num":"12","correct_side":2,"subjID":"Geraldineavilajoaqui5","gender":"1","age":"11","school":"6"},{"start_time":1551790917228,"click_time":1551790918505,"finger_time":1551790918145,"fix_duration":1000.0528595751434,"trial":2,"RT":917,"MT":360,"sideResp":1,"stimulus":"img/500/randomdotsizeEA/R/9_Ratio_500_L_2_R_4.png","xmouse":[784,784,784,784,784,784,784,784,784,784,784,784,784,784,784,784,784,784,784,784,784,784,784,784,784,784,784,784,784,784,782,781,781,781,780,779,778,778,778,778,778,775,768,759,749,742,739,732,729,726,721,715,695,684,667,645,606,547,528,515,507,498,486,482],"ymouse":[490,490,490,490,490,490,490,490,490,490,490,490,490,490,490,490,490,490,490,490,490,490,490,490,490,490,490,490,490,490,490,490,490,490,490,490,490,490,490,490,490,488,474,462,450,440,437,426,421,416,410,403,379,365,342,312,257,189,166,148,134,121,101,90],"timestamp_mouse":[17,37,58,78,99,117,137,157,178,197,219,238,257,277,297,317,337,357,377,397,418,437,458,477,497,518,538,557,577,597,617,637,658,677,698,717,737,758,777,797,817,838,857,877,897,917,938,957,977,998,1017,1038,1058,1077,1098,1117,1139,1158,1177,1198,1217,1238,1257,1277],"xSR":741.5,"ySR":449.15000000000003,"xT1":424.9,"yT1":0,"xT2":1058.1,"yT2":0,"toosoon":0,"cond_shown":"randomdotsizeEA","ratio_trial":500,"smaller_num":"2","larger_num":"4","correct_side":2,"subjID":"Geraldineavilajoaqui5","gender":"1","age":"11","school":"6"},{"start_time":1551790921008,"click_time":1551790922347,"finger_time":1551790922166,"fix_duration":1242.1884929089197,"trial":3,"RT":1158,"MT":181,"sideResp":2,"stimulus":"img/500/randomdotsizeEA/R/12_Ratio_500_L_1_R_2.png","xmouse":[790,790,790,790,790,790,790,790,790,790,790,790,790,790,790,790,790,790,790,790,790,790,790,790,790,790,790,790,790,790,790,790,790,790,790,790,790,790,790,790,790,790,790,790,790,790,790,789,784,774,773,772,772,772,772,779,791,808,932,1009,1068,1102,1114,1121,1123,1123,1123],"ymouse":[498,498,498,498,498,498,498,498,498,498,498,498,498,498,498,498,498,498,498,498,498,498,498,498,498,498,498,498,498,498,498,498,498,498,498,498,498,498,498,498,498,498,498,498,498,498,498,498,497,490,489,487,484,481,475,466,455,439,349,296,244,197,170,147,115,101,91],"timestamp_mouse":[17,37,57,77,97,117,138,157,177,198,217,238,257,277,298,317,338,357,377,397,418,437,457,477,497,518,539,558,577,598,617,637,659,678,697,717,737,758,778,797,817,837,857,878,898,918,937,959,977,997,1017,1037,1059,1078,1097,1119,1137,1158,1178,1197,1218,1238,1259,1278,1297,1321,1339],"xSR":741.5,"ySR":449.15000000000003,"xT1":424.9,"yT1":0,"xT2":1058.1,"yT2":0,"toosoon":0,"cond_shown":"randomdotsizeEA","ratio_trial":500,"smaller_num":"1","larger_num":"2","correct_side":2,"subjID":"Geraldineavilajoaqui5","gender":"1","age":"11","school":"6"},{"start_time":1551790923658,"click_time":1551790925366,"finger_time":1551790924606,"fix_duration":370.6137402384232,"trial":4,"RT":948,"MT":760,"sideResp":1,"stimulus":"img/900/equaldotsize/L/8_Ratio_900_L_20_R_18.png","xmouse":[817,817,817,817,817,816,815,812,812,812,808,804,800,799,799,799,799,799,799,799,799,799,799,799,799,799,799,799,799,799,799,799,799,799,799,799,799,799,799,799,799,799,799,799,798,795,785,743,698,612,497,385,234,219,214,214,214,214,214,214,214,214,223,246,277,302,351,355,356,357,357,361,373,388,404,406,408,408,409,409,410,413,414,415,421,428],"ymouse":[524,524,524,524,524,524,524,524,524,524,524,524,524,524,524,524,524,524,524,524,524,524,524,524,524,524,524,524,524,524,524,524,524,524,524,524,524,524,524,524,524,524,524,521,514,499,471,412,373,320,258,198,107,88,79,77,77,77,77,77,77,76,71,65,60,57,45,44,44,43,43,42,39,35,30,29,29,29,29,29,29,29,31,34,40,45],"timestamp_mouse":[8,33,49,68,87,108,127,147,167,188,207,227,249,267,287,308,328,348,368,387,407,427,447,467,488,508,528,548,567,589,607,627,649,667,687,708,727,748,767,787,808,828,848,868,887,907,927,948,967,988,1008,1027,1047,1068,1087,1108,1127,1148,1168,1189,1207,1228,1247,1268,1287,1307,1328,1348,1367,1388,1407,1428,1447,1468,1487,1508,1527,1548,1568,1587,1607,1627,1647,1667,1687,1708],"xSR":741.5,"ySR":449.15000000000003,"xT1":424.9,"yT1":0,"xT2":1058.1,"yT2":0,"toosoon":0,"cond_shown":"equaldotsize","ratio_trial":900,"smaller_num":"18","larger_num":"20","correct_side":1,"subjID":"Geraldineavilajoaqui5","gender":"1","age":"11","school":"6"},{"start_time":1551790928567,"click_time":1551790929905,"finger_time":1551790929506,"fix_duration":698.7338267571577,"trial":5,"RT":939,"MT":399,"sideResp":1,"stimulus":"img/900/equaldotanddens/L/2_Ratio_900_L_20_R_18.png","xmouse":[807,807,807,807,807,807,807,807,807,807,807,807,807,807,807,807,807,807,807,807,807,807,807,807,807,807,807,807,806,804,802,800,797,794,793,792,792,792,792,792,792,792,792,792,791,780,762,740,710,704,700,700,700,700,701,696,682,666,651,638,603,591,577,560,542,527,517],"ymouse":[496,496,496,496,496,496,496,496,496,496,496,496,496,496,496,496,496,496,496,496,496,496,496,496,496,496,496,496,496,496,496,496,496,495,494,494,494,494,494,494,494,494,494,494,491,450,405,358,314,307,302,302,299,294,273,214,182,151,128,110,77,70,63,55,49,44,42],"timestamp_mouse":[18,38,58,79,99,118,138,159,179,199,218,238,258,279,298,318,339,358,378,398,419,438,460,479,499,520,538,558,578,598,619,638,659,679,698,719,738,758,778,799,818,839,859,878,899,919,939,958,978,999,1019,1038,1060,1078,1098,1118,1138,1159,1179,1199,1219,1238,1259,1278,1298,1319,1338],"xSR":741.5,"ySR":449.15000000000003,"xT1":424.9,"yT1":0,"xT2":1058.1,"yT2":0,"toosoon":0,"cond_shown":"equaldotanddens","ratio_trial":900,"smaller_num":"18","larger_num":"20","correct_side":1,"subjID":"Geraldineavilajoaqui5","gender":"1","age":"11","school":"6"},{"start_time":1551790931707,"click_time":1551790934606,"finger_time":1551790933685,"fix_duration":1161.1878715478801,"trial":6,"RT":1978,"MT":921,"sideResp":2,"stimulus":"img/750/equaldotsize/R/15_Ratio_750_L_9_R_12.png","xmouse":[797,797,797,797,797,797,797,797,797,797,797,797,797,797,797,797,797,797,797,797,797,797,797,797,797,797,797,797,797,797,797,797,797,797,797,797,797,797,797,797,797,797,797,797,797,797,797,797,797,797,797,797,797,797,797,797,797,797,797,797,797,797,797,797,797,797,797,797,797,797,797,797,797,797,797,797,797,797,797,797,797,797,797,797,797,795,794,794,792,792,791,791,790,788,786,783,777,770,753,742,733,720,711,702,701,701,701,700,700,700,700,700,700,700,700,700,700,700,700,700,700,700,705,720,776,812,849,887,970,1005,1031,1046,1046,1046,1046,1046,1046,1046,1046,1046,1046,1046,1046,1046,1070],"ymouse":[515,515,515,515,515,515,515,515,515,515,515,515,515,515,515,515,515,515,515,515,515,515,515,515,515,515,515,515,515,515,515,515,515,515,515,515,515,515,515,515,515,515,515,515,515,515,515,515,515,515,515,515,515,515,515,515,515,515,515,515,515,515,515,515,515,515,515,515,515,515,515,515,515,515,515,515,515,515,515,515,515,515,515,515,515,510,509,505,499,497,496,495,493,490,485,479,469,460,440,429,420,411,403,395,394,394,394,393,393,393,393,393,393,393,393,393,393,393,393,393,393,393,393,390,376,358,329,288,163,104,52,1,1,1,1,1,1,1,1,1,1,1,1,1,16],"timestamp_mouse":[19,39,59,80,99,119,138,159,179,199,218,240,259,280,298,318,338,359,379,398,418,438,458,478,500,518,539,559,579,599,618,638,659,678,698,718,739,758,778,798,819,839,858,879,898,918,938,958,979,998,1019,1039,1059,1078,1100,1118,1140,1159,1178,1198,1218,1240,1258,1278,1299,1318,1339,1358,1380,1398,1419,1438,1458,1478,1500,1518,1538,1559,1579,1599,1619,1639,1658,1680,1698,1718,1738,1759,1779,1798,1818,1839,1858,1878,1900,1918,1939,1959,1978,1998,2018,2040,2058,2078,2098,2118,2138,2158,2179,2199,2218,2238,2258,2278,2298,2318,2338,2359,2379,2399,2418,2438,2460,2478,2498,2519,2538,2558,2579,2598,2619,2639,2660,2679,2698,2719,2738,2759,2778,2798,2819,2840,2859,2879,2898],"xSR":741.5,"ySR":449.15000000000003,"xT1":424.9,"yT1":0,"xT2":1058.1,"yT2":0,"toosoon":0,"cond_shown":"equaldotsize","ratio_trial":750,"smaller_num":"9","larger_num":"12","correct_side":2,"subjID":"Geraldineavilajoaqui5","gender":"1","age":"11","school":"6"},{"start_time":1551790937017,"click_time":1551790938005,"finger_time":1551790937865,"fix_duration":1409.4252450663653,"trial":7,"RT":848,"MT":140,"sideResp":2,"stimulus":"img/500/equaldotsize/R/3_Ratio_500_L_10_R_20.png","xmouse":[803,803,803,803,803,803,802,799,796,793,793,793,793,793,793,793,793,793,793,793,793,793,793,793,793,793,793,793,793,793,793,793,793,793,793,793,793,793,795,798,807,820,837,896,941,1017,1042,1084,1100,1116],"ymouse":[478,478,478,478,478,478,479,481,483,485,485,485,485,485,485,485,485,485,485,485,485,485,485,485,485,485,485,485,485,485,485,485,485,485,485,485,485,485,484,480,470,456,437,359,303,211,185,136,116,91],"timestamp_mouse":[8,31,48,68,89,109,128,150,168,188,209,230,250,269,288,308,330,348,369,388,408,429,450,469,489,509,528,549,568,588,609,630,649,668,688,708,728,749,768,789,808,829,848,869,888,908,928,950,968,988],"xSR":741.5,"ySR":449.15000000000003,"xT1":424.9,"yT1":0,"xT2":1058.1,"yT2":0,"toosoon":0,"cond_shown":"equaldotsize","ratio_trial":500,"smaller_num":"10","larger_num":"20","correct_side":2,"subjID":"Geraldineavilajoaqui5","gender":"1","age":"11","school":"6"},{"start_time":1551790939390,"click_time":1551790941166,"finger_time":1551790940067,"fix_duration":303.9747513451473,"trial":8,"RT":677,"MT":1099,"sideResp":2,"stimulus":"img/250/randomdotsizeEA/R/9_Ratio_250_L_3_R_12.png","xmouse":[801,801,801,801,801,801,801,800,799,797,797,797,797,797,797,797,797,797,797,797,797,797,797,797,797,797,797,797,797,798,804,812,827,843,873,878,880,880,880,880,880,880,880,880,880,880,880,880,880,880,880,880,880,879,875,872,863,860,856,842,840,840,840,840,840,840,840,841,861,926,951,963,969,973,976,978,980,983,986,990,993,996,1001,1007,1025,1038,1051,1066,1074],"ymouse":[500,500,500,500,500,500,500,500,500,500,500,500,500,500,500,500,499,498,496,494,494,494,494,494,494,494,494,494,494,490,484,477,466,454,432,427,424,423,422,422,422,422,422,422,422,422,422,422,422,422,422,421,421,421,421,421,424,424,425,429,429,429,429,429,429,429,429,428,416,368,348,327,305,283,244,231,218,204,192,176,170,161,151,144,126,118,110,101,94],"timestamp_mouse":[21,42,57,75,96,115,135,156,176,196,216,237,256,275,296,316,336,356,376,396,416,436,455,475,496,516,536,556,575,595,617,637,656,677,696,716,735,756,776,796,816,836,857,876,896,915,935,955,976,995,1015,1037,1055,1076,1096,1116,1135,1156,1175,1195,1215,1236,1256,1275,1296,1316,1336,1357,1375,1395,1415,1435,1455,1475,1496,1515,1536,1556,1575,1595,1615,1636,1655,1675,1695,1715,1736,1755,1776],"xSR":741.5,"ySR":449.15000000000003,"xT1":424.9,"yT1":0,"xT2":1058.1,"yT2":0,"toosoon":0,"cond_shown":"randomdotsizeEA","ratio_trial":250,"smaller_num":"3","larger_num":"12","correct_side":2,"subjID":"Geraldineavilajoaqui5","gender":"1","age":"11","school":"6"},{"start_time":1551790942980,"click_time":1551790944186,"finger_time":1551790943625,"fix_duration":1092.1077977643893,"trial":9,"RT":645,"MT":561,"sideResp":2,"stimulus":"img/250/equaldotanddens/R/4_Ratio_250_L_3_R_12.png","xmouse":[795,795,795,795,795,795,795,795,795,795,795,795,795,795,795,795,795,795,795,795,795,795,795,795,795,795,795,795,795,795,801,835,877,905,920,939,949,958,964,966,968,974,980,987,993,1005,1012,1020,1036,1063,1149,1164,1166,1166,1166,1166,1165,1164,1164,1164,1152],"ymouse":[489,489,489,489,489,489,489,489,489,489,489,489,489,489,489,489,489,489,489,489,489,489,489,489,489,489,489,489,489,489,487,468,444,425,410,368,342,321,292,276,261,228,214,197,185,167,160,155,149,137,110,104,102,102,102,102,101,100,100,99,97],"timestamp_mouse":[7,36,45,66,85,107,126,145,167,186,205,225,245,266,285,305,326,345,366,385,405,426,445,465,485,507,526,547,565,585,606,627,645,665,686,707,725,745,765,786,806,827,845,866,886,906,926,945,966,985,1006,1025,1046,1066,1085,1106,1126,1145,1165,1186,1206],"xSR":741.5,"ySR":449.15000000000003,"xT1":424.9,"yT1":0,"xT2":1058.1,"yT2":0,"toosoon":0,"cond_shown":"equaldotanddens","ratio_trial":250,"smaller_num":"3","larger_num":"12","correct_side":2,"subjID":"Geraldineavilajoaqui5","gender":"1","age":"11","school":"6"},{"start_time":1551790946435,"click_time":1551790947386,"finger_time":1551790947105,"fix_duration":1347.9746167275277,"trial":10,"RT":670,"MT":281,"sideResp":1,"stimulus":"img/750/equaldotsize/L/10_Ratio_750_L_4_R_3.png","xmouse":[796,796,796,796,796,796,796,796,796,796,796,796,796,796,796,796,796,796,796,796,796,796,796,795,788,783,782,780,777,775,770,763,755,737,728,716,711,671,649,619,592,566,530,520,511,498,488,470],"ymouse":[494,494,494,494,494,494,494,494,494,494,494,494,494,494,494,494,493,493,493,493,493,493,493,492,492,492,492,492,490,489,485,480,474,458,450,437,431,378,347,303,265,228,180,166,152,133,122,99],"timestamp_mouse":[10,38,51,71,91,110,132,150,170,190,211,230,250,270,290,311,331,350,370,390,410,432,450,470,490,511,530,550,571,590,610,632,650,670,690,711,730,751,771,791,811,830,851,871,890,911,932,951],"xSR":741.5,"ySR":449.15000000000003,"xT1":424.9,"yT1":0,"xT2":1058.1,"yT2":0,"toosoon":0,"cond_shown":"equaldotsize","ratio_trial":750,"smaller_num":"3","larger_num":"4","correct_side":1,"subjID":"Geraldineavilajoaqui5","gender":"1","age":"11","school":"6"},{"start_time":1551790948858,"click_time":1551790949986,"finger_time":1551790949585,"fix_duration":250,"trial":11,"RT":727,"MT":401,"sideResp":2,"stimulus":"img/900/equaldotanddens/R/6_Ratio_900_L_9_R_10.png","xmouse":[781,781,781,781,781,781,781,781,781,781,781,781,781,781,781,781,781,781,781,781,781,781,782,782,782,782,782,783,783,783,783,783,783,783,783,784,785,785,788,794,801,830,852,871,892,934,984,999,1007,1013,1020,1029,1036,1043,1050,1057,1061],"ymouse":[461,461,461,461,461,461,461,461,461,461,461,461,461,461,461,461,461,461,461,461,462,462,462,462,461,461,461,460,460,460,459,458,455,455,453,452,448,446,439,430,416,377,351,331,305,257,202,183,165,153,140,117,102,88,74,63,51],"timestamp_mouse":[8,27,55,67,87,109,127,148,168,187,208,228,247,267,288,308,327,348,367,387,407,427,447,469,487,507,528,547,567,589,608,627,647,668,687,707,727,748,767,787,808,828,847,867,888,907,927,947,968,988,1009,1028,1048,1067,1088,1108,1128],"xSR":741.5,"ySR":449.15000000000003,"xT1":424.9,"yT1":0,"xT2":1058.1,"yT2":0,"toosoon":0,"cond_shown":"equaldotanddens","ratio_trial":900,"smaller_num":"9","larger_num":"10","correct_side":2,"subjID":"Geraldineavilajoaqui5","gender":"1","age":"11","school":"6"},{"start_time":1551790953754,"click_time":1551790954745,"finger_time":1551790954546,"fix_duration":1447.117945254076,"trial":12,"RT":792,"MT":199,"sideResp":1,"stimulus":"img/500/randomdotsizeEA/L/10_Ratio_500_L_4_R_2.png","xmouse":[791,791,791,791,791,791,791,791,791,791,791,791,791,791,791,791,791,791,791,791,791,791,791,791,791,791,791,791,791,791,791,791,791,791,791,791,791,788,778,763,715,634,589,546,511,493,475,471,469,465],"ymouse":[484,484,484,484,484,484,484,484,484,484,484,484,484,484,484,484,484,484,484,484,484,484,484,484,484,484,484,484,484,484,484,484,484,484,484,484,483,476,460,434,372,267,222,185,155,137,115,109,106,99],"timestamp_mouse":[12,32,51,72,92,112,132,152,172,192,211,231,251,271,293,312,332,351,372,392,412,431,453,473,492,511,531,551,571,592,611,632,651,671,692,713,732,752,771,792,812,832,851,872,891,911,932,951,972,991],"xSR":741.5,"ySR":449.15000000000003,"xT1":424.9,"yT1":0,"xT2":1058.1,"yT2":0,"toosoon":0,"cond_shown":"randomdotsizeEA","ratio_trial":500,"smaller_num":"2","larger_num":"4","correct_side":1,"subjID":"Geraldineavilajoaqui5","gender":"1","age":"11","school":"6"},{"start_time":1551790956040,"click_time":1551790957086,"finger_time":1551790956726,"fix_duration":453.6683789206394,"trial":13,"RT":686,"MT":360,"sideResp":2,"stimulus":"img/250/equaldotsize/R/6_Ratio_250_L_6_R_24.png","xmouse":[805,804,804,804,804,804,804,804,804,804,804,804,804,804,804,804,804,804,804,804,804,804,804,804,804,804,804,804,804,804,804,804,808,837,855,887,907,946,968,983,991,998,1007,1011,1014,1022,1028,1037,1043,1048,1051,1055,1062],"ymouse":[496,495,495,495,495,495,495,495,495,495,495,495,495,495,495,495,495,495,495,495,495,495,495,495,495,495,495,495,495,495,495,492,489,467,452,425,403,346,316,289,268,250,221,209,196,175,160,134,122,110,102,93,79],"timestamp_mouse":[5,26,45,66,85,105,125,145,166,185,205,225,246,265,285,306,325,345,365,385,406,426,446,465,487,506,525,545,566,585,605,625,645,666,686,705,725,746,765,785,806,826,846,865,885,906,925,946,965,986,1007,1026,1046],"xSR":741.5,"ySR":449.15000000000003,"xT1":424.9,"yT1":0,"xT2":1058.1,"yT2":0,"toosoon":0,"cond_shown":"equaldotsize","ratio_trial":250,"smaller_num":"6","larger_num":"24","correct_side":2,"subjID":"Geraldineavilajoaqui5","gender":"1","age":"11","school":"6"},{"start_time":1551790959157,"click_time":1551790960385,"finger_time":1551790959827,"fix_duration":1288.392193938653,"trial":14,"RT":670,"MT":558,"sideResp":1,"stimulus":"img/250/randomdotsizeEA/L/3_Ratio_250_L_8_R_2.png","xmouse":[790,790,790,790,790,790,790,790,790,790,790,790,790,791,792,792,793,794,795,796,796,796,796,796,796,796,796,796,796,796,795,775,757,737,720,702,674,661,647,630,623,614,602,597,593,587,580,570,562,553,543,531,519,514,510,507,500,497,491,488,487,485],"ymouse":[489,489,489,489,489,489,489,489,489,489,489,489,489,489,488,487,486,485,485,484,484,484,484,484,484,484,484,484,484,482,482,473,464,450,430,397,336,312,291,267,258,248,237,233,227,218,210,196,189,183,175,165,152,146,140,136,126,122,115,110,104,89],"timestamp_mouse":[8,35,50,70,88,108,130,149,168,189,208,228,248,269,290,308,328,349,369,388,410,428,449,469,489,509,529,549,569,590,608,628,649,670,689,709,728,748,769,790,808,828,848,869,888,908,929,948,968,988,1009,1028,1049,1069,1089,1109,1129,1148,1169,1188,1209,1228],"xSR":741.5,"ySR":449.15000000000003,"xT1":424.9,"yT1":0,"xT2":1058.1,"yT2":0,"toosoon":0,"cond_shown":"randomdotsizeEA","ratio_trial":250,"smaller_num":"2","larger_num":"8","correct_side":1,"subjID":"Geraldineavilajoaqui5","gender":"1","age":"11","school":"6"},{"start_time":1551790962579,"click_time":1551790963505,"finger_time":1551790963246,"fix_duration":1012.2691204087866,"trial":15,"RT":667,"MT":259,"sideResp":1,"stimulus":"img/750/randomdotsizeEA/L/13_Ratio_750_L_8_R_6.png","xmouse":[787,787,787,787,787,787,787,787,787,787,787,787,787,787,787,787,787,787,787,787,788,789,789,789,789,789,789,789,789,789,788,785,779,770,758,727,707,680,652,619,564,551,540,532,528,525,523],"ymouse":[494,494,494,494,494,494,494,494,494,494,494,494,494,494,494,494,494,494,494,494,494,493,492,492,491,490,488,487,486,484,478,470,462,449,433,392,368,330,284,233,140,120,104,94,90,87,86],"timestamp_mouse":[12,37,46,67,87,106,126,147,167,188,206,227,247,268,286,306,326,348,368,387,406,428,446,466,488,507,526,546,566,586,606,627,647,667,686,706,726,746,767,786,806,826,846,867,886,906,926],"xSR":741.5,"ySR":449.15000000000003,"xT1":424.9,"yT1":0,"xT2":1058.1,"yT2":0,"toosoon":0,"cond_shown":"randomdotsizeEA","ratio_trial":750,"smaller_num":"6","larger_num":"8","correct_side":1,"subjID":"Geraldineavilajoaqui5","gender":"1","age":"11","school":"6"},{"start_time":1551790964657,"click_time":1551790966445,"finger_time":1551790966066,"fix_duration":250,"trial":16,"RT":1409,"MT":379,"sideResp":2,"stimulus":"img/750/randomdotsizeEA/R/7_Ratio_750_L_3_R_4.png","xmouse":[789,789,789,789,789,789,789,789,789,789,789,789,789,789,789,789,789,789,789,789,789,789,789,789,789,789,789,789,789,789,789,789,789,789,789,789,789,789,789,789,789,789,789,789,789,789,789,789,789,789,789,789,789,789,789,786,780,756,752,752,752,752,752,752,752,752,752,752,751,770,801,870,897,916,943,961,1001,1021,1040,1052,1061,1068,1068,1070,1070,1071,1074,1076,1077,1078],"ymouse":[497,497,497,497,497,497,497,497,497,497,497,497,497,497,497,497,497,497,495,492,491,486,485,484,484,484,484,484,484,484,484,484,484,484,484,484,484,484,484,484,484,484,484,484,484,484,484,484,484,484,484,484,484,484,484,484,484,484,484,484,484,484,484,484,484,484,484,484,479,455,419,355,327,305,273,253,219,204,189,178,169,155,150,144,141,132,117,110,100,91],"timestamp_mouse":[9,32,49,68,89,109,129,148,168,189,208,229,248,268,289,309,328,350,369,389,409,429,448,469,490,509,528,550,569,590,609,629,650,669,689,708,729,749,769,788,808,828,849,869,888,908,929,948,969,988,1008,1028,1049,1068,1089,1109,1128,1149,1170,1189,1209,1228,1250,1270,1290,1310,1330,1350,1369,1389,1409,1429,1450,1470,1490,1514,1529,1550,1569,1589,1609,1629,1649,1669,1689,1709,1729,1749,1768,1788],"xSR":741.5,"ySR":449.15000000000003,"xT1":424.9,"yT1":0,"xT2":1058.1,"yT2":0,"toosoon":0,"cond_shown":"randomdotsizeEA","ratio_trial":750,"smaller_num":"3","larger_num":"4","correct_side":2,"subjID":"Geraldineavilajoaqui5","gender":"1","age":"11","school":"6"},{"start_time":1551790967715,"click_time":1551790968886,"finger_time":1551790968406,"fix_duration":428.2298532907689,"trial":17,"RT":691,"MT":480,"sideResp":2,"stimulus":"img/250/equaldotsize/R/11_Ratio_250_L_3_R_12.png","xmouse":[801,801,801,801,801,801,801,801,801,801,801,801,801,801,801,801,801,801,801,801,801,801,801,801,801,801,801,801,801,801,801,801,801,824,846,866,885,913,957,975,989,1000,1014,1026,1028,1033,1035,1038,1041,1045,1046,1047,1047,1047,1047,1048,1051,1054,1070],"ymouse":[488,488,488,488,488,488,488,488,488,488,488,488,488,488,488,488,488,488,488,488,488,488,488,488,488,488,488,488,488,488,488,488,486,459,441,419,395,359,280,232,185,145,98,61,51,40,34,26,18,6,2,1,1,1,1,1,1,4,17],"timestamp_mouse":[10,30,52,71,91,110,131,150,170,191,210,230,251,270,291,310,332,350,370,391,411,431,450,470,491,511,530,551,570,591,610,631,650,670,691,711,731,750,771,791,810,830,852,871,892,910,930,951,970,991,1011,1031,1050,1071,1090,1110,1131,1152,1171],"xSR":741.5,"ySR":449.15000000000003,"xT1":424.9,"yT1":0,"xT2":1058.1,"yT2":0,"toosoon":0,"cond_shown":"equaldotsize","ratio_trial":250,"smaller_num":"3","larger_num":"12","correct_side":2,"subjID":"Geraldineavilajoaqui5","gender":"1","age":"11","school":"6"},{"start_time":1551790971069,"click_time":1551790972086,"finger_time":1551790971785,"fix_duration":1281.0422677248202,"trial":18,"RT":716,"MT":301,"sideResp":1,"stimulus":"img/250/equaldotanddens/L/15_Ratio_250_L_12_R_3.png","xmouse":[790,790,790,790,790,790,790,790,790,790,790,790,790,790,790,790,790,790,790,790,790,790,790,790,790,790,790,790,790,790,790,790,789,788,778,739,677,658,639,626,611,607,603,596,588,567,561,555,549,542,517],"ymouse":[504,504,504,504,504,504,504,504,504,504,504,504,504,504,504,504,504,504,504,504,504,504,504,504,504,504,504,504,504,504,504,504,504,504,490,428,356,322,287,258,223,211,203,192,182,155,142,128,115,101,75],"timestamp_mouse":[17,36,58,77,97,117,137,156,176,196,216,237,257,277,297,317,336,357,376,396,416,438,457,477,496,516,536,556,576,598,616,637,657,676,696,716,737,757,777,798,817,836,856,877,896,916,936,956,977,998,1017],"xSR":741.5,"ySR":449.15000000000003,"xT1":424.9,"yT1":0,"xT2":1058.1,"yT2":0,"toosoon":0,"cond_shown":"equaldotanddens","ratio_trial":250,"smaller_num":"3","larger_num":"12","correct_side":1,"subjID":"Geraldineavilajoaqui5","gender":"1","age":"11","school":"6"},{"start_time":1551790973303,"click_time":1551790974387,"finger_time":1551790974105,"fix_duration":436.0777485436531,"trial":19,"RT":802,"MT":282,"sideResp":2,"stimulus":"img/900/equaldotanddens/R/11_Ratio_900_L_18_R_20.png","xmouse":[777,777,777,777,777,777,777,777,777,777,777,777,777,777,777,777,777,777,777,777,777,777,777,777,777,777,777,777,777,777,777,777,777,777,777,777,779,785,795,813,822,830,838,845,871,884,902,922,947,973,1015,1031,1044,1062,1087],"ymouse":[499,499,499,499,499,499,499,499,499,499,499,499,499,499,499,499,499,499,499,499,499,499,499,499,499,499,499,499,499,499,499,499,499,499,499,499,500,493,481,453,437,422,407,395,368,354,339,319,295,267,213,190,172,143,98],"timestamp_mouse":[7,23,42,62,83,102,123,142,164,182,203,223,244,262,283,302,323,344,362,382,403,422,443,462,482,502,523,543,563,583,602,622,642,663,684,703,724,742,762,782,802,822,843,862,883,902,923,942,963,983,1003,1022,1042,1062,1084],"xSR":741.5,"ySR":449.15000000000003,"xT1":424.9,"yT1":0,"xT2":1058.1,"yT2":0,"toosoon":0,"cond_shown":"equaldotanddens","ratio_trial":900,"smaller_num":"18","larger_num":"20","correct_side":2,"subjID":"Geraldineavilajoaqui5","gender":"1","age":"11","school":"6"},{"start_time":1551790976795,"click_time":1551790978765,"finger_time":1551790978286,"fix_duration":1367.0287932798603,"trial":20,"RT":1491,"MT":479,"sideResp":1,"stimulus":"img/250/equaldotsize/R/8_Ratio_250_L_1_R_4.png","xmouse":[794,795,795,795,795,795,795,795,795,795,795,795,795,795,795,795,795,795,795,795,795,795,795,795,795,795,795,795,795,795,795,795,795,795,795,795,795,795,795,795,795,795,795,795,795,795,795,795,795,795,795,795,795,795,795,795,795,795,795,795,795,795,795,795,795,795,795,795,795,795,795,794,792,783,738,702,661,618,582,559,555,553,552,550,546,541,536,532,525,518,515,513,511,508,501,495,491,485,481],"ymouse":[497,497,497,497,497,497,497,497,497,497,497,497,497,497,497,497,497,497,497,497,497,497,497,497,497,497,497,497,497,497,497,497,497,497,497,497,497,497,497,497,497,497,497,497,497,497,497,497,497,497,497,497,497,497,497,497,497,497,497,497,497,497,497,497,497,497,497,497,497,497,497,496,495,486,445,410,372,338,292,253,246,243,241,238,233,227,221,216,202,185,179,174,168,162,147,139,124,103,87],"timestamp_mouse":[14,37,50,70,90,110,131,150,170,190,211,232,251,271,290,311,331,350,370,390,411,430,450,470,490,510,530,552,571,591,611,631,650,671,690,711,731,750,771,790,811,830,850,871,890,911,931,951,970,992,1011,1030,1051,1070,1090,1110,1130,1152,1170,1190,1211,1230,1250,1270,1290,1312,1330,1351,1371,1390,1410,1431,1450,1471,1491,1510,1530,1550,1570,1592,1610,1630,1651,1671,1691,1710,1730,1750,1770,1791,1810,1830,1851,1870,1890,1910,1930,1950,1970],"xSR":741.5,"ySR":449.15000000000003,"xT1":424.9,"yT1":0,"xT2":1058.1,"yT2":0,"toosoon":0,"cond_shown":"equaldotsize","ratio_trial":250,"smaller_num":"1","larger_num":"4","correct_side":2,"subjID":"Geraldineavilajoaqui5","gender":"1","age":"11","school":"6"},{"start_time":1551790982871,"click_time":1551790984305,"finger_time":1551790983725,"fix_duration":765.3072116039913,"trial":21,"RT":854,"MT":580,"sideResp":2,"stimulus":"img/500/randomdotsizeEA/R/2_Ratio_500_L_3_R_6.png","xmouse":[802,803,803,803,803,803,803,803,803,803,803,801,800,800,800,800,800,800,800,800,800,800,800,799,799,797,796,796,795,794,787,786,786,786,786,786,788,792,797,801,808,821,842,878,972,1101,1137,1153,1157,1158,1161,1164,1166,1171,1176,1179,1181,1181,1181,1181,1181,1181,1181,1181,1181,1181,1180,1179,1177,1175,1164,1156],"ymouse":[507,504,504,504,504,504,504,504,504,504,503,503,502,502,502,502,502,502,502,502,502,502,502,501,500,498,497,497,497,497,497,497,497,497,497,497,494,491,485,479,472,457,438,412,365,284,252,230,217,209,196,190,182,172,157,138,128,122,115,110,99,95,92,91,89,88,86,86,86,85,83,83],"timestamp_mouse":[21,42,54,74,94,114,134,155,175,193,214,234,254,274,294,315,334,353,373,394,414,435,455,474,494,513,533,555,574,594,614,635,654,675,693,715,734,755,774,795,813,833,854,874,895,915,934,954,974,994,1015,1035,1054,1074,1094,1114,1133,1154,1174,1195,1214,1233,1254,1273,1294,1313,1334,1354,1374,1394,1413,1433],"xSR":741.5,"ySR":449.15000000000003,"xT1":424.9,"yT1":0,"xT2":1058.1,"yT2":0,"toosoon":0,"cond_shown":"randomdotsizeEA","ratio_trial":500,"smaller_num":"3","larger_num":"6","correct_side":2,"subjID":"Geraldineavilajoaqui5","gender":"1","age":"11","school":"6"},{"start_time":1551790986195,"click_time":1551790987345,"finger_time":1551790986906,"fix_duration":809.9856166618242,"trial":22,"RT":711,"MT":439,"sideResp":2,"stimulus":"img/500/equaldotanddens/R/14_Ratio_500_L_5_R_10.png","xmouse":[782,782,782,782,782,782,782,782,782,782,782,782,782,782,782,782,782,784,789,802,808,815,822,827,828,828,828,828,828,828,828,828,828,829,838,853,877,913,951,996,998,998,998,998,999,1001,1008,1031,1041,1086,1096,1100,1104,1107,1111,1113,1115,1117],"ymouse":[511,511,511,511,511,511,511,511,511,511,511,511,511,511,511,511,511,511,510,500,494,487,481,477,476,476,476,476,476,476,476,476,476,475,460,434,394,335,268,161,147,144,143,143,142,142,142,137,134,121,119,116,113,111,105,103,100,96],"timestamp_mouse":[9,31,51,69,90,111,129,151,170,189,210,231,250,269,289,310,331,350,370,390,410,431,450,470,490,511,530,550,570,589,611,630,651,670,690,711,729,749,770,790,809,830,851,869,891,909,930,950,969,990,1010,1030,1049,1070,1090,1109,1130,1149],"xSR":741.5,"ySR":449.15000000000003,"xT1":424.9,"yT1":0,"xT2":1058.1,"yT2":0,"toosoon":0,"cond_shown":"equaldotanddens","ratio_trial":500,"smaller_num":"5","larger_num":"10","correct_side":2,"subjID":"Geraldineavilajoaqui5","gender":"1","age":"11","school":"6"},{"start_time":1551790988597,"click_time":1551790989385,"finger_time":1551790989225,"fix_duration":250,"trial":23,"RT":628,"MT":160,"sideResp":2,"stimulus":"img/500/equaldotanddens/R/12_Ratio_500_L_1_R_2.png","xmouse":[798,798,798,798,799,800,800,800,800,800,801,802,802,804,806,825,834,836,836,836,836,836,836,836,834,834,834,833,833,831,831,842,867,919,1063,1095,1099,1099,1100,1107],"ymouse":[499,499,499,499,498,497,497,497,497,497,496,495,495,493,492,486,484,484,484,484,484,483,482,481,474,472,470,469,468,464,460,446,420,371,237,193,172,156,130,83],"timestamp_mouse":[11,34,48,68,88,109,129,148,167,188,208,229,248,268,288,307,329,348,368,389,407,428,449,469,488,509,529,547,567,589,608,628,648,668,688,707,728,748,769,788],"xSR":741.5,"ySR":449.15000000000003,"xT1":424.9,"yT1":0,"xT2":1058.1,"yT2":0,"toosoon":0,"cond_shown":"equaldotanddens","ratio_trial":500,"smaller_num":"1","larger_num":"2","correct_side":2,"subjID":"Geraldineavilajoaqui5","gender":"1","age":"11","school":"6"},{"start_time":1551790991897,"click_time":1551790993185,"finger_time":1551790992485,"fix_duration":1411.5926731189231,"trial":24,"RT":588,"MT":700,"sideResp":2,"stimulus":"img/500/equaldotanddens/R/3_Ratio_500_L_10_R_20.png","xmouse":[793,793,793,793,793,793,793,793,793,793,793,793,793,793,793,793,793,793,793,793,793,793,793,793,793,793,785,777,760,727,716,709,708,708,708,708,708,708,708,708,708,708,708,710,731,749,769,801,834,915,951,975,988,1007,1025,1030,1033,1035,1037,1044,1047,1053,1056,1058,1061],"ymouse":[494,494,494,494,494,494,494,494,494,494,494,494,494,494,494,494,494,494,494,494,494,494,494,494,494,494,498,501,506,516,517,517,517,517,517,517,517,517,517,517,517,517,517,517,506,494,480,457,433,363,316,276,244,200,153,137,120,108,96,75,67,60,57,54,52],"timestamp_mouse":[8,35,48,68,89,108,127,148,168,188,207,228,248,267,287,307,329,348,367,389,408,427,449,468,487,509,528,549,569,588,607,627,649,669,688,707,728,748,769,789,808,828,848,869,888,907,928,948,969,988,1009,1027,1048,1069,1088,1107,1128,1148,1169,1189,1207,1228,1247,1267,1288],"xSR":741.5,"ySR":449.15000000000003,"xT1":424.9,"yT1":0,"xT2":1058.1,"yT2":0,"toosoon":0,"cond_shown":"equaldotanddens","ratio_trial":500,"smaller_num":"10","larger_num":"20","correct_side":2,"subjID":"Geraldineavilajoaqui5","gender":"1","age":"11","school":"6"},{"start_time":1551790994417,"click_time":1551790995525,"finger_time":1551790995125,"fix_duration":250,"trial":25,"RT":708,"MT":400,"sideResp":1,"stimulus":"img/250/equaldotsize/L/15_Ratio_250_L_12_R_3.png","xmouse":[785,785,785,785,785,785,785,785,785,785,785,785,785,785,785,785,785,785,793,800,803,803,803,803,803,803,803,803,803,803,803,803,803,797,787,775,758,739,664,628,591,553,536,536,536,536,536,536,536,536,536,536,536,536,536,505],"ymouse":[490,490,490,490,490,490,490,490,490,490,490,490,490,490,490,490,490,491,491,491,491,491,491,491,491,491,491,491,491,491,491,491,488,480,467,449,425,390,241,157,84,27,7,7,7,7,7,7,7,7,7,7,7,7,7,6],"timestamp_mouse":[8,34,49,68,88,109,128,148,168,188,208,228,248,269,288,307,329,348,368,388,408,427,447,468,488,510,529,549,567,588,609,629,648,669,688,708,728,747,767,787,808,828,849,868,888,908,928,948,968,989,1008,1028,1048,1068,1087,1107],"xSR":741.5,"ySR":449.15000000000003,"xT1":424.9,"yT1":0,"xT2":1058.1,"yT2":0,"toosoon":0,"cond_shown":"equaldotsize","ratio_trial":250,"smaller_num":"3","larger_num":"12","correct_side":1,"subjID":"Geraldineavilajoaqui5","gender":"1","age":"11","school":"6"},{"start_time":1551790997390,"click_time":1551790998424,"finger_time":1551790998125,"fix_duration":1203.7638179997155,"trial":26,"RT":735,"MT":299,"sideResp":1,"stimulus":"img/750/equaldotsize/L/1_Ratio_750_L_20_R_15.png","xmouse":[765,765,765,765,765,765,769,773,775,776,776,776,776,776,776,776,776,776,776,776,776,776,776,776,776,776,776,776,776,776,776,776,776,776,776,768,750,722,686,578,556,547,545,545,545,544,542,538,534,523,518,512],"ymouse":[520,520,520,520,519,510,500,488,483,482,482,482,482,482,482,482,482,482,482,482,482,482,482,482,482,482,482,482,482,482,482,482,482,482,477,459,428,385,330,180,147,135,132,132,132,131,130,126,122,105,101,95],"timestamp_mouse":[17,41,54,74,95,116,135,155,175,196,214,236,255,275,294,315,335,355,374,395,416,435,456,474,495,516,535,554,575,594,615,634,655,675,695,716,735,755,774,795,815,835,855,874,895,915,935,955,975,995,1015,1034],"xSR":741.5,"ySR":449.15000000000003,"xT1":424.9,"yT1":0,"xT2":1058.1,"yT2":0,"toosoon":0,"cond_shown":"equaldotsize","ratio_trial":750,"smaller_num":"15","larger_num":"20","correct_side":1,"subjID":"Geraldineavilajoaqui5","gender":"1","age":"11","school":"6"},{"start_time":1551790999497,"click_time":1551791000826,"finger_time":1551791000425,"fix_duration":250,"trial":27,"RT":928,"MT":401,"sideResp":2,"stimulus":"img/750/equaldotsize/R/15_Ratio_750_L_9_R_12.png","xmouse":[801,801,801,801,801,801,801,801,801,801,801,801,801,801,801,801,801,801,801,801,801,801,801,801,801,801,801,801,801,801,801,801,801,801,804,806,808,810,811,812,813,814,815,817,823,831,841,854,870,911,932,952,968,985,1010,1021,1036,1049,1061,1078,1084,1085,1087,1088,1089,1091,1094],"ymouse":[479,479,479,479,479,479,479,479,479,479,479,479,479,479,479,479,479,479,479,479,479,479,479,479,479,479,479,479,479,479,479,479,479,479,479,479,478,477,476,476,475,474,473,472,466,460,447,428,401,339,308,278,257,233,200,183,164,146,132,113,109,107,106,105,103,100,97],"timestamp_mouse":[9,33,49,69,88,108,129,148,168,188,209,229,247,268,288,308,328,348,368,388,408,427,448,468,487,509,528,547,568,588,609,628,648,669,688,708,728,747,768,788,808,827,849,868,888,908,928,947,968,988,1007,1027,1048,1068,1088,1109,1128,1148,1168,1187,1207,1228,1248,1268,1288,1307,1329],"xSR":741.5,"ySR":449.15000000000003,"xT1":424.9,"yT1":0,"xT2":1058.1,"yT2":0,"toosoon":0,"cond_shown":"equaldotsize","ratio_trial":750,"smaller_num":"9","larger_num":"12","correct_side":2,"subjID":"Geraldineavilajoaqui5","gender":"1","age":"11","school":"6"},{"start_time":1551791002177,"click_time":1551791003405,"finger_time":1551791002824,"fix_duration":250,"trial":28,"RT":647,"MT":581,"sideResp":2,"stimulus":"img/250/equaldotsize/R/13_Ratio_250_L_2_R_8.png","xmouse":[783,783,783,783,783,783,783,783,783,783,783,783,783,783,783,783,783,783,783,783,783,783,783,783,783,783,783,783,783,783,796,811,829,852,877,919,936,948,966,969,985,996,1011,1026,1044,1089,1112,1128,1149,1153,1168,1171,1172,1174,1174,1175,1176,1176,1175,1172,1161,1151],"ymouse":[471,471,471,471,471,471,471,471,471,471,471,471,471,471,471,471,471,471,471,471,471,471,471,471,471,471,471,471,471,471,460,450,438,420,404,369,355,343,327,323,300,287,270,255,236,203,186,173,155,151,138,133,131,128,126,124,120,116,110,103,93,86],"timestamp_mouse":[10,38,49,69,88,107,129,147,168,189,208,228,247,269,287,308,328,349,369,388,408,429,448,467,488,508,528,548,569,588,608,628,647,668,689,708,727,748,768,787,808,827,848,868,887,908,927,948,969,988,1007,1027,1047,1068,1088,1108,1127,1148,1169,1189,1208,1228],"xSR":741.5,"ySR":449.15000000000003,"xT1":424.9,"yT1":0,"xT2":1058.1,"yT2":0,"toosoon":0,"cond_shown":"equaldotsize","ratio_trial":250,"smaller_num":"2","larger_num":"8","correct_side":2,"subjID":"Geraldineavilajoaqui5","gender":"1","age":"11","school":"6"},{"start_time":1551791004497,"click_time":1551791005705,"finger_time":1551791005304,"fix_duration":250,"trial":29,"RT":807,"MT":401,"sideResp":1,"stimulus":"img/750/randomdotsizeEA/L/10_Ratio_750_L_4_R_3.png","xmouse":[802,802,802,802,802,802,802,802,802,802,802,802,802,802,802,802,802,802,802,802,802,802,802,802,802,802,802,802,802,802,802,802,802,802,802,801,797,789,780,753,737,723,708,688,662,648,635,625,617,609,608,607,604,595,583,550,533,515,501,479,471],"ymouse":[509,509,509,509,509,509,509,509,509,509,509,509,509,509,509,509,509,509,509,509,509,509,509,509,509,509,509,509,509,509,509,509,509,509,509,509,508,497,485,452,435,422,403,372,330,308,285,269,254,241,238,236,230,215,199,163,149,133,123,104,97],"timestamp_mouse":[8,33,47,69,88,108,127,149,168,187,208,229,247,267,289,309,328,348,368,387,408,428,448,468,488,508,529,548,568,588,609,627,647,668,687,709,728,748,768,788,807,828,848,868,888,907,928,948,967,987,1009,1028,1048,1068,1088,1108,1128,1149,1168,1188,1208],"xSR":741.5,"ySR":449.15000000000003,"xT1":424.9,"yT1":0,"xT2":1058.1,"yT2":0,"toosoon":0,"cond_shown":"randomdotsizeEA","ratio_trial":750,"smaller_num":"3","larger_num":"4","correct_side":1,"subjID":"Geraldineavilajoaqui5","gender":"1","age":"11","school":"6"},{"start_time":1551791007575,"click_time":1551791008965,"finger_time":1551791008344,"fix_duration":1147.1652139960242,"trial":30,"RT":769,"MT":621,"sideResp":1,"stimulus":"img/900/randomdotsizeEA/L/2_Ratio_900_L_20_R_18.png","xmouse":[792,792,792,792,792,792,792,792,792,792,792,792,792,792,792,792,792,792,792,792,792,792,792,792,789,787,787,787,787,785,785,785,785,784,783,778,771,762,722,669,513,447,401,372,361,355,354,352,352,352,352,352,354,358,362,363,364,364,364,366,380,389,399,405,408,413,415,418,421,426],"ymouse":[497,497,497,497,497,497,497,497,497,497,497,497,497,497,497,497,497,497,497,497,497,497,497,497,497,497,497,497,497,497,497,497,497,495,493,486,478,465,424,381,282,246,218,200,189,174,164,151,129,118,60,40,21,9,2,0,0,0,0,0,9,15,22,26,29,34,35,36,37,39],"timestamp_mouse":[17,31,51,70,90,111,129,149,170,191,209,229,251,270,289,311,329,351,369,389,411,430,449,471,490,510,530,550,570,590,610,630,650,671,691,710,730,750,769,790,810,831,850,870,891,909,930,950,969,989,1009,1031,1050,1070,1090,1111,1131,1150,1171,1191,1210,1229,1249,1271,1291,1310,1329,1350,1371,1390],"xSR":741.5,"ySR":449.15000000000003,"xT1":424.9,"yT1":0,"xT2":1058.1,"yT2":0,"toosoon":0,"cond_shown":"randomdotsizeEA","ratio_trial":900,"smaller_num":"18","larger_num":"20","correct_side":1,"subjID":"Geraldineavilajoaqui5","gender":"1","age":"11","school":"6"},{"start_time":1551791011227,"click_time":1551791012224,"finger_time":1551791012025,"fix_duration":1321.8198119911858,"trial":31,"RT":798,"MT":199,"sideResp":1,"stimulus":"img/750/randomdotsizeEA/L/6_Ratio_750_L_24_R_18.png","xmouse":[810,810,810,810,810,810,810,810,810,810,810,810,810,810,810,810,810,810,810,810,810,810,810,810,810,810,810,810,810,809,809,808,806,804,801,798,795,786,778,769,757,743,725,672,641,611,582,538,527,522],"ymouse":[497,497,497,497,497,497,497,497,497,497,497,497,497,497,497,497,497,497,497,497,497,497,497,497,497,497,497,497,497,498,498,496,492,490,487,484,481,469,457,440,427,416,391,316,272,231,194,130,110,96],"timestamp_mouse":[17,46,59,77,99,119,139,157,179,198,219,239,258,279,299,317,338,359,378,398,418,439,458,479,499,518,538,558,577,598,619,638,658,678,699,717,739,758,779,798,818,839,858,878,898,919,938,958,978,997],"xSR":741.5,"ySR":449.15000000000003,"xT1":424.9,"yT1":0,"xT2":1058.1,"yT2":0,"toosoon":0,"cond_shown":"randomdotsizeEA","ratio_trial":750,"smaller_num":"18","larger_num":"24","correct_side":1,"subjID":"Geraldineavilajoaqui5","gender":"1","age":"11","school":"6"},{"start_time":1551791014207,"click_time":1551791015445,"finger_time":1551791014985,"fix_duration":1199.6265530266091,"trial":32,"RT":778,"MT":460,"sideResp":1,"stimulus":"img/500/equaldotanddens/L/10_Ratio_500_L_4_R_2.png","xmouse":[801,801,801,801,801,801,801,801,801,801,801,801,801,801,801,801,801,800,790,785,780,776,776,776,776,776,776,776,776,776,776,776,776,776,776,772,769,744,690,675,666,664,660,649,639,625,605,600,575,566,556,546,539,522,515,510,499,496,488,480,471,464],"ymouse":[481,481,481,481,481,481,481,481,481,481,481,481,481,481,481,481,481,480,482,483,486,487,488,488,488,488,488,488,488,488,488,488,488,488,488,487,484,461,408,389,376,370,362,335,313,290,264,258,225,212,197,184,174,155,149,144,137,133,125,115,102,91],"timestamp_mouse":[18,37,58,78,97,118,138,158,179,199,219,238,259,279,299,318,337,358,378,398,418,439,457,479,499,518,537,558,578,598,619,637,658,677,698,718,738,758,778,798,818,838,859,878,897,918,938,958,978,997,1018,1038,1059,1078,1098,1118,1137,1159,1178,1199,1218,1238],"xSR":741.5,"ySR":449.15000000000003,"xT1":424.9,"yT1":0,"xT2":1058.1,"yT2":0,"toosoon":0,"cond_shown":"equaldotanddens","ratio_trial":500,"smaller_num":"2","larger_num":"4","correct_side":1,"subjID":"Geraldineavilajoaqui5","gender":"1","age":"11","school":"6"},{"start_time":1551791017032,"click_time":1551791017945,"finger_time":1551791017626,"fix_duration":706.2492968794647,"trial":33,"RT":594,"MT":319,"sideResp":2,"stimulus":"img/250/equaldotanddens/R/12_Ratio_250_L_5_R_20.png","xmouse":[782,782,783,785,785,785,785,785,785,785,785,785,785,785,785,785,785,785,785,785,785,785,785,785,785,785,787,801,821,847,881,919,968,983,994,1003,1016,1032,1040,1045,1048,1051,1056,1057,1058,1059],"ymouse":[483,484,484,485,485,485,485,485,485,485,485,485,485,485,485,485,485,485,485,485,485,485,485,485,485,485,485,472,455,436,410,379,326,305,285,265,235,190,168,147,127,108,79,68,61,55],"timestamp_mouse":[14,34,53,73,93,113,133,153,172,192,214,234,252,273,293,313,332,353,373,392,414,433,454,472,494,513,533,553,573,594,614,633,653,674,693,713,732,753,773,793,813,832,853,872,892,913],"xSR":741.5,"ySR":449.15000000000003,"xT1":424.9,"yT1":0,"xT2":1058.1,"yT2":0,"toosoon":0,"cond_shown":"equaldotanddens","ratio_trial":250,"smaller_num":"5","larger_num":"20","correct_side":2,"subjID":"Geraldineavilajoaqui5","gender":"1","age":"11","school":"6"},{"start_time":1551791018897,"click_time":1551791019845,"finger_time":1551791019526,"fix_duration":250,"trial":34,"RT":629,"MT":319,"sideResp":1,"stimulus":"img/750/equaldotanddens/L/1_Ratio_750_L_20_R_15.png","xmouse":[772,772,772,772,772,772,772,772,772,772,772,772,772,772,772,772,772,772,772,772,772,772,772,772,772,772,772,772,770,760,754,747,735,701,658,640,633,628,624,618,615,610,598,587,562,548,532,520],"ymouse":[492,492,492,492,492,492,492,492,492,492,492,492,492,492,492,492,492,492,492,492,492,492,492,492,492,492,492,491,489,467,453,437,412,354,258,213,187,168,156,142,136,129,118,109,89,79,69,62],"timestamp_mouse":[8,35,48,67,89,107,128,149,167,187,209,227,248,269,289,308,328,348,369,387,407,428,448,469,487,507,527,548,569,588,608,629,648,669,688,708,729,748,768,788,809,828,848,868,887,909,929,948],"xSR":741.5,"ySR":449.15000000000003,"xT1":424.9,"yT1":0,"xT2":1058.1,"yT2":0,"toosoon":0,"cond_shown":"equaldotanddens","ratio_trial":750,"smaller_num":"15","larger_num":"20","correct_side":1,"subjID":"Geraldineavilajoaqui5","gender":"1","age":"11","school":"6"},{"start_time":1551791021183,"click_time":1551791022265,"finger_time":1551791021925,"fix_duration":416.7986898559395,"trial":35,"RT":742,"MT":340,"sideResp":1,"stimulus":"img/250/randomdotsizeEA/L/3_Ratio_250_L_8_R_2.png","xmouse":[792,790,790,790,790,790,790,790,790,790,790,790,790,790,790,790,790,790,790,790,790,790,790,790,790,790,790,790,790,790,790,790,790,790,789,785,780,772,762,737,663,611,556,519,497,483,483,483,483,481,476,474,472,470,469],"ymouse":[477,479,479,479,479,479,479,479,479,479,479,479,479,479,479,479,479,479,479,479,479,479,479,479,479,479,479,479,479,479,479,479,479,479,479,472,462,447,430,401,333,296,257,231,214,199,196,190,184,176,158,147,132,114,97],"timestamp_mouse":[8,30,42,61,83,101,121,142,162,182,202,221,242,262,282,301,323,342,361,382,402,423,442,463,483,501,522,541,562,583,603,622,643,662,682,702,723,742,762,782,801,822,842,862,882,902,931,943,963,982,1001,1021,1042,1062,1082],"xSR":741.5,"ySR":449.15000000000003,"xT1":424.9,"yT1":0,"xT2":1058.1,"yT2":0,"toosoon":0,"cond_shown":"randomdotsizeEA","ratio_trial":250,"smaller_num":"2","larger_num":"8","correct_side":1,"subjID":"Geraldineavilajoaqui5","gender":"1","age":"11","school":"6"},{"start_time":1551791024021,"click_time":1551791024924,"finger_time":1551791024665,"fix_duration":1135.3283921064155,"trial":36,"RT":644,"MT":259,"sideResp":2,"stimulus":"img/250/equaldotanddens/R/10_Ratio_250_L_4_R_16.png","xmouse":[796,796,796,796,796,796,796,796,796,796,796,796,796,796,796,796,796,796,796,796,796,796,796,796,796,796,796,796,799,808,820,838,865,918,946,977,1002,1030,1042,1046,1048,1050,1052,1056,1058,1060],"ymouse":[490,490,490,490,490,490,490,490,490,490,490,490,490,490,490,490,490,490,490,490,490,490,490,490,490,490,490,490,487,480,471,458,438,388,349,298,254,197,158,145,137,130,124,110,103,95],"timestamp_mouse":[7,34,44,63,85,105,124,145,163,185,205,224,244,265,283,305,324,344,365,384,404,424,445,465,483,504,523,545,565,584,603,625,644,664,684,703,725,744,764,785,804,825,844,864,884,903],"xSR":741.5,"ySR":449.15000000000003,"xT1":424.9,"yT1":0,"xT2":1058.1,"yT2":0,"toosoon":0,"cond_shown":"equaldotanddens","ratio_trial":250,"smaller_num":"4","larger_num":"16","correct_side":2,"subjID":"Geraldineavilajoaqui5","gender":"1","age":"11","school":"6"},{"start_time":1551791027167,"click_time":1551791029825,"finger_time":1551791029584,"fix_duration":1461.085706760913,"trial":37,"RT":2417,"MT":241,"sideResp":1,"stimulus":"img/750/randomdotsizeEA/R/4_Ratio_750_L_15_R_20.png","xmouse":[792,792,792,792,792,792,792,792,792,792,792,792,792,792,792,792,792,792,792,792,792,792,792,792,792,792,792,792,792,792,792,792,792,792,792,792,792,792,792,791,788,784,783,781,780,776,774,774,774,774,774,774,774,774,774,774,774,774,774,774,774,774,774,774,774,774,774,774,774,774,774,774,774,774,774,774,774,774,774,774,774,774,774,774,774,774,774,774,774,774,774,774,774,774,774,774,774,774,774,774,774,774,774,774,774,776,778,779,780,781,782,783,783,784,784,784,783,782,780,775,759,750,740,728,714,675,655,637,621,595,554,528,504],"ymouse":[495,495,495,495,495,495,495,495,495,495,495,495,495,495,495,495,495,493,492,489,487,487,487,487,487,487,487,487,487,487,487,487,487,487,487,487,487,487,487,487,487,487,487,487,487,487,487,487,487,487,487,487,487,487,487,487,487,487,487,487,487,487,487,487,487,487,487,487,487,487,487,487,487,487,487,487,487,487,487,487,487,487,487,487,487,487,487,487,487,487,487,487,487,487,487,487,487,487,487,487,487,487,487,487,486,481,479,478,476,475,474,472,472,471,471,471,468,465,463,459,445,438,429,418,402,342,308,276,248,205,131,95,64],"timestamp_mouse":[18,37,58,77,99,117,138,158,179,197,217,238,257,278,298,318,338,358,378,398,418,438,458,478,498,519,538,558,578,597,617,638,658,678,698,718,738,758,778,799,817,839,859,878,898,918,939,958,977,997,1019,1037,1059,1078,1097,1119,1139,1157,1179,1199,1217,1238,1259,1278,1299,1318,1338,1358,1379,1399,1419,1438,1458,1479,1499,1518,1537,1559,1579,1599,1619,1637,1658,1679,1697,1717,1738,1759,1779,1798,1819,1838,1859,1879,1899,1917,1939,1958,1978,1999,2018,2039,2058,2077,2099,2118,2139,2159,2178,2197,2219,2238,2258,2278,2299,2318,2338,2359,2378,2397,2417,2439,2458,2478,2498,2518,2539,2558,2578,2599,2618,2637,2658],"xSR":741.5,"ySR":449.15000000000003,"xT1":424.9,"yT1":0,"xT2":1058.1,"yT2":0,"toosoon":0,"cond_shown":"randomdotsizeEA","ratio_trial":750,"smaller_num":"15","larger_num":"20","correct_side":2,"subjID":"Geraldineavilajoaqui5","gender":"1","age":"11","school":"6"},{"start_time":1551791034815,"click_time":1551791035625,"finger_time":1551791035506,"fix_duration":250,"trial":38,"RT":691,"MT":119,"sideResp":1,"stimulus":"img/750/equaldotanddens/L/1_Ratio_750_L_20_R_15.png","xmouse":[809,803,796,789,789,789,789,789,789,789,789,789,789,789,789,789,789,789,789,789,789,789,789,789,789,789,789,789,789,789,786,779,769,745,731,717,701,679,614,572,524],"ymouse":[492,492,494,496,496,496,496,496,496,496,496,496,496,496,496,496,496,496,496,496,496,496,496,496,496,496,496,496,496,496,496,496,496,494,488,476,442,381,223,146,60],"timestamp_mouse":[10,34,50,70,90,110,130,150,171,191,211,230,251,271,291,310,331,351,371,390,411,430,451,470,490,510,530,549,571,590,611,630,650,669,691,710,730,751,770,791,810],"xSR":741.5,"ySR":449.15000000000003,"xT1":424.9,"yT1":0,"xT2":1058.1,"yT2":0,"toosoon":0,"cond_shown":"equaldotanddens","ratio_trial":750,"smaller_num":"15","larger_num":"20","correct_side":1,"subjID":"Geraldineavilajoaqui5","gender":"1","age":"11","school":"6"},{"start_time":1551791037760,"click_time":1551791038406,"finger_time":1551791038285,"fix_duration":894.9465307599108,"trial":39,"RT":525,"MT":121,"sideResp":2,"stimulus":"img/500/equaldotanddens/R/2_Ratio_500_L_3_R_6.png","xmouse":[793,793,793,793,793,793,793,793,793,793,793,793,793,793,793,793,793,793,793,794,796,799,804,808,814,829,889,935,977,1021,1045,1080,1100],"ymouse":[501,502,502,502,502,502,502,502,502,502,502,502,502,502,502,502,502,502,502,499,494,488,479,474,466,452,405,364,322,256,214,128,85],"timestamp_mouse":[4,36,45,65,85,104,126,145,166,185,204,226,245,265,285,305,325,345,365,385,405,424,446,466,486,505,525,545,565,586,606,625,646],"xSR":741.5,"ySR":449.15000000000003,"xT1":424.9,"yT1":0,"xT2":1058.1,"yT2":0,"toosoon":0,"cond_shown":"equaldotanddens","ratio_trial":500,"smaller_num":"3","larger_num":"6","correct_side":2,"subjID":"Geraldineavilajoaqui5","gender":"1","age":"11","school":"6"},{"start_time":1551791040019,"click_time":1551791041425,"finger_time":1551791041046,"fix_duration":733.7506219193951,"trial":40,"RT":1027,"MT":379,"sideResp":2,"stimulus":"img/750/equaldotanddens/R/4_Ratio_750_L_15_R_20.png","xmouse":[798,798,798,798,798,798,798,798,798,797,794,793,792,791,791,791,791,791,791,791,791,791,791,791,791,791,791,791,791,791,791,790,789,789,789,789,789,789,789,789,789,789,789,789,789,789,789,791,809,823,837,855,873,900,910,921,933,943,971,988,1003,1018,1032,1047,1051,1052,1054,1055,1057,1058,1059],"ymouse":[507,507,507,507,507,507,507,507,507,507,507,507,506,506,506,506,506,506,506,506,506,506,506,505,503,502,502,502,502,501,499,498,496,492,491,490,490,490,490,490,490,490,490,490,490,490,489,485,474,467,459,449,436,411,395,377,346,322,271,244,220,197,173,137,123,112,106,101,94,91,89],"timestamp_mouse":[8,38,46,65,85,107,125,146,165,186,207,226,246,266,287,306,327,346,366,385,406,427,447,467,487,505,526,547,567,586,607,627,645,665,686,706,727,746,767,787,805,827,845,866,887,906,926,947,966,986,1006,1027,1046,1066,1086,1105,1127,1145,1166,1186,1206,1225,1247,1266,1286,1306,1325,1346,1365,1385,1406],"xSR":741.5,"ySR":449.15000000000003,"xT1":424.9,"yT1":0,"xT2":1058.1,"yT2":0,"toosoon":0,"cond_shown":"equaldotanddens","ratio_trial":750,"smaller_num":"15","larger_num":"20","correct_side":2,"subjID":"Geraldineavilajoaqui5","gender":"1","age":"11","school":"6"},{"start_time":1551791042975,"click_time":1551791044005,"finger_time":1551791043644,"fix_duration":648.918725938545,"trial":41,"RT":669,"MT":361,"sideResp":2,"stimulus":"img/500/equaldotsize/R/12_Ratio_500_L_1_R_2.png","xmouse":[788,788,788,788,788,788,788,788,788,788,788,788,788,788,788,788,788,788,788,788,788,788,788,788,788,788,788,788,788,788,795,807,826,852,883,918,992,1021,1046,1068,1089,1097,1102,1107,1114,1132,1141,1147,1151,1152,1152,1152],"ymouse":[495,495,495,495,495,495,495,495,495,495,495,495,495,495,495,495,495,495,495,495,495,495,495,495,495,495,495,495,495,495,494,485,475,460,443,421,370,348,326,294,253,234,220,205,190,160,147,134,122,114,100,98],"timestamp_mouse":[10,38,50,71,90,109,130,150,170,191,211,229,250,270,289,310,330,351,371,390,409,429,450,471,491,510,530,551,571,590,609,631,650,669,691,710,731,750,769,791,810,830,850,870,890,909,929,949,970,991,1009,1029],"xSR":741.5,"ySR":449.15000000000003,"xT1":424.9,"yT1":0,"xT2":1058.1,"yT2":0,"toosoon":0,"cond_shown":"equaldotsize","ratio_trial":500,"smaller_num":"1","larger_num":"2","correct_side":2,"subjID":"Geraldineavilajoaqui5","gender":"1","age":"11","school":"6"},{"start_time":1551791047401,"click_time":1551791048525,"finger_time":1551791048126,"fix_duration":1095.4111191671739,"trial":42,"RT":725,"MT":399,"sideResp":1,"stimulus":"img/750/equaldotanddens/L/9_Ratio_750_L_4_R_3.png","xmouse":[784,784,784,784,784,784,784,784,784,784,784,784,784,784,784,784,784,784,784,784,784,784,784,784,784,784,784,784,784,784,784,784,784,783,769,756,742,710,695,573,545,521,505,492,481,479,478,478,477,476,476,476,476,476,472,471,470],"ymouse":[489,489,489,489,489,489,489,489,489,489,489,489,489,489,489,489,489,489,489,489,489,489,489,489,489,489,489,489,489,489,489,489,489,484,468,456,441,407,392,287,267,248,234,223,212,210,209,208,203,188,178,164,151,136,112,102,97],"timestamp_mouse":[8,32,44,64,84,103,125,144,164,185,203,224,243,264,285,304,323,344,363,384,405,424,443,465,483,505,523,544,565,583,605,623,643,665,683,704,725,744,765,783,803,824,844,864,884,904,923,944,964,984,1005,1024,1044,1065,1084,1104,1124],"xSR":741.5,"ySR":449.15000000000003,"xT1":424.9,"yT1":0,"xT2":1058.1,"yT2":0,"toosoon":0,"cond_shown":"equaldotanddens","ratio_trial":750,"smaller_num":"3","larger_num":"4","correct_side":1,"subjID":"Geraldineavilajoaqui5","gender":"1","age":"11","school":"6"},{"start_time":1551791049617,"click_time":1551791051066,"finger_time":1551791050685,"fix_duration":250,"trial":43,"RT":1068,"MT":381,"sideResp":1,"stimulus":"img/900/randomdotsizeEA/L/4_Ratio_900_L_20_R_18.png","xmouse":[789,789,789,789,789,789,789,789,789,789,789,789,789,789,789,789,789,789,789,789,789,789,789,789,789,789,789,789,789,790,796,803,808,812,813,813,813,813,813,813,813,813,813,813,813,813,813,813,813,813,812,812,807,791,770,736,676,607,434,408,396,392,391,391,391,391,392,395,404,409,415,420,426],"ymouse":[504,504,504,504,504,504,504,504,504,504,504,504,504,504,504,504,504,504,504,504,504,504,504,504,504,504,504,504,504,504,499,492,485,480,478,478,478,478,478,478,478,478,478,478,478,478,478,478,478,477,474,473,466,437,411,378,333,283,183,165,157,152,148,142,138,134,128,122,110,105,97,90,83],"timestamp_mouse":[7,35,48,69,88,108,129,148,168,188,207,227,248,268,288,307,327,349,368,388,408,428,448,468,488,508,530,547,568,588,608,628,648,667,688,708,727,748,768,789,809,827,848,869,887,909,929,947,968,988,1007,1027,1049,1068,1089,1108,1129,1148,1168,1188,1208,1229,1249,1268,1288,1308,1328,1349,1368,1387,1408,1429,1448],"xSR":741.5,"ySR":449.15000000000003,"xT1":424.9,"yT1":0,"xT2":1058.1,"yT2":0,"toosoon":0,"cond_shown":"randomdotsizeEA","ratio_trial":900,"smaller_num":"18","larger_num":"20","correct_side":1,"subjID":"Geraldineavilajoaqui5","gender":"1","age":"11","school":"6"},{"start_time":1551791052849,"click_time":1551791054185,"finger_time":1551791053784,"fix_duration":763.708809582933,"trial":44,"RT":935,"MT":401,"sideResp":2,"stimulus":"img/900/randomdotsizeEA/R/15_Ratio_900_L_9_R_10.png","xmouse":[784,784,784,784,784,784,784,784,784,784,784,784,784,784,784,784,784,784,784,784,784,784,784,784,784,782,780,779,779,779,779,779,779,779,779,779,779,779,779,779,779,779,779,779,779,781,797,812,823,834,841,857,868,880,893,914,944,957,970,984,996,1020,1032,1040,1047,1053,1061],"ymouse":[488,488,488,488,489,490,491,492,492,493,494,495,495,496,496,496,496,496,496,496,496,496,496,496,493,490,486,484,483,481,481,481,481,481,481,481,481,481,481,481,481,481,481,480,478,471,447,428,408,389,364,318,292,267,244,208,168,149,134,119,107,90,83,78,76,73,69],"timestamp_mouse":[16,36,56,77,96,117,137,155,177,196,215,237,257,276,296,315,336,356,375,396,417,437,457,476,495,516,536,557,576,596,617,637,655,676,695,717,737,755,777,796,816,837,856,876,896,916,935,955,976,997,1016,1037,1056,1076,1096,1117,1135,1155,1176,1196,1215,1235,1257,1276,1296,1316,1336],"xSR":741.5,"ySR":449.15000000000003,"xT1":424.9,"yT1":0,"xT2":1058.1,"yT2":0,"toosoon":0,"cond_shown":"randomdotsizeEA","ratio_trial":900,"smaller_num":"9","larger_num":"10","correct_side":2,"subjID":"Geraldineavilajoaqui5","gender":"1","age":"11","school":"6"},{"start_time":1551791055357,"click_time":1551791056665,"finger_time":1551791055985,"fix_duration":450.5642305452435,"trial":45,"RT":628,"MT":680,"sideResp":2,"stimulus":"img/750/equaldotanddens/R/5_Ratio_750_L_15_R_20.png","xmouse":[796,796,796,796,796,796,796,796,796,796,797,797,797,797,797,797,797,797,798,799,802,803,816,820,825,827,830,831,833,835,840,847,850,855,860,865,874,880,886,894,899,909,916,921,929,937,957,968,981,991,1004,1021,1033,1044,1049,1052,1056,1057,1057,1058,1058,1058,1058,1058,1058,1059],"ymouse":[501,502,502,502,502,502,502,502,502,502,502,502,502,502,502,502,502,502,502,502,502,501,497,494,492,490,488,487,485,483,477,466,459,451,440,429,405,392,377,353,338,306,285,267,248,227,188,166,150,134,115,97,88,81,78,76,73,72,72,72,72,72,72,72,72,72],"timestamp_mouse":[7,27,47,68,88,108,127,148,167,189,208,227,247,269,288,308,327,348,368,389,407,427,448,468,488,509,528,548,568,588,609,628,648,668,688,707,728,748,768,788,807,828,849,867,889,908,928,947,967,988,1009,1028,1049,1067,1089,1109,1128,1147,1168,1188,1209,1228,1248,1269,1289,1307],"xSR":741.5,"ySR":449.15000000000003,"xT1":424.9,"yT1":0,"xT2":1058.1,"yT2":0,"toosoon":0,"cond_shown":"equaldotanddens","ratio_trial":750,"smaller_num":"15","larger_num":"20","correct_side":2,"subjID":"Geraldineavilajoaqui5","gender":"1","age":"11","school":"6"},{"start_time":1551791058162,"click_time":1551791059824,"finger_time":1551791058965,"fix_duration":676.9397984282987,"trial":46,"RT":803,"MT":859,"sideResp":2,"stimulus":"img/900/equaldotanddens/R/5_Ratio_900_L_9_R_10.png","xmouse":[786,786,786,786,786,786,786,786,786,787,787,787,787,787,787,787,787,787,787,788,789,793,795,797,799,800,803,804,804,805,805,805,805,805,805,805,805,798,780,759,726,695,693,692,692,692,691,698,708,724,745,800,817,829,842,852,871,877,884,891,908,916,932,941,950,960,989,1003,1013,1021,1027,1034,1036,1040,1044,1049,1053,1054,1056,1057,1057,1058,1058,1059],"ymouse":[493,493,493,493,493,493,493,494,494,494,494,494,494,494,494,494,494,494,494,494,494,491,489,487,486,484,482,481,480,480,480,480,480,480,480,480,480,479,479,476,472,464,463,463,463,463,462,453,445,434,418,370,351,335,318,302,271,256,240,224,199,184,154,141,130,120,103,96,91,87,83,80,79,78,77,75,75,74,74,73,73,73,72,72],"timestamp_mouse":[9,23,44,64,83,103,124,143,163,184,202,222,243,263,283,303,324,343,362,383,402,423,443,464,484,504,523,543,562,583,604,623,643,663,684,704,722,743,764,783,803,823,844,862,883,903,923,944,962,983,1004,1023,1043,1062,1083,1103,1122,1142,1162,1183,1204,1223,1243,1263,1284,1303,1323,1343,1363,1382,1403,1423,1444,1464,1483,1504,1523,1544,1563,1583,1603,1623,1643,1662],"xSR":741.5,"ySR":449.15000000000003,"xT1":424.9,"yT1":0,"xT2":1058.1,"yT2":0,"toosoon":0,"cond_shown":"equaldotanddens","ratio_trial":900,"smaller_num":"9","larger_num":"10","correct_side":2,"subjID":"Geraldineavilajoaqui5","gender":"1","age":"11","school":"6"},{"start_time":1551791062818,"click_time":1551791063766,"finger_time":1551791063385,"fix_duration":650.58372870371,"trial":47,"RT":567,"MT":381,"sideResp":1,"stimulus":"img/250/equaldotanddens/L/14_Ratio_250_L_12_R_3.png","xmouse":[800,796,795,794,794,794,794,794,794,794,794,794,794,794,793,793,792,792,792,792,792,792,792,792,791,789,778,766,723,679,624,579,535,486,478,475,473,473,473,473,474,475,476,481,482,482,482,482],"ymouse":[518,518,518,518,518,518,518,518,518,518,518,518,518,518,518,518,518,518,518,518,518,518,518,518,518,518,497,481,438,407,369,332,292,235,218,206,201,199,197,195,192,187,176,146,131,117,106,94],"timestamp_mouse":[6,27,50,66,87,107,127,148,167,188,207,226,248,267,287,307,327,347,366,387,406,427,446,468,486,507,526,548,567,587,606,627,647,668,686,707,727,748,767,787,807,827,847,867,887,907,927,948],"xSR":741.5,"ySR":449.15000000000003,"xT1":424.9,"yT1":0,"xT2":1058.1,"yT2":0,"toosoon":0,"cond_shown":"equaldotanddens","ratio_trial":250,"smaller_num":"3","larger_num":"12","correct_side":1,"subjID":"Geraldineavilajoaqui5","gender":"1","age":"11","school":"6"},{"start_time":1551791064596,"click_time":1551791065885,"finger_time":1551791065305,"fix_duration":250,"trial":48,"RT":709,"MT":580,"sideResp":1,"stimulus":"img/250/randomdotsizeEA/L/1_Ratio_250_L_8_R_2.png","xmouse":[804,804,804,804,804,804,804,804,804,805,805,805,805,805,805,805,805,805,805,805,805,805,805,804,804,804,804,804,804,803,803,801,798,792,774,760,743,724,692,645,631,622,617,613,601,594,586,574,566,542,534,524,518,511,506,504,502,500,498,498,497,496,495,493,488],"ymouse":[533,533,533,533,533,533,533,533,533,533,532,531,529,529,528,528,528,528,527,525,524,523,522,521,520,520,519,518,517,515,513,509,503,494,466,448,427,406,367,309,291,280,273,269,259,253,242,223,207,177,168,158,151,141,128,123,119,116,114,112,110,108,106,103,98],"timestamp_mouse":[9,35,49,70,88,110,130,149,170,189,210,229,249,268,288,308,329,350,369,388,409,429,449,468,490,509,529,550,570,590,608,628,649,668,689,709,728,749,770,788,809,828,849,869,889,909,929,949,970,989,1008,1029,1050,1069,1088,1108,1129,1149,1169,1189,1208,1228,1250,1270,1289],"xSR":741.5,"ySR":449.15000000000003,"xT1":424.9,"yT1":0,"xT2":1058.1,"yT2":0,"toosoon":0,"cond_shown":"randomdotsizeEA","ratio_trial":250,"smaller_num":"2","larger_num":"8","correct_side":1,"subjID":"Geraldineavilajoaqui5","gender":"1","age":"11","school":"6"},{"start_time":1551791067016,"click_time":1551791069885,"finger_time":1551791067885,"fix_duration":250,"trial":49,"RT":869,"MT":2000,"sideResp":2,"stimulus":"img/900/equaldotsize/R/9_Ratio_900_L_18_R_20.png","xmouse":[763,763,763,762,757,751,749,749,749,749,749,749,749,749,749,749,749,749,749,749,749,749,749,749,749,749,749,749,749,749,749,749,749,749,749,749,749,749,749,749,749,748,752,824,855,875,891,916,941,953,965,976,983,988,989,989,989,989,989,989,989,994,998,1002,1002,1002,1002,1002,1003,1003,1003,1003,1003,1003,1003,1003,1003,1003,1004,1005,1006,1008,1010,1018,1024,1028,1032,1033,1034,1035,1035,1036,1036,1037,1038,1039,1040,1042,1042,1042,1042,1042,1042,1042,1042,1042,1042,1042,1042,1042,1042,1042,1042,1042,1043,1043,1043,1043,1043,1043,1043,1044,1044,1044,1045,1045,1046,1046,1050,1051,1051,1052,1053,1053,1053,1054,1054,1054,1054,1055,1055,1056,1058,1060],"ymouse":[492,492,492,493,493,493,492,492,492,492,492,492,492,492,492,492,492,492,492,492,492,492,492,492,492,492,492,492,492,492,492,492,492,492,492,492,492,492,492,492,492,489,482,414,384,360,334,285,215,171,130,92,67,39,36,35,35,35,35,35,34,34,35,36,36,36,36,36,37,37,37,37,37,37,37,37,38,38,39,39,39,40,40,40,40,40,41,41,41,41,41,41,41,42,42,42,42,43,43,43,43,43,43,43,43,43,43,43,43,43,43,43,43,43,43,43,43,43,43,43,43,43,43,43,43,43,43,43,44,44,44,44,44,44,44,44,44,44,44,44,44,44,44,44],"timestamp_mouse":[8,34,49,68,90,109,129,148,168,188,210,230,250,270,289,309,329,350,370,390,410,430,449,468,490,509,529,549,568,590,609,630,648,668,690,709,729,748,769,788,809,829,849,869,890,910,929,949,969,988,1009,1029,1048,1069,1090,1109,1129,1149,1169,1189,1210,1230,1250,1269,1289,1308,1329,1349,1369,1389,1409,1429,1450,1469,1489,1508,1530,1550,1569,1590,1609,1628,1649,1669,1689,1709,1729,1748,1769,1789,1810,1829,1850,1869,1889,1908,1929,1950,1969,1989,2009,2028,2050,2070,2089,2109,2129,2150,2169,2190,2210,2229,2249,2270,2289,2309,2330,2349,2368,2388,2409,2429,2449,2469,2488,2510,2529,2549,2569,2589,2609,2629,2649,2670,2689,2710,2728,2749,2770,2788,2809,2830,2850,2868],"xSR":741.5,"ySR":449.15000000000003,"xT1":424.9,"yT1":0,"xT2":1058.1,"yT2":0,"toosoon":0,"cond_shown":"equaldotsize","ratio_trial":900,"smaller_num":"18","larger_num":"20","correct_side":2,"subjID":"Geraldineavilajoaqui5","gender":"1","age":"11","school":"6"},{"start_time":1551791072031,"click_time":1551791072985,"finger_time":1551791072824,"fix_duration":1085.393199016567,"trial":50,"RT":793,"MT":161,"sideResp":2,"stimulus":"img/750/randomdotsizeEA/R/12_Ratio_750_L_3_R_4.png","xmouse":[787,787,788,788,788,788,788,788,788,788,788,788,788,788,788,788,788,788,788,788,788,788,788,788,788,788,788,788,788,788,788,788,788,788,788,788,788,792,797,806,825,850,917,949,985,1017,1067,1103],"ymouse":[488,488,488,488,488,488,488,488,488,488,488,488,488,488,488,488,488,488,488,488,488,488,488,488,488,488,488,488,488,488,488,488,488,488,488,488,487,474,461,443,416,379,293,253,206,170,108,45],"timestamp_mouse":[14,33,55,73,93,115,133,155,174,195,213,234,255,273,293,314,334,354,374,395,414,434,454,474,495,514,534,554,574,594,615,633,655,674,693,714,733,753,773,793,814,834,853,873,894,914,934,954],"xSR":741.5,"ySR":449.15000000000003,"xT1":424.9,"yT1":0,"xT2":1058.1,"yT2":0,"toosoon":0,"cond_shown":"randomdotsizeEA","ratio_trial":750,"smaller_num":"3","larger_num":"4","correct_side":2,"subjID":"Geraldineavilajoaqui5","gender":"1","age":"11","school":"6"},{"start_time":1551791074569,"click_time":1551791075785,"finger_time":1551791075225,"fix_duration":643.9913873701095,"trial":51,"RT":656,"MT":560,"sideResp":1,"stimulus":"img/900/randomdotsizeEA/L/2_Ratio_900_L_20_R_18.png","xmouse":[801,801,801,801,801,801,801,801,801,800,796,796,796,796,795,795,795,795,795,795,795,795,794,794,794,794,794,794,792,792,782,773,763,751,739,722,717,713,713,711,711,705,701,693,682,651,627,604,580,567,542,532,527,526,525,524,522,522,522,522,520],"ymouse":[486,486,486,487,487,487,487,487,487,487,487,487,487,487,487,487,487,487,487,487,487,487,486,485,484,484,484,484,482,481,468,456,442,425,409,380,372,362,360,355,354,341,331,318,301,262,233,202,169,150,121,111,106,105,104,102,100,100,100,100,98],"timestamp_mouse":[26,37,56,77,97,117,135,155,177,197,215,237,255,275,296,316,336,357,377,396,416,437,455,476,496,516,537,556,575,596,616,637,656,676,697,716,736,756,777,797,816,836,856,877,896,916,935,956,976,996,1015,1035,1055,1076,1097,1116,1136,1156,1177,1196,1216],"xSR":741.5,"ySR":449.15000000000003,"xT1":424.9,"yT1":0,"xT2":1058.1,"yT2":0,"toosoon":0,"cond_shown":"randomdotsizeEA","ratio_trial":900,"smaller_num":"18","larger_num":"20","correct_side":1,"subjID":"Geraldineavilajoaqui5","gender":"1","age":"11","school":"6"},{"start_time":1551791077098,"click_time":1551791078045,"finger_time":1551791077745,"fix_duration":430.75197004059186,"trial":52,"RT":647,"MT":300,"sideResp":2,"stimulus":"img/250/randomdotsizeEA/R/6_Ratio_250_L_6_R_24.png","xmouse":[802,797,793,791,789,788,788,788,788,788,788,788,788,788,788,788,788,788,788,788,788,788,788,788,788,788,790,791,793,799,807,820,840,883,932,951,971,986,1002,1027,1032,1036,1039,1043,1051,1053,1058,1067],"ymouse":[489,492,492,493,494,494,494,494,494,494,494,494,494,494,494,494,494,494,494,494,494,494,494,494,494,494,494,494,494,487,476,459,431,375,299,246,193,153,120,80,73,67,65,62,59,58,57,53],"timestamp_mouse":[8,28,48,67,87,107,126,146,167,187,207,227,247,267,286,307,328,348,367,388,408,427,447,466,487,506,527,548,567,586,607,627,647,666,687,707,726,746,766,787,806,827,847,866,887,907,927,947],"xSR":741.5,"ySR":449.15000000000003,"xT1":424.9,"yT1":0,"xT2":1058.1,"yT2":0,"toosoon":0,"cond_shown":"randomdotsizeEA","ratio_trial":250,"smaller_num":"6","larger_num":"24","correct_side":2,"subjID":"Geraldineavilajoaqui5","gender":"1","age":"11","school":"6"},{"start_time":1551791079336,"click_time":1551791080365,"finger_time":1551791080044,"fix_duration":250,"trial":53,"RT":708,"MT":321,"sideResp":1,"stimulus":"img/750/equaldotanddens/L/1_Ratio_750_L_20_R_15.png","xmouse":[763,763,763,763,763,763,763,763,763,763,763,763,763,763,763,763,763,763,763,763,763,764,764,765,765,765,765,765,765,765,765,765,765,759,751,738,723,687,672,658,641,632,613,601,586,571,555,527,518,510,502,495],"ymouse":[497,497,497,497,497,497,497,497,497,497,497,497,497,497,497,497,497,497,497,497,497,497,497,497,497,497,497,497,497,497,497,497,495,486,475,456,436,386,364,345,322,308,284,270,255,239,218,173,153,135,110,95],"timestamp_mouse":[9,33,49,69,89,109,130,148,168,189,208,228,248,269,288,309,330,348,370,388,409,429,450,469,489,510,529,550,570,590,609,629,648,670,690,708,730,748,769,789,809,829,848,869,889,909,929,948,970,989,1009,1029],"xSR":741.5,"ySR":449.15000000000003,"xT1":424.9,"yT1":0,"xT2":1058.1,"yT2":0,"toosoon":0,"cond_shown":"equaldotanddens","ratio_trial":750,"smaller_num":"15","larger_num":"20","correct_side":1,"subjID":"Geraldineavilajoaqui5","gender":"1","age":"11","school":"6"},{"start_time":1551791082286,"click_time":1551791083085,"finger_time":1551791082964,"fix_duration":1201.3123399827516,"trial":54,"RT":678,"MT":121,"sideResp":2,"stimulus":"img/500/equaldotsize/R/15_Ratio_500_L_1_R_2.png","xmouse":[799,799,799,799,799,799,799,799,799,799,799,799,799,799,799,799,799,799,799,799,799,799,799,799,799,799,799,799,799,799,799,799,808,821,863,904,939,973,1008,1062],"ymouse":[489,489,489,489,489,489,489,489,489,489,489,489,489,489,489,489,489,489,489,489,489,489,489,489,489,489,489,489,489,489,486,482,463,434,363,308,256,209,160,81],"timestamp_mouse":[32,39,59,79,98,120,139,158,180,199,219,239,260,278,299,320,339,358,380,398,420,440,460,480,500,520,539,559,580,600,619,639,660,678,699,720,739,759,779,799],"xSR":741.5,"ySR":449.15000000000003,"xT1":424.9,"yT1":0,"xT2":1058.1,"yT2":0,"toosoon":0,"cond_shown":"equaldotsize","ratio_trial":500,"smaller_num":"1","larger_num":"2","correct_side":2,"subjID":"Geraldineavilajoaqui5","gender":"1","age":"11","school":"6"},{"start_time":1551791084272,"click_time":1551791085285,"finger_time":1551791084866,"fix_duration":465.05169153547575,"trial":55,"RT":594,"MT":419,"sideResp":2,"stimulus":"img/250/equaldotanddens/R/11_Ratio_250_L_3_R_12.png","xmouse":[785,785,785,785,785,785,785,785,785,785,785,785,785,785,785,785,785,785,785,785,785,785,785,785,785,787,788,790,793,799,818,830,844,861,888,926,939,947,954,959,972,978,981,988,992,999,1004,1009,1021,1034,1069],"ymouse":[505,504,503,503,503,503,503,503,503,502,500,499,497,496,495,495,495,495,495,493,492,484,480,476,473,470,467,464,458,448,415,391,365,336,295,240,220,202,184,166,140,130,122,114,109,101,97,95,89,84,69],"timestamp_mouse":[16,33,57,73,93,113,133,153,174,193,212,233,254,272,292,313,333,354,372,392,413,433,453,473,492,512,533,552,573,594,613,632,653,674,694,713,733,753,773,792,813,832,853,874,893,912,933,952,973,993,1013],"xSR":741.5,"ySR":449.15000000000003,"xT1":424.9,"yT1":0,"xT2":1058.1,"yT2":0,"toosoon":0,"cond_shown":"equaldotanddens","ratio_trial":250,"smaller_num":"3","larger_num":"12","correct_side":2,"subjID":"Geraldineavilajoaqui5","gender":"1","age":"11","school":"6"},{"start_time":1551791087248,"click_time":1551791089025,"finger_time":1551791088204,"fix_duration":1201.1481476847584,"trial":56,"RT":956,"MT":821,"sideResp":2,"stimulus":"img/750/equaldotsize/R/12_Ratio_750_L_3_R_4.png","xmouse":[800,800,800,800,800,800,800,800,800,800,800,800,800,800,800,800,800,800,800,800,800,800,800,800,800,800,800,800,800,800,800,800,800,800,800,799,799,799,799,799,799,799,799,799,800,802,810,815,817,818,819,819,819,819,819,819,819,819,819,819,819,819,819,819,820,821,839,856,876,898,936,1028,1075,1115,1154,1165,1174,1176,1177,1179,1181,1181,1181,1181,1181,1179,1171,1164,1158],"ymouse":[486,486,486,486,486,486,486,486,486,486,486,486,486,486,486,486,486,486,486,486,486,486,486,486,486,486,486,486,486,486,486,486,485,484,480,479,475,474,474,474,474,474,474,473,471,467,454,448,445,443,442,442,442,442,442,442,442,442,442,442,442,442,442,442,439,439,416,397,373,351,317,246,216,192,162,150,125,116,107,99,92,81,77,74,72,71,69,68,68],"timestamp_mouse":[17,37,57,78,98,117,136,157,177,198,216,236,258,276,297,317,338,357,378,397,416,438,456,477,497,517,538,557,578,598,617,637,657,677,697,718,736,757,777,797,817,836,858,878,897,916,937,956,976,996,1017,1037,1057,1077,1096,1116,1137,1157,1177,1197,1217,1238,1256,1276,1297,1318,1337,1358,1376,1397,1417,1437,1456,1477,1496,1516,1537,1558,1577,1597,1618,1637,1656,1677,1696,1717,1737,1758,1777],"xSR":741.5,"ySR":449.15000000000003,"xT1":424.9,"yT1":0,"xT2":1058.1,"yT2":0,"toosoon":0,"cond_shown":"equaldotsize","ratio_trial":750,"smaller_num":"3","larger_num":"4","correct_side":2,"subjID":"Geraldineavilajoaqui5","gender":"1","age":"11","school":"6"},{"start_time":1551791090266,"click_time":1551791092245,"finger_time":1551791091006,"fix_duration":279.47682240398444,"trial":57,"RT":740,"MT":1239,"sideResp":2,"stimulus":"img/900/equaldotanddens/R/15_Ratio_900_L_9_R_10.png","xmouse":[809,809,809,809,809,809,809,809,809,809,809,809,809,809,809,808,808,807,807,807,807,807,807,807,807,807,807,807,807,807,807,807,806,802,796,787,782,780,778,777,776,776,776,776,776,776,776,779,790,812,873,895,914,933,947,976,988,995,1006,1016,1027,1029,1030,1031,1031,1033,1036,1040,1044,1049,1052,1054,1055,1056,1057,1058,1058,1058,1058,1058,1058,1058,1058,1058,1058,1058,1058,1058,1058,1058,1058,1058,1059,1059,1061,1068,1073,1078,1081],"ymouse":[510,510,510,510,510,510,510,510,510,510,510,510,510,510,510,510,510,510,510,510,510,510,510,509,508,504,501,498,494,491,483,480,475,470,461,450,446,442,439,436,434,432,432,432,432,432,432,431,426,418,394,379,365,346,326,268,244,223,206,189,165,160,157,156,155,150,146,140,136,133,130,129,129,128,126,126,126,126,126,126,126,126,126,126,126,126,126,126,126,126,126,126,125,125,120,109,105,100,97],"timestamp_mouse":[19,39,58,80,98,119,139,158,179,198,219,239,259,278,300,320,340,360,378,399,419,438,458,479,499,519,540,559,579,599,619,638,660,678,699,719,740,758,778,800,820,840,859,879,898,919,940,959,979,998,1018,1039,1059,1079,1099,1119,1138,1158,1179,1198,1219,1239,1259,1279,1298,1319,1339,1360,1380,1400,1420,1440,1458,1479,1499,1519,1540,1559,1579,1599,1620,1639,1660,1680,1699,1718,1740,1759,1780,1799,1819,1839,1860,1878,1899,1919,1939,1959,1978],"xSR":741.5,"ySR":449.15000000000003,"xT1":424.9,"yT1":0,"xT2":1058.1,"yT2":0,"toosoon":0,"cond_shown":"equaldotanddens","ratio_trial":900,"smaller_num":"9","larger_num":"10","correct_side":2,"subjID":"Geraldineavilajoaqui5","gender":"1","age":"11","school":"6"},{"start_time":1551791096818,"click_time":1551791098025,"finger_time":1551791097624,"fix_duration":732.3074753774813,"trial":58,"RT":806,"MT":401,"sideResp":2,"stimulus":"img/900/equaldotanddens/R/14_Ratio_900_L_18_R_20.png","xmouse":[796,793,790,788,787,787,786,786,786,786,786,786,786,786,786,786,786,786,786,786,786,786,786,786,786,786,786,786,786,786,786,786,785,785,785,785,785,785,798,815,845,884,912,930,931,931,931,931,931,932,936,942,948,957,961,968,977,1003,1081,1124,1152],"ymouse":[525,526,525,523,519,517,516,516,516,516,516,516,516,516,516,516,516,516,516,516,516,516,516,516,516,516,516,516,516,516,516,516,516,514,511,508,503,498,475,453,420,382,359,339,336,334,334,334,331,327,320,309,300,284,275,264,251,222,154,117,92],"timestamp_mouse":[7,27,48,66,87,107,127,148,166,186,207,227,248,266,287,307,326,347,367,386,407,427,447,466,487,507,526,548,566,587,608,626,647,667,688,707,728,748,767,787,806,827,848,867,887,907,927,947,967,987,1007,1026,1047,1067,1087,1107,1127,1147,1167,1186,1207],"xSR":741.5,"ySR":449.15000000000003,"xT1":424.9,"yT1":0,"xT2":1058.1,"yT2":0,"toosoon":0,"cond_shown":"equaldotanddens","ratio_trial":900,"smaller_num":"18","larger_num":"20","correct_side":2,"subjID":"Geraldineavilajoaqui5","gender":"1","age":"11","school":"6"},{"start_time":1551791101535,"click_time":1551791103105,"finger_time":1551791102566,"fix_duration":1108.3210419139848,"trial":59,"RT":1031,"MT":539,"sideResp":2,"stimulus":"img/500/equaldotsize/R/2_Ratio_500_L_3_R_6.png","xmouse":[783,783,783,783,783,783,783,783,783,783,783,783,783,783,783,783,783,783,783,783,783,783,783,783,783,783,783,783,783,783,783,783,783,783,783,783,783,783,783,783,783,783,783,783,783,782,782,783,785,792,803,830,850,886,896,903,907,915,918,920,923,935,956,968,980,992,1003,1018,1018,1018,1018,1018,1025,1031,1038,1044,1048,1052,1059],"ymouse":[497,497,497,497,497,497,497,497,497,497,497,497,497,497,497,497,497,497,497,497,497,497,497,497,497,497,497,497,497,497,497,497,497,497,497,497,497,497,497,497,497,497,497,497,497,497,497,496,492,477,454,403,375,331,319,309,304,290,285,280,274,257,222,199,178,156,137,109,100,95,92,90,84,81,78,76,76,74,73],"timestamp_mouse":[9,30,49,71,89,111,130,150,171,190,210,229,250,271,290,311,331,350,369,390,410,429,451,470,489,510,531,549,571,591,609,630,651,669,689,710,731,749,771,790,811,831,850,869,890,910,929,949,970,989,1010,1031,1050,1070,1090,1111,1130,1150,1170,1189,1210,1230,1250,1270,1290,1311,1329,1350,1371,1390,1411,1430,1450,1472,1490,1510,1531,1550,1570],"xSR":741.5,"ySR":449.15000000000003,"xT1":424.9,"yT1":0,"xT2":1058.1,"yT2":0,"toosoon":0,"cond_shown":"equaldotsize","ratio_trial":500,"smaller_num":"3","larger_num":"6","correct_side":2,"subjID":"Geraldineavilajoaqui5","gender":"1","age":"11","school":"6"},{"start_time":1551791104267,"click_time":1551791105285,"finger_time":1551791104925,"fix_duration":339.1440094413132,"trial":60,"RT":658,"MT":360,"sideResp":1,"stimulus":"img/500/equaldotanddens/L/10_Ratio_500_L_4_R_2.png","xmouse":[798,798,798,798,798,798,798,798,798,798,798,798,798,798,798,798,798,798,798,798,798,798,798,798,798,798,798,798,798,798,797,785,769,743,710,652,605,588,578,571,567,560,556,550,544,534,510,499,488,480,473,465],"ymouse":[482,482,482,482,482,482,482,482,482,482,482,482,482,482,482,482,482,482,482,482,482,482,482,482,482,482,482,482,482,482,482,473,459,439,416,369,328,314,304,295,288,271,261,249,235,210,166,149,133,120,110,97],"timestamp_mouse":[1,31,39,58,78,98,119,139,158,178,198,219,238,259,278,298,318,339,359,378,398,418,439,458,480,498,518,538,558,578,599,620,638,658,678,699,718,740,759,778,798,818,838,858,879,898,918,938,958,978,999,1018],"xSR":741.5,"ySR":449.15000000000003,"xT1":424.9,"yT1":0,"xT2":1058.1,"yT2":0,"toosoon":0,"cond_shown":"equaldotanddens","ratio_trial":500,"smaller_num":"2","larger_num":"4","correct_side":1,"subjID":"Geraldineavilajoaqui5","gender":"1","age":"11","school":"6"},{"start_time":1551791106560,"click_time":1551791107926,"finger_time":1551791107485,"fix_duration":514.57783422397,"trial":61,"RT":925,"MT":441,"sideResp":1,"stimulus":"img/900/equaldotsize/L/1_Ratio_900_L_10_R_9.png","xmouse":[807,807,807,807,807,807,807,807,807,807,807,807,807,807,807,807,807,807,807,807,807,807,807,807,807,807,807,807,809,810,810,810,810,810,810,810,810,810,810,810,810,809,807,806,801,795,773,758,741,719,692,641,624,605,587,573,548,536,523,512,503,500,495,494,491,490,487,484,482],"ymouse":[494,494,494,494,494,494,494,494,494,494,494,494,494,494,494,494,494,494,494,494,494,494,494,494,494,494,494,494,494,493,492,492,492,492,492,492,492,492,492,492,491,490,489,488,483,477,446,422,398,362,321,255,236,220,209,200,184,177,171,163,155,150,139,135,130,125,111,103,97],"timestamp_mouse":[8,36,45,66,86,106,125,146,166,186,206,226,247,266,286,305,325,346,365,386,406,426,446,466,486,506,526,545,566,587,605,625,645,665,685,706,725,746,765,786,806,826,846,866,885,906,925,946,965,985,1005,1025,1046,1066,1085,1105,1126,1146,1165,1185,1206,1225,1246,1267,1286,1307,1325,1345,1365],"xSR":741.5,"ySR":449.15000000000003,"xT1":424.9,"yT1":0,"xT2":1058.1,"yT2":0,"toosoon":0,"cond_shown":"equaldotsize","ratio_trial":900,"smaller_num":"9","larger_num":"10","correct_side":1,"subjID":"Geraldineavilajoaqui5","gender":"1","age":"11","school":"6"},{"start_time":1551791111462,"click_time":1551791113106,"finger_time":1551791112626,"fix_duration":1233.901042626498,"trial":62,"RT":1164,"MT":480,"sideResp":2,"stimulus":"img/900/randomdotsizeEA/R/12_Ratio_900_L_18_R_20.png","xmouse":[785,785,785,785,785,785,785,785,785,785,785,785,785,785,785,785,785,785,785,785,785,785,785,785,785,785,785,785,785,785,785,785,785,785,785,785,785,785,785,785,785,785,785,785,785,785,785,785,785,785,784,784,784,784,784,784,788,791,793,795,797,799,801,805,809,825,852,869,884,897,911,924,952,970,983,1007,1022,1039,1041,1043,1045,1051,1059],"ymouse":[484,484,484,484,484,484,484,484,484,484,484,484,484,484,484,484,484,484,484,484,484,484,484,484,484,484,484,484,484,484,484,484,484,484,484,484,484,484,484,484,484,484,484,484,484,484,484,484,484,482,480,475,474,472,471,468,460,456,449,445,440,425,414,400,382,345,290,260,234,215,193,176,145,130,117,98,87,74,73,71,70,68,66],"timestamp_mouse":[8,37,43,65,84,104,123,145,164,183,203,223,244,263,284,303,324,344,363,384,403,423,444,463,484,503,523,544,564,585,604,624,643,663,684,704,724,743,763,783,803,825,843,863,883,904,923,943,963,983,1005,1024,1043,1063,1084,1104,1123,1144,1164,1184,1205,1225,1243,1263,1283,1304,1323,1345,1363,1383,1404,1423,1444,1465,1483,1504,1523,1545,1563,1584,1604,1625,1644],"xSR":741.5,"ySR":449.15000000000003,"xT1":424.9,"yT1":0,"xT2":1058.1,"yT2":0,"toosoon":0,"cond_shown":"randomdotsizeEA","ratio_trial":900,"smaller_num":"18","larger_num":"20","correct_side":2,"subjID":"Geraldineavilajoaqui5","gender":"1","age":"11","school":"6"},{"start_time":1551791115111,"click_time":1551791116185,"finger_time":1551791115986,"fix_duration":1342.2259329404098,"trial":63,"RT":875,"MT":199,"sideResp":2,"stimulus":"img/750/randomdotsizeEA/R/11_Ratio_750_L_12_R_16.png","xmouse":[799,799,799,799,799,799,799,799,799,799,799,799,799,799,799,799,799,799,799,799,799,799,799,799,799,799,799,799,798,798,797,795,794,792,792,792,792,792,792,792,792,799,808,879,911,932,946,955,972,981,993,1009,1031,1060],"ymouse":[497,497,497,497,497,497,497,497,497,497,497,497,498,499,499,499,499,499,499,499,499,499,499,499,499,499,499,499,497,494,488,484,480,476,476,476,476,476,476,475,474,464,457,346,285,239,206,186,160,152,141,131,115,97],"timestamp_mouse":[14,36,54,74,95,114,134,154,174,196,214,235,254,275,295,315,334,354,374,394,414,435,455,475,495,516,534,555,575,594,614,634,654,675,694,714,734,754,774,795,816,834,854,875,894,914,934,954,975,996,1014,1034,1056,1074],"xSR":741.5,"ySR":449.15000000000003,"xT1":424.9,"yT1":0,"xT2":1058.1,"yT2":0,"toosoon":0,"cond_shown":"randomdotsizeEA","ratio_trial":750,"smaller_num":"12","larger_num":"16","correct_side":2,"subjID":"Geraldineavilajoaqui5","gender":"1","age":"11","school":"6"},{"start_time":1551791118004,"click_time":1551791120285,"finger_time":1551791119046,"fix_duration":917.3386695559718,"trial":64,"RT":1042,"MT":1239,"sideResp":1,"stimulus":"img/900/equaldotanddens/L/4_Ratio_900_L_20_R_18.png","xmouse":[778,778,778,778,778,778,778,778,778,778,778,778,778,778,778,778,778,778,779,781,781,781,781,781,781,781,781,781,781,779,779,778,778,778,778,778,778,778,778,778,778,775,771,765,759,758,758,758,758,756,751,743,732,720,690,672,657,643,629,593,576,558,542,526,502,497,494,492,490,489,489,489,489,489,489,489,489,489,489,490,490,491,492,493,494,495,495,496,496,496,496,497,497,497,497,497,498,498,499,499,501,501,501,502,503,503,504,505,505,505,506,506,507,507,507],"ymouse":[509,509,509,509,509,509,509,509,509,509,509,509,509,509,509,509,509,505,502,497,497,497,497,497,497,497,497,496,496,495,495,494,494,494,494,494,494,494,494,494,494,494,494,493,492,492,492,492,492,490,486,478,467,455,420,404,390,376,360,308,285,264,246,230,208,204,201,199,195,187,182,178,176,174,173,172,172,169,169,166,163,161,159,156,152,151,149,149,148,145,144,142,140,140,138,136,135,133,130,126,124,121,121,