[{"start_time":1551790011783,"click_time":1551790013166,"finger_time":1551790011787,"fix_duration":993.5923191282525,"trial":0,"RT":4,"MT":1379,"sideResp":2,"stimulus":[],"xmouse":[745,741,739,739,739,739,739,739,739,742,744,749,751,752,752,752,752,753,754,760,763,769,772,774,775,775,776,776,776,776,777,777,778,778,778,778,778,778,778,778,778,778,778,778,778,778,778,778,778,778,778,778,783,792,803,820,856,879,904,936,966,1032,1047,1059,1068,1075,1087,1090,1091,1091],"ymouse":[439,460,472,480,486,487,487,488,488,494,499,509,514,514,514,514,514,514,515,516,518,520,522,524,525,528,532,532,532,532,533,533,534,534,534,534,534,534,534,534,534,534,534,534,534,534,534,534,534,534,534,534,533,530,526,518,499,480,456,423,384,290,266,239,213,187,135,118,107,99],"timestamp_mouse":[4,21,42,61,83,102,121,141,161,181,201,221,241,261,281,301,322,341,361,381,401,421,441,462,481,502,521,541,561,582,601,621,641,661,682,703,722,741,762,783,801,821,841,862,882,901,921,942,962,981,1001,1021,1041,1062,1081,1101,1121,1141,1161,1181,1202,1221,1241,1261,1282,1301,1321,1342,1361,1383],"xSR":741.5,"ySR":481,"xT1":424.9,"yT1":0,"xT2":1058.1,"yT2":0,"toosoon":0,"cond_shown":"Incongruent","ratio_trial":100,"L_num":12,"L_den":30,"R_num":2,"R_den":4,"correct_side":2,"subjID":"Geraldineavilajoaqui5","gender":"1","age":"11","school":"6","test":{"fix_dur":[250,1500],"timestim":1000,"targets_dim":[100,100],"targets_relative_coord":[0.3,0.7],"size_stim":[880,420],"start_dim":[100,100],"size_start":[300,300],"size_fix":60,"samplingrate":20,"img_types":["Congruent","Incongruent"],"ratios":[100,200,300],"rep_conds":19,"nTrials":120,"trials_to_rest":500,"Trials_order":[13,68,94,117,58,7,44,38,43,18,20,71,99,60,108,34,74,16,95,63,55,111,29,32,73,1,107,75,5,12,77,46,82,106,22,109,40,70,3,28,98,50,80,51,2,101,56,27,115,19,48,64,57,78,118,112,100,91,62,87,89,15,25,6,8,47,69,41,37,84,90,30,85,45,93,61,31,104,88,24,67,39,49,65,110,59,79,17,92,14,119,114,81,52,86,116,76,105,102,26,96,66,42,23,0,97,11,35,36,53,103,113,9,10,21,72,4,54,33,83],"cond_shown":["Incongruent","Congruent","Congruent","Incongruent","Congruent","Incongruent","Congruent","Congruent","Incongruent","Congruent","Congruent","Incongruent","Incongruent","Congruent","Congruent","Congruent","Congruent","Congruent","Incongruent","Incongruent","Incongruent","Incongruent","Incongruent","Congruent","Incongruent","Incongruent","Incongruent","Incongruent","Incongruent","Congruent","Incongruent","Congruent","Congruent","Congruent","Congruent","Incongruent","Congruent","Congruent","Incongruent","Congruent","Congruent","Congruent","Congruent","Incongruent","Congruent","Incongruent","Congruent","Incongruent","Incongruent","Incongruent","Congruent","Congruent","Incongruent","Congruent","Congruent","Congruent","Congruent","Incongruent","Congruent","Incongruent","Incongruent","Incongruent","Incongruent","Congruent","Congruent","Incongruent","Incongruent","Incongruent","Incongruent","Congruent","Congruent","Congruent","Incongruent","Incongruent","Incongruent","Incongruent","Incongruent","Congruent","Congruent","Congruent","Incongruent","Incongruent","Incongruent","Incongruent","Congruent","Incongruent","Incongruent","Incongruent","Congruent","Congruent","Incongruent","Congruent","Incongruent","Congruent","Congruent","Congruent","Congruent","Incongruent","Congruent","Congruent","Congruent","Congruent","Congruent","Incongruent","Congruent","Incongruent","Incongruent","Incongruent","Congruent","Incongruent","Incongruent","Incongruent","Incongruent","Congruent","Incongruent","Congruent","Congruent","Congruent","Incongruent","Incongruent"],"ratio_trial":[100,200,300,200,300,100,200,200,100,100,200,300,200,100,100,300,200,300,300,200,100,200,300,200,100,100,300,200,300,100,300,300,300,300,300,100,300,300,200,300,200,200,200,200,200,300,200,200,100,100,100,300,200,100,300,300,300,100,200,200,300,200,100,100,200,300,200,300,100,100,100,100,100,200,200,100,100,200,300,100,100,200,100,300,200,300,100,300,200,200,300,100,200,300,200,200,300,200,100,200,100,100,100,300,100,100,300,300,100,300,100,300,200,300,200,100,300,100,200,300],"left_num":[12,6,1,14,20,8,3,3,9,1,13,13,7,10,3,9,7,7,13,1,1,7,4,16,9,12,4,7,3,2,13,5,1,20,1,13,4,4,14,20,8,6,16,1,21,4,6,1,10,10,3,5,4,1,1,20,5,12,4,7,1,7,6,8,5,4,7,4,13,1,11,11,11,14,4,12,11,4,1,7,8,3,9,4,8,1,3,13,6,4,4,6,4,1,3,1,20,9,3,4,4,2,9,7,6,6,13,8,3,1,1,2,3,3,7,2,4,15,3,4],"right_num":[2,7,3,12,13,6,9,14,13,18,14,12,6,3,4,3,18,20,12,2,8,4,2,12,13,9,2,14,4,6,12,7,19,8,6,12,1,1,12,5,7,11,12,3,2,2,11,2,8,9,2,7,6,3,6,9,6,2,3,8,3,8,11,2,14,2,12,2,12,18,6,4,9,12,1,2,9,3,3,15,1,1,6,6,3,2,11,12,11,3,6,15,6,11,14,21,14,8,2,3,15,6,8,8,15,13,12,14,2,2,8,6,11,4,4,6,13,13,11,6],"left_den":[30,12,5,30,25,16,12,6,15,2,26,26,15,25,20,10,15,14,26,3,2,15,20,20,15,24,20,10,6,5,26,25,3,25,5,26,10,10,30,25,15,20,20,2,30,20,20,3,25,25,6,25,5,2,5,25,25,30,10,10,2,10,10,16,10,20,10,20,26,2,22,22,22,30,30,30,22,10,5,14,20,10,18,5,15,2,5,26,20,10,5,12,5,5,10,2,25,15,6,8,10,5,15,10,12,10,26,10,6,2,2,4,4,6,15,5,20,25,4,5],"right_den":[4,10,6,18,26,10,20,20,26,30,20,15,9,10,16,5,27,25,15,15,20,6,4,20,26,15,4,28,20,12,15,14,30,16,12,20,10,10,18,10,21,22,20,10,4,4,22,15,16,18,5,14,10,5,12,18,12,4,15,16,15,16,22,5,20,4,24,4,20,30,15,10,15,18,3,4,15,15,6,25,2,2,10,12,9,10,22,15,22,15,12,25,10,22,28,30,28,10,5,10,30,12,16,20,25,26,15,28,5,10,20,30,20,5,6,12,26,26,20,12],"correct_side":[2,2,2,2,1,2,2,2,1,2,2,2,2,1,2,1,2,2,2,1,1,2,2,1,1,2,2,1,1,2,2,2,2,1,2,2,1,1,2,1,1,2,1,1,1,2,2,1,2,2,1,2,1,2,2,1,2,2,1,1,1,1,1,1,2,2,1,2,2,2,1,1,2,2,2,2,2,1,2,2,2,2,2,1,1,1,1,2,2,1,1,2,1,2,2,2,1,2,1,1,2,2,1,1,2,1,2,1,1,1,1,1,1,2,2,2,2,1,1,1],"img_shown":["img2/100/Incongruent/R/I_Dist_100_LN_12_LD_30_RN_2_RD_4_1.png","img2/200/Congruent/R/C_Dist_200_LN_6_LD_12_RN_7_RD_10_1.png","img2/300/Congruent/R/C_Dist_300_LN_1_LD_5_RN_3_RD_6_1.png","img2/200/Incongruent/R/I_Dist_200_LN_14_LD_30_RN_12_RD_18_1.png","img2/300/Congruent/L/C_Dist_300_LN_20_LD_25_RN_13_RD_26_0.png","img2/100/Incongruent/R/I_Dist_100_LN_8_LD_16_RN_6_RD_10_1.png","img2/200/Congruent/R/C_Dist_200_LN_3_LD_12_RN_9_RD_20_1.png","img2/200/Congruent/R/C_Dist_200_LN_3_LD_6_RN_14_RD_20_1.png","img2/100/Incongruent/L/I_Dist_100_LN_9_LD_15_RN_13_RD_26_0.png","img2/100/Congruent/R/C_Dist_100_LN_1_LD_2_RN_18_RD_30_1.png","img2/200/Congruent/R/C_Dist_200_LN_13_LD_26_RN_14_RD_20_1.png","img2/300/Incongruent/R/I_Dist_300_LN_13_LD_26_RN_12_RD_15_1.png","img2/200/Incongruent/R/I_Dist_200_LN_7_LD_15_RN_6_RD_9_1.png","img2/100/Congruent/L/C_Dist_100_LN_10_LD_25_RN_3_RD_10_0.png","img2/100/Congruent/R/C_Dist_100_LN_3_LD_20_RN_4_RD_16_1.png","img2/300/Congruent/L/C_Dist_300_LN_9_LD_10_RN_3_RD_5_0.png","img2/200/Congruent/R/C_Dist_200_LN_7_LD_15_RN_18_RD_27_1.png","img2/300/Congruent/R/C_Dist_300_LN_7_LD_14_RN_20_RD_25_1.png","img2/300/Incongruent/R/I_Dist_300_LN_13_LD_26_RN_12_RD_15_1.png","img2/200/Incongruent/L/I_Dist_200_LN_1_LD_3_RN_2_RD_15_0.png","img2/100/Incongruent/L/I_Dist_100_LN_1_LD_2_RN_8_RD_20_0.png","img2/200/Incongruent/R/I_Dist_200_LN_7_LD_15_RN_4_RD_6_1.png","img2/300/Incongruent/R/I_Dist_300_LN_4_LD_20_RN_2_RD_4_1.png","img2/200/Congruent/L/C_Dist_200_LN_16_LD_20_RN_12_RD_20_0.png","img2/100/Incongruent/L/I_Dist_100_LN_9_LD_15_RN_13_RD_26_0.png","img2/100/Incongruent/R/I_Dist_100_LN_12_LD_24_RN_9_RD_15_1.png","img2/300/Incongruent/R/I_Dist_300_LN_4_LD_20_RN_2_RD_4_1.png","img2/200/Incongruent/L/I_Dist_200_LN_7_LD_10_RN_14_RD_28_0.png","img2/300/Incongruent/L/I_Dist_300_LN_3_LD_6_RN_4_RD_20_0.png","img2/100/Congruent/R/C_Dist_100_LN_2_LD_5_RN_6_RD_12_1.png","img2/300/Incongruent/R/I_Dist_300_LN_13_LD_26_RN_12_RD_15_1.png","img2/300/Congruent/R/C_Dist_300_LN_5_LD_25_RN_7_RD_14_1.png","img2/300/Congruent/R/C_Dist_300_LN_1_LD_3_RN_19_RD_30_1.png","img2/300/Congruent/L/C_Dist_300_LN_20_LD_25_RN_8_RD_16_0.png","img2/300/Congruent/R/C_Dist_300_LN_1_LD_5_RN_6_RD_12_1.png","img2/100/Incongruent/R/I_Dist_100_LN_13_LD_26_RN_12_RD_20_1.png","img2/300/Congruent/L/C_Dist_300_LN_4_LD_10_RN_1_RD_10_0.png","img2/300/Congruent/L/C_Dist_300_LN_4_LD_10_RN_1_RD_10_0.png","img2/200/Incongruent/R/I_Dist_200_LN_14_LD_30_RN_12_RD_18_1.png","img2/300/Congruent/L/C_Dist_300_LN_20_LD_25_RN_5_RD_10_0.png","img2/200/Congruent/L/C_Dist_200_LN_8_LD_15_RN_7_RD_21_0.png","img2/200/Congruent/R/C_Dist_200_LN_6_LD_20_RN_11_RD_22_1.png","img2/200/Congruent/L/C_Dist_200_LN_16_LD_20_RN_12_RD_20_0.png","img2/200/Incongruent/L/I_Dist_200_LN_1_LD_2_RN_3_RD_10_0.png","img2/200/Congruent/L/C_Dist_200_LN_21_LD_30_RN_2_RD_4_0.png","img2/300/Incongruent/R/I_Dist_300_LN_4_LD_20_RN_2_RD_4_1.png","img2/200/Congruent/R/C_Dist_200_LN_6_LD_20_RN_11_RD_22_1.png","img2/200/Incongruent/L/I_Dist_200_LN_1_LD_3_RN_2_RD_15_0.png","img2/100/Incongruent/R/I_Dist_100_LN_10_LD_25_RN_8_RD_16_1.png","img2/100/Incongruent/R/I_Dist_100_LN_10_LD_25_RN_9_RD_18_1.png","img2/100/Congruent/L/C_Dist_100_LN_3_LD_6_RN_2_RD_5_0.png","img2/300/Congruent/R/C_Dist_300_LN_5_LD_25_RN_7_RD_14_1.png","img2/200/Incongruent/L/I_Dist_200_LN_4_LD_5_RN_6_RD_10_0.png","img2/100/Congruent/R/C_Dist_100_LN_1_LD_2_RN_3_RD_5_1.png","img2/300/Congruent/R/C_Dist_300_LN_1_LD_5_RN_6_RD_12_1.png","img2/300/Congruent/L/C_Dist_300_LN_20_LD_25_RN_9_RD_18_0.png","img2/300/Congruent/R/C_Dist_300_LN_5_LD_25_RN_6_RD_12_1.png","img2/100/Incongruent/R/I_Dist_100_LN_12_LD_30_RN_2_RD_4_1.png","img2/200/Congruent/L/C_Dist_200_LN_4_LD_10_RN_3_RD_15_0.png","img2/200/Incongruent/L/I_Dist_200_LN_7_LD_10_RN_8_RD_16_0.png","img2/300/Incongruent/L/I_Dist_300_LN_1_LD_2_RN_3_RD_15_0.png","img2/200/Incongruent/L/I_Dist_200_LN_7_LD_10_RN_8_RD_16_0.png","img2/100/Incongruent/L/I_Dist_100_LN_6_LD_10_RN_11_RD_22_0.png","img2/100/Congruent/L/C_Dist_100_LN_8_LD_16_RN_2_RD_5_0.png","img2/200/Congruent/R/C_Dist_200_LN_5_LD_10_RN_14_RD_20_1.png","img2/300/Incongruent/R/I_Dist_300_LN_4_LD_20_RN_2_RD_4_1.png","img2/200/Incongruent/L/I_Dist_200_LN_7_LD_10_RN_12_RD_24_0.png","img2/300/Incongruent/R/I_Dist_300_LN_4_LD_20_RN_2_RD_4_1.png","img2/100/Incongruent/R/I_Dist_100_LN_13_LD_26_RN_12_RD_20_1.png","img2/100/Congruent/R/C_Dist_100_LN_1_LD_2_RN_18_RD_30_1.png","img2/100/Congruent/L/C_Dist_100_LN_11_LD_22_RN_6_RD_15_0.png","img2/100/Congruent/L/C_Dist_100_LN_11_LD_22_RN_4_RD_10_0.png","img2/100/Incongruent/R/I_Dist_100_LN_11_LD_22_RN_9_RD_15_1.png","img2/200/Incongruent/R/I_Dist_200_LN_14_LD_30_RN_12_RD_18_1.png","img2/200/Incongruent/R/I_Dist_200_LN_4_LD_30_RN_1_RD_3_1.png","img2/100/Incongruent/R/I_Dist_100_LN_12_LD_30_RN_2_RD_4_1.png","img2/100/Incongruent/R/I_Dist_100_LN_11_LD_22_RN_9_RD_15_1.png","img2/200/Congruent/L/C_Dist_200_LN_4_LD_10_RN_3_RD_15_0.png","img2/300/Congruent/R/C_Dist_300_LN_1_LD_5_RN_3_RD_6_1.png","img2/100/Congruent/R/C_Dist_100_LN_7_LD_14_RN_15_RD_25_1.png","img2/100/Incongruent/R/I_Dist_100_LN_8_LD_20_RN_1_RD_2_1.png","img2/200/Incongruent/R/I_Dist_200_LN_3_LD_10_RN_1_RD_2_1.png","img2/100/Incongruent/R/I_Dist_100_LN_9_LD_18_RN_6_RD_10_1.png","img2/300/Incongruent/L/I_Dist_300_LN_4_LD_5_RN_6_RD_12_0.png","img2/200/Congruent/L/C_Dist_200_LN_8_LD_15_RN_3_RD_9_0.png","img2/300/Incongruent/L/I_Dist_300_LN_1_LD_2_RN_2_RD_10_0.png","img2/100/Incongruent/L/I_Dist_100_LN_3_LD_5_RN_11_RD_22_0.png","img2/300/Incongruent/R/I_Dist_300_LN_13_LD_26_RN_12_RD_15_1.png","img2/200/Congruent/R/C_Dist_200_LN_6_LD_20_RN_11_RD_22_1.png","img2/200/Congruent/L/C_Dist_200_LN_4_LD_10_RN_3_RD_15_0.png","img2/300/Incongruent/L/I_Dist_300_LN_4_LD_5_RN_6_RD_12_0.png","img2/100/Congruent/R/C_Dist_100_LN_6_LD_12_RN_15_RD_25_1.png","img2/200/Incongruent/L/I_Dist_200_LN_4_LD_5_RN_6_RD_10_0.png","img2/300/Congruent/R/C_Dist_300_LN_1_LD_5_RN_11_RD_22_1.png","img2/200/Congruent/R/C_Dist_200_LN_3_LD_10_RN_14_RD_28_1.png","img2/200/Congruent/R/C_Dist_200_LN_1_LD_2_RN_21_RD_30_1.png","img2/300/Congruent/L/C_Dist_300_LN_20_LD_25_RN_14_RD_28_0.png","img2/200/Incongruent/R/I_Dist_200_LN_9_LD_15_RN_8_RD_10_1.png","img2/100/Congruent/L/C_Dist_100_LN_3_LD_6_RN_2_RD_5_0.png","img2/200/Congruent/L/C_Dist_200_LN_4_LD_8_RN_3_RD_10_0.png","img2/100/Congruent/R/C_Dist_100_LN_4_LD_10_RN_15_RD_30_1.png","img2/100/Congruent/R/C_Dist_100_LN_2_LD_5_RN_6_RD_12_1.png","img2/100/Congruent/L/C_Dist_100_LN_9_LD_15_RN_8_RD_16_0.png","img2/300/Incongruent/L/I_Dist_300_LN_7_LD_10_RN_8_RD_20_0.png","img2/100/Congruent/R/C_Dist_100_LN_6_LD_12_RN_15_RD_25_1.png","img2/100/Incongruent/L/I_Dist_100_LN_6_LD_10_RN_13_RD_26_0.png","img2/300/Incongruent/R/I_Dist_300_LN_13_LD_26_RN_12_RD_15_1.png","img2/300/Incongruent/L/I_Dist_300_LN_8_LD_10_RN_14_RD_28_0.png","img2/100/Congruent/L/C_Dist_100_LN_3_LD_6_RN_2_RD_5_0.png","img2/300/Incongruent/L/I_Dist_300_LN_1_LD_2_RN_2_RD_10_0.png","img2/100/Incongruent/L/I_Dist_100_LN_1_LD_2_RN_8_RD_20_0.png","img2/300/Incongruent/L/I_Dist_300_LN_2_LD_4_RN_6_RD_30_0.png","img2/200/Incongruent/L/I_Dist_200_LN_3_LD_4_RN_11_RD_20_0.png","img2/300/Congruent/R/C_Dist_300_LN_3_LD_6_RN_4_RD_5_1.png","img2/200/Incongruent/R/I_Dist_200_LN_7_LD_15_RN_4_RD_6_1.png","img2/100/Congruent/R/C_Dist_100_LN_2_LD_5_RN_6_RD_12_1.png","img2/300/Congruent/R/C_Dist_300_LN_4_LD_20_RN_13_RD_26_1.png","img2/100/Congruent/L/C_Dist_100_LN_15_LD_25_RN_13_RD_26_0.png","img2/200/Incongruent/L/I_Dist_200_LN_3_LD_4_RN_11_RD_20_0.png","img2/300/Incongruent/L/I_Dist_300_LN_4_LD_5_RN_6_RD_12_0.png"],"dist100_C":[["C_Dist_100_LN_10_LD_25_RN_3_RD_10_0.png","C_Dist_100_LN_11_LD_22_RN_4_RD_10_0.png","C_Dist_100_LN_11_LD_22_RN_6_RD_15_0.png","C_Dist_100_LN_15_LD_25_RN_13_RD_26_0.png","C_Dist_100_LN_3_LD_6_RN_2_RD_5_0.png","C_Dist_100_LN_6_LD_20_RN_5_RD_25_0.png","C_Dist_100_LN_8_LD_16_RN_2_RD_5_0.png","C_Dist_100_LN_9_LD_15_RN_8_RD_16_0.png"],["C_Dist_100_LN_1_LD_2_RN_18_RD_30_1.png","C_Dist_100_LN_1_LD_2_RN_3_RD_5_1.png","C_Dist_100_LN_12_LD_30_RN_13_RD_26_1.png","C_Dist_100_LN_2_LD_5_RN_11_RD_22_1.png","C_Dist_100_LN_2_LD_5_RN_6_RD_12_1.png","C_Dist_100_LN_3_LD_20_RN_4_RD_16_1.png","C_Dist_100_LN_4_LD_10_RN_15_RD_30_1.png","C_Dist_100_LN_4_LD_8_RN_6_RD_10_1.png","C_Dist_100_LN_6_LD_12_RN_15_RD_25_1.png","C_Dist_100_LN_7_LD_14_RN_15_RD_25_1.png","C_Dist_100_LN_7_LD_14_RN_9_RD_15_1.png"]],"dist100_I":[["I_Dist_100_LN_1_LD_2_RN_8_RD_20_0.png","I_Dist_100_LN_2_LD_4_RN_6_RD_15_0.png","I_Dist_100_LN_2_LD_4_RN_8_RD_20_0.png","I_Dist_100_LN_3_LD_5_RN_11_RD_22_0.png","I_Dist_100_LN_3_LD_5_RN_8_RD_16_0.png","I_Dist_100_LN_3_LD_6_RN_4_RD_10_0.png","I_Dist_100_LN_3_LD_9_RN_7_RD_30_0.png","I_Dist_100_LN_4_LD_8_RN_8_RD_20_0.png","I_Dist_100_LN_6_LD_10_RN_11_RD_22_0.png","I_Dist_100_LN_6_LD_10_RN_13_RD_26_0.png","I_Dist_100_LN_6_LD_10_RN_7_RD_14_0.png","I_Dist_100_LN_9_LD_10_RN_20_RD_25_0.png","I_Dist_100_LN_9_LD_15_RN_13_RD_26_0.png","I_Dist_100_LN_9_LD_15_RN_14_RD_28_0.png"],["I_Dist_100_LN_10_LD_25_RN_8_RD_16_1.png","I_Dist_100_LN_10_LD_25_RN_9_RD_18_1.png","I_Dist_100_LN_11_LD_22_RN_9_RD_15_1.png","I_Dist_100_LN_12_LD_24_RN_9_RD_15_1.png","I_Dist_100_LN_12_LD_30_RN_2_RD_4_1.png","I_Dist_100_LN_13_LD_26_RN_12_RD_20_1.png","I_Dist_100_LN_13_LD_26_RN_6_RD_10_1.png","I_Dist_100_LN_17_LD_30_RN_10_RD_15_1.png","I_Dist_100_LN_6_LD_12_RN_3_RD_5_1.png","I_Dist_100_LN_8_LD_16_RN_6_RD_10_1.png","I_Dist_100_LN_8_LD_20_RN_1_RD_2_1.png","I_Dist_100_LN_9_LD_18_RN_6_RD_10_1.png"]],"dist100_S":[["E_Dist_100_LN_2_LD_12_RN_2_RD_30_0.png","E_Dist_100_LN_6_LD_10_RN_6_RD_12_0.png"],["E_Dist_100_LN_6_LD_12_RN_6_RD_10_1.png"]],"dist200_C":[["C_Dist_200_LN_11_LD_22_RN_3_RD_10_0.png","C_Dist_200_LN_12_LD_15_RN_6_RD_10_0.png","C_Dist_200_LN_12_LD_20_RN_6_RD_15_0.png","C_Dist_200_LN_14_LD_28_RN_6_RD_20_0.png","C_Dist_200_LN_15_LD_25_RN_4_RD_10_0.png","C_Dist_200_LN_16_LD_20_RN_12_RD_20_0.png","C_Dist_200_LN_16_LD_30_RN_9_RD_27_0.png","C_Dist_200_LN_20_LD_25_RN_9_RD_15_0.png","C_Dist_200_LN_21_LD_30_RN_2_RD_4_0.png","C_Dist_200_LN_4_LD_10_RN_3_RD_15_0.png","C_Dist_200_LN_4_LD_8_RN_3_RD_10_0.png","C_Dist_200_LN_6_LD_15_RN_3_RD_15_0.png","C_Dist_200_LN_7_LD_21_RN_2_RD_15_0.png","C_Dist_200_LN_8_LD_15_RN_2_RD_6_0.png","C_Dist_200_LN_8_LD_15_RN_3_RD_9_0.png","C_Dist_200_LN_8_LD_15_RN_7_RD_21_0.png","C_Dist_200_LN_9_LD_20_RN_4_RD_16_0.png"],["C_Dist_200_LN_1_LD_2_RN_21_RD_30_1.png","C_Dist_200_LN_13_LD_26_RN_14_RD_20_1.png","C_Dist_200_LN_3_LD_10_RN_11_RD_22_1.png","C_Dist_200_LN_3_LD_10_RN_14_RD_28_1.png","C_Dist_200_LN_3_LD_10_RN_7_RD_14_1.png","C_Dist_200_LN_3_LD_12_RN_9_RD_20_1.png","C_Dist_200_LN_3_LD_6_RN_14_RD_20_1.png","C_Dist_200_LN_5_LD_10_RN_14_RD_20_1.png","C_Dist_200_LN_6_LD_12_RN_7_RD_10_1.png","C_Dist_200_LN_6_LD_20_RN_11_RD_22_1.png","C_Dist_200_LN_7_LD_15_RN_18_RD_27_1.png","C_Dist_200_LN_9_LD_30_RN_13_RD_26_1.png"]],"dist200_I":[["I_Dist_200_LN_1_LD_2_RN_3_RD_10_0.png","I_Dist_200_LN_1_LD_3_RN_2_RD_15_0.png","I_Dist_200_LN_3_LD_4_RN_11_RD_20_0.png","I_Dist_200_LN_4_LD_5_RN_6_RD_10_0.png","I_Dist_200_LN_4_LD_6_RN_14_RD_30_0.png","I_Dist_200_LN_7_LD_10_RN_12_RD_24_0.png","I_Dist_200_LN_7_LD_10_RN_14_RD_28_0.png","I_Dist_200_LN_7_LD_10_RN_8_RD_16_0.png"],["I_Dist_200_LN_11_LD_20_RN_3_RD_4_1.png","I_Dist_200_LN_14_LD_30_RN_12_RD_18_1.png","I_Dist_200_LN_14_LD_30_RN_6_RD_9_1.png","I_Dist_200_LN_3_LD_10_RN_1_RD_2_1.png","I_Dist_200_LN_4_LD_30_RN_1_RD_3_1.png","I_Dist_200_LN_6_LD_20_RN_3_RD_6_1.png","I_Dist_200_LN_7_LD_15_RN_4_RD_6_1.png","I_Dist_200_LN_7_LD_15_RN_6_RD_9_1.png","I_Dist_200_LN_9_LD_15_RN_8_RD_10_1.png"]],"dist200_S":[["E_Dist_200_LN_3_LD_6_RN_3_RD_10_0.png"],["E_Dist_200_LN_3_LD_10_RN_3_RD_6_1.png"]],"dist300_C":[["C_Dist_300_LN_11_LD_22_RN_1_RD_5_0.png","C_Dist_300_LN_11_LD_22_RN_2_RD_10_0.png","C_Dist_300_LN_11_LD_22_RN_4_RD_20_0.png","C_Dist_300_LN_12_LD_24_RN_2_RD_10_0.png","C_Dist_300_LN_18_LD_20_RN_9_RD_15_0.png","C_Dist_300_LN_20_LD_25_RN_13_RD_26_0.png","C_Dist_300_LN_20_LD_25_RN_14_RD_28_0.png","C_Dist_300_LN_20_LD_25_RN_5_RD_10_0.png","C_Dist_300_LN_20_LD_25_RN_8_RD_16_0.png","C_Dist_300_LN_20_LD_25_RN_9_RD_18_0.png","C_Dist_300_LN_24_LD_30_RN_2_RD_4_0.png","C_Dist_300_LN_24_LD_30_RN_8_RD_16_0.png","C_Dist_300_LN_3_LD_6_RN_2_RD_10_0.png","C_Dist_300_LN_4_LD_10_RN_1_RD_10_0.png","C_Dist_300_LN_4_LD_5_RN_2_RD_4_0.png","C_Dist_300_LN_8_LD_16_RN_1_RD_5_0.png","C_Dist_300_LN_9_LD_10_RN_3_RD_5_0.png"],["C_Dist_300_LN_1_LD_20_RN_7_RD_20_1.png","C_Dist_300_LN_1_LD_3_RN_19_RD_30_1.png","C_Dist_300_LN_1_LD_30_RN_8_RD_24_1.png","C_Dist_300_LN_1_LD_5_RN_11_RD_22_1.png","C_Dist_300_LN_1_LD_5_RN_3_RD_6_1.png","C_Dist_300_LN_1_LD_5_RN_6_RD_12_1.png","C_Dist_300_LN_2_LD_10_RN_12_RD_24_1.png","C_Dist_300_LN_2_LD_20_RN_10_RD_25_1.png","C_Dist_300_LN_3_LD_12_RN_11_RD_20_1.png","C_Dist_300_LN_3_LD_6_RN_4_RD_5_1.png","C_Dist_300_LN_4_LD_20_RN_13_RD_26_1.png","C_Dist_300_LN_5_LD_25_RN_6_RD_12_1.png","C_Dist_300_LN_5_LD_25_RN_7_RD_14_1.png","C_Dist_300_LN_7_LD_14_RN_20_RD_25_1.png","C_Dist_300_LN_8_LD_15_RN_10_RD_12_1.png"]],"dist300_I":[["I_Dist_300_LN_1_LD_2_RN_2_RD_10_0.png","I_Dist_300_LN_1_LD_2_RN_3_RD_15_0.png","I_Dist_300_LN_2_LD_4_RN_6_RD_30_0.png","I_Dist_300_LN_3_LD_6_RN_4_RD_20_0.png","I_Dist_300_LN_4_LD_5_RN_6_RD_12_0.png","I_Dist_300_LN_4_LD_5_RN_8_RD_16_0.png","I_Dist_300_LN_7_LD_10_RN_8_RD_20_0.png","I_Dist_300_LN_8_LD_10_RN_14_RD_28_0.png","I_Dist_300_LN_8_LD_10_RN_9_RD_18_0.png"],["I_Dist_300_LN_13_LD_26_RN_12_RD_15_1.png","I_Dist_300_LN_4_LD_20_RN_2_RD_4_1.png"]],"dist300_S":[["E_Dist_300_LN_9_LD_12_RN_9_RD_20_0.png"],["E_Dist_300_LN_18_LD_30_RN_18_RD_20_1.png","E_Dist_300_LN_3_LD_10_RN_3_RD_5_1.png","E_Dist_300_LN_9_LD_20_RN_9_RD_12_1.png"]],"dist500_C":[["C_Dist_500_LN_10_LD_13_RN_7_RD_26_0.png","C_Dist_500_LN_10_LD_15_RN_4_RD_24_0.png","C_Dist_500_LN_12_LD_16_RN_3_RD_12_0.png","C_Dist_500_LN_12_LD_18_RN_4_RD_24_0.png","C_Dist_500_LN_15_LD_18_RN_5_RD_15_0.png","C_Dist_500_LN_15_LD_20_RN_1_RD_4_0.png","C_Dist_500_LN_18_LD_27_RN_1_RD_6_0.png","C_Dist_500_LN_20_LD_24_RN_1_RD_3_0.png","C_Dist_500_LN_20_LD_24_RN_3_RD_9_0.png","C_Dist_500_LN_20_LD_24_RN_7_RD_21_0.png","C_Dist_500_LN_20_LD_28_RN_3_RD_14_0.png","C_Dist_500_LN_21_LD_28_RN_6_RD_24_0.png","C_Dist_500_LN_22_LD_28_RN_2_RD_7_0.png","C_Dist_500_LN_25_LD_30_RN_9_RD_27_0.png","C_Dist_500_LN_4_LD_6_RN_1_RD_6_0.png","C_Dist_500_LN_5_LD_6_RN_2_RD_6_0.png","C_Dist_500_LN_6_LD_9_RN_1_RD_6_0.png","C_Dist_500_LN_7_LD_10_RN_1_RD_5_0.png","C_Dist_500_LN_8_LD_12_RN_1_RD_6_0.png","C_Dist_500_LN_8_LD_12_RN_4_RD_24_0.png"],["C_Dist_500_LN_1_LD_4_RN_12_RD_16_1.png","C_Dist_500_LN_1_LD_4_RN_9_RD_12_1.png","C_Dist_500_LN_1_LD_9_RN_11_RD_18_1.png","C_Dist_500_LN_10_LD_24_RN_22_RD_24_1.png","C_Dist_500_LN_2_LD_12_RN_10_RD_15_1.png","C_Dist_500_LN_2_LD_12_RN_12_RD_18_1.png","C_Dist_500_LN_2_LD_12_RN_4_RD_6_1.png","C_Dist_500_LN_2_LD_24_RN_7_RD_12_1.png","C_Dist_500_LN_2_LD_5_RN_18_RD_20_1.png","C_Dist_500_LN_2_LD_5_RN_9_RD_10_1.png","C_Dist_500_LN_2_LD_8_RN_12_RD_16_1.png","C_Dist_500_LN_2_LD_8_RN_21_RD_28_1.png","C_Dist_500_LN_3_LD_10_RN_4_RD_5_1.png","C_Dist_500_LN_3_LD_12_RN_15_RD_20_1.png","C_Dist_500_LN_3_LD_30_RN_6_RD_10_1.png","C_Dist_500_LN_3_LD_8_RN_14_RD_16_1.png","C_Dist_500_LN_4_LD_16_RN_15_RD_20_1.png","C_Dist_500_LN_4_LD_24_RN_12_RD_18_1.png","C_Dist_500_LN_5_LD_14_RN_6_RD_7_1.png","C_Dist_500_LN_7_LD_21_RN_20_RD_24_1.png","C_Dist_500_LN_7_LD_28_RN_12_RD_16_1.png","C_Dist_500_LN_7_LD_28_RN_9_RD_12_1.png","C_Dist_500_LN_9_LD_27_RN_20_RD_24_1.png"]],"dist500_I":[["I_Dist_500_LN_2_LD_3_RN_4_RD_24_0.png","I_Dist_500_LN_5_LD_6_RN_6_RD_18_0.png","I_Dist_500_LN_7_LD_8_RN_9_RD_24_0.png"],["I_Dist_500_LN_7_LD_21_RN_5_RD_6_1.png"]],"dist500_S":[["E_Dist_500_LN_6_LD_8_RN_6_RD_24_0.png"],["E_Dist_500_LN_2_LD_12_RN_2_RD_3_1.png","E_Dist_500_LN_6_LD_24_RN_6_RD_8_1.png"]]}},{"start_time":1551790016126,"click_time":1551790018404,"finger_time":1551790018064,"fix_duration":1201.1183171119421,"trial":1,"RT":1938,"MT":340,"sideResp":2,"stimulus":[],"xmouse":[785,785,785,785,785,785,785,785,785,785,785,785,785,785,785,785,785,785,785,785,785,785,785,785,785,785,785,785,785,785,785,785,785,785,785,785,785,785,785,785,785,785,785,785,785,785,785,785,785,785,785,785,785,785,785,785,785,785,785,785,785,785,785,785,785,785,785,785,785,785,785,785,785,785,785,785,785,785,785,785,785,785,785,785,785,785,785,785,785,785,785,785,785,791,801,820,852,908,1025,1061,1074,1076,1075,1059,1053,1051,1050,1050,1050,1050,1050,1053,1058,1073],"ymouse":[521,521,521,521,521,521,521,521,521,521,521,521,521,521,521,521,521,521,521,521,521,521,521,521,521,521,521,521,521,521,521,521,521,521,521,521,521,521,521,521,521,521,521,521,521,521,521,521,521,521,521,521,521,521,521,521,521,521,521,521,521,521,521,521,521,521,521,521,521,521,521,521,521,521,521,521,521,521,521,521,521,521,521,521,521,521,521,521,521,521,521,521,521,516,509,497,474,429,314,264,223,198,179,148,139,137,135,134,128,126,121,116,108,81],"timestamp_mouse":[18,48,59,79,98,119,138,158,178,199,219,238,260,278,300,318,338,358,379,399,418,438,458,478,498,519,539,558,578,599,618,638,658,679,699,718,738,758,779,799,818,839,859,879,899,919,938,958,978,999,1018,1039,1059,1078,1098,1119,1138,1158,1178,1198,1219,1239,1258,1278,1299,1319,1338,1359,1378,1399,1418,1438,1458,1478,1498,1518,1539,1558,1579,1599,1618,1638,1658,1678,1698,1719,1738,1759,1778,1799,1819,1838,1858,1878,1899,1918,1938,1958,1978,1998,2018,2038,2059,2078,2098,2118,2139,2158,2178,2198,2219,2238,2258,2278],"xSR":741.5,"ySR":481,"xT1":424.9,"yT1":0,"xT2":1058.1,"yT2":0,"toosoon":0,"cond_shown":"Congruent","ratio_trial":200,"L_num":6,"L_den":12,"R_num":7,"R_den":10,"correct_side":2,"subjID":"Geraldineavilajoaqui5","gender":"1","school":"6","age":"11"},{"start_time":1551790020689,"click_time":1551790021864,"finger_time":1551790021745,"fix_duration":983.7496447458068,"trial":2,"RT":1056,"MT":119,"sideResp":2,"stimulus":[],"xmouse":[799,799,799,799,799,799,799,799,799,799,799,799,799,799,799,799,799,799,799,799,799,799,799,799,799,799,799,799,799,799,799,799,799,799,799,799,799,799,799,799,800,800,800,800,800,800,800,801,805,809,822,834,854,882,909,987,1017,1041,1060],"ymouse":[515,515,515,515,515,515,515,515,515,515,515,515,515,515,515,515,515,515,515,515,515,515,515,515,515,515,515,515,515,515,515,515,515,515,515,515,515,515,514,514,514,514,514,514,514,513,513,512,510,508,497,486,465,426,378,223,173,130,99],"timestamp_mouse":[16,40,56,75,95,115,136,156,176,195,215,236,256,275,295,316,335,355,376,395,416,435,455,475,496,516,535,555,576,595,616,636,655,675,695,715,735,756,775,795,816,836,855,875,895,915,935,955,976,996,1015,1035,1056,1076,1095,1115,1135,1156,1175],"xSR":741.5,"ySR":481,"xT1":424.9,"yT1":0,"xT2":1058.1,"yT2":0,"toosoon":0,"cond_shown":"Congruent","ratio_trial":300,"L_num":1,"L_den":5,"R_num":3,"R_den":6,"correct_side":2,"subjID":"Geraldineavilajoaqui5","gender":"1","school":"6","age":"11"},{"start_time":1551790023497,"click_time":1551790024946,"finger_time":1551790024704,"fix_duration":490.5426301731661,"trial":3,"RT":1207,"MT":242,"sideResp":1,"stimulus":[],"xmouse":[789,789,789,789,789,789,789,789,789,789,789,789,789,789,789,789,789,789,789,789,789,789,789,789,789,789,789,789,789,789,789,789,789,786,785,785,785,785,785,785,785,785,785,785,785,785,785,785,785,785,785,785,785,785,785,785,785,785,782,778,738,695,660,633,612,593,591,588,587,582,566,549,522],"ymouse":[547,547,547,547,547,547,547,547,547,547,547,547,547,547,547,547,547,547,547,547,547,547,547,547,547,547,547,547,547,547,547,546,543,531,524,520,519,518,518,518,518,518,518,518,518,518,518,518,518,518,518,518,518,518,518,518,518,518,511,502,427,348,286,239,204,167,159,154,150,142,113,94,70],"timestamp_mouse":[7,28,47,67,87,107,128,148,168,188,207,228,247,268,288,308,328,348,368,388,408,428,448,467,488,508,527,548,567,587,607,628,647,667,688,707,728,747,767,787,807,828,847,867,889,908,928,947,967,987,1007,1028,1047,1067,1088,1108,1127,1147,1168,1188,1207,1227,1248,1267,1288,1307,1328,1347,1367,1388,1408,1427,1448],"xSR":741.5,"ySR":481,"xT1":424.9,"yT1":0,"xT2":1058.1,"yT2":0,"toosoon":0,"cond_shown":"Incongruent","ratio_trial":200,"L_num":14,"L_den":30,"R_num":12,"R_den":18,"correct_side":2,"subjID":"Geraldineavilajoaqui5","gender":"1","school":"6","age":"11"},{"start_time":1551790039528,"click_time":1551790041724,"finger_time":1551790041624,"fix_duration":1022.9169907843653,"trial":4,"RT":2096,"MT":100,"sideResp":1,"stimulus":[],"xmouse":[792,792,792,793,793,793,793,793,793,793,793,793,793,793,793,793,793,793,793,793,793,793,793,793,793,793,793,793,793,793,793,793,793,793,793,793,793,793,793,793,793,793,793,793,793,793,793,793,793,793,793,793,793,793,793,793,793,793,793,793,793,793,793,793,793,793,793,793,793,793,793,793,793,793,793,793,793,793,793,793,793,793,793,793,793,793,793,793,793,793,793,793,793,793,793,793,793,793,793,793,793,793,793,792,782,751,703,640,537,520],"ymouse":[514,514,514,514,514,514,514,514,514,514,514,514,514,514,514,514,514,514,514,514,514,514,514,514,514,514,514,514,514,514,514,514,514,514,514,514,514,514,514,514,514,514,514,514,514,514,514,514,514,514,514,514,514,514,514,514,514,514,514,514,514,514,514,514,514,514,514,514,514,514,514,514,514,514,514,514,514,514,514,514,514,514,514,514,514,514,514,514,514,514,514,514,514,514,514,514,514,514,514,514,514,514,514,505,473,398,295,196,41,19],"timestamp_mouse":[17,41,56,76,96,118,136,156,176,196,217,236,257,277,297,316,336,357,377,396,416,436,457,476,496,517,536,556,577,596,616,636,657,677,697,716,737,756,776,796,816,836,856,876,896,917,937,956,976,996,1016,1036,1057,1076,1097,1117,1136,1156,1176,1196,1216,1237,1258,1276,1298,1317,1336,1356,1377,1397,1416,1438,1457,1477,1496,1516,1536,1557,1576,1597,1617,1637,1657,1677,1697,1716,1737,1757,1776,1796,1816,1838,1856,1876,1897,1916,1937,1957,1976,1997,2017,2037,2057,2076,2096,2116,2136,2156,2176,2196],"xSR":741.5,"ySR":481,"xT1":424.9,"yT1":0,"xT2":1058.1,"yT2":0,"toosoon":0,"cond_shown":"Congruent","ratio_trial":300,"L_num":20,"L_den":25,"R_num":13,"R_den":26,"correct_side":1,"subjID":"Geraldineavilajoaqui5","gender":"1","school":"6","age":"11"},{"start_time":1551790043477,"click_time":1551790044785,"finger_time":1551790044604,"fix_duration":250,"trial":5,"RT":1127,"MT":181,"sideResp":1,"stimulus":[],"xmouse":[799,799,799,799,799,799,799,799,799,799,799,799,799,799,799,799,799,799,799,799,799,799,799,799,799,799,799,799,799,799,799,799,799,799,799,799,799,799,799,799,799,800,801,802,802,802,802,802,802,802,802,802,802,802,799,789,732,690,647,616,588,562,554,544,533,513],"ymouse":[503,503,503,503,503,503,503,503,503,503,503,503,503,503,503,503,503,503,503,503,503,503,503,503,503,503,503,503,503,503,503,503,503,503,503,503,503,503,503,503,503,503,502,501,501,501,501,501,501,501,501,501,501,501,495,487,418,356,283,208,141,84,69,58,50,40],"timestamp_mouse":[8,40,48,68,88,108,127,147,168,187,208,227,247,267,287,308,328,347,367,388,407,427,447,467,487,508,529,548,567,589,608,627,647,667,687,707,728,748,768,788,807,827,847,868,887,907,928,947,967,988,1007,1028,1047,1067,1087,1108,1127,1148,1168,1187,1207,1227,1247,1268,1287,1308],"xSR":741.5,"ySR":481,"xT1":424.9,"yT1":0,"xT2":1058.1,"yT2":0,"toosoon":0,"cond_shown":"Incongruent","ratio_trial":100,"L_num":8,"L_den":16,"R_num":6,"R_den":10,"correct_side":2,"subjID":"Geraldineavilajoaqui5","gender":"1","school":"6","age":"11"},{"start_time":1551790050534,"click_time":1551790052704,"finger_time":1551790052304,"fix_duration":1028.2158539212642,"trial":6,"RT":1770,"MT":400,"sideResp":1,"stimulus":[],"xmouse":[797,797,797,797,797,797,797,797,797,797,797,797,797,797,797,797,797,797,797,797,797,797,797,797,797,797,797,797,797,797,797,797,797,797,797,797,797,797,797,797,797,797,797,797,797,797,797,797,797,797,797,797,797,797,797,797,797,797,797,797,797,797,797,797,797,797,797,797,797,797,797,797,797,797,797,797,797,797,797,797,797,797,797,797,797,796,791,775,671,592,517,449,405,379,379,379,379,379,379,379,379,379,379,379,381,390,406,421,449],"ymouse":[518,518,518,518,518,518,518,518,518,518,518,518,518,518,518,518,518,518,518,518,518,518,518,518,518,518,518,518,518,518,518,518,518,518,518,518,518,518,518,518,518,518,518,518,518,518,518,518,518,518,518,518,518,518,518,518,518,518,518,518,518,518,518,518,518,518,518,518,518,518,518,518,518,518,518,518,518,518,518,518,518,518,518,518,518,514,508,484,359,270,193,129,87,53,53,53,53,53,53,53,53,53,53,52,52,54,58,63,71],"timestamp_mouse":[10,31,50,70,90,110,130,150,170,190,210,231,250,270,290,310,330,350,371,390,410,432,450,471,490,510,530,551,570,590,611,631,650,671,690,710,730,750,770,790,810,830,850,870,890,912,930,950,971,990,1011,1030,1051,1070,1090,1110,1131,1151,1170,1190,1210,1231,1250,1270,1290,1310,1331,1352,1370,1390,1411,1431,1451,1470,1490,1510,1530,1551,1571,1590,1611,1631,1651,1670,1691,1711,1731,1750,1770,1791,1811,1830,1850,1870,1890,1911,1930,1950,1970,1991,2010,2030,2052,2070,2091,2110,2130,2151,2170],"xSR":741.5,"ySR":481,"xT1":424.9,"yT1":0,"xT2":1058.1,"yT2":0,"toosoon":0,"cond_shown":"Congruent","ratio_trial":200,"L_num":3,"L_den":12,"R_num":9,"R_den":20,"correct_side":2,"subjID":"Geraldineavilajoaqui5","gender":"1","school":"6","age":"11"},{"start_time":1551790054872,"click_time":1551790056304,"finger_time":1551790055825,"fix_duration":966.0545109971074,"trial":7,"RT":953,"MT":479,"sideResp":2,"stimulus":[],"xmouse":[776,776,776,776,776,776,777,777,778,779,781,782,785,787,790,794,798,798,800,801,801,801,802,802,802,802,802,802,802,802,802,802,802,802,802,802,800,800,799,798,798,796,796,796,796,796,805,817,835,860,891,942,964,978,990,999,1012,1013,1016,1018,1019,1022,1023,1024,1027,1033,1045,1052,1059,1066,1072,1080],"ymouse":[524,524,524,524,524,524,525,525,525,525,525,525,525,525,525,525,524,524,522,522,521,521,521,521,521,521,521,521,521,521,521,521,520,520,520,518,516,516,514,514,512,509,508,507,504,500,487,474,453,429,398,328,297,278,262,249,229,222,216,212,207,198,191,184,176,161,142,134,125,118,110,94],"timestamp_mouse":[13,33,61,72,93,113,132,152,173,192,212,233,252,272,293,313,332,352,372,392,413,432,452,473,492,513,532,552,572,592,612,632,653,673,692,712,732,752,772,792,812,832,852,872,892,913,933,953,973,993,1012,1033,1052,1073,1092,1113,1132,1152,1172,1192,1213,1233,1253,1273,1293,1313,1333,1352,1372,1392,1412,1432],"xSR":741.5,"ySR":481,"xT1":424.9,"yT1":0,"xT2":1058.1,"yT2":0,"toosoon":0,"cond_shown":"Congruent","ratio_trial":200,"L_num":3,"L_den":6,"R_num":14,"R_den":20,"correct_side":2,"subjID":"Geraldineavilajoaqui5","gender":"1","school":"6","age":"11"},{"start_time":1551790057852,"click_time":1551790059505,"finger_time":1551790058904,"fix_duration":306.28953865658104,"trial":8,"RT":1052,"MT":601,"sideResp":2,"stimulus":[],"xmouse":[776,776,776,776,776,776,776,776,776,776,776,776,776,776,776,776,776,776,776,776,776,776,776,776,776,776,776,776,776,776,776,776,776,776,776,776,776,776,776,776,776,776,776,776,776,776,777,780,784,794,807,824,867,899,933,977,990,1001,1001,1001,1000,1000,1000,1000,1000,1000,1002,1005,1005,1005,1005,1005,1005,1005,1005,1005,1005,1014,1024,1037,1046,1053,1082],"ymouse":[538,538,538,538,538,538,538,538,538,538,538,538,538,538,538,538,538,538,538,538,538,538,538,538,538,538,538,538,538,538,538,538,538,538,538,538,538,538,538,538,538,538,538,538,538,538,538,538,535,529,520,508,469,432,373,298,272,208,195,189,184,181,175,170,162,153,143,122,116,112,111,111,111,111,111,111,111,108,103,100,97,95,87],"timestamp_mouse":[13,40,52,73,92,112,132,152,172,192,212,233,252,274,293,314,333,352,372,392,413,433,453,473,493,512,532,552,572,592,612,633,652,672,692,712,733,752,772,793,812,832,853,872,892,912,933,952,973,992,1012,1032,1052,1072,1094,1112,1132,1152,1173,1193,1213,1233,1252,1272,1292,1313,1333,1352,1373,1392,1413,1433,1452,1473,1492,1512,1533,1552,1572,1593,1613,1633,1653],"xSR":741.5,"ySR":481,"xT1":424.9,"yT1":0,"xT2":1058.1,"yT2":0,"toosoon":0,"cond_shown":"Incongruent","ratio_trial":100,"L_num":9,"L_den":15,"R_num":13,"R_den":26,"correct_side":1,"subjID":"Geraldineavilajoaqui5","gender":"1","school":"6","age":"11"},{"start_time":1551790066350,"click_time":1551790067464,"finger_time":1551790067005,"fix_duration":1304.847332776957,"trial":9,"RT":655,"MT":459,"sideResp":2,"stimulus":[],"xmouse":[782,782,782,782,782,782,782,782,782,782,782,782,782,782,782,782,782,782,782,782,782,782,782,783,783,783,783,784,784,785,788,791,805,824,847,868,888,914,918,921,928,931,980,997,997,997,997,997,997,997,997,997,997,997,997,1061],"ymouse":[511,511,511,511,511,511,511,511,511,511,511,511,511,511,511,511,511,511,511,511,511,511,511,511,511,510,509,508,508,506,502,497,475,439,373,300,227,104,74,56,40,36,10,5,5,5,5,5,5,5,5,5,5,5,5,2],"timestamp_mouse":[14,35,65,74,94,114,135,154,175,195,215,235,255,274,295,315,335,354,375,395,416,435,455,474,494,515,535,554,575,595,614,635,655,675,694,714,735,755,775,795,815,835,854,874,894,914,934,955,975,995,1014,1035,1054,1075,1096,1114],"xSR":741.5,"ySR":481,"xT1":424.9,"yT1":0,"xT2":1058.1,"yT2":0,"toosoon":0,"cond_shown":"Congruent","ratio_trial":100,"L_num":1,"L_den":2,"R_num":18,"R_den":30,"correct_side":2,"subjID":"Geraldineavilajoaqui5","gender":"1","school":"6","age":"11"},{"start_time":1551790069352,"click_time":1551790071264,"finger_time":1551790070865,"fix_duration":727.8110506010327,"trial":10,"RT":1513,"MT":399,"sideResp":2,"stimulus":[],"xmouse":[797,797,797,797,797,797,797,797,797,797,797,797,797,797,797,797,797,797,797,797,797,797,797,797,797,797,797,797,798,798,800,803,808,813,817,821,824,827,827,827,827,827,827,827,827,827,824,820,817,816,816,816,816,816,816,816,816,816,816,816,816,816,816,816,816,816,816,816,816,816,816,816,820,826,833,845,863,929,967,999,1018,1034,1034,1034,1033,1033,1033,1034,1037,1037,1039,1040,1042,1047,1056,1067],"ymouse":[526,526,526,526,526,526,526,526,526,526,526,526,526,526,526,526,526,526,526,526,526,526,526,526,526,526,526,526,526,525,524,522,520,518,515,514,513,511,511,511,511,511,511,511,511,511,511,511,510,509,509,509,509,509,509,509,509,509,509,509,509,509,509,509,509,509,509,509,509,509,509,508,504,502,498,493,486,440,403,350,282,197,139,122,108,99,92,75,65,58,48,44,38,35,32,29],"timestamp_mouse":[12,41,52,72,93,112,133,152,172,192,212,232,253,272,293,313,333,352,372,392,412,433,452,472,492,512,533,552,572,592,612,632,652,672,692,712,732,752,772,792,813,833,852,872,892,912,933,953,973,992,1013,1032,1052,1072,1093,1112,1132,1152,1173,1192,1214,1232,1252,1272,1292,1313,1332,1352,1373,1392,1413,1433,1452,1472,1493,1513,1533,1552,1572,1592,1612,1633,1653,1673,1692,1713,1733,1752,1772,1792,1812,1832,1852,1872,1892,1912],"xSR":741.5,"ySR":481,"xT1":424.9,"yT1":0,"xT2":1058.1,"yT2":0,"toosoon":0,"cond_shown":"Congruent","ratio_trial":200,"L_num":13,"L_den":26,"R_num":14,"R_den":20,"correct_side":2,"subjID":"Geraldineavilajoaqui5","gender":"1","school":"6","age":"11"},{"start_time":1551790073692,"click_time":1551790080944,"finger_time":1551790073734,"fix_duration":1345.5303808270278,"trial":11,"RT":42,"MT":7210,"sideResp":2,"stimulus":[],"xmouse":[785,783,782,782,781,781,781,781,781,781,781,781,781,781,781,781,781,781,781,781,781,781,781,781,781,782,782,784,784,785,788,789,792,793,795,798,800,801,802,802,803,803,803,803,803,803,803,803,803,803,802,798,791,787,784,783,783,783,783,783,783,787,799,822,861,863,863,863,863,850,818,783,723,668,646,632,632,636,664,716,826,855,865,866,866,835,809,766,700,648,612,611,611,611,612,657,687,731,770,797,823,826,826,826,826,827,818,797,760,687,508,426,374,357,354,354,354,354,354,354,354,354,354,354,354,355,355,355,355,355,355,355,355,355,355,355,355,355,355,355,355,355,355,355,355,356,357,358,359,359,360,360,360,360,361,363,363,364,364,364,364,364,364,364,364,364,364,364,364,364,364,365,367,368,369,372,372,372,372,372,372,372,372,372,372,372,372,374,375,377,380,380,381,382,382,384,384,384,384,384,384,384,384,384,384,384,384,384,384,384,384,384,384,384,384,384,384,384,384,384,384,384,384,384,384,384,384,384,384,384,384,384,384,384,384,384,384,384,385,389,419,434,450,460,466,466,466,466,466,466,466,466,464,459,458,459,480,515,572,629,702,717,726,733,751,785,805,823,842,857,867,869,869,868,857,852,849,847,846,845,845,844,844,842,842,837,835,833,828,823,811,804,794,788,784,779,779,779,779,779,779,779,779,779,778,788,792,795,796,797,797,797,797,797,797,797,797,797,797,797,797,797,797,797,797,797,798,798,798,799,802,804,808,815,822,839,844,849,855,861,890,910,938,966,988,1017,1022,1026,1028,1029,1030,1030,1030,1030,1030,1030,1031,1031,1034,1038,1050,1055,1062],"ymouse":[485,479,475,472,470,470,470,470,470,470,470,470,470,470,470,470,470,470,470,470,470,470,470,470,469,470,472,474,475,477,483,487,491,494,499,507,510,514,517,518,520,521,521,521,521,521,522,522,522,524,526,527,529,529,530,530,530,530,530,530,530,527,525,520,512,511,511,511,511,517,523,524,524,524,524,524,524,520,516,509,504,504,506,506,506,513,513,513,511,503,501,501,501,501,501,504,509,516,521,526,534,534,534,534,534,536,537,537,537,537,514,501,492,487,486,486,486,486,486,486,486,486,486,486,486,485,485,485,485,485,485,485,485,485,485,485,485,485,485,485,485,485,485,485,485,485,485,485,484,484,483,483,483,483,483,481,481,480,480,480,480,480,480,480,480,480,480,480,480,480,480,479,478,477,476,474,474,474,474,474,474,474,474,474,474,474,474,473,473,472,471,471,470,470,469,469,469,469,469,469,469,469,469,469,469,469,469,469,469,469,469,469,469,469,469,469,469,469,469,469,469,469,469,469,469,469,469,469,469,469,469,469,469,469,469,469,469,469,469,469,477,484,491,495,498,498,498,498,498,498,498,498,497,493,491,490,490,490,490,490,490,487,483,478,471,464,463,463,466,471,480,487,496,505,518,521,522,523,523,523,523,523,523,523,523,523,523,523,523,523,522,522,520,519,518,518,518,518,518,518,518,518,518,518,518,515,513,513,512,512,512,512,512,512,512,512,512,512,512,512,512,512,512,512,512,512,511,511,509,506,501,496,489,476,459,411,389,367,345,324,276,247,217,191,171,105,78,55,37,26,20,19,18,18,17,17,17,17,17,17,24,28,33],"timestamp_mouse":[17,42,53,73,93,113,133,152,173,192,213,232,253,273,293,312,332,352,374,393,413,433,452,472,492,512,532,552,572,592,613,632,653,673,692,712,732,752,773,793,812,833,853,874,892,912,932,952,974,992,1012,1032,1053,1072,1093,1112,1133,1152,1174,1192,1213,1233,1252,1273,1294,1312,1333,1352,1374,1394,1412,1432,1452,1473,1492,1512,1532,1554,1573,1592,1613,1632,1652,1672,1692,1713,1732,1752,1772,1793,1813,1832,1852,1874,1894,1912,1932,1952,1972,1992,2013,2032,2052,2073,2092,2112,2133,2153,2173,2193,2212,2232,2252,2272,2292,2312,2333,2352,2372,2393,2413,2432,2453,2472,2492,2513,2533,2553,2574,2593,2612,2632,2653,2673,2692,2712,2732,2753,2772,2793,2812,2833,2853,2872,2892,2913,2933,2952,2972,2992,3012,3032,3053,3072,3092,3113,3133,3152,3173,3193,3212,3232,3254,3273,3292,3312,3333,3352,3372,3394,3413,3433,3452,3472,3492,3512,3532,3553,3572,3593,3612,3633,3654,3674,3693,3713,3732,3752,3773,3792,3813,3832,3852,3872,3893,3913,3932,3952,3972,3994,4013,4033,4052,4072,4092,4112,4132,4153,4172,4192,4212,4232,4252,4273,4293,4312,4332,4354,4372,4393,4412,4432,4452,4473,4493,4512,4532,4554,4574,4593,4612,4632,4653,4673,4692,4712,4732,4753,4773,4792,4813,4832,4853,4872,4892,4913,4933,4952,4973,4993,5013,5033,5053,5072,5093,5112,5133,5152,5172,5192,5213,5232,5252,5273,5293,5313,5332,5352,5372,5393,5413,5433,5454,5472,5494,5513,5532,5552,5573,5594,5613,5633,5653,5672,5693,5713,5733,5754,5772,5793,5813,5832,5852,5872,5893,5912,5932,5953,5973,5992,6014,6033,6053,6072,6092,6112,6132,6153,6172,6193,6212,6232,6254,6273,6293,6312,6334,6353,6372,6393,6414,6433,6453,6473,6493,6513,6532,6552,6573,6592,6612,6632,6652,6672,6693,6713,6733,6752,6772,6793,6813,6832,6853,6872,6892,6912,6933,6952,6973,6993,7012,7032,7053,7073,7092,7112,7132,7153,7172,7192,7213,7232,7252],"xSR":741.5,"ySR":481,"xT1":424.9,"yT1":0,"xT2":1058.1,"yT2":0,"toosoon":0,"cond_shown":"Incongruent","ratio_trial":300,"L_num":13,"L_den":26,"R_num":12,"R_den":15,"correct_side":2,"subjID":"Geraldineavilajoaqui5","gender":"1","school":"6","age":"11"},{"start_time":1551790082233,"click_time":1551790083425,"finger_time":1551790083086,"fix_duration":348.08682859325233,"trial":12,"RT":853,"MT":339,"sideResp":2,"stimulus":[],"xmouse":[803,803,803,803,803,803,803,803,803,803,803,803,803,803,803,803,803,803,803,803,803,803,803,803,803,803,803,803,803,803,803,803,802,802,802,802,802,803,805,807,810,819,857,892,934,980,1022,1061,1073,1075,1075,1075,1075,1075,1075,1075,1072,1069,1069,1069],"ymouse":[539,539,539,539,539,539,539,539,539,539,539,539,539,539,539,539,539,539,539,539,539,539,539,539,539,539,539,539,539,539,539,539,539,538,538,538,537,535,532,528,525,516,485,452,401,336,276,212,172,162,157,155,153,151,150,147,131,112,103,91],"timestamp_mouse":[12,37,53,72,92,113,133,151,172,191,212,231,251,272,291,313,333,353,372,392,412,431,451,472,492,512,532,553,573,591,611,631,652,671,692,711,731,751,771,792,813,832,853,871,892,913,932,952,971,991,1013,1032,1053,1071,1092,1113,1131,1153,1172,1192],"xSR":741.5,"ySR":481,"xT1":424.9,"yT1":0,"xT2":1058.1,"yT2":0,"toosoon":0,"cond_shown":"Incongruent","ratio_trial":200,"L_num":7,"L_den":15,"R_num":6,"R_den":9,"correct_side":2,"subjID":"Geraldineavilajoaqui5","gender":"1","school":"6","age":"11"},{"start_time":1551790085403,"click_time":1551790086486,"finger_time":1551790086144,"fix_duration":897.3632957273255,"trial":13,"RT":741,"MT":342,"sideResp":2,"stimulus":[],"xmouse":[786,786,786,786,786,786,786,786,786,786,786,786,786,786,786,786,786,786,786,786,786,786,786,786,786,786,786,786,786,786,787,788,790,792,795,815,830,859,934,983,1077,1101,1116,1125,1130,1134,1135,1135,1133,1126,1105,1094,1083,1074,1065],"ymouse":[529,529,529,529,529,529,529,529,529,529,529,529,529,529,529,529,529,529,529,529,529,529,529,529,529,529,529,529,530,530,529,528,524,522,518,504,492,472,413,368,291,268,249,236,224,207,199,190,181,170,146,131,117,104,92],"timestamp_mouse":[3,21,42,61,81,101,121,141,161,181,201,221,241,262,282,301,321,341,361,381,401,421,441,463,481,501,522,542,562,581,602,621,641,662,681,701,723,741,762,782,803,821,842,863,883,901,922,943,963,982,1003,1021,1043,1062,1083],"xSR":741.5,"ySR":481,"xT1":424.9,"yT1":0,"xT2":1058.1,"yT2":0,"toosoon":0,"cond_shown":"Congruent","ratio_trial":100,"L_num":10,"L_den":25,"R_num":3,"R_den":10,"correct_side":1,"subjID":"Geraldineavilajoaqui5","gender":"1","school":"6","age":"11"},{"start_time":1551790092460,"click_time":1551790093386,"finger_time":1551790093245,"fix_duration":975.0432209552404,"trial":14,"RT":785,"MT":141,"sideResp":2,"stimulus":[],"xmouse":[776,776,776,776,776,776,776,776,776,776,776,776,776,776,776,776,776,776,776,776,776,776,776,776,777,777,777,777,777,780,781,782,784,789,792,800,808,820,831,844,857,877,947,988,1021,1041,1061],"ymouse":[518,518,518,518,518,518,518,518,518,518,518,518,518,518,518,519,519,519,519,519,519,519,519,519,519,519,519,519,518,517,516,516,515,512,510,505,501,493,485,472,456,418,223,134,73,41,14],"timestamp_mouse":[5,25,46,65,86,106,126,145,165,185,206,225,245,265,285,305,325,345,365,384,404,424,444,464,484,504,524,544,564,585,604,625,644,665,685,705,725,744,764,785,805,825,844,864,884,904,925],"xSR":741.5,"ySR":481,"xT1":424.9,"yT1":0,"xT2":1058.1,"yT2":0,"toosoon":0,"cond_shown":"Congruent","ratio_trial":100,"L_num":3,"L_den":20,"R_num":4,"R_den":16,"correct_side":2,"subjID":"Geraldineavilajoaqui5","gender":"1","school":"6","age":"11"},{"start_time":1551790096044,"click_time":1551790097484,"finger_time":1551790096885,"fix_duration":1496.703406822444,"trial":15,"RT":841,"MT":599,"sideResp":1,"stimulus":[],"xmouse":[782,782,782,782,782,782,782,782,782,782,782,782,782,782,782,782,782,782,782,782,782,782,782,782,782,782,782,782,782,782,782,782,782,782,782,782,782,782,780,778,773,764,746,697,680,666,663,658,653,652,650,649,649,647,644,640,636,630,619,613,607,603,597,589,586,584,579,573,559,550,539,528,512],"ymouse":[522,522,522,522,522,522,522,522,522,522,522,522,522,522,522,522,522,522,522,522,522,522,522,522,522,522,522,522,522,522,522,522,522,522,522,522,522,522,518,512,500,482,457,390,363,335,326,303,285,281,277,275,273,264,258,251,243,232,213,206,198,192,182,169,164,161,155,149,135,128,120,111,97],"timestamp_mouse":[3,20,42,62,81,101,121,141,161,181,201,221,241,261,281,300,320,340,360,380,405,422,441,461,481,501,521,541,561,581,601,620,640,660,680,700,720,740,760,780,801,821,841,860,880,900,921,941,960,980,1000,1020,1042,1060,1080,1100,1120,1140,1160,1180,1200,1220,1241,1260,1280,1300,1320,1340,1360,1380,1400,1420,1440],"xSR":741.5,"ySR":481,"xT1":424.9,"yT1":0,"xT2":1058.1,"yT2":0,"toosoon":0,"cond_shown":"Congruent","ratio_trial":300,"L_num":9,"L_den":10,"R_num":3,"R_den":5,"correct_side":1,"subjID":"Geraldineavilajoaqui5","gender":"1","school":"6","age":"11"},{"start_time":1551790099983,"click_time":1551790101704,"finger_time":1551790101144,"fix_duration":1237.9750979027647,"trial":16,"RT":1161,"MT":560,"sideResp":1,"stimulus":[],"xmouse":[783,783,783,783,783,783,783,783,783,783,783,783,783,783,783,783,783,783,783,783,783,783,783,783,783,783,783,783,783,783,783,783,783,783,783,783,783,783,783,783,783,783,783,783,783,783,783,783,783,783,783,783,783,783,782,780,772,757,711,677,633,566,547,534,523,511,490,481,471,463,456,455,456,460,465,474,498,508,514,516,516,516,516,516,515,498,491],"ymouse":[511,511,511,511,511,511,511,511,511,511,511,511,511,511,511,511,511,511,511,511,511,511,511,511,511,511,511,511,511,511,511,511,511,511,511,511,511,511,511,511,511,511,511,511,511,511,511,511,511,511,511,511,511,511,510,509,503,488,448,416,385,328,307,290,273,252,216,198,182,168,154,145,143,138,136,132,126,124,121,121,121,120,120,118,115,103,98],"timestamp_mouse":[3,24,43,62,82,102,122,141,161,181,201,221,241,261,281,302,321,341,361,381,401,421,441,461,481,501,521,541,561,581,601,621,641,661,681,701,721,741,761,781,801,821,841,861,881,901,921,941,961,981,1001,1021,1041,1061,1081,1101,1121,1141,1161,1181,1201,1222,1241,1261,1281,1302,1321,1342,1361,1381,1401,1422,1441,1461,1481,1501,1521,1543,1563,1583,1602,1622,1641,1662,1682,1703,1721],"xSR":741.5,"ySR":481,"xT1":424.9,"yT1":0,"xT2":1058.1,"yT2":0,"toosoon":0,"cond_shown":"Congruent","ratio_trial":200,"L_num":7,"L_den":15,"R_num":18,"R_den":27,"correct_side":2,"subjID":"Geraldineavilajoaqui5","gender":"1","school":"6","age":"11"},{"start_time":1551790104563,"click_time":1551790105824,"finger_time":1551790105325,"fix_duration":1219.250497576769,"trial":17,"RT":762,"MT":499,"sideResp":2,"stimulus":[],"xmouse":[802,802,802,802,802,802,802,802,802,802,802,802,802,802,802,802,802,802,802,802,802,802,802,802,802,805,807,816,819,821,822,823,824,824,825,825,826,832,843,862,882,923,967,982,994,1005,1008,1016,1018,1021,1024,1027,1032,1035,1036,1038,1040,1047,1053,1061,1073,1089,1107,1112],"ymouse":[532,532,532,532,532,532,532,532,532,532,532,532,532,532,532,532,532,532,532,532,532,532,532,532,532,527,526,517,514,512,509,507,505,504,503,502,501,493,484,468,450,411,349,321,291,262,243,220,214,207,201,191,177,171,165,161,156,147,141,133,126,115,102,98],"timestamp_mouse":[3,21,43,61,81,101,121,141,161,181,201,221,241,261,281,301,321,341,361,381,403,423,443,463,482,501,523,541,563,583,603,621,642,661,683,703,723,741,762,783,803,821,841,861,882,901,923,941,962,982,1002,1022,1041,1061,1082,1101,1123,1141,1162,1182,1201,1222,1241,1261],"xSR":741.5,"ySR":481,"xT1":424.9,"yT1":0,"xT2":1058.1,"yT2":0,"toosoon":0,"cond_shown":"Congruent","ratio_trial":300,"L_num":7,"L_den":14,"R_num":20,"R_den":25,"correct_side":2,"subjID":"Geraldineavilajoaqui5","gender":"1","school":"6","age":"11"},{"start_time":1551790107115,"click_time":1551790109165,"finger_time":1551790108646,"fix_duration":250,"trial":18,"RT":1531,"MT":519,"sideResp":2,"stimulus":[],"xmouse":[816,816,816,816,816,816,816,816,816,816,816,816,816,816,816,816,816,816,816,816,816,816,816,816,817,817,817,817,817,818,818,818,818,818,818,818,818,818,818,818,818,818,818,818,818,818,818,818,818,819,819,819,819,819,819,819,819,819,819,819,819,819,819,819,819,819,819,819,819,819,820,822,823,826,834,840,850,859,872,905,922,943,963,1009,1020,1028,1037,1043,1049,1055,1056,1056,1056,1059,1062,1064,1065,1065,1068,1071,1072,1073,1075],"ymouse":[550,550,550,550,550,550,550,550,550,550,550,550,550,550,550,550,550,550,550,550,550,549,549,549,549,548,548,548,548,548,548,548,548,548,547,546,546,546,546,546,546,546,546,546,546,546,546,546,546,546,546,546,546,545,545,545,545,545,545,545,545,545,545,545,545,545,545,545,545,545,544,543,542,540,537,535,531,525,514,478,454,426,398,333,311,292,271,254,236,212,205,197,193,177,168,161,155,150,142,123,113,104,96],"timestamp_mouse":[9,31,49,69,89,109,129,149,169,189,209,229,249,269,289,309,329,349,369,389,409,429,449,469,489,509,529,549,569,589,609,629,649,669,689,709,729,749,769,789,809,829,849,869,889,909,929,949,969,989,1009,1029,1049,1069,1089,1109,1129,1149,1169,1189,1209,1229,1249,1269,1289,1311,1331,1351,1371,1391,1411,1431,1451,1471,1490,1509,1531,1550,1570,1589,1611,1630,1650,1670,1689,1709,1730,1749,1769,1789,1809,1830,1849,1870,1889,1909,1930,1949,1969,1989,2009,2030,2050],"xSR":741.5,"ySR":481,"xT1":424.9,"yT1":0,"xT2":1058.1,"yT2":0,"toosoon":0,"cond_shown":"Incongruent","ratio_trial":300,"L_num":13,"L_den":26,"R_num":12,"R_den":15,"correct_side":2,"subjID":"Geraldineavilajoaqui5","gender":"1","school":"6","age":"11"},{"start_time":1551790110670,"click_time":1551790112166,"finger_time":1551790111504,"fix_duration":604.7674487548986,"trial":19,"RT":834,"MT":662,"sideResp":1,"stimulus":[],"xmouse":[769,769,770,770,770,770,771,771,771,771,771,771,771,771,771,771,771,771,771,771,772,772,772,772,772,772,772,772,772,772,772,772,772,772,772,772,772,772,772,771,758,723,701,679,650,631,592,580,571,569,568,567,567,567,567,567,566,566,564,560,550,527,516,507,499,492,491,490,490,490,490,492,493,495,495],"ymouse":[561,561,561,560,559,559,558,558,558,558,558,558,558,558,557,557,556,556,556,555,554,554,554,553,553,553,552,552,552,552,552,552,552,552,551,550,550,549,546,540,523,484,464,441,413,396,356,337,323,315,308,300,298,295,293,292,281,266,250,233,214,180,168,161,153,149,148,147,147,147,145,134,125,108,74],"timestamp_mouse":[16,34,54,75,95,114,134,154,174,194,214,234,254,274,294,314,334,354,374,394,414,434,454,474,494,514,534,554,574,594,614,634,654,674,695,714,734,754,775,795,815,834,854,874,894,914,935,954,974,994,1014,1034,1054,1074,1094,1114,1135,1154,1174,1196,1214,1234,1256,1276,1296,1315,1336,1356,1376,1394,1415,1434,1456,1476,1496],"xSR":741.5,"ySR":481,"xT1":424.9,"yT1":0,"xT2":1058.1,"yT2":0,"toosoon":0,"cond_shown":"Incongruent","ratio_trial":200,"L_num":1,"L_den":3,"R_num":2,"R_den":15,"correct_side":1,"subjID":"Geraldineavilajoaqui5","gender":"1","school":"6","age":"11"},{"start_time":1551790114063,"click_time":1551790115204,"finger_time":1551790114824,"fix_duration":1017.6960441980045,"trial":20,"RT":761,"MT":380,"sideResp":1,"stimulus":[],"xmouse":[799,799,799,799,799,799,799,799,799,799,799,799,799,799,799,799,799,799,799,799,799,799,799,799,799,799,799,799,799,799,799,799,799,799,799,796,794,753,708,643,559,470,360,348,342,341,341,341,341,341,341,342,347,355,368,394,412,443],"ymouse":[524,524,524,524,524,524,524,524,524,524,524,524,524,524,524,524,524,524,524,524,524,524,524,524,524,524,524,524,524,524,524,524,524,524,524,524,522,483,450,406,331,250,144,123,106,92,87,85,85,85,85,85,85,85,86,87,87,83],"timestamp_mouse":[3,21,41,61,81,101,121,141,161,181,201,221,241,261,281,301,321,341,361,381,401,421,441,461,481,501,521,541,561,581,601,621,641,661,681,701,722,741,761,781,801,821,841,861,881,901,921,941,961,981,1001,1021,1041,1061,1081,1102,1122,1141],"xSR":741.5,"ySR":481,"xT1":424.9,"yT1":0,"xT2":1058.1,"yT2":0,"toosoon":0,"cond_shown":"Incongruent","ratio_trial":100,"L_num":1,"L_den":2,"R_num":8,"R_den":20,"correct_side":1,"subjID":"Geraldineavilajoaqui5","gender":"1","school":"6","age":"11"},{"start_time":1551790117050,"click_time":1551790118004,"finger_time":1551790117804,"fix_duration":745.0746970911297,"trial":21,"RT":754,"MT":200,"sideResp":2,"stimulus":[],"xmouse":[765,765,765,765,765,765,765,765,765,765,765,765,765,765,765,765,765,765,765,765,765,765,765,765,765,765,765,765,765,765,766,766,769,772,776,780,786,797,813,842,889,932,1003,1023,1034,1042,1053,1061],"ymouse":[503,503,503,503,503,503,503,503,503,503,503,503,503,503,503,503,503,503,503,503,503,503,503,503,503,503,503,503,503,503,503,502,500,498,495,491,482,459,439,410,374,330,221,176,144,120,91,71],"timestamp_mouse":[14,34,54,74,94,114,134,155,174,194,214,235,254,274,296,316,335,356,375,395,415,435,455,475,495,515,535,555,575,595,614,636,654,675,695,715,735,754,774,795,815,834,854,874,894,915,935,954],"xSR":741.5,"ySR":481,"xT1":424.9,"yT1":0,"xT2":1058.1,"yT2":0,"toosoon":0,"cond_shown":"Incongruent","ratio_trial":200,"L_num":7,"L_den":15,"R_num":4,"R_den":6,"correct_side":2,"subjID":"Geraldineavilajoaqui5","gender":"1","school":"6","age":"11"},{"start_time":1551790119733,"click_time":1551790120886,"finger_time":1551790120604,"fix_duration":687.9844050336982,"trial":22,"RT":871,"MT":282,"sideResp":2,"stimulus":[],"xmouse":[770,770,770,770,770,770,770,770,770,770,770,770,770,770,770,770,770,770,770,770,770,770,770,770,770,770,770,770,770,770,770,770,770,770,770,770,770,772,779,785,796,806,816,841,859,881,910,935,967,978,985,995,1002,1020,1030,1037,1047,1063],"ymouse":[508,508,508,508,508,508,508,508,508,508,508,508,508,508,508,508,508,508,508,508,508,508,508,508,508,508,508,508,508,508,508,508,508,508,508,508,508,509,508,506,502,499,494,480,466,445,410,366,278,240,215,177,157,126,115,109,102,91],"timestamp_mouse":[12,31,52,71,91,111,131,151,171,191,211,231,251,271,291,311,331,351,371,391,411,431,451,471,491,511,531,551,571,591,611,631,651,671,691,711,731,751,771,792,811,831,851,871,891,911,931,952,971,991,1012,1032,1052,1072,1091,1112,1132,1153],"xSR":741.5,"ySR":481,"xT1":424.9,"yT1":0,"xT2":1058.1,"yT2":0,"toosoon":0,"cond_shown":"Incongruent","ratio_trial":300,"L_num":4,"L_den":20,"R_num":2,"R_den":4,"correct_side":2,"subjID":"Geraldineavilajoaqui5","gender":"1","school":"6","age":"11"},{"start_time":1551790122533,"click_time":1551790124144,"finger_time":1551790123765,"fix_duration":628.4750781509399,"trial":23,"RT":1232,"MT":379,"sideResp":1,"stimulus":[],"xmouse":[791,791,791,791,791,791,791,791,791,791,791,791,791,791,791,791,791,791,791,791,791,791,791,791,791,791,791,791,791,791,791,791,791,791,791,791,791,791,791,791,791,791,791,791,791,791,792,792,788,788,788,788,788,788,788,788,788,788,782,774,765,749,734,694,672,653,635,625,607,602,593,582,579,575,574,573,572,569,551,533,511],"ymouse":[525,525,525,525,525,525,525,525,525,525,525,525,525,525,525,525,525,525,525,525,525,525,525,525,525,525,525,525,525,525,525,525,525,525,525,525,525,525,525,525,525,525,525,525,525,525,523,520,513,512,512,512,512,512,512,512,512,511,503,493,481,460,442,394,365,335,305,282,241,220,199,173,160,138,131,126,122,117,104,96,90],"timestamp_mouse":[12,33,52,72,92,112,132,152,172,192,212,232,252,272,292,312,333,352,371,391,411,431,451,471,491,511,531,551,571,591,611,631,651,672,691,711,731,751,771,792,811,831,851,871,891,911,931,952,971,991,1012,1031,1051,1072,1091,1111,1131,1152,1171,1192,1212,1232,1251,1271,1291,1312,1331,1351,1371,1391,1411,1431,1451,1471,1491,1512,1531,1551,1571,1591,1611],"xSR":741.5,"ySR":481,"xT1":424.9,"yT1":0,"xT2":1058.1,"yT2":0,"toosoon":0,"cond_shown":"Congruent","ratio_trial":200,"L_num":16,"L_den":20,"R_num":12,"R_den":20,"correct_side":1,"subjID":"Geraldineavilajoaqui5","gender":"1","school":"6","age":"11"},{"start_time":1551790125480,"click_time":1551790127004,"finger_time":1551790126405,"fix_duration":434.8156443668517,"trial":24,"RT":925,"MT":599,"sideResp":1,"stimulus":[],"xmouse":[805,805,805,805,805,805,805,805,805,805,805,805,805,805,805,805,805,805,805,805,805,805,805,805,805,805,805,805,805,805,805,805,805,805,805,805,805,805,805,805,805,805,801,794,787,770,738,720,696,678,658,634,626,620,618,615,613,612,611,611,610,608,606,600,592,581,542,522,509,503,499,495,494,492,490,489,488],"ymouse":[539,539,539,539,539,539,539,539,539,539,539,539,539,539,539,539,539,539,539,539,539,539,539,539,539,539,539,539,539,539,539,539,539,539,539,539,539,539,539,539,539,538,532,523,512,489,447,426,401,380,354,308,286,262,244,223,210,206,203,201,199,194,192,187,179,171,153,142,134,129,124,120,115,110,105,102,97],"timestamp_mouse":[4,24,44,64,85,104,124,144,164,184,204,225,244,264,284,304,324,344,364,384,404,424,444,464,484,504,526,546,566,586,606,626,645,665,686,705,726,745,765,785,805,824,846,865,885,905,925,944,965,985,1005,1024,1045,1065,1084,1104,1125,1144,1165,1184,1204,1224,1244,1264,1285,1304,1325,1344,1365,1384,1404,1424,1444,1464,1484,1505,1524],"xSR":741.5,"ySR":481,"xT1":424.9,"yT1":0,"xT2":1058.1,"yT2":0,"toosoon":0,"cond_shown":"Incongruent","ratio_trial":100,"L_num":9,"L_den":15,"R_num":13,"R_den":26,"correct_side":1,"subjID":"Geraldineavilajoaqui5","gender":"1","school":"6","age":"11"},{"start_time":1551790141228,"click_time":1551790142286,"finger_time":1551790142086,"fix_duration":802.5833152317016,"trial":25,"RT":858,"MT":200,"sideResp":2,"stimulus":[],"xmouse":[808,808,808,808,808,808,808,808,808,808,808,808,808,808,808,808,808,808,810,811,811,811,811,811,811,811,811,811,811,811,811,811,811,811,811,811,811,811,812,817,825,839,856,896,920,953,1012,1053,1114,1122,1125,1126,1126],"ymouse":[553,553,553,553,553,553,553,553,553,553,553,553,553,553,553,553,552,551,545,542,539,535,532,524,523,523,523,523,523,523,523,523,523,523,523,523,523,523,522,516,504,486,467,419,394,364,319,290,242,216,168,118,67],"timestamp_mouse":[20,37,57,77,97,117,137,157,177,197,217,237,257,279,299,319,339,359,379,397,419,439,459,479,499,518,537,557,577,597,617,637,657,677,697,717,737,757,778,798,817,838,858,877,897,918,938,957,978,997,1018,1038,1058],"xSR":741.5,"ySR":481,"xT1":424.9,"yT1":0,"xT2":1058.1,"yT2":0,"toosoon":0,"cond_shown":"Incongruent","ratio_trial":100,"L_num":12,"L_den":24,"R_num":9,"R_den":15,"correct_side":2,"subjID":"Geraldineavilajoaqui5","gender":"1","school":"6","age":"11"},{"start_time":1551790143396,"click_time":1551790144166,"finger_time":1551790143985,"fix_duration":250,"trial":26,"RT":589,"MT":181,"sideResp":2,"stimulus":[],"xmouse":[785,785,785,785,785,785,785,785,785,785,785,785,785,785,785,785,785,785,785,785,785,785,785,785,785,785,786,789,804,833,895,927,959,993,1018,1049,1059,1068,1086],"ymouse":[516,516,516,516,516,516,516,516,516,516,516,516,516,516,516,516,516,516,516,516,516,516,516,516,516,516,516,511,495,468,399,359,313,268,228,173,150,128,91],"timestamp_mouse":[10,29,49,69,89,109,129,149,169,189,210,229,249,269,289,309,329,349,369,389,409,429,449,469,489,509,530,550,569,589,609,629,649,669,689,710,729,750,770],"xSR":741.5,"ySR":481,"xT1":424.9,"yT1":0,"xT2":1058.1,"yT2":0,"toosoon":0,"cond_shown":"Incongruent","ratio_trial":300,"L_num":4,"L_den":20,"R_num":2,"R_den":4,"correct_side":2,"subjID":"Geraldineavilajoaqui5","gender":"1","school":"6","age":"11"},{"start_time":1551790145356,"click_time":1551790146587,"finger_time":1551790146165,"fix_duration":250,"trial":27,"RT":809,"MT":422,"sideResp":1,"stimulus":[],"xmouse":[785,785,785,785,785,785,785,785,785,785,786,786,789,791,793,795,795,796,796,796,796,796,796,796,796,796,796,796,796,796,796,796,796,796,796,796,796,796,789,777,757,744,712,693,673,652,635,602,591,583,577,575,574,574,574,574,574,573,568,564,547,522],"ymouse":[547,547,547,547,547,547,547,547,547,547,547,547,547,547,547,547,547,547,547,547,547,547,547,547,547,547,547,547,547,547,547,547,547,547,547,547,545,535,520,502,470,446,387,353,316,279,250,200,182,165,149,140,133,131,129,128,126,121,116,113,105,92],"timestamp_mouse":[9,29,49,69,90,109,129,149,169,189,210,229,250,269,289,309,329,349,369,389,409,429,449,469,489,509,530,549,569,589,609,629,649,669,689,709,730,750,769,789,809,830,849,869,889,909,929,949,970,990,1011,1030,1050,1069,1090,1111,1130,1149,1171,1191,1210,1231],"xSR":741.5,"ySR":481,"xT1":424.9,"yT1":0,"xT2":1058.1,"yT2":0,"toosoon":0,"cond_shown":"Incongruent","ratio_trial":200,"L_num":7,"L_den":10,"R_num":14,"R_den":28,"correct_side":1,"subjID":"Geraldineavilajoaqui5","gender":"1","school":"6","age":"11"},{"start_time":1551790147837,"click_time":1551790148865,"finger_time":1551790148406,"fix_duration":250,"trial":28,"RT":569,"MT":459,"sideResp":1,"stimulus":[],"xmouse":[782,782,782,782,782,782,782,782,782,782,782,782,782,782,782,782,782,783,783,783,783,783,783,783,783,783,781,778,762,751,736,716,694,663,650,638,624,616,602,597,587,580,575,569,566,561,555,543,522,513,508,504],"ymouse":[530,530,530,530,530,530,530,530,530,530,530,530,530,530,530,530,530,529,527,526,526,525,524,522,521,518,512,501,469,450,429,399,369,325,306,290,272,262,247,238,224,215,209,199,194,186,178,158,130,117,107,98],"timestamp_mouse":[8,28,48,68,88,108,129,148,168,188,208,228,250,270,290,310,329,349,370,390,409,429,450,468,489,508,528,548,569,588,608,628,648,668,689,708,729,748,769,788,809,829,848,868,888,908,928,948,968,988,1009,1028],"xSR":741.5,"ySR":481,"xT1":424.9,"yT1":0,"xT2":1058.1,"yT2":0,"toosoon":0,"cond_shown":"Incongruent","ratio_trial":300,"L_num":3,"L_den":6,"R_num":4,"R_den":20,"correct_side":1,"subjID":"Geraldineavilajoaqui5","gender":"1","school":"6","age":"11"},{"start_time":1551790150793,"click_time":1551790152065,"finger_time":1551790151705,"fix_duration":1085.7831789499623,"trial":29,"RT":912,"MT":360,"sideResp":1,"stimulus":[],"xmouse":[785,785,785,785,785,785,785,785,786,786,786,786,786,786,786,786,786,786,786,786,786,786,786,786,786,786,786,786,786,787,790,791,791,792,792,792,792,792,792,792,792,790,787,780,769,732,700,655,610,555,531,526,523,522,522,522,521,520,520,520,518,518,518,517],"ymouse":[546,546,545,545,545,545,545,545,545,545,545,545,545,545,545,545,545,545,545,545,545,545,545,545,545,545,545,545,545,544,542,541,541,541,541,541,541,541,541,541,538,533,526,513,497,444,407,351,297,229,186,172,160,152,146,134,128,123,119,114,107,103,101,99],"timestamp_mouse":[13,32,52,72,92,112,132,152,173,192,212,232,254,274,294,314,333,354,373,394,413,433,453,473,493,512,532,552,572,592,613,632,653,672,692,712,732,752,772,792,813,833,852,872,892,912,933,953,973,992,1012,1032,1053,1073,1092,1113,1133,1153,1173,1193,1212,1232,1252,1272],"xSR":741.5,"ySR":481,"xT1":424.9,"yT1":0,"xT2":1058.1,"yT2":0,"toosoon":0,"cond_shown":"Congruent","ratio_trial":100,"L_num":2,"L_den":5,"R_num":6,"R_den":12,"correct_side":2,"subjID":"Geraldineavilajoaqui5","gender":"1","school":"6","age":"11"},{"start_time":1551790168800,"click_time":1551790170505,"finger_time":1551790169985,"fix_duration":813.0028033732423,"trial":30,"RT":1185,"MT":520,"sideResp":2,"stimulus":[],"xmouse":[823,823,823,823,823,823,823,823,823,823,824,824,824,824,824,824,824,824,825,825,825,825,825,825,826,828,830,830,831,831,831,831,831,831,831,831,831,831,831,831,831,830,830,830,830,830,830,830,830,830,830,830,830,830,830,830,829,833,840,851,877,887,897,903,904,905,905,905,905,905,906,910,920,934,949,984,996,1006,1021,1042,1052,1066,1080,1099,1126,1133],"ymouse":[552,552,552,552,552,552,552,552,552,552,550,547,545,544,542,541,540,539,538,537,537,536,535,533,532,529,527,525,525,524,524,524,524,521,520,519,518,518,518,518,518,518,518,518,518,518,518,518,518,518,518,518,518,518,518,518,518,514,507,500,482,474,470,464,462,461,461,461,461,461,457,447,425,393,356,272,245,222,194,166,155,144,133,120,103,98],"timestamp_mouse":[5,25,45,65,85,105,125,145,165,185,205,225,246,265,286,306,325,346,365,385,405,425,446,466,485,506,525,545,565,585,605,625,645,665,686,706,726,745,765,785,805,825,846,865,885,905,925,945,965,985,1005,1026,1045,1065,1085,1105,1125,1145,1165,1185,1205,1225,1245,1265,1286,1307,1327,1347,1366,1386,1406,1426,1446,1466,1486,1506,1527,1547,1566,1587,1606,1625,1646,1666,1687,1705],"xSR":741.5,"ySR":481,"xT1":424.9,"yT1":0,"xT2":1058.1,"yT2":0,"toosoon":0,"cond_shown":"Incongruent","ratio_trial":300,"L_num":13,"L_den":26,"R_num":12,"R_den":15,"correct_side":2,"subjID":"Geraldineavilajoaqui5","gender":"1","school":"6","age":"11"},{"start_time":1551790174569,"click_time":1551790175885,"finger_time":1551790175365,"fix_duration":1262.747197440938,"trial":31,"RT":796,"MT":520,"sideResp":2,"stimulus":[],"xmouse":[772,772,772,772,772,772,772,772,772,772,772,772,772,772,772,772,772,772,772,772,772,772,772,772,772,772,772,772,772,772,772,772,772,772,772,772,780,794,816,864,903,969,989,1003,1012,1013,1016,1016,1016,1016,1016,1016,1016,1014,1012,1012,1012,1012,1012,1014,1015,1025,1034,1045,1056,1066],"ymouse":[542,542,542,542,542,542,542,542,542,542,542,542,542,542,542,542,542,542,542,542,542,542,542,542,542,542,542,542,542,542,542,542,542,542,542,542,535,518,488,422,367,287,261,241,227,221,210,208,207,204,202,196,190,180,171,166,157,155,153,148,145,133,124,113,98,79],"timestamp_mouse":[17,36,56,76,96,116,136,156,176,196,216,236,256,276,296,316,336,356,376,396,416,436,456,476,496,516,536,556,576,596,616,636,656,676,696,716,737,756,776,796,816,837,856,876,896,916,937,956,977,996,1017,1036,1057,1076,1096,1116,1137,1156,1177,1196,1217,1236,1257,1276,1296,1316],"xSR":741.5,"ySR":481,"xT1":424.9,"yT1":0,"xT2":1058.1,"yT2":0,"toosoon":0,"cond_shown":"Congruent","ratio_trial":300,"L_num":5,"L_den":25,"R_num":7,"R_den":14,"correct_side":2,"subjID":"Geraldineavilajoaqui5","gender":"1","school":"6","age":"11"},{"start_time":1551790178289,"click_time":1551790179567,"finger_time":1551790179005,"fix_duration":1343.777109954283,"trial":32,"RT":716,"MT":562,"sideResp":1,"stimulus":[],"xmouse":[776,776,776,776,776,776,776,776,776,776,776,776,776,776,776,776,776,776,776,776,776,776,776,776,776,776,776,776,776,776,777,777,777,777,774,750,722,694,669,647,607,595,590,589,589,589,594,596,598,596,581,575,569,566,561,547,542,537,533,527,513,506,495,477],"ymouse":[547,547,547,547,547,547,547,547,547,547,547,547,547,547,547,547,547,547,547,547,547,547,547,547,547,547,547,547,547,545,542,538,533,524,512,474,442,411,388,369,338,328,323,322,322,317,309,304,295,279,242,228,215,206,194,170,163,157,151,145,132,125,111,88],"timestamp_mouse":[16,36,56,76,96,116,136,156,176,196,216,236,256,276,296,316,336,356,376,396,416,436,456,476,496,516,536,556,576,596,617,636,657,676,696,716,737,757,777,797,817,836,857,877,897,916,936,957,976,996,1016,1037,1057,1076,1097,1118,1137,1158,1177,1197,1217,1238,1257,1278],"xSR":741.5,"ySR":481,"xT1":424.9,"yT1":0,"xT2":1058.1,"yT2":0,"toosoon":0,"cond_shown":"Congruent","ratio_trial":300,"L_num":1,"L_den":3,"R_num":19,"R_den":30,"correct_side":2,"subjID":"Geraldineavilajoaqui5","gender":"1","school":"6","age":"11"},{"start_time":1551790183955,"click_time":1551790185605,"finger_time":1551790185207,"fix_duration":1049.4402695431395,"trial":33,"RT":1252,"MT":398,"sideResp":2,"stimulus":[],"xmouse":[777,778,778,778,778,778,778,778,778,778,778,778,778,778,778,778,778,778,778,778,778,778,778,778,778,778,778,778,778,778,778,778,778,778,778,778,778,778,778,778,778,778,778,778,778,778,778,778,778,778,778,778,778,780,781,782,783,785,787,795,805,817,848,871,897,922,941,961,965,972,975,979,987,991,995,998,1004,1009,1016,1029,1039,1051,1075],"ymouse":[525,525,525,525,525,525,525,525,525,525,525,525,525,525,525,525,525,525,525,525,525,525,525,525,525,525,525,525,525,525,525,525,525,525,525,525,525,525,525,525,525,525,525,525,525,525,525,525,525,525,525,525,525,525,525,525,525,523,520,509,497,485,439,408,365,323,289,245,229,203,192,178,160,154,148,144,137,132,127,118,111,102,85],"timestamp_mouse":[10,30,50,70,91,110,130,150,170,190,210,230,250,270,290,310,330,350,370,390,410,430,450,470,490,510,530,550,570,590,610,630,650,670,690,710,730,750,770,790,810,830,850,870,890,910,930,950,970,990,1010,1030,1052,1072,1092,1111,1132,1151,1172,1191,1212,1231,1252,1271,1291,1310,1331,1350,1371,1390,1411,1431,1450,1470,1490,1510,1531,1550,1570,1590,1611,1630,1650],"xSR":741.5,"ySR":481,"xT1":424.9,"yT1":0,"xT2":1058.1,"yT2":0,"toosoon":0,"cond_shown":"Congruent","ratio_trial":300,"L_num":20,"L_den":25,"R_num":8,"R_den":16,"correct_side":1,"subjID":"Geraldineavilajoaqui5","gender":"1","school":"6","age":"11"},{"start_time":1551790187716,"click_time":1551790189046,"finger_time":1551790188567,"fix_duration":751.9648475013422,"trial":34,"RT":851,"MT":479,"sideResp":1,"stimulus":[],"xmouse":[743,743,743,743,751,762,776,791,803,816,817,817,817,817,817,817,817,816,813,809,808,808,808,808,808,808,808,808,808,808,808,808,808,808,808,808,808,808,808,807,804,790,741,691,580,544,512,475,435,372,372,372,372,372,372,372,372,372,372,372,372,372,372,372,372,372,463],"ymouse":[546,546,546,546,547,544,537,528,519,506,505,504,504,504,504,504,504,504,504,504,504,504,504,504,504,504,504,504,504,504,504,504,504,504,504,504,504,504,504,504,503,487,432,380,284,247,208,156,101,3,3,3,3,3,3,3,3,3,3,3,3,3,3,3,3,3,19],"timestamp_mouse":[9,30,49,69,89,110,129,149,169,190,209,229,249,269,289,309,329,350,369,389,409,429,449,469,489,509,529,549,569,589,609,629,649,669,689,709,729,749,769,789,811,831,851,870,891,910,931,950,970,990,1010,1030,1050,1070,1089,1109,1129,1149,1171,1189,1209,1230,1250,1269,1289,1309,1330],"xSR":741.5,"ySR":481,"xT1":424.9,"yT1":0,"xT2":1058.1,"yT2":0,"toosoon":0,"cond_shown":"Congruent","ratio_trial":300,"L_num":1,"L_den":5,"R_num":6,"R_den":12,"correct_side":2,"subjID":"Geraldineavilajoaqui5","gender":"1","school":"6","age":"11"},{"start_time":1551790194022,"click_time":1551790195526,"finger_time":1551790195065,"fix_duration":1435.0499791215354,"trial":35,"RT":1043,"MT":461,"sideResp":2,"stimulus":[],"xmouse":[768,769,769,769,769,769,769,770,770,770,770,770,770,770,772,775,780,785,788,788,788,788,788,788,788,788,788,788,787,785,785,785,785,785,785,785,785,785,785,785,785,785,785,785,785,785,784,785,788,798,810,830,850,875,957,1001,1035,1053,1061,1067,1068,1068,1067,1065,1056,1050,1045,1039,1036,1036,1036,1041,1048,1059,1063,1069],"ymouse":[528,528,528,528,528,528,528,527,526,526,526,526,526,526,526,526,526,526,526,526,526,526,526,526,526,526,526,526,526,526,526,526,526,526,526,526,526,526,526,526,526,526,526,526,526,526,525,523,520,510,501,487,468,442,356,316,282,259,247,233,228,223,216,208,189,177,165,152,143,131,125,120,113,103,101,98],"timestamp_mouse":[3,24,43,63,91,103,123,143,163,184,203,224,245,264,283,305,324,343,364,383,403,423,443,464,483,503,523,544,563,583,604,624,643,664,684,705,725,745,764,784,804,823,843,863,883,903,923,943,964,983,1003,1024,1043,1063,1083,1103,1124,1143,1164,1185,1204,1224,1243,1263,1283,1303,1323,1344,1363,1384,1403,1423,1443,1464,1483,1504],"xSR":741.5,"ySR":481,"xT1":424.9,"yT1":0,"xT2":1058.1,"yT2":0,"toosoon":0,"cond_shown":"Incongruent","ratio_trial":100,"L_num":13,"L_den":26,"R_num":12,"R_den":20,"correct_side":2,"subjID":"Geraldineavilajoaqui5","gender":"1","school":"6","age":"11"},{"start_time":1551790197689,"click_time":1551790199226,"finger_time":1551790198805,"fix_duration":1003.6259316104633,"trial":36,"RT":1116,"MT":421,"sideResp":1,"stimulus":[],"xmouse":[805,805,805,805,805,805,805,805,805,805,805,805,805,805,805,805,805,805,805,805,805,805,805,805,805,805,805,805,805,805,805,805,805,805,805,805,805,805,805,805,805,805,805,805,805,805,805,805,805,805,805,805,803,801,795,773,759,730,690,648,566,533,511,493,467,459,451,445,442,440,440,441,444,451,459,474,478],"ymouse":[522,522,522,522,522,522,522,522,522,522,522,522,522,522,522,522,522,522,522,522,522,522,522,522,522,522,522,522,522,522,522,522,522,522,522,522,522,522,522,522,522,522,522,522,522,522,522,522,522,522,522,522,521,518,506,466,440,397,349,307,243,220,204,191,168,160,152,145,141,134,130,125,121,114,111,101,97],"timestamp_mouse":[16,38,56,77,97,116,136,157,177,197,217,237,256,277,297,318,337,358,376,396,416,436,456,476,497,516,536,556,576,596,616,636,656,676,696,716,736,757,776,796,816,836,856,876,896,916,936,956,976,996,1016,1036,1056,1076,1096,1116,1137,1156,1177,1196,1216,1236,1256,1277,1297,1316,1336,1356,1377,1398,1416,1437,1457,1476,1496,1516,1536],"xSR":741.5,"ySR":481,"xT1":424.9,"yT1":0,"xT2":1058.1,"yT2":0,"toosoon":0,"cond_shown":"Congruent","ratio_trial":300,"L_num":4,"L_den":10,"R_num":1,"R_den":10,"correct_side":1,"subjID":"Geraldineavilajoaqui5","gender":"1","school":"6","age":"11"},{"start_time":1551790200664,"click_time":1551790202087,"finger_time":1551790201626,"fix_duration":396.89381895002174,"trial":37,"RT":962,"MT":461,"sideResp":1,"stimulus":[],"xmouse":[769,769,769,769,769,769,769,769,769,769,769,769,769,769,769,769,769,769,769,769,769,769,769,769,769,769,769,769,769,769,769,769,769,769,769,770,770,770,770,770,770,770,770,770,770,770,769,764,759,745,728,677,644,612,586,560,560,560,560,560,560,560,560,560,560,560,560,538,534,530,526,522],"ymouse":[502,502,502,502,502,502,502,502,502,502,502,502,502,502,502,502,502,502,502,502,502,502,502,502,502,502,502,502,502,502,502,502,502,502,502,501,501,501,501,501,501,501,501,501,499,498,496,486,477,445,402,283,208,128,61,2,2,2,2,2,2,2,2,2,2,2,2,26,39,53,64,72],"timestamp_mouse":[7,21,41,62,81,102,121,141,162,183,202,221,241,261,281,301,321,341,361,381,402,423,441,461,482,501,522,541,561,583,603,623,643,663,681,702,721,743,761,782,803,822,842,862,881,903,922,942,962,983,1003,1022,1041,1061,1083,1102,1122,1142,1162,1183,1203,1223,1242,1262,1283,1301,1321,1342,1362,1381,1402,1423],"xSR":741.5,"ySR":481,"xT1":424.9,"yT1":0,"xT2":1058.1,"yT2":0,"toosoon":0,"cond_shown":"Congruent","ratio_trial":300,"L_num":4,"L_den":10,"R_num":1,"R_den":10,"correct_side":1,"subjID":"Geraldineavilajoaqui5","gender":"1","school":"6","age":"11"},{"start_time":1551790204986,"click_time":1551790206047,"finger_time":1551790205806,"fix_duration":337.626701004787,"trial":38,"RT":820,"MT":241,"sideResp":2,"stimulus":[],"xmouse":[805,805,805,805,805,805,805,805,805,805,805,805,805,805,805,805,805,805,805,805,805,805,805,805,805,805,805,805,805,805,805,805,805,805,805,805,805,805,805,809,823,859,883,908,931,964,975,985,995,1006,1021,1042,1051,1059],"ymouse":[551,551,551,551,551,551,551,551,551,551,551,551,551,551,551,551,551,551,551,551,551,551,551,551,551,551,551,551,551,551,551,551,551,550,550,549,547,546,543,536,508,425,368,309,265,197,177,163,147,133,114,88,73,63],"timestamp_mouse":[1,32,40,60,79,101,120,140,160,180,200,221,241,260,280,300,319,341,360,381,399,420,440,460,479,501,519,541,560,580,599,620,640,661,681,701,721,740,761,780,800,820,840,860,881,901,919,940,960,980,1000,1020,1040,1061],"xSR":741.5,"ySR":481,"xT1":424.9,"yT1":0,"xT2":1058.1,"yT2":0,"toosoon":0,"cond_shown":"Incongruent","ratio_trial":200,"L_num":14,"L_den":30,"R_num":12,"R_den":18,"correct_side":2,"subjID":"Geraldineavilajoaqui5","gender":"1","school":"6","age":"11"},{"start_time":1551790207856,"click_time":1551790209587,"finger_time":1551790209026,"fix_duration":888.7277011005001,"trial":39,"RT":1170,"MT":561,"sideResp":1,"stimulus":[],"xmouse":[777,777,775,775,775,775,775,775,775,775,775,775,775,775,775,775,775,775,775,775,775,775,775,775,775,775,774,773,773,773,772,772,771,771,771,771,771,771,771,771,771,771,771,770,770,770,770,770,770,770,770,770,770,770,773,782,805,816,826,830,833,834,834,834,834,834,834,834,821,801,783,769,746,742,740,740,737,733,731,725,721,710,665,634,594,551,485],"ymouse":[525,527,529,529,529,529,529,529,529,529,529,529,529,529,529,529,529,529,529,529,529,529,529,529,529,529,529,528,528,528,527,526,525,525,525,525,525,525,525,525,525,525,524,523,523,523,523,523,523,523,523,523,521,520,517,511,492,481,470,463,458,458,458,458,458,458,458,457,457,457,457,457,459,459,459,459,459,459,459,459,453,436,354,294,225,152,52],"timestamp_mouse":[10,31,51,69,90,110,130,150,170,190,211,230,250,271,290,310,331,350,371,389,410,430,450,470,489,511,530,549,570,591,610,630,650,670,691,710,730,749,771,789,811,830,850,870,889,911,930,950,969,990,1010,1030,1049,1070,1090,1110,1130,1150,1170,1190,1210,1231,1249,1270,1290,1310,1330,1350,1370,1391,1410,1430,1450,1470,1490,1510,1530,1550,1570,1590,1610,1630,1650,1670,1690,1710,1731],"xSR":741.5,"ySR":481,"xT1":424.9,"yT1":0,"xT2":1058.1,"yT2":0,"toosoon":0,"cond_shown":"Congruent","ratio_trial":300,"L_num":20,"L_den":25,"R_num":5,"R_den":10,"correct_side":1,"subjID":"Geraldineavilajoaqui5","gender":"1","school":"6","age":"11"},{"start_time":1551790211754,"click_time":1551790215387,"finger_time":1551790214025,"fix_duration":1246.576394806692,"trial":40,"RT":2271,"MT":1362,"sideResp":2,"stimulus":[],"xmouse":[788,788,788,788,788,788,788,788,788,788,788,788,787,787,787,787,787,787,787,787,787,787,787,787,787,787,787,787,787,787,787,787,787,787,787,787,787,787,787,787,787,787,787,787,787,787,787,787,787,787,787,787,787,787,787,787,787,787,787,787,787,787,787,787,787,787,787,787,787,787,787,787,787,787,787,787,787,787,787,787,787,787,787,787,787,787,787,787,787,787,787,787,787,787,787,787,787,787,787,787,787,787,787,787,787,787,787,787,787,787,793,803,840,864,893,919,936,958,966,973,978,987,1002,1011,1017,1020,1022,1023,1023,1023,1024,1025,1027,1028,1029,1029,1029,1029,1029,1029,1029,1029,1029,1029,1029,1029,1029,1029,1029,1029,1029,1029,1029,1029,1031,1033,1041,1045,1047,1049,1052,1057,1061,1065,1068,1071,1075,1079,1081,1083,1083,1084,1084,1084,1084,1083,1083,1082,1081,1081,1081,1080],"ymouse":[542,542,542,542,542,541,540,540,539,538,537,537,536,536,536,536,536,536,535,535,533,533,533,532,530,530,529,528,528,528,528,528,528,528,528,528,528,528,528,528,528,528,528,528,528,528,528,528,528,528,528,528,528,528,528,528,528,528,528,528,528,528,528,528,528,528,528,528,528,528,528,528,528,528,528,528,528,528,528,528,528,528,528,528,528,528,528,528,528,528,528,528,528,528,528,528,528,528,528,528,528,528,528,528,528,528,528,528,528,527,522,515,485,459,418,379,350,310,297,286,278,264,244,231,221,213,207,199,197,195,192,190,186,183,180,180,180,180,180,180,180,180,180,180,179,179,179,179,179,179,179,179,179,178,175,174,168,166,164,163,161,156,154,151,149,146,143,139,136,133,131,129,128,126,123,119,115,113,109,108,105,96],"timestamp_mouse":[12,39,52,72,92,113,133,152,171,192,212,232,253,272,292,312,332,352,371,392,413,431,452,472,492,512,533,552,571,591,611,633,651,672,691,712,732,752,772,793,812,833,851,872,892,913,933,952,971,993,1012,1032,1052,1072,1092,1113,1131,1152,1171,1193,1212,1233,1251,1272,1292,1312,1332,1353,1373,1391,1412,1432,1452,1473,1492,1512,1531,1552,1571,1593,1612,1632,1652,1671,1693,1712,1732,1753,1772,1792,1812,1833,1851,1872,1892,1911,1933,1952,1972,1992,2011,2032,2052,2072,2093,2112,2132,2151,2173,2192,2211,2233,2252,2271,2292,2312,2332,2352,2372,2393,2411,2432,2452,2472,2493,2513,2532,2551,2572,2592,2613,2632,2653,2672,2693,2712,2732,2752,2772,2792,2812,2831,2853,2872,2893,2912,2931,2951,2972,2992,3014,3032,3053,3071,3093,3112,3133,3152,3172,3192,3212,3233,3252,3272,3293,3313,3331,3351,3372,3392,3412,3433,3451,3472,3492,3512,3533,3552,3572,3592,3612,3633],"xSR":741.5,"ySR":481,"xT1":424.9,"yT1":0,"xT2":1058.1,"yT2":0,"toosoon":0,"cond_shown":"Congruent","ratio_trial":200,"L_num":8,"L_den":15,"R_num":7,"R_den":21,"correct_side":1,"subjID":"Geraldineavilajoaqui5","gender":"1","school":"6","age":"11"},{"start_time":1551790218047,"click_time":1551790219406,"finger_time":1551790219066,"fix_duration":840.9792421699765,"trial":41,"RT":1019,"MT":340,"sideResp":2,"stimulus":[],"xmouse":[786,786,786,786,786,786,786,786,786,786,786,786,786,786,786,786,786,786,786,786,786,786,786,786,786,786,786,786,786,786,786,786,786,786,786,786,786,786,786,786,786,786,786,786,786,786,786,786,787,793,815,853,934,968,992,1006,1024,1025,1026,1027,1027,1028,1030,1031,1033,1036,1054,1071],"ymouse":[498,495,488,487,487,487,487,487,487,487,487,487,487,487,487,487,487,487,487,487,487,487,487,487,487,487,487,487,487,487,487,487,487,487,487,487,487,487,487,487,487,487,487,487,487,487,487,487,487,482,467,434,311,246,182,130,59,50,45,43,40,39,36,35,33,32,30,29],"timestamp_mouse":[19,39,59,80,100,118,140,159,180,199,220,239,260,278,299,319,339,358,380,399,420,439,459,478,499,518,539,560,579,598,619,639,660,679,699,719,739,759,780,799,819,839,859,879,899,918,939,959,979,1000,1019,1039,1059,1080,1100,1120,1140,1158,1179,1199,1219,1238,1259,1279,1300,1319,1340,1359],"xSR":741.5,"ySR":481,"xT1":424.9,"yT1":0,"xT2":1058.1,"yT2":0,"toosoon":0,"cond_shown":"Congruent","ratio_trial":200,"L_num":6,"L_den":20,"R_num":11,"R_den":22,"correct_side":2,"subjID":"Geraldineavilajoaqui5","gender":"1","school":"6","age":"11"},{"start_time":1551790221439,"click_time":1551790223206,"finger_time":1551790222546,"fix_duration":851.1503561011784,"trial":42,"RT":1107,"MT":660,"sideResp":2,"stimulus":[],"xmouse":[788,788,788,788,788,788,788,788,788,788,788,788,788,788,788,788,788,788,788,788,788,788,788,788,788,788,788,788,788,788,788,788,788,788,788,788,788,788,788,788,788,788,788,788,788,788,788,788,788,788,788,788,800,816,839,864,906,933,985,1011,1031,1046,1053,1053,1053,1053,1053,1053,1057,1060,1063,1066,1069,1078,1083,1086,1089,1094,1103,1107,1109,1109,1110,1110,1111,1111,1111,1112,1113],"ymouse":[514,514,514,514,514,514,514,514,514,514,514,514,514,514,514,514,514,514,514,514,514,514,514,514,514,514,514,514,514,514,514,514,514,514,514,514,514,514,514,514,514,514,514,514,514,514,514,514,514,514,514,515,511,505,497,486,468,457,426,411,397,380,338,319,302,286,271,252,228,217,204,194,183,165,158,153,148,143,132,127,124,121,120,119,117,112,107,104,94],"timestamp_mouse":[9,28,48,68,87,107,128,146,168,187,207,227,247,266,288,308,327,347,366,388,406,428,447,467,487,506,527,548,566,588,606,627,647,667,688,706,728,747,767,787,807,828,847,867,887,908,926,947,968,988,1008,1027,1048,1067,1087,1107,1127,1147,1166,1187,1207,1226,1248,1267,1287,1307,1327,1346,1367,1386,1408,1426,1447,1467,1487,1506,1527,1547,1568,1587,1607,1627,1649,1667,1687,1707,1727,1747,1766],"xSR":741.5,"ySR":481,"xT1":424.9,"yT1":0,"xT2":1058.1,"yT2":0,"toosoon":0,"cond_shown":"Congruent","ratio_trial":200,"L_num":16,"L_den":20,"R_num":12,"R_den":20,"correct_side":1,"subjID":"Geraldineavilajoaqui5","gender":"1","school":"6","age":"11"},{"start_time":1551790229739,"click_time":1551790231206,"finger_time":1551790230647,"fix_duration":471.45219133855795,"trial":43,"RT":908,"MT":559,"sideResp":2,"stimulus":[],"xmouse":[811,811,811,811,810,809,805,801,799,799,799,799,799,799,799,799,799,799,799,799,799,799,799,799,799,799,799,799,799,799,799,798,797,796,796,796,796,796,796,796,796,796,796,799,806,814,825,849,866,882,902,923,943,966,975,984,990,996,999,999,999,998,997,997,997,999,1002,1015,1021,1029,1035,1048,1057,1060],"ymouse":[524,524,524,524,525,525,525,526,526,526,526,526,526,526,526,526,526,526,526,526,526,526,526,526,526,526,526,526,526,526,526,526,526,526,526,526,526,526,526,526,526,525,520,497,483,466,447,409,388,368,348,333,314,285,270,253,236,217,194,189,186,182,170,163,153,140,128,107,97,86,76,62,50,47],"timestamp_mouse":[7,26,46,66,86,106,127,146,166,186,207,226,246,266,286,307,328,347,367,387,406,426,446,467,488,508,526,548,567,588,607,626,646,666,686,706,727,746,766,786,806,826,846,866,887,908,927,947,966,986,1007,1026,1046,1066,1087,1107,1127,1147,1166,1186,1207,1227,1248,1267,1287,1308,1328,1348,1367,1387,1407,1427,1448,1467],"xSR":741.5,"ySR":481,"xT1":424.9,"yT1":0,"xT2":1058.1,"yT2":0,"toosoon":0,"cond_shown":"Incongruent","ratio_trial":200,"L_num":1,"L_den":2,"R_num":3,"R_den":10,"correct_side":1,"subjID":"Geraldineavilajoaqui5","gender":"1","school":"6","age":"11"},{"start_time":1551790234600,"click_time":1551790235946,"finger_time":1551790235506,"fix_duration":733.2552297794124,"trial":44,"RT":906,"MT":440,"sideResp":1,"stimulus":[],"xmouse":[798,796,795,794,794,794,793,793,793,793,793,793,793,793,793,793,793,793,793,793,793,793,793,793,793,793,793,793,793,793,793,793,793,793,793,793,793,793,793,793,793,793,793,793,793,789,780,766,760,740,727,711,692,673,642,631,624,620,614,600,593,583,571,562,553,543,537,510],"ymouse":[537,537,536,535,535,535,535,535,535,535,535,535,535,535,535,535,535,535,535,534,534,534,534,534,534,534,534,534,534,534,534,534,534,534,534,534,532,529,525,524,524,522,520,515,493,479,466,442,434,393,375,356,334,315,286,275,265,257,249,226,213,199,183,166,149,123,102,7],"timestamp_mouse":[5,25,45,65,87,105,126,147,167,187,207,226,246,266,286,306,326,346,366,386,406,426,446,466,486,506,527,545,565,586,605,627,646,667,687,706,727,747,767,786,806,826,847,867,886,906,926,947,967,987,1005,1026,1047,1066,1087,1106,1126,1146,1166,1187,1207,1226,1246,1267,1286,1306,1326,1346],"xSR":741.5,"ySR":481,"xT1":424.9,"yT1":0,"xT2":1058.1,"yT2":0,"toosoon":0,"cond_shown":"Congruent","ratio_trial":200,"L_num":21,"L_den":30,"R_num":2,"R_den":4,"correct_side":1,"subjID":"Geraldineavilajoaqui5","gender":"1","school":"6","age":"11"},{"start_time":1551790237276,"click_time":1551790239127,"finger_time":1551790238706,"fix_duration":250,"trial":45,"RT":1430,"MT":421,"sideResp":1,"stimulus":[],"xmouse":[820,820,820,820,820,820,820,820,820,820,818,817,814,808,806,805,805,805,805,805,805,805,805,805,805,805,805,805,805,805,805,805,805,805,805,805,805,805,805,805,805,805,805,805,806,806,807,808,808,808,808,809,810,810,810,810,810,810,810,810,810,810,810,810,810,810,810,811,811,807,800,774,753,731,686,660,623,609,596,586,581,575,573,571,570,568,566,562,558,549,541,519,510],"ymouse":[503,503,503,503,503,503,503,503,503,503,506,508,512,518,521,522,524,524,524,524,524,524,524,524,524,524,524,524,524,524,524,524,524,524,524,524,524,524,524,524,524,524,524,524,524,524,524,523,523,523,523,523,523,523,523,523,523,523,523,523,523,523,523,523,523,523,523,521,519,510,499,463,436,409,368,348,318,306,289,274,265,252,244,238,226,209,200,186,169,149,131,103,92],"timestamp_mouse":[14,30,50,70,90,110,130,150,171,190,210,230,251,270,289,310,329,349,369,391,410,429,450,469,490,510,531,550,570,590,610,630,650,670,690,710,729,749,770,789,809,829,849,871,890,909,930,950,971,991,1011,1030,1050,1070,1089,1110,1130,1149,1170,1189,1211,1230,1250,1270,1291,1311,1330,1350,1370,1389,1409,1430,1449,1470,1489,1509,1529,1549,1569,1589,1609,1630,1650,1670,1689,1710,1731,1750,1769,1790,1811,1830,1851],"xSR":741.5,"ySR":481,"xT1":424.9,"yT1":0,"xT2":1058.1,"yT2":0,"toosoon":0,"cond_shown":"Incongruent","ratio_trial":300,"L_num":4,"L_den":20,"R_num":2,"R_den":4,"correct_side":2,"subjID":"Geraldineavilajoaqui5","gender":"1","school":"6","age":"11"},{"start_time":1551790241692,"click_time":1551790243747,"finger_time":1551790243227,"fix_duration":1166.9321590375594,"trial":46,"RT":1535,"MT":520,"sideResp":2,"stimulus":[],"xmouse":[808,808,808,808,808,808,808,808,808,808,808,808,808,808,808,808,808,808,808,808,808,808,808,808,808,808,808,808,808,808,808,808,808,808,808,808,808,807,807,807,807,807,807,807,807,807,807,807,807,807,807,807,807,807,807,807,807,807,807,807,807,807,807,807,807,807,807,807,807,807,807,807,807,807,807,810,821,838,861,890,936,957,971,981,981,981,981,981,981,981,981,981,981,981,981,981,981,981,981,981,981,981,1133],"ymouse":[538,538,538,538,538,538,538,538,538,538,538,538,538,538,538,538,538,538,538,538,538,538,538,538,538,538,538,538,538,538,538,538,538,538,538,538,538,536,534,526,520,516,512,509,505,497,496,496,496,496,496,496,496,496,496,496,496,496,496,496,496,496,496,496,496,496,496,496,496,496,496,496,496,496,495,488,472,439,383,316,174,108,56,9,9,9,9,9,9,9,9,9,9,9,9,9,9,9,9,9,9,9,2],"timestamp_mouse":[16,35,54,75,94,114,134,155,174,194,215,234,254,273,294,314,333,355,374,394,415,434,453,474,494,515,535,554,574,594,615,633,653,673,694,713,733,753,773,794,814,834,854,874,894,914,935,954,975,995,1014,1034,1054,1074,1094,1114,1134,1155,1174,1193,1214,1233,1254,1273,1293,1315,1335,1354,1374,1394,1413,1434,1454,1474,1493,1514,1535,1554,1574,1595,1614,1635,1654,1674,1694,1715,1734,1754,1774,1795,1813,1834,1854,1874,1895,1915,1934,1954,1974,1994,2014,2034,2055],"xSR":741.5,"ySR":481,"xT1":424.9,"yT1":0,"xT2":1058.1,"yT2":0,"toosoon":0,"cond_shown":"Congruent","ratio_trial":200,"L_num":6,"L_den":20,"R_num":11,"R_den":22,"correct_side":2,"subjID":"Geraldineavilajoaqui5","gender":"1","school":"6","age":"11"},{"start_time":1551790245210,"click_time":1551790246726,"finger_time":1551790246305,"fix_duration":484.6228761645516,"trial":47,"RT":1095,"MT":421,"sideResp":1,"stimulus":[],"xmouse":[823,823,823,823,823,823,823,823,823,823,823,823,823,823,823,823,823,823,823,823,823,823,823,823,823,823,823,823,823,823,823,823,823,823,823,823,823,823,823,823,823,823,823,823,823,823,823,823,823,823,823,818,811,797,748,700,647,608,574,556,552,549,547,544,531,524,516,505,501,500,500,500,499,492,484,474],"ymouse":[560,560,560,560,560,560,560,560,560,560,560,560,560,560,560,560,560,560,560,560,560,560,560,560,560,560,560,560,560,560,560,560,560,560,560,560,560,560,560,560,560,560,560,560,560,560,560,560,560,560,560,552,545,523,451,390,331,285,248,222,216,212,210,207,194,187,176,161,154,150,150,149,146,128,110,86],"timestamp_mouse":[16,37,56,76,95,116,135,156,176,196,216,236,256,277,296,317,337,356,376,396,415,437,457,476,497,516,537,556,576,596,617,636,656,676,696,715,735,756,776,795,815,836,855,876,895,917,936,956,976,995,1016,1036,1055,1075,1095,1115,1135,1156,1175,1195,1216,1235,1256,1275,1296,1316,1336,1356,1376,1396,1416,1436,1456,1477,1496,1516],"xSR":741.5,"ySR":481,"xT1":424.9,"yT1":0,"xT2":1058.1,"yT2":0,"toosoon":0,"cond_shown":"Incongruent","ratio_trial":200,"L_num":1,"L_den":3,"R_num":2,"R_den":15,"correct_side":1,"subjID":"Geraldineavilajoaqui5","gender":"1","school":"6","age":"11"},{"start_time":1551790249358,"click_time":1551790251946,"finger_time":1551790251506,"fix_duration":250,"trial":48,"RT":2148,"MT":440,"sideResp":2,"stimulus":[],"xmouse":[776,776,776,776,776,776,776,776,776,776,776,776,776,776,776,776,776,776,776,776,776,776,776,776,776,776,776,776,776,776,776,776,776,776,776,776,776,776,776,776,776,776,776,776,776,776,776,776,776,776,776,776,776,776,776,776,776,776,776,776,776,776,776,776,776,778,780,781,782,783,786,789,792,793,794,796,803,809,813,817,819,820,822,822,822,822,822,822,822,822,822,823,823,823,824,824,824,824,824,824,824,824,824,825,830,832,836,845,858,872,895,910,936,953,964,972,989,997,1005,1016,1029,1034,1038,1038,1038,1038,1040,1052,1058,1059],"ymouse":[559,559,559,559,559,559,559,559,559,559,559,559,559,559,559,559,559,559,559,559,559,559,559,559,559,559,559,559,559,559,559,559,559,559,559,559,559,559,559,559,559,559,559,559,559,559,559,559,559,559,559,559,559,559,559,559,559,559,559,559,559,559,559,559,559,558,557,555,555,554,552,550,549,548,547,545,539,533,529,523,520,518,516,515,515,515,515,515,515,515,514,514,514,513,513,513,513,513,513,513,513,513,513,511,510,508,507,500,489,468,416,369,238,173,140,122,100,93,88,82,76,73,72,72,72,72,71,66,63,62],"timestamp_mouse":[8,28,49,69,88,109,128,148,168,188,208,228,247,269,287,307,329,348,369,389,409,427,449,468,489,507,527,548,568,589,609,628,649,668,689,707,728,747,767,787,807,828,849,868,888,908,928,949,968,989,1008,1029,1048,1068,1088,1108,1128,1149,1168,1188,1207,1227,1249,1268,1289,1308,1328,1347,1367,1387,1407,1427,1447,1468,1489,1507,1528,1547,1567,1587,1607,1628,1647,1667,1689,1707,1729,1749,1769,1789,1809,1829,1848,1869,1889,1907,1928,1947,1967,1987,2007,2027,2047,2069,2088,2107,2127,2148,2169,2188,2209,2228,2247,2267,2287,2308,2328,2348,2368,2388,2407,2428,2447,2467,2488,2508,2527,2548,2568,2588],"xSR":741.5,"ySR":481,"xT1":424.9,"yT1":0,"xT2":1058.1,"yT2":0,"toosoon":0,"cond_shown":"Incongruent","ratio_trial":100,"L_num":10,"L_den":25,"R_num":8,"R_den":16,"correct_side":2,"subjID":"Geraldineavilajoaqui5","gender":"1","school":"6","age":"11"},{"start_time":1551790253278,"click_time":1551790255306,"finger_time":1551790254727,"fix_duration":250,"trial":49,"RT":1449,"MT":579,"sideResp":2,"stimulus":[],"xmouse":[780,780,780,780,780,780,780,780,780,780,780,780,780,780,780,780,780,780,780,780,780,780,780,780,780,780,780,780,780,780,780,780,780,780,780,780,780,780,780,780,780,780,780,780,780,780,780,780,780,780,780,780,780,780,780,780,780,780,780,780,780,780,780,780,780,781,784,791,796,803,812,832,844,868,884,900,938,958,974,989,1002,1022,1031,1035,1039,1043,1050,1051,1054,1056,1056,1060,1062,1065,1066,1069,1069,1071,1074,1078,1081,1090],"ymouse":[567,567,567,568,568,568,568,568,568,568,568,568,568,568,568,568,568,568,568,568,568,568,568,568,568,568,568,568,568,568,568,568,568,568,568,568,568,568,568,568,568,568,568,568,568,568,568,568,568,568,568,568,568,568,568,568,568,568,568,568,568,568,568,568,568,567,566,561,557,554,549,536,528,512,498,484,452,435,420,408,393,369,358,348,335,316,282,260,239,221,206,179,168,156,150,141,138,134,129,123,114,96],"timestamp_mouse":[9,29,48,69,88,109,128,147,169,187,208,227,249,268,287,308,328,347,368,387,407,427,447,467,487,507,527,547,567,587,607,627,647,668,687,707,728,748,768,788,808,828,848,868,888,908,929,949,968,988,1008,1027,1047,1067,1088,1107,1127,1147,1167,1188,1207,1229,1248,1268,1288,1307,1329,1348,1368,1388,1408,1428,1449,1468,1488,1508,1528,1549,1569,1588,1608,1628,1648,1668,1687,1707,1729,1748,1767,1787,1807,1828,1848,1867,1888,1909,1929,1948,1969,1989,2008,2028],"xSR":741.5,"ySR":481,"xT1":424.9,"yT1":0,"xT2":1058.1,"yT2":0,"toosoon":0,"cond_shown":"Incongruent","ratio_trial":100,"L_num":10,"L_den":25,"R_num":9,"R_den":18,"correct_side":2,"subjID":"Geraldineavilajoaqui5","gender":"1","school":"6","age":"11"},{"start_time":1551790256880,"click_time":1551790259067,"finger_time":1551790258426,"fix_duration":573.4114813417245,"trial":50,"RT":1546,"MT":641,"sideResp":1,"stimulus":[],"xmouse":[784,784,784,784,784,784,784,784,784,784,784,784,784,784,784,784,784,784,784,784,784,784,784,784,784,784,784,784,784,784,784,784,784,784,784,784,784,784,784,784,784,784,784,784,784,784,784,784,784,784,784,784,784,784,784,784,784,784,784,784,784,784,784,784,784,784,784,784,784,784,784,784,784,784,783,776,768,754,739,721,687,674,660,647,632,626,619,618,618,617,617,610,606,601,592,577,571,568,564,562,560,556,555,552,550,545,538,533,529,523],"ymouse":[513,514,515,517,517,517,517,517,517,517,517,517,517,517,517,517,517,517,517,517,517,517,517,517,517,517,517,517,517,517,517,517,517,517,517,517,517,517,517,517,517,517,517,517,517,517,517,517,517,517,517,517,517,517,517,517,517,517,517,517,517,517,517,517,517,517,517,517,517,517,517,517,517,517,516,500,482,456,430,406,359,339,320,303,282,272,258,254,251,247,243,229,221,209,191,168,160,153,145,139,134,125,121,117,113,105,95,90,86,81],"timestamp_mouse":[6,28,47,66,86,106,126,146,165,185,207,226,247,266,286,306,327,346,366,385,405,426,446,465,485,506,526,547,566,585,607,626,646,666,686,706,726,746,766,787,807,826,847,866,886,905,927,946,967,985,1007,1026,1046,1066,1086,1105,1126,1147,1167,1186,1206,1226,1246,1266,1287,1306,1327,1346,1366,1387,1407,1426,1447,1465,1487,1506,1525,1546,1567,1586,1607,1625,1646,1667,1687,1706,1726,1747,1766,1785,1805,1826,1845,1867,1886,1907,1927,1946,1966,1986,2007,2026,2045,2066,2086,2106,2126,2146,2167,2187],"xSR":741.5,"ySR":481,"xT1":424.9,"yT1":0,"xT2":1058.1,"yT2":0,"toosoon":0,"cond_shown":"Congruent","ratio_trial":100,"L_num":3,"L_den":6,"R_num":2,"R_den":5,"correct_side":1,"subjID":"Geraldineavilajoaqui5","gender":"1","school":"6","age":"11"},{"start_time":1551790261117,"click_time":1551790263406,"finger_time":1551790262886,"fix_duration":1169.0804455787388,"trial":51,"RT":1769,"MT":520,"sideResp":2,"stimulus":[],"xmouse":[795,795,795,795,795,795,795,795,795,795,795,795,795,795,795,795,795,795,795,795,795,795,795,795,795,795,795,795,795,795,795,795,795,795,795,795,795,795,795,795,795,795,795,795,795,795,795,795,795,795,795,795,795,795,795,795,795,795,795,795,795,795,795,795,795,795,795,795,795,795,795,795,795,795,795,795,795,795,795,795,795,795,795,794,794,794,802,815,829,863,878,891,905,918,941,952,960,966,974,976,977,978,980,983,992,997,1002,1006,1012,1016,1022,1026,1033,1051,1059],"ymouse":[528,528,528,528,528,528,528,528,528,528,528,528,528,528,528,528,528,528,528,528,528,528,528,528,528,528,528,528,528,528,528,528,528,528,528,528,528,528,528,528,528,528,528,528,528,528,528,528,528,528,528,528,528,528,528,528,528,528,528,528,528,528,528,528,528,528,528,528,528,528,528,528,528,528,528,528,528,528,528,528,528,528,528,528,525,519,507,491,475,430,409,391,369,354,324,312,302,293,281,276,272,268,261,245,212,195,180,167,142,133,122,114,106,87,83],"timestamp_mouse":[9,29,48,68,88,108,128,149,169,189,210,230,250,269,289,309,329,350,369,389,409,429,449,469,489,509,529,549,569,589,609,629,649,669,689,709,729,749,769,789,809,829,849,869,889,909,929,949,969,989,1009,1029,1049,1069,1089,1109,1129,1149,1169,1189,1209,1229,1249,1269,1289,1309,1329,1349,1369,1389,1409,1429,1449,1469,1489,1509,1529,1549,1569,1589,1609,1629,1649,1668,1689,1710,1729,1749,1769,1790,1809,1829,1848,1869,1888,1910,1928,1948,1970,1989,2009,2030,2050,2070,2090,2109,2129,2149,2170,2190,2210,2230,2250,2270,2289],"xSR":741.5,"ySR":481,"xT1":424.9,"yT1":0,"xT2":1058.1,"yT2":0,"toosoon":0,"cond_shown":"Congruent","ratio_trial":300,"L_num":5,"L_den":25,"R_num":7,"R_den":14,"correct_side":2,"subjID":"Geraldineavilajoaqui5","gender":"1","school":"6","age":"11"},{"start_time":1551790265046,"click_time":1551790266626,"finger_time":1551790266087,"fix_duration":939.9222178786323,"trial":52,"RT":1041,"MT":539,"sideResp":1,"stimulus":[],"xmouse":[794,794,794,794,794,794,794,794,794,794,794,794,794,794,794,793,793,793,793,793,793,793,793,792,792,791,791,791,791,791,791,790,787,783,780,776,776,776,776,776,776,776,776,776,776,776,776,776,771,762,756,744,697,664,621,573,538,508,499,499,499,499,502,506,513,529,541,552,553,554,554,554,554,554,554,554,552,541,527,521],"ymouse":[540,540,540,540,540,540,540,540,540,540,540,540,540,540,540,540,540,540,540,540,540,540,540,540,540,540,540,540,540,540,540,540,540,540,540,540,540,540,540,540,540,540,540,540,540,540,540,540,536,528,521,507,465,437,401,361,330,299,280,275,273,269,252,239,220,192,172,145,141,140,139,139,138,136,131,128,120,102,83,76],"timestamp_mouse":[1,20,40,61,80,100,120,140,160,180,200,221,240,260,281,301,320,340,361,381,400,420,441,460,480,501,521,540,560,580,600,620,641,660,680,700,720,740,761,780,800,821,840,860,881,900,921,940,960,980,1001,1020,1041,1060,1080,1100,1120,1141,1160,1180,1201,1220,1241,1260,1280,1300,1321,1341,1360,1380,1400,1421,1441,1460,1480,1500,1520,1540,1560,1580],"xSR":741.5,"ySR":481,"xT1":424.9,"yT1":0,"xT2":1058.1,"yT2":0,"toosoon":0,"cond_shown":"Incongruent","ratio_trial":200,"L_num":4,"L_den":5,"R_num":6,"R_den":10,"correct_side":1,"subjID":"Geraldineavilajoaqui5","gender":"1","school":"6","age":"11"},{"start_time":1551790268763,"click_time":1551790270486,"finger_time":1551790270207,"fix_duration":1075.283255733229,"trial":53,"RT":1444,"MT":279,"sideResp":1,"stimulus":[],"xmouse":[798,798,798,798,798,798,798,798,798,798,798,798,798,798,798,798,798,798,798,798,798,798,798,798,798,798,798,798,798,798,798,798,798,798,798,798,798,798,798,798,798,798,798,798,798,798,798,798,798,799,802,803,808,811,813,814,814,814,814,814,814,814,814,814,814,814,8