[{"start_time":1551887001335,"click_time":1551887006854,"finger_time":1551887006193,"fix_duration":1456.948090881657,"trial":0,"RT":4858,"MT":661,"sideResp":1,"stimulus":[],"xmouse":[796,796,796,795,795,795,795,795,795,795,795,795,795,795,795,795,795,795,795,795,795,795,795,795,795,795,795,795,795,795,795,795,795,795,795,795,795,795,795,795,795,795,795,795,795,795,795,795,795,795,795,795,795,795,795,795,795,795,795,795,795,795,795,795,795,795,795,795,795,795,795,795,795,795,795,795,795,795,795,795,795,795,795,795,795,795,795,795,795,795,795,795,795,795,795,795,795,795,795,795,795,795,795,795,795,795,795,795,795,795,795,795,795,795,795,795,795,795,795,795,795,795,795,795,795,795,795,795,795,795,795,795,795,795,795,795,795,795,795,795,795,795,795,795,795,795,795,795,795,795,795,795,795,795,795,795,795,795,795,795,795,795,795,795,795,795,795,795,795,795,795,795,795,795,795,795,795,795,795,795,795,795,795,795,795,795,795,795,795,795,795,795,795,795,795,795,795,795,795,795,795,795,795,795,795,795,795,795,795,795,795,795,795,795,795,795,795,795,795,795,795,795,795,795,795,795,795,795,795,795,795,795,795,795,795,795,795,795,795,795,795,795,784,726,677,665,659,656,656,656,656,651,639,604,597,596,596,596,595,592,589,586,584,582,573,564,558,556,555,555,554,552,547,539,536,533,524],"ymouse":[485,485,485,484,484,484,484,484,484,484,484,484,484,484,484,484,484,484,484,484,484,484,484,484,484,484,484,484,484,484,484,484,484,484,484,484,484,484,484,484,484,484,484,484,484,484,484,484,484,484,484,484,484,484,484,484,484,484,484,484,484,484,484,484,484,484,484,484,484,484,484,484,484,484,484,484,484,484,484,484,484,484,484,484,484,484,484,484,484,484,484,484,484,484,484,484,484,484,484,484,484,484,484,484,484,484,484,484,484,484,484,484,484,484,484,484,484,484,484,484,484,484,484,484,484,484,484,484,484,484,484,484,484,484,484,484,484,484,484,484,484,484,484,484,484,484,484,484,484,484,484,484,484,484,484,484,484,484,484,484,484,484,484,484,484,484,484,484,484,484,484,484,484,484,484,484,484,484,484,484,484,484,484,484,484,484,484,484,484,484,484,484,484,484,484,484,484,484,484,484,484,484,484,484,484,484,484,484,484,484,484,484,484,484,484,484,484,484,484,484,484,484,484,484,484,484,484,484,484,484,484,484,484,484,484,484,484,484,484,484,484,484,469,403,364,345,325,303,275,260,243,218,185,107,94,92,92,92,92,92,94,94,94,94,95,96,98,98,98,98,98,97,96,92,91,89,85],"timestamp_mouse":[4,33,38,58,77,97,117,138,157,178,198,217,237,258,277,297,317,338,357,378,399,417,438,457,478,498,517,539,559,577,598,617,637,659,677,697,719,738,758,778,797,818,839,857,878,897,919,937,958,979,998,1017,1038,1057,1079,1098,1118,1138,1159,1178,1199,1219,1238,1259,1277,1298,1319,1338,1358,1377,1397,1419,1439,1457,1478,1497,1518,1537,1557,1577,1597,1619,1639,1657,1677,1697,1717,1738,1757,1777,1797,1817,1837,1857,1878,1897,1918,1938,1959,1977,1999,2018,2039,2058,2077,2097,2117,2137,2159,2178,2199,2217,2238,2258,2277,2298,2317,2337,2359,2378,2399,2418,2437,2457,2477,2497,2517,2537,2557,2579,2598,2618,2637,2659,2678,2698,2717,2738,2758,2777,2799,2818,2838,2857,2879,2898,2918,2937,2958,2977,2997,3019,3037,3058,3078,3098,3119,3138,3157,3177,3198,3218,3238,3258,3277,3299,3318,3338,3358,3378,3397,3417,3438,3457,3478,3498,3517,3537,3558,3578,3599,3618,3638,3657,3679,3698,3718,3738,3759,3778,3798,3818,3837,3857,3879,3897,3917,3938,3958,3978,3997,4019,4037,4058,4078,4097,4119,4138,4158,4177,4199,4218,4238,4258,4278,4299,4318,4338,4359,4377,4398,4418,4438,4457,4478,4497,4517,4539,4558,4578,4599,4617,4638,4657,4677,4698,4717,4739,4758,4777,4799,4817,4837,4858,4877,4898,4917,4937,4957,4977,4997,5018,5039,5058,5078,5098,5117,5138,5158,5178,5197,5218,5238,5258,5278,5298,5317,5337,5357,5378,5398,5418,5437,5457,5477,5499,5518],"xSR":741.5,"ySR":458.25,"xT1":424.9,"yT1":0,"xT2":1058.1,"yT2":0,"toosoon":0,"cond_shown":"Incongruent","ratio_trial":200,"L_num":9,"L_den":15,"R_num":8,"R_den":10,"correct_side":2,"subjID":"HannaSofiaOlayaCorredor9","gender":"1","age":"10","school":"2019","test":{"fix_dur":[250,1500],"timestim":1000,"targets_dim":[100,100],"targets_relative_coord":[0.3,0.7],"size_stim":[880,420],"start_dim":[100,100],"size_start":[300,300],"size_fix":60,"samplingrate":20,"img_types":["Congruent","Incongruent"],"ratios":[100,200,300],"rep_conds":19,"nTrials":120,"trials_to_rest":500,"Trials_order":[111,44,116,118,3,15,63,18,104,91,66,113,53,4,100,25,76,70,6,98,94,90,33,114,0,64,73,75,23,5,9,72,105,43,32,37,117,62,11,101,97,40,48,67,110,1,86,65,103,7,59,108,30,10,96,74,80,41,20,87,42,16,106,71,82,12,61,21,28,69,17,55,115,24,14,57,68,34,36,107,119,93,85,31,54,49,47,84,102,19,13,89,109,51,26,112,60,22,77,52,83,38,39,56,35,81,78,46,99,29,27,45,79,2,50,8,58,88,95,92],"cond_shown":["Incongruent","Congruent","Congruent","Congruent","Incongruent","Incongruent","Incongruent","Congruent","Congruent","Incongruent","Congruent","Incongruent","Incongruent","Congruent","Congruent","Incongruent","Congruent","Congruent","Congruent","Congruent","Congruent","Congruent","Incongruent","Congruent","Congruent","Congruent","Incongruent","Incongruent","Incongruent","Incongruent","Incongruent","Congruent","Incongruent","Incongruent","Congruent","Incongruent","Incongruent","Congruent","Incongruent","Incongruent","Incongruent","Congruent","Congruent","Incongruent","Congruent","Incongruent","Congruent","Incongruent","Incongruent","Incongruent","Incongruent","Congruent","Congruent","Congruent","Congruent","Congruent","Congruent","Incongruent","Congruent","Incongruent","Congruent","Congruent","Congruent","Incongruent","Congruent","Congruent","Incongruent","Incongruent","Congruent","Incongruent","Incongruent","Incongruent","Incongruent","Congruent","Congruent","Incongruent","Congruent","Congruent","Congruent","Incongruent","Incongruent","Incongruent","Incongruent","Incongruent","Congruent","Incongruent","Incongruent","Congruent","Congruent","Incongruent","Incongruent","Incongruent","Incongruent","Incongruent","Congruent","Congruent","Congruent","Congruent","Incongruent","Congruent","Incongruent","Congruent","Incongruent","Congruent","Incongruent","Incongruent","Congruent","Congruent","Incongruent","Incongruent","Incongruent","Incongruent","Incongruent","Congruent","Congruent","Congruent","Congruent","Congruent","Incongruent","Congruent"],"ratio_trial":[200,200,200,300,200,200,200,100,200,100,100,300,300,300,300,100,300,300,100,200,300,100,200,100,100,300,100,200,300,300,200,100,200,100,200,100,200,200,300,300,100,300,100,100,200,100,200,300,100,100,300,100,100,300,100,200,200,300,200,200,100,300,300,300,300,100,100,200,300,200,300,100,100,100,200,200,200,300,100,300,300,200,100,100,100,100,300,100,100,100,100,300,100,200,200,300,100,300,300,300,300,200,200,200,300,200,100,300,200,300,200,200,100,200,200,200,300,300,300,200],"left_num":[9,9,8,11,7,3,4,8,6,2,7,13,4,24,4,6,2,5,3,1,5,9,9,7,6,2,6,7,13,4,7,2,4,17,8,3,7,9,3,4,12,8,2,6,13,4,1,8,17,17,4,15,8,1,15,3,3,13,9,4,15,3,8,13,2,15,4,1,3,11,13,6,17,8,1,7,8,3,8,13,4,3,3,12,7,3,8,4,8,8,10,4,9,11,6,20,12,1,13,3,13,20,9,15,1,1,3,3,4,3,1,7,13,3,15,8,3,1,4,3],"right_num":[8,4,7,4,12,1,1,2,11,6,15,12,6,8,2,3,10,7,2,21,6,8,8,9,5,10,3,6,12,2,14,6,14,10,7,4,8,13,4,8,2,10,11,3,14,8,21,14,10,10,6,13,2,19,13,11,14,12,4,14,13,11,10,12,10,13,8,3,4,3,12,3,10,2,21,14,3,4,2,12,2,11,4,9,15,8,14,15,2,1,8,2,13,3,7,8,13,19,12,4,12,9,8,4,2,3,2,2,14,4,2,4,6,14,4,3,2,11,2,14],"left_den":[15,20,15,22,10,10,30,16,20,4,14,26,5,30,5,12,20,25,6,2,25,15,15,14,20,20,12,15,26,20,10,5,6,30,15,6,10,30,6,5,30,15,5,12,26,8,2,10,30,30,5,25,16,3,25,10,10,26,20,6,25,12,15,26,20,25,8,2,6,20,26,12,30,16,2,10,15,6,16,26,20,4,6,24,14,5,10,10,16,20,25,20,15,20,12,25,30,3,26,6,26,25,15,25,2,2,6,6,6,6,3,15,26,10,25,15,6,5,20,10],"right_den":[10,16,21,20,24,2,3,5,22,15,25,15,12,16,4,5,25,14,5,30,12,16,10,15,25,25,5,9,15,4,28,12,30,15,21,10,16,26,20,16,4,12,22,5,20,20,30,28,15,15,12,26,5,30,26,22,28,15,16,30,26,20,12,15,25,26,20,10,5,4,15,5,15,5,30,28,9,5,5,15,4,20,10,15,25,16,28,30,5,2,16,4,26,4,10,16,26,30,15,5,15,15,10,10,10,10,5,10,30,20,15,6,10,28,10,9,10,22,4,28],"correct_side":[2,1,1,1,1,2,2,1,2,1,2,2,1,1,1,2,2,2,1,2,2,1,2,2,1,2,2,2,2,2,1,2,1,2,1,1,1,2,1,1,2,2,2,2,2,1,2,1,2,2,1,1,1,2,1,2,2,2,1,1,1,2,2,2,2,1,1,1,2,2,2,2,2,1,2,1,1,2,1,2,2,1,1,2,2,1,1,2,1,2,2,2,1,2,2,1,2,2,2,2,2,1,2,1,1,1,1,1,1,1,1,2,2,2,1,1,1,2,2,2],"img_shown":["img2/200/Incongruent/R/I_Dist_200_LN_9_LD_15_RN_8_RD_10_1.png","img2/200/Congruent/L/C_Dist_200_LN_9_LD_20_RN_4_RD_16_0.png","img2/200/Congruent/L/C_Dist_200_LN_8_LD_15_RN_7_RD_21_0.png","img2/300/Congruent/L/C_Dist_300_LN_11_LD_22_RN_4_RD_20_0.png","img2/200/Incongruent/L/I_Dist_200_LN_7_LD_10_RN_12_RD_24_0.png","img2/200/Incongruent/R/I_Dist_200_LN_3_LD_10_RN_1_RD_2_1.png","img2/200/Incongruent/R/I_Dist_200_LN_4_LD_30_RN_1_RD_3_1.png","img2/100/Congruent/L/C_Dist_100_LN_8_LD_16_RN_2_RD_5_0.png","img2/200/Congruent/R/C_Dist_200_LN_6_LD_20_RN_11_RD_22_1.png","img2/100/Incongruent/L/I_Dist_100_LN_2_LD_4_RN_6_RD_15_0.png","img2/100/Congruent/R/C_Dist_100_LN_7_LD_14_RN_15_RD_25_1.png","img2/300/Incongruent/R/I_Dist_300_LN_13_LD_26_RN_12_RD_15_1.png","img2/300/Incongruent/L/I_Dist_300_LN_4_LD_5_RN_6_RD_12_0.png","img2/300/Congruent/L/C_Dist_300_LN_24_LD_30_RN_8_RD_16_0.png","img2/300/Congruent/L/C_Dist_300_LN_4_LD_5_RN_2_RD_4_0.png","img2/100/Incongruent/R/I_Dist_100_LN_6_LD_12_RN_3_RD_5_1.png","img2/300/Congruent/R/C_Dist_300_LN_2_LD_20_RN_10_RD_25_1.png","img2/300/Congruent/R/C_Dist_300_LN_5_LD_25_RN_7_RD_14_1.png","img2/100/Congruent/L/C_Dist_100_LN_3_LD_6_RN_2_RD_5_0.png","img2/200/Congruent/R/C_Dist_200_LN_1_LD_2_RN_21_RD_30_1.png","img2/300/Congruent/R/C_Dist_300_LN_5_LD_25_RN_6_RD_12_1.png","img2/100/Congruent/L/C_Dist_100_LN_9_LD_15_RN_8_RD_16_0.png","img2/200/Incongruent/R/I_Dist_200_LN_9_LD_15_RN_8_RD_10_1.png","img2/100/Congruent/R/C_Dist_100_LN_7_LD_14_RN_9_RD_15_1.png","img2/100/Congruent/L/C_Dist_100_LN_6_LD_20_RN_5_RD_25_0.png","img2/300/Congruent/R/C_Dist_300_LN_2_LD_20_RN_10_RD_25_1.png","img2/100/Incongruent/R/I_Dist_100_LN_6_LD_12_RN_3_RD_5_1.png","img2/200/Incongruent/R/I_Dist_200_LN_7_LD_15_RN_6_RD_9_1.png","img2/300/Incongruent/R/I_Dist_300_LN_13_LD_26_RN_12_RD_15_1.png","img2/300/Incongruent/R/I_Dist_300_LN_4_LD_20_RN_2_RD_4_1.png","img2/200/Incongruent/L/I_Dist_200_LN_7_LD_10_RN_14_RD_28_0.png","img2/100/Congruent/R/C_Dist_100_LN_2_LD_5_RN_6_RD_12_1.png","img2/200/Incongruent/L/I_Dist_200_LN_4_LD_6_RN_14_RD_30_0.png","img2/100/Incongruent/R/I_Dist_100_LN_17_LD_30_RN_10_RD_15_1.png","img2/200/Congruent/L/C_Dist_200_LN_8_LD_15_RN_7_RD_21_0.png","img2/100/Incongruent/L/I_Dist_100_LN_3_LD_6_RN_4_RD_10_0.png","img2/200/Incongruent/L/I_Dist_200_LN_7_LD_10_RN_8_RD_16_0.png","img2/200/Congruent/R/C_Dist_200_LN_9_LD_30_RN_13_RD_26_1.png","img2/300/Incongruent/L/I_Dist_300_LN_3_LD_6_RN_4_RD_20_0.png","img2/300/Incongruent/L/I_Dist_300_LN_4_LD_5_RN_8_RD_16_0.png","img2/100/Incongruent/R/I_Dist_100_LN_12_LD_30_RN_2_RD_4_1.png","img2/300/Congruent/R/C_Dist_300_LN_8_LD_15_RN_10_RD_12_1.png","img2/100/Congruent/R/C_Dist_100_LN_2_LD_5_RN_11_RD_22_1.png","img2/100/Incongruent/R/I_Dist_100_LN_6_LD_12_RN_3_RD_5_1.png","img2/200/Congruent/R/C_Dist_200_LN_13_LD_26_RN_14_RD_20_1.png","img2/100/Incongruent/L/I_Dist_100_LN_4_LD_8_RN_8_RD_20_0.png","img2/200/Congruent/R/C_Dist_200_LN_1_LD_2_RN_21_RD_30_1.png","img2/300/Incongruent/L/I_Dist_300_LN_8_LD_10_RN_14_RD_28_0.png","img2/100/Incongruent/R/I_Dist_100_LN_17_LD_30_RN_10_RD_15_1.png","img2/100/Incongruent/R/I_Dist_100_LN_17_LD_30_RN_10_RD_15_1.png","img2/300/Incongruent/L/I_Dist_300_LN_4_LD_5_RN_6_RD_12_0.png","img2/100/Congruent/L/C_Dist_100_LN_15_LD_25_RN_13_RD_26_0.png","img2/100/Congruent/L/C_Dist_100_LN_8_LD_16_RN_2_RD_5_0.png","img2/300/Congruent/R/C_Dist_300_LN_1_LD_3_RN_19_RD_30_1.png","img2/100/Congruent/L/C_Dist_100_LN_15_LD_25_RN_13_RD_26_0.png","img2/200/Congruent/R/C_Dist_200_LN_3_LD_10_RN_11_RD_22_1.png","img2/200/Congruent/R/C_Dist_200_LN_3_LD_10_RN_14_RD_28_1.png","img2/300/Incongruent/R/I_Dist_300_LN_13_LD_26_RN_12_RD_15_1.png","img2/200/Congruent/L/C_Dist_200_LN_9_LD_20_RN_4_RD_16_0.png","img2/200/Incongruent/L/I_Dist_200_LN_4_LD_6_RN_14_RD_30_0.png","img2/100/Congruent/L/C_Dist_100_LN_15_LD_25_RN_13_RD_26_0.png","img2/300/Congruent/R/C_Dist_300_LN_3_LD_12_RN_11_RD_20_1.png","img2/300/Congruent/R/C_Dist_300_LN_8_LD_15_RN_10_RD_12_1.png","img2/300/Incongruent/R/I_Dist_300_LN_13_LD_26_RN_12_RD_15_1.png","img2/300/Congruent/R/C_Dist_300_LN_2_LD_20_RN_10_RD_25_1.png","img2/100/Congruent/L/C_Dist_100_LN_15_LD_25_RN_13_RD_26_0.png","img2/100/Incongruent/L/I_Dist_100_LN_4_LD_8_RN_8_RD_20_0.png","img2/200/Incongruent/L/I_Dist_200_LN_1_LD_2_RN_3_RD_10_0.png","img2/300/Congruent/R/C_Dist_300_LN_3_LD_6_RN_4_RD_5_1.png","img2/200/Incongruent/R/I_Dist_200_LN_11_LD_20_RN_3_RD_4_1.png","img2/300/Incongruent/R/I_Dist_300_LN_13_LD_26_RN_12_RD_15_1.png","img2/100/Incongruent/R/I_Dist_100_LN_6_LD_12_RN_3_RD_5_1.png","img2/100/Incongruent/R/I_Dist_100_LN_17_LD_30_RN_10_RD_15_1.png","img2/100/Congruent/L/C_Dist_100_LN_8_LD_16_RN_2_RD_5_0.png","img2/200/Congruent/R/C_Dist_200_LN_1_LD_2_RN_21_RD_30_1.png","img2/200/Incongruent/L/I_Dist_200_LN_7_LD_10_RN_14_RD_28_0.png","img2/200/Congruent/L/C_Dist_200_LN_8_LD_15_RN_3_RD_9_0.png","img2/300/Congruent/R/C_Dist_300_LN_3_LD_6_RN_4_RD_5_1.png","img2/100/Congruent/L/C_Dist_100_LN_8_LD_16_RN_2_RD_5_0.png","img2/300/Incongruent/R/I_Dist_300_LN_13_LD_26_RN_12_RD_15_1.png","img2/300/Incongruent/R/I_Dist_300_LN_4_LD_20_RN_2_RD_4_1.png","img2/200/Incongruent/L/I_Dist_200_LN_3_LD_4_RN_11_RD_20_0.png","img2/100/Incongruent/L/I_Dist_100_LN_3_LD_6_RN_4_RD_10_0.png","img2/100/Incongruent/R/I_Dist_100_LN_12_LD_24_RN_9_RD_15_1.png","img2/100/Congruent/R/C_Dist_100_LN_7_LD_14_RN_15_RD_25_1.png","img2/100/Incongruent/L/I_Dist_100_LN_3_LD_5_RN_8_RD_16_0.png","img2/300/Incongruent/L/I_Dist_300_LN_8_LD_10_RN_14_RD_28_0.png","img2/100/Congruent/R/C_Dist_100_LN_4_LD_10_RN_15_RD_30_1.png","img2/100/Congruent/L/C_Dist_100_LN_8_LD_16_RN_2_RD_5_0.png","img2/100/Incongruent/R/I_Dist_100_LN_8_LD_20_RN_1_RD_2_1.png","img2/100/Incongruent/R/I_Dist_100_LN_10_LD_25_RN_8_RD_16_1.png","img2/300/Incongruent/R/I_Dist_300_LN_4_LD_20_RN_2_RD_4_1.png","img2/100/Incongruent/L/I_Dist_100_LN_9_LD_15_RN_13_RD_26_0.png","img2/200/Incongruent/R/I_Dist_200_LN_11_LD_20_RN_3_RD_4_1.png","img2/200/Congruent/R/C_Dist_200_LN_6_LD_12_RN_7_RD_10_1.png","img2/300/Congruent/L/C_Dist_300_LN_20_LD_25_RN_8_RD_16_0.png","img2/100/Congruent/R/C_Dist_100_LN_12_LD_30_RN_13_RD_26_1.png","img2/300/Congruent/R/C_Dist_300_LN_1_LD_3_RN_19_RD_30_1.png","img2/300/Incongruent/R/I_Dist_300_LN_13_LD_26_RN_12_RD_15_1.png","img2/300/Congruent/R/C_Dist_300_LN_3_LD_6_RN_4_RD_5_1.png","img2/300/Incongruent/R/I_Dist_300_LN_13_LD_26_RN_12_RD_15_1.png","img2/200/Congruent/L/C_Dist_200_LN_20_LD_25_RN_9_RD_15_0.png","img2/200/Incongruent/R/I_Dist_200_LN_9_LD_15_RN_8_RD_10_1.png","img2/200/Congruent/L/C_Dist_200_LN_15_LD_25_RN_4_RD_10_0.png","img2/300/Incongruent/L/I_Dist_300_LN_1_LD_2_RN_2_RD_10_0.png","img2/200/Incongruent/L/I_Dist_200_LN_1_LD_2_RN_3_RD_10_0.png","img2/100/Congruent/L/C_Dist_100_LN_3_LD_6_RN_2_RD_5_0.png","img2/300/Congruent/L/C_Dist_300_LN_3_LD_6_RN_2_RD_10_0.png","img2/200/Incongruent/L/I_Dist_200_LN_4_LD_6_RN_14_RD_30_0.png","img2/300/Incongruent/L/I_Dist_300_LN_3_LD_6_RN_4_RD_20_0.png","img2/200/Incongruent/L/I_Dist_200_LN_1_LD_3_RN_2_RD_15_0.png","img2/200/Incongruent/R/I_Dist_200_LN_7_LD_15_RN_4_RD_6_1.png","img2/100/Incongruent/R/I_Dist_100_LN_13_LD_26_RN_6_RD_10_1.png","img2/200/Congruent/R/C_Dist_200_LN_3_LD_10_RN_14_RD_28_1.png","img2/200/Congruent/L/C_Dist_200_LN_15_LD_25_RN_4_RD_10_0.png","img2/200/Congruent/L/C_Dist_200_LN_8_LD_15_RN_3_RD_9_0.png","img2/300/Congruent/L/C_Dist_300_LN_3_LD_6_RN_2_RD_10_0.png","img2/300/Congruent/R/C_Dist_300_LN_1_LD_5_RN_11_RD_22_1.png","img2/300/Incongruent/R/I_Dist_300_LN_4_LD_20_RN_2_RD_4_1.png","img2/200/Congruent/R/C_Dist_200_LN_3_LD_10_RN_14_RD_28_1.png"],"dist100_C":[["C_Dist_100_LN_10_LD_25_RN_3_RD_10_0.png","C_Dist_100_LN_11_LD_22_RN_4_RD_10_0.png","C_Dist_100_LN_11_LD_22_RN_6_RD_15_0.png","C_Dist_100_LN_15_LD_25_RN_13_RD_26_0.png","C_Dist_100_LN_3_LD_6_RN_2_RD_5_0.png","C_Dist_100_LN_6_LD_20_RN_5_RD_25_0.png","C_Dist_100_LN_8_LD_16_RN_2_RD_5_0.png","C_Dist_100_LN_9_LD_15_RN_8_RD_16_0.png"],["C_Dist_100_LN_1_LD_2_RN_18_RD_30_1.png","C_Dist_100_LN_1_LD_2_RN_3_RD_5_1.png","C_Dist_100_LN_12_LD_30_RN_13_RD_26_1.png","C_Dist_100_LN_2_LD_5_RN_11_RD_22_1.png","C_Dist_100_LN_2_LD_5_RN_6_RD_12_1.png","C_Dist_100_LN_3_LD_20_RN_4_RD_16_1.png","C_Dist_100_LN_4_LD_10_RN_15_RD_30_1.png","C_Dist_100_LN_4_LD_8_RN_6_RD_10_1.png","C_Dist_100_LN_6_LD_12_RN_15_RD_25_1.png","C_Dist_100_LN_7_LD_14_RN_15_RD_25_1.png","C_Dist_100_LN_7_LD_14_RN_9_RD_15_1.png"]],"dist100_I":[["I_Dist_100_LN_1_LD_2_RN_8_RD_20_0.png","I_Dist_100_LN_2_LD_4_RN_6_RD_15_0.png","I_Dist_100_LN_2_LD_4_RN_8_RD_20_0.png","I_Dist_100_LN_3_LD_5_RN_11_RD_22_0.png","I_Dist_100_LN_3_LD_5_RN_8_RD_16_0.png","I_Dist_100_LN_3_LD_6_RN_4_RD_10_0.png","I_Dist_100_LN_3_LD_9_RN_7_RD_30_0.png","I_Dist_100_LN_4_LD_8_RN_8_RD_20_0.png","I_Dist_100_LN_6_LD_10_RN_11_RD_22_0.png","I_Dist_100_LN_6_LD_10_RN_13_RD_26_0.png","I_Dist_100_LN_6_LD_10_RN_7_RD_14_0.png","I_Dist_100_LN_9_LD_10_RN_20_RD_25_0.png","I_Dist_100_LN_9_LD_15_RN_13_RD_26_0.png","I_Dist_100_LN_9_LD_15_RN_14_RD_28_0.png"],["I_Dist_100_LN_10_LD_25_RN_8_RD_16_1.png","I_Dist_100_LN_10_LD_25_RN_9_RD_18_1.png","I_Dist_100_LN_11_LD_22_RN_9_RD_15_1.png","I_Dist_100_LN_12_LD_24_RN_9_RD_15_1.png","I_Dist_100_LN_12_LD_30_RN_2_RD_4_1.png","I_Dist_100_LN_13_LD_26_RN_12_RD_20_1.png","I_Dist_100_LN_13_LD_26_RN_6_RD_10_1.png","I_Dist_100_LN_17_LD_30_RN_10_RD_15_1.png","I_Dist_100_LN_6_LD_12_RN_3_RD_5_1.png","I_Dist_100_LN_8_LD_16_RN_6_RD_10_1.png","I_Dist_100_LN_8_LD_20_RN_1_RD_2_1.png","I_Dist_100_LN_9_LD_18_RN_6_RD_10_1.png"]],"dist100_S":[["E_Dist_100_LN_2_LD_12_RN_2_RD_30_0.png","E_Dist_100_LN_6_LD_10_RN_6_RD_12_0.png"],["E_Dist_100_LN_6_LD_12_RN_6_RD_10_1.png"]],"dist200_C":[["C_Dist_200_LN_11_LD_22_RN_3_RD_10_0.png","C_Dist_200_LN_12_LD_15_RN_6_RD_10_0.png","C_Dist_200_LN_12_LD_20_RN_6_RD_15_0.png","C_Dist_200_LN_14_LD_28_RN_6_RD_20_0.png","C_Dist_200_LN_15_LD_25_RN_4_RD_10_0.png","C_Dist_200_LN_16_LD_20_RN_12_RD_20_0.png","C_Dist_200_LN_16_LD_30_RN_9_RD_27_0.png","C_Dist_200_LN_20_LD_25_RN_9_RD_15_0.png","C_Dist_200_LN_21_LD_30_RN_2_RD_4_0.png","C_Dist_200_LN_4_LD_10_RN_3_RD_15_0.png","C_Dist_200_LN_4_LD_8_RN_3_RD_10_0.png","C_Dist_200_LN_6_LD_15_RN_3_RD_15_0.png","C_Dist_200_LN_7_LD_21_RN_2_RD_15_0.png","C_Dist_200_LN_8_LD_15_RN_2_RD_6_0.png","C_Dist_200_LN_8_LD_15_RN_3_RD_9_0.png","C_Dist_200_LN_8_LD_15_RN_7_RD_21_0.png","C_Dist_200_LN_9_LD_20_RN_4_RD_16_0.png"],["C_Dist_200_LN_1_LD_2_RN_21_RD_30_1.png","C_Dist_200_LN_13_LD_26_RN_14_RD_20_1.png","C_Dist_200_LN_3_LD_10_RN_11_RD_22_1.png","C_Dist_200_LN_3_LD_10_RN_14_RD_28_1.png","C_Dist_200_LN_3_LD_10_RN_7_RD_14_1.png","C_Dist_200_LN_3_LD_12_RN_9_RD_20_1.png","C_Dist_200_LN_3_LD_6_RN_14_RD_20_1.png","C_Dist_200_LN_5_LD_10_RN_14_RD_20_1.png","C_Dist_200_LN_6_LD_12_RN_7_RD_10_1.png","C_Dist_200_LN_6_LD_20_RN_11_RD_22_1.png","C_Dist_200_LN_7_LD_15_RN_18_RD_27_1.png","C_Dist_200_LN_9_LD_30_RN_13_RD_26_1.png"]],"dist200_I":[["I_Dist_200_LN_1_LD_2_RN_3_RD_10_0.png","I_Dist_200_LN_1_LD_3_RN_2_RD_15_0.png","I_Dist_200_LN_3_LD_4_RN_11_RD_20_0.png","I_Dist_200_LN_4_LD_5_RN_6_RD_10_0.png","I_Dist_200_LN_4_LD_6_RN_14_RD_30_0.png","I_Dist_200_LN_7_LD_10_RN_12_RD_24_0.png","I_Dist_200_LN_7_LD_10_RN_14_RD_28_0.png","I_Dist_200_LN_7_LD_10_RN_8_RD_16_0.png"],["I_Dist_200_LN_11_LD_20_RN_3_RD_4_1.png","I_Dist_200_LN_14_LD_30_RN_12_RD_18_1.png","I_Dist_200_LN_14_LD_30_RN_6_RD_9_1.png","I_Dist_200_LN_3_LD_10_RN_1_RD_2_1.png","I_Dist_200_LN_4_LD_30_RN_1_RD_3_1.png","I_Dist_200_LN_6_LD_20_RN_3_RD_6_1.png","I_Dist_200_LN_7_LD_15_RN_4_RD_6_1.png","I_Dist_200_LN_7_LD_15_RN_6_RD_9_1.png","I_Dist_200_LN_9_LD_15_RN_8_RD_10_1.png"]],"dist200_S":[["E_Dist_200_LN_3_LD_6_RN_3_RD_10_0.png"],["E_Dist_200_LN_3_LD_10_RN_3_RD_6_1.png"]],"dist300_C":[["C_Dist_300_LN_11_LD_22_RN_1_RD_5_0.png","C_Dist_300_LN_11_LD_22_RN_2_RD_10_0.png","C_Dist_300_LN_11_LD_22_RN_4_RD_20_0.png","C_Dist_300_LN_12_LD_24_RN_2_RD_10_0.png","C_Dist_300_LN_18_LD_20_RN_9_RD_15_0.png","C_Dist_300_LN_20_LD_25_RN_13_RD_26_0.png","C_Dist_300_LN_20_LD_25_RN_14_RD_28_0.png","C_Dist_300_LN_20_LD_25_RN_5_RD_10_0.png","C_Dist_300_LN_20_LD_25_RN_8_RD_16_0.png","C_Dist_300_LN_20_LD_25_RN_9_RD_18_0.png","C_Dist_300_LN_24_LD_30_RN_2_RD_4_0.png","C_Dist_300_LN_24_LD_30_RN_8_RD_16_0.png","C_Dist_300_LN_3_LD_6_RN_2_RD_10_0.png","C_Dist_300_LN_4_LD_10_RN_1_RD_10_0.png","C_Dist_300_LN_4_LD_5_RN_2_RD_4_0.png","C_Dist_300_LN_8_LD_16_RN_1_RD_5_0.png","C_Dist_300_LN_9_LD_10_RN_3_RD_5_0.png"],["C_Dist_300_LN_1_LD_20_RN_7_RD_20_1.png","C_Dist_300_LN_1_LD_3_RN_19_RD_30_1.png","C_Dist_300_LN_1_LD_30_RN_8_RD_24_1.png","C_Dist_300_LN_1_LD_5_RN_11_RD_22_1.png","C_Dist_300_LN_1_LD_5_RN_3_RD_6_1.png","C_Dist_300_LN_1_LD_5_RN_6_RD_12_1.png","C_Dist_300_LN_2_LD_10_RN_12_RD_24_1.png","C_Dist_300_LN_2_LD_20_RN_10_RD_25_1.png","C_Dist_300_LN_3_LD_12_RN_11_RD_20_1.png","C_Dist_300_LN_3_LD_6_RN_4_RD_5_1.png","C_Dist_300_LN_4_LD_20_RN_13_RD_26_1.png","C_Dist_300_LN_5_LD_25_RN_6_RD_12_1.png","C_Dist_300_LN_5_LD_25_RN_7_RD_14_1.png","C_Dist_300_LN_7_LD_14_RN_20_RD_25_1.png","C_Dist_300_LN_8_LD_15_RN_10_RD_12_1.png"]],"dist300_I":[["I_Dist_300_LN_1_LD_2_RN_2_RD_10_0.png","I_Dist_300_LN_1_LD_2_RN_3_RD_15_0.png","I_Dist_300_LN_2_LD_4_RN_6_RD_30_0.png","I_Dist_300_LN_3_LD_6_RN_4_RD_20_0.png","I_Dist_300_LN_4_LD_5_RN_6_RD_12_0.png","I_Dist_300_LN_4_LD_5_RN_8_RD_16_0.png","I_Dist_300_LN_7_LD_10_RN_8_RD_20_0.png","I_Dist_300_LN_8_LD_10_RN_14_RD_28_0.png","I_Dist_300_LN_8_LD_10_RN_9_RD_18_0.png"],["I_Dist_300_LN_13_LD_26_RN_12_RD_15_1.png","I_Dist_300_LN_4_LD_20_RN_2_RD_4_1.png"]],"dist300_S":[["E_Dist_300_LN_9_LD_12_RN_9_RD_20_0.png"],["E_Dist_300_LN_18_LD_30_RN_18_RD_20_1.png","E_Dist_300_LN_3_LD_10_RN_3_RD_5_1.png","E_Dist_300_LN_9_LD_20_RN_9_RD_12_1.png"]],"dist500_C":[["C_Dist_500_LN_10_LD_13_RN_7_RD_26_0.png","C_Dist_500_LN_10_LD_15_RN_4_RD_24_0.png","C_Dist_500_LN_12_LD_16_RN_3_RD_12_0.png","C_Dist_500_LN_12_LD_18_RN_4_RD_24_0.png","C_Dist_500_LN_15_LD_18_RN_5_RD_15_0.png","C_Dist_500_LN_15_LD_20_RN_1_RD_4_0.png","C_Dist_500_LN_18_LD_27_RN_1_RD_6_0.png","C_Dist_500_LN_20_LD_24_RN_1_RD_3_0.png","C_Dist_500_LN_20_LD_24_RN_3_RD_9_0.png","C_Dist_500_LN_20_LD_24_RN_7_RD_21_0.png","C_Dist_500_LN_20_LD_28_RN_3_RD_14_0.png","C_Dist_500_LN_21_LD_28_RN_6_RD_24_0.png","C_Dist_500_LN_22_LD_28_RN_2_RD_7_0.png","C_Dist_500_LN_25_LD_30_RN_9_RD_27_0.png","C_Dist_500_LN_4_LD_6_RN_1_RD_6_0.png","C_Dist_500_LN_5_LD_6_RN_2_RD_6_0.png","C_Dist_500_LN_6_LD_9_RN_1_RD_6_0.png","C_Dist_500_LN_7_LD_10_RN_1_RD_5_0.png","C_Dist_500_LN_8_LD_12_RN_1_RD_6_0.png","C_Dist_500_LN_8_LD_12_RN_4_RD_24_0.png"],["C_Dist_500_LN_1_LD_4_RN_12_RD_16_1.png","C_Dist_500_LN_1_LD_4_RN_9_RD_12_1.png","C_Dist_500_LN_1_LD_9_RN_11_RD_18_1.png","C_Dist_500_LN_10_LD_24_RN_22_RD_24_1.png","C_Dist_500_LN_2_LD_12_RN_10_RD_15_1.png","C_Dist_500_LN_2_LD_12_RN_12_RD_18_1.png","C_Dist_500_LN_2_LD_12_RN_4_RD_6_1.png","C_Dist_500_LN_2_LD_24_RN_7_RD_12_1.png","C_Dist_500_LN_2_LD_5_RN_18_RD_20_1.png","C_Dist_500_LN_2_LD_5_RN_9_RD_10_1.png","C_Dist_500_LN_2_LD_8_RN_12_RD_16_1.png","C_Dist_500_LN_2_LD_8_RN_21_RD_28_1.png","C_Dist_500_LN_3_LD_10_RN_4_RD_5_1.png","C_Dist_500_LN_3_LD_12_RN_15_RD_20_1.png","C_Dist_500_LN_3_LD_30_RN_6_RD_10_1.png","C_Dist_500_LN_3_LD_8_RN_14_RD_16_1.png","C_Dist_500_LN_4_LD_16_RN_15_RD_20_1.png","C_Dist_500_LN_4_LD_24_RN_12_RD_18_1.png","C_Dist_500_LN_5_LD_14_RN_6_RD_7_1.png","C_Dist_500_LN_7_LD_21_RN_20_RD_24_1.png","C_Dist_500_LN_7_LD_28_RN_12_RD_16_1.png","C_Dist_500_LN_7_LD_28_RN_9_RD_12_1.png","C_Dist_500_LN_9_LD_27_RN_20_RD_24_1.png"]],"dist500_I":[["I_Dist_500_LN_2_LD_3_RN_4_RD_24_0.png","I_Dist_500_LN_5_LD_6_RN_6_RD_18_0.png","I_Dist_500_LN_7_LD_8_RN_9_RD_24_0.png"],["I_Dist_500_LN_7_LD_21_RN_5_RD_6_1.png"]],"dist500_S":[["E_Dist_500_LN_6_LD_8_RN_6_RD_24_0.png"],["E_Dist_500_LN_2_LD_12_RN_2_RD_3_1.png","E_Dist_500_LN_6_LD_24_RN_6_RD_8_1.png"]]}},{"start_time":1551887008525,"click_time":1551887010673,"finger_time":1551887009993,"fix_duration":250,"trial":1,"RT":1468,"MT":680,"sideResp":2,"stimulus":[],"xmouse":[822,822,822,822,822,822,822,822,822,822,822,822,822,822,822,822,822,822,822,822,822,822,822,822,822,822,822,822,822,822,822,822,822,822,822,822,822,822,822,822,822,822,822,822,822,822,822,822,822,822,822,822,822,822,822,822,822,822,822,822,822,822,822,822,822,822,822,822,822,822,822,830,840,893,914,942,977,998,1017,1019,1019,1019,1019,1019,1019,1023,1028,1034,1041,1048,1050,1050,1051,1053,1055,1058,1059,1060,1061,1064,1067,1070,1073,1079,1082,1084,1085,1085],"ymouse":[507,507,507,507,507,507,507,507,507,507,507,507,507,507,507,507,507,507,507,507,507,507,507,507,507,507,507,507,507,507,507,507,507,507,507,507,507,507,507,507,507,507,507,507,507,507,507,507,507,507,507,507,507,507,507,507,507,507,507,507,507,507,507,507,507,507,507,507,507,507,507,500,491,435,406,361,311,277,254,253,253,253,253,253,252,243,231,219,206,193,189,187,181,165,157,151,146,143,140,129,124,120,116,108,105,103,102,99],"timestamp_mouse":[9,37,48,68,87,109,127,149,168,188,208,227,248,267,289,307,327,348,368,387,408,427,447,469,487,507,529,547,567,587,609,628,647,667,687,708,728,747,768,787,807,829,847,868,888,909,927,948,967,988,1009,1029,1048,1067,1087,1107,1129,1147,1167,1189,1207,1228,1248,1268,1288,1308,1328,1349,1367,1388,1409,1428,1448,1468,1487,1508,1527,1548,1568,1587,1607,1627,1648,1668,1687,1708,1728,1749,1767,1788,1807,1828,1848,1868,1887,1908,1928,1949,1968,1988,2007,2029,2047,2067,2087,2108,2128,2147],"xSR":741.5,"ySR":458.25,"xT1":424.9,"yT1":0,"xT2":1058.1,"yT2":0,"toosoon":0,"cond_shown":"Congruent","ratio_trial":200,"L_num":9,"L_den":20,"R_num":4,"R_den":16,"correct_side":1,"subjID":"HannaSofiaOlayaCorredor9","gender":"1","school":"2019","age":"10"},{"start_time":1551887013330,"click_time":1551887015392,"finger_time":1551887014992,"fix_duration":874.934485814446,"trial":2,"RT":1662,"MT":400,"sideResp":1,"stimulus":[],"xmouse":[798,798,798,798,798,798,798,798,798,798,798,798,798,798,798,798,797,797,797,797,797,797,797,797,797,797,797,797,797,797,797,797,797,797,797,797,797,797,797,797,797,797,797,797,797,797,797,797,797,797,797,797,797,797,797,797,797,797,797,797,797,797,797,797,797,797,797,797,797,797,797,797,797,797,797,797,797,797,797,797,797,797,795,770,753,729,719,710,691,675,656,639,627,614,612,608,602,592,563,549,543,539,534,524],"ymouse":[502,502,502,502,502,502,502,502,502,502,502,502,502,502,502,502,503,503,503,503,503,503,503,503,503,503,503,503,503,503,503,503,503,503,503,503,503,503,503,503,503,503,503,503,503,503,503,503,503,503,503,503,503,503,503,503,503,503,503,503,503,503,503,503,503,503,503,503,503,503,503,503,503,503,503,503,503,503,503,503,503,499,491,426,386,331,310,293,265,246,225,206,194,180,177,172,166,153,123,112,102,96,88,75],"timestamp_mouse":[11,25,45,63,83,102,122,143,164,182,204,224,242,262,283,302,322,343,363,383,402,423,443,462,484,503,523,543,562,583,603,624,643,663,683,704,722,742,762,783,803,823,842,863,883,902,922,943,963,982,1003,1022,1043,1062,1083,1102,1123,1143,1162,1182,1203,1222,1244,1262,1282,1303,1323,1342,1362,1384,1402,1423,1443,1463,1482,1503,1522,1542,1564,1582,1603,1622,1643,1662,1684,1702,1722,1743,1763,1782,1802,1823,1843,1864,1883,1902,1923,1942,1962,1982,2002,2023,2044,2062],"xSR":741.5,"ySR":458.25,"xT1":424.9,"yT1":0,"xT2":1058.1,"yT2":0,"toosoon":0,"cond_shown":"Congruent","ratio_trial":200,"L_num":8,"L_den":15,"R_num":7,"R_den":21,"correct_side":1,"subjID":"HannaSofiaOlayaCorredor9","gender":"1","school":"2019","age":"10"},{"start_time":1551887021485,"click_time":1551887023792,"finger_time":1551887022953,"fix_duration":749.6218339001335,"trial":3,"RT":1468,"MT":839,"sideResp":1,"stimulus":[],"xmouse":[795,795,795,795,795,795,795,795,795,795,795,795,795,795,795,795,795,795,795,795,795,795,795,795,795,795,795,795,795,795,795,795,795,795,795,795,795,795,795,795,795,795,795,795,795,795,795,795,795,795,795,795,795,795,795,795,795,795,795,795,795,795,795,795,795,795,795,795,795,795,795,785,782,781,781,773,769,757,751,744,716,688,647,600,557,442,373,283,263,260,260,260,260,260,261,272,282,283,287,291,294,323,346,365,376,379,380,384,387,392,402,407,412,415,424,438],"ymouse":[510,510,510,510,510,510,510,510,510,510,510,510,510,510,510,510,510,510,510,510,510,510,510,510,510,510,510,510,510,510,510,510,510,510,510,510,510,510,510,510,510,510,510,510,510,510,510,510,510,510,510,510,510,510,510,510,510,510,510,510,510,510,510,510,510,510,510,510,510,510,506,483,464,449,434,402,387,358,336,315,274,253,224,199,175,113,75,37,29,28,28,28,27,27,24,16,11,10,10,10,10,17,23,28,31,33,34,37,40,42,45,45,46,47,48,51],"timestamp_mouse":[8,38,48,67,89,109,127,148,167,187,207,227,247,269,287,308,327,347,368,387,407,427,447,469,488,508,527,547,568,595,607,628,648,668,687,707,728,748,768,789,808,828,848,869,888,908,928,947,968,989,1008,1027,1048,1068,1087,1108,1128,1147,1168,1187,1208,1227,1247,1268,1287,1307,1327,1347,1368,1387,1407,1427,1448,1468,1487,1508,1527,1547,1568,1587,1607,1628,1647,1667,1687,1708,1728,1747,1768,1787,1807,1829,1847,1867,1887,1907,1927,1948,1967,1987,2008,2028,2048,2068,2088,2107,2127,2147,2167,2187,2207,2227,2247,2268,2289,2307],"xSR":741.5,"ySR":458.25,"xT1":424.9,"yT1":0,"xT2":1058.1,"yT2":0,"toosoon":0,"cond_shown":"Congruent","ratio_trial":300,"L_num":11,"L_den":22,"R_num":4,"R_den":20,"correct_side":1,"subjID":"HannaSofiaOlayaCorredor9","gender":"1","school":"2019","age":"10"},{"start_time":1551887025904,"click_time":1551887028193,"finger_time":1551887027413,"fix_duration":250,"trial":4,"RT":1509,"MT":780,"sideResp":2,"stimulus":[],"xmouse":[818,818,818,818,818,818,818,818,818,818,818,818,818,818,818,818,818,817,817,817,817,817,817,817,817,817,817,817,817,817,817,817,817,817,817,817,818,818,818,818,818,818,819,819,819,820,820,820,820,820,820,820,820,820,820,820,820,820,820,820,820,820,820,820,820,820,820,820,820,820,822,824,826,832,838,857,869,877,883,889,896,900,905,913,933,945,960,970,981,1003,1011,1018,1023,1030,1046,1057,1068,1076,1082,1087,1088,1088,1088,1088,1088,1088,1088,1088,1089,1090,1090,1091,1091,1093,1096],"ymouse":[532,532,532,532,532,532,532,532,532,532,532,532,532,532,532,532,532,532,532,532,532,532,532,532,532,532,532,531,531,531,531,531,531,531,531,531,530,530,530,530,530,530,530,530,530,530,530,530,530,530,530,530,530,530,530,530,530,530,530,530,530,530,530,530,530,530,530,530,530,529,525,521,511,494,471,426,405,394,388,382,379,377,375,370,360,352,341,333,324,306,298,291,284,277,251,223,182,156,136,118,115,114,114,114,114,114,114,114,113,111,109,107,106,104,98],"timestamp_mouse":[10,38,49,68,88,109,128,148,169,188,209,229,248,268,288,308,329,349,368,389,409,429,449,469,489,510,528,549,568,590,608,629,649,668,688,710,728,749,768,788,808,828,849,869,889,909,928,949,968,990,1008,1028,1049,1068,1089,1109,1128,1148,1168,1189,1209,1228,1249,1269,1288,1309,1328,1350,1368,1388,1409,1428,1450,1469,1489,1509,1528,1549,1569,1589,1609,1629,1648,1668,1688,1708,1728,1749,1769,1788,1808,1828,1848,1868,1888,1908,1928,1948,1968,1989,2008,2028,2048,2068,2089,2109,2129,2149,2169,2189,2209,2228,2248,2268,2289],"xSR":741.5,"ySR":458.25,"xT1":424.9,"yT1":0,"xT2":1058.1,"yT2":0,"toosoon":0,"cond_shown":"Incongruent","ratio_trial":200,"L_num":7,"L_den":10,"R_num":12,"R_den":24,"correct_side":1,"subjID":"HannaSofiaOlayaCorredor9","gender":"1","school":"2019","age":"10"},{"start_time":1551887030716,"click_time":1551887032673,"finger_time":1551887032233,"fix_duration":802.4621959580506,"trial":5,"RT":1517,"MT":440,"sideResp":1,"stimulus":[],"xmouse":[803,803,803,803,803,803,803,803,803,803,803,803,803,803,803,803,803,803,803,803,803,803,803,803,803,803,803,803,803,803,803,803,803,803,803,803,803,803,803,803,803,803,803,803,803,803,803,803,803,803,803,803,803,803,803,803,803,803,803,803,803,803,803,803,803,803,799,794,778,773,767,763,758,754,745,741,726,685,549,480,443,432,430,429,429,429,429,429,429,429,429,429,430,431,435,440,445,450],"ymouse":[500,500,500,500,500,500,500,500,500,500,500,500,500,500,500,500,500,500,500,500,500,500,500,500,500,500,500,500,500,500,500,500,500,500,500,500,500,500,500,500,500,500,500,500,500,500,500,500,500,500,500,500,500,500,500,500,500,500,500,500,500,500,500,500,500,500,501,498,489,485,481,479,477,475,470,467,453,410,301,251,222,212,208,204,202,199,195,193,186,182,177,173,167,161,145,127,112,97],"timestamp_mouse":[17,41,56,76,98,117,137,157,178,197,216,237,257,276,298,317,336,357,377,397,416,437,458,478,496,517,536,556,578,597,617,637,658,676,697,716,736,756,776,796,817,838,857,876,897,918,936,956,978,996,1016,1037,1057,1076,1097,1116,1137,1157,1177,1196,1216,1237,1256,1277,1296,1317,1337,1356,1376,1396,1417,1437,1457,1476,1497,1517,1536,1557,1576,1596,1617,1637,1657,1677,1696,1716,1737,1757,1777,1797,1816,1837,1857,1877,1897,1916,1936,1957],"xSR":741.5,"ySR":458.25,"xT1":424.9,"yT1":0,"xT2":1058.1,"yT2":0,"toosoon":0,"cond_shown":"Incongruent","ratio_trial":200,"L_num":3,"L_den":10,"R_num":1,"R_den":2,"correct_side":2,"subjID":"HannaSofiaOlayaCorredor9","gender":"1","school":"2019","age":"10"},{"start_time":1551887041937,"click_time":1551887052893,"finger_time":1551887044192,"fix_duration":1043.35088703815,"trial":6,"RT":2255,"MT":8701,"sideResp":1,"stimulus":[],"xmouse":[804,804,804,804,804,804,804,804,804,804,804,804,804,804,804,804,804,804,804,804,804,804,804,804,804,804,804,804,804,804,804,804,804,804,804,804,804,804,804,804,804,804,804,804,804,804,804,804,804,804,804,804,804,804,804,804,804,804,804,804,804,804,804,804,804,804,804,804,804,804,804,804,804,804,804,804,804,804,804,804,804,804,804,804,804,804,804,803,801,798,796,796,796,796,796,796,796,796,796,796,796,796,796,796,796,796,796,796,796,795,794,792,786,785,781,779,776,763,753,740,731,722,711,703,689,679,669,661,661,660,660,660,660,660,660,660,660,660,660,660,660,660,660,660,660,660,660,660,660,660,660,660,660,660,660,660,660,660,660,660,660,660,660,660,660,660,660,660,660,660,660,660,660,659,658,657,656,656,656,656,656,656,656,656,656,656,656,656,656,656,656,656,656,656,656,656,656,656,656,656,656,656,656,656,656,656,656,656,656,656,656,656,655,654,654,654,654,654,654,654,654,654,654,654,654,654,654,654,654,654,654,654,654,654,654,654,654,654,654,654,654,654,654,654,654,654,654,654,654,654,654,654,654,654,655,656,657,658,658,658,658,658,659,659,659,658,658,657,654,653,651,651,651,651,651,651,650,649,649,649,649,649,649,649,649,649,649,649,649,649,649,649,649,649,649,649,649,649,649,649,648,647,642,642,642,641,641,641,641,641,641,640,640,639,638,636,636,636,636,636,636,635,635,635,635,635,635,635,634,634,634,634,632,632,631,631,631,631,631,631,631,631,631,631,631,631,631,631,631,631,631,631,631,631,631,633,635,640,640,640,640,640,640,640,640,640,640,640,640,640,640,640,640,640,640,640,640,640,640,640,640,640,640,640,640,640,640,640,640,640,640,640,640,640,640,640,640,640,640,640,640,640,640,640,640,640,640,640,640,640,640,640,640,640,640,640,640,641,641,641,641,641,641,641,641,641,641,641,641,641,641,641,641,641,641,641,641,641,641,641,641,641,641,641,641,641,641,641,641,641,640,640,640,640,640,640,640,640,640,640,640,640,640,640,640,640,640,640,640,640,640,640,640,640,640,640,640,640,640,640,640,640,640,640,640,640,640,640,640,640,640,640,640,640,640,640,640,640,640,640,640,640,640,640,640,640,640,637,634,631,628,626,624,622,620,620,619,619,617,615,611,606,601,582,564,553,541,535,529,528,527,524,521,516,514,513,512,507,503,499,495,494,494,494,494,494,492,472],"ymouse":[480,480,480,480,480,480,480,480,480,480,480,480,480,480,480,480,480,480,480,480,480,480,480,480,480,480,480,480,480,480,480,480,480,480,480,480,480,480,480,480,480,480,480,480,480,480,480,480,480,480,480,480,480,480,480,480,480,480,480,480,480,480,480,480,480,480,480,480,480,480,480,480,480,480,480,480,480,480,480,480,480,480,480,480,480,480,480,478,474,469,466,465,465,465,465,465,465,465,465,465,465,465,465,465,465,465,465,465,465,464,463,460,450,447,437,431,422,389,365,338,315,296,269,255,234,222,210,198,198,198,198,198,198,198,198,198,198,198,198,198,198,198,198,198,198,198,198,198,198,198,198,198,198,198,198,198,198,198,198,198,198,198,198,198,202,207,211,212,212,212,212,212,212,214,217,218,220,220,220,220,220,220,220,220,220,220,220,220,220,220,220,220,220,220,220,220,220,220,220,220,220,220,220,220,220,220,220,220,220,220,220,220,221,222,222,222,222,222,222,222,222,222,222,222,222,222,222,222,222,222,222,222,222,222,222,222,222,222,222,222,222,222,222,222,223,223,223,224,224,224,224,224,224,224,224,225,225,226,226,226,226,226,226,228,228,229,230,230,232,233,234,234,234,234,234,235,235,236,236,236,236,236,236,236,236,236,236,236,236,236,236,236,236,236,236,236,236,236,236,236,236,236,237,237,237,237,237,237,237,237,237,237,237,238,239,240,240,240,240,240,240,240,241,241,241,241,241,241,241,242,242,243,244,244,245,245,246,247,247,247,247,247,247,247,247,247,247,247,247,247,247,247,247,247,247,247,247,247,247,247,247,247,247,247,247,247,247,247,247,247,247,247,247,247,247,247,247,247,247,247,247,247,247,247,247,247,247,247,247,247,247,247,247,247,247,247,247,247,247,247,247,247,247,247,247,247,247,247,247,247,247,247,247,247,247,247,247,247,247,247,247,247,247,247,247,247,247,247,247,247,247,247,247,247,247,247,247,247,247,247,247,247,247,247,247,250,251,254,255,255,256,256,256,256,256,256,256,256,256,256,256,256,256,256,256,256,256,256,256,256,256,256,256,256,256,256,256,256,256,256,256,256,256,256,256,256,256,256,256,256,256,256,256,256,256,256,256,256,256,256,256,256,256,256,256,257,257,258,258,258,258,258,258,258,258,258,258,258,258,258,255,250,247,232,216,204,190,179,170,169,166,161,154,143,139,138,136,129,120,113,108,106,106,106,106,105,101,74],"timestamp_mouse":[16,38,56,75,96,115,136,155,175,196,215,235,256,277,296,316,337,355,375,397,415,435,455,476,495,515,536,557,575,596,617,635,656,677,696,715,737,755,777,795,816,835,856,875,896,916,936,955,975,996,1015,1036,1056,1075,1096,1115,1135,1155,1176,1195,1216,1235,1256,1275,1295,1317,1335,1356,1375,1396,1416,1435,1457,1475,1495,1516,1536,1557,1576,1597,1616,1637,1656,1676,1695,1716,1735,1755,1776,1795,1815,1837,1856,1876,1895,1915,1937,1955,1975,1995,2017,2035,2056,2076,2096,2116,2136,2155,2175,2196,2216,2235,2255,2277,2296,2315,2335,2356,2376,2396,2416,2437,2455,2476,2495,2515,2535,2555,2576,2596,2615,2636,2656,2676,2695,2715,2736,2756,2775,2795,2815,2835,2856,2876,2895,2916,2936,2956,2975,2995,3015,3035,3056,3077,3095,3116,3136,3156,3176,3195,3215,3235,3255,3277,3296,3315,3335,3356,3376,3396,3415,3436,3456,3476,3495,3515,3535,3555,3575,3596,3616,3635,3656,3675,3695,3715,3736,3756,3775,3795,3816,3835,3857,3875,3896,3915,3935,3956,3976,3996,4015,4035,4055,4075,4095,4115,4135,4157,4176,4195,4215,4235,4255,4276,4296,4315,4335,4356,4375,4395,4416,4437,4456,4475,4495,4516,4536,4556,4575,4596,4616,4635,4656,4676,4695,4715,4736,4755,4776,4795,4817,4835,4856,4875,4895,4915,4936,4956,4977,4995,5016,5035,5056,5076,5096,5115,5135,5155,5175,5196,5216,5236,5255,5275,5295,5316,5337,5355,5375,5395,5415,5435,5456,5475,5496,5516,5535,5556,5575,5595,5615,5635,5656,5676,5695,5716,5735,5755,5776,5796,5815,5835,5856,5875,5896,5915,5935,5955,5975,5996,6015,6036,6056,6075,6095,6115,6136,6155,6176,6196,6216,6235,6256,6276,6296,6316,6336,6356,6375,6395,6416,6437,6457,6475,6495,6516,6535,6556,6577,6595,6615,6636,6656,6677,6695,6716,6735,6756,6776,6795,6815,6836,6856,6875,6895,6916,6937,6956,6976,6995,7015,7036,7057,7076,7096,7116,7135,7155,7175,7195,7216,7237,7257,7276,7295,7315,7335,7356,7376,7397,7417,7436,7456,7477,7496,7516,7535,7556,7577,7595,7616,7636,7656,7676,7696,7717,7735,7756,7775,7795,7815,7835,7856,7877,7896,7915,7935,7956,7976,7996,8016,8035,8055,8075,8096,8115,8136,8156,8176,8197,8216,8236,8256,8275,8295,8315,8336,8355,8375,8395,8416,8436,8456,8476,8496,8516,8535,8556,8575,8595,8615,8635,8655,8676,8697,8715,8735,8756,8776,8796,8816,8836,8856,8876,8897,8915,8935,8955,8976,8995,9016,9035,9056,9076,9096,9116,9135,9157,9176,9195,9216,9235,9257,9276,9295,9315,9336,9355,9375,9396,9415,9435,9456,9475,9496,9515,9535,9556,9575,9595,9615,9635,9656,9676,9695,9715,9735,9756,9775,9796,9815,9836,9856,9875,9896,9915,9936,9956,9976,9996,10016,10037,10056,10076,10096,10116,10137,10156,10176,10195,10216,10235,10255,10276,10296,10315,10335,10355,10375,10396,10415,10436,10456,10476,10496,10515,10535,10555,10575,10596,10615,10635,10656,10677,10695,10715,10735,10755,10775,10797,10815,10836,10856,10877,10896,10916,10935,10955],"xSR":741.5,"ySR":458.25,"xT1":424.9,"yT1":0,"xT2":1058.1,"yT2":0,"toosoon":0,"cond_shown":"Incongruent","ratio_trial":200,"L_num":4,"L_den":30,"R_num":1,"R_den":3,"correct_side":2,"subjID":"HannaSofiaOlayaCorredor9","gender":"1","school":"2019","age":"10"},{"start_time":1551887092584,"click_time":1551887094693,"finger_time":1551887094032,"fix_duration":329.3752689989953,"trial":7,"RT":1448,"MT":661,"sideResp":1,"stimulus":[],"xmouse":[787,788,788,788,788,789,789,789,789,789,789,789,789,791,791,791,791,791,791,791,791,791,791,791,791,791,791,791,791,791,791,791,791,791,791,791,791,791,791,791,791,791,791,791,791,791,791,791,791,791,791,791,791,791,791,791,791,791,791,791,791,791,791,791,791,791,791,791,788,786,768,748,735,726,722,712,707,699,689,673,644,635,631,630,626,621,601,589,580,573,562,560,558,556,555,553,553,553,553,553,553,552,550,542,535,524],"ymouse":[487,487,487,487,487,487,487,487,487,487,487,487,487,487,487,487,487,487,487,487,487,487,487,487,487,487,487,487,487,487,487,487,487,487,487,487,487,487,487,487,487,487,487,487,487,487,487,487,487,487,487,487,487,487,487,487,487,487,487,487,487,487,487,487,487,487,487,487,487,487,485,476,468,463,460,454,450,438,416,380,323,307,299,295,288,276,229,203,184,167,135,126,121,117,114,112,111,111,111,111,111,111,109,106,102,94],"timestamp_mouse":[9,39,48,69,88,109,130,148,168,189,208,229,249,269,289,309,328,348,369,388,408,429,450,470,488,510,529,550,569,589,609,628,648,668,688,709,730,749,769,790,808,830,848,869,889,910,930,948,968,988,1009,1030,1049,1068,1088,1108,1129,1149,1168,1190,1209,1230,1249,1269,1289,1308,1328,1349,1368,1388,1408,1430,1448,1470,1489,1508,1528,1549,1569,1588,1609,1628,1649,1669,1689,1709,1729,1749,1768,1789,1809,1829,1849,1869,1889,1908,1929,1948,1969,1988,2009,2029,2049,2068,2088,2109],"xSR":741.5,"ySR":458.25,"xT1":424.9,"yT1":0,"xT2":1058.1,"yT2":0,"toosoon":0,"cond_shown":"Congruent","ratio_trial":100,"L_num":8,"L_den":16,"R_num":2,"R_den":5,"correct_side":1,"subjID":"HannaSofiaOlayaCorredor9","gender":"1","school":"2019","age":"10"},{"start_time":1551887097201,"click_time":1551887099713,"finger_time":1551887099193,"fix_duration":967.2950835908769,"trial":8,"RT":1992,"MT":520,"sideResp":2,"stimulus":[],"xmouse":[803,803,803,803,803,803,803,803,803,803,803,803,803,803,803,803,803,803,803,803,803,803,803,803,803,803,803,803,803,803,803,803,803,803,803,803,803,803,803,803,803,803,803,803,803,803,803,803,803,803,803,803,803,803,803,803,803,803,803,803,803,803,803,803,803,803,803,803,803,803,803,803,803,803,803,803,803,803,803,803,803,803,803,803,803,803,803,803,803,803,803,803,803,803,802,808,817,825,838,872,909,926,974,992,1000,1000,1001,1001,1001,1001,1001,1001,1001,1001,997,997,1002,1011,1023,1055,1065,1080,1088,1097,1110,1117],"ymouse":[489,489,489,489,489,489,489,489,489,489,489,489,489,489,489,489,489,489,489,489,489,489,489,489,489,489,489,489,489,489,489,489,489,489,489,489,489,489,489,489,489,489,489,489,489,489,489,489,489,489,489,489,489,489,489,489,489,489,489,489,489,489,489,489,489,489,489,489,489,489,489,489,489,489,489,489,489,489,489,489,489,489,489,489,489,489,489,489,489,489,489,489,489,489,489,485,478,471,463,443,422,410,356,341,331,330,329,329,329,329,328,324,316,308,288,277,264,247,235,208,194,169,154,140,107,80],"timestamp_mouse":[14,36,52,72,91,111,131,151,171,191,212,231,253,272,292,312,331,351,373,391,413,431,451,472,491,513,533,551,571,592,612,631,651,672,692,713,733,752,771,791,811,831,851,873,893,912,931,951,971,993,1012,1031,1051,1071,1091,1112,1131,1151,1171,1192,1212,1232,1251,1271,1291,1312,1331,1352,1372,1391,1411,1432,1452,1472,1491,1513,1533,1551,1571,1593,1611,1632,1653,1672,1692,1712,1731,1752,1771,1792,1813,1831,1851,1872,1891,1912,1931,1952,1972,1992,2011,2033,2052,2071,2092,2112,2131,2151,2173,2192,2211,2231,2252,2271,2291,2312,2331,2352,2372,2393,2411,2431,2452,2473,2491,2512],"xSR":741.5,"ySR":458.25,"xT1":424.9,"yT1":0,"xT2":1058.1,"yT2":0,"toosoon":0,"cond_shown":"Congruent","ratio_trial":200,"L_num":6,"L_den":20,"R_num":11,"R_den":22,"correct_side":2,"subjID":"HannaSofiaOlayaCorredor9","gender":"1","school":"2019","age":"10"},{"start_time":1551887101426,"click_time":1551887103553,"finger_time":1551887103073,"fix_duration":250,"trial":9,"RT":1647,"MT":480,"sideResp":2,"stimulus":[],"xmouse":[768,768,768,768,769,771,773,773,773,774,774,775,776,776,776,776,776,776,776,776,776,776,776,776,776,776,776,776,776,776,776,776,776,776,776,776,776,776,776,776,776,776,776,776,776,776,776,776,776,776,776,776,776,776,776,776,776,776,776,776,776,776,776,776,776,776,776,777,777,777,777,779,781,785,788,789,792,795,800,805,813,831,849,887,906,921,937,956,995,1017,1023,1025,1027,1027,1027,1027,1027,1027,1032,1038,1051,1063,1075,1105,1117,1126,1134],"ymouse":[503,503,503,504,504,504,504,504,504,504,504,503,502,502,502,502,502,502,502,502,502,502,502,502,502,502,502,502,502,502,502,502,502,502,502,502,502,502,502,502,502,502,502,502,502,502,502,502,502,502,502,502,502,502,502,502,502,502,502,502,502,502,502,502,502,502,502,502,502,502,502,501,501,500,499,499,498,497,495,493,489,476,463,435,422,407,393,376,334,291,269,251,238,226,223,220,216,210,191,180,161,148,137,119,112,105,98],"timestamp_mouse":[10,31,46,66,87,108,127,146,166,187,207,227,247,267,287,306,326,348,366,387,406,426,447,467,488,507,526,547,568,588,607,628,646,666,688,706,727,748,767,787,808,828,847,868,887,907,927,948,967,987,1007,1028,1047,1068,1086,1108,1127,1147,1168,1187,1207,1227,1247,1267,1287,1307,1328,1346,1367,1386,1407,1426,1446,1466,1487,1506,1526,1547,1567,1587,1606,1628,1647,1666,1686,1707,1727,1746,1766,1786,1806,1827,1846,1866,1886,1907,1927,1946,1967,1986,2006,2027,2046,2066,2087,2107,2127],"xSR":741.5,"ySR":458.25,"xT1":424.9,"yT1":0,"xT2":1058.1,"yT2":0,"toosoon":0,"cond_shown":"Incongruent","ratio_trial":100,"L_num":2,"L_den":4,"R_num":6,"R_den":15,"correct_side":1,"subjID":"HannaSofiaOlayaCorredor9","gender":"1","school":"2019","age":"10"},{"start_time":1551887105306,"click_time":1551887107293,"finger_time":1551887106992,"fix_duration":250,"trial":10,"RT":1686,"MT":301,"sideResp":1,"stimulus":[],"xmouse":[784,784,784,787,789,790,790,790,790,790,791,791,792,792,792,792,792,792,792,792,792,792,792,792,792,793,793,795,795,795,795,795,795,795,795,796,796,796,796,796,796,796,796,796,796,796,796,796,796,796,796,796,796,796,796,796,796,796,796,796,796,796,796,796,796,796,796,796,796,796,796,796,796,796,796,796,796,796,796,796,791,787,782,774,749,729,691,657,615,585,583,581,579,579,577,574,565,557,545,521],"ymouse":[512,512,512,512,511,510,510,510,510,510,510,510,510,510,510,510,510,510,510,510,510,510,510,510,510,510,510,510,510,510,510,510,510,510,510,509,509,509,509,509,509,509,509,509,509,509,509,509,509,509,509,509,509,509,509,509,509,509,509,509,509,509,509,509,509,509,509,509,509,509,509,509,509,509,509,509,509,509,509,509,506,503,499,489,454,430,386,350,310,275,271,266,263,261,255,250,224,194,153,66],"timestamp_mouse":[13,39,51,66,87,108,126,148,167,187,207,227,247,268,287,307,326,347,366,386,407,426,446,467,486,507,527,548,566,586,607,627,647,666,688,707,728,747,766,788,807,826,848,867,888,907,926,947,968,986,1007,1028,1047,1067,1087,1107,1127,1147,1166,1187,1208,1226,1247,1267,1288,1307,1327,1346,1366,1388,1408,1426,1447,1467,1487,1508,1527,1548,1566,1587,1606,1626,1647,1667,1686,1706,1727,1747,1767,1787,1807,1826,1847,1866,1886,1907,1927,1947,1966,1987],"xSR":741.5,"ySR":458.25,"xT1":424.9,"yT1":0,"xT2":1058.1,"yT2":0,"toosoon":0,"cond_shown":"Congruent","ratio_trial":100,"L_num":7,"L_den":14,"R_num":15,"R_den":25,"correct_side":2,"subjID":"HannaSofiaOlayaCorredor9","gender":"1","school":"2019","age":"10"},{"start_time":1551887109874,"click_time":1551887111974,"finger_time":1551887111552,"fix_duration":1040.960086422765,"trial":11,"RT":1678,"MT":422,"sideResp":2,"stimulus":[],"xmouse":[815,815,815,815,815,815,815,815,815,815,815,815,815,815,815,815,815,815,815,815,815,815,815,815,815,815,815,815,815,815,815,815,815,815,815,815,815,815,815,815,815,815,815,815,815,815,815,815,815,815,815,815,815,815,815,815,815,815,815,815,815,815,815,815,815,815,815,815,815,815,815,815,815,816,818,820,820,822,824,825,827,830,835,845,860,897,910,936,953,967,992,1001,1007,1012,1016,1024,1025,1025,1025,1025,1026,1036,1045,1056,1063],"ymouse":[492,492,492,492,492,492,492,492,492,492,492,492,492,492,492,492,492,492,492,492,492,492,492,492,492,492,492,492,492,492,492,492,492,492,492,492,492,492,492,492,492,492,492,492,492,492,492,492,492,492,492,492,492,492,492,492,492,492,492,492,492,492,492,492,492,492,492,492,492,492,492,492,492,490,489,486,485,481,478,475,473,469,464,453,433,382,359,321,295,271,206,185,167,153,136,109,107,107,107,107,107,103,99,94,89],"timestamp_mouse":[33,38,59,79,99,119,139,159,180,198,218,240,258,279,299,318,339,358,380,398,418,440,458,479,499,518,538,559,578,599,618,638,660,680,700,718,739,759,779,798,820,839,860,878,900,920,938,960,980,1000,1019,1039,1058,1078,1098,1119,1139,1158,1180,1198,1219,1238,1259,1280,1298,1320,1340,1358,1379,1400,1420,1439,1459,1479,1498,1519,1539,1559,1579,1598,1618,1639,1659,1678,1699,1718,1738,1759,1778,1799,1818,1838,1858,1878,1898,1919,1938,1959,1979,1998,2018,2038,2058,2080,2100],"xSR":741.5,"ySR":458.25,"xT1":424.9,"yT1":0,"xT2":1058.1,"yT2":0,"toosoon":0,"cond_shown":"Incongruent","ratio_trial":300,"L_num":13,"L_den":26,"R_num":12,"R_den":15,"correct_side":2,"subjID":"HannaSofiaOlayaCorredor9","gender":"1","school":"2019","age":"10"},{"start_time":1551887116338,"click_time":1551887118874,"finger_time":1551887118493,"fix_duration":1464.0010643697583,"trial":12,"RT":2155,"MT":381,"sideResp":2,"stimulus":[],"xmouse":[791,791,791,791,791,791,791,791,791,791,791,791,791,791,791,791,791,791,791,791,791,791,791,791,791,791,791,791,791,791,791,791,791,791,791,791,791,791,791,791,791,791,791,791,791,791,791,791,791,791,791,791,791,791,791,791,791,791,791,791,791,791,791,791,791,791,791,791,791,791,791,791,791,791,791,791,791,791,791,791,791,791,791,791,791,791,791,791,791,791,791,791,791,791,791,791,791,791,791,791,791,791,791,791,798,808,820,855,880,903,928,956,1019,1048,1061,1072,1081,1091,1092,1094,1096,1097,1099,1099,1098,1096,1094],"ymouse":[489,489,489,489,489,489,489,489,489,489,489,489,489,489,489,489,489,489,489,489,489,489,489,489,489,489,489,489,489,489,489,489,489,489,489,489,489,489,489,489,489,489,489,489,489,489,489,489,489,489,489,489,489,489,489,489,489,489,489,489,489,489,489,489,489,489,489,489,489,489,489,489,489,489,489,489,489,489,489,489,489,489,489,489,489,489,489,489,489,489,489,489,489,489,489,489,489,489,489,489,489,489,489,489,485,478,468,436,411,384,350,318,284,269,260,251,243,228,224,222,218,212,177,149,113,101,97],"timestamp_mouse":[14,41,54,75,94,114,134,154,175,196,215,234,255,274,294,315,335,354,375,394,414,435,455,474,495,514,536,554,575,595,615,635,654,676,696,714,734,755,775,794,815,835,856,875,894,915,934,956,975,995,1014,1034,1054,1075,1095,1115,1136,1154,1174,1195,1214,1236,1255,1275,1295,1315,1334,1355,1374,1394,1415,1434,1455,1474,1494,1514,1534,1556,1576,1594,1615,1634,1655,1674,1695,1716,1734,1756,1775,1794,1815,1834,1856,1874,1896,1916,1934,1955,1975,1995,2016,2034,2055,2075,2094,2114,2134,2155,2175,2195,2215,2235,2255,2274,2295,2315,2335,2354,2375,2395,2414,2434,2455,2476,2494,2514,2535],"xSR":741.5,"ySR":458.25,"xT1":424.9,"yT1":0,"xT2":1058.1,"yT2":0,"toosoon":0,"cond_shown":"Incongruent","ratio_trial":300,"L_num":4,"L_den":5,"R_num":6,"R_den":12,"correct_side":1,"subjID":"HannaSofiaOlayaCorredor9","gender":"1","school":"2019","age":"10"},{"start_time":1551887123182,"click_time":1551887125212,"finger_time":1551887124593,"fix_duration":1026.9538583073308,"trial":13,"RT":1411,"MT":619,"sideResp":1,"stimulus":[],"xmouse":[775,775,775,775,775,775,775,775,775,775,775,775,775,775,775,775,775,775,775,775,775,775,775,775,775,775,775,775,775,775,775,775,775,775,775,775,775,775,775,775,775,775,775,775,775,775,775,775,775,775,775,775,775,775,775,775,775,775,775,775,775,775,775,775,775,775,775,768,760,756,729,683,621,549,529,514,509,507,507,507,506,505,502,502,502,500,498,497,495,494,494,494,494,494,494,494,493,493,493,492,490,489],"ymouse":[524,524,524,524,524,524,524,524,524,524,524,524,524,524,524,524,524,524,524,524,524,524,524,524,524,524,524,524,524,524,524,524,524,524,524,524,524,524,524,524,524,524,524,524,524,524,524,524,524,524,524,524,524,524,524,524,524,524,524,524,524,524,524,524,524,524,525,521,511,505,475,434,384,332,315,286,273,266,260,253,229,215,197,186,177,159,150,144,140,137,136,136,136,136,136,132,129,127,124,121,109,98],"timestamp_mouse":[10,42,51,71,91,110,130,150,170,191,210,230,250,270,292,310,330,352,371,391,410,432,450,471,490,510,531,550,571,591,611,631,651,671,690,712,730,751,772,790,810,832,851,871,892,911,931,950,970,991,1010,1031,1051,1071,1091,1111,1130,1151,1170,1190,1211,1232,1251,1272,1290,1310,1331,1351,1370,1392,1411,1430,1450,1471,1491,1512,1531,1550,1571,1590,1611,1632,1650,1670,1690,1712,1731,1751,1771,1790,1811,1831,1851,1871,1891,1910,1930,1951,1970,1990,2010,2030],"xSR":741.5,"ySR":458.25,"xT1":424.9,"yT1":0,"xT2":1058.1,"yT2":0,"toosoon":0,"cond_shown":"Congruent","ratio_trial":300,"L_num":24,"L_den":30,"R_num":8,"R_den":16,"correct_side":1,"subjID":"HannaSofiaOlayaCorredor9","gender":"1","school":"2019","age":"10"},{"start_time":1551887128369,"click_time":1551887130093,"finger_time":1551887129792,"fix_duration":1415.973043678172,"trial":14,"RT":1423,"MT":301,"sideResp":1,"stimulus":[],"xmouse":[822,822,822,822,822,822,822,822,822,822,822,822,822,822,822,822,822,822,822,822,822,822,822,822,822,822,822,822,822,822,822,822,822,822,822,822,822,822,822,822,822,822,822,822,822,822,822,822,822,822,822,822,822,822,822,822,822,822,822,822,822,822,822,822,822,822,812,803,799,793,781,749,689,628,587,571,560,554,547,543,542,540,539,536,533,530,516],"ymouse":[507,507,507,507,507,507,507,507,507,507,507,507,507,507,507,507,507,507,507,507,507,507,507,507,507,507,507,507,507,507,507,507,507,507,507,507,507,507,507,507,507,507,507,507,507,507,507,507,507,507,507,507,507,507,507,507,507,507,507,507,507,507,507,507,507,507,503,498,495,490,477,429,344,262,206,185,159,146,131,123,119,114,111,107,104,101,89],"timestamp_mouse":[9,40,43,64,84,103,124,145,164,183,203,223,244,265,283,303,324,345,364,384,403,423,445,464,483,503,523,545,563,585,605,624,645,664,684,705,723,743,764,785,803,823,845,864,883,904,925,944,964,984,1004,1023,1044,1064,1083,1104,1123,1144,1163,1184,1204,1225,1243,1263,1284,1304,1324,1344,1364,1385,1405,1423,1444,1464,1483,1504,1523,1544,1565,1584,1603,1624,1645,1664,1683,1704,1723],"xSR":741.5,"ySR":458.25,"xT1":424.9,"yT1":0,"xT2":1058.1,"yT2":0,"toosoon":0,"cond_shown":"Congruent","ratio_trial":300,"L_num":4,"L_den":5,"R_num":2,"R_den":4,"correct_side":1,"subjID":"HannaSofiaOlayaCorredor9","gender":"1","school":"2019","age":"10"},{"start_time":1551887132564,"click_time":1551887134393,"finger_time":1551887134173,"fix_duration":930.4713160680028,"trial":15,"RT":1609,"MT":220,"sideResp":1,"stimulus":[],"xmouse":[771,771,771,771,771,771,771,771,771,771,771,771,771,771,771,771,771,771,771,771,771,771,771,771,771,771,771,771,771,771,771,771,771,771,771,771,771,771,771,771,771,771,771,771,771,771,771,771,771,771,771,771,771,771,771,771,771,771,771,771,771,771,771,771,771,771,771,771,771,771,771,771,771,771,769,768,762,761,757,750,738,673,650,621,605,599,592,587,582,571,552,479],"ymouse":[498,498,498,498,498,498,498,498,498,498,498,498,498,498,498,498,498,498,498,498,498,498,498,498,498,498,498,498,498,498,498,498,498,498,498,498,498,498,498,498,498,498,498,498,498,498,498,498,498,498,498,498,498,498,498,498,498,498,498,498,498,498,498,498,498,498,498,498,498,498,498,498,498,498,498,498,498,498,498,493,480,382,338,276,249,235,219,209,196,176,147,54],"timestamp_mouse":[10,31,49,70,88,109,129,149,169,189,210,228,248,269,288,309,329,350,368,388,410,428,449,468,489,510,528,549,568,590,609,628,649,668,689,708,728,750,769,789,809,828,848,870,890,908,928,949,969,989,1009,1029,1048,1068,1089,1109,1129,1148,1170,1188,1210,1228,1249,1270,1288,1309,1328,1350,1368,1390,1408,1429,1448,1469,1490,1509,1528,1549,1568,1588,1609,1628,1649,1668,1689,1709,1729,1749,1770,1788,1808,1828],"xSR":741.5,"ySR":458.25,"xT1":424.9,"yT1":0,"xT2":1058.1,"yT2":0,"toosoon":0,"cond_shown":"Incongruent","ratio_trial":100,"L_num":6,"L_den":12,"R_num":3,"R_den":5,"correct_side":2,"subjID":"HannaSofiaOlayaCorredor9","gender":"1","school":"2019","age":"10"},{"start_time":1551887136553,"click_time":1551887138272,"finger_time":1551887137934,"fix_duration":460.4704021102981,"trial":16,"RT":1381,"MT":338,"sideResp":2,"stimulus":[],"xmouse":[770,770,770,770,771,771,771,772,772,772,772,772,772,772,772,772,772,772,772,772,772,772,772,772,772,772,772,772,773,773,773,773,773,773,773,773,773,773,773,773,773,773,773,773,773,773,776,783,792,801,804,805,805,805,805,805,805,805,805,805,805,805,805,805,805,805,823,837,854,870,886,924,964,981,1028,1049,1068,1073,1078,1079,1079,1079,1082,1094,1101,1104],"ymouse":[494,494,494,494,494,494,494,494,494,494,494,494,494,494,494,494,494,494,494,494,494,494,494,494,494,494,495,495,495,495,495,495,495,495,495,495,495,495,495,495,495,495,495,495,495,495,495,494,491,489,488,487,487,487,487,487,487,487,487,487,487,487,487,487,487,487,474,466,452,438,422,373,313,293,229,194,147,127,111,108,108,108,107,103,100,98],"timestamp_mouse":[20,40,61,80,101,121,139,160,181,200,219,240,260,279,299,319,341,360,379,400,419,440,459,479,499,519,540,560,580,600,619,640,659,680,700,720,741,760,779,799,820,841,859,880,900,919,940,960,980,1001,1020,1039,1059,1080,1099,1120,1139,1159,1179,1200,1219,1241,1259,1279,1299,1320,1340,1359,1381,1401,1420,1439,1460,1480,1500,1519,1539,1559,1580,1600,1619,1639,1660,1680,1699,1719],"xSR":741.5,"ySR":458.25,"xT1":424.9,"yT1":0,"xT2":1058.1,"yT2":0,"toosoon":0,"cond_shown":"Congruent","ratio_trial":300,"L_num":2,"L_den":20,"R_num":10,"R_den":25,"correct_side":2,"subjID":"HannaSofiaOlayaCorredor9","gender":"1","school":"2019","age":"10"},{"start_time":1551887142930,"click_time":1551887145193,"finger_time":1551887144592,"fix_duration":1236.8633174127335,"trial":17,"RT":1662,"MT":601,"sideResp":2,"stimulus":[],"xmouse":[801,801,801,801,801,801,801,801,801,801,801,801,801,801,801,801,801,801,801,801,801,801,801,801,801,801,801,801,801,801,801,801,801,801,801,801,801,801,801,801,801,801,801,801,801,801,801,801,801,801,801,801,801,801,801,801,801,801,801,801,801,801,801,801,801,801,801,801,801,801,801,801,801,801,801,801,801,801,801,801,801,806,810,844,860,864,867,871,877,878,878,878,879,882,892,913,934,954,995,1013,1025,1032,1034,1035,1035,1035,1035,1035,1036,1036,1039,1042,1048,1075],"ymouse":[498,498,498,498,498,498,498,498,498,498,498,498,498,498,498,498,498,498,498,498,498,498,498,498,498,498,498,498,498,498,498,498,498,498,498,498,498,498,498,498,498,498,498,498,498,498,498,498,498,498,498,498,498,498,498,498,498,498,498,498,498,498,498,498,498,498,498,498,498,498,498,498,498,498,498,498,498,498,498,498,498,494,491,453,429,419,404,387,352,337,325,316,309,296,281,264,250,237,209,195,183,174,166,162,161,160,160,160,157,153,147,139,129,91],"timestamp_mouse":[11,32,43,63,83,103,124,143,163,184,202,224,243,263,282,304,323,344,363,383,402,422,443,463,482,502,524,542,563,584,603,622,644,664,683,704,723,742,763,782,804,822,842,864,884,902,923,944,964,983,1003,1023,1042,1063,1082,1103,1122,1142,1164,1184,1202,1223,1242,1264,1283,1303,1322,1344,1364,1382,1402,1423,1443,1463,1483,1503,1523,1543,1564,1583,1602,1623,1643,1662,1682,1703,1723,1743,1762,1782,1803,1823,1842,1863,1884,1903,1922,1942,1963,1983,2003,2023,2043,2063,2083,2103,2123,2144,2163,2183,2203,2222,2242,2262],"xSR":741.5,"ySR":458.25,"xT1":424.9,"yT1":0,"xT2":1058.1,"yT2":0,"toosoon":0,"cond_shown":"Congruent","ratio_trial":300,"L_num":5,"L_den":25,"R_num":7,"R_den":14,"correct_side":2,"subjID":"HannaSofiaOlayaCorredor9","gender":"1","school":"2019","age":"10"},{"start_time":1551887147066,"click_time":1551887148833,"finger_time":1551887148393,"fix_duration":250,"trial":18,"RT":1327,"MT":440,"sideResp":1,"stimulus":[],"xmouse":[825,825,825,825,825,825,825,825,825,825,825,825,825,825,825,825,825,825,825,825,825,825,825,825,825,825,825,825,825,825,825,825,825,825,825,825,825,825,825,825,825,825,825,825,825,825,825,825,825,825,825,825,825,825,825,825,825,825,825,825,825,825,825,821,815,797,692,641,606,596,589,586,586,585,583,577,560,556,552,544,537,527,521,515,508,503,494,490,480],"ymouse":[524,524,524,524,524,524,524,524,524,524,524,524,524,524,524,524,524,524,524,524,524,524,524,524,524,524,524,524,524,524,524,524,524,524,524,524,524,524,524,524,524,524,524,524,524,524,524,524,524,524,524,524,524,524,524,524,524,524,524,524,524,524,524,523,521,513,468,446,430,425,421,419,419,417,412,397,363,341,333,303,281,241,223,204,186,169,135,118,93],"timestamp_mouse":[10,42,47,66,87,106,126,148,166,187,208,227,248,268,287,307,327,346,366,387,407,426,447,468,487,506,528,548,566,586,606,628,646,668,686,707,727,748,766,786,808,827,846,867,887,906,928,946,967,987,1007,1027,1046,1067,1086,1108,1127,1147,1168,1186,1208,1227,1247,1267,1287,1307,1327,1347,1366,1386,1407,1427,1448,1468,1487,1507,1526,1546,1567,1588,1607,1626,1646,1666,1686,1708,1728,1747,1767],"xSR":741.5,"ySR":458.25,"xT1":424.9,"yT1":0,"xT2":1058.1,"yT2":0,"toosoon":0,"cond_shown":"Congruent","ratio_trial":100,"L_num":3,"L_den":6,"R_num":2,"R_den":5,"correct_side":1,"subjID":"HannaSofiaOlayaCorredor9","gender":"1","school":"2019","age":"10"},{"start_time":1551887153619,"click_time":1551887154992,"finger_time":1551887154473,"fix_duration":1165.1751542025572,"trial":19,"RT":854,"MT":519,"sideResp":2,"stimulus":[],"xmouse":[789,789,789,789,789,789,789,789,789,789,789,789,789,789,789,789,789,789,789,789,789,789,789,789,789,789,789,789,789,789,789,789,789,789,789,789,789,789,789,792,797,799,803,820,825,831,836,842,851,853,856,859,865,890,901,912,922,931,949,961,965,977,988,1008,1016,1027,1037,1047,1065],"ymouse":[517,516,516,516,516,516,516,516,516,516,516,516,516,516,516,516,516,516,516,516,515,515,515,515,515,515,515,515,515,515,515,515,515,515,515,515,515,511,501,492,475,459,439,389,366,345,322,299,272,268,264,262,258,240,229,216,203,192,169,158,154,141,130,105,96,85,74,65,52],"timestamp_mouse":[14,38,52,73,92,113,133,153,172,193,213,233,253,273,294,313,333,353,373,392,413,433,454,474,493,513,532,553,573,593,613,634,652,673,693,713,733,753,772,793,812,833,854,873,893,912,933,953,973,992,1013,1033,1053,1072,1093,1113,1133,1153,1172,1193,1213,1233,1254,1273,1293,1312,1332,1353,1373],"xSR":741.5,"ySR":458.25,"xT1":424.9,"yT1":0,"xT2":1058.1,"yT2":0,"toosoon":0,"cond_shown":"Congruent","ratio_trial":200,"L_num":1,"L_den":2,"R_num":21,"R_den":30,"correct_side":2,"subjID":"HannaSofiaOlayaCorredor9","gender":"1","school":"2019","age":"10"},{"start_time":1551887158699,"click_time":1551887161112,"finger_time":1551887160752,"fix_duration":326.85497781881213,"trial":20,"RT":2053,"MT":360,"sideResp":2,"stimulus":[],"xmouse":[775,775,775,775,775,775,775,775,775,775,775,775,775,775,775,775,775,775,775,775,775,775,775,775,775,775,775,775,775,775,775,775,775,775,775,775,775,775,775,775,775,775,775,775,775,775,775,775,775,775,775,775,775,775,775,775,775,775,775,775,775,775,775,775,775,775,775,775,775,775,775,775,775,775,775,775,775,775,775,775,775,775,775,771,751,744,743,742,742,742,742,742,742,742,742,742,742,742,742,742,742,742,746,753,783,803,828,840,853,880,900,918,939,965,998,1006,1015,1022,1031,1059,1071],"ymouse":[494,494,494,494,494,494,494,494,494,494,494,494,494,494,494,494,494,494,494,494,494,494,494,494,494,494,494,494,494,494,494,494,494,494,494,494,494,494,494,494,494,494,494,494,494,494,494,494,494,494,494,494,494,494,494,494,494,494,494,494,494,494,494,494,494,494,494,494,494,494,494,494,494,494,494,494,494,494,494,494,494,494,494,486,469,461,461,460,460,460,460,460,460,460,460,460,460,460,460,460,460,460,454,448,417,395,359,340,323,292,276,259,243,225,194,186,178,169,158,120,96],"timestamp_mouse":[17,56,56,74,93,112,133,152,173,192,213,233,254,272,294,313,333,354,373,392,413,432,454,472,492,514,534,553,572,594,614,632,653,674,692,714,733,752,773,794,814,834,854,873,893,913,933,953,974,993,1013,1032,1054,1074,1092,1112,1134,1152,1174,1194,1213,1234,1253,1274,1294,1313,1334,1353,1373,1394,1412,1434,1453,1473,1493,1514,1534,1553,1574,1593,1614,1633,1653,1673,1693,1712,1733,1754,1774,1793,1812,1834,1853,1874,1894,1913,1933,1953,1973,1992,2012,2033,2053,2073,2092,2113,2132,2153,2173,2193,2212,2233,2253,2274,2292,2313,2332,2352,2373,2393,2413],"xSR":741.5,"ySR":458.25,"xT1":424.9,"yT1":0,"xT2":1058.1,"yT2":0,"toosoon":0,"cond_shown":"Congruent","ratio_trial":300,"L_num":5,"L_den":25,"R_num":6,"R_den":12,"correct_side":2,"subjID":"HannaSofiaOlayaCorredor9","gender":"1","school":"2019","age":"10"},{"start_time":1551887163210,"click_time":1551887164811,"finger_time":1551887164572,"fix_duration":456.5579395470315,"trial":21,"RT":1362,"MT":239,"sideResp":1,"stimulus":[],"xmouse":[806,806,806,806,806,806,806,806,806,806,806,806,806,806,806,806,806,806,806,806,806,806,806,806,806,806,806,806,806,806,806,806,806,806,806,806,806,806,806,806,806,806,806,806,806,806,806,806,805,805,805,805,805,805,805,805,805,805,805,805,805,805,805,805,805,802,788,769,749,705,694,682,677,673,658,646,623,594,566,529,515],"ymouse":[503,503,503,503,503,503,503,503,503,503,503,503,503,503,503,503,503,503,503,503,503,503,503,503,503,503,503,503,503,503,503,503,503,503,503,503,503,503,503,503,503,503,503,503,503,503,503,503,503,503,503,503,503,503,502,501,501,501,501,501,501,501,501,501,500,494,479,460,436,385,368,348,331,313,267,240,205,166,134,88,72],"timestamp_mouse":[10,31,42,62,82,102,122,142,161,181,202,222,243,262,282,302,321,342,363,382,403,421,442,462,482,502,522,541,561,581,602,622,641,662,682,703,722,743,762,782,802,822,842,861,882,902,922,942,963,982,1002,1022,1043,1062,1082,1103,1123,1142,1163,1183,1201,1221,1242,1261,1283,1302,1322,1342,1362,1382,1402,1421,1441,1462,1481,1502,1521,1541,1561,1582,1601],"xSR":741.5,"ySR":458.25,"xT1":424.9,"yT1":0,"xT2":1058.1,"yT2":0,"toosoon":0,"cond_shown":"Congruent","ratio_trial":100,"L_num":9,"L_den":15,"R_num":8,"R_den":16,"correct_side":1,"subjID":"HannaSofiaOlayaCorredor9","gender":"1","school":"2019","age":"10"},{"start_time":1551887166866,"click_time":1551887168573,"finger_time":1551887168172,"fix_duration":292.7955322834617,"trial":22,"RT":1306,"MT":401,"sideResp":2,"stimulus":[],"xmouse":[783,783,783,783,783,783,783,783,783,783,783,783,783,783,783,783,783,783,783,783,783,783,783,783,783,783,783,783,783,783,783,783,783,783,783,783,783,783,783,783,783,783,783,783,783,783,783,783,783,783,783,783,783,783,783,783,783,783,783,784,790,800,809,821,837,853,895,931,954,974,982,999,1008,1011,1012,1012,1012,1012,1012,1012,1012,1012,1024,1044,1080,1113],"ymouse":[524,524,524,524,524,524,524,524,524,524,524,524,524,524,524,524,524,524,524,524,524,524,524,524,524,524,524,524,524,524,524,524,524,524,524,524,524,524,524,524,524,524,524,524,524,524,524,524,524,524,524,524,524,524,524,524,524,524,524,523,520,512,506,494,479,461,409,361,334,314,299,272,256,241,227,220,216,216,216,214,211,206,177,153,119,87],"timestamp_mouse":[10,41,46,65,87,107,125,146,166,186,207,226,245,266,285,305,327,346,366,385,407,425,447,465,485,507,525,545,567,586,606,625,647,665,687,707,726,746,766,787,806,826,846,865,885,906,927,946,965,987,1006,1026,1047,1067,1087,1105,1126,1147,1166,1186,1206,1225,1246,1266,1286,1306,1326,1346,1365,1386,1406,1426,1446,1467,1486,1507,1527,1547,1566,1585,1606,1626,1646,1666,1686,1707],"xSR":741.5,"ySR":458.25,"xT1":424.9,"yT1":0,"xT2":1058.1,"yT2":0,"toosoon":0,"cond_shown":"Incongruent","ratio_trial":200,"L_num":9,"L_den":15,"R_num":8,"R_den":10,"correct_side":2,"subjID":"HannaSofiaOlayaCorredor9","gender":"1","school":"2019","age":"10"},{"start_time":1551887170344,"click_time":1551887172071,"finger_time":1551887171612,"fix_duration":250,"trial":23,"RT":1268,"MT":459,"sideResp":2,"stimulus":[],"xmouse":[824,824,824,824,824,824,824,824,824,824,824,824,824,824,824,824,824,824,824,824,824,824,824,824,824,824,824,824,824,824,824,824,824,824,824,824,824,824,824,824,824,824,824,824,824,824,824,824,824,824,824,824,824,824,824,824,824,824,824,824,824,826,837,854,873,893,903,919,930,939,950,959,971,975,979,982,985,995,998,1005,1013,1022,1043,1056,1071,1095,1110],"ymouse":[493,493,493,493,493,493,493,493,493,493,493,493,493,493,493,493,493,493,493,493,493,493,493,493,493,493,493,493,493,493,493,493,493,493,493,493,493,493,493,493,493,493,493,493,493,493,493,493,493,493,493,493,493,493,493,493,493,493,493,493,493,491,479,460,435,405,388,358,342,327,312,299,270,258,244,238,232,218,210,199,188,176,150,137,124,105,92],"timestamp_mouse":[10,32,47,69,88,109,127,149,168,188,208,228,247,267,288,308,328,348,368,387,408,429,447,468,488,508,528,547,569,587,608,628,649,668,688,708,729,748,769,789,809,828,848,868,889,909,929,948,968,987,1007,1028,1048,1068,1089,1108,1128,1149,1168,1187,1208,1227,1248,1268,1288,1308,1329,1348,1368,1387,1408,1429,1448,1469,1488,1509,1528,1549,1567,1587,1609,1628,1648,1668,1688,1708,1727],"xSR":741.5,"ySR":458.25,"xT1":424.9,"yT1":0,"xT2":1058.1,"yT2":0,"toosoon":0,"cond_shown":"Congruent","ratio_trial":100,"L_num":7,"L_den":14,"R_num":9,"R_den":15,"correct_side":2,"subjID":"HannaSofiaOlayaCorredor9","gender":"1","school":"2019","age":"10"},{"start_time":1551887173503,"click_time":1551887175892,"finger_time":1551887174912,"fix_duration":250,"trial":24,"RT":1409,"MT":980,"sideResp":2,"stimulus":[],"xmouse":[785,786,786,787,787,787,787,788,788,788,789,789,789,789,789,789,789,789,789,789,789,789,789,789,789,789,789,789,789,789,789,789,789,789,789,789,789,789,789,789,789,789,789,789,789,789,789,789,789,789,789,789,789,789,789,789,789,789,789,789,789,789,789,789,789,789,789,791,799,819,828,837,844,853,865,873,877,886,894,910,918,928,937,946,967,981,990,999,1005,1022,1029,1038,1047,1056,1067,1073,1074,1075,1075,1075,1075,1075,1076,1076,1080,1082,1082,1082,1082,1082,1083,1083,1083,1083,1083,1083,1083,1083,1083,1083],"ymouse":[489,490,490,490,490,490,490,491,491,491,492,492,492,492,492,492,492,492,492,492,492,492,492,492,492,492,492,492,492,492,492,492,492,492,492,492,492,492,492,492,492,492,492,492,492,492,492,492,492,492,492,492,492,492,492,492,492,492,492,492,492,492,492,492,492,492,492,491,485,466,457,447,437,428,410,396,390,373,361,339,326,312,300,288,259,241,230,220,212,193,183,172,164,154,145,140,139,137,136,135,134,134,133,129,120,113,109,105,103,103,102,102,102,102,102,102,102,102,101,95],"timestamp_mouse":[11,40,49,69,90,109,129,148,170,190,209,229,248,268,289,310,329,350,370,389,410,428,449,469,489,509,530,549,570,590,609,629,649,670,689,708,729,750,770,789,810,829,848,869,888,909,929,949,969,989,1009,1028,1050,1069,1090,1110,1128,1149,1169,1188,1209,1228,1250,1269,1290,1308,1329,1349,1369,1389,1409,1429,1449,1468,1489,1509,1530,1550,1569,1588,1609,1629,1650,1670,1688,1709,1729,1749,1770,1789,1809,1829,1850,1869,1889,1909,1929,1949,1969,1990,2008,2030,2049,2070,2089,2109,2129,2150,2168,2188,2209,2229,2250,2269,2289,2310,2329,2350,2369,2389],"xSR":741.5,"ySR":458.25,"xT1":424.9,"yT1":0,"xT2":1058.1,"yT2":0,"toosoon":0,"cond_shown":"Congruent","ratio_trial":100,"L_num":6,"L_den":20,"R_num":5,"R_den":25,"correct_side":1,"subjID":"HannaSofiaOlayaCorredor9","gender":"1","school":"2019","age":"10"},{"start_time":1551887177843,"click_time":1551887179073,"finger_time":1551887178551,"fix_duration":250,"trial":25,"RT":708,"MT":522,"sideResp":2,"stimulus":[],"xmouse":[787,787,787,787,787,787,787,787,787,787,787,787,787,788,788,788,788,788,788,788,788,789,789,789,789,789,789,789,789,789,790,790,790,792,795,803,814,847,866,880,892,903,934,953,968,979,989,995,998,1001,1003,1006,1006,1006,1006,1006,1006,1015,1032,1038,1053,1063],"ymouse":[496,496,496,496,496,496,496,496,496,496,496,496,496,495,495,495,493,493,493,492,491,490,490,490,490,490,490,489,487,486,485,484,482,479,470,453,426,346,298,246,219,197,162,151,142,135,126,116,112,109,104,100,98,98,98,98,98,98,96,94,88,84],"timestamp_mouse":[15,38,48,70,90,108,128,149,168,189,209,229,249,269,290,309,329,349,369,389,409,428,450,470,488,510,528,549,570,589,608,628,649,669,690,708,730,749,770,789,809,830,849,869,889,909,928,949,968,989,1008,1028,1049,1069,1089,1108,1130,1148,1169,1188,1209,1230],"xSR":741.5,"ySR":458.25,"xT1":424.9,"yT1":0,"xT2":1058.1,"yT2":0,"toosoon":0,"cond_shown":"Congruent","ratio_trial":300,"L_num":2,"L_den":20,"R_num":10,"R_den":25,"correct_side":2,"subjID":"HannaSofiaOlayaCorredor9","gender":"1","school":"2019","age":"10"},{"start_time":1551887181278,"click_time":1551887183292,"finger_time":1551887182312,"fix_duration":844.1274086805072,"trial":26,"RT":1034,"MT":980,"sideResp":1,"stimulus":[],"xmouse":[806,806,806,806,806,806,806,806,806,806,806,806,806,806,806,806,806,806,806,806,806,806,806,806,806,806,806,806,806,806,806,806,806,806,806,806,806,806,806,806,806,806,806,806,806,806,806,806,803,790,755,729,671,593,558,555,558,559,561,562,562,562,562,562,562,562,562,562,559,553,527,519,514,512,508,496,491,488,488,488,490,490,490,490,491,491,491,491,491,491,491,491,491,491,491,491,491,491,491,491,491],"ymouse":[523,523,523,523,523,523,523,523,523,523,523,523,523,523,523,523,523,523,523,523,523,523,523,523,523,523,523,523,523,523,523,523,523,523,523,523,523,523,523,523,523,523,523,523,523,523,523,523,523,516,491,473,427,363,337,330,327,326,323,320,315,313,312,311,309,302,296,285,276,258,210,192,178,166,154,118,110,101,101,101,100,100,100,100,100,100,100,100,100,100,100,100,100,100,100,100,100,100,100,100,98],"timestamp_mouse":[14,33,54,74,94,113,133,155,175,195,215,234,253,275,294,314,335,354,373,394,414,433,454,473,494,514,534,553,574,593,614,633,654,675,693,715,734,754,774,795,815,835,854,875,893,914,935,953,974,995,1014,1034,1053,1074,1094,1113,1134,1154,1174,1195,1214,1233,1254,1274,1294,1314,1335,1354,1374,1394,1414,1434,1454,1474,1493,1515,1535,1554,1574,1595,1614,1635,1653,1674,1695,1714,1734,1754,1774,1795,1815,1834,1853,1875,1895,1915,1934,1954,1973,1994,2014],"xSR":741.5,"ySR":458.25,"xT1":424.9,"yT1":0,"xT2":1058.1,"yT2":0,"toosoon":0,"cond_shown":"Incongruent","ratio_trial":100,"L_num":6,"L_den":12,"R_num":3,"R_den":5,"correct_side":2,"subjID":"HannaSofiaOlayaCorredor9","gender":"1","school":"2019","age":"10"},{"start_time":1551887187392,"click_time":1551887189292,"finger_time":1551887188833,"fix_duration":1037.4673635438714,"trial":27,"RT":1441,"MT":459,"sideResp":2,"stimulus":[],"xmouse":[801,801,801,801,801,801,801,801,801,801,801,801,801,801,801,801,801,801,801,801,801,801,801,801,801,801,801,801,801,801,801,801,801,801,801,801,801,801,801,801,801,801,801,801,801,801,801,801,801,801,801,801,801,801,801,801,801,801,801,801,801,801,801,801,801,801,801,801,801,804,832,840,866,924,971,1053,1075,1096,1111,1122,1138,1145,1151,1153,1157,1162,1163,1164,1164,1165,1165,1165,1162,1159,1157,1151],"ymouse":[528,528,528,528,528,528,528,528,528,528,528,528,528,528,528,528,528,528,528,528,528,528,528,528,528,528,528,528,528,528,528,528,528,528,528,528,528,528,528,528,528,528,528,528,528,528,528,528,528,528,528,528,528,528,528,528,528,528,528,528,528,528,528,528,528,528,528,528,528,525,508,503,487,447,413,350,330,309,289,269,230,216,204,199,193,175,166,157,151,146,137,132,121,114,112,99],"timestamp_mouse":[8,30,41,59,80,100,120,141,161,181,200,220,240,260,279,300,320,340,361,380,399,420,441,459,480,500,520,540,561,579,599,620,640,660,679,700,719,740,760,780,800,819,840,860,880,900,920,940,960,980,1000,1021,1040,1060,1079,1100,1120,1140,1159,1181,1200,1221,1240,1260,1280,1299,1319,1340,1361,1379,1400,1420,1441,1460,1480,1500,1520,1539,1560,1580,1599,1620,1640,1660,1680,1700,1720,1740,1760,1780,1801,1820,1840,1860,1880,1900],"xSR":741.5,"ySR":458.25,"xT1":424.9,"yT1":0,"xT2":1058.1,"yT2":0,"toosoon":0,"cond_shown":"Incongruent","ratio_trial":200,"L_num":7,"L_den":15,"R_num":6,"R_den":9,"correct_side":2,"subjID":"HannaSofiaOlayaCorredor9","gender":"1","school":"2019","age":"10"},{"start_time":1551887191880,"click_time":1551887193912,"finger_time":1551887193192,"fix_duration":846.8444991839903,"trial":28,"RT":1312,"MT":720,"sideResp":2,"stimulus":[],"xmouse":[835,835,835,835,835,835,835,835,835,835,835,835,835,835,835,835,835,835,835,835,835,835,835,835,835,835,835,835,835,835,835,835,835,835,835,835,835,835,835,835,835,835,835,835,835,835,835,835,835,835,835,835,835,835,835,835,835,835,835,835,835,835,835,835,837,853,875,913,942,964,983,990,996,1001,1006,1009,1011,1014,1018,1022,1037,1048,1059,1071,1085,1103,1107,1109,1110,1110,1110,1110,1110,1110,1110,1110,1110,1110,1111,1111,1111,1111],"ymouse":[509,509,509,509,509,509,509,509,509,509,509,509,509,509,509,509,509,509,509,509,509,509,509,509,509,509,509,509,509,509,509,509,509,509,509,509,509,509,509,509,509,509,509,509,509,509,509,509,509,509,509,509,509,509,509,509,509,509,509,509,509,509,509,509,509,500,480,429,388,341,273,253,240,233,229,225,224,218,214,209,193,184,174,163,149,129,119,115,113,112,112,112,112,112,112,112,112,112,110,106,100,98],"timestamp_mouse":[12,34,52,71,93,113,132,151,172,192,213,233,253,272,293,312,332,352,372,391,411,432,452,472,492,511,532,552,571,593,612,632,652,672,693,712,732,751,772,791,813,833,852,872,891,911,932,951,972,991,1012,1033,1053,1071,1092,1111,1133,1152,1172,1193,1212,1233,1251,1272,1292,1312,1332,1352,1372,1392,1412,1432,1453,1472,1491,1512,1531,1552,1573,1593,1611,1632,1652,1671,1692,1712,1732,1751,1771,1792,1813,1833,1853,1872,1892,1913,1932,1952,1973,1992,2011,2032],"xSR":741.5,"ySR":458.25,"xT1":424.9,"yT1":0,"xT2":1058.1,"yT2":0,"toosoon":0,"cond_shown":"Incongruent","ratio_trial":300,"L_num":13,"L_den":26,"R_num":12,"R_den":15,"correct_side":2,"subjID":"HannaSofiaOlayaCorredor9","gender":"1","school":"2019","age":"10"},{"start_time":1551887196463,"click_time":1551887199472,"finger_time":1551887199032,"fix_duration":250,"trial":29,"RT":2569,"MT":440,"sideResp":2,"stimulus":[],"xmouse":[809,809,809,809,809,809,809,809,809,809,809,809,809,809,809,809,809,809,809,809,809,809,809,809,809,809,809,809,809,809,809,809,809,809,809,809,809,809,809,809,809,809,809,809,809,809,809,809,809,809,809,809,809,809,809,809,809,809,809,809,809,809,809,809,809,809,809,809,809,809,809,809,809,809,809,809,809,809,809,809,809,809,809,809,809,809,809,809,809,809,809,809,809,809,809,809,809,809,809,809,809,809,809,809,809,809,809,809,809,809,809,809,809,809,809,809,809,809,809,809,809,809,809,809,809,810,818,840,849,882,910,951,963,972,978,989,1012,1022,1032,1037,1041,1047,1050,1056,1061,1068,1075,1086,1090,1092,1093],"ymouse":[494,494,492,491,489,489,489,489,489,489,489,489,489,489,489,489,489,489,489,489,489,489,489,489,489,489,489,489,489,489,489,489,489,489,489,489,489,489,489,489,489,489,489,489,489,489,489,489,489,489,489,489,489,489,489,489,489,489,489,489,489,489,489,489,489,489,489,489,489,489,489,489,489,489,489,489,489,489,489,489,489,489,489,489,489,489,489,489,489,489,489,489,489,489,489,489,489,489,489,489,489,489,489,489,489,489,489,489,489,489,489,489,489,489,489,489,489,489,489,489,489,489,489,489,489,488,485,473,467,429,393,336,319,304,294,281,257,247,234,226,220,206,198,187,178,165,154,132,116,105,96],"timestamp_mouse":[11,34,48,69,89,109,130,150,170,190,210,230,248,270,289,309,328,349,368,389,409,428,449,468,490,509,528,550,569,590,610,628,650,669,690,710,729,749,768,790,809,828,849,870,889,909,929,948,970,990,1010,1029,1048,1069,1089,1109,1129,1148,1169,1189,1210,1229,1250,1270,1290,1309,1330,1349,1369,1390,1410,1428,1449,1469,1488,1510,1529,1548,1569,1589,1610,1629,1650,1668,1688,1710,1728,1749,1768,1790,1808,1829,1850,1868,1888,1909,1928,1950,1968,1989,2010,2028,2050,2069,2090,2110,2128,2150,2170,2190,2210,2229,2248,2269,2290,2308,2330,2349,2369,2389,2410,2428,2450,2468,2490,2508,2529,2549,2569,2590,2610,2629,2649,2669,2689,2709,2728,2749,2769,2789,2809,2829,2849,2870,2889,2910,2929,2950,2969,2989,3009],"xSR":741.5,"ySR":458.25,"xT1":424.9,"yT1":0,"xT2":1058.1,"yT2":0,"toosoon":0,"cond_shown":"Incongruent","ratio_trial":300,"L_num":4,"L_den":20,"R_num":2,"R_den":4,"correct_side":2,"subjID":"HannaSofiaOlayaCorredor9","gender":"1","school":"2019","age":"10"},{"start_time":1551887202845,"click_time":1551887204711,"finger_time":1551887204352,"fix_duration":250,"trial":30,"RT":1507,"MT":359,"sideResp":1,"stimulus":[],"xmouse":[794,794,794,794,794,794,794,794,794,794,794,794,794,794,794,794,794,794,794,794,794,794,794,794,794,794,794,794,794,794,794,794,794,794,794,794,794,794,794,794,794,794,794,794,794,794,794,794,794,794,794,794,794,794,794,794,794,794,794,794,794,794,794,794,794,794,794,794,794,794,794,794,781,764,747,731,703,643,617,593,566,555,544,542,538,531,522,515,515,515,515,515,513,512],"ymouse":[532,532,532,532,532,532,532,532,532,532,532,532,532,532,532,532,532,532,532,532,532,532,532,532,532,532,532,532,532,532,532,532,532,532,532,532,532,532,532,532,532,532,532,532,532,532,532,532,532,532,532,532,532,532,532,532,532,532,532,532,532,532,532,532,532,532,532,532,532,532,532,532,517,501,478,454,415,334,296,262,223,203,178,170,161,148,133,111,111,111,111,110,101,95],"timestamp_mouse":[10,34,46,68,87,108,127,148,167,188,208,226,246,267,286,308,326,346,367,387,408,428,448,467,487,506,528,546,566,587,607,628,648,667,687,707,728,747,768,787,808,828,847,866,888,906,928,947,967,988,1007,1027,1047,1067,1088,1108,1127,1146,1166,1188,1207,1227,1246,1268,1286,1306,1328,1347,1368,1386,1406,1427,1447,1466,1488,1507,1527,1547,1566,1587,1607,1628,1647,1667,1687,1707,1726,1751,1766,1786,1807,1828,1847,1866],"xSR":741.5,"ySR":458.25,"xT1":424.9,"yT1":0,"xT2":1058.1,"yT2":0,"toosoon":0,"cond_shown":"Incongruent","ratio_trial":200,"L_num":7,"L_den":10,"R_num":14,"R_den":28,"correct_side":1,"subjID":"HannaSofiaOlayaCorredor9","gender":"1","school":"2019","age":"10"},{"start_time":1551887206883,"click_time":1551887211473,"finger_time":1551887208391,"fix_duration":250,"trial":31,"RT":1508,"MT":3082,"sideResp":2,"stimulus":[],"xmouse":[786,786,786,786,786,786,786,786,786,786,786,786,786,786,786,786,786,786,786,786,786,786,786,786,786,786,786,786,786,786,786,786,786,786,786,786,786,786,786,786,786,786,786,786,786,786,786,786,786,786,786,786,786,786,786,786,786,786,786,786,786,787,788,788,788,789,789,790,790,790,794,798,805,814,825,848,864,892,948,992,1027,1104,1163,1229,1229,1229,1229,1229,1229,1229,1229,1229,1229,1229,1229,1229,1229,1229,1229,1229,1259,1246,1236,1229,1226,1225,1225,1225,1224,1224,1221,1221,1220,1220,1220,1220,1220,1220,1220,1220,1220,1220,1220,1220,1220,1220,1220,1220,1220,1220,1220,1220,1220,1220,1220,1220,1220,1220,1220,1220,1220,1220,1219,1218,1218,1218,1218,1218,1218,1218,1218,1218,1217,1217,1217,1217,1216,1216,1216,1215,1215,1215,1215,1215,1215,1215,1215,1215,1215,1215,1215,1215,1215,1214,1214,1214,1214,1214,1214,1214,1214,1214,1214,1212,1204,1196,1191,1184,1184,1184,1184,1184,1182,1177,1173,1161,1100,1052,1013,988,980,980,980,980,980,980,980,980,980,980,980,980,980,983,994,1013,1017,1017,1017,1017,1017,1020,1027,1033,1040,1055,1057,1058,1058,1060],"ymouse":[542,542,542,542,542,542,542,542,542,542,542,542,542,542,542,542,542,542,542,542,542,542,542,542,542,542,542,542,542,542,542,542,542,542,542,542,542,542,542,542,542,542,542,542,542,542,542,542,542,542,542,542,542,542,542,542,542,542,542,542,541,538,536,534,533,531,531,530,530,528,521,515,506,492,477,443,420,381,322,281,247,160,90,0,0,0,0,0,0,0,0,0,0,0,0,0,0,0,0,0,20,39,52,60,64,66,66,66,67,67,68,68,69,69,69,69,69,69,69,69,69,69,69,69,69,69,71,76,79,83,89,91,91,92,92,93,95,96,96,97,99,100,102,105,109,114,120,123,124,129,133,136,137,139,142,145,146,147,149,150,152,152,152,152,152,152,152,152,152,152,152,152,152,152,152,152,152,152,152,152,152,152,152,152,147,141,138,134,134,134,134,134,132,129,125,119,104,90,79,71,69,69,69,69,69,69,69,69,69,69,69,69,69,69,69,69,68,68,68,68,68,68,67,66,65,59,58,58,58,58],"timestamp_mouse":[9,38,49,68,88,109,129,150,169,188,209,230,250,269,289,308,330,349,369,388,408,429,449,469,489,509,530,549,569,590,609,629,650,670,689,709,729,748,768,789,809,829,849,868,890,909,928,949,969,989,1010,1028,1048,1069,1088,1108,1128,1148,1170,1189,1210,1229,1248,1268,1290,1309,1330,1349,1370,1389,1408,1429,1448,1469,1490,1508,1529,1549,1569,1589,1609,1629,1649,1670,1690,1708,1728,1749,1769,1789,1810,1830,1850,1868,1889,1909,1929,1949,1969,1989,2009,2029,2048,2069,2089,2109,2129,2149,2168,2189,2209,2230,2249,2269,2289,2310,2330,2349,2370,2389,2408,2430,2450,2469,2489,2509,2528,2549,2570,2590,2609,2629,2649,2668,2688,2709,2730,2749,2769,2789,2809,2829,2848,2869,2890,2909,2929,2949,2969,2989,3009,3028,3048,3069,3090,3109,3130,3148,3169,3190,3209,3229,3249,3269,3288,3309,3330,3349,3370,3389,3409,3429,3450,3469,3490,3509,3528,3548,3568,3590,3609,3629,3650,3668,3689,3709,3729,3749,3769,3788,3810,3830,3849,3869,3889,3909,3929,3949,3969,3990,4010,4030,4048,4069,4089,4110,4130,4149,4170,4189,4208,4228,4250,4270,4290,4309,4328,4348,4368,4390,4409,4429,4450,4470,4490,4509,4529,4548,4569,4590],"xSR":741.5,"ySR":458.25,"xT1":424.9,"yT1":0,"xT2":1058.1,"yT2":0,"toosoon":0,"cond_shown":"Congruent","ratio_trial":100,"L_num":2,"L_den":5,"R_num":6,"R_den":12,"correct_side":2,"subjID":"HannaSofiaOlayaCorredor9","gender":"1","school":"2019","age":"10"},{"start_time":1551887213407,"click_time":1551887215313,"finger_time":1551887214892,"fix_duration":374.76969580901243,"trial":32,"RT":1485,"MT":421,"sideResp":1,"stimulus":[],"xmouse":[815,815,815,815,815,815,815,815,815,815,815,815,815,815,815,815,815,815,815,815,815,815,815,815,815,815,815,815,815,815,815,815,815,815,815,815,815,815,815,815,815,815,815,815,815,815,815,815,815,815,815,815,815,815,815,815,815,815,815,815,815,815,815,815,810,808,808,808,804,791,780,771,762,748,672,622,571,509,447,343,319,312,313,320,322,329,336,342,351,378,386,391,398,405,420,426],"ymouse":[491,491,491,491,491,491,491,491,491,491,491,491,491,491,491,491,491,491,491,491,491,491,491,491,491,491,491,491,491,491,491,491,491,491,491,491,491,491,491,491,491,491,491,491,491,491,491,491,491,491,491,491,491,491,491,491,491,491,491,491,491,491,491,491,491,491,490,490,489,484,478,475,471,466,423,399,368,329,286,201,180,165,155,148,146,144,143,142,140,135,130,125,114,105,79,65],"timestamp_mouse":[8,37,45,64,85,106,125,144,165,185,205,225,245,266,285,307,325,346,365,387,405,427,447,466,485,507,525,545,565,586,606,625,645,665,685,707,725,747,766,786,805,825,846,865,887,906,925,947,965,985,1005,1027,1045,1065,1086,1107,1127,1147,1166,1185,1205,1226,1245,1266,1286,1305,1326,1345,1367,1385,1406,1426,1446,1467,1485,1506,1526,1546,1565,1586,1607,1626,1645,1665,1686,1705,1725,1746,1766,1786,1807,1826,1845,1866,1885,1906],"xSR":741.5,"ySR":458.25,"xT1":424.9,"yT1":0,"xT2":1058.1,"yT2":0,"toosoon":0,"cond_shown":"Incongruent","ratio_trial":200,"L_num":4,"L_den":6,"R_num":14,"R_den":30,"correct_side":1,"subjID":"HannaSofiaOlayaCorredor9","gender":"1","school":"2019","age":"10"},{"start_time":1551887217604,"click_time":1551887219312,"finger_time":1551887218852,"fix_duration":250,"trial":33,"RT":1248,"MT":460,"sideResp":2,"stimulus":[],"xmouse":[802,802,802,802,802,802,802,802,802,802,802,802,802,802,802,802,802,802,802,802,802,802,802,802,802,802,802,802,802,802,802,802,802,802,802,802,802,802,802,802,802,802,802,802,802,802,802,802,802,802,802,802,802,802,802,802,802,802,802,802,808,812,823,838,867,881,896,906,915,929,936,941,950,955,964,969,974,978,985,997,1005,1013,1031,1046,1090,1114],"ymouse":[467,467,467,467,467,467,467,467,467,467,467,467,467,467,467,467,467,467,467,467,467,467,467,467,467,467,467,467,467,467,467,467,467,467,467,467,467,467,467,467,467,467,467,467,467,467,467,467,467,467,467,467,467,467,467,467,467,467,467,467,465,462,456,444,409,388,369,355,342,324,316,308,299,292,273,263,252,243,231,210,197,182,157,139,100,77],"timestamp_mouse":[8,38,48,70,90,109,128,148,168,188,209,228,250,270,288,309,329,349,369,388,409,429,449,470,488,508,530,548,570,588,608,630,650,670,688,710,729,749,770,788,809,830,850,869,888,909,930,949,969,990,1009,1028,1050,1070,1088,1110,1128,1149,1168,1189,1209,1229,1248,1270,1288,1308,1328,1350,1369,1389,1409,1429,1449,1470,1489,1508,1528,1549,1570,1589,1609,1629,1649,1669,1689,1708],"xSR":741.5,"ySR":458.25,"xT1":424.9,"yT1":0,"xT2":1058.1,"yT2":0,"toosoon":0,"cond_shown":"Incongruent","ratio_trial":100,"L_num":17,"L_den":30,"R_num":10,"R_den":15,"correct_side":2,"subjID":"HannaSofiaOlayaCorredor9","gender":"1","school":"2019","age":"10"},{"start_time":1551887222045,"click_time":1551887224733,"finger_time":1551887223833,"fix_duration":1310.6682144540212,"trial":34,"RT":1788,"MT":900,"sideResp":1,"stimulus":[],"xmouse":[793,797,797,800,800,800,800,800,800,800,800,800,800,800,800,800,800,800,799,799,798,798,798,798,798,798,798,798,798,798,798,798,798,798,798,798,798,798,798,798,798,798,798,798,798,798,798,798,798,798,798,798,798,798,798,798,798,798,798,798,798,798,798,798,798,798,798,798,798,798,798,798,798,798,798,798,798,798,798,798,798,798,798,798,790,783,774,767,760,735,702,664,635,631,626,622,619,608,601,599,592,587,573,557,538,524,517,512,512,512,512,512,512,512,512,512,512,510,509,509,509,509,509,509,509,509,509,509,509,509,509,509,508,508,508],"ymouse":[521,505,505,483,483,483,483,483,483,483,483,483,483,483,483,483,483,483,484,484,486,486,486,486,486,486,486,486,486,486,486,486,486,486,486,486,486,486,486,486,486,486,486,486,486,486,486,486,486,486,486,486,486,486,486,486,486,486,486,486,486,486,486,486,486,486,486,486,486,486,486,486,486,486,486,486,486,486,486,486,486,486,486,486,485,483,481,479,477,464,449,431,414,409,402,397,392,370,357,350,328,310,264,232,198,173,157,144,144,144,144,144,144,142,137,131,125,115,111,110,110,110,110,110,110,110,110,110,110,110,108,107,102,100,99],"timestamp_mouse":[9,37,47,69,88,107,127,148,167,188,208,227,248,268,288,308,328,348,368,388,408,427,447,467,489,508,528,547,568,589,609,628,648,668,687,707,727,748,767,788,808,827,849,867,888,908,927,948,968,988,1008,1027,1048,1068,1088,1108,1129,1148,1167,1188,1208,1227,1248,1267,1287,1307,1329,1347,1367,1388,1407,1428,1447,1467,1488,1507,1528,1549,1568,1588,1608,1629,1648,1668,1688,1709,1728,1748,1769,1788,1809,1829,1847,1868,1887,1908,1928,1947,1967,1987,2007,2027,2047,2068,2089,2109,2129,2147,2167,2188,2208,2228,2248,2267,2287,2307,2329,2348,2367,2388,2407,2428,2448,2468,2489,2507,2528,2547,2567,2588,2609,2629,2647,2667,2688],"xSR":741.5,"ySR":458.25,"xT1":424.9,"yT1":0,"xT2":1058.1,"yT2":0,"toosoon":0,"cond_shown":"Congruent","ratio_trial":200,"L_num":8,"L_den":15,"R_num":7,"R_den":21,"correct_side":1,"subjID":"HannaSofiaOlayaCorredor9","gender":"1","school":"2019","age":"10"},{"start_time":1551887226500,"click_time":1551887230212,"finger_time":1551887227953,"fix_duration":286.3468945797275,"trial":35,"RT":1453,"MT":2259,"sideResp":2,"stimulus":[],"xmouse":[768,768,768,768,768,768,768,768,768,768,768,768,768,768,768,768,768,768,768,768,768,768,768,768,768,768,768,768,768,768,768,768,768,768,768,768,768,768,768,768,768,768,768,768,768,768,768,768,768,768,768,768,768,768,768,768,768,768,768,768,768,768,768,768,768,768,768,768,768,768,765,759,741,702,676,654,620,589,575,566,564,563,563,563,563,563,563,563,563,561,553,535,518,509,501,495,489,486,484,484,484,484,484,484,484,484,484,484,484,484,484,484,484,484,484,484,484,497,522,657,736,807,854,881,910,925,959,981,1000,1013,1015,1017,1017,1018,1018,1018,1018,1018,1018,1018,1018,1018,1018,1018,1018,1018,1018,1018,1018,1018,1018,1018,1018,1018,1018,1018,1018,1018,1018,1018,1018,1018,1017,1017,1017,1017,1016,1016,1016,1016,1016,1016,1016,1016,1016,1016,1016,1016,1024,1045,1057,1067,1075,1081,1088,1089],"ymouse":[470,470,470,470,470,470,470,470,470,470,470,470,470,470,470,470,470,470,470,470,470,470,470,470,470,470,470,470,470,470,470,470,470,470,470,470,470,470,470,470,470,470,470,470,470,470,470,470,470,470,470,470,470,470,470,470,470,470,470,470,470,470,470,470,470,470,470,470,470,470,470,468,460,438,423,404,368,339,322,301,296,293,293,292,292,292,292,292,292,285,276,255,237,224,205,193,174,164,160,158,158,158,158,158,158,158,158,158,158,158,158,158,158,158,158,159,162,175,189,247,273,292,300,301,297,285,264,251,242,230,226,223,223,222,222,222,222,222,222,222,222,222,222,222,222,222,222,222,222,222,222,222,222,222,222,222,222,222,222,222,222,222,222,222,222,222,222,222,222,222,222,222,222,222,222,222,222,219,208,177,160,141,126,114,100,98],"timestamp_mouse":[12,39,53,72,92,112,133,153,174,193,213,233,253,273,293,312,334,353,372,393,414,432,454,473,493,512,533,552,573,592,613,633,653,672,693,712,733,752,773,792,812,833,852,873,893,912,933,952,973,993,1013,1032,1052,1072,1093,1113,1133,1152,1172,1193,1212,1234,1253,1273,1293,1312,1333,1353,1372,1393,1413,1433,1453,1472,1493,1513,1533,1553,1573,1593,1613,1633,1653,1672,1693,1713,1733,1752,1772,1793,1813,1833,1853,1873,1893,1913,1932,1953,1972,1992,2014,2033,2053,2072,2093,2113,2133,2152,2173,2193,2213,2233,2252,2274,2293,2313,2332,2352,2372,2393,2413,2433,2453,2473,2492,2513,2533,2553,2573,2593,2613,2632,2653,2673,2693,2713,2733,2752,2773,2792,2813,2833,2854,2872,2893,2913,2933,2954,2974,2994,3012,3033,3053,3074,3093,3112,3133,3152,3172,3194,3213,3233,3254,3273,3292,3312,3333,3353,3373,3392,3413,3433,3453,3474,3493,3512,3532,3553,3573,3593,3613,3632,3653,3673,3693,3712],"xSR":741.5,"ySR":458.25,"xT1":424.9,"yT1":0,"xT2":1058.1,"yT2":0,"toosoon":0,"cond_shown":"Incongruent","ratio_trial":100,"L_num":3,"L_den":6,"R_num":4,"R_den":10,"correct_side":1,"subjID":"HannaSofiaOlayaCorredor9","gender":"1","school":"2019","age":"10"},{"start_time":1551887233625,"click_time":1551887236693,"finger_time":1551887235193,"fix_duration":250,"trial":36,"RT":1568,"MT":1500,"sideResp":1,"stimulus":[],"xmouse":[742,742,742,742,742,742,742,742,742,742,742,742,742,742,742,742,742,742,742,742,742,742,742,742,742,742,742,742,742,742,742,742,742,742,742,742,742,742,742,742,742,742,742,742,742,742,742,742,742,742,742,742,742,742,742,742,742,742,742,742,742,742,742,742,742,742,742,742,742,742,742,742,742,742,742,742,742,742,741,741,741,741,741,741,741,741,741,741,741,741,741,741,741,741,741,741,741,741,741,741,741,739,727,652,585,494,401,324,220,181,160,155,154,154,154,156,158,163,187,210,245,267,284,302,324,348,361,362,362,362,362,363,363,385,402,408,410,410,410,412,414,417,420,422,422,422,422,422,422,422,422,422,423,430],"ymouse":[494,494,494,494,494,494,494,494,494,494,494,494,494,494,494,494,494,494,494,494,494,494,494,494,494,494,494,494,494,494,494,494,494,494,494,494,494,494,494,494,494,494,494,494,494,494,494,494,494,494,494,494,494,494,494,494,494,494,494,494,494,494,494,494,494,494,494,494,494,494,494,494,494,494,494,492,487,477,473,473,473,473,473,473,473,473,473,473,473,473,473,473,473,473,473,473,473,473,473,473,473,469,464,426,386,337,286,242,170,142,112,97,86,72,69,64,62,61,61,61,57,55,53,51,51,52,54,54,54,54,54,54,55,58,59,59,59,59,59,59,59,59,59,59,59,59,59,59,59,59,59,59,59,59],"timestamp_mouse":[8,39,49,67,87,107,129,148,169,187,207,228,247,269,288,309,327,349,368,387,407,427,447,468,489,508,527,547,567,587,609,629,647,668,687,707,728,748,768,789,808,829,847,868,889,908,927,947,968,987,1008,1028,1048,1068,1089,1108,1128,1147,1168,1187,1209,1227,1247,1268,1288,1307,1328,1348,1368,1387,1407,1427,1449,1467,1487,1508,1529,1548,1568,1588,1608,1628,1648,1668,1687,1708,1728,1749,1768,1787,1808,1828,1849,1867,1888,1907,1928,1949,1969,1989,2008,2028,2047,2068,2087,2108,2128,2148,2167,2188,2208,2228,2247,2268,2288,2308,2329,2347,2368,2388,2408,2428,2448,2467,2488,2508,2528,2547,2568,2587,2607,2628,2648,2668,2687,2708,2728,2747,2768,2787,2807,2828,2848,2869,2887,2908,2928,2947,2968,2987,3008,3028,3048,3067],"xSR":741.5,"ySR":458.25,"xT1":424.9,"yT1":0,"xT2":1058.1,"yT2":0,"toosoon":0,"cond_shown":"Incongruent","ratio_trial":200,"L_num":7,"L_den":10,"R_num":8,"R_den":16,"correct_side":1,"subjID":"HannaSofiaOlayaCorredor9","gender":"1","school":"2019","age":"10"},{"start_time":1551887242822,"click_time":1551887244313,"finger_time":1551887244193,"fix_duration":306.10060679368087,"trial":37,"RT":1371,"MT":120,"sideResp":2,"stimulus":[],"xmouse":[790,790,790,790,790,790,790,790,790,790,790,790,790,790,790,790,790,790,790,790,790,790,790,790,790,790,790,790,790,790,790,790,790,790,790,790,790,790,790,790,790,790,790,790,790,790,790,790,790,790,790,790,790,790,790,790,790,790,790,790,790,790,790,790,790,790,797,803,839,868,926,970,1005,1051,1059],"ymouse":[496,496,496,496,496,496,496,496,496,496,496,496,496,496,496,496,496,496,496,496,496,496,496,496,496,496,496,496,496,496,496,496,496,496,496,496,496,496,496,496,496,496,496,496,496,496,496,496,496,496,496,496,496,496,496,496,496,496,496,496,496,496,496,496,496,496,491,485,446,407,323,265,215,117,90],"timestamp_mouse":[11,37,51,72,90,112,132,151,170,191,211,232,250,270,292,311,330,350,372,391,410,431,450,471,490,511,530,550,571,590,612,630,652,670,692,712,731,750,771,791,811,831,851,870,892,910,931,950,972,990,1010,1031,1051,1071,1091,1110,1132,1151,1171,1192,1211,1231,1250,1272,1291,1312,1330,1351,1371,1391,1411,1431,1451,1470,1490],"xSR":741.5,"ySR":458.25,"xT1":424.9,"yT1":0,"xT2":1058.1,"yT2":0,"toosoon":0,"cond_shown":"Congruent","ratio_trial":200,"L_num":9,"L_den":30,"R_num":13,"R_den":26,"correct_side":2,"subjID":"HannaSofiaOlayaCorredor9","gender":"1","school":"2019","age":"10"},{"start_time":1551887251017,"click_time":1551887253313,"finger_time":1551887252272,"fix_duration":1424.9645530074567,"trial":38,"RT":1255,"MT":1041,"sideResp":1,"stimulus":[],"xmouse":[776,776,776,774,772,772,772,772,772,772,772,772,772,771,771,771,771,771,771,771,771,771,771,771,771,771,771,771,771,771,771,771,771,771,771,771,771,771,771,771,771,771,771,771,771,771,771,771,771,771,771,771,771,771,771,770,770,768,767,765,762,757,747,715,686,641,599,564,505,498,498,497,497,496,496,496,495,493,490,489,488,488,487,487,487,487,487,487,487,487,487,487,487,487,487,487,487,487,487,487,487,487,487,487,487,486,486,486,486,486,486,486,486,486,486],"ymouse":[468,468,468,468,468,468,468,467,467,467,467,467,467,467,467,467,467,467,467,467,467,467,467,467,467,467,467,467,467,467,467,467,467,467,467,467,467,467,467,467,467,467,467,467,467,467,467,467,467,467,467,467,467,467,467,467,467,467,467,467,465,460,449,410,373,322,271,226,154,144,143,142,141,139,139,138,135,131,121,114,113,110,108,108,108,108,108,108,108,108,108,108,108,108,108,108,108,108,108,108,108,108,108,108,108,106,105,105,105,105,105,105,103,100,99],"timestamp_mouse":[16,41,56,76,96,115,135,156,176,195,215,237,255,277,296,316,335,355,375,396,416,437,455,476,495,516,536,555,575,595,615,637,656,676,696,716,737,756,776,797,815,837,856,875,896,915,936,956,976,997,1015,1036,1056,1075,1096,1116,1135,1156,1176,1196,1216,1235,1255,1276,1295,1316,1335,1357,1375,1395,1415,1436,1456,1476,1496,1516,1537,1557,1575,1595,1616,1635,1656,1677,1696,1715,1736,1757,1776,1796,1816,1835,1857,1877,1896,1917,1935,1955,1976,1996,2017,2035,2056,2076,2096,2115,2137,2157,2176,2196,2216,2236,2255,2275,2295],"xSR":741.5,"ySR":458.25,"xT1":424.9,"yT1":0,"xT2":1058.1,"yT2":0,"toosoon":0,"cond_shown":"Incongruent","ratio_trial":300,"L_num":3,"L_den":6,"R_num":4,"R_den":20,"correct_side":1,"subjID":"HannaSofiaOlayaCorredor9","gender":"1","school":"2019","age":"10"},{"start_time":1551887254784,"click_time":1551887256254,"finger_time":1551887255713,"fix_duration":250,"trial":39,"RT":929,"MT":541,"sideResp":1,"stimulus":[],"xmouse":[805,805,805,805,805,805,805,805,805,805,805,805,805,805,805,805,805,805,805,805,805,805,805,805,805,805,805,805,805,805,805,805,805,805,805,805,805,805,805,805,805,805,805,805,805,791,771,751,731,715,690,668,615,588,571,544,527,515,512,512,510,509,509,509,509,509,509,509,508,506,494,488,485,484