[{"start_time":1551887691928,"click_time":1551887693613,"finger_time":1551887692833,"fix_duration":250,"trial":0,"RT":905,"MT":780,"sideResp":2,"stimulus":"img/750/equaldotsize/R/12_Ratio_750_L_3_R_4.png","xmouse":[798,798,798,798,798,798,798,798,798,798,798,798,798,798,798,798,798,798,798,798,798,798,798,798,798,798,798,798,798,798,798,798,798,798,798,798,798,798,798,798,798,798,798,804,811,820,831,867,883,896,905,910,919,925,942,956,968,991,998,1003,1006,1011,1020,1028,1030,1038,1042,1049,1052,1056,1061,1063,1066,1068,1069,1071,1073,1075,1077,1079,1080,1085,1089,1102,1108],"ymouse":[512,512,512,512,512,512,512,512,512,512,512,512,512,512,512,512,512,512,512,512,512,512,512,512,512,512,512,512,512,512,512,512,512,512,512,512,512,512,512,512,512,512,512,496,478,457,435,382,362,350,341,335,324,318,305,297,289,272,264,258,251,245,234,223,221,210,204,178,167,154,145,137,131,125,123,120,117,115,114,113,112,110,108,101,96],"timestamp_mouse":[9,29,45,64,86,104,124,145,164,184,205,224,246,264,284,304,324,345,365,386,406,424,444,466,484,505,524,545,565,584,605,626,645,665,685,706,724,744,766,786,805,826,844,864,885,905,924,945,964,984,1005,1024,1045,1065,1085,1105,1124,1145,1164,1185,1205,1225,1245,1264,1284,1305,1325,1345,1364,1385,1405,1425,1444,1464,1485,1504,1525,1544,1564,1585,1605,1625,1644,1665,1685],"xSR":741.5,"ySR":458.25,"xT1":424.9,"yT1":0,"xT2":1058.1,"yT2":0,"toosoon":0,"cond_shown":"equaldotsize","ratio_trial":750,"smaller_num":"3","larger_num":"4","correct_side":2,"subjID":"HannaSofiaOlayaCorredor9","gender":"1","age":"10","school":"2019","test":{"fix_dur":[250,1500],"timestim":300,"targets_dim":[100,100],"targets_relative_coord":[0.3,0.7],"size_stim":[880,420],"start_dim":[100,100],"size_start":[300,300],"size_fix":60,"samplingrate":20,"img_types":["equaldotsize","equaldotanddens","randomdotsizeEA"],"ratios":[250,500,750,900],"rep_conds":9,"nTrials":120,"trials_to_rest":500,"Trials_order":[54,11,69,21,71,83,50,7,72,62,61,105,96,45,78,53,25,67,19,33,82,80,64,22,116,28,29,77,60,76,65,36,86,117,111,106,32,16,99,59,112,42,108,6,49,75,100,73,94,92,10,114,95,85,84,66,119,57,43,3,31,97,4,63,103,1,90,89,39,17,115,48,46,51,68,9,20,27,2,34,23,104,58,52,56,55,87,5,47,40,98,91,74,79,15,107,12,110,14,93,38,18,113,88,26,41,37,8,35,24,81,70,30,118,102,44,101,109,13,0],"cond_shown":["equaldotsize","randomdotsizeEA","equaldotsize","equaldotsize","randomdotsizeEA","randomdotsizeEA","randomdotsizeEA","equaldotanddens","equaldotsize","randomdotsizeEA","equaldotanddens","equaldotsize","equaldotsize","equaldotsize","equaldotsize","randomdotsizeEA","equaldotanddens","equaldotanddens","equaldotanddens","equaldotsize","equaldotanddens","randomdotsizeEA","equaldotanddens","equaldotanddens","randomdotsizeEA","equaldotanddens","randomdotsizeEA","randomdotsizeEA","equaldotsize","equaldotanddens","randomdotsizeEA","equaldotsize","randomdotsizeEA","equaldotsize","equaldotsize","equaldotanddens","randomdotsizeEA","equaldotanddens","equaldotsize","randomdotsizeEA","equaldotanddens","equaldotsize","equaldotsize","equaldotsize","equaldotanddens","equaldotsize","equaldotanddens","equaldotanddens","equaldotanddens","randomdotsizeEA","equaldotanddens","equaldotsize","randomdotsizeEA","equaldotanddens","equaldotsize","equaldotsize","randomdotsizeEA","equaldotsize","equaldotanddens","equaldotsize","equaldotanddens","equaldotanddens","equaldotanddens","equaldotsize","equaldotanddens","equaldotanddens","equaldotsize","randomdotsizeEA","equaldotsize","randomdotsizeEA","equaldotanddens","equaldotsize","equaldotanddens","equaldotsize","randomdotsizeEA","equaldotsize","randomdotsizeEA","equaldotsize","randomdotsizeEA","equaldotanddens","randomdotsizeEA","randomdotsizeEA","equaldotanddens","equaldotanddens","randomdotsizeEA","equaldotanddens","equaldotsize","randomdotsizeEA","randomdotsizeEA","equaldotanddens","randomdotsizeEA","equaldotanddens","randomdotsizeEA","equaldotanddens","equaldotsize","randomdotsizeEA","equaldotsize","randomdotsizeEA","randomdotsizeEA","equaldotsize","randomdotsizeEA","equaldotsize","randomdotsizeEA","equaldotanddens","randomdotsizeEA","randomdotsizeEA","equaldotanddens","randomdotsizeEA","randomdotsizeEA","equaldotsize","equaldotsize","equaldotanddens","equaldotsize","equaldotanddens","equaldotsize","randomdotsizeEA","randomdotsizeEA","equaldotanddens","equaldotanddens","equaldotsize"],"ratio_trial":[750,900,900,900,900,900,250,750,250,250,250,900,250,900,750,500,250,750,750,900,900,750,500,900,750,500,500,500,250,500,500,250,250,900,500,900,750,500,500,900,500,750,250,750,250,500,500,250,900,750,900,750,900,250,250,750,900,900,750,500,750,250,500,500,750,250,750,500,500,500,750,250,900,500,750,900,750,500,250,900,900,750,900,500,750,750,500,500,900,500,250,750,250,750,500,900,250,250,250,900,250,750,500,500,250,500,250,750,900,250,900,900,750,900,750,750,500,250,250,250],"smaller_num":["3","18","18","18","18","18","6","3","3","2","2","18","3","18","15","5","3","9","9","18","9","3","2","18","15","5","6","9","3","9","2","2","3","18","10","9","15","1","5","18","2","18","3","3","3","1","9","3","18","12","18","6","18","1","2","15","18","18","3","10","6","3","5","10","18","6","3","9","1","2","3","4","18","1","12","18","3","4","6","18","18","12","18","9","6","9","9","5","9","5","2","3","5","18","2","18","3","4","3","18","6","3","9","9","4","2","2","15","18","3","9","18","3","9","9","3","1","5","6","5"],"larger_num":["4","20","20","20","20","20","24","4","12","8","8","20","12","20","20","10","12","12","12","20","10","4","4","20","20","10","12","18","12","18","4","8","12","20","20","10","20","2","10","20","4","24","12","4","12","2","18","12","20","16","20","8","20","4","8","20","20","20","4","20","8","12","10","20","24","24","4","18","2","4","4","16","20","2","16","20","4","8","24","20","20","16","20","18","8","12","18","10","10","10","8","4","20","24","4","20","12","16","12","20","24","4","18","18","16","4","8","20","20","12","10","20","4","10","12","4","2","20","24","20"],"correct_side":[2,1,2,1,2,2,2,1,1,2,2,1,2,1,2,2,1,2,2,2,1,1,1,2,2,1,1,2,1,1,1,2,2,1,2,2,1,2,2,2,1,1,2,2,2,2,2,2,1,2,2,2,2,2,1,2,2,2,1,2,2,2,1,2,1,1,1,1,2,1,1,2,2,2,2,1,1,1,2,2,2,2,1,1,2,2,1,1,2,1,1,1,2,1,1,2,1,1,2,2,1,1,2,1,1,1,1,2,2,2,1,2,1,2,2,2,2,2,1,2],"img_shown":["img/750/equaldotsize/R/12_Ratio_750_L_3_R_4.png","img/900/randomdotsizeEA/L/10_Ratio_900_L_20_R_18.png","img/900/equaldotsize/R/13_Ratio_900_L_18_R_20.png","img/900/equaldotsize/L/10_Ratio_900_L_20_R_18.png","img/900/randomdotsizeEA/R/11_Ratio_900_L_18_R_20.png","img/900/randomdotsizeEA/R/14_Ratio_900_L_18_R_20.png","img/250/randomdotsizeEA/R/6_Ratio_250_L_6_R_24.png","img/750/equaldotanddens/L/10_Ratio_750_L_4_R_3.png","img/250/equaldotsize/L/15_Ratio_250_L_12_R_3.png","img/250/randomdotsizeEA/R/13_Ratio_250_L_2_R_8.png","img/250/equaldotanddens/R/13_Ratio_250_L_2_R_8.png","img/900/equaldotsize/L/8_Ratio_900_L_20_R_18.png","img/250/equaldotsize/R/11_Ratio_250_L_3_R_12.png","img/900/equaldotsize/L/2_Ratio_900_L_20_R_18.png","img/750/equaldotsize/R/5_Ratio_750_L_15_R_20.png","img/500/randomdotsizeEA/R/14_Ratio_500_L_5_R_10.png","img/250/equaldotanddens/L/15_Ratio_250_L_12_R_3.png","img/750/equaldotanddens/R/15_Ratio_750_L_9_R_12.png","img/750/equaldotanddens/R/15_Ratio_750_L_9_R_12.png","img/900/equaldotsize/R/11_Ratio_900_L_18_R_20.png","img/900/equaldotanddens/L/1_Ratio_900_L_10_R_9.png","img/750/randomdotsizeEA/L/8_Ratio_750_L_4_R_3.png","img/500/equaldotanddens/L/10_Ratio_500_L_4_R_2.png","img/900/equaldotanddens/R/9_Ratio_900_L_18_R_20.png","img/750/randomdotsizeEA/R/3_Ratio_750_L_15_R_20.png","img/500/equaldotanddens/L/7_Ratio_500_L_10_R_5.png","img/500/randomdotsizeEA/L/11_Ratio_500_L_12_R_6.png","img/500/randomdotsizeEA/R/6_Ratio_500_L_9_R_18.png","img/250/equaldotsize/L/15_Ratio_250_L_12_R_3.png","img/500/equaldotanddens/L/4_Ratio_500_L_18_R_9.png","img/500/randomdotsizeEA/L/5_Ratio_500_L_4_R_2.png","img/250/equaldotsize/R/13_Ratio_250_L_2_R_8.png","img/250/randomdotsizeEA/R/11_Ratio_250_L_3_R_12.png","img/900/equaldotsize/L/2_Ratio_900_L_20_R_18.png","img/500/equaldotsize/R/3_Ratio_500_L_10_R_20.png","img/900/equaldotanddens/R/5_Ratio_900_L_9_R_10.png","img/750/randomdotsizeEA/L/1_Ratio_750_L_20_R_15.png","img/500/equaldotanddens/R/15_Ratio_500_L_1_R_2.png","img/500/equaldotsize/R/14_Ratio_500_L_5_R_10.png","img/900/randomdotsizeEA/R/12_Ratio_900_L_18_R_20.png","img/500/equaldotanddens/L/5_Ratio_500_L_4_R_2.png","img/750/equaldotsize/L/6_Ratio_750_L_24_R_18.png","img/250/equaldotsize/R/4_Ratio_250_L_3_R_12.png","img/750/equaldotsize/R/12_Ratio_750_L_3_R_4.png","img/250/equaldotanddens/R/11_Ratio_250_L_3_R_12.png","img/500/equaldotsize/R/15_Ratio_500_L_1_R_2.png","img/500/equaldotanddens/R/6_Ratio_500_L_9_R_18.png","img/250/equaldotanddens/R/11_Ratio_250_L_3_R_12.png","img/900/equaldotanddens/L/8_Ratio_900_L_20_R_18.png","img/750/randomdotsizeEA/R/11_Ratio_750_L_12_R_16.png","img/900/equaldotanddens/R/11_Ratio_900_L_18_R_20.png","img/750/equaldotsize/R/2_Ratio_750_L_6_R_8.png","img/900/randomdotsizeEA/R/9_Ratio_900_L_18_R_20.png","img/250/equaldotanddens/R/8_Ratio_250_L_1_R_4.png","img/250/equaldotsize/L/1_Ratio_250_L_8_R_2.png","img/750/equaldotsize/R/3_Ratio_750_L_15_R_20.png","img/900/randomdotsizeEA/R/9_Ratio_900_L_18_R_20.png","img/900/equaldotsize/R/14_Ratio_900_L_18_R_20.png","img/750/equaldotanddens/L/10_Ratio_750_L_4_R_3.png","img/500/equaldotsize/R/3_Ratio_500_L_10_R_20.png","img/750/equaldotanddens/R/2_Ratio_750_L_6_R_8.png","img/250/equaldotanddens/R/11_Ratio_250_L_3_R_12.png","img/500/equaldotanddens/L/7_Ratio_500_L_10_R_5.png","img/500/equaldotsize/R/3_Ratio_500_L_10_R_20.png","img/750/equaldotanddens/L/6_Ratio_750_L_24_R_18.png","img/250/equaldotanddens/L/5_Ratio_250_L_24_R_6.png","img/750/equaldotsize/L/10_Ratio_750_L_4_R_3.png","img/500/randomdotsizeEA/L/4_Ratio_500_L_18_R_9.png","img/500/equaldotsize/R/15_Ratio_500_L_1_R_2.png","img/500/randomdotsizeEA/L/10_Ratio_500_L_4_R_2.png","img/750/equaldotanddens/L/8_Ratio_750_L_4_R_3.png","img/250/equaldotsize/R/10_Ratio_250_L_4_R_16.png","img/900/equaldotanddens/R/14_Ratio_900_L_18_R_20.png","img/500/equaldotsize/R/12_Ratio_500_L_1_R_2.png","img/750/randomdotsizeEA/R/11_Ratio_750_L_12_R_16.png","img/900/equaldotsize/L/4_Ratio_900_L_20_R_18.png","img/750/randomdotsizeEA/L/8_Ratio_750_L_4_R_3.png","img/500/equaldotsize/L/8_Ratio_500_L_8_R_4.png","img/250/randomdotsizeEA/R/6_Ratio_250_L_6_R_24.png","img/900/equaldotanddens/R/9_Ratio_900_L_18_R_20.png","img/900/randomdotsizeEA/R/13_Ratio_900_L_18_R_20.png","img/750/randomdotsizeEA/R/11_Ratio_750_L_12_R_16.png","img/900/equaldotanddens/L/4_Ratio_900_L_20_R_18.png","img/500/equaldotanddens/L/4_Ratio_500_L_18_R_9.png","img/750/randomdotsizeEA/R/2_Ratio_750_L_6_R_8.png","img/750/equaldotanddens/R/15_Ratio_750_L_9_R_12.png","img/500/equaldotsize/L/4_Ratio_500_L_18_R_9.png","img/500/randomdotsizeEA/L/7_Ratio_500_L_10_R_5.png","img/900/randomdotsizeEA/R/3_Ratio_900_L_9_R_10.png","img/500/equaldotanddens/L/7_Ratio_500_L_10_R_5.png","img/250/randomdotsizeEA/L/1_Ratio_250_L_8_R_2.png","img/750/equaldotanddens/L/8_Ratio_750_L_4_R_3.png","img/250/randomdotsizeEA/R/12_Ratio_250_L_5_R_20.png","img/750/equaldotanddens/L/6_Ratio_750_L_24_R_18.png","img/500/equaldotsize/L/5_Ratio_500_L_4_R_2.png","img/900/randomdotsizeEA/R/12_Ratio_900_L_18_R_20.png","img/250/equaldotsize/L/14_Ratio_250_L_12_R_3.png","img/250/randomdotsizeEA/L/2_Ratio_250_L_16_R_4.png","img/250/randomdotsizeEA/R/11_Ratio_250_L_3_R_12.png","img/900/equaldotsize/R/12_Ratio_900_L_18_R_20.png","img/250/randomdotsizeEA/L/5_Ratio_250_L_24_R_6.png","img/750/equaldotsize/L/10_Ratio_750_L_4_R_3.png","img/500/randomdotsizeEA/R/6_Ratio_500_L_9_R_18.png","img/500/equaldotanddens/L/4_Ratio_500_L_18_R_9.png","img/250/randomdotsizeEA/L/2_Ratio_250_L_16_R_4.png","img/500/randomdotsizeEA/L/5_Ratio_500_L_4_R_2.png","img/250/equaldotanddens/L/1_Ratio_250_L_8_R_2.png","img/750/randomdotsizeEA/R/3_Ratio_750_L_15_R_20.png","img/900/randomdotsizeEA/R/14_Ratio_900_L_18_R_20.png","img/250/equaldotsize/R/11_Ratio_250_L_3_R_12.png","img/900/equaldotsize/L/1_Ratio_900_L_10_R_9.png","img/900/equaldotanddens/R/12_Ratio_900_L_18_R_20.png","img/750/equaldotsize/L/9_Ratio_750_L_4_R_3.png","img/900/equaldotanddens/R/15_Ratio_900_L_9_R_10.png","img/750/equaldotsize/R/15_Ratio_750_L_9_R_12.png","img/750/randomdotsizeEA/R/7_Ratio_750_L_3_R_4.png","img/500/randomdotsizeEA/R/15_Ratio_500_L_1_R_2.png","img/250/equaldotanddens/R/12_Ratio_250_L_5_R_20.png","img/250/equaldotanddens/L/5_Ratio_250_L_24_R_6.png","img/250/equaldotsize/R/12_Ratio_250_L_5_R_20.png"],"Rat0":[["12_Ratio_0_L_9_R_0.png","13_Ratio_0_L_6_R_0.png","5_Ratio_0_L_2_R_0.png","6_Ratio_0_L_4_R_0.png","8_Ratio_0_L_6_R_0.png"],["1_Ratio_0_L_0_R_17.png","10_Ratio_0_L_0_R_22.png","11_Ratio_0_L_0_R_1.png","14_Ratio_0_L_0_R_24.png","15_Ratio_0_L_0_R_4.png","2_Ratio_0_L_0_R_5.png","3_Ratio_0_L_0_R_17.png","4_Ratio_0_L_0_R_7.png","7_Ratio_0_L_0_R_19.png","9_Ratio_0_L_0_R_15.png"]],"Rat250":[["1_Ratio_250_L_8_R_2.png","14_Ratio_250_L_12_R_3.png","15_Ratio_250_L_12_R_3.png","2_Ratio_250_L_16_R_4.png","3_Ratio_250_L_8_R_2.png","5_Ratio_250_L_24_R_6.png","7_Ratio_250_L_8_R_2.png"],["10_Ratio_250_L_4_R_16.png","11_Ratio_250_L_3_R_12.png","12_Ratio_250_L_5_R_20.png","13_Ratio_250_L_2_R_8.png","4_Ratio_250_L_3_R_12.png","6_Ratio_250_L_6_R_24.png","8_Ratio_250_L_1_R_4.png","9_Ratio_250_L_3_R_12.png"]],"Rat500":[["10_Ratio_500_L_4_R_2.png","11_Ratio_500_L_12_R_6.png","13_Ratio_500_L_12_R_6.png","4_Ratio_500_L_18_R_9.png","5_Ratio_500_L_4_R_2.png","7_Ratio_500_L_10_R_5.png","8_Ratio_500_L_8_R_4.png"],["1_Ratio_500_L_9_R_18.png","12_Ratio_500_L_1_R_2.png","14_Ratio_500_L_5_R_10.png","15_Ratio_500_L_1_R_2.png","2_Ratio_500_L_3_R_6.png","3_Ratio_500_L_10_R_20.png","6_Ratio_500_L_9_R_18.png","9_Ratio_500_L_2_R_4.png"]],"Rat750":[["1_Ratio_750_L_20_R_15.png","10_Ratio_750_L_4_R_3.png","13_Ratio_750_L_8_R_6.png","14_Ratio_750_L_8_R_6.png","6_Ratio_750_L_24_R_18.png","8_Ratio_750_L_4_R_3.png","9_Ratio_750_L_4_R_3.png"],["11_Ratio_750_L_12_R_16.png","12_Ratio_750_L_3_R_4.png","15_Ratio_750_L_9_R_12.png","2_Ratio_750_L_6_R_8.png","3_Ratio_750_L_15_R_20.png","4_Ratio_750_L_15_R_20.png","5_Ratio_750_L_15_R_20.png","7_Ratio_750_L_3_R_4.png"]],"Rat900":[["1_Ratio_900_L_10_R_9.png","10_Ratio_900_L_20_R_18.png","2_Ratio_900_L_20_R_18.png","4_Ratio_900_L_20_R_18.png","8_Ratio_900_L_20_R_18.png"],["11_Ratio_900_L_18_R_20.png","12_Ratio_900_L_18_R_20.png","13_Ratio_900_L_18_R_20.png","14_Ratio_900_L_18_R_20.png","15_Ratio_900_L_9_R_10.png","3_Ratio_900_L_9_R_10.png","5_Ratio_900_L_9_R_10.png","6_Ratio_900_L_9_R_10.png","7_Ratio_900_L_9_R_10.png","9_Ratio_900_L_18_R_20.png"]],"Rat1000":[["10_Ratio_1000_L_16_R_16.png","11_Ratio_1000_L_6_R_6.png","12_Ratio_1000_L_14_R_14.png","13_Ratio_1000_L_20_R_20.png","15_Ratio_1000_L_15_R_15.png","2_Ratio_1000_L_17_R_17.png","4_Ratio_1000_L_9_R_9.png","5_Ratio_1000_L_6_R_6.png","6_Ratio_1000_L_19_R_19.png","8_Ratio_1000_L_14_R_14.png","9_Ratio_1000_L_25_R_25.png"],["1_Ratio_1000_L_1_R_1.png","14_Ratio_1000_L_17_R_17.png","3_Ratio_1000_L_17_R_17.png","7_Ratio_1000_L_6_R_6.png"]]}},{"start_time":1551887695114,"click_time":1551887696454,"finger_time":1551887696332,"fix_duration":418.08092789727215,"trial":1,"RT":1218,"MT":122,"sideResp":1,"stimulus":"img/900/randomdotsizeEA/L/10_Ratio_900_L_20_R_18.png","xmouse":[775,775,775,775,775,775,775,775,775,775,775,775,775,775,775,775,775,775,775,775,775,775,775,775,775,775,775,775,775,775,775,775,775,775,775,775,775,775,775,775,775,775,775,775,775,775,775,775,775,775,775,775,775,775,775,775,775,775,775,768,757,725,600,536,483,476,473],"ymouse":[496,496,496,496,496,496,496,496,496,496,496,496,496,496,496,496,496,496,496,496,496,496,496,496,496,496,496,496,496,496,496,496,496,496,496,496,496,496,496,496,496,496,496,496,496,496,496,496,496,496,496,496,496,496,496,496,496,496,494,476,442,389,257,202,150,118,95],"timestamp_mouse":[19,39,59,78,100,119,139,159,179,198,219,239,260,279,299,319,339,359,379,398,418,439,458,480,498,518,539,559,579,600,619,638,659,679,700,720,739,760,778,800,818,839,859,878,899,919,940,960,979,999,1018,1038,1059,1080,1098,1118,1139,1159,1178,1198,1218,1239,1259,1278,1299,1319,1340],"xSR":741.5,"ySR":458.25,"xT1":424.9,"yT1":0,"xT2":1058.1,"yT2":0,"toosoon":0,"cond_shown":"randomdotsizeEA","ratio_trial":900,"smaller_num":"18","larger_num":"20","correct_side":1,"subjID":"HannaSofiaOlayaCorredor9","gender":"1","age":"10","school":"2019"},{"start_time":1551887697685,"click_time":1551887699392,"finger_time":1551887698694,"fix_duration":250,"trial":2,"RT":1009,"MT":698,"sideResp":1,"stimulus":"img/900/equaldotsize/R/13_Ratio_900_L_18_R_20.png","xmouse":[789,789,789,789,789,789,789,789,789,789,789,789,789,789,789,789,789,789,789,789,789,789,789,789,789,789,789,789,789,789,789,789,789,789,791,791,791,791,791,791,792,792,792,792,792,792,792,790,785,772,721,691,660,635,593,585,574,568,564,561,560,560,560,560,560,560,560,560,560,554,550,542,536,531,530,530,530,530,530,530,530,530,530,530,528,524],"ymouse":[530,530,530,530,530,530,530,530,530,530,530,530,530,530,530,530,530,530,530,530,530,530,530,530,530,530,530,530,530,530,530,530,530,530,530,530,529,529,529,529,529,527,523,520,517,516,513,511,503,480,376,318,276,245,182,163,136,121,112,102,100,100,100,100,100,100,100,100,100,96,93,89,85,82,82,82,82,82,82,82,82,82,82,82,82,81],"timestamp_mouse":[9,35,48,68,89,107,127,148,167,188,207,229,248,268,288,307,328,347,367,387,409,428,449,468,488,508,527,549,567,589,607,628,649,667,687,708,728,747,767,788,809,828,849,867,888,908,927,947,967,988,1009,1028,1047,1067,1088,1107,1128,1148,1169,1188,1207,1228,1247,1267,1289,1308,1327,1347,1368,1387,1407,1427,1448,1467,1487,1508,1528,1547,1568,1587,1608,1627,1648,1668,1688,1707],"xSR":741.5,"ySR":458.25,"xT1":424.9,"yT1":0,"xT2":1058.1,"yT2":0,"toosoon":0,"cond_shown":"equaldotsize","ratio_trial":900,"smaller_num":"18","larger_num":"20","correct_side":2,"subjID":"HannaSofiaOlayaCorredor9","gender":"1","age":"10","school":"2019"},{"start_time":1551887702295,"click_time":1551887706813,"finger_time":1551887705894,"fix_duration":1441.962480911948,"trial":3,"RT":3599,"MT":919,"sideResp":2,"stimulus":"img/900/equaldotsize/L/10_Ratio_900_L_20_R_18.png","xmouse":[776,776,776,776,776,776,776,776,776,776,776,776,776,776,776,776,776,776,776,776,776,776,776,776,776,776,776,776,776,776,776,776,776,776,776,776,776,776,776,776,776,776,776,776,776,776,776,776,776,776,776,776,776,776,776,776,776,776,776,776,776,776,776,776,776,776,776,776,776,776,776,776,776,776,776,776,776,776,776,776,776,776,776,776,776,776,776,776,776,776,776,776,776,776,776,776,776,776,776,776,776,776,776,776,776,776,776,776,776,776,776,776,776,776,776,776,776,776,776,776,776,776,776,776,776,776,776,776,776,776,776,776,776,776,776,776,776,776,776,776,776,776,776,776,776,776,776,776,776,776,776,776,776,776,776,776,776,776,776,776,776,776,776,776,776,776,776,776,776,776,776,776,776,776,776,776,776,780,821,856,902,934,952,963,967,976,995,1022,1079,1088,1089,1089,1085,1075,1047,1030,1027,1026,1026,1026,1026,1029,1031,1038,1041,1042,1042,1042,1042,1042,1043,1048,1056,1074,1086,1095,1095,1095,1095,1095,1095,1095,1095,1095,1095,1100],"ymouse":[495,495,495,495,495,495,495,495,495,495,495,495,495,495,495,495,495,495,495,495,495,495,495,495,495,495,495,495,495,495,495,495,495,495,495,495,495,495,495,495,495,495,495,495,495,495,495,495,495,495,495,495,495,495,495,495,495,495,495,495,495,495,495,495,495,495,495,495,495,495,495,495,495,495,495,495,495,495,495,495,495,495,495,495,495,495,495,495,495,495,495,495,495,495,495,495,495,495,495,495,495,495,495,495,495,495,495,495,495,495,495,495,495,495,495,495,495,495,495,495,495,495,495,495,495,495,495,495,495,495,495,495,495,495,495,495,495,495,495,495,495,495,495,495,495,495,495,495,495,495,495,495,495,495,495,495,495,495,495,495,495,495,495,495,495,495,495,495,495,495,495,495,495,495,495,495,494,491,459,443,423,413,406,398,395,390,383,375,349,341,334,328,322,312,296,282,275,265,234,214,188,172,160,139,135,134,134,134,134,134,134,132,131,124,119,113,113,113,111,110,109,109,109,105,103,95],"timestamp_mouse":[17,39,58,78,98,117,138,158,177,199,217,238,258,277,298,318,337,357,379,397,419,438,458,477,499,517,538,559,577,599,619,637,658,678,697,717,738,758,779,798,818,838,858,878,898,917,939,957,977,998,1018,1038,1058,1077,1098,1119,1137,1157,1178,1197,1217,1237,1259,1277,1299,1319,1337,1357,1379,1397,1417,1437,1457,1478,1497,1518,1538,1558,1577,1599,1618,1638,1658,1677,1697,1717,1739,1757,1777,1797,1819,1837,1859,1877,1898,1918,1937,1958,1979,1999,2017,2038,2057,2078,2099,2117,2138,2158,2177,2198,2218,2237,2257,2279,2298,2319,2338,2357,2378,2398,2419,2437,2457,2478,2497,2519,2537,2557,2577,2599,2617,2637,2657,2677,2697,2717,2737,2757,2777,2799,2817,2837,2857,2877,2897,2919,2937,2957,2978,2997,3017,3038,3057,3077,3098,3117,3139,3158,3178,3197,3218,3237,3258,3278,3298,3318,3338,3357,3379,3397,3419,3437,3457,3478,3497,3518,3538,3559,3578,3599,3617,3638,3657,3679,3697,3718,3738,3759,3778,3797,3817,3838,3859,3877,3897,3918,3937,3957,3979,3997,4018,4039,4058,4078,4097,4118,4137,4158,4178,4197,4218,4239,4257,4279,4297,4318,4337,4358,4379,4397,4417,4437,4457,4484,4497,4518],"xSR":741.5,"ySR":458.25,"xT1":424.9,"yT1":0,"xT2":1058.1,"yT2":0,"toosoon":0,"cond_shown":"equaldotsize","ratio_trial":900,"smaller_num":"18","larger_num":"20","correct_side":1,"subjID":"HannaSofiaOlayaCorredor9","gender":"1","age":"10","school":"2019"},{"start_time":1551887709222,"click_time":1551887711273,"finger_time":1551887710094,"fix_duration":807.3317522456072,"trial":4,"RT":872,"MT":1179,"sideResp":1,"stimulus":"img/900/randomdotsizeEA/R/11_Ratio_900_L_18_R_20.png","xmouse":[786,786,786,786,786,786,786,786,786,786,786,786,786,786,786,786,786,786,786,786,786,786,786,786,786,786,786,786,786,786,786,786,786,786,786,786,786,786,786,786,786,779,764,693,651,612,581,553,553,552,552,552,552,552,552,552,551,543,536,533,529,525,522,522,522,522,522,521,521,520,519,517,505,499,497,496,496,496,496,496,496,496,496,496,496,496,496,496,496,496,496,496,496,496,497,498,498,498,498,500,505,509,522],"ymouse":[555,555,555,555,555,555,555,555,555,555,555,555,555,555,555,555,555,555,555,555,555,555,555,555,555,555,555,555,555,555,555,555,555,555,555,555,555,555,555,555,553,542,519,438,396,359,315,273,271,270,270,270,270,267,261,255,247,224,207,196,183,173,158,154,152,150,148,144,144,143,140,137,125,120,118,117,117,117,117,117,117,117,117,117,117,117,117,117,117,117,117,117,117,115,115,115,115,115,115,114,111,107,96],"timestamp_mouse":[10,31,52,70,90,112,131,151,170,190,210,231,252,270,291,311,331,350,370,392,410,430,450,470,491,512,531,552,572,592,610,631,651,670,691,711,731,750,771,792,810,831,851,872,891,911,930,951,970,991,1010,1030,1051,1070,1091,1110,1131,1151,1170,1192,1212,1230,1251,1271,1291,1312,1331,1351,1371,1392,1411,1432,1451,1471,1491,1510,1532,1551,1571,1590,1610,1631,1650,1671,1691,1711,1731,1751,1770,1792,1811,1831,1851,1871,1890,1912,1931,1951,1971,1990,2011,2032,2051],"xSR":741.5,"ySR":458.25,"xT1":424.9,"yT1":0,"xT2":1058.1,"yT2":0,"toosoon":0,"cond_shown":"randomdotsizeEA","ratio_trial":900,"smaller_num":"18","larger_num":"20","correct_side":2,"subjID":"HannaSofiaOlayaCorredor9","gender":"1","age":"10","school":"2019"},{"start_time":1551887713060,"click_time":1551887715174,"finger_time":1551887714372,"fix_duration":483.4235031058899,"trial":5,"RT":1312,"MT":802,"sideResp":2,"stimulus":"img/900/randomdotsizeEA/R/14_Ratio_900_L_18_R_20.png","xmouse":[767,767,767,767,767,767,767,767,767,767,767,767,767,767,767,767,767,767,767,767,767,767,767,767,767,767,767,767,767,767,767,767,767,767,767,767,767,767,767,767,767,767,767,767,767,767,767,767,767,767,767,767,766,766,765,765,765,765,765,765,765,765,767,779,800,845,1015,1100,1174,1198,1205,1209,1210,1210,1210,1210,1210,1210,1210,1208,1204,1203,1203,1203,1202,1201,1200,1187,1172,1161,1157,1152,1151,1151,1151,1151,1151,1151,1151,1151,1150,1147,1146,1145,1145,1144],"ymouse":[522,522,522,522,522,522,522,522,522,522,522,522,522,522,522,522,522,522,522,522,522,522,522,522,522,522,522,522,522,522,522,522,522,522,522,522,522,522,522,522,522,522,522,522,522,522,522,522,522,522,522,521,517,515,514,514,514,514,514,514,514,509,502,486,461,426,321,273,221,202,188,164,154,147,142,133,128,122,111,103,94,94,93,93,93,93,93,93,97,101,103,103,103,103,103,103,103,103,103,103,103,102,101,100,100,99],"timestamp_mouse":[13,34,53,73,92,113,132,154,172,192,214,233,254,273,294,314,333,354,372,394,412,433,452,473,492,512,533,552,574,592,614,633,653,673,694,713,734,753,774,794,813,833,852,874,892,914,932,953,973,994,1013,1033,1054,1073,1094,1114,1133,1152,1173,1193,1212,1233,1254,1274,1293,1312,1332,1354,1374,1394,1413,1434,1453,1472,1493,1514,1533,1552,1573,1593,1613,1633,1654,1672,1693,1714,1734,1753,1773,1792,1814,1834,1854,1873,1892,1914,1933,1953,1973,1992,2013,2033,2052,2072,2092,2114],"xSR":741.5,"ySR":458.25,"xT1":424.9,"yT1":0,"xT2":1058.1,"yT2":0,"toosoon":0,"cond_shown":"randomdotsizeEA","ratio_trial":900,"smaller_num":"18","larger_num":"20","correct_side":2,"subjID":"HannaSofiaOlayaCorredor9","gender":"1","age":"10","school":"2019"},{"start_time":1551887717775,"click_time":1551887719294,"finger_time":1551887718693,"fix_duration":620.697444294886,"trial":6,"RT":918,"MT":601,"sideResp":2,"stimulus":"img/250/randomdotsizeEA/R/6_Ratio_250_L_6_R_24.png","xmouse":[816,816,816,816,816,816,816,816,816,816,816,816,816,816,816,816,816,816,816,816,816,816,816,816,816,816,816,816,816,816,816,816,816,816,816,816,816,816,816,816,816,816,816,819,833,869,881,888,890,899,901,904,908,912,919,933,943,958,975,993,996,1000,1002,1005,1009,1010,1011,1011,1012,1014,1020,1035,1057,1080,1095,1106],"ymouse":[529,529,529,529,529,529,529,529,529,529,529,529,529,529,529,529,529,529,529,529,529,529,529,529,529,529,529,529,529,529,529,529,529,529,529,529,529,529,529,529,529,529,529,520,491,392,348,324,308,289,287,284,280,272,261,241,229,215,204,191,187,177,170,161,146,142,139,139,138,135,132,126,122,117,109,95],"timestamp_mouse":[18,38,58,78,98,119,138,158,178,198,218,238,257,277,297,317,338,358,378,398,419,439,457,478,499,518,538,559,579,599,619,638,657,678,698,717,738,758,778,797,818,839,857,878,898,918,938,958,977,999,1018,1038,1058,1078,1098,1117,1138,1158,1178,1199,1218,1238,1258,1278,1298,1317,1338,1358,1379,1398,1418,1438,1458,1477,1498,1519],"xSR":741.5,"ySR":458.25,"xT1":424.9,"yT1":0,"xT2":1058.1,"yT2":0,"toosoon":0,"cond_shown":"randomdotsizeEA","ratio_trial":250,"smaller_num":"6","larger_num":"24","correct_side":2,"subjID":"HannaSofiaOlayaCorredor9","gender":"1","age":"10","school":"2019"},{"start_time":1551887721659,"click_time":1551887723232,"finger_time":1551887722714,"fix_duration":1364.2311979078968,"trial":7,"RT":1055,"MT":518,"sideResp":1,"stimulus":"img/750/equaldotanddens/L/10_Ratio_750_L_4_R_3.png","xmouse":[776,776,776,776,776,776,776,776,776,776,776,776,776,776,776,776,776,776,776,776,776,776,776,776,776,776,776,776,776,776,776,776,776,776,776,776,776,776,776,776,776,776,776,776,776,776,776,776,776,772,767,758,749,740,732,715,707,700,691,684,656,631,599,563,529,493,493,493,493,493,485,476,470,465,462,462,461,461,461],"ymouse":[499,499,499,499,499,499,499,499,499,499,499,499,499,499,499,499,499,499,499,499,499,499,499,499,499,499,499,499,499,499,499,499,499,499,499,499,499,499,499,499,499,499,499,499,499,499,499,499,498,492,484,462,445,429,414,387,373,360,345,333,302,280,257,231,204,173,169,166,164,163,151,140,132,124,118,115,104,100,95],"timestamp_mouse":[15,34,55,74,94,114,135,153,174,193,214,235,253,274,294,315,334,354,373,393,415,433,455,474,493,513,535,553,575,594,614,635,653,675,695,714,734,754,773,795,815,835,854,873,894,915,934,954,974,995,1013,1035,1055,1074,1094,1114,1134,1153,1173,1195,1214,1234,1253,1274,1295,1314,1334,1353,1374,1395,1414,1434,1454,1475,1495,1513,1533,1555,1573],"xSR":741.5,"ySR":458.25,"xT1":424.9,"yT1":0,"xT2":1058.1,"yT2":0,"toosoon":0,"cond_shown":"equaldotanddens","ratio_trial":750,"smaller_num":"3","larger_num":"4","correct_side":1,"subjID":"HannaSofiaOlayaCorredor9","gender":"1","age":"10","school":"2019"},{"start_time":1551887724225,"click_time":1551887725873,"finger_time":1551887725053,"fix_duration":250,"trial":8,"RT":828,"MT":820,"sideResp":1,"stimulus":"img/250/equaldotsize/L/15_Ratio_250_L_12_R_3.png","xmouse":[795,795,795,795,795,795,795,795,795,795,795,795,795,795,795,795,795,795,795,795,795,795,795,795,795,795,795,795,795,795,795,795,795,795,795,795,795,795,796,792,770,749,731,703,687,667,643,603,590,587,584,584,583,582,578,573,563,535,529,524,521,516,500,494,491,490,490,490,488,480,474,468,457,456,456,456,456,456,456,456,456,457,461],"ymouse":[544,544,544,544,544,544,544,544,544,544,544,544,544,544,544,544,544,544,544,544,544,544,544,544,544,544,544,544,544,544,544,544,544,544,544,544,544,544,539,531,493,453,413,350,328,304,286,258,247,245,242,240,239,236,231,225,217,196,189,182,177,172,159,154,150,148,144,140,132,124,118,113,106,105,105,105,105,105,105,105,104,103,99],"timestamp_mouse":[8,28,49,68,88,108,129,148,169,188,207,229,249,268,288,307,328,348,367,388,408,429,448,467,488,508,528,548,567,589,609,627,649,667,688,708,727,749,769,788,809,828,849,867,888,908,929,948,968,987,1008,1027,1048,1067,1087,1109,1128,1149,1167,1189,1208,1227,1248,1269,1288,1309,1328,1348,1367,1388,1408,1428,1448,1468,1489,1508,1527,1547,1567,1589,1608,1628,1648],"xSR":741.5,"ySR":458.25,"xT1":424.9,"yT1":0,"xT2":1058.1,"yT2":0,"toosoon":0,"cond_shown":"equaldotsize","ratio_trial":250,"smaller_num":"3","larger_num":"12","correct_side":1,"subjID":"HannaSofiaOlayaCorredor9","gender":"1","age":"10","school":"2019"},{"start_time":1551887728206,"click_time":1551887729413,"finger_time":1551887729034,"fix_duration":1290.7585783443603,"trial":9,"RT":828,"MT":379,"sideResp":2,"stimulus":"img/250/randomdotsizeEA/R/13_Ratio_250_L_2_R_8.png","xmouse":[806,806,806,806,806,806,806,806,806,806,806,806,806,806,806,806,806,806,806,806,806,806,806,806,806,806,806,806,806,806,806,806,806,806,806,806,806,806,806,806,816,837,859,928,967,992,1004,1008,1008,1008,1012,1017,1025,1036,1053,1059,1063,1067,1080,1087,1091],"ymouse":[478,478,478,478,478,478,478,478,478,478,478,478,478,478,478,478,478,478,478,478,478,478,478,478,478,478,478,478,478,478,478,478,478,478,478,478,478,478,478,478,461,425,386,294,251,221,205,196,191,189,184,175,166,158,148,143,138,134,116,105,99],"timestamp_mouse":[10,28,46,68,87,107,128,146,167,186,207,228,246,267,288,308,327,346,367,388,408,428,448,467,486,507,527,547,568,586,606,628,647,667,688,707,726,746,766,788,806,828,848,867,886,907,926,946,968,987,1006,1027,1047,1067,1087,1107,1127,1146,1168,1186,1207],"xSR":741.5,"ySR":458.25,"xT1":424.9,"yT1":0,"xT2":1058.1,"yT2":0,"toosoon":0,"cond_shown":"randomdotsizeEA","ratio_trial":250,"smaller_num":"2","larger_num":"8","correct_side":2,"subjID":"HannaSofiaOlayaCorredor9","gender":"1","age":"10","school":"2019"},{"start_time":1551887731392,"click_time":1551887733153,"finger_time":1551887732214,"fix_duration":936.3712142009138,"trial":10,"RT":822,"MT":939,"sideResp":2,"stimulus":"img/250/equaldotanddens/R/13_Ratio_250_L_2_R_8.png","xmouse":[806,806,806,806,806,806,806,806,806,806,806,806,806,806,806,806,806,806,806,806,806,806,806,806,806,806,806,806,806,806,806,806,806,806,806,806,806,806,807,825,837,856,864,872,879,900,912,927,938,957,963,970,976,986,995,1013,1020,1026,1029,1032,1034,1034,1035,1037,1043,1046,1050,1055,1062,1081,1086,1089,1089,1089,1089,1089,1089,1089,1089,1089,1089,1090,1090,1092,1095,1097,1099,1101,1104],"ymouse":[491,491,491,491,491,491,491,491,491,491,491,491,491,491,491,491,491,491,491,491,491,491,491,491,491,491,491,491,491,491,491,491,491,491,491,491,491,491,491,473,461,438,424,408,390,352,331,311,295,272,266,261,258,252,245,228,216,206,199,190,183,181,177,173,163,160,155,149,142,128,125,123,123,123,123,123,123,123,123,123,123,121,119,116,109,106,104,101,98],"timestamp_mouse":[8,27,41,62,81,102,122,141,160,182,201,221,241,260,281,301,321,340,360,382,402,421,442,461,480,501,522,540,562,580,600,620,641,662,680,702,720,742,762,781,801,822,841,860,882,901,921,942,960,982,1001,1021,1041,1061,1082,1102,1122,1142,1160,1180,1200,1220,1241,1262,1281,1301,1321,1341,1361,1382,1401,1421,1441,1462,1482,1501,1521,1540,1560,1580,1600,1621,1642,1662,1681,1700,1721,1742,1761],"xSR":741.5,"ySR":458.25,"xT1":424.9,"yT1":0,"xT2":1058.1,"yT2":0,"toosoon":0,"cond_shown":"equaldotanddens","ratio_trial":250,"smaller_num":"2","larger_num":"8","correct_side":2,"subjID":"HannaSofiaOlayaCorredor9","gender":"1","age":"10","school":"2019"},{"start_time":1551887736801,"click_time":1551887739673,"finger_time":1551887738893,"fix_duration":1082.1159091865486,"trial":11,"RT":2092,"MT":780,"sideResp":2,"stimulus":"img/900/equaldotsize/L/8_Ratio_900_L_20_R_18.png","xmouse":[799,799,799,799,799,799,799,799,799,799,799,799,799,799,799,799,799,799,799,799,799,799,799,799,799,799,799,799,799,799,799,799,799,799,799,799,799,799,799,799,799,799,799,799,799,799,799,799,800,800,799,799,797,797,797,797,797,797,797,797,797,797,795,794,794,794,794,794,794,794,794,794,794,794,794,794,794,794,794,794,794,794,794,794,794,794,794,794,794,794,794,794,794,794,794,794,794,794,794,794,794,794,794,801,826,844,857,869,880,902,917,929,938,952,956,960,965,969,978,983,986,987,988,992,996,1002,1009,1012,1022,1030,1035,1038,1041,1041,1041,1041,1041,1042,1049,1056,1069,1087,1100,1117],"ymouse":[524,524,524,524,524,524,524,524,524,524,524,524,524,524,524,524,524,524,524,524,524,524,524,524,524,524,524,524,524,524,524,524,524,524,524,524,524,524,524,524,524,524,524,524,524,524,524,524,522,519,517,514,511,511,511,511,511,511,511,511,511,510,508,505,504,504,504,504,504,504,504,504,504,504,504,504,504,504,504,504,504,504,504,504,504,504,504,504,504,504,504,504,504,504,504,504,504,504,504,504,504,503,496,484,444,419,400,384,368,340,319,303,289,268,260,253,247,241,229,225,223,222,221,219,216,212,207,204,197,191,187,184,181,181,181,181,181,180,172,161,145,123,101,65],"timestamp_mouse":[15,33,51,73,92,111,133,153,171,192,212,233,251,272,291,312,332,353,373,392,413,432,452,473,492,512,532,553,573,592,612,631,651,672,692,713,731,751,773,792,811,832,853,871,892,912,932,952,973,992,1011,1033,1052,1071,1093,1112,1133,1153,1171,1192,1212,1231,1252,1272,1293,1313,1331,1353,1371,1393,1413,1431,1452,1472,1491,1512,1531,1552,1573,1591,1611,1633,1653,1672,1691,1713,1733,1753,1772,1792,1812,1831,1853,1871,1892,1911,1932,1953,1971,1992,2012,2032,2052,2071,2092,2112,2133,2153,2171,2192,2212,2232,2251,2273,2292,2312,2332,2352,2372,2391,2411,2432,2453,2472,2491,2511,2532,2552,2572,2591,2611,2632,2651,2671,2693,2711,2731,2752,2772,2791,2812,2832,2852,2872],"xSR":741.5,"ySR":458.25,"xT1":424.9,"yT1":0,"xT2":1058.1,"yT2":0,"toosoon":0,"cond_shown":"equaldotsize","ratio_trial":900,"smaller_num":"18","larger_num":"20","correct_side":1,"subjID":"HannaSofiaOlayaCorredor9","gender":"1","age":"10","school":"2019"},{"start_time":1551887741730,"click_time":1551887743433,"finger_time":1551887742494,"fix_duration":613.517269053049,"trial":12,"RT":764,"MT":939,"sideResp":2,"stimulus":"img/250/equaldotsize/R/11_Ratio_250_L_3_R_12.png","xmouse":[799,799,799,799,799,799,799,799,799,799,799,799,799,799,799,799,799,799,799,799,799,799,799,799,799,799,799,799,799,799,799,799,799,799,802,808,816,839,850,861,873,885,896,912,927,939,952,976,989,1001,1013,1023,1030,1036,1037,1039,1041,1048,1052,1057,1059,1064,1079,1090,1102,1114,1130,1167,1184,1196,1196,1196,1196,1196,1196,1196,1196,1196,1196,1181,1179,1173,1170,1162,1159,1157],"ymouse":[534,534,534,534,534,534,534,534,534,534,534,534,534,534,534,534,534,534,534,534,534,534,534,534,534,534,534,534,534,534,534,534,534,534,531,522,509,480,467,454,443,433,423,404,383,366,350,322,309,296,283,270,263,255,253,250,247,237,232,225,221,215,193,172,151,128,102,50,21,0,0,0,0,0,0,0,0,0,0,0,2,6,10,20,23,26],"timestamp_mouse":[10,24,44,62,83,103,123,143,163,183,202,223,243,264,284,302,324,342,364,383,403,422,443,463,484,504,523,542,563,582,603,623,643,663,683,703,723,744,764,782,803,822,844,863,883,903,922,944,962,983,1003,1023,1042,1063,1082,1102,1124,1143,1162,1183,1204,1223,1243,1262,1283,1303,1322,1343,1362,1382,1403,1423,1444,1463,1483,1504,1524,1544,1563,1583,1604,1622,1643,1663,1683,1703],"xSR":741.5,"ySR":458.25,"xT1":424.9,"yT1":0,"xT2":1058.1,"yT2":0,"toosoon":0,"cond_shown":"equaldotsize","ratio_trial":250,"smaller_num":"3","larger_num":"12","correct_side":2,"subjID":"HannaSofiaOlayaCorredor9","gender":"1","age":"10","school":"2019"},{"start_time":1551887746775,"click_time":1551887748754,"finger_time":1551887747794,"fix_duration":460.62990843785354,"trial":13,"RT":1019,"MT":960,"sideResp":2,"stimulus":"img/900/equaldotsize/L/2_Ratio_900_L_20_R_18.png","xmouse":[817,817,817,817,817,817,817,817,817,817,817,817,817,817,817,817,817,817,817,817,817,817,817,817,817,817,817,817,817,817,817,817,817,817,817,817,817,817,817,817,817,817,814,810,800,793,785,778,769,742,714,691,666,646,630,611,608,608,613,618,618,618,619,619,619,619,619,619,619,619,619,619,619,619,619,619,619,620,629,681,719,788,818,849,879,926,945,961,976,985,991,993,994,996,1023,1041,1053,1058,1059],"ymouse":[519,519,519,519,519,519,519,519,519,519,519,519,519,519,519,519,519,519,519,519,519,519,519,519,519,519,519,519,519,519,519,519,519,519,519,519,519,519,519,519,519,519,519,519,519,517,517,515,513,501,488,476,465,451,438,399,372,343,301,232,219,214,210,210,210,210,210,210,210,210,210,210,210,210,210,210,210,209,209,203,197,184,176,166,155,132,121,111,100,94,88,86,86,84,77,74,73,71,71],"timestamp_mouse":[27,37,58,78,99,117,137,158,178,198,219,239,258,279,298,318,339,358,379,397,419,438,458,478,498,519,539,557,577,598,619,639,657,678,699,719,739,757,779,798,817,838,858,878,899,917,938,958,978,999,1019,1038,1058,1077,1099,1118,1138,1158,1178,1198,1217,1238,1257,1277,1299,1319,1338,1357,1379,1397,1418,1439,1458,1477,1499,1518,1539,1558,1578,1598,1618,1638,1658,1679,1697,1719,1738,1759,1779,1797,1818,1838,1858,1879,1898,1918,1938,1959,1979],"xSR":741.5,"ySR":458.25,"xT1":424.9,"yT1":0,"xT2":1058.1,"yT2":0,"toosoon":0,"cond_shown":"equaldotsize","ratio_trial":900,"smaller_num":"18","larger_num":"20","correct_side":1,"subjID":"HannaSofiaOlayaCorredor9","gender":"1","age":"10","school":"2019"},{"start_time":1551887750055,"click_time":1551887762114,"finger_time":1551887761134,"fix_duration":500.8337054151344,"trial":14,"RT":11079,"MT":980,"sideResp":2,"stimulus":"img/750/equaldotsize/R/5_Ratio_750_L_15_R_20.png","xmouse":[803,803,803,803,803,803,803,803,803,803,803,803,803,803,803,803,803,803,803,803,803,803,803,803,803,803,803,803,803,803,803,803,803,803,803,803,803,803,803,803,803,803,803,803,803,803,803,803,803,803,803,803,803,803,803,803,803,803,803,803,803,803,803,803,803,803,803,803,803,803,803,803,803,803,803,803,803,803,803,803,803,803,803,803,803,803,803,803,803,803,803,803,803,803,803,803,803,803,803,803,803,803,803,803,803,803,803,803,803,803,803,803,803,803,803,803,803,803,803,803,803,803,803,803,803,803,803,803,803,803,803,803,803,803,803,803,803,803,803,803,803,803,803,803,803,803,803,803,803,803,803,803,803,803,803,803,803,803,803,803,803,803,803,803,803,803,803,803,803,803,803,803,803,803,803,803,803,803,803,803,803,803,803,803,803,803,803,803,803,803,803,803,803,803,803,803,803,803,803,803,803,803,803,803,803,803,803,803,803,803,803,803,803,803,803,803,803,803,803,803,803,803,803,803,803,803,803,803,803,803,803,803,803,803,803,803,803,803,803,803,803,803,803,803,803,803,803,803,803,803,803,803,803,803,803,803,803,803,803,803,803,803,803,803,803,803,803,803,803,803,803,803,803,803,803,803,803,803,803,803,803,803,803,803,803,803,803,803,803,803,803,803,803,803,803,803,803,803,803,803,803,803,803,803,803,803,803,803,803,803,803,803,803,803,803,803,803,803,803,803,803,803,803,803,803,803,803,803,803,803,803,803,803,803,803,803,803,803,803,803,803,803,803,803,803,803,803,803,803,803,803,803,803,803,803,803,803,803,803,803,803,803,803,803,803,803,803,803,803,803,803,803,803,803,803,803,803,803,803,803,803,803,803,803,803,803,803,803,803,803,803,803,803,803,803,803,803,803,803,803,803,803,803,803,803,803,803,803,803,803,803,803,803,803,803,803,803,803,803,803,803,803,803,803,803,803,803,803,803,803,803,803,803,803,803,803,803,803,803,803,803,803,803,803,803,803,803,803,803,803,803,803,803,803,803,803,803,803,803,803,803,803,803,803,803,803,803,803,803,803,803,803,803,803,803,803,803,803,803,803,803,803,803,803,803,803,803,803,803,803,803,803,803,803,803,803,803,803,803,803,803,803,803,803,803,803,803,803,803,803,803,803,803,803,803,803,803,803,803,803,803,803,803,803,803,803,803,803,803,803,803,803,803,803,803,803,803,803,803,803,803,803,803,803,803,803,803,803,803,803,815,827,835,844,849,854,856,867,877,886,897,898,898,898,898,898,898,898,898,898,898,898,898,898,898,898,898,898,898,898,898,898,898,898,900,907,916,934,945,954,967,974,981,990,1002,1020,1028,1032,1037,1040,1051,1058,1064],"ymouse":[515,515,515,515,515,515,515,515,515,515,515,515,515,515,515,515,515,515,515,515,515,515,515,515,515,515,515,515,515,515,515,515,515,515,515,515,515,515,515,515,515,515,515,515,515,515,515,515,515,515,515,515,515,515,515,515,515,515,515,515,515,515,515,515,515,515,515,515,515,515,515,515,515,515,515,515,515,515,515,515,515,515,515,515,515,515,515,515,515,515,515,515,515,515,515,515,515,515,515,515,515,515,515,515,515,515,515,515,515,515,515,515,515,515,515,515,515,515,515,515,515,515,515,515,515,515,515,515,515,515,515,515,515,515,515,515,515,515,515,515,515,515,515,515,515,515,515,515,515,515,515,515,515,515,515,515,515,515,515,515,515,515,515,515,515,515,515,515,515,515,515,515,515,515,515,515,515,515,515,515,515,515,515,515,515,515,515,515,515,515,515,515,515,515,515,515,515,515,515,515,515,515,515,515,515,515,515,515,515,515,515,515,515,515,515,515,515,515,515,515,515,515,515,515,515,515,515,515,515,515,515,515,515,515,515,515,515,515,515,515,515,515,515,515,515,515,515,515,515,515,515,515,515,515,515,515,515,515,515,515,515,515,515,515,515,515,515,515,515,515,515,515,515,515,515,515,515,515,515,515,515,515,515,515,515,515,515,515,515,515,515,515,515,515,515,515,515,515,515,515,515,515,515,515,515,515,515,515,515,515,515,515,515,515,515,515,515,515,515,515,515,515,515,515,515,515,515,515,515,515,515,515,515,515,515,515,515,515,515,515,515,515,515,515,515,515,515,515,515,515,515,515,515,515,515,515,515,515,515,515,515,515,515,515,515,515,515,515,515,515,515,515,515,515,515,515,515,515,515,515,515,515,515,515,515,515,515,515,515,515,515,515,515,515,515,515,515,515,515,515,515,515,515,515,515,515,515,515,515,515,515,515,515,515,515,515,515,515,515,515,515,515,515,515,515,515,515,515,515,515,515,515,515,515,515,515,515,515,515,515,515,515,515,515,515,515,515,515,515,515,515,515,515,515,515,515,515,515,515,515,515,515,515,515,515,515,515,515,515,515,515,515,515,515,515,515,515,515,515,515,515,515,515,515,515,515,515,515,515,515,515,515,515,515,515,515,515,515,515,515,515,515,515,515,515,515,515,515,515,515,515,515,515,515,515,515,515,515,515,515,515,515,515,515,515,515,515,515,515,515,515,515,515,515,515,515,515,515,515,515,515,515,515,515,515,515,515,515,515,515,500,488,477,466,459,449,443,426,412,399,382,379,378,378,378,378,378,378,378,378,378,378,378,378,378,378,378,378,378,378,378,378,378,378,374,364,348,322,303,283,256,244,233,222,209,184,174,164,151,142,120,107,95],"timestamp_mouse":[19,38,58,77,99,119,138,158,178,198,217,237,258,278,298,329,337,359,378,398,418,437,458,479,498,517,538,559,578,599,618,639,658,677,698,717,738,757,779,797,818,838,858,878,899,917,939,958,978,999,1018,1038,1058,1078,1097,1117,1138,1158,1178,1198,1219,1239,1259,1278,1298,1318,1338,1357,1379,1398,1418,1438,1458,1479,1498,1519,1539,1557,1578,1598,1617,1639,1657,1679,1698,1718,1737,1759,1777,1797,1818,1839,1858,1878,1898,1917,1937,1959,1977,1997,2018,2037,2059,2077,2097,2118,2137,2157,2179,2198,2217,2237,2259,2278,2299,2318,2338,2358,2378,2397,2419,2439,2458,2478,2498,2518,2539,2559,2578,2598,2619,2639,2658,2679,2697,2718,2739,2759,2777,2798,2818,2839,2857,2878,2898,2918,2938,2958,2977,2998,3019,3039,3059,3077,3098,3119,3138,3158,3178,3198,3217,3239,3259,3277,3298,3319,3337,3358,3378,3399,3419,3439,3459,3478,3499,3518,3537,3559,3577,3599,3618,3637,3658,3677,3698,3718,3738,3759,3777,3797,3819,3838,3857,3879,3898,3917,3939,3959,3978,3998,4017,4039,4057,4078,4099,4118,4139,4158,4179,4197,4218,4237,4257,4279,4298,4318,4339,4358,4378,4398,4419,4439,4457,4479,4498,4519,4538,4559,4578,4598,4619,4637,4658,4678,4698,4719,4737,4759,4777,4797,4818,4837,4857,4878,4898,4919,4938,4958,4978,4998,5017,5039,5059,5077,5098,5118,5139,5157,5177,5198,5219,5238,5258,5278,5299,5318,5339,5359,5378,5399,5418,5439,5457,5478,5498,5517,5538,5559,5577,5598,5618,5638,5658,5677,5698,5718,5738,5759,5778,5797,5819,5839,5858,5878,5898,5918,5937,5959,5978,5998,6019,6039,6058,6078,6098,6118,6137,6159,6178,6198,6218,6239,6259,6277,6297,6319,6337,6358,6378,6397,6418,6439,6458,6479,6498,6518,6539,6558,6578,6598,6619,6638,6657,6679,6699,6718,6738,6758,6778,6799,6819,6839,6858,6878,6898,6918,6939,6959,6978,6998,7018,7037,7057,7079,7097,7117,7139,7157,7179,7199,7219,7237,7259,7278,7298,7318,7337,7359,7378,7398,7418,7439,7457,7479,7499,7517,7537,7559,7577,7598,7619,7639,7658,7677,7698,7718,7739,7759,7778,7798,7818,7839,7858,7879,7899,7918,7937,7959,7979,7998,8019,8037,8059,8077,8097,8117,8139,8158,8178,8198,8218,8238,8258,8277,8297,8319,8337,8358,8379,8397,8418,8437,8458,8478,8498,8517,8539,8559,8577,8598,8619,8637,8657,8678,8699,8726,8737,8758,8779,8799,8818,8838,8857,8878,8899,8918,8938,8959,8977,8998,9018,9039,9059,9077,9098,9118,9138,9157,9178,9197,9218,9239,9259,9278,9298,9319,9338,9357,9378,9398,9419,9438,9458,9479,9497,9518,9539,9558,9578,9598,9618,9639,9658,9678,9698,9718,9738,9757,9778,9799,9817,9839,9858,9879,9898,9917,9939,9959,9979,9998,10019,10037,10059,10078,10099,10119,10139,10158,10177,10198,10218,10238,10259,10277,10297,10318,10338,10357,10378,10398,10418,10439,10458,10479,10498,10518,10538,10559,10579,10598,10619,10637,10658,10678,10697,10718,10738,10758,10778,10798,10818,10837,10859,10878,10897,10919,10939,10957,10979,10998,11019,11038,11058,11079,11097,11118,11137,11158,11178,11198,11218,11237,11258,11277,11298,11317,11338,11358,11379,11397,11419,11438,11458,11477,11497,11519,11539,11558,11578,11599,11618,11637,11659,11679,11698,11718,11737,11758,11779,11798,11818,11837,11858,11879,11899,11918,11938,11958,11978,11997,12019,12037,12059],"xSR":741.5,"ySR":458.25,"xT1":424.9,"yT1":0,"xT2":1058.1,"yT2":0,"toosoon":0,"cond_shown":"equaldotsize","ratio_trial":750,"smaller_num":"15","larger_num":"20","correct_side":2,"subjID":"HannaSofiaOlayaCorredor9","gender":"1","age":"10","school":"2019"},{"start_time":1551887766049,"click_time":1551887767934,"finger_time":1551887767234,"fix_duration":1334.594874553956,"trial":15,"RT":1185,"MT":700,"sideResp":2,"stimulus":"img/500/randomdotsizeEA/R/14_Ratio_500_L_5_R_10.png","xmouse":[797,797,797,797,797,797,797,797,797,797,797,797,797,797,797,797,797,797,797,797,797,797,797,797,797,797,797,797,797,797,797,797,797,797,797,797,797,797,797,796,793,788,786,785,785,785,785,785,785,785,785,785,785,785,785,785,789,796,800,809,815,826,849,860,872,884,896,921,937,946,952,960,967,978,993,1005,1024,1032,1041,1046,1049,1056,1058,1059,1061,1062,1064,1064,1065,1066,1067,1071,1074,1077,1080],"ymouse":[514,514,514,514,514,514,514,514,514,514,514,514,514,514,514,514,514,514,514,514,514,514,514,514,514,514,514,514,514,514,514,514,514,514,514,514,514,514,514,514,514,515,515,516,516,516,516,516,516,516,516,516,516,516,516,511,499,481,470,440,421,402,364,344,323,301,276,237,218,207,201,194,189,182,174,167,153,147,140,135,131,127,126,125,124,122,118,117,116,114,113,109,106,102,98],"timestamp_mouse":[10,25,45,64,85,103,124,145,163,185,204,223,244,265,284,304,324,344,364,384,404,423,445,463,485,505,524,544,564,583,604,625,645,665,684,704,725,745,763,784,804,824,844,864,885,903,925,945,965,983,1004,1025,1045,1064,1083,1105,1124,1145,1163,1185,1205,1224,1245,1264,1285,1304,1323,1345,1364,1384,1405,1424,1445,1464,1484,1504,1525,1543,1564,1584,1605,1624,1643,1664,1684,1704,1724,1743,1763,1784,1804,1824,1844,1864,1885],"xSR":741.5,"ySR":458.25,"xT1":424.9,"yT1":0,"xT2":1058.1,"yT2":0,"toosoon":0,"cond_shown":"randomdotsizeEA","ratio_trial":500,"smaller_num":"5","larger_num":"10","correct_side":2,"subjID":"HannaSofiaOlayaCorredor9","gender":"1","age":"10","school":"2019"},{"start_time":1551887769776,"click_time":1551887771213,"finger_time":1551887770773,"fix_duration":880.334033028403,"trial":16,"RT":997,"MT":440,"sideResp":1,"stimulus":"img/250/equaldotanddens/L/15_Ratio_250_L_12_R_3.png","xmouse":[777,777,777,777,777,777,777,777,777,777,777,777,777,777,777,777,777,777,777,777,777,777,777,777,777,777,777,777,777,777,777,777,777,777,777,777,777,777,777,777,777,777,777,777,777,777,771,765,750,730,688,664,628,598,564,481,445,421,412,409,409,409,409,409,410,413,415,417,419,423,424,427],"ymouse":[495,495,495,495,495,495,495,495,495,495,495,495,495,495,495,495,495,495,495,495,495,495,495,495,495,495,495,495,495,495,495,495,495,495,495,495,495,495,495,495,495,495,495,495,495,495,494,486,469,453,418,397,355,323,278,174,134,110,102,96,96,96,96,96,92,89,87,85,83,80,80,78],"timestamp_mouse":[16,36,57,77,96,117,137,158,177,197,217,238,258,276,297,318,336,357,378,397,416,437,458,476,497,517,536,557,578,598,618,637,657,678,698,716,736,758,776,797,818,837,857,878,898,916,938,958,978,997,1017,1037,1056,1076,1097,1117,1137,1158,1177,1197,1216,1237,1256,1276,1298,1316,1337,1357,1377,1397,1416,1437],"xSR":741.5,"ySR":458.25,"xT1":424.9,"yT1":0,"xT2":1058.1,"yT2":0,"toosoon":0,"cond_shown":"equaldotanddens","ratio_trial":250,"smaller_num":"3","larger_num":"12","correct_side":1,"subjID":"HannaSofiaOlayaCorredor9","gender":"1","age":"10","school":"2019"},{"start_time":1551887772923,"click_time":1551887774114,"finger_time":1551887773713,"fix_duration":250,"trial":17,"RT":790,"MT":401,"sideResp":2,"stimulus":"img/750/equaldotanddens/R/15_Ratio_750_L_9_R_12.png","xmouse":[772,772,772,772,772,772,772,772,772,772,772,772,772,772,772,772,772,772,772,772,772,772,772,772,772,772,772,772,772,772,772,772,772,772,772,773,775,784,828,855,909,970,1049,1064,1068,1073,1074,1075,1077,1078,1082,1084,1087,1092,1094,1097,1100,1105,1109,1114],"ymouse":[493,493,493,493,493,493,493,493,493,493,493,493,493,493,493,493,493,493,493,493,493,493,493,493,493,493,493,493,493,493,493,493,493,493,493,493,493,484,465,452,428,397,329,299,278,251,239,226,195,182,167,153,141,127,121,118,114,106,100,92],"timestamp_mouse":[10,30,51,69,89,111,130,150,171,189,210,229,250,271,290,309,331,349,370,390,410,430,451,470,489,510,530,550,571,590,610,631,649,669,691,710,730,749,771,790,811,830,850,869,890,910,929,951,970,991,1011,1030,1049,1070,1090,1110,1130,1150,1169,1191],"xSR":741.5,"ySR":458.25,"xT1":424.9,"yT1":0,"xT2":1058.1,"yT2":0,"toosoon":0,"cond_shown":"equaldotanddens","ratio_trial":750,"smaller_num":"9","larger_num":"12","correct_side":2,"subjID":"HannaSofiaOlayaCorredor9","gender":"1","age":"10","school":"2019"},{"start_time":1551887776463,"click_time":1551887782173,"finger_time":1551887781113,"fix_duration":1168.3368637494798,"trial":18,"RT":4650,"MT":1060,"sideResp":2,"stimulus":"img/750/equaldotanddens/R/15_Ratio_750_L_9_R_12.png","xmouse":[800,800,800,800,800,800,800,800,800,800,800,800,800,800,800,800,800,800,800,800,800,800,800,800,800,800,800,800,800,800,800,800,800,800,800,800,800,800,800,800,800,800,800,800,800,800,800,800,800,800,800,800,800,800,800,800,800,800,800,800,800,800,800,800,800,800,800,800,800,800,800,800,800,800,800,800,800,800,800,800,800,800,800,800,800,800,800,800,800,800,800,800,800,800,800,800,800,800,800,800,800,800,800,800,800,800,800,800,800,800,800,800,800,800,800,800,800,800,800,800,800,800,800,800,800,800,800,800,800,800,800,800,800,800,800,800,800,800,800,800,800,800,800,800,800,800,800,800,800,800,800,800,800,800,800,800,800,800,800,800,800,800,800,800,800,800,800,800,800,800,800,800,800,800,800,800,800,800,800,800,800,800,800,800,800,800,800,800,800,800,800,800,800,800,800,800,800,800,800,800,800,800,800,800,800,800,800,800,800,800,800,800,800,800,800,800,800,800,800,800,800,800,800,800,800,800,800,800,801,809,832,838,842,846,849,857,866,878,896,908,917,922,926,928,933,939,942,945,947,951,960,967,972,978,982,1006,1020,1034,1043,1051,1062,1067,1073,1079,1087,1094,1107,1109,1110,1111,1113,1113,1113,1113,1114,1114,1114,1114,1114,1114,1115,1116,1116,1116,1117,1117],"ymouse":[507,507,507,507,507,507,507,507,507,507,507,507,507,507,507,507,507,507,507,507,507,507,507,507,507,507,507,507,507,507,507,507,507,507,507,507,507,507,507,507,507,507,507,507,507,507,507,507,507,507,507,507,507,507,507,507,507,507,507,507,507,507,507,507,507,507,507,507,507,507,507,507,507,507,507,507,507,507,507,507,507,507,507,507,507,507,507,507,507,507,507,507,507,507,507,507,507,507,507,507,507,507,507,507,507,507,507,507,507,507,507,507,507,507,507,507,507,507,507,507,507,507,507,507,507,507,507,507,507,507,507,507,507,507,507,507,507,507,507,507,507,507,507,507,507,507,507,507,507,507,507,507,507,507,507,507,507,507,507,507,507,507,507,507,507,507,507,507,507,507,507,507,507,507,507,507,507,507,507,507,507,507,507,507,507,507,507,507,507,507,507,507,507,507,507,507,507,507,507,507,507,507,507,507,507,507,507,507,507,507,507,507,507,507,507,507,507,507,507,507,507,507,507,507,507,507,507,507,507,502,498,496,495,495,493,490,486,480,463,453,447,438,428,417,407,395,389,380,373,365,349,337,328,317,311,284,270,252,238,224,201,189,177,168,156,146,126,121,118,116,113,112,111,111,111,111,111,109,109,108,106,105,104,102,100,98],"timestamp_mouse":[10,30,50,71,89,110,130,150,171,189,209,229,250,271,289,310,331,349,370,390,410,431,451,470,490,510,530,551,570,590,611,630,650,669,690,709,729,749,771,789,809,830,849,870,890,909,929,949,970,991,1010,1031,1050,1070,1091,1120,1130,1151,1172,1190,1209,1230,1250,1271,1291,1309,1329,1349,1370,1390,1410,1429,1449,1469,1490,1510,1530,1551,1570,1590,1610,1630,1651,1669,1691,1710,1731,1751,1770,1790,1809,1830,1849,1870,1890,1911,1929,1950,1969,1990,2009,2031,2051,2069,2091,2111,2129,2149,2170,2189,2210,2230,2251,2269,2290,2311,2330,2350,2370,2390,2411,2431,2450,2471,2490,2510,2530,2550,2570,2590,2609,2630,2649,2671,2690,2709,2730,2749,2770,2789,2810,2830,2851,2872,2890,2911,2930,2950,2969,2990,3009,3029,3050,3070,3090,3111,3131,3150,3170,3189,3211,3230,3249,3270,3289,3310,3330,3350,3370,3391,3409,3430,3450,3470,3490,3510,3531,3550,3569,3590,3610,3630,3650,3669,3689,3710,3730,3751,3770,3790,3811,3829,3849,3870,3890,3910,3931,3950,3971,3990,4010,4030,4049,4069,4090,4110,4130,4149,4170,4189,4211,4231,4250,4270,4290,4309,4330,4350,4369,4389,4411,4431,4451,4470,4490,4509,4531,4549,4571,4589,4609,4631,4650,4670,4690,4710,4730,4750,4771,4790,4811,4831,4851,4871,4889,4910,4929,4949,4970,4991,5010,5029,5049,5069,5090,5109,5129,5150,5169,5191,5209,5230,5250,5270,5289,5309,5330,5350,5370,5390,5411,5430,5449,5470,5491,5510,5530,5549,5569,5589,5609,5629,5650,5670,5689,5709],"xSR":741.5,"ySR":458.25,"xT1":424.9,"yT1":0,"xT2":1058.1,"yT2":0,"toosoon":0,"cond_shown":"equaldotanddens","ratio_trial":750,"smaller_num":"9","larger_num":"12","correct_side":2,"subjID":"HannaSofiaOlayaCorredor9","gender":"1","age":"10","school":"2019"},{"start_time":1551887784870,"click_time":1551887786913,"finger_time":1551887785913,"fix_duration":1275.2498397360487,"trial":19,"RT":1043,"MT":1000,"sideResp":1,"stimulus":"img/900/equaldotsize/R/11_Ratio_900_L_18_R_20.png","xmouse":[825,825,825,825,825,825,825,825,825,825,825,825,825,825,825,825,825,825,825,825,825,825,825,825,825,825,825,825,825,825,825,825,825,825,825,825,825,825,825,825,825,825,825,825,825,824,820,819,816,810,800,792,783,770,753,705,676,646,632,620,610,606,599,586,570,533,519,513,513,513,511,508,507,505,505,504,504,504,504,504,504,504,504,504,504,504,504,504,504,504,504,504,504,504,504,504,504,504,504,504,504,504,502],"ymouse":[507,507,507,507,507,507,507,507,507,507,507,507,507,507,507,507,507,507,507,507,507,507,507,507,507,507,507,507,507,507,507,507,507,507,507,507,507,507,507,507,507,507,507,507,507,507,507,507,502,495,480,470,456,436,409,334,295,256,238,223,209,203,196,185,171,142,129,120,119,117,115,111,110,108,107,106,106,106,106,106,106,106,106,106,106,106,106,106,106,106,106,106,106,106,106,106,106,106,106,106,105,105,98],"timestamp_mouse":[10,30,43,62,84,102,124,144,162,183,203,223,242,264,282,303,324,342,364,382,403,424,443,462,483,504,523,543,563,583,604,622,644,663,683,703,724,743,762,784,803,822,844,864,884,904,924,944,963,984,1003,1024,1043,1063,1083,1103,1122,1143,1163,1184,1203,1222,1243,1263,1283,1303,1323,1343,1363,1384,1403,1423,1443,1464,1483,1504,1522,1542,1564,1584,1603,1624,1644,1663,1684,1702,1723,1744,1763,1784,1803,1823,1843,1863,1884,1903,1923,1943,1962,1983,2003,2023,2043],"xSR":741.5,"ySR":458.25,"xT1":424.9,"yT1":0,"xT2":1058.1,"yT2":0,"toosoon":0,"cond_shown":"equaldotsize","ratio_trial":900,"smaller_num":"18","larger_num":"20","correct_side":2,"subjID":"HannaSofiaOlayaCorredor9","gender":"1","age":"10","school":"2019"},{"start_time":1551887789244,"click_time":1551887790573,"finger_time":1551887790173,"fix_duration":1248.3909473176814,"trial":20,"RT":929,"MT":400,"sideResp":1,"stimulus":"img/900/equaldotanddens/L/1_Ratio_900_L_10_R_9.png","xmouse":[825,825,826,825,825,825,825,825,825,825,825,825,825,825,825,825,825,825,825,825,825,825,825,825,825,825,825,825,825,825,825,825,825,825,825,825,825,825,825,825,825,825,825,824,822,815,801,789,773,745,713,606,552,509,476,446,417,417,417,417,417,417,417,416,418,422,429],"ymouse":[524,524,523,518,518,518,518,518,518,518,518,518,518,518,518,518,518,518,518,518,518,518,518,518,518,518,518,518,518,518,518,518,518,518,518,518,518,518,518,518,518,518,518,514,503,480,432,407,384,352,321,232,185,150,126,105,84,84,84,84,84,84,84,80,79,75,70],"timestamp_mouse":[9,35,50,69,89,108,129,148,170,189,209,230,248,268,289,309,329,349,368,388,410,429,448,470,488,509,529,549,569,589,609,629,650,669,688,709,729,748,769,789,808,829,850,869,890,908,929,948,969,989,1010,1029,1048,1068,1090,1109,1129,1148,1169,1190,1208,1229,1248,1269,1289,1309,1329],"xSR":741.5,"ySR":458.25,"xT1":424.9,"yT1":0,"xT2":1058.1,"yT2":0,"toosoon":0,"cond_shown":"equaldotanddens","ratio_trial":900,"smaller_num":"9","larger_num":"10","correct_side":1,"subjID":"HannaSofiaOlayaCorredor9","gender":"1","age":"10","school":"2019"},{"start_time":1551887791623,"click_time":1551887794093,"finger_time":1551887793833,"fix_duration":250,"trial":21,"RT":2210,"MT":260,"sideResp":1,"stimulus":"img/750/randomdotsizeEA/L/8_Ratio_750_L_4_R_3.png","xmouse":[794,794,794,794,794,794,794,794,794,794,794,794,794,794,794,794,794,794,794,794,794,794,794,794,794,794,794,794,794,794,794,794,794,794,794,794,794,794,794,794,794,794,794,794,794,794,794,794,794,794,794,794,794,794,794,794,794,794,794,794,794,794,794,794,794,794,794,794,794,794,794,794,794,794,794,794,794,794,794,794,794,794,794,794,794,794,794,794,794,794,794,794,794,794,794,794,794,794,794,794,794,794,794,794,794,794,794,794,794,789,768,742,647,588,541,510,497,488,485,479,473,466,460,463],"ymouse":[492,492,492,492,492,492,492,492,492,492,492,492,492,492,492,492,492,492,492,492,492,492,492,492,492,492,492,492,492,492,492,492,492,492,492,492,492,492,492,492,492,492,492,492,492,492,492,492,492,492,492,492,492,492,492,492,492,492,492,492,492,492,492,492,492,492,492,492,492,492,492,492,492,492,492,492,492,492,492,492,492,492,492,492,492,492,492,492,492,492,492,492,492,492,492,492,492,492,492,492,492,492,492,492,492,492,492,492,491,483,457,430,333,277,231,198,181,165,160,154,146,136,109,94],"timestamp_mouse":[15,33,51,71,91,111,130,149,171,190,210,230,249,270,291,310,329,351,369,390,411,429,450,469,491,510,530,551,569,591,610,631,651,670,691,711,729,750,770,791,809,829,850,870,889,909,930,950,970,989,1010,1029,1050,1069,1089,1111,1129,1150,1169,1191,1209,1229,1249,1270,1290,1310,1330,1349,1369,1391,1410,1429,1449,1470,1490,1510,1530,1550,1571,1591,1609,1631,1650,1670,1690,1710,1730,1750,1770,1791,1809,1829,1849,1871,1890,1911,1930,1951,1969,1989,2011,2030,2051,2070,2090,2111,2130,2150,2170,2189,2210,2231,2250,2269,2290,2311,2330,2350,2370,2391,2410,2430,2450,2469],"xSR":741.5,"ySR":458.25,"xT1":424.9,"yT1":0,"xT2":1058.1,"yT2":0,"toosoon":0,"cond_shown":"randomdotsizeEA","ratio_trial":750,"smaller_num":"3","larger_num":"4","correct_side":1,"subjID":"HannaSofiaOlayaCorredor9","gender":"1","age":"10","school":"2019"},{"start_time":1551887795106,"click_time":1551887796474,"finger_time":1551887796113,"fix_duration":250,"trial":22,"RT":1007,"MT":361,"sideResp":1,"stimulus":"img/500/equaldotanddens/L/10_Ratio_500_L_4_R_2.png","xmouse":[799,799,799,799,799,799,799,799,799,799,799,799,799,799,799,799,799,799,799,799,799,799,799,799,799,799,799,799,799,799,799,799,799,799,799,799,799,799,799,799,799,799,799,799,799,799,799,797,795,784,776,763,750,698,642,620,572,552,528,524,520,518,515,511,506,496,493,492,495],"ymouse":[493,493,493,493,493,493,493,493,493,493,493,493,493,493,493,493,493,493,493,493,493,493,493,493,493,493,493,493,493,493,493,493,493,493,493,493,493,493,493,493,493,493,493,493,493,493,493,493,489,471,457,438,419,359,309,295,266,249,226,221,215,210,206,194,183,160,142,126,99],"timestamp_mouse":[7,27,47,67,87,107,127,148,166,186,206,227,246,267,287,306,326,347,366,388,407,427,446,468,487,507,527,547,568,586,608,626,648,666,688,706,726,747,767,787,806,827,847,866,888,907,928,947,966,987,1007,1028,1047,1067,1086,1106,1126,1146,1166,1186,1207,1227,1247,1267,1287,1307,1327,1346,1368],"xSR":741.5,"ySR":458.25,"xT1":424.9,"yT1":0,"xT2":1058.1,"yT2":0,"toosoon":0,"cond_shown":"equaldotanddens","ratio_trial":500,"smaller_num":"2","larger_num":"4","correct_side":1,"subjID":"HannaSofiaOlayaCorredor9","gender":"1","age":"10","school":"2019"},{"start_time":1551887798032,"click_time":1551887799574,"finger_time":1551887798894,"fix_duration":718.2459202151316,"trial":23,"RT":862,"MT":680,"sideResp":2,"stimulus":"img/900/equaldotanddens/R/9_Ratio_900_L_18_R_20.png","xmouse":[760,760,760,760,760,760,760,760,760,760,760,760,760,760,760,760,760,760,760,760,760,760,760,760,760,760,760,760,760,760,760,760,760,760,760,760,760,760,760,761,766,781,826,865,924,994,1060,1148,1157,1162,1162,1162,1165,1171,1179,1184,1187,1188,1188,1188,1188,1188,1188,1188,1188,1188,1187,1182,1175,1164,1159,1159,1159,1159,1159,1159,1159,1156],"ymouse":[521,521,521,521,521,521,521,521,521,521,521,521,521,521,521,521,521,521,521,521,521,521,521,521,521,521,521,521,521,521,521,521,521,521,521,521,521,521,521,521,521,515,493,470,436,394,342,251,224,194,182,172,149,133,114,96,81,65,65,65,65,65,65,65,65,65,64,64,67,72,74,74,74,74,74,74,74,74],"timestamp_mouse":[8,21,41,62,80,100,122,140,162,181,200,221,241,261,281,302,320,342,362,381,401,421,441,460,482,500,520,541,562,580,601,620,642,662,680,701,722,741,762,782,800,821,841,862,881,902,921,941,960,980,1001,1022,1041,1060,1081,1102,1122,1140,1161,1181,1201,1221,1241,1261,1282,1301,1322,1342,1361,1381,1401,1422,1442,1461,1480,1500,1521,1542],"xSR":741.5,"ySR":458.25,"xT1":424.9,"yT1":0,"xT2":1058.1,"yT2":0,"toosoon":0,"cond_shown":"equaldotanddens","ratio_trial":900,"smaller_num":"18","larger_num":"20","correct_side":2,"subjID":"HannaSofiaOlayaCorredor9","gender":"1","age":"10","school":"2019"},{"start_time":1551887800806,"click_time":1551887801974,"finger_time":1551887801713,"fix_duration":332.7622332171889,"trial":24,"RT":907,"MT":261,"sideResp":2,"stimulus":"img/750/randomdotsizeEA/R/3_Ratio_750_L_15_R_20.png","xmouse":[774,774,774,774,774,774,774,774,774,774,774,774,774,774,774,774,774,774,774,774,774,774,774,774,774,774,774,774,774,774,774,774,774,774,774,774,774,774,774,774,774,774,775,804,822,851,881,911,976,1020,1045,1060,1067,1067,1067,1067,1067,1068,1069],"ymouse":[515,515,515,515,515,515,515,515,515,515,515,515,515,515,515,515,515,515,515,515,515,515,515,515,515,515,515,515,515,515,515,515,515,515,515,515,515,515,515,515,515,515,514,484,464,428,382,334,241,173,137,117,104,101,101,101,101,100,98],"timestamp_mouse":[10,27,47,67,88,108,126,147,167,187,208,227,246,267,286,306,327,346,367,386,408,427,448,468,487,507,527,548,567,587,607,628,647,667,686,707,726,747,767,787,806,826,846,867,887,907,927,948,967,987,1006,1028,1047,1066,1088,1107,1128,1147,1168],"xSR":741.5,"ySR":458.25,"xT1":424.9,"yT1":0,"xT2":1058.1,"yT2":0,"toosoon":0,"cond_shown":"randomdotsizeEA","ratio_trial":750,"smaller_num":"15","larger_num":"20","correct_side":2,"subjID":"HannaSofiaOlayaCorredor9","gender":"1","age":"10","school":"2019"},{"start_time":1551887803185,"click_time":1551887804413,"finger_time":1551887803893,"fix_duration":250,"trial":25,"RT":708,"MT":520,"sideResp":1,"stimulus":"img/500/equaldotanddens/L/7_Ratio_500_L_10_R_5.png","xmouse":[796,796,796,796,796,796,796,796,796,796,796,796,796,796,796,796,796,796,796,796,796,796,796,796,796,796,796,796,796,796,796,796,792,787,758,736,713,675,636,543,505,496,485,485,486,487,488,488,489,494,499,502,506,507,507,507,507,507,507,503,498,497],"ymouse":[531,531,531,531,531,531,531,531,531,531,531,531,531,531,531,531,531,531,531,531,531,531,531,531,531,531,531,531,531,531,531,531,531,528,506,480,442,395,356,289,261,253,237,232,218,216,212,209,204,188,175,168,160,154,147,146,143,140,136,117,102,99],"timestamp_mouse":[10,32,48,69,88,109,127,147,169,188,208,228,248,267,288,308,329,347,368,389,408,427,447,467,488,507,527,547,568,589,607,629,647,667,688,708,728,747,768,788,808,828,847,868,888,909,927,948,968,989,1008,1028,1048,1069,1088,1109,1128,1148,1169,1188,1208,1228],"xSR":741.5,"ySR":458.25,"xT1":424.9,"yT1":0,"xT2":1058.1,"yT2":0,"toosoon":0,"cond_shown":"equaldotanddens","ratio_trial":500,"smaller_num":"5","larger_num":"10","correct_side":1,"subjID":"HannaSofiaOlayaCorredor9","gender":"1","age":"10","school":"2019"},{"start_time":1551887806012,"click_time":1551887807413,"finger_time":1551887806813,"fix_duration":716.1412892539539,"trial":26,"RT":801,"MT":600,"sideResp":1,"stimulus":"img/500/randomdotsizeEA/L/11_Ratio_500_L_12_R_6.png","xmouse":[814,814,814,814,814,814,814,814,814,814,814,814,814,814,814,814,814,814,814,814,814,814,814,814,814,814,814,814,814,814,814,814,814,814,814,814,813,812,800,790,764,744,732,726,722,718,709,699,682,674,673,671,670,661,646,622,599,583,574,572,568,564,559,555,550,550,549,548,542,533,511],"ymouse":[528,528,528,528,528,528,528,528,528,528,528,528,528,528,528,528,528,528,528,528,528,528,528,528,528,528,528,528,528,528,528,528,528,528,528,528,525,522,503,483,428,384,355,319,304,289,270,252,218,203,198,193,192,188,179,170,159,153,148,146,142,138,132,127,119,117,116,112,100,88,65],"timestamp_mouse":[9,20,40,61,80,101,120,142,161,181,201,220,242,262,281,301,322,342,360,381,401,421,442,460,482,501,522,541,561,581,600,620,641,661,680,702,720,741,761,781,801,822,841,861,881,901,921,941,961,980,1001,1021,1040,1061,1080,1100,1122,1141,1161,1180,1200,1223,1241,1261,1280,1301,1321,1341,1360,1382,1401],"xSR":741.5,"ySR":458.25,"xT1":424.9,"yT1":0,"xT2":1058.1,"yT2":0,"toosoon":0,"cond_shown":"randomdotsizeEA","ratio_trial":500,"smaller_num":"6","larger_num":"12","correct_side":1,"subjID":"HannaSofiaOlayaCorredor9","gender":"1","age":"10","school":"2019"},{"start_time":1551887809934,"click_time":1551887811833,"finger_time":1551887810873,"fix_duration":1179.8881302341883,"trial":27,"RT":939,"MT":960,"sideResp":2,"stimulus":"img/500/randomdotsizeEA/R/6_Ratio_500_L_9_R_18.png","xmouse":[793,793,793,793,793,793,793,793,793,793,793,793,793,793,793,793,793,793,793,793,793,793,793,793,793,793,793,793,793,793,793,793,793,793,793,793,793,793,793,793,793,793,793,793,795,804,850,873,889,901,904,906,906,906,906,906,906,906,906,906,906,906,906,906,906,906,906,906,906,906,906,906,906,906,906,906,906,906,906,906,906,906,906,907,914,923,953,977,1001,1020,1034,1056,1066,1085,1098],"ymouse":[520,520,520,520,520,520,520,520,520,520,520,520,520,520,520,520,520,520,520,520,520,520,520,520,520,520,520,520,520,520,520,520,520,520,520,520,520,520,520,520,520,520,520,520,520,507,464,448,435,425,420,416,416,416,416,416,416,416,416,416,416,416,416,416,416,416,416,416,416,416,416,416,416,416,416,416,416,416,416,416,416,416,416,409,396,380,327,284,244,210,186,145,126,101,89],"timestamp_mouse":[19,39,59,79,99,118,139,160,178,200,220,239,259,280,300,319,339,359,378,400,420,439,459,480,500,519,540,559,579,599,620,640,659,678,700,718,738,758,778,800,819,838,858,880,898,918,939,960,978,1000,1019,1039,1059,1079,1099,1118,1139,1159,1179,1198,1218,1239,1258,1279,1300,1320,1339,1359,1379,1399,1418,1440,1458,1479,1499,1520,1539,1558,1579,1600,1620,1639,1659,1679,1699,1719,1739,1759,1779,1799,1818,1840,1858,1879,1899],"xSR":741.5,"ySR":458.25,"xT1":424.9,"yT1":0,"xT2":1058.1,"yT2":0,"toosoon":0,"cond_shown":"randomdotsizeEA","ratio_trial":500,"smaller_num":"9","larger_num":"18","correct_side":2,"subjID":"HannaSofiaOlayaCorredor9","gender":"1","age":"10","school":"2019"},{"start_time":1551887813005,"click_time":1551887814433,"finger_time":1551887813653,"fix_duration":250,"trial":28,"RT":648,"MT":780,"sideResp":1,"stimulus":"img/250/equaldotsize/L/15_Ratio_250_L_12_R_3.png","xmouse":[794,794,794,794,794,794,794,794,794,794,794,794,794,794,794,794,794,794,794,794,794,794,794,794,794,794,794,794,793,785,771,759,749,725,709,689,673,661,645,637,629,623,619,609,603,600,597,595,594,594,594,593,589,576,565,553,539,531,529,529,529,529,529,529,529,529,529,529,529,529,526,515],"ymouse":[499,499,499,499,499,499,499,499,499,499,499,499,499,499,499,499,499,499,499,499,499,499,499,499,499,499,499,499,500,495,482,469,458,425,397,365,342,324,290,270,251,225,209,185,173,165,157,151,149,149,149,149,145,133,124,115,107,101,99,99,99,99,99,99,99,99,99,99,99,99,96,89],"timestamp_mouse":[9,28,49,68,88,107,129,149,167,189,209,228,248,268,289,308,329,347,368,387,407,428,449,467,489,508,527,548,567,587,607,629,648,668,687,707,729,749,768,787,808,827,847,867,887,907,927,947,967,988,1008,1027,1049,1067,1088,1108,1128,1148,1169,1188,1207,1227,1247,1268,1289,1308,1329,1348,1368,1388,1407,1428],"xSR":741.5,"ySR":458.25,"xT1":424.9,"yT1":0,"xT2":1058.1,"yT2":0,"toosoon":0,"cond_shown":"equaldotsize","ratio_trial":250,"smaller_num":"3","larger_num":"12","correct_side":1,"subjID":"HannaSofiaOlayaCorredor9","gender":"1","age":"10","school":"2019"},{"start_time":1551887815703,"click_time":1551887816793,"finger_time":1551887816333,"fix_duration":448.2860915592125,"trial":29,"RT":630,"MT":460,"sideResp":1,"stimulus":"img/500/equaldotanddens/L/4_Ratio_500_L_18_R_9.png","xmouse":[758,758,758,758,758,758,758,758,758,758,758,758,758,758,758,758,758,758,758,758,758,758,758,758,758,758,758,758,759,758,751,745,735,706,684,642,622,612,600,597,595,593,591,580,570,566,562,562,562,562,561,560,552,530,522],"ymouse":[511,511,511,511,511,511,511,511,511,511,511,511,511,511,511,511,511,511,511,511,511,511,511,511,511,511,511,511,508,489,473,457,436,382,347,279,245,222,182,167,158,152,145,131,121,118,115,115,115,115,115,114,109,100,94],"timestamp_mouse":[9,33,49,70,90,109,129,150,171,190,210,229,256,270,289,310,330,350,369,389,410,430,449,469,490,510,529,550,569,590,609,630,650,670,689,709,730,750,770,789,810,830,851,870,890,910,929,949,971,990,1009,1030,1050,1070,1089],"xSR":741.5,"ySR":458.25,"xT1":424.9,"yT1":0,"xT2":1058.1,"yT2":0,"toosoon":0,"cond_shown":"equaldotanddens","ratio_trial":500,"smaller_num":"9","larger_num":"18","correct_side":1,"subjID":"HannaSofiaOlayaCorredor9","gender":"1","age":"10","school":"2019"},{"start_time":1551887818653,"click_time":1551887819892,"finger_time":1551887819593,"fix_duration":739.6263220159764,"trial":30,"RT":940,"MT":299,"sideResp":1,"stimulus":"img/500/randomdotsizeEA/L/5_Ratio_500_L_4_R_2.png","xmouse":[788,788,788,788,788,788,788,788,788,788,788,788,788,788,788,788,788,788,788,788,788,788,788,788,788,788,788,788,788,787,784,781,777,775,775,775,775,775,775,775,775,775,775,774,773,766,742,726,708,685,674,658,644,631,603,576,529,515,506,502,496,489,487],"ymouse":[545,545,545,545,545,545,545,545,545,545,545,545,545,545,545,545,545,545,545,545,545,545,545,545,545,545,545,545,545,545,541,538,529,527,526,526,526,526,526,526,526,526,526,525,523,512,483,461,436,390,369,317,287,257,220,188,145,133,123,117,110,100,96],"timestamp_mouse":[1,20,39,60,79,101,119,141,161,180,200,219,240,260,280,300,319,340,360,379,401,421,440,461,479,500,520,540,559,580,599,620,640,661,681,701,719,741,759,780,799,821,841,859,880,901,920,940,959,979,1000,1020,1040,1059,1080,1100,1120,1140,1159,1179,1200,1220,1239],"xSR":741.5,"ySR":458.25,"xT1":424.9,"yT1":0,"xT2":1058.1,"yT2":0,"toosoon":0,"cond_shown":"randomdotsizeEA","ratio_trial":500,"smaller_num":"2","larger_num":"4","correct_side":1,"subjID":"HannaSofiaOlayaCorredor9","gender":"1","age":"10","school":"2019"},{"start_time":1551887821103,"click_time":1551887822513,"finger_time":1551887821814,"fix_duration":250,"trial":31,"RT":711,"MT":699,"sideResp":2,"stimulus":"img/250/equaldotsize/R/13_Ratio_250_L_2_R_8.png","xmouse":[781,781,781,781,781,781,781,781,781,781,781,781,781,781,781,781,781,781,781,781,781,781,781,781,781,781,781,781,781,781,781,781,782,784,810,834,850,866,896,913,934,952,973,1001,1009,1011,1011,1012,1015,1016,1019,1021,1023,1026,1029,1035,1049,1059,1078,1083,1085,1086,1086,1087,1088,1088,1088,1088,1093,1095,1097],"ymouse":[522,522,522,522,522,522,522,522,522,522,522,522,522,522,522,522,522,522,522,522,522,522,522,522,522,522,522,522,522,522,522,522,523,521,476,436,414,395,368,354,336,321,302,272,255,248,243,239,228,224,220,216,211,204,199,190,172,160,142,138,136,135,133,128,125,125,123,121,107,102,98],"timestamp_mouse":[11,30,51,70,89,109,130,149,171,189,209,229,250,270,289,311,330,350,370,390,410,430,451,469,491,510,530,551,569,589,609,631,650,669,690,711,730,751,770,789,810,829,849,870,890,910,930,950,970,989,1010,1031,1050,1070,1089,1111,1129,1150,1169,1190,1210,1229,1249,1270,1289,1310,1329,1349,1369,1389,1410],"xSR":741.5,"ySR":458.25,"xT1":424.9,"yT1":0,"xT2":1058.1,"yT2":0,"toosoon":0,"cond_shown":"equaldotsize","ratio_trial":250,"smaller_num":"2","larger_num":"8","correct_side":2,"subjID":"HannaSofiaOlayaCorredor9","gender":"1","age":"10","school":"2019"},{"start_time":1551887824541,"click_time":1551887825473,"finger_time":1551887825394,"fix_duration":1167.2695817340523,"trial":32,"RT":853,"MT":79,"sideResp":2,"stimulus":"img/250/randomdotsizeEA/R/11_Ratio_250_L_3_R_12.png","xmouse":[755,755,755,755,755,755,755,755,755,755,755,755,755,755,755,755,755,755,755,755,755,755,755,755,755,755,755,755,755,755,755,755,755,755,755,755,755,755,755,756,761,788,839,890,956,1018,1121],"ymouse":[504,504,504,504,504,504,504,504,504,504,504,504,504,504,504,504,504,504,504,504,504,504,504,504,504,504,504,504,504,504,504,504,504,504,504,504,504,504,504,502,496,460,397,342,279,201,45],"timestamp_mouse":[12,41,51,72,93,111,133,151,173,191,211,233,251,271,293,312,332,353,372,392,412,432,453,473,491,511,533,551,573,591,611,632,652,671,691,713,731,753,771,792,811,832,853,872,892,912,932],"xSR":741.5,"ySR":458.25,"xT1":424.9,"yT1":0,"xT2":1058.1,"yT2":0,"toosoon":0,"cond_shown":"randomdotsizeEA","ratio_trial":250,"smaller_num":"3","larger_num":"12","correct_side":2,"subjID":"HannaSofiaOlayaCorredor9","gender":"1","age":"10","school":"2019"},{"start_time":1551887828181,"click_time":1551887830392,"finger_time":1551887829833,"fix_duration":507.18060892946784,"trial":33,"RT":1652,"MT":559,"sideResp":1,"stimulus":"img/900/equaldotsize/L/2_Ratio_900_L_20_R_18.png","xmouse":[818,818,818,818,818,818,818,818,818,818,818,818,818,818,818,818,818,818,818,818,818,818,818,818,818,818,818,818,818,818,818,818,818,818,818,818,818,818,818,818,818,818,818,818,818,818,818,818,818,818,818,818,818,818,818,818,818,818,818,818,818,818,818,818,818,818,818,818,818,818,818,818,818,818,818,818,818,818,816,811,805,800,783,773,751,740,725,712,696,680,644,611,583,562,543,542,541,541,541,541,541,541,541,541,541,541,541,540,537,527,522],"ymouse":[497,497,497,497,497,497,497,497,497,497,497,497,497,497,497,497,497,497,497,497,497,497,497,497,497,497,497,497,497,497,497,497,497,497,497,497,497,497,497,497,497,497,497,497,497,497,497,497,497,497,497,497,497,497,497,497,497,497,497,497,497,497,497,497,497,497,497,497,497,497,497,497,497,497,497,497,497,497,496,487,479,467,449,437,412,395,377,350,312,265,172,109,72,50,26,24,23,23,22,22,22,22,22,22,22,22,22,21,23,34,40],"timestamp_mouse":[13,36,51,72,92,111,131,153,173,191,213,232,251,271,293,312,333,352,372,392,413,432,453,471,491,512,531,553,572,593,612,632,653,671,691,713,732,751,772,792,812,833,852,872,891,911,933,951,972,992,1012,1033,1051,1072,1092,1111,1132,1152,1172,1192,1212,1231,1251,1272,1291,1312,1333,1353,1372,1393,1413,1432,1453,1471,1491,1513,1531,1552,1572,1591,1612,1632,1652,1672,1692,1711,1731,1753,1772,1791,1813,1832,1851,1872,1892,1912,1931,1953,1972,1992,2012,2031,2052,2072,2093,2113,2132,2151,2171,2191,2211],"xSR":741.5,"ySR":458.25,"xT1":424.9,"yT1":0,"xT2":1058.1,"yT2":0,"toosoon":0,"cond_shown":"equaldotsize","ratio_trial":900,"smaller_num":"18","larger_num":"20","correct_side":1,"subjID":"HannaSofiaOlayaCorredor9","gender":"1","age":"10","school":"2019"},{"start_time":1551887833776,"click_time":1551887836334,"finger_time":1551887835372,"fix_duration":662.6940803814846,"trial":34,"RT":1596,"MT":962,"sideResp":2,"stimulus":"img/500/equaldotsize/R/3_Ratio_500_L_10_R_20.png","xmouse":[792,792,792,792,792,792,792,792,792,792,792,792,792,792,792,792,792,792,792,792,792,792,792,792,792,792,792,792,792,792,792,792,792,792,792,792,792,792,792,792,792,792,792,792,792,792,792,792,792,792,792,792,792,792,792,792,792,792,792,792,792,792,792,792,792,792,792,792,792,792,792,792,792,792,792,792,792,794,808,924,963,995,1006,1011,1022,1024,1025,1029,1036,1049,1054,1060,1063,1063,1063,1063,1063,1063,1063,1063,1063,1063,1063,1063,1063,1078,1098,1115,1122,1126,1126,1128,1129,1131,1134,1134,1134,1134,1134,1134,1134,1134,1133,1132,1121,1115,1112,1111],"ymouse":[531,531,531,531,531,531,531,531,531,531,531,531,531,531,531,531,531,531,531,531,531,531,531,531,531,531,531,531,531,531,531,531,531,531,531,531,531,531,531,531,531,531,531,531,531,531,531,531,531,531,531,531,531,531,531,531,531,531,531,531,531,531,531,531,531,531,531,531,531,531,531,531,531,531,531,531,531,531,517,446,439,434,429,424,409,403,397,388,369,335,315,288,269,256,239,238,238,238,238,234,231,226,223,223,223,208,203,196,192,186,182,174,165,152,134,129,127,126,126,126,126,125,124,123,114,108,103,98],"timestamp_mouse":[18,38,57,77,96,118,136,158,177,196,218,238,257,278,296,317,336,356,376,397,418,436,456,477,496,518,536,556,577,596,616,636,656,676,697,716,737,757,777,796,817,837,858,876,897,917,936,957,978,996,1016,1038,1057,1076,1097,1118,1136,1157,1176,1197,1217,1236,1257,1277,1296,1318,1337,1357,1376,1398,1418,1436,1456,1477,1496,1516,1538,1557,1576,1596,1616,1636,1658,1677,1698,1716,1736,1758,1777,1797,1816,1836,1856,1877,1897,1917,1937,1957,1976,1997,2017,2037,2058,2077,2096,2116,2136,2158,2177,2197,2216,2237,2257,2277,2298,2317,2336,2356,2377,2397,2418,2437,2457,2478,2497,2516,2536,2558],"xSR":741.5,"ySR":458.25,"xT1":424.9,"yT1":0,"xT2":1058.1,"yT2":0,"toosoon":0,"cond_shown":"equaldotsize","ratio_trial":500,"smaller_num":"10","larger_num":"20","correct_side":2,"subjID":"HannaSofiaOlayaCorredor9","gender":"1","age":"10","school":"2019"},{"start_time":1551887838770,"click_time":1551887842233,"finger_time":1551887841353,"fix_duration":1234.8041699048106,"trial":35,"RT":2583,"MT":880,"sideResp":2,"stimulus":"img/900/equaldotanddens/R/5_Ratio_900_L_9_R_10.png","xmouse":[764,764,764,764,764,764,764,764,764,764,764,764,764,764,764,764,764,764,764,764,764,764,764,764,764,764,764,764,764,764,764,764,764,764,764,764,764,764,764,764,764,764,764,764,764,764,764,764,764,764,764,764,764,764,764,764,764,764,764,764,764,764,764,764,764,764,764,764,764,764,764,764,764,764,764,764,764,764,764,764,764,764,764,764,764,764,764,764,764,764,764,764,764,764,764,764,764,764,764,764,764,764,764,764,764,764,764,764,764,764,764,764,764,764,764,764,764,764,764,764,765,768,770,772,774,781,789,801,818,838,878,901,927,943,956,975,979,982,985,987,992,996,999,1005,1008,1011,1021,1029,1040,1050,1075,1082,1084,1084,1084,1084,1084,1084,1084,1084,1086,1086,1086,1086,1086,1086,1086,1086,1086,1086,1086,1087,1087,1087],"ymouse":[551,551,551,551,551,551,551,551,551,551,551,551,551,551,551,551,551,551,551,551,551,551,551,551,551,551,551,551,551,551,551,551,551,551,551,551,551,551,551,551,551,551,551,551,551,551,551,551,551,551,551,551,551,551,551,551,551,551,551,551,551,551,551,551,551,551,551,551,551,551,551,551,551,551,551,551,551,551,551,551,551,551,551,551,551,551,551,551,551,551,551,551,551,551,551,551,551,551,551,551,551,551,551,551,551,551,551,551,551,551,551,551,551,551,551,551,551,551,551,551,549,545,542,538,536,525,513,496,476,453,409,380,349,330,313,285,274,264,252,238,214,201,190,176,169,164,151,143,135,129,116,113,111,111,111,111,111,111,111,111,110,109,109,109,109,109,109,109,109,109,106,103,101,98],"timestamp_mouse":[10,29,44,62,84,102,124,144,162,184,204,223,244,263,284,303,323,344,363,382,404,424,443,464,482,504,524,543,564,584,603,624,644,662,683,702,723,744,762,784,804,824,843,863,883,903,922,944,962,983,1004,1024,1044,1062,1082,1103,1124,1143,1162,1183,1202,1224,1244,1263,1282,1303,1323,1344,1364,1383,1402,1423,1443,1463,1482,1504,1523,1542,1563,1583,1603,1622,1643,1663,1682,1704,1722,1743,1764,1782,1804,1823,1843,1863,1883,1902,1923,1943,1962,1982,2002,2023,2043,2062,2082,2102,2124,2143,2163,2182,2204,2222,2242,2264,2284,2302,2322,2344,2363,2382,2404,2423,2442,2463,2484,2502,2523,2543,2562,2583,2603,2622,2642,2662,2683,2703,2722,2742,2763,2783,2803,2822,2843,2863,2884,2902,2922,2942,2963,2983,3003,3022,3042,3064,3084,3103,3124,3143,3164,3183,3203,3222,3243,3262,3283,3303,3323,3342,3363,3382,3403,3422,3443,3463],"xSR":741.5,"ySR":458.25,"xT1":424.9,"yT1":0,"xT2":1058.1,"yT2":0,"toosoon":0,"cond_shown":"equaldotanddens","ratio_trial":900,"smaller_num":"9","larger_num":"10","correct_side":2,"subjID":"HannaSofiaOlayaCorredor9","gender":"1","age":"10","school":"2019"},{"start_time":1551887844477,"click_time":1551887845913,"finger_time":1551887845813,"fix_duration":1121.1333477066405,"trial":36,"RT":1336,"MT":100,"sideResp":1,"stimulus":"img/750/randomdotsizeEA/L/1_Ratio_750_L_20_R_15.png","xmouse":[779,779,779,779,779,779,779,779,779,779,779,779,779,779,779,779,779,779,779,779,779,779,779,779,779,779,779,779,779,779,779,779,779,779,779,779,779,779,779,779,779,779,779,779,779,779,779,779,779,779,779,779,779,779,779,779,779,779,779,779,779,779,779,779,774,750,719,682,631,525,490,463],"ymouse":[517,517,517,517,517,517,517,517,517,517,517,517,517,517,517,517,517,517,517,517,517,517,517,517,517,517,517,517,517,517,517,517,517,517,517,517,517,517,517,517,517,517,517,517,517,517,517,517,517,517,517,517,517,517,517,517,517,517,517,517,517,517,517,517,517,487,445,400,339,201,140,92],"timestamp_mouse":[27,36,56,76,96,115,135,156,177,196,216,237,255,275,297,317,336,357,375,395,416,436,455,477,495,515,536,555,576,596,616,636,656,676,695,715,736,757,776,795,815,836,857,875,896,916,936,957,975,997,1016,1036,1056,1076,1096,1116,1137,1156,1176,1196,1216,1236,1257,1275,1296,1316,1336,1356,1377,1397,1416,1436],"xSR":741.5,"ySR":458.25,"xT1":424.9,"yT1":0,"xT2":1058.1,"yT2":0,"toosoon":0,"cond_shown":"randomdotsizeEA","ratio_trial":750,"smaller_num":"15","larger_num":"20","correct_side":1,"subjID":"HannaSofiaOlayaCorredor9","gender":"1","age":"10","school":"2019"},{"start_time":1551887847303,"click_time":1551887848594,"finger_time":1551887847993,"fix_duration":250,"trial":37,"RT":690,"MT":601,"sideResp":2,"stimulus":"img/500/equaldotanddens/R/15_Ratio_500_L_1_R_2.png","xmouse":[815,815,815,815,815,815,815,815,815,815,815,815,815,815,815,815,815,815,815,815,815,815,815,815,815,815,815,815,815,815,815,816,822,837,845,865,881,898,952,983,1012,1039,1060,1093,1099,1100,1100,1101,1106,1110,1113,1115,1115,1115,1115,1115,1115,1115,1115,1115,1115,1116,1119,1124,1126],"ymouse":[519,519,519,519,519,519,519,519,519,519,519,519,519,519,519,519,519,519,519,519,519,519,519,519,519,519,519,519,519,519,518,516,505,482,466,438,416,393,331,296,265,242,223,190,181,175,169,162,139,130,123,118,116,116,116,116,116,116,116,116,116,113,108,100,97],"timestamp_mouse":[10,30,50,70,90,109,129,149,170,191,211,229,250,271,290,309,330,350,371,391,411,429,450,470,489,510,530,550,570,591,610,630,649,670,690,709,730,749,770,790,809,829,849,870,889,911,930,951,970,989,1010,1030,1051,1070,1090,1109,1130,1149,1170,1190,1210,1230,1249,1270,1291],"xSR":741.5,"ySR":458.25,"xT1":424.9,"yT1":0,"xT2":1058.1,"yT2":0,"toosoon":0,"cond_shown":"equaldotanddens","ratio_trial":500,"smaller_num":"1","larger_num":"2","correct_side":2,"subjID":"HannaSofiaOlayaCorredor9","gender":"1","age":"10","school":"2019"},{"start_time":1551887849814,"click_time":1551887851153,"finger_time":1551887850573,"fix_duration":258.22423220049006,"trial":38,"RT":759,"MT":580,"sideResp":2,"stimulus":"img/500/equaldotsize/R/14_Ratio_500_L_5_R_10.png","xmouse":[793,793,793,793,793,793,793,793,793,793,793,793,793,793,793,793,793,793,793,793,793,793,793,793,793,793,793,793,793,793,793,793,793,793,802,810,826,880,913,948,960,965,969,971,973,977,981,990,996,1005,1010,1012,1015,1027,1034,1042,1050,1055,1055,1055,1055,1055,1059,1063,1068,1073,1078],"ymouse":[517,517,517,517,517,517,517,517,517,517,517,517,517,517,517,517,517,517,517,517,517,517,517,517,517,517,517,517,517,517,517,517,517,517,506,501,489,449,425,394,380,369,352,345,337,328,315,274,252,221,204,192,182,164,153,143,135,128,128,128,128,128,119,114,108,102,98],"timestamp_mouse":[19,40,59,78,99,119,139,159,180,198,218,239,259,278,298,319,339,359,379,398,420,439,459,478,499,520,538,559,579,598,619,639,659,680,699,720,740,759,779,799,819,839,859,878,898,919,939,959,978,999,1019,1039,1059,1080,1098,1118,1138,1159,1178,1199,1220,1239,1259,1278,1298,1318,1339],"xSR":741.5,"ySR":458.25,"xT1":424.9,"yT1":0,"xT2":1058.1,"yT2":0,"toosoon":0,"cond_shown":"equaldotsize","ratio_trial":500,"smaller_num":"5","larger_num":"10","correct_side":2,"subjID":"HannaSofiaOlayaCorredor9","gender":"1","age":"10","school":"2019"},{"start_time":1551887856661,"click_time":1551887858593,"finger_time":1551887857513,"fix_duration":827.0134856269756,"trial":39,"RT":852,"MT":1080,"sideResp":2,"stimulus":"img/900/randomdotsizeEA/R/12_Ratio_900_L_18_R_20.png","xmouse":[763,763,763,763,763,763,763,763,763,763,763,763,763,763,763,763,763,763,763,763,763,763,763,763,763,763,763,763,763,763,763,763,763,763,763,763,763,763,763,763,789,818,847,874,901,932,948,966,981,996,1018,1034,1054,1068,1077,1086,1090,1096,1100,1104,1110,1112,1113,1113,1113,1113,1113,1113,1114,1114,1114,1114,1114,1114,1115,1116,1116,1117,1119,1122,1126,1127,1127,1127,1127,1127,1127,1127,1127,1127,1127,1127,1127,1127,1127,1127,1129],"ymouse":[522,522,522,522,522,522,522,522,522,522,522,522,522,522,522,522,522,522,522,522,522,522,522,522,522,522,522,522,522,522,522,522,522,522,522,522,522,522,522,522,498,476,458,435,412,375,356,336,324,313,292,270,242,224,214,196,186,175,168,164,156,154,152,149,146,138,134,131,129,129,128,126,125,124,123,121,121,116,112,108,103,102,102,102,102,102,102,102,102,102,102,102,102,102,102,101,99],"timestamp_mouse":[12,31,51,71,92,112,131,153,171,191,212,232,252,271,291,311,332,351,372,393,411,432,452,471,493,511,532,551,573,592,611,633,652,672,691,711,733,753,772,791,811,831,852,873,891,911,931,951,972,991,1012,1031,1053,1072,1091,1111,1131,1151,1172,1192,1212,1231,1252,1272,1291,1312,1331,1351,1371,1392,1413,1432,1452,1471,1491,1512,1533,1552,1571,1591,1611,1632,1652,1672,1692,1712,1733,1752,1773,1791,1812,1833,1852,1872,1891,1911,1931],"xSR":741.5,"ySR":458.25,"xT1":424.9,"yT1":0,"xT2":1058.1,"yT2":0,"toosoon":0,"cond_shown":"randomdotsizeEA","ratio_trial":900,"smaller_num":"18","larger_num":"20","correct_side":2,"subjID":"HannaSofiaOlayaCorredor9","gender":"1","age":"10","school":"2019"},{"start_time":1551887862007,"click_time":1551887863493,"finger_time":1551887862952,"fix_duration":912.1249212375731,"trial":40,"RT":945,"MT":541,"sideResp":1,"stimulus":"img/500/equaldotanddens/L/5_Ratio_500_L_4_R_2.png","xmouse":[810,810,810,810,810,810,810,810,810,810,810,810,810,810,810,810,810,810,810,810,810,810,810,810,810,810,810,810,810,810,810,810,810,810,810,810,810,810,810,810,810,810,810,804,790,778,765,749,741,739,737,734,729,712,705,698,694,688,674,665,651,641,628,597,582,571,564,562,561,561,559,557,554,536,522],"ymouse":[540,540,540,540,540,540,540,540,540,540,540,540,540,540,540,540,540,540,540,540,540,540,540,540,540,540,540,540,540,540,540,540,540,540,540,540,540,540,540,540,540,540,540,528,506,488,466,440,404,392,380,354,331,278,256,240,230,222,212,208,202,197,190,175,166,160,154,152,151,149,145,140,130,103,91],"timestamp_mouse":[10,27,46,65,86,107,126,146,165,186,206,225,246,267,285,307,326,346,365,386,407,425,447,465,487,507,525,545,567,585,605,627,646,666,685,706,725,746,766,786,807,826,846,865,887,905,925,945,965,985,1007,1025,1046,1067,1085,1105,1126,1146,1166,1185,1205,1225,1246,1266,1286,1306,1326,1345,1366,1385,1405,1425,1445,1465,1486],"xSR":741.5,"ySR":458.25,"xT1":424.9,"yT1":0,"xT2":1058.1,"yT2":0,"toosoon":0,"cond_shown":"equaldotanddens","ratio_trial":500,"smaller_num":"2","larger_num":"4","correct_side":1,"subjID":"HannaSofiaOlayaCorredor9","gender":"1","age":"10","school":"2019"},{"start_time":1551887865231,"click_time":1551887866673,"finger_time":1551887866033,"fix_duration":957.7938451359394,"trial":41,"RT":802,"MT":640,"sideResp":1,"stimulus":"img/750/equaldotsize/L/6_Ratio_750_L_24_R_18.png","xmouse":[813,813,813,813,813,813,813,813,813,813,813,813,813,813,813,813,813,813,813,813,813,813,813,813,813,813,813,813,813,813,813,813,813,813,813,813,813,809,803,791,775,758,697,648,599,558,543,541,542,545,546,547,549,549,549,549,545,526,518,516,515,515,513,513,512,512,512,511,508,503,500,497,493],"ymouse":[542,542,542,542,542,542,542,542,542,542,542,542,542,542,542,542,542,542,542,542,542,542,542,542,542,542,542,542,542,542,542,542,542,542,542,542,535,517,502,477,457,434,358,287,223,192,179,174,169,164,160,157,153,153,153,151,147,133,129,128,127,126,124,123,123,123,123,121,117,112,108,102,93],"timestamp_mouse":[9,22,42,62,81,102,122,142,163,181,202,223,241,262,281,302,322,342,362,382,403,421,441,462,482,502,523,541,562,581,603,621,641,662,683,702,723,742,762,782,802,822,842,861,882,902,922,942,961,981,1002,1021,1041,1061,1082,1102,1121,1142,1161,1182,1201,1222,1241,1262,1282,1302,1323,1341,1362,1382,1402,1422,1442],"xSR":741.5,"ySR":458.25,"xT1":424.9,"yT1":0,"xT2":1058.1,"yT2":0,"toosoon":0,"cond_shown":"equaldotsize","ratio_trial":750,"smaller_num":"18","larger_num":"24","correct_side":1,"subjID":"HannaSofiaOlayaCorredor9","gender":"1","age":"10","school":"2019"},{"start_time":1551887868539,"click_time":1551887869733,"finger_time":1551887869232,"fix_duration":725.3516188984,"trial":42,"RT":693,"MT":501,"sideResp":2,"stimulus":"img/250/equaldotsize/R/4_Ratio_250_L_3_R_12.png","xmouse":[803,803,803,803,803,803,803,803,803,803,803,803,803,803,803,803,803,803,803,803,803,803,803,803,803,803,803,803,803,803,805,807,814,837,902,977,1154,1214,1239,1245,1246,1243,1242,1242,1241,1240,1235,1231,1226,1221,1215,1194,1188,1185,1185,1185,1185,1175,1164,1149],"ymouse":[516,516,516,516,516,516,516,516,516,516,516,516,516,516,516,516,516,516,516,516,516,516,516,516,516,516,516,516,516,516,516,516,508,493,460,417,267,197,162,140,122,100,94,90,88,85,79,77,75,75,75,75,75,75,75,75,75,76,78,80],"timestamp_mouse":[14,33,54,74,93,115,134,153,173,195,213,233,253,275,295,313,334,354,374,394,414,434,455,474,493,515,533,554,573,594,615,634,655,675,693,713,733,753,773,794,814,834,853,874,893,913,934,954,973,993,1014,1034,1055,1073,1093,1114,1133,1153,1174,1194],"xSR":741.5,"ySR":458.25,"xT1":424.9,"yT1":0,"xT2":1058.1,"yT2":0,"toosoon":0,"cond_shown":"equaldotsize","ratio_trial":250,"smaller_num":"3","larger_num":"12","correct_side":2,"subjID":"HannaSofiaOlayaCorredor9","gender":"1","age":"10","school":"2019"},{"start_time":1551887871932,"click_time":1551887873573,"finger_time":1551887873072,"fix_duration":1137.9903144252962,"trial":43,"RT":1140,"MT":501,"sideResp":2,"stimulus":"img/750/equaldotsize/R/12_Ratio_750_L_3_R_4.png","xmouse":[822,822,822,822,822,822,822,822,822,822,822,822,822,822,822,822,822,822,822,822,822,822,822,822,822,822,822,822,822,822,822,822,822,822,822,822,822,822,822,822,822,822,822,822,822,822,822,822,822,822,822,822,822,822,822,826,841,860,902,921,939,953,979,991,995,997,1000,1000,1004,1010,1020,1033,1065,1075,1081,1084,1087,1096,1100,1105,1108,1111,1115],"ymouse":[531,531,531,531,531,531,531,531,531,531,531,531,531,531,531,531,531,531,531,531,531,531,531,531,531,531,531,531,531,531,531,531,531,531,531,531,531,531,531,531,531,531,531,531,531,531,531,531,531,531,531,531,531,531,531,523,506,487,438,406,363,328,269,239,223,212,204,203,196,188,177,164,143,138,135,131,130,123,119,114,111,106,95],"timestamp_mouse":[9,21,40,61,80,101,120,141,161,180,201,221,241,262,280,302,322,341,361,380,401,421,441,461,480,501,521,541,561,581,601,622,640,661,681,701,720,742,761,781,800,820,841,862,880,900,921,941,961,981,1001,1022,1041,1061,1080,1102,1121,1140,1160,1180,1201,1220,1240,1260,1281,1301,1320,1340,1361,1381,1401,1420,1441,1462,1481,1502,1520,1540,1560,1581,1601,1621,1641],"xSR":741.5,"ySR":458.25,"xT1":424.9,"yT1":0,"xT2":1058.1,"yT2":0,"toosoon":0,"cond_shown":"equaldotsize","ratio_trial":750,"smaller_num":"3","larger_num":"4","correct_side":2,"subjID":"HannaSofiaOlayaCorredor9","gender":"1","age":"10","school":"2019"},{"start_time":1551887875136,"click_time":1551887876433,"finger_time":1551887875732,"fix_duration":760.7805525215955,"trial":44,"RT":596,"MT":701,"sideResp":2,"stimulus":"img/250/equaldotanddens/R/11_Ratio_250_L_3_R_12.png","xmouse":[809,809,809,809,809,809,809,809,809,809,809,809,809,809,809,809,809,809,809,809,809,809,809,809,809,809,809,809,824,846,874,944,977,1016,1029,1036,1050,1062,1072,1076,1076,1076,1076,1074,1072,1072,1072,1073,1077,1082,1086,1088,1088,1088,1089,1089,1089,1089,1089,1089,1089,1089,1089,1095,1102],"ymouse":[551,551,551,551,551,551,551,551,551,551,551,551,551,551,551,551,551,551,551,551,551,551,551,551,551,551,551,549,539,527,508,455,419,367,336,316,276,260,250,245,243,238,232,225,215,204,176,162,151,140,133,121,115,110,109,109,109,109,109,109,109,109,109,101,94],"timestamp_mouse":[16,37,56,78,97,118,137,157,177,196,216,236,256,277,298,318,338,356,378,396,418,436,456,478,496,518,538,557,577,596,616,637,656,676,696,716,738,757,776,797,816,837,857,877,897,916,936,957,978,997,1018,1037,1056,1077,1097,1118,1137,1157,1176,1196,1217,1238,1257,1277,1297],"xSR":741.5,"ySR":458.25,"xT1":424.9,"yT1":0,"xT2":1058.1,"yT2":0,"toosoon":0,"cond_shown":"equaldotanddens","ratio_trial":250,"smaller_num":"3","larger_num":"12","correct_side":2,"subjID":"HannaSofiaOlayaCorredor9","gender":"1","age":"10","school":"2019"},{"start_time":1551887877644,"click_time":1551887878653,"finger_time":1551887878192,"fix_duration":250,"trial":45,"RT":548,"MT":461,"sideResp":2,"stimulus":"img/500/equaldotsize/R/15_Ratio_500_L_1_R_2.png","xmouse":[802,802,802,802,802,802,802,802,802,802,802,802,802,802,802,802,802,802,802,802,802,802,802,802,802,802,812,843,908,975,1026,1056,1091,1106,1122,1139,1175,1189,1196,1196,1196,1193,1189,1188,1184,1178,1164,1160,1159,1159,1157],"ymouse":[483,483,483,483,483,483,483,483,483,483,483,483,483,483,483,483,483,483,483,483,483,483,483,483,483,483,469,444,389,336,285,248,194,173,148,122,70,50,39,38,37,37,36,36,35,34,34,35,35,35,36],"timestamp_mouse":[9,29,48,70,90,110,128,149,170,190,210,229,249,270,288,309,329,348,368,389,409,428,450,469,489,508,528,548,568,588,608,629,648,668,689,709,730,750,770,788,808,828,849,870,890,909,929,948,969,988,1009],"xSR":741.5,"ySR":458.25,"xT1":424.9,"yT1":0,"xT2":1058.1,"yT2":0,"toosoon":0,"cond_shown":"equaldotsize","ratio_trial":500,"smaller_num":"1","larger_num":"2","correct_side":2,"subjID":"HannaSofiaOlayaCorredor9","gender":"1","age":"10","school":"2019"},{"start_time":1551887881102,"click_time":1551887882153,"finger_time":1551887881774,"fix_duration":1428.6127216650855,"trial":46,"RT":672,"MT":379,"sideResp":2,"stimulus":"img/500/equaldotanddens/R/6_Ratio_500_L_9_R_18.png","xmouse":[818,818,818,818,818,818,818,818,818,818,818,818,818,818,818,818,818,818,818,818,818,818,818,818,818,818,818,818,818,818,818,822,831,896,947,962,967,969,972,975,981,991,1000,1012,1016,1018,1027,1035,1053,1059,1063,1067,1071],"ymouse":[512,512,512,512,512,512,512,512,512,512,512,512,512,512,512,512,512,512,512,512,512,512,512,512,512,512,512,512,512,512,512,504,496,429,369,341,322,310,291,277,260,242,226,203,194,187,173,158,128,116,108,101,96],"timestamp_mouse":[11,34,52,71,91,112,130,151,172,190,210,231,252,271,291,312,330,350,371,391,412,432,451,472,492,511,531,551,572,590,610,631,651,672,690,711,732,752,772,791,810,831,850,871,891,911,932,952,970,990,1011,1030,1051],"xSR":741.5,"ySR":458.25,"xT1":424.9,"yT1":0,"xT2":1058.1,"yT2":0,"toosoon":0,"cond_shown":"equaldotanddens","ratio_trial":500,"smaller_num":"9","larger_num":"18","correct_side":2,"subjID":"HannaSofiaOlayaCorredor9","gender":"1","age":"10","school":"2019"},{"start_time":1551887883847,"click_time":1551887884873,"finger_time":1551887884473,"fix_duration":752.9134872403891,"trial":47,"RT":626,"MT":400,"sideResp":2,"stimulus":"img/250/equaldotanddens/R/11_Ratio_250_L_3_R_12.png","xmouse":[797,797,797,797,797,797,797,797,797,797,797,797,797,797,797,797,797,797,797,797,797,797,797,797,797,797,797,797,801,811,824,864,884,908,935,983,1124,1188,1202,1216,1216,1216,1216,1216,1216,1216,1216,1216,1210,1197,1179,1149],"ymouse":[513,513,513,513,513,513,513,513,513,513,513,513,513,513,513,513,513,513,513,513,513,513,513,513,513,513,513,513,507,494,478,429,400,371,333,272,147,109,101,86,83,82,82,82,82,82,82,82,82,85,88,92],"timestamp_mouse":[11,36,46,67,85,105,125,147,166,187,205,225,246,266,286,306,326,347,366,386,407,427,446,466,485,506,526,545,565,586,606,626,646,665,685,705,725,745,766,786,805,826,845,865,886,906,927,946,966,985,1006,1026],"xSR":741.5,"ySR":458.25,"xT1":424.9,"yT1":0,"xT2":1058.1,"yT2":0,"toosoon":0,"cond_shown":"equaldotanddens","ratio_trial":250,"smaller_num":"3","larger_num":"12","correct_side":2,"subjID":"HannaSofiaOlayaCorredor9","gender":"1","age":"10","school":"2019"},{"start_time":1551887886348,"click_time":1551887887393,"finger_time":1551887887033,"fix_duration":612.5017594210407,"trial":48,"RT":685,"MT":360,"sideResp":1,"stimulus":"img/900/equaldotanddens/L/8_Ratio_900_L_20_R_18.png","xmouse":[791,791,791,791,791,791,791,791,791,791,791,791,791,792,792,792,792,792,792,792,792,792,792,792,792,792,792,792,792,792,792,792,788,772,757,738,695,676,663,656,647,633,627,619,616,614,611,595,584,567,546,530,507],"ymouse":[493,493,493,493,493,493,493,493,493,493,493,494,494,494,494,494,494,494,494,494,494,494,494,494,494,494,494,494,494,494,494,494,491,475,457,435,394,378,365,354,339,314,301,281,270,257,246,202,178,149,123,100,73],"timestamp_mouse":[8,25,45,64,85,105,124,145,165,184,204,225,244,266,284,305,325,345,364,384,406,424,445,466,485,505,524,545,566,584,605,625,645,665,685,704,725,745,764,785,805,825,844,864,885,905,925,945,964,984,1006,1025,1045],"xSR":741.5,"ySR":458.25,"xT1":424.9,"yT1":0,"xT2":1058.1,"yT2":0,"toosoon":0,"cond_shown":"equaldotanddens","ratio_trial":900,"smaller_num":"18","larger_num":"20","correct_side":1,"subjID":"HannaSofiaOlayaCorredor9","gender":"1","age":"10","school":"2019"},{"start_time":1551887888266,"click_time":1551887889974,"finger_time":1551887889172,"fix_duration":250,"trial":49,"RT":906,"MT":802,"sideResp":2,"stimulus":"img/750/randomdotsizeEA/R/11_Ratio_750_L_12_R_16.png","xmouse":[792,792,792,792,792,792,792,792,792,792,792,792,792,792,792,792,792,792,792,792,792,792,792,792,792,792,792,792,792,792,792,792,792,792,793,793,793,793,793,793,794,794,797,804,814,845,878,891,918,933,965,987,1006,1025,1040,1066,1079,1082,1090,1095,1111,1122,1133,1141,1147,1151,1151,1151,1151,1151,1151,1151,1151,1151,1151,1151,1151,1150,1149,1149,1148,1148,1147,1146,1144,1141],"ymouse":[529,529,529,529,529,529,529,529,529,529,529,529