[{"start_time":1551800564610,"click_time":1551800566512,"finger_time":1551800566191,"fix_duration":795.9243192194734,"trial":0,"RT":1581,"MT":321,"sideResp":2,"stimulus":[],"xmouse":[779,779,779,779,779,779,779,779,779,779,779,779,779,779,779,779,779,779,779,779,779,779,779,779,779,779,779,779,779,779,779,779,779,779,779,779,779,779,779,779,779,779,779,779,779,779,779,779,779,779,779,779,779,779,779,779,779,779,779,779,779,779,779,779,779,779,779,779,779,779,779,779,779,779,779,779,782,789,820,844,865,898,928,997,1039,1050,1078,1090,1102,1106,1109,1114,1117,1119,1119,1119],"ymouse":[544,544,544,544,544,544,544,544,544,544,544,544,544,544,544,544,544,544,544,544,544,544,544,544,544,544,544,544,544,544,544,544,544,544,544,544,544,544,544,544,544,544,544,544,544,544,544,544,544,544,544,544,544,544,544,544,544,544,544,544,544,544,544,544,544,544,544,544,544,544,544,544,544,544,544,544,538,525,491,471,453,429,408,354,323,315,293,279,250,232,213,191,171,131,108,86],"timestamp_mouse":[9,21,44,61,81,100,120,141,160,181,201,221,240,260,281,301,320,340,361,381,401,422,442,460,481,501,521,540,561,580,601,621,640,661,680,701,720,742,761,781,800,821,840,861,882,901,921,940,960,980,1001,1022,1040,1060,1080,1101,1121,1140,1160,1180,1200,1220,1241,1261,1281,1301,1320,1340,1361,1381,1400,1422,1440,1461,1480,1500,1521,1541,1560,1581,1601,1621,1641,1660,1680,1701,1722,1742,1761,1781,1800,1820,1840,1860,1880,1901],"xSR":741.5,"ySR":501.8,"xT1":424.9,"yT1":0,"xT2":1058.1,"yT2":0,"toosoon":0,"cond_shown":"Congruent","ratio_trial":100,"L_num":7,"L_den":14,"R_num":9,"R_den":15,"correct_side":2,"subjID":"IsabellaGomezJaramillo24","gender":"1","age":"11","school":"6","test":{"fix_dur":[250,1500],"timestim":1000,"targets_dim":[100,100],"targets_relative_coord":[0.3,0.7],"size_stim":[880,420],"start_dim":[100,100],"size_start":[300,300],"size_fix":60,"samplingrate":20,"img_types":["Congruent","Incongruent"],"ratios":[100,200,300],"rep_conds":19,"nTrials":120,"trials_to_rest":500,"Trials_order":[108,36,52,103,55,87,6,5,15,105,80,10,0,43,119,68,29,85,101,117,88,115,13,63,31,118,70,92,21,28,112,114,45,19,109,56,41,89,111,1,86,20,53,37,57,98,12,23,54,17,40,83,32,71,73,60,33,3,96,81,116,94,93,78,72,99,84,9,14,61,74,82,49,107,27,102,106,48,58,77,30,11,26,2,24,34,79,59,66,90,62,35,69,76,64,100,18,8,25,65,104,22,50,95,46,44,42,75,39,16,97,91,110,7,113,51,47,4,67,38],"cond_shown":["Congruent","Congruent","Congruent","Incongruent","Incongruent","Incongruent","Congruent","Incongruent","Incongruent","Incongruent","Congruent","Congruent","Congruent","Incongruent","Incongruent","Congruent","Incongruent","Incongruent","Incongruent","Incongruent","Congruent","Incongruent","Incongruent","Incongruent","Incongruent","Congruent","Congruent","Congruent","Incongruent","Congruent","Congruent","Congruent","Incongruent","Incongruent","Incongruent","Congruent","Incongruent","Incongruent","Incongruent","Incongruent","Congruent","Congruent","Incongruent","Incongruent","Incongruent","Congruent","Congruent","Incongruent","Congruent","Incongruent","Congruent","Incongruent","Congruent","Incongruent","Incongruent","Congruent","Incongruent","Incongruent","Congruent","Incongruent","Congruent","Congruent","Incongruent","Congruent","Congruent","Incongruent","Congruent","Incongruent","Congruent","Incongruent","Congruent","Congruent","Incongruent","Incongruent","Incongruent","Congruent","Congruent","Congruent","Congruent","Incongruent","Congruent","Incongruent","Congruent","Congruent","Congruent","Congruent","Incongruent","Incongruent","Congruent","Congruent","Congruent","Incongruent","Incongruent","Congruent","Congruent","Congruent","Congruent","Congruent","Incongruent","Incongruent","Congruent","Congruent","Congruent","Incongruent","Congruent","Congruent","Congruent","Incongruent","Incongruent","Congruent","Incongruent","Incongruent","Congruent","Incongruent","Incongruent","Incongruent","Incongruent","Congruent","Incongruent","Congruent"],"ratio_trial":[100,100,300,100,100,200,100,300,200,200,200,300,100,100,300,200,300,100,300,200,300,100,100,200,100,300,300,200,200,300,300,100,200,100,100,200,300,300,200,100,200,200,300,100,200,200,100,300,100,300,300,300,200,300,100,100,200,200,100,200,200,300,200,100,100,200,100,200,200,100,200,300,100,300,200,100,300,100,300,300,100,300,200,200,100,300,100,300,100,100,200,300,200,300,300,300,100,200,100,300,200,300,200,300,300,200,100,200,200,300,100,100,200,100,300,200,300,300,100,200],"left_num":[7,11,9,3,11,4,1,13,7,3,15,4,2,17,7,21,13,13,4,7,3,9,10,7,3,3,3,8,4,1,5,15,14,6,13,5,8,13,9,9,6,6,4,9,4,6,9,3,6,7,18,4,16,13,9,4,4,11,7,11,11,1,4,1,2,7,7,3,9,9,12,3,2,13,7,8,18,9,5,8,15,4,3,11,1,20,3,4,6,8,6,4,4,1,3,18,3,4,17,4,5,2,16,8,4,8,1,7,4,9,9,8,16,10,4,1,8,8,12,6],"right_num":[9,6,3,4,9,14,3,12,14,11,4,13,6,10,8,2,12,6,2,6,11,6,8,8,8,4,11,3,14,11,6,13,6,11,12,14,14,12,8,6,7,11,2,6,6,7,8,4,15,8,9,2,12,12,14,6,14,3,9,3,3,8,6,3,11,12,9,11,13,14,6,2,8,12,6,2,9,8,7,9,13,2,14,3,18,5,8,2,15,2,7,2,14,3,4,9,4,3,10,2,14,10,9,9,13,2,18,6,14,3,20,6,12,8,6,3,9,10,9,3],"left_den":[14,22,10,6,22,6,2,26,10,4,25,20,5,30,10,30,26,26,20,15,12,18,25,10,5,6,12,15,6,5,25,25,30,10,26,10,10,26,15,18,12,20,20,18,5,12,15,6,12,10,20,20,20,26,15,8,6,20,14,20,22,30,5,2,5,10,14,4,30,15,15,6,4,26,15,16,20,15,25,10,25,20,6,22,2,25,5,20,12,16,12,20,6,5,6,20,20,8,30,20,10,20,30,10,20,15,2,15,6,10,10,16,20,25,5,2,10,15,24,15],"right_den":[15,15,5,10,15,30,5,15,28,20,10,26,12,15,20,4,15,10,4,9,20,10,16,16,16,5,20,9,30,22,12,26,9,22,20,20,28,15,10,10,10,22,4,10,10,10,16,20,25,20,15,4,20,15,28,10,30,4,15,4,10,24,10,5,22,24,15,20,26,28,10,10,20,15,9,5,15,16,14,18,26,4,20,10,30,10,16,4,25,5,10,4,30,6,5,15,16,10,15,4,20,25,27,18,26,6,30,9,30,5,25,10,20,16,12,10,18,12,15,15],"correct_side":[2,1,1,1,2,1,2,2,1,1,1,2,2,2,1,1,2,2,2,2,2,2,2,1,1,2,2,1,1,2,2,1,2,1,2,2,1,2,2,2,2,2,2,2,1,2,1,1,2,1,1,2,1,2,1,2,1,2,2,2,1,2,1,2,2,1,2,1,2,1,1,1,1,2,2,1,1,1,2,1,1,2,2,1,2,1,1,2,2,1,2,2,1,2,2,1,2,1,2,2,2,2,1,1,2,1,2,2,1,1,1,2,1,2,1,1,1,2,2,1],"img_shown":["img2/100/Congruent/R/C_Dist_100_LN_7_LD_14_RN_9_RD_15_1.png","img2/100/Congruent/L/C_Dist_100_LN_11_LD_22_RN_6_RD_15_0.png","img2/300/Congruent/L/C_Dist_300_LN_9_LD_10_RN_3_RD_5_0.png","img2/100/Incongruent/L/I_Dist_100_LN_3_LD_6_RN_4_RD_10_0.png","img2/100/Incongruent/R/I_Dist_100_LN_11_LD_22_RN_9_RD_15_1.png","img2/200/Incongruent/L/I_Dist_200_LN_4_LD_6_RN_14_RD_30_0.png","img2/100/Congruent/R/C_Dist_100_LN_1_LD_2_RN_3_RD_5_1.png","img2/300/Incongruent/R/I_Dist_300_LN_13_LD_26_RN_12_RD_15_1.png","img2/200/Incongruent/L/I_Dist_200_LN_7_LD_10_RN_14_RD_28_0.png","img2/200/Incongruent/L/I_Dist_200_LN_3_LD_4_RN_11_RD_20_0.png","img2/200/Congruent/L/C_Dist_200_LN_15_LD_25_RN_4_RD_10_0.png","img2/300/Congruent/R/C_Dist_300_LN_4_LD_20_RN_13_RD_26_1.png","img2/100/Congruent/R/C_Dist_100_LN_2_LD_5_RN_6_RD_12_1.png","img2/100/Incongruent/R/I_Dist_100_LN_17_LD_30_RN_10_RD_15_1.png","img2/300/Incongruent/L/I_Dist_300_LN_7_LD_10_RN_8_RD_20_0.png","img2/200/Congruent/L/C_Dist_200_LN_21_LD_30_RN_2_RD_4_0.png","img2/300/Incongruent/R/I_Dist_300_LN_13_LD_26_RN_12_RD_15_1.png","img2/100/Incongruent/R/I_Dist_100_LN_13_LD_26_RN_6_RD_10_1.png","img2/300/Incongruent/R/I_Dist_300_LN_4_LD_20_RN_2_RD_4_1.png","img2/200/Incongruent/R/I_Dist_200_LN_7_LD_15_RN_6_RD_9_1.png","img2/300/Congruent/R/C_Dist_300_LN_3_LD_12_RN_11_RD_20_1.png","img2/100/Incongruent/R/I_Dist_100_LN_9_LD_18_RN_6_RD_10_1.png","img2/100/Incongruent/R/I_Dist_100_LN_10_LD_25_RN_8_RD_16_1.png","img2/200/Incongruent/L/I_Dist_200_LN_7_LD_10_RN_8_RD_16_0.png","img2/100/Incongruent/L/I_Dist_100_LN_3_LD_5_RN_8_RD_16_0.png","img2/300/Congruent/R/C_Dist_300_LN_3_LD_6_RN_4_RD_5_1.png","img2/300/Congruent/R/C_Dist_300_LN_3_LD_12_RN_11_RD_20_1.png","img2/200/Congruent/L/C_Dist_200_LN_8_LD_15_RN_3_RD_9_0.png","img2/200/Incongruent/L/I_Dist_200_LN_4_LD_6_RN_14_RD_30_0.png","img2/300/Congruent/R/C_Dist_300_LN_1_LD_5_RN_11_RD_22_1.png","img2/300/Congruent/R/C_Dist_300_LN_5_LD_25_RN_6_RD_12_1.png","img2/100/Congruent/L/C_Dist_100_LN_15_LD_25_RN_13_RD_26_0.png","img2/200/Incongruent/R/I_Dist_200_LN_14_LD_30_RN_6_RD_9_1.png","img2/100/Incongruent/L/I_Dist_100_LN_6_LD_10_RN_11_RD_22_0.png","img2/100/Incongruent/R/I_Dist_100_LN_13_LD_26_RN_12_RD_20_1.png","img2/200/Congruent/R/C_Dist_200_LN_5_LD_10_RN_14_RD_20_1.png","img2/300/Incongruent/L/I_Dist_300_LN_8_LD_10_RN_14_RD_28_0.png","img2/300/Incongruent/R/I_Dist_300_LN_13_LD_26_RN_12_RD_15_1.png","img2/200/Incongruent/R/I_Dist_200_LN_9_LD_15_RN_8_RD_10_1.png","img2/100/Incongruent/R/I_Dist_100_LN_9_LD_18_RN_6_RD_10_1.png","img2/200/Congruent/R/C_Dist_200_LN_6_LD_12_RN_7_RD_10_1.png","img2/200/Congruent/R/C_Dist_200_LN_6_LD_20_RN_11_RD_22_1.png","img2/300/Incongruent/R/I_Dist_300_LN_4_LD_20_RN_2_RD_4_1.png","img2/100/Incongruent/R/I_Dist_100_LN_9_LD_18_RN_6_RD_10_1.png","img2/200/Incongruent/L/I_Dist_200_LN_4_LD_5_RN_6_RD_10_0.png","img2/200/Congruent/R/C_Dist_200_LN_6_LD_12_RN_7_RD_10_1.png","img2/100/Congruent/L/C_Dist_100_LN_9_LD_15_RN_8_RD_16_0.png","img2/300/Incongruent/L/I_Dist_300_LN_3_LD_6_RN_4_RD_20_0.png","img2/100/Congruent/R/C_Dist_100_LN_6_LD_12_RN_15_RD_25_1.png","img2/300/Incongruent/L/I_Dist_300_LN_7_LD_10_RN_8_RD_20_0.png","img2/300/Congruent/L/C_Dist_300_LN_18_LD_20_RN_9_RD_15_0.png","img2/300/Incongruent/R/I_Dist_300_LN_4_LD_20_RN_2_RD_4_1.png","img2/200/Congruent/L/C_Dist_200_LN_16_LD_20_RN_12_RD_20_0.png","img2/300/Incongruent/R/I_Dist_300_LN_13_LD_26_RN_12_RD_15_1.png","img2/100/Incongruent/L/I_Dist_100_LN_9_LD_15_RN_14_RD_28_0.png","img2/100/Congruent/R/C_Dist_100_LN_4_LD_8_RN_6_RD_10_1.png","img2/200/Incongruent/L/I_Dist_200_LN_4_LD_6_RN_14_RD_30_0.png","img2/200/Incongruent/R/I_Dist_200_LN_11_LD_20_RN_3_RD_4_1.png","img2/100/Congruent/R/C_Dist_100_LN_7_LD_14_RN_9_RD_15_1.png","img2/200/Incongruent/R/I_Dist_200_LN_11_LD_20_RN_3_RD_4_1.png","img2/200/Congruent/L/C_Dist_200_LN_11_LD_22_RN_3_RD_10_0.png","img2/300/Congruent/R/C_Dist_300_LN_1_LD_30_RN_8_RD_24_1.png","img2/200/Incongruent/L/I_Dist_200_LN_4_LD_5_RN_6_RD_10_0.png","img2/100/Congruent/R/C_Dist_100_LN_1_LD_2_RN_3_RD_5_1.png","img2/100/Congruent/R/C_Dist_100_LN_2_LD_5_RN_11_RD_22_1.png","img2/200/Incongruent/L/I_Dist_200_LN_7_LD_10_RN_12_RD_24_0.png","img2/100/Congruent/R/C_Dist_100_LN_7_LD_14_RN_9_RD_15_1.png","img2/200/Incongruent/L/I_Dist_200_LN_3_LD_4_RN_11_RD_20_0.png","img2/200/Congruent/R/C_Dist_200_LN_9_LD_30_RN_13_RD_26_1.png","img2/100/Incongruent/L/I_Dist_100_LN_9_LD_15_RN_14_RD_28_0.png","img2/200/Congruent/L/C_Dist_200_LN_12_LD_15_RN_6_RD_10_0.png","img2/300/Congruent/L/C_Dist_300_LN_3_LD_6_RN_2_RD_10_0.png","img2/100/Incongruent/L/I_Dist_100_LN_2_LD_4_RN_8_RD_20_0.png","img2/300/Incongruent/R/I_Dist_300_LN_13_LD_26_RN_12_RD_15_1.png","img2/200/Incongruent/R/I_Dist_200_LN_7_LD_15_RN_6_RD_9_1.png","img2/100/Congruent/L/C_Dist_100_LN_8_LD_16_RN_2_RD_5_0.png","img2/300/Congruent/L/C_Dist_300_LN_18_LD_20_RN_9_RD_15_0.png","img2/100/Congruent/L/C_Dist_100_LN_9_LD_15_RN_8_RD_16_0.png","img2/300/Congruent/R/C_Dist_300_LN_5_LD_25_RN_7_RD_14_1.png","img2/300/Incongruent/L/I_Dist_300_LN_8_LD_10_RN_9_RD_18_0.png","img2/100/Congruent/L/C_Dist_100_LN_15_LD_25_RN_13_RD_26_0.png","img2/300/Incongruent/R/I_Dist_300_LN_4_LD_20_RN_2_RD_4_1.png","img2/200/Congruent/R/C_Dist_200_LN_3_LD_6_RN_14_RD_20_1.png","img2/200/Congruent/L/C_Dist_200_LN_11_LD_22_RN_3_RD_10_0.png","img2/100/Congruent/R/C_Dist_100_LN_1_LD_2_RN_18_RD_30_1.png","img2/300/Congruent/L/C_Dist_300_LN_20_LD_25_RN_5_RD_10_0.png","img2/100/Incongruent/L/I_Dist_100_LN_3_LD_5_RN_8_RD_16_0.png","img2/300/Incongruent/R/I_Dist_300_LN_4_LD_20_RN_2_RD_4_1.png","img2/100/Congruent/R/C_Dist_100_LN_6_LD_12_RN_15_RD_25_1.png","img2/100/Congruent/L/C_Dist_100_LN_8_LD_16_RN_2_RD_5_0.png","img2/200/Congruent/R/C_Dist_200_LN_6_LD_12_RN_7_RD_10_1.png","img2/300/Incongruent/R/I_Dist_300_LN_4_LD_20_RN_2_RD_4_1.png","img2/200/Incongruent/L/I_Dist_200_LN_4_LD_6_RN_14_RD_30_0.png","img2/300/Congruent/R/C_Dist_300_LN_1_LD_5_RN_3_RD_6_1.png","img2/300/Congruent/R/C_Dist_300_LN_3_LD_6_RN_4_RD_5_1.png","img2/300/Congruent/L/C_Dist_300_LN_18_LD_20_RN_9_RD_15_0.png","img2/100/Congruent/R/C_Dist_100_LN_3_LD_20_RN_4_RD_16_1.png","img2/200/Congruent/L/C_Dist_200_LN_4_LD_8_RN_3_RD_10_0.png","img2/100/Incongruent/R/I_Dist_100_LN_17_LD_30_RN_10_RD_15_1.png","img2/300/Incongruent/R/I_Dist_300_LN_4_LD_20_RN_2_RD_4_1.png","img2/200/Congruent/R/C_Dist_200_LN_5_LD_10_RN_14_RD_20_1.png","img2/300/Congruent/R/C_Dist_300_LN_2_LD_20_RN_10_RD_25_1.png","img2/200/Congruent/L/C_Dist_200_LN_16_LD_30_RN_9_RD_27_0.png","img2/300/Incongruent/L/I_Dist_300_LN_8_LD_10_RN_9_RD_18_0.png","img2/300/Congruent/R/C_Dist_300_LN_4_LD_20_RN_13_RD_26_1.png","img2/200/Congruent/L/C_Dist_200_LN_8_LD_15_RN_2_RD_6_0.png","img2/100/Congruent/R/C_Dist_100_LN_1_LD_2_RN_18_RD_30_1.png","img2/200/Incongruent/R/I_Dist_200_LN_7_LD_15_RN_6_RD_9_1.png","img2/200/Incongruent/L/I_Dist_200_LN_4_LD_6_RN_14_RD_30_0.png","img2/300/Congruent/L/C_Dist_300_LN_9_LD_10_RN_3_RD_5_0.png","img2/100/Incongruent/L/I_Dist_100_LN_9_LD_10_RN_20_RD_25_0.png","img2/100/Incongruent/R/I_Dist_100_LN_8_LD_16_RN_6_RD_10_1.png","img2/200/Congruent/L/C_Dist_200_LN_16_LD_20_RN_12_RD_20_0.png","img2/100/Incongruent/R/I_Dist_100_LN_10_LD_25_RN_8_RD_16_1.png","img2/300/Incongruent/L/I_Dist_300_LN_4_LD_5_RN_6_RD_12_0.png","img2/200/Incongruent/L/I_Dist_200_LN_1_LD_2_RN_3_RD_10_0.png","img2/300/Incongruent/L/I_Dist_300_LN_8_LD_10_RN_9_RD_18_0.png","img2/300/Congruent/R/C_Dist_300_LN_8_LD_15_RN_10_RD_12_1.png","img2/100/Incongruent/R/I_Dist_100_LN_12_LD_24_RN_9_RD_15_1.png","img2/200/Congruent/L/C_Dist_200_LN_6_LD_15_RN_3_RD_15_0.png"],"dist100_C":[["C_Dist_100_LN_10_LD_25_RN_3_RD_10_0.png","C_Dist_100_LN_11_LD_22_RN_4_RD_10_0.png","C_Dist_100_LN_11_LD_22_RN_6_RD_15_0.png","C_Dist_100_LN_15_LD_25_RN_13_RD_26_0.png","C_Dist_100_LN_3_LD_6_RN_2_RD_5_0.png","C_Dist_100_LN_6_LD_20_RN_5_RD_25_0.png","C_Dist_100_LN_8_LD_16_RN_2_RD_5_0.png","C_Dist_100_LN_9_LD_15_RN_8_RD_16_0.png"],["C_Dist_100_LN_1_LD_2_RN_18_RD_30_1.png","C_Dist_100_LN_1_LD_2_RN_3_RD_5_1.png","C_Dist_100_LN_12_LD_30_RN_13_RD_26_1.png","C_Dist_100_LN_2_LD_5_RN_11_RD_22_1.png","C_Dist_100_LN_2_LD_5_RN_6_RD_12_1.png","C_Dist_100_LN_3_LD_20_RN_4_RD_16_1.png","C_Dist_100_LN_4_LD_10_RN_15_RD_30_1.png","C_Dist_100_LN_4_LD_8_RN_6_RD_10_1.png","C_Dist_100_LN_6_LD_12_RN_15_RD_25_1.png","C_Dist_100_LN_7_LD_14_RN_15_RD_25_1.png","C_Dist_100_LN_7_LD_14_RN_9_RD_15_1.png"]],"dist100_I":[["I_Dist_100_LN_1_LD_2_RN_8_RD_20_0.png","I_Dist_100_LN_2_LD_4_RN_6_RD_15_0.png","I_Dist_100_LN_2_LD_4_RN_8_RD_20_0.png","I_Dist_100_LN_3_LD_5_RN_11_RD_22_0.png","I_Dist_100_LN_3_LD_5_RN_8_RD_16_0.png","I_Dist_100_LN_3_LD_6_RN_4_RD_10_0.png","I_Dist_100_LN_3_LD_9_RN_7_RD_30_0.png","I_Dist_100_LN_4_LD_8_RN_8_RD_20_0.png","I_Dist_100_LN_6_LD_10_RN_11_RD_22_0.png","I_Dist_100_LN_6_LD_10_RN_13_RD_26_0.png","I_Dist_100_LN_6_LD_10_RN_7_RD_14_0.png","I_Dist_100_LN_9_LD_10_RN_20_RD_25_0.png","I_Dist_100_LN_9_LD_15_RN_13_RD_26_0.png","I_Dist_100_LN_9_LD_15_RN_14_RD_28_0.png"],["I_Dist_100_LN_10_LD_25_RN_8_RD_16_1.png","I_Dist_100_LN_10_LD_25_RN_9_RD_18_1.png","I_Dist_100_LN_11_LD_22_RN_9_RD_15_1.png","I_Dist_100_LN_12_LD_24_RN_9_RD_15_1.png","I_Dist_100_LN_12_LD_30_RN_2_RD_4_1.png","I_Dist_100_LN_13_LD_26_RN_12_RD_20_1.png","I_Dist_100_LN_13_LD_26_RN_6_RD_10_1.png","I_Dist_100_LN_17_LD_30_RN_10_RD_15_1.png","I_Dist_100_LN_6_LD_12_RN_3_RD_5_1.png","I_Dist_100_LN_8_LD_16_RN_6_RD_10_1.png","I_Dist_100_LN_8_LD_20_RN_1_RD_2_1.png","I_Dist_100_LN_9_LD_18_RN_6_RD_10_1.png"]],"dist100_S":[["E_Dist_100_LN_2_LD_12_RN_2_RD_30_0.png","E_Dist_100_LN_6_LD_10_RN_6_RD_12_0.png"],["E_Dist_100_LN_6_LD_12_RN_6_RD_10_1.png"]],"dist200_C":[["C_Dist_200_LN_11_LD_22_RN_3_RD_10_0.png","C_Dist_200_LN_12_LD_15_RN_6_RD_10_0.png","C_Dist_200_LN_12_LD_20_RN_6_RD_15_0.png","C_Dist_200_LN_14_LD_28_RN_6_RD_20_0.png","C_Dist_200_LN_15_LD_25_RN_4_RD_10_0.png","C_Dist_200_LN_16_LD_20_RN_12_RD_20_0.png","C_Dist_200_LN_16_LD_30_RN_9_RD_27_0.png","C_Dist_200_LN_20_LD_25_RN_9_RD_15_0.png","C_Dist_200_LN_21_LD_30_RN_2_RD_4_0.png","C_Dist_200_LN_4_LD_10_RN_3_RD_15_0.png","C_Dist_200_LN_4_LD_8_RN_3_RD_10_0.png","C_Dist_200_LN_6_LD_15_RN_3_RD_15_0.png","C_Dist_200_LN_7_LD_21_RN_2_RD_15_0.png","C_Dist_200_LN_8_LD_15_RN_2_RD_6_0.png","C_Dist_200_LN_8_LD_15_RN_3_RD_9_0.png","C_Dist_200_LN_8_LD_15_RN_7_RD_21_0.png","C_Dist_200_LN_9_LD_20_RN_4_RD_16_0.png"],["C_Dist_200_LN_1_LD_2_RN_21_RD_30_1.png","C_Dist_200_LN_13_LD_26_RN_14_RD_20_1.png","C_Dist_200_LN_3_LD_10_RN_11_RD_22_1.png","C_Dist_200_LN_3_LD_10_RN_14_RD_28_1.png","C_Dist_200_LN_3_LD_10_RN_7_RD_14_1.png","C_Dist_200_LN_3_LD_12_RN_9_RD_20_1.png","C_Dist_200_LN_3_LD_6_RN_14_RD_20_1.png","C_Dist_200_LN_5_LD_10_RN_14_RD_20_1.png","C_Dist_200_LN_6_LD_12_RN_7_RD_10_1.png","C_Dist_200_LN_6_LD_20_RN_11_RD_22_1.png","C_Dist_200_LN_7_LD_15_RN_18_RD_27_1.png","C_Dist_200_LN_9_LD_30_RN_13_RD_26_1.png"]],"dist200_I":[["I_Dist_200_LN_1_LD_2_RN_3_RD_10_0.png","I_Dist_200_LN_1_LD_3_RN_2_RD_15_0.png","I_Dist_200_LN_3_LD_4_RN_11_RD_20_0.png","I_Dist_200_LN_4_LD_5_RN_6_RD_10_0.png","I_Dist_200_LN_4_LD_6_RN_14_RD_30_0.png","I_Dist_200_LN_7_LD_10_RN_12_RD_24_0.png","I_Dist_200_LN_7_LD_10_RN_14_RD_28_0.png","I_Dist_200_LN_7_LD_10_RN_8_RD_16_0.png"],["I_Dist_200_LN_11_LD_20_RN_3_RD_4_1.png","I_Dist_200_LN_14_LD_30_RN_12_RD_18_1.png","I_Dist_200_LN_14_LD_30_RN_6_RD_9_1.png","I_Dist_200_LN_3_LD_10_RN_1_RD_2_1.png","I_Dist_200_LN_4_LD_30_RN_1_RD_3_1.png","I_Dist_200_LN_6_LD_20_RN_3_RD_6_1.png","I_Dist_200_LN_7_LD_15_RN_4_RD_6_1.png","I_Dist_200_LN_7_LD_15_RN_6_RD_9_1.png","I_Dist_200_LN_9_LD_15_RN_8_RD_10_1.png"]],"dist200_S":[["E_Dist_200_LN_3_LD_6_RN_3_RD_10_0.png"],["E_Dist_200_LN_3_LD_10_RN_3_RD_6_1.png"]],"dist300_C":[["C_Dist_300_LN_11_LD_22_RN_1_RD_5_0.png","C_Dist_300_LN_11_LD_22_RN_2_RD_10_0.png","C_Dist_300_LN_11_LD_22_RN_4_RD_20_0.png","C_Dist_300_LN_12_LD_24_RN_2_RD_10_0.png","C_Dist_300_LN_18_LD_20_RN_9_RD_15_0.png","C_Dist_300_LN_20_LD_25_RN_13_RD_26_0.png","C_Dist_300_LN_20_LD_25_RN_14_RD_28_0.png","C_Dist_300_LN_20_LD_25_RN_5_RD_10_0.png","C_Dist_300_LN_20_LD_25_RN_8_RD_16_0.png","C_Dist_300_LN_20_LD_25_RN_9_RD_18_0.png","C_Dist_300_LN_24_LD_30_RN_2_RD_4_0.png","C_Dist_300_LN_24_LD_30_RN_8_RD_16_0.png","C_Dist_300_LN_3_LD_6_RN_2_RD_10_0.png","C_Dist_300_LN_4_LD_10_RN_1_RD_10_0.png","C_Dist_300_LN_4_LD_5_RN_2_RD_4_0.png","C_Dist_300_LN_8_LD_16_RN_1_RD_5_0.png","C_Dist_300_LN_9_LD_10_RN_3_RD_5_0.png"],["C_Dist_300_LN_1_LD_20_RN_7_RD_20_1.png","C_Dist_300_LN_1_LD_3_RN_19_RD_30_1.png","C_Dist_300_LN_1_LD_30_RN_8_RD_24_1.png","C_Dist_300_LN_1_LD_5_RN_11_RD_22_1.png","C_Dist_300_LN_1_LD_5_RN_3_RD_6_1.png","C_Dist_300_LN_1_LD_5_RN_6_RD_12_1.png","C_Dist_300_LN_2_LD_10_RN_12_RD_24_1.png","C_Dist_300_LN_2_LD_20_RN_10_RD_25_1.png","C_Dist_300_LN_3_LD_12_RN_11_RD_20_1.png","C_Dist_300_LN_3_LD_6_RN_4_RD_5_1.png","C_Dist_300_LN_4_LD_20_RN_13_RD_26_1.png","C_Dist_300_LN_5_LD_25_RN_6_RD_12_1.png","C_Dist_300_LN_5_LD_25_RN_7_RD_14_1.png","C_Dist_300_LN_7_LD_14_RN_20_RD_25_1.png","C_Dist_300_LN_8_LD_15_RN_10_RD_12_1.png"]],"dist300_I":[["I_Dist_300_LN_1_LD_2_RN_2_RD_10_0.png","I_Dist_300_LN_1_LD_2_RN_3_RD_15_0.png","I_Dist_300_LN_2_LD_4_RN_6_RD_30_0.png","I_Dist_300_LN_3_LD_6_RN_4_RD_20_0.png","I_Dist_300_LN_4_LD_5_RN_6_RD_12_0.png","I_Dist_300_LN_4_LD_5_RN_8_RD_16_0.png","I_Dist_300_LN_7_LD_10_RN_8_RD_20_0.png","I_Dist_300_LN_8_LD_10_RN_14_RD_28_0.png","I_Dist_300_LN_8_LD_10_RN_9_RD_18_0.png"],["I_Dist_300_LN_13_LD_26_RN_12_RD_15_1.png","I_Dist_300_LN_4_LD_20_RN_2_RD_4_1.png"]],"dist300_S":[["E_Dist_300_LN_9_LD_12_RN_9_RD_20_0.png"],["E_Dist_300_LN_18_LD_30_RN_18_RD_20_1.png","E_Dist_300_LN_3_LD_10_RN_3_RD_5_1.png","E_Dist_300_LN_9_LD_20_RN_9_RD_12_1.png"]],"dist500_C":[["C_Dist_500_LN_10_LD_13_RN_7_RD_26_0.png","C_Dist_500_LN_10_LD_15_RN_4_RD_24_0.png","C_Dist_500_LN_12_LD_16_RN_3_RD_12_0.png","C_Dist_500_LN_12_LD_18_RN_4_RD_24_0.png","C_Dist_500_LN_15_LD_18_RN_5_RD_15_0.png","C_Dist_500_LN_15_LD_20_RN_1_RD_4_0.png","C_Dist_500_LN_18_LD_27_RN_1_RD_6_0.png","C_Dist_500_LN_20_LD_24_RN_1_RD_3_0.png","C_Dist_500_LN_20_LD_24_RN_3_RD_9_0.png","C_Dist_500_LN_20_LD_24_RN_7_RD_21_0.png","C_Dist_500_LN_20_LD_28_RN_3_RD_14_0.png","C_Dist_500_LN_21_LD_28_RN_6_RD_24_0.png","C_Dist_500_LN_22_LD_28_RN_2_RD_7_0.png","C_Dist_500_LN_25_LD_30_RN_9_RD_27_0.png","C_Dist_500_LN_4_LD_6_RN_1_RD_6_0.png","C_Dist_500_LN_5_LD_6_RN_2_RD_6_0.png","C_Dist_500_LN_6_LD_9_RN_1_RD_6_0.png","C_Dist_500_LN_7_LD_10_RN_1_RD_5_0.png","C_Dist_500_LN_8_LD_12_RN_1_RD_6_0.png","C_Dist_500_LN_8_LD_12_RN_4_RD_24_0.png"],["C_Dist_500_LN_1_LD_4_RN_12_RD_16_1.png","C_Dist_500_LN_1_LD_4_RN_9_RD_12_1.png","C_Dist_500_LN_1_LD_9_RN_11_RD_18_1.png","C_Dist_500_LN_10_LD_24_RN_22_RD_24_1.png","C_Dist_500_LN_2_LD_12_RN_10_RD_15_1.png","C_Dist_500_LN_2_LD_12_RN_12_RD_18_1.png","C_Dist_500_LN_2_LD_12_RN_4_RD_6_1.png","C_Dist_500_LN_2_LD_24_RN_7_RD_12_1.png","C_Dist_500_LN_2_LD_5_RN_18_RD_20_1.png","C_Dist_500_LN_2_LD_5_RN_9_RD_10_1.png","C_Dist_500_LN_2_LD_8_RN_12_RD_16_1.png","C_Dist_500_LN_2_LD_8_RN_21_RD_28_1.png","C_Dist_500_LN_3_LD_10_RN_4_RD_5_1.png","C_Dist_500_LN_3_LD_12_RN_15_RD_20_1.png","C_Dist_500_LN_3_LD_30_RN_6_RD_10_1.png","C_Dist_500_LN_3_LD_8_RN_14_RD_16_1.png","C_Dist_500_LN_4_LD_16_RN_15_RD_20_1.png","C_Dist_500_LN_4_LD_24_RN_12_RD_18_1.png","C_Dist_500_LN_5_LD_14_RN_6_RD_7_1.png","C_Dist_500_LN_7_LD_21_RN_20_RD_24_1.png","C_Dist_500_LN_7_LD_28_RN_12_RD_16_1.png","C_Dist_500_LN_7_LD_28_RN_9_RD_12_1.png","C_Dist_500_LN_9_LD_27_RN_20_RD_24_1.png"]],"dist500_I":[["I_Dist_500_LN_2_LD_3_RN_4_RD_24_0.png","I_Dist_500_LN_5_LD_6_RN_6_RD_18_0.png","I_Dist_500_LN_7_LD_8_RN_9_RD_24_0.png"],["I_Dist_500_LN_7_LD_21_RN_5_RD_6_1.png"]],"dist500_S":[["E_Dist_500_LN_6_LD_8_RN_6_RD_24_0.png"],["E_Dist_500_LN_2_LD_12_RN_2_RD_3_1.png","E_Dist_500_LN_6_LD_24_RN_6_RD_8_1.png"]]}},{"start_time":1551800568148,"click_time":1551800570471,"finger_time":1551800569870,"fix_duration":437.1349313745021,"trial":1,"RT":1722,"MT":601,"sideResp":1,"stimulus":[],"xmouse":[791,791,791,791,791,791,791,791,791,791,791,791,791,791,791,791,791,791,791,791,791,791,791,791,791,791,791,791,791,791,791,791,791,791,791,791,791,791,791,791,791,791,791,791,791,791,791,791,791,791,791,791,791,791,791,791,791,791,791,791,791,791,791,791,791,791,791,791,791,791,791,791,791,791,791,791,791,791,791,791,791,790,785,772,767,761,751,747,741,738,733,722,715,707,698,690,675,666,660,650,646,637,634,631,630,627,623,604,592,578,564,542,532,521,515,509,503],"ymouse":[521,521,521,521,521,521,521,521,521,521,521,521,521,521,521,521,521,521,521,521,521,521,521,521,521,521,521,521,521,521,521,521,521,521,521,521,521,521,521,521,521,521,521,521,521,521,521,521,521,521,521,521,521,521,521,521,521,521,521,521,521,521,521,521,521,521,521,521,521,521,521,521,521,521,521,521,521,521,521,521,521,517,509,496,489,480,468,462,454,450,443,427,417,408,398,388,375,363,353,339,331,316,310,305,300,294,285,253,236,220,199,169,155,137,122,110,96],"timestamp_mouse":[9,36,42,62,83,103,123,143,162,182,203,222,243,262,282,304,322,342,363,383,403,424,442,462,482,503,522,542,564,583,603,622,643,662,682,702,722,743,762,782,802,823,842,863,883,902,922,943,962,982,1002,1022,1043,1063,1082,1102,1123,1143,1163,1183,1203,1223,1242,1264,1282,1302,1323,1343,1362,1383,1403,1422,1443,1463,1483,1503,1522,1543,1562,1583,1602,1623,1643,1662,1683,1703,1722,1742,1762,1782,1802,1822,1842,1863,1882,1902,1923,1942,1962,1982,2004,2023,2042,2062,2083,2102,2122,2142,2162,2182,2203,2222,2242,2262,2283,2302,2322],"xSR":741.5,"ySR":469.95,"xT1":424.9,"yT1":0,"xT2":1058.1,"yT2":0,"toosoon":0,"cond_shown":"Congruent","ratio_trial":100,"L_num":11,"L_den":22,"R_num":6,"R_den":15,"correct_side":1,"subjID":"IsabellaGomezJaramillo24","gender":"1","school":"6","age":"11"},{"start_time":1551800571998,"click_time":1551800574371,"finger_time":1551800573670,"fix_duration":365.2213721736033,"trial":2,"RT":1672,"MT":701,"sideResp":1,"stimulus":[],"xmouse":[793,793,793,793,793,793,793,793,793,793,794,794,794,794,794,794,794,794,794,794,794,794,794,794,794,794,794,794,794,794,794,794,794,794,794,794,794,794,794,794,794,794,794,794,794,794,794,794,794,794,794,794,794,794,794,794,794,794,794,794,794,794,794,794,794,794,794,794,794,794,794,794,794,794,794,794,794,791,789,779,771,761,753,741,735,729,726,721,713,697,693,689,686,675,670,660,656,653,645,639,631,619,606,581,563,554,529,517,510,502,499,497,494,489,486,486,482,479,475],"ymouse":[521,521,521,521,521,521,521,521,521,521,521,521,521,521,521,521,521,521,521,521,521,521,521,521,521,521,521,521,521,521,521,521,521,521,521,521,521,521,521,521,521,521,521,521,521,521,521,521,521,521,521,521,521,521,521,521,521,521,521,521,521,521,521,521,523,523,523,523,523,523,523,523,523,523,523,523,523,521,518,508,502,494,487,477,468,458,453,447,438,419,412,407,401,379,370,352,342,333,317,307,292,273,253,222,203,197,175,165,159,152,149,146,142,135,127,124,116,110,99],"timestamp_mouse":[16,42,52,72,93,112,132,153,172,193,213,233,253,272,293,312,333,353,372,393,412,432,453,474,492,513,533,552,572,592,612,633,653,672,693,713,732,752,773,793,812,832,853,872,892,913,932,952,973,993,1013,1032,1052,1072,1092,1112,1132,1152,1172,1192,1212,1232,1253,1273,1294,1312,1333,1353,1374,1393,1412,1433,1453,1473,1493,1512,1533,1553,1572,1592,1612,1632,1653,1672,1692,1713,1732,1753,1773,1793,1814,1833,1852,1873,1892,1912,1933,1952,1973,1993,2012,2032,2053,2072,2092,2113,2132,2153,2173,2192,2212,2232,2252,2272,2292,2312,2334,2354,2373],"xSR":741.5,"ySR":469.95,"xT1":424.9,"yT1":0,"xT2":1058.1,"yT2":0,"toosoon":0,"cond_shown":"Congruent","ratio_trial":300,"L_num":9,"L_den":10,"R_num":3,"R_den":5,"correct_side":1,"subjID":"IsabellaGomezJaramillo24","gender":"1","school":"6","age":"11"},{"start_time":1551800576566,"click_time":1551800579590,"finger_time":1551800579390,"fix_duration":1093.0038939233034,"trial":3,"RT":2824,"MT":200,"sideResp":1,"stimulus":[],"xmouse":[812,812,812,812,812,812,812,812,812,812,812,812,812,812,812,812,812,812,812,812,812,812,812,812,812,812,812,812,812,812,812,812,812,812,812,812,812,812,812,812,812,812,812,812,812,812,812,812,812,812,812,812,812,812,812,812,812,812,812,812,812,812,812,812,812,812,812,812,812,812,812,812,812,812,812,812,812,812,812,812,812,812,812,812,812,812,812,812,812,812,812,812,812,812,812,812,812,812,812,812,812,812,812,812,812,812,812,812,812,812,812,812,812,812,812,812,812,812,812,812,812,812,812,812,812,812,812,812,812,812,812,812,812,812,812,812,812,811,800,786,756,748,742,737,727,694,674,640,609,582,555,515],"ymouse":[532,532,532,532,532,532,532,532,532,532,532,532,532,532,532,532,532,532,532,532,532,532,532,532,532,532,532,532,532,532,532,532,532,532,532,532,532,532,532,532,532,532,532,532,532,532,532,532,532,532,532,532,532,532,532,532,532,532,532,532,532,532,532,532,532,532,532,532,532,532,532,532,532,532,532,532,532,532,533,533,533,533,533,533,533,533,533,533,533,533,533,533,533,533,533,533,533,533,533,533,533,533,533,533,533,533,533,533,533,533,533,533,533,533,533,533,533,533,533,533,533,533,533,533,533,533,533,533,533,533,533,533,533,533,533,533,533,533,522,507,474,462,447,429,389,289,244,187,148,118,93,57],"timestamp_mouse":[8,25,45,65,84,105,125,145,164,184,204,225,244,265,284,304,325,344,365,385,405,424,444,464,485,505,526,544,564,584,604,625,644,665,686,705,724,744,765,784,805,824,844,864,885,904,925,944,964,985,1004,1025,1044,1064,1084,1104,1125,1144,1165,1184,1204,1225,1245,1264,1285,1305,1325,1344,1364,1384,1404,1425,1444,1464,1485,1505,1525,1545,1564,1584,1604,1625,1644,1664,1684,1704,1724,1745,1764,1784,1804,1824,1845,1864,1884,1904,1925,1945,1965,1985,2004,2024,2044,2064,2086,2104,2124,2144,2164,2184,2205,2224,2244,2264,2285,2304,2324,2345,2364,2385,2405,2426,2444,2464,2486,2504,2524,2544,2565,2585,2605,2624,2644,2664,2685,2705,2724,2744,2765,2784,2805,2824,2844,2865,2884,2905,2924,2945,2964,2985,3004,3024],"xSR":741.5,"ySR":469.95,"xT1":424.9,"yT1":0,"xT2":1058.1,"yT2":0,"toosoon":0,"cond_shown":"Incongruent","ratio_trial":100,"L_num":3,"L_den":6,"R_num":4,"R_den":10,"correct_side":1,"subjID":"IsabellaGomezJaramillo24","gender":"1","school":"6","age":"11"},{"start_time":1551800580781,"click_time":1551800584691,"finger_time":1551800584290,"fix_duration":250,"trial":4,"RT":3509,"MT":401,"sideResp":1,"stimulus":[],"xmouse":[781,781,781,781,781,781,780,780,780,780,780,780,780,780,780,780,780,780,780,780,780,780,780,780,780,780,780,780,780,780,780,780,780,780,780,780,780,780,780,780,780,780,780,780,780,780,780,780,780,780,780,780,780,780,780,780,780,780,780,780,780,780,780,780,780,780,780,780,780,780,780,780,780,780,780,780,780,780,780,780,780,780,780,780,780,780,780,780,780,780,780,780,780,780,780,780,780,780,780,780,780,780,780,780,780,780,780,780,780,780,780,780,780,780,780,780,780,780,780,780,780,780,780,780,780,780,780,780,780,780,780,780,780,780,780,780,780,780,780,780,780,780,780,780,780,780,780,780,780,780,780,780,780,780,780,780,780,780,780,780,780,780,780,780,780,780,780,778,777,772,769,766,763,759,747,732,718,706,695,685,664,654,646,639,633,622,609,601,594,570,555,540,526,517,511,509],"ymouse":[550,550,550,544,538,536,534,533,533,533,533,533,533,533,533,533,533,533,533,533,533,533,533,533,533,533,533,533,533,533,533,533,533,533,533,533,533,533,533,533,533,533,533,533,533,533,533,533,533,533,533,533,533,533,533,533,533,533,533,533,533,533,533,533,533,533,533,533,533,533,533,533,533,533,533,533,533,533,533,533,533,533,533,533,533,533,533,533,533,533,533,533,533,533,533,533,533,533,533,533,533,533,533,533,533,533,533,533,533,533,533,533,533,533,533,533,533,533,533,533,533,533,533,533,533,533,533,533,533,533,533,533,533,533,533,533,533,533,533,533,533,533,533,533,533,533,533,533,533,533,533,533,533,533,533,533,533,533,533,533,533,533,533,533,533,533,531,526,521,515,510,506,501,495,477,451,427,399,375,355,319,302,287,276,267,245,225,210,199,173,156,141,128,118,105,98],"timestamp_mouse":[9,39,50,70,89,110,129,149,169,189,209,229,250,270,290,309,329,349,369,389,410,431,450,469,490,509,530,549,569,590,610,630,649,669,690,709,729,750,769,790,809,829,850,869,890,910,929,949,969,990,1009,1029,1049,1070,1089,1110,1129,1149,1169,1189,1210,1229,1250,1271,1290,1310,1329,1350,1370,1390,1409,1429,1449,1470,1490,1510,1529,1550,1569,1589,1609,1630,1649,1669,1690,1710,1731,1749,1769,1789,1809,1829,1851,1869,1889,1909,1929,1950,1969,1991,2009,2029,2049,2069,2090,2109,2129,2149,2170,2191,2209,2229,2249,2269,2290,2311,2329,2349,2369,2389,2411,2429,2449,2469,2489,2510,2530,2550,2570,2589,2609,2630,2649,2669,2690,2709,2729,2751,2769,2790,2809,2829,2849,2870,2889,2910,2929,2950,2969,2990,3011,3030,3051,3070,3090,3109,3129,3149,3169,3189,3209,3229,3251,3269,3290,3309,3329,3349,3369,3390,3410,3429,3450,3469,3489,3509,3530,3550,3570,3589,3609,3629,3649,3669,3689,3709,3730,3749,3770,3790,3809,3829,3850,3870,3890,3910],"xSR":741.5,"ySR":469.95,"xT1":424.9,"yT1":0,"xT2":1058.1,"yT2":0,"toosoon":0,"cond_shown":"Incongruent","ratio_trial":100,"L_num":11,"L_den":22,"R_num":9,"R_den":15,"correct_side":2,"subjID":"IsabellaGomezJaramillo24","gender":"1","school":"6","age":"11"},{"start_time":1551800587301,"click_time":1551800589470,"finger_time":1551800588970,"fix_duration":250,"trial":5,"RT":1669,"MT":500,"sideResp":2,"stimulus":[],"xmouse":[789,789,789,789,789,789,789,789,789,789,789,789,789,789,789,789,789,789,789,789,789,789,789,789,789,789,789,789,789,789,789,789,789,789,789,789,789,789,789,789,789,789,789,789,789,789,789,789,789,789,789,789,789,789,789,789,789,789,789,789,789,789,789,789,789,789,789,789,789,789,789,789,789,789,789,789,789,789,789,797,816,830,840,848,850,852,855,860,874,881,893,899,906,915,922,931,941,956,973,992,999,1003,1007,1020,1029,1037,1045,1050,1059],"ymouse":[525,525,525,525,525,525,525,525,525,525,525,525,525,525,525,525,525,525,525,525,525,525,525,525,525,525,525,525,525,525,525,525,525,525,525,525,525,525,525,525,525,525,525,525,525,525,525,525,525,525,525,525,525,525,525,525,525,525,525,525,525,525,525,525,525,525,525,525,525,525,525,525,525,525,525,525,525,525,525,520,505,493,484,476,472,465,459,448,425,411,389,372,355,325,307,289,268,240,212,180,168,163,156,138,129,119,110,103,92],"timestamp_mouse":[9,33,50,70,89,110,130,149,169,189,210,230,249,269,289,311,329,349,369,390,409,430,449,469,490,510,530,549,570,589,610,630,649,670,689,709,730,750,769,789,810,830,850,870,889,910,930,949,970,990,1009,1031,1050,1069,1089,1110,1130,1149,1169,1189,1210,1230,1249,1269,1290,1309,1329,1349,1369,1389,1410,1429,1450,1469,1491,1509,1530,1550,1569,1590,1610,1630,1649,1669,1689,1709,1730,1750,1770,1790,1809,1829,1850,1870,1889,1910,1930,1949,1970,1990,2009,2029,2050,2070,2089,2109,2131,2149,2169],"xSR":741.5,"ySR":469.95,"xT1":424.9,"yT1":0,"xT2":1058.1,"yT2":0,"toosoon":0,"cond_shown":"Incongruent","ratio_trial":200,"L_num":4,"L_den":6,"R_num":14,"R_den":30,"correct_side":1,"subjID":"IsabellaGomezJaramillo24","gender":"1","school":"6","age":"11"},{"start_time":1551800590722,"click_time":1551800592771,"finger_time":1551800592290,"fix_duration":250,"trial":6,"RT":1568,"MT":481,"sideResp":2,"stimulus":[],"xmouse":[764,764,764,764,764,764,764,764,764,765,766,767,768,769,769,769,769,769,769,769,769,769,769,769,769,769,769,769,769,769,769,769,769,769,769,769,769,769,769,769,769,769,769,769,769,769,769,769,769,769,769,769,769,769,769,769,769,769,769,769,769,769,769,769,769,769,769,769,769,769,769,769,769,769,771,776,787,821,843,872,887,902,916,946,960,974,983,1014,1019,1027,1034,1042,1059,1064,1068,1070,1071,1072,1074,1076,1078,1080,1089],"ymouse":[536,536,535,535,535,535,535,535,535,535,535,535,534,533,533,533,533,533,533,533,533,533,533,533,533,533,533,533,533,533,533,533,533,533,533,533,533,533,533,533,533,533,533,533,533,533,533,533,533,533,533,533,533,533,533,533,533,533,533,533,533,533,533,533,533,533,533,533,533,533,533,533,533,533,531,525,514,480,461,436,424,410,398,357,335,314,295,236,226,196,178,160,129,121,117,114,113,112,111,109,108,105,94],"timestamp_mouse":[8,33,48,68,89,109,130,148,168,189,209,228,249,268,288,308,328,349,368,388,408,428,449,469,488,508,528,548,569,588,610,628,648,668,689,708,729,748,768,788,808,829,849,868,889,909,929,949,969,988,1009,1028,1049,1069,1089,1109,1128,1149,1168,1189,1208,1228,1248,1269,1288,1309,1329,1349,1368,1388,1409,1429,1448,1470,1488,1508,1529,1548,1568,1588,1608,1629,1649,1668,1688,1709,1728,1750,1768,1788,1808,1829,1848,1868,1889,1909,1928,1948,1968,1988,2008,2029,2049],"xSR":741.5,"ySR":469.95,"xT1":424.9,"yT1":0,"xT2":1058.1,"yT2":0,"toosoon":0,"cond_shown":"Congruent","ratio_trial":100,"L_num":1,"L_den":2,"R_num":3,"R_den":5,"correct_side":2,"subjID":"IsabellaGomezJaramillo24","gender":"1","school":"6","age":"11"},{"start_time":1551800594720,"click_time":1551800604970,"finger_time":1551800604490,"fix_duration":966.4216594480276,"trial":7,"RT":9770,"MT":480,"sideResp":1,"stimulus":[],"xmouse":[805,805,805,805,805,805,805,805,805,805,805,805,803,802,802,802,802,802,802,802,802,802,802,802,802,802,802,802,802,802,802,802,802,802,802,802,802,802,802,802,802,802,802,802,802,802,802,802,802,802,802,802,802,802,802,802,802,802,802,802,802,802,802,802,802,802,802,802,802,802,802,802,802,802,802,802,802,802,802,802,802,802,802,802,802,802,802,802,802,802,802,802,802,802,802,802,802,802,802,802,802,802,802,802,802,802,802,802,802,802,802,802,802,802,801,801,801,801,801,801,801,801,801,801,801,801,801,801,801,801,801,801,801,801,801,801,801,801,801,801,801,801,801,801,801,801,801,801,801,801,801,801,801,801,801,801,801,801,801,801,801,801,801,801,801,801,801,801,801,801,801,801,801,801,801,801,801,801,801,801,801,801,801,801,801,801,801,801,801,801,801,801,801,801,801,801,801,801,801,801,801,801,801,801,801,801,801,801,801,801,801,801,801,801,801,801,801,801,801,801,801,801,801,801,801,801,801,801,801,801,801,801,801,801,801,801,801,801,801,801,801,801,801,801,801,801,801,801,801,801,801,801,801,801,801,801,801,801,801,801,801,801,801,801,801,801,801,801,801,801,801,801,801,801,801,801,801,801,801,801,801,801,801,801,801,801,801,801,801,801,801,801,801,801,801,801,801,801,801,801,801,801,801,801,801,801,801,801,801,801,801,801,801,801,801,801,801,801,801,801,801,801,801,801,801,801,801,801,801,801,801,801,801,801,801,801,801,801,801,801,801,801,801,801,801,801,801,801,801,801,801,801,801,801,801,801,801,801,801,801,801,801,801,801,801,801,801,801,801,801,801,801,801,801,801,801,801,801,801,801,801,801,801,801,801,801,801,801,801,801,801,801,801,801,801,801,801,801,801,801,801,801,801,801,801,801,801,801,801,801,801,801,801,801,801,801,801,801,801,801,801,801,801,801,801,801,801,801,801,801,801,801,801,801,801,801,801,801,801,801,801,801,801,801,801,801,801,801,801,801,801,801,801,801,801,801,801,801,801,801,801,801,801,801,801,801,801,801,801,801,801,801,801,801,801,801,801,801,801,801,801,801,801,801,801,801,807,814,849,850,849,848,848,848,848,848,846,836,832,825,812,796,790,789,786,781,773,741,708,635,591,549,522],"ymouse":[529,529,529,529,529,529,529,529,529,529,529,529,530,531,531,531,531,531,531,531,531,531,531,531,531,531,531,531,531,531,531,531,531,531,531,531,531,531,531,531,531,531,531,531,531,531,531,531,531,531,531,531,531,531,531,531,531,531,531,531,531,531,531,531,531,531,531,531,531,531,531,531,531,531,531,531,531,531,531,531,531,531,531,531,531,531,531,531,531,531,531,531,531,531,531,531,531,531,531,531,531,531,531,531,531,531,531,531,531,531,531,531,531,531,531,531,531,531,531,531,531,531,531,531,531,531,531,531,531,531,531,531,531,531,531,531,531,531,531,531,531,531,531,531,531,531,531,531,531,531,531,531,531,531,531,531,531,531,531,531,531,531,531,531,531,531,531,531,531,531,531,531,531,531,531,531,531,531,531,531,531,531,531,531,531,531,531,531,531,531,531,531,531,531,531,531,531,531,531,531,531,531,531,531,531,531,531,531,531,531,531,531,531,531,531,531,531,531,531,531,531,531,531,531,531,531,531,531,531,531,531,531,531,531,531,531,531,531,531,531,531,531,531,531,531,531,531,531,531,531,531,531,531,531,531,531,531,531,531,531,531,531,531,531,531,531,531,531,531,531,531,531,531,531,531,531,531,531,531,531,531,531,531,531,531,531,531,531,531,531,531,531,531,531,531,531,531,531,531,531,531,531,531,531,531,531,531,531,531,531,531,531,531,531,531,531,531,531,531,531,531,531,531,531,531,531,531,531,531,531,531,531,531,531,531,531,531,531,531,531,531,531,531,531,531,531,531,531,531,531,531,531,531,531,531,531,531,531,531,531,531,531,531,531,531,531,531,531,531,531,531,531,531,531,531,531,531,531,531,531,531,531,531,531,531,531,531,531,531,531,531,531,531,531,531,531,531,531,531,531,531,531,531,531,531,531,531,531,531,531,531,531,531,531,531,531,531,531,531,531,531,531,531,531,531,531,531,531,531,531,531,531,531,531,531,531,531,531,531,531,531,531,531,531,531,531,531,531,531,531,531,531,531,531,531,531,531,531,531,531,531,531,531,531,531,531,531,531,531,531,531,531,531,531,531,531,531,531,531,531,531,531,531,531,531,531,528,520,474,461,458,458,458,458,458,458,458,448,446,445,440,432,428,427,426,423,417,374,329,240,172,117,81],"timestamp_mouse":[11,33,51,70,90,111,131,150,170,190,211,231,251,271,291,311,331,350,370,390,411,431,452,471,491,511,532,551,570,591,612,631,650,671,691,710,731,750,771,790,811,830,850,870,891,910,931,951,971,990,1010,1030,1051,1071,1092,1110,1131,1150,1171,1191,1211,1231,1251,1270,1291,1310,1330,1350,1370,1392,1410,1430,1451,1470,1490,1510,1531,1550,1572,1591,1611,1632,1650,1671,1691,1711,1730,1752,1770,1790,1811,1831,1851,1871,1891,1911,1931,1951,1972,1990,2010,2030,2051,2070,2092,2111,2130,2151,2171,2190,2212,2231,2251,2270,2290,2310,2330,2351,2372,2391,2411,2430,2451,2471,2491,2510,2530,2551,2570,2591,2610,2631,2650,2671,2692,2711,2730,2750,2770,2791,2810,2830,2850,2872,2892,2910,2930,2952,2970,2990,3010,3030,3051,3071,3091,3110,3131,3151,3170,3190,3211,3230,3250,3271,3290,3310,3330,3351,3370,3391,3411,3432,3451,3471,3490,3510,3530,3550,3571,3591,3610,3630,3650,3671,3691,3710,3731,3751,3770,3790,3811,3830,3851,3871,3890,3910,3931,3951,3970,3992,4011,4031,4051,4072,4090,4111,4131,4150,4170,4191,4211,4230,4252,4271,4291,4310,4331,4351,4370,4390,4410,4430,4451,4471,4490,4510,4530,4550,4571,4590,4611,4631,4650,4671,4691,4710,4731,4751,4772,4790,4811,4830,4851,4870,4890,4910,4932,4951,4971,4990,5010,5030,5050,5071,5090,5110,5130,5150,5170,5190,5210,5230,5250,5271,5291,5311,5330,5350,5370,5391,5412,5430,5450,5470,5491,5510,5530,5552,5570,5591,5611,5632,5650,5670,5691,5710,5731,5750,5770,5790,5811,5830,5851,5871,5891,5910,5930,5950,5971,5991,6011,6030,6050,6070,6092,6110,6131,6150,6171,6191,6210,6230,6250,6270,6291,6310,6331,6351,6372,6391,6410,6430,6451,6471,6492,6510,6531,6550,6572,6591,6611,6631,6650,6670,6691,6710,6731,6750,6770,6791,6811,6830,6851,6871,6890,6911,6931,6951,6970,6990,7011,7031,7050,7070,7090,7110,7131,7151,7171,7191,7210,7231,7252,7271,7290,7311,7331,7350,7371,7391,7411,7431,7451,7471,7491,7512,7530,7550,7571,7591,7611,7631,7652,7671,7691,7711,7731,7751,7770,7790,7811,7831,7850,7871,7891,7910,7931,7951,7971,7990,8010,8030,8052,8070,8090,8110,8131,8150,8170,8191,8210,8231,8251,8271,8290,8311,8330,8351,8371,8390,8411,8432,8450,8471,8490,8510,8531,8551,8570,8591,8610,8630,8650,8670,8690,8711,8731,8751,8772,8791,8811,8830,8850,8871,8890,8910,8931,8950,8970,8990,9011,9031,9050,9070,9092,9110,9130,9150,9171,9192,9210,9230,9250,9270,9291,9310,9330,9351,9370,9391,9411,9431,9450,9470,9490,9511,9530,9551,9571,9591,9611,9631,9650,9670,9691,9710,9731,9750,9770,9790,9810,9831,9851,9871,9890,9911,9930,9950,9970,9991,10011,10030,10050,10070,10090,10111,10131,10150,10171,10190,10211,10230,10250],"xSR":741.5,"ySR":469.95,"xT1":424.9,"yT1":0,"xT2":1058.1,"yT2":0,"toosoon":0,"cond_shown":"Incongruent","ratio_trial":300,"L_num":13,"L_den":26,"R_num":12,"R_den":15,"correct_side":2,"subjID":"IsabellaGomezJaramillo24","gender":"1","school":"6","age":"11"},{"start_time":1551800607984,"click_time":1551800610251,"finger_time":1551800609731,"fix_duration":611.3282927132442,"trial":8,"RT":1747,"MT":520,"sideResp":2,"stimulus":[],"xmouse":[791,791,791,791,791,791,791,791,791,791,791,791,791,791,791,791,791,791,791,791,791,791,791,791,791,791,791,791,791,791,791,791,791,791,791,791,791,791,791,791,791,791,791,791,791,791,791,791,791,791,791,791,791,791,791,791,791,791,791,791,791,791,791,791,791,791,791,791,791,791,791,791,791,791,791,791,791,791,794,802,804,806,808,810,820,824,836,852,866,878,922,948,973,1002,1038,1049,1060,1064,1068,1075,1077,1079,1080,1080,1081,1083,1089,1094,1097,1102,1104,1107,1111,1119],"ymouse":[539,539,539,539,539,539,539,539,539,539,539,539,539,539,539,539,539,539,539,539,539,539,539,539,539,539,539,539,539,539,539,539,539,539,539,539,539,539,539,539,539,539,539,539,539,539,539,539,539,539,539,539,539,539,539,539,539,539,539,539,539,539,539,539,539,539,539,539,539,539,539,539,539,539,539,539,539,538,535,527,524,522,519,517,507,504,497,484,474,459,400,368,341,319,287,275,254,245,236,216,205,197,190,184,175,166,154,141,132,121,117,111,100,84],"timestamp_mouse":[9,36,46,66,87,107,127,146,168,187,207,226,246,267,286,307,327,348,366,387,406,426,446,467,487,506,527,547,567,587,606,627,646,667,687,706,726,747,768,786,806,827,846,867,887,906,926,946,966,986,1006,1026,1046,1066,1088,1107,1126,1146,1166,1186,1206,1226,1246,1266,1286,1306,1327,1346,1366,1386,1406,1428,1446,1466,1487,1507,1527,1546,1566,1586,1607,1626,1647,1667,1687,1707,1726,1747,1766,1786,1807,1826,1846,1866,1887,1906,1927,1946,1966,1986,2006,2026,2046,2066,2086,2106,2127,2147,2166,2187,2207,2226,2247,2266],"xSR":741.5,"ySR":469.95,"xT1":424.9,"yT1":0,"xT2":1058.1,"yT2":0,"toosoon":0,"cond_shown":"Incongruent","ratio_trial":200,"L_num":7,"L_den":10,"R_num":14,"R_den":28,"correct_side":1,"subjID":"IsabellaGomezJaramillo24","gender":"1","school":"6","age":"11"},{"start_time":1551800614033,"click_time":1551800616430,"finger_time":1551800616131,"fix_duration":721.2914622113838,"trial":9,"RT":2098,"MT":299,"sideResp":2,"stimulus":[],"xmouse":[796,796,795,795,794,794,794,794,794,794,794,794,794,794,794,794,794,794,794,794,794,794,794,794,794,794,794,794,794,794,794,794,794,794,794,794,794,794,794,794,794,794,794,794,794,794,794,794,794,794,794,794,794,794,794,794,794,794,794,794,794,794,794,794,794,794,794,794,794,794,794,794,794,794,794,794,794,794,794,794,794,794,794,794,794,794,794,794,794,794,794,794,794,794,794,794,794,794,794,794,794,794,794,816,904,1071,1193,1194,1196,1205,1214,1224,1235,1237,1236,1218,1161,1122,1098,1084],"ymouse":[514,515,519,519,519,519,519,519,519,519,519,519,519,519,519,519,519,519,519,519,519,519,519,519,519,519,519,519,519,519,519,519,519,519,519,519,519,519,519,519,519,519,519,519,519,519,519,519,519,519,519,519,519,519,519,519,519,519,519,519,519,519,519,519,519,519,519,519,519,519,519,519,519,519,519,519,519,519,519,519,519,519,519,519,519,519,519,519,519,519,519,519,519,519,519,519,519,519,519,519,519,519,519,505,439,321,227,223,220,214,211,207,200,198,195,184,149,123,102,84],"timestamp_mouse":[17,37,57,78,97,118,138,158,177,198,217,238,258,279,297,317,338,359,378,398,418,438,457,477,498,518,538,557,577,597,618,637,658,677,697,718,738,758,777,798,818,837,858,878,898,917,938,959,978,998,1017,1037,1058,1077,1098,1117,1138,1158,1178,1198,1217,1238,1259,1277,1297,1317,1338,1357,1378,1397,1418,1437,1457,1477,1497,1518,1537,1559,1577,1597,1617,1637,1658,1679,1697,1718,1737,1758,1777,1797,1817,1839,1857,1878,1898,1917,1937,1957,1977,1998,2017,2038,2058,2077,2098,2118,2138,2157,2177,2197,2217,2237,2257,2277,2298,2318,2338,2357,2378,2397],"xSR":741.5,"ySR":469.95,"xT1":424.9,"yT1":0,"xT2":1058.1,"yT2":0,"toosoon":0,"cond_shown":"Incongruent","ratio_trial":200,"L_num":3,"L_den":4,"R_num":11,"R_den":20,"correct_side":1,"subjID":"IsabellaGomezJaramillo24","gender":"1","school":"6","age":"11"},{"start_time":1551800649359,"click_time":1551800651871,"finger_time":1551800651651,"fix_duration":1126.6179358850034,"trial":10,"RT":2292,"MT":220,"sideResp":1,"stimulus":[],"xmouse":[783,783,783,783,783,783,783,783,783,783,783,783,783,783,783,783,783,783,783,783,783,783,783,783,783,783,783,783,783,783,783,783,783,783,783,783,783,783,783,783,783,783,783,783,783,783,783,783,783,783,783,783,783,783,783,783,783,783,783,783,783,783,783,783,783,783,783,783,783,783,783,783,783,783,783,783,783,783,783,783,783,783,783,783,783,783,783,783,783,783,783,783,783,783,783,783,783,783,783,783,783,783,783,783,783,783,780,779,778,777,776,776,777,774,766,760,740,717,699,686,672,642,617,586,552,493],"ymouse":[541,541,541,541,541,541,541,541,541,541,541,541,541,541,541,541,541,541,541,541,541,541,541,541,541,541,541,541,541,541,541,541,541,541,541,541,541,541,541,541,541,541,541,541,541,541,541,541,541,541,541,541,541,541,541,541,541,541,541,541,541,541,541,541,541,541,541,541,541,541,541,541,541,541,541,541,541,541,541,541,541,541,541,541,541,541,541,541,541,541,541,541,541,541,541,541,541,541,541,541,541,541,541,541,541,541,539,538,536,534,524,517,502,485,469,453,409,357,323,298,273,223,187,156,129,83],"timestamp_mouse":[11,44,51,71,93,111,132,151,171,191,212,232,251,272,292,311,332,351,372,391,411,431,451,471,492,512,532,551,571,592,611,631,653,672,691,713,732,752,772,792,811,831,851,871,893,911,931,952,971,992,1012,1031,1051,1071,1091,1112,1131,1152,1171,1191,1213,1231,1252,1271,1292,1312,1332,1351,1373,1392,1412,1433,1452,1472,1492,1513,1532,1552,1571,1591,1612,1632,1651,1673,1691,1712,1732,1752,1772,1792,1813,1832,1852,1873,1891,1911,1931,1952,1972,1993,2012,2032,2051,2072,2092,2112,2131,2152,2171,2193,2212,2232,2252,2272,2292,2312,2333,2351,2372,2393,2412,2431,2451,2471,2492,2512],"xSR":741.5,"ySR":469.95,"xT1":424.9,"yT1":0,"xT2":1058.1,"yT2":0,"toosoon":0,"cond_shown":"Congruent","ratio_trial":200,"L_num":15,"L_den":25,"R_num":4,"R_den":10,"correct_side":1,"subjID":"IsabellaGomezJaramillo24","gender":"1","school":"6","age":"11"},{"start_time":1551800654157,"click_time":1551800655732,"finger_time":1551800655171,"fix_duration":1244.925772996519,"trial":11,"RT":1014,"MT":561,"sideResp":2,"stimulus":[],"xmouse":[804,804,804,804,804,804,804,804,804,804,804,804,804,804,804,804,804,804,804,804,804,804,804,804,804,804,804,804,804,804,804,804,804,804,804,804,804,805,805,805,805,805,805,805,805,805,805,805,809,820,847,857,865,869,871,872,873,874,878,884,908,928,948,960,968,993,997,1016,1027,1036,1042,1044,1045,1046,1048,1051,1055,1057,1061],"ymouse":[536,536,536,536,536,536,536,536,536,536,536,536,536,536,536,536,536,536,536,536,536,536,536,536,536,536,536,536,536,536,536,536,536,536,536,536,532,527,520,520,520,520,520,520,520,520,520,520,515,501,458,442,428,420,413,408,407,399,385,370,310,261,225,204,189,149,143,119,103,89,80,74,71,68,65,63,57,54,51],"timestamp_mouse":[14,34,60,73,94,113,134,153,175,194,213,233,253,273,293,315,334,354,374,394,414,435,453,474,493,513,534,553,573,594,614,633,653,673,695,713,733,754,773,793,815,833,854,875,893,914,933,953,974,993,1014,1034,1053,1074,1093,1113,1133,1154,1174,1194,1214,1233,1253,1273,1294,1315,1334,1353,1374,1394,1413,1433,1454,1474,1494,1513,1533,1554,1575],"xSR":741.5,"ySR":469.95,"xT1":424.9,"yT1":0,"xT2":1058.1,"yT2":0,"toosoon":0,"cond_shown":"Congruent","ratio_trial":300,"L_num":4,"L_den":20,"R_num":13,"R_den":26,"correct_side":2,"subjID":"IsabellaGomezJaramillo24","gender":"1","school":"6","age":"11"},{"start_time":1551800658230,"click_time":1551800665190,"finger_time":1551800664971,"fix_duration":899.2591295031191,"trial":12,"RT":6741,"MT":219,"sideResp":1,"stimulus":[],"xmouse":[798,798,798,798,798,798,798,798,798,798,798,798,798,798,798,798,798,798,798,798,798,798,798,798,798,798,798,798,798,798,798,798,798,798,798,798,798,798,798,798,798,798,798,798,798,798,798,798,798,798,798,798,798,798,798,798,798,798,798,798,798,798,798,798,798,798,798,798,798,798,798,798,798,798,798,798,798,798,798,798,798,798,798,798,798,798,798,798,798,798,798,798,798,798,798,798,798,798,798,798,798,798,798,798,798,798,798,798,798,798,798,798,798,798,798,798,798,798,798,798,798,798,798,798,798,798,798,798,798,798,798,798,798,798,798,798,798,798,798,798,798,798,798,798,798,798,798,798,798,798,798,798,798,798,798,798,798,798,798,798,798,798,798,798,798,798,798,798,798,798,798,798,798,798,798,798,798,798,798,798,798,798,798,798,798,798,798,798,798,798,798,798,798,798,798,798,798,798,798,798,798,798,798,798,798,798,798,798,798,798,798,798,798,798,798,798,798,798,798,798,798,798,798,798,798,798,798,798,798,798,798,798,798,798,798,798,798,798,798,798,798,798,798,798,798,798,798,798,798,798,798,798,798,798,798,798,798,798,798,798,798,798,798,798,798,798,798,798,798,798,798,798,798,798,798,798,798,798,798,798,798,798,798,798,798,798,798,798,798,798,798,798,798,798,798,798,798,798,798,798,798,798,798,798,798,798,798,798,798,798,798,798,798,798,798,798,797,796,796,796,796,796,796,796,796,796,796,796,796,796,796,796,793,784,772,753,697,677,669,666,662,655,645,630,606,571,537,490],"ymouse":[527,527,527,527,527,527,527,527,527,527,527,527,527,527,527,527,527,527,527,527,527,527,527,527,527,527,527,527,527,527,527,527,527,527,527,527,527,527,527,527,527,527,527,527,527,527,527,527,527,527,527,527,527,527,527,527,527,527,527,527,527,527,527,527,527,527,527,527,527,527,527,527,527,527,527,527,527,527,527,527,527,527,527,527,527,527,527,527,527,527,527,527,527,527,527,527,527,527,527,527,527,527,527,527,527,527,527,527,527,527,527,527,527,527,527,527,527,527,527,527,527,527,527,527,527,527,527,527,527,527,527,527,527,527,527,527,527,527,527,527,527,527,527,527,527,527,527,527,527,527,527,527,527,527,527,527,527,527,527,527,527,527,527,527,527,527,527,527,526,526,526,526,526,526,526,526,526,526,526,526,526,526,526,526,526,526,526,526,526,526,526,526,526,526,526,526,526,526,526,526,526,526,526,526,526,526,526,526,526,526,526,526,526,526,526,526,526,526,526,526,526,526,526,526,526,526,526,526,526,526,526,526,526,526,526,526,526,526,526,526,526,526,526,526,526,526,526,526,526,526,526,526,526,526,526,526,526,526,526,526,526,526,526,526,526,526,526,526,526,526,526,526,526,526,526,526,526,526,526,526,526,526,526,526,526,526,526,526,526,526,526,526,526,526,526,526,526,526,526,526,526,526,526,525,523,523,523,523,523,523,523,523,523,523,523,523,520,519,519,519,519,519,519,519,519,519,519,519,519,519,519,519,515,506,496,481,438,423,413,409,402,387,364,336,294,235,179,94],"timestamp_mouse":[12,41,61,80,100,121,140,160,182,200,221,241,260,280,300,320,341,360,380,400,420,441,462,480,500,522,541,561,580,600,621,641,661,681,700,721,740,761,780,801,820,841,861,880,901,920,941,960,982,1000,1020,1040,1061,1080,1101,1121,1141,1161,1180,1200,1220,1240,1260,1280,1300,1320,1340,1360,1381,1400,1420,1441,1461,1480,1500,1521,1540,1560,1580,1601,1621,1641,1660,1680,1701,1720,1740,1760,1782,1800,1820,1841,1862,1891,1900,1921,1942,1960,1980,2001,2020,2040,2060,2081,2100,2121,2141,2162,2180,2201,2221,2240,2262,2280,2300,2321,2341,2362,2380,2402,2421,2440,2462,2481,2500,2520,2541,2560,2582,2601,2620,2640,2661,2681,2700,2721,2741,2761,2780,2800,2820,2840,2860,2880,2900,2921,2940,2960,2982,3001,3021,3042,3060,3080,3101,3120,3141,3160,3180,3200,3222,3242,3261,3281,3302,3321,3340,3360,3380,3402,3421,3440,3461,3480,3500,3521,3540,3562,3581,3602,3620,3641,3661,3682,3701,3721,3741,3762,3781,3801,3822,3840,3860,3880,3901,3920,3940,3962,3981,4001,4020,4041,4060,4080,4102,4121,4141,4161,4182,4200,4221,4240,4261,4280,4302,4321,4341,4361,4380,4401,4420,4442,4461,4481,4501,4521,4540,4561,4581,4602,4620,4640,4661,4682,4701,4721,4742,4761,4781,4800,4820,4841,4860,4880,4901,4922,4941,4961,4981,5001,5022,5040,5060,5081,5102,5120,5140,5161,5182,5200,5220,5240,5262,5282,5300,5321,5340,5360,5381,5400,5421,5440,5461,5481,5502,5520,5540,5561,5581,5601,5620,5642,5660,5681,5701,5722,5741,5761,5780,5801,5821,5841,5860,5882,5902,5920,5941,5960,5981,6000,6020,6041,6062,6080,6101,6121,6140,6161,6182,6200,6220,6240,6261,6280,6300,6320,6340,6361,6380,6401,6421,6441,6461,6481,6500,6522,6541,6562,6581,6600,6621,6641,6660,6680,6700,6720,6741,6761,6780,6800,6821,6841,6860,6880,6901,6921,6940,6960],"xSR":741.5,"ySR":469.95,"xT1":424.9,"yT1":0,"xT2":1058.1,"yT2":0,"toosoon":0,"cond_shown":"Congruent","ratio_trial":100,"L_num":2,"L_den":5,"R_num":6,"R_den":12,"correct_side":2,"subjID":"IsabellaGomezJaramillo24","gender":"1","school":"6","age":"11"},{"start_time":1551800666895,"click_time":1551800673790,"finger_time":1551800667031,"fix_duration":803.3811031427738,"trial":13,"RT":136,"MT":6759,"sideResp":2,"stimulus":[],"xmouse":[792,795,798,799,814,835,873,922,942,953,953,953,953,953,953,953,953,953,953,953,953,953,953,952,951,949,946,946,946,946,946,946,946,946,946,946,946,946,946,946,946,946,946,946,946,946,946,946,943,939,936,931,927,921,921,921,921,921,921,921,921,921,921,921,921,921,921,921,921,921,921,921,921,921,921,921,921,921,921,921,921,921,921,921,921,920,920,920,921,921,921,921,921,921,921,921,921,921,921,921,921,921,921,921,921,921,921,921,921,921,921,921,921,921,921,921,921,921,921,921,921,921,921,921,921,921,921,921,921,921,921,921,921,921,921,922,922,922,922,922,922,922,922,922,922,922,922,922,922,922,922,922,922,922,922,922,922,922,922,922,922,922,922,922,922,922,922,922,922,922,922,922,922,922,922,922,922,922,922,922,922,922,922,922,922,922,922,922,922,922,922,922,922,922,922,922,922,922,922,922,922,922,922,922,922,922,922,922,922,922,922,922,922,922,922,922,922,922,922,922,922,922,922,922,922,922,922,921,921,921,921,921,921,921,921,921,921,921,921,921,921,921,921,921,921,921,921,921,921,921,921,921,921,921,921,921,921,921,921,921,921,921,921,921,921,921,921,921,921,921,921,921,921,921,921,921,919,915,894,876,860,845,827,784,771,762,762,762,762,762,762,762,762,762,762,762,761,763,770,773,774,774,774,774,774,774,774,774,774,774,774,774,774,766,764,764,764,764,764,764,764,764,764,764,764,779,795,841,949,983,1006,1018,1021,1025,1027,1029,1031,1034,1038,1038,1039,1043,1048,1053,1062],"ymouse":[502,507,513,518,534,543,555,569,576,577,577,577,577,577,577,577,577,577,577,577,577,577,575,573,572,572,571,571,571,571,571,571,571,571,571,571,571,571,571,571,571,571,571,571,571,571,571,571,571,571,571,571,571,571,571,571,571,571,571,571,571,571,571,571,571,571,571,571,571,571,571,571,571,571,571,571,571,571,571,571,571,571,571,571,571,571,571,569,567,566,566,566,566,566,566,566,566,566,566,566,566,566,566,566,566,566,566,566,566,566,566,566,566,566,566,566,566,566,566,566,566,566,566,566,566,566,566,566,566,566,566,566,566,566,566,565,565,565,565,565,565,565,565,565,565,565,565,565,565,565,565,565,565,565,565,565,565,565,565,565,565,565,565,565,565,565,565,565,565,565,565,565,565,565,565,565,565,565,565,565,565,565,565,565,565,565,565,565,565,565,565,565,565,565,565,565,565,565,565,565,565,565,565,565,565,565,565,565,565,565,565,565,565,565,565,565,565,565,565,565,565,565,565,565,565,564,561,558,555,554,554,554,554,554,554,554,554,554,554,554,554,554,554,554,554,554,554,554,554,554,554,554,554,554,554,554,554,554,554,554,554,554,554,554,554,554,554,554,554,554,554,554,554,554,554,554,553,551,541,534,529,525,522,519,517,516,516,516,516,516,516,516,516,516,516,516,515,513,513,513,513,513,513,513,513,513,513,513,513,513,513,513,515,521,523,523,523,523,523,523,523,523,523,523,523,522,516,492,389,318,264,227,216,205,201,198,193,186,169,159,152,140,126,110,88],"timestamp_mouse":[15,36,56,75,95,116,136,155,175,195,215,235,255,275,296,315,336,356,375,395,416,435,455,476,495,515,535,555,575,595,615,635,655,675,696,715,736,755,775,795,816,835,856,875,896,916,936,955,976,995,1015,1035,1056,1075,1095,1115,1135,1155,1175,1195,1215,1235,1257,1275,1296,1316,1336,1356,1376,1396,1415,1435,1455,1476,1495,1515,1535,1556,1576,1595,1616,1635,1656,1676,1696,1715,1735,1756,1776,1796,1815,1836,1856,1876,1895,1915,1936,1957,1976,1995,2015,2035,2055,2076,2096,2115,2135,2156,2176,2195,2216,2235,2257,2276,2295,2315,2335,2356,2375,2396,2415,2435,2456,2477,2496,2516,2537,2555,2575,2595,2616,2636,2655,2675,2695,2716,2735,2756,2775,2795,2816,2835,2856,2875,2896,2915,2935,2955,2976,2996,3015,3036,3055,3076,3095,3115,3136,3156,3177,3195,3216,3236,3256,3276,3295,3316,3335,3355,3376,3396,3416,3437,3457,3476,3496,3516,3536,3555,3577,3597,3616,3635,3656,3676,3695,3716,3736,3756,3776,3795,3816,3836,3856,3875,3895,3916,3936,3955,3975,3996,4016,4035,4056,4076,4096,4115,4136,4157,4175,4196,4215,4235,4255,4276,4296,4315,4336,4356,4376,4395,4417,4436,4456,4476,4496,4516,4536,4555,4575,4595,4616,4635,4656,4676,4695,4715,4736,4756,4776,4796,4815,4836,4855,4876,4897,4915,4936,4955,4975,4996,5016,5035,5055,5076,5095,5116,5135,5155,5175,5196,5217,5236,5256,5276,5295,5316,5336,5355,5376,5397,5415,5435,5456,5475,5497,5517,5536,5555,5575,5595,5616,5636,5655,5675,5695,5716,5735,5755,5777,5796,5816,5837,5856,5875,5896,5915,5935,5955,5975,5995,6015,6035,6057,6075,6096,6115,6135,6155,6175,6197,6216,6235,6255,6275,6295,6315,6336,6356,6375,6395,6415,6436,6455,6476,6495,6517,6535,6555,6576,6595,6615,6637,6657,6675,6695,6715,6735,6756,6775,6796,6816,6835,6856,6875,6895],"xSR":741.5,"ySR":469.95,"xT1":424.9,"yT1":0,"xT2":1058.1,"yT2":0,"toosoon":0,"cond_shown":"Incongruent","ratio_trial":100,"L_num":17,"L_den":30,"R_num":10,"R_den":15,"correct_side":2,"subjID":"IsabellaGomezJaramillo24","gender":"1","school":"6","age":"11"},{"start_time":1551800677106,"click_time":1551800679411,"finger_time":1551800678891,"fix_duration":675.4418086583776,"trial":14,"RT":1785,"MT":520,"sideResp":2,"stimulus":[],"xmouse":[803,803,803,803,803,803,803,803,803,803,803,803,803,803,803,803,803,803,803,803,803,803,803,803,803,803,803,803,803,803,803,803,803,803,803,803,803,803,803,803,803,803,803,803,803,803,803,803,803,803,803,803,803,803,803,803,803,803,803,803,803,803,803,803,803,803,803,803,803,803,803,803,803,803,803,803,803,803,803,803,803,803,803,803,803,803,805,808,835,845,860,875,892,934,955,969,978,983,994,1006,1014,1023,1030,1040,1041,1042,1042,1042,1045,1049,1050,1050,1050,1053,1057,1064],"ymouse":[512,512,512,512,512,512,512,512,512,512,512,512,512,512,512,512,512,512,512,512,512,512,512,512,512,512,512,512,512,512,512,512,512,512,512,512,512,512,512,512,512,512,512,512,512,512,512,512,512,512,512,512,512,512,512,512,512,512,512,512,512,512,512,512,512,512,512,512,512,512,512,512,512,512,512,512,512,512,512,512,512,512,512,512,512,512,512,511,494,483,453,425,387,288,239,207,186,167,134,105,84,61,43,25,24,24,24,24,21,20,19,19,19,20,24,27],"timestamp_mouse":[5,34,44,64,85,105,125,145,164,184,205,224,245,264,285,305,324,345,366,385,404,424,444,465,484,504,524,545,566,584,604,625,644,665,684,705,725,745,765,786,804,825,845,864,885,906,925,944,965,985,1004,1024,1044,1065,1084,1105,1124,1145,1165,1184,1204,1225,1244,1264,1284,1305,1324,1345,1364,1384,1404,1424,1445,1465,1485,1504,1526,1544,1564,1584,1604,1624,1644,1664,1684,1704,1724,1745,1764,1785,1804,1824,1845,1865,1885,1904,1924,1944,1965,1985,2004,2025,2046,2065,2085,2105,2124,2146,2165,2184,2205,2224,2245,2264,2284,2305],"xSR":741.5,"ySR":469.95,"xT1":424.9,"yT1":0,"xT2":1058.1,"yT2":0,"toosoon":0,"cond_shown":"Incongruent","ratio_trial":300,"L_num":7,"L_den":10,"R_num":8,"R_den":20,"correct_side":1,"subjID":"IsabellaGomezJaramillo24","gender":"1","school":"6","age":"11"},{"start_time":1551800680897,"click_time":1551800682750,"finger_time":1551800682370,"fix_duration":764.9510494002118,"trial":15,"RT":1473,"MT":380,"sideResp":1,"stimulus":[],"xmouse":[788,790,790,793,793,793,793,793,793,793,793,793,793,793,793,793,793,793,793,793,793,793,793,793,793,793,793,793,793,793,793,793,793,793,793,793,793,793,793,793,793,793,793,793,793,793,793,793,793,793,793,793,793,793,793,793,793,793,793,793,793,793,793,793,793,793,793,793,793,793,793,794,791,745,703,668,648,634,620,603,589,580,574,570,568,568,565,562,556,542,532,526,520],"ymouse":[516,517,517,518,518,518,518,518,518,518,518,518,518,518,518,518,518,518,518,518,518,518,518,518,518,518,518,518,518,518,518,518,518,518,518,518,518,518,518,518,518,518,518,518,518,518,518,518,518,518,518,518,518,518,518,518,518,518,518,518,518,518,518,518,518,518,518,518,518,518,518,518,512,400,323,269,239,216,192,155,128,108,94,83,82,81,80,76,71,61,55,53,51],"timestamp_mouse":[20,42,54,73,93,114,134,154,174,195,213,233,253,273,294,313,333,353,373,394,414,433,453,473,493,514,535,553,574,593,614,633,653,673,694,713,733,755,774,795,814,833,854,874,895,914,934,953,974,994,1014,1034,1053,1074,1093,1114,1134,1153,1174,1193,1213,1234,1254,1273,1294,1314,1333,1353,1374,1394,1414,1434,1454,1473,1493,1514,1534,1553,1574,1594,1613,1633,1653,1674,1694,1714,1733,1753,1773,1793,1814,1835,1853],"xSR":741.5,"ySR":469.95,"xT1":424.9,"yT1":0,"xT2":1058.1,"yT2":0,"toosoon":0,"cond_shown":"Congruent","ratio_trial":200,"L_num":21,"L_den":30,"R_num":2,"R_den":4,"correct_side":1,"subjID":"IsabellaGomezJaramillo24","gender":"1","school":"6","age":"11"},{"start_time":1551800684575,"click_time":1551800686671,"finger_time":1551800686270,"fix_duration":904.0106028848704,"trial":16,"RT":1695,"MT":401,"sideResp":2,"stimulus":[],"xmouse":[808,808,808,808,808,808,808,808,808,808,808,808,808,808,808,808,808,808,808,808,808,808,808,808,808,808,808,808,808,808,808,808,808,808,808,808,808,808,808,808,808,808,808,808,808,808,808,808,808,808,808,808,808,808,808,808,808,808,808,808,808,808,808,808,808,808,808,808,808,808,808,808,808,808,808,808,808,808,808,808,808,809,813,832,854,913,936,975,997,1017,1018,1018,1018,1018,1030,1039,1046,1047,1047,1048,1048,1049,1053,1058,1062],"ymouse":[529,529,529,529,529,529,529,529,529,529,529,529,529,529,529,529,529,529,529,529,529,529,529,529,529,529,529,529,529,529,529,529,529,529,529,529,529,529,529,529,529,529,529,529,529,529,529,529,529,529,529,529,529,529,529,529,529,529,529,529,529,529,529,529,529,529,529,529,529,529,529,529,529,529,529,529,529,529,529,529,529,530,525,503,480,412,388,335,296,229,212,199,189,178,138,117,98,95,95,94,94,92,89,85,82],"timestamp_mouse":[33,35,55,75,96,115,135,155,175,195,216,235,256,276,295,316,337,355,376,396,415,436,455,475,496,516,536,555,577,596,616,636,656,676,696,717,736,756,776,796,815,836,855,876,896,915,935,955,975,996,1015,1035,1055,1077,1095,1117,1136,1155,1175,1195,1216,1235,1256,1275,1295,1315,1337,1356,1376,1397,1416,1435,1455,1476,1495,1516,1535,1555,1575,1596,1616,1635,1656,1677,1695,1715,1735,1756,1775,1795,1815,1835,1855,1875,1896,1915,1935,1955,1977,1995,2015,2035,2055,2075,2096],"xSR":741.5,"ySR":469.95,"xT1":424.9,"yT1":0,"xT2":1058.1,"yT2":0,"toosoon":0,"cond_shown":"Incongruent","ratio_trial":300,"L_num":13,"L_den":26,"R_num":12,"R_den":15,"correct_side":2,"subjID":"IsabellaGomezJaramillo24","gender":"1","school":"6","age":"11"},{"start_time":1551800691317,"click_time":1551800694190,"finger_time":1551800693930,"fix_duration":306.5524418335776,"trial":17,"RT":2613,"MT":260,"sideResp":1,"stimulus":[],"xmouse":[807,807,807,807,807,807,807,807,807,807,807,807,807,807,807,807,807,807,807,807,807,807,807,807,807,807,807,807,807,807,807,807,807,807,807,807,807,807,807,807,807,807,807,807,807,807,807,807,807,807,807,807,807,807,807,807,807,807,807,807,807,807,807,807,807,807,807,807,807,807,807,807,807,807,807,807,807,807,807,807,807,807,807,807,807,807,807,807,807,807,807,807,807,807,807,807,807,807,807,807,807,807,807,807,807,807,807,807,807,807,807,807,807,807,807,807,807,807,807,807,807,807,807,807,807,807,807,807,807,801,789,774,750,747,747,747,747,728,715,701,669,644,563,511],"ymouse":[532,532,532,532,532,532,532,532,532,532,532,532,532,532,532,532,532,532,532,532,532,532,532,532,532,532,532,532,532,532,532,532,532,532,532,532,532,532,532,532,532,532,532,532,532,532,532,532,532,532,532,532,532,532,532,532,532,532,532,532,532,532,532,532,532,532,532,532,532,532,532,532,532,532,532,532,532,532,532,532,532,532,532,532,532,532,532,532,532,532,532,532,532,532,532,532,532,532,532,532,532,532,532,532,532,532,532,532,532,532,532,532,532,532,532,532,532,532,532,532,532,532,532,532,532,532,532,532,503,478,459,444,423,416,405,380,336,258,236,218,185,159,89,50],"timestamp_mouse":[13,35,53,73,93,113,133,153,174,193,213,233,254,273,293,313,333,353,373,393,414,434,454,474,494,513,533,553,574,595,615,634,655,673,694,714,735,753,773,795,813,834,854,873,893,914,934,954,973,995,1014,1034,1053,1074,1094,1114,1134,1154,1174,1194,1214,1233,1254,1273,1294,1314,1335,1354,1374,1394,1413,1434,1454,1473,1494,1514,1534,1554,1573,1593,1614,1634,1653,1674,1695,1713,1734,1755,1773,1794,1813,1833,1854,1875,1893,1914,1934,1954,1974,1994,2013,2033,2055,2074,2093,2115,2133,2154,2174,2194,2214,2234,2253,2273,2293,2313,2335,2354,2374,2395,2413,2433,2455,2475,2494,2514,2534,2554,2574,2593,2613,2635,2654,2673,2693,2714,2735,2754,2773,2793,2813,2833,2853,2873],"xSR":741.5,"ySR":469.95,"xT1":424.9,"yT1":0,"xT2":1058.1,"yT2":0,"toosoon":0,"cond_shown":"Incongruent","ratio_trial":100,"L_num":13,"L_den":26,"R_num":6,"R_den":10,"correct_side":2,"subjID":"IsabellaGomezJaramillo24","gender":"1","school":"6","age":"11"},{"start_time":1551800697324,"click_time":1551800699591,"finger_time":1551800699391,"fix_duration":833.474300908028,"trial":18,"RT":2067,"MT":200,"sideResp":1,"stimulus":[],"xmouse":[795,795,795,795,795,795,795,795,795,795,795,795,795,795,795,795,795,795,795,795,795,795,795,795,795,795,795,795,795,795,795,795,795,795,795,795,795,795,795,795,795,795,795,795,795,795,795,795,795,795,795,795,795,795,795,795,795,795,795,795,795,795,795,795,795,795,795,795,795,795,795,795,795,795,795,795,795,795,795,795,795,795,795,795,795,795,795,795,795,795,795,795,795,795,795,795,795,795,795,795,795,795,790,778,761,743,721,706,680,667,656,634,560,515],"ymouse":[489,489,489,489,489,489,489,489,489,489,489,489,489,489,489,489,489,489,489,489,489,489,489,489,489,489,489,489,489,489,489,489,489,489,489,489,489,489,489,489,489,489,489,489,489,489,489,489,489,489,489,489,489,489,489,489,489,489,489,489,489,489,489,489,489,489,489,489,489,489,489,489,489,489,489,489,489,489,489,489,489,489,489,489,489,489,489,489,489,489,489,489,489,489,489,489,489,489,489,489,489,489,479,463,442,419,394,371,329,300,273,233,110,45],"timestamp_mouse":[10,32,47,66,86,107,126,146,166,186,206,227,246,266,287,307,327,346,366,387,406,426,447,466,486,506,527,546,567,586,606,626,646,667,686,706,726,746,766,786,806,826,846,866,886,906,926,948,967,987,1006,1026,1046,1066,1086,1106,1127,1146,1166,1186,1206,1227,1248,1266,1286,1307,1327,1346,1368,1387,1406,1427,1446,1467,1487,1506,1527,1546,1566,1588,1606,1626,1646,1667,1687,1707,1728,1747,1767,1786,1807,1827,1846,1867,1886,1906,1927,1946,1967,1986,2006,2027,2047,2067,2087,2107,2126,2147,2166,2187,2206,2227,2247,2267],"xSR":741.5,"ySR":469.95,"xT1":424.9,"yT1":0,"xT2":1058.1,"yT2":0,"toosoon":0,"cond_shown":"Incongruent","ratio_trial":300,"L_num":4,"L_den":20,"R_num":2,"R_den":4,"correct_side":2,"subjID":"IsabellaGomezJaramillo24","gender":"1","school":"6","age":"11"},{"start_time":1551800705142,"click_time":1551800707032,"finger_time":1551800706750,"fix_duration":250,"trial":19,"RT":1608,"MT":282,"sideResp":2,"stimulus":[],"xmouse":[795,794,794,794,794,794,794,794,794,794,794,794,793,792,791,791,791,791,791,791,791,791,791,791,791,791,791,791,791,791,791,791,791,791,791,791,791,791,791,791,791,791,791,791,791,791,791,791,791,791,791,791,791,791,791,791,791,791,791,791,791,791,791,791,791,791,791,791,791,791,791,791,791,791,791,791,795,810,827,836,844,869,882,896,917,935,963,984,997,1012,1032,1044,1060,1066,1069],"ymouse":[544,542,542,542,542,542,542,542,542,542,542,538,532,528,526,524,523,523,523,523,523,523,523,523,523,523,523,523,523,523,523,523,523,523,523,523,523,523,523,523,523,523,523,523,523,523,523,523,523,523,523,523,523,523,523,523,523,523,523,523,523,523,523,523,523,523,523,523,523,523,523,523,523,523,523,523,513,502,490,483,477,450,435,416,392,370,332,301,278,247,204,174,129,111,95],"timestamp_mouse":[12,43,50,69,89,109,128,150,169,189,208,228,249,268,288,309,330,349,368,388,408,428,448,469,490,508,529,549,568,588,608,629,648,669,689,709,728,749,769,789,808,829,848,868,889,910,929,948,968,989,1009,1029,1050,1069,1088,1109,1128,1148,1168,1188,1208,1228,1248,1269,1288,1308,1330,1348,1369,1389,1408,1429,1448,1468,1488,1508,1529,1549,1568,1589,1608,1628,1648,1668,1688,1708,1728,1748,1768,1790,1810,1829,1848,1868,1889],"xSR":741.5,"ySR":469.95,"xT1":424.9,"yT1":0,"xT2":1058.1,"yT2":0,"toosoon":0,"cond_shown":"Incongruent","ratio_trial":200,"L_num":7,"L_den":15,"R_num":6,"R_den":9,"correct_side":2,"subjID":"IsabellaGomezJaramillo24","gender":"1","school":"6","age":"11"},{"start_time":1551800710308,"click_time":1551800714509,"finger_time":1551800713330,"fix_duration":1157.3348194722419,"trial":20,"RT":3022,"MT":1179,"sideResp":2,"stimulus":[],"xmouse":[804,804,804,804,804,804,804,804,804,804,804,804,804,804,804,804,804,804,804,804,804,804,804,804,804,804,804,804,804,804,804,804,804,804,804,804,804,804,804,804,804,804,804,804,804,804,804,804,804,804,804,804,804,804,804,804,804,804,804,804,804,804,804,804,804,804,804,804,804,804,804,804,804,804,804,804,804,804,804,804,804,804,804,804,804,804,804,804,804,804,804,804,804,804,804,804,804,804,804,804,804,804,804,804,804,804,804,804,804,804,804,804,804,804,804,804,804,804,804,804,804,804,804,804,804,804,804,804,804,804,804,804,804,804,804,804,804,804,804,804,804,805,808,812,815,817,820,822,828,833,841,845,849,853,861,865,866,868,874,875,877,880,885,888,897,900,903,905,909,910,912,913,915,922,926,929,933,936,944,948,952,955,959,965,967,970,972,974,980,987,990,995,1000,1009,1013,1017,1021,1028,1038,1042,1044,1044,1045,1046,1049,1050,1053,1055,1056,1058,1060],"ymouse":[513,513,513,513,513,513,513,513,513,513,513,513,513,513,513,513,513,513,513,513,513,513,513,513,513,513,513,513,513,513,513,513,513,513,513,513,513,513,513,513,513,513,513,513,513,513,513,513,513,513,513,513,513,513,513,513,513,513,513,513,513,513,513,513,513,513,513,513,513,513,513,513,513,513,513,513,513,513,513,513,513,513,513,513,513,513,513,513,513,513,513,513,513,513,513,513,513,513,513,513,513,513,513,513,513,513,513,513,513,513,513,513,513,513,513,513,513,513,513,513,513,513,513,513,513,513,513,513,513,513,513,513,513,513,513,513,513,512,512,512,512,510,505,499,495,493,491,491,488,485,479,476,473,470,464,461,460,457,454,453,452,449,445,440,430,426,423,420,415,412,410,408,405,396,389,384,377,372,357,350,344,337,330,318,312,305,299,291,272,254,240,226,211,191,181,172,160,144,121,108,102,99,95,91,82,77,73,69,66,57,51],"timestamp_mouse":[9,21,41,61,83,101,122,141,162,182,202,221,242,262,281,303,321,341,363,381,401,422,441,461,481,501,521,541,563,581,601,622,642,661,682,702,721,741,761,782,803,821,841,862,881,902,922,941,962,981,1002,1022,1041,1061,1081,1101,1122,1142,1161,1182,1201,1221,1241,1262,1282,1301,1323,1342,1361,1382,1402,1421,1441,1461,1482,1502,1523,1541,1561,1581,1603,1621,1641,1661,1681,1701,1721,1743,1762,1781,1801,1821,1843,1862,1883,1902,1921,1941,1962,1982,2001,2022,2042,2062,2083,2102,2122,2142,2161,2181,2203,2222,2243,2262,2281,2302,2322,2341,2362,2382,2402,2421,2443,2461,2482,2502,2522,2541,2561,2581,2602,2621,2642,2661,2681,2701,2722,2742,2761,2783,2802,2821,2841,2861,2882,2902,2921,2942,2961,2982,3001,3022,3041,3061,3081,3101,3122,3141,3162,3181,3201,3222,3242,3261,3281,3301,3321,3342,3362,3382,3401,3423,3443,3462,3482,3502,3522,3542,3564,3582,3601,3622,3643,3661,3682,3703,3722,3742,3762,3783,3801,3823,3843,3861,3882,3902,3923,3943,3962,3983,4001,4022,4043,4061,4081,4102,4122,4141,4161,4181,4201],"xSR":741.5,"ySR":469.95,"xT1":424.9,"yT1":0,"xT2":1058.1,"yT2":0,"toosoon":0,"cond_shown":"Congruent","ratio_trial":300,"L_num":3,"L_den":12,"R_num":11,"R_den":20,"correct_side":2,"subjID":"IsabellaGomezJaramillo24","gender":"1","school":"6","age":"11"},{"start_time":1551800719042,"click_time":1551800723689,"finger_time":1551800723310,"fix_duration":250,"trial":21,"RT":4268,"MT":379,"sideResp":1,"stimulus":[],"xmouse":[807,807,807,807,807,807,807,807,807,807,807,807,807,807,807,807,807,807,807,807,807,807,807,807,807,807,807,807,807,807,807,807,807,807,807,807,807,807,807,807,807,807,807,807,807,807,807,807,807,807,807,807,807,807,807,807,807,807,807,807,807,807,807,807,807,807,807,807,807,807,807,807,807,807,807,807,807,807,807,807,807,807,807,807,807,807,807,807,807,807,807,807,807,807,807,807,807,807,807,807,807,807,807,807,807,807,807,807,807,807,807,807,807,807,807,807,807,807,807,807,807,807,807,807,807,807,807,807,807,807,807,807,807,807,807,807,807,807,807,807,807,807,807,807,807,807,807,807,807,807,807,807,807,807,807,807,807,807,807,807,807,807,807,807,807,807,807,807,807,807,807,807,807,807,807,807,807,807,807,807,807,807,807,807,807,807,807,807,807,807,807,807,807,807,807,807,807,807,807,807,807,807,807,807,807,807,807,807,807,807,805,776,760,737,722,706,681,665,644,618,592,561,550,543,537,531,524,521,517,513,509,502,486],"ymouse":[511,511,511,511,511,511,511,511,511,511,511,511,511,511,511,511,511,511,511,511,511,511,511,511,511,511,511,511,511,511,511,511,511,511,511,511,511,511,511,511,511,511,511,511,511,511,511,511,511,511,511,511,511,511,511,511,511,511,511,511,511,511,511,511,511,511,511,511,511,511,511,511,511,511,511,511,511,511,511,511,511,511,511,511,511,511,511,511,511,511,511,511,511,511,511,511,511,511,511,511,511,511,511,511,511,511,511,511,511,511,511,511,511,511,511,511,511,511,511,511,511,511,511,511,511,511,511,511,511,511,511,511,511,511,511,511,511,511,511,511,511,511,511,511,511,511,511,511,511,511,511,511,511,511,511,511,511,511,511,511,511,511,511,511,511,511,511,511,511,511,511,511,511,511,511,511,511,511,511,511,511,511,511,511,511,511,511,511,511,511,511,511,511,511,511,511,511,511,511,511,511,511,511,511,511,511,511,511,511,512,511,501,494,483,470,454,410,381,347,304,268,220,200,187,175,164,154,150,144,140,133,123,98],"timestamp_mouse":[8,42,49,68,87,108,127,148,167,188,207,227,248,267,288,308,328,349,368,389,407,427,447,467,487,508,529,547,567,587,607,627,647,667,689,708,727,748,768,787,807,829,847,868,888,908,928,947,967,987,1007,1028,1047,1069,1087,1107,1127,1147,1169,1187,1207,1228,1247,1267,1287,1307,1328,1347,1368,1387,1407,1427,1448,1468,1488,1507,1528,1547,1568,1587,1607,1627,1647,1667,1689,1708,1728,1747,1768,1789,1808,1827,1848,1869,1887,1907,1929,1947,1968,1987,2008,2028,2049,2068,2088,2109,2129,2148,2167,2188,2208,2229,2247,2268,2289,2307,2328,2347,2368,2388,2409,2428,2447,2469,2487,2508,2527,2548,2569,2587,2607,2627,2648,2667,2689,2707,2727,2748,2767,2788,2807,2827,2848,2867,2888,2908,2927,2949,2967,2988,3009,3029,3048,3068,3089,3108,3128,3147,3167,3188,3207,3227,3248,3267,3288,3307,3327,3347,3367,3388,3407,3428,3449,3467,3488,3509,3527,3548,3567,3589,3608,3628,3649,3667,3687,3708,3729,3748,3768,3789,3807,3828,3848,3869,3887,3907,3928,3947,3968,3988,4007,4027,4048,4069,4087,4108,4129,4148,4168,4188,4207,4227,4248,4268,4288,4308,4327,4347,4367,4387,4408,4427,4447,4467,4487,4508,4527,4547,4568,4587,4607,4628,4647],"xSR":741.5,"ySR":469.95,"xT1":424.9,"yT1":0,"xT2":1058.1,"yT2":0,"toosoon":0,"cond_shown":"Incongruent","ratio_trial":100,"L_num":9,"L_den":18,"R_num":6,"R_den":10,"correct_side":2,"subjID":"IsabellaGomezJaramillo24","gender":"1","school":"6","age":"11"},{"start_time":1551800725697,"click_time":1551800728451,"finger_time":1551800726050,"fix_duration":1165.8475634966371,"trial":22,"RT":353,"MT":2401,"sideResp":2,"stimulus":[],"xmouse":[808,808,808,792,773,772,772,772,772,772,772,772,772,772,772,767,759,734,563,472,398,389,389,389,391,399,402,403,404,412,446,507,593,778,856,916,947,958,959,959,959,959,959,958,951,939,920,897,877,856,853,853,853,853,853,853,853,852,844,815,799,796,796,796,796,796,796,796,796,796,796,796,796,796,796,796,796,796,796,796,796,796,796,796,796,796,796,796,796,796,796,796,796,796,796,796,796,796,796,796,796,796,796,796,796,797,798,800,802,815,828,839,847,864,876,896,925,966,1014,1023,1025,1025,1025,1021,1020,1020,1020,1021,1027,1040,1052,1063,1070,1077,1079,1081,1083,1087],"ymouse":[534,534,534,534,536,537,537,537,537,537,537,537,537,537,537,540,546,560,612,633,646,647,647,647,646,643,641,641,641,639,626,602,566,492,472,464,464,464,464,464,464,464,464,464,464,464,467,471,474,477,478,478,478,478,478,478,478,479,485,503,509,511,511,511,511,511,511,511,511,511,511,511,511,511,511,511,511,511,511,512,512,512,512,512,512,512,512,512,512,512,512,512,512,512,512,512,512,512,512,512,512,512,512,512,512,512,512,511,510,498,484,473,466,445,434,417,395,366,329,319,309,303,296,281,274,268,264,260,242,218,198,181,166,142,132,122,108,97],"timestamp_mouse":[18,40,53,73,92,112,133,153,174,192,213,233,252,273,293,312,332,353,373,392,412,432,452,472,493,513,533,552,573,592,613,632,653,673,692,713,732,752,774,792,812,833,853,873,892,913,933,953,972,993,1012,1033,1053,1072,1092,1114,1132,1153,1172,1192,1213,1233,1252,1273,1292,1312,1332,1352,1374,1393,1412,1433,1453,1473,1493,1512,1534,1553,1572,1593,1612,1633,1654,1673,1693,1712,1734,1753,1773,1793,1812,1832,1852,1873,1893,1912,1933,1953,1972,1992,2013,2033,2054,2073,2093,2113,2133,2153,2173,2192,2213,2233,2252,2273,2293,2313,2333,2352,2373,2393,2412,2433,2452,2472,2493,2512,2532,2552,2572,2592,2613,2632,2653,2673,2692,2712,2732,2753],"xSR":741.5,"ySR":469.95,"xT1":424.9,"yT1":0,"xT2":1058.1,"yT2":0,"toosoon":0,"cond_shown":"Incongruent","ratio_trial":100,"L_num":10,"L_den":25,"R_num":8,"R_den":16,"correct_side":2,"subjID":"IsabellaGomezJaramillo24","gender":"1","school":"6","age":"11"},{"start_time":1551800735733,"click_time":1551800741289,"finger_time":1551800740790,"fix_duration":1442.7329376341677,"trial":23,"RT":5057,"MT":499,"sideResp":2,"stimulus":[],"xmouse":[778,778,778,778,778,778,778,778,778,778,778,778,778,778,778,778,778,778,778,778,778,778,778,778,778,778,778,778,778,778,778,778,778,778,778,778,778,778,778,778,778,778,778,778,778,778,778,778,778,778,778,778,778,778,778,778,778,778,778,778,778,778,778,778,778,778,778,778,778,778,778,778,778,778,778,778,778,778,778,778,778,778,778,778,778,778,778,778,778,778,778,778,778,778,778,778,778,778,778,778,778,778,778,778,778,778,778,778,778,778,778,778,778,778,778,778,778,778,778,778,778,778,778,778,778,778,778,778,778,778,778,778,778,778,778,778,778,778,778,778,778,778,778,778,778,778,778,778,778,778,778,778,778,778,778,778,778,778,778,778,778,778,778,778,778,778,778,778,778,778,778,778,778,778,778,778,778,778,778,778,778,778,778,778,778,778,778,778,778,778,778,778,778,778,778,778,778,778,778,778,778,778,778,778,778,778,778,778,778,778,778,778,778,778,778,778,778,778,778,778,778,778,778,778,778,778,778,778,778,778,778,778,778,778,778,778,778,778,778,778,778,778,778,778,778,778,778,778,778,780,787,801,803,806,809,815,831,880,910,920,927,934,942,955,974,994,1015,1015,1017,1018,1020,1032,1035,1037,1040,1042,1051,1062],"ymouse":[501,501,501,501,501,501,501,501,501,501,501,501,501,501,501,501,501,501,501,501,501,501,501,501,501,501,501,501,501,501,501,501,501,501,501,501,501,501,501,501,501,501,501,501,501,501,501,501,501,501,501,501,501,501,501,501,501,501,501,501,501,501,501,501,501,501,501,501,501,501,501,501,501,501,501,501,501,501,501,501,501,501,501,501,501,501,501,501,501,501,501,501,501,501,501,501,501,501,501,501,501,501,501,501,501,501,501,501,501,501,501,501,501,501,501,501,501,501,501,501,501,501,501,501,501,501,501,501,501,501,501,501,501,501,501,501,501,501,501,501,501,501,501,501,501,501,501,501,501,501,501,501,501,501,501,501,501,501,501,501,501,501,501,501,501,501,501,501,501,501,501,501,501,501,501,501,501,501,501,501,501,501,501,501,501,501,501,501,501,501,501,501,501,501,501,501,501,501,501,501,501,501,501,501,501,501,501,501,501,501,501,501,501,501,501,501,501,501,501,501,501,501,501,501,501,501,501,501,501,501,501,501,501,501,501,501,501,501,501,501,501,501,501,501,501,501,501,501,501,498,492,470,454,440,427,412,384,275,215,197,187,174,167,159,148,135,119,118,116,112,103,85,79,75,72,70,64,56],"timestamp_mouse":[17,37,56,76,96,116,136,156,178,197,217,236,257,276,297,316,336,358,377,397,416,437,456,476,498,516,536,558,577,597,616,637,656,676,697,718,736,756,776,796,816,836,858,876,898,916,937,958,977,996,1016,1037,1057,1077,1097,1118,1136,1156,1177,1196,1216,1237,1256,1278,1296,1316,1336,1356,1377,1397,1416,1436,1458,1476,1496,1517,1536,1557,1577,1596,1618,1636,1657,1676,1697,1718,1736,1756,1778,1796,1817,1836,1856,1876,1897,1917,1938,1957,1976,1996,2017,2037,2056,2076,2096,2116,2137,2157,2177,2198,2216,2238,2256,2276,2296,2317,2338,2356,2376,2398,2417,2438,2456,2476,2496,2516,2536,2557,2577,2597,2617,2638,2657,2677,2698,2717,2738,2757,2777,2797,2817,2836,2857,2877,2897,2916,2936,2957,2977,2998,3018,3036,3057,3077,3096,3117,3136,3157,3177,3197,3217,3237,3257,3277,3297,3316,3336,3356,3376,3397,3416,3437,3456,3476,3497,3516,3537,3557,3576,3596,3617,3637,3657,3676,3696,3717,3738,3756,3776,3797,3816,3836,3856,3876,3896,3918,3936,3956,3978,3997,4017,4036,4057,4077,4097,4116,4138,4156,4177,4196,4216,4236,4256,4276,4297,4318,4336,4356,4376,4397,4417,4437,4456,4477,4497,4517,4537,4557,4578,4597,4618,4637,4657,4678,4697,4717,4738,4756,4777,4797,4816,4837,4858,4876,4897,4918,4936,4956,4977,4996,5017,5036,5057,5076,5096,5117,5136,5157,5176,5197,5216,5237,5257,5277,5297,5316,5337,5356,5377,5398,5416,5437,5457,5476,5497,5517,5537,5556],"xSR":741.5,"ySR":469.95,"xT1":424.9,"yT1":0,"xT2":1058.1,"yT2":0,"toosoon":0,"cond_shown":"Incongruent","ratio_trial":200,"L_num":7,"L_den":10,"R_num":8,"R_den":16,"correct_side":1,"subjID":"IsabellaGomezJaramillo24","gender":"1","school":"6","age":"11"},{"start_time":1551800746462,"click_time":1551800748370,"finger_time":1551800747889,"fix_duration":490.1636764676394,"trial":24,"RT":1427,"MT":481,"sideResp":2,"stimulus":[],"xmouse":[790,790,790,790,790,790,790,790,790,790,790,790,790,790,790,790,790,790,790,790,790,790,790,790,790,790,790,790,790,790,790,790,790,790,790,790,790,790,790,790,790,790,790,790,790,790,790,790,790,790,790,790,790,790,790,790,790,790,790,790,790,790,790,790,790,790,790,790,790,792,815,854,919,1027,1096,1231,1231,1231,1231,1231,1231,1231,1231,1231,1231,1231,1231,1231,1231,1231,1231,1231,1231,1231,1161,1145],"ymouse":[527,527,527,527,527,527,527,527,527,527,527,527,527,527,527,527,527,527,527,527,527,527,527,527,527,527,527,527,527,527,527,527,527,527,527,527,527,527,527,527,527,527,527,527,527,527,527,527,527,527,527,527,527,527,527,527,527,527,527,527,527,527,527,527,527,527,527,527,527,521,491,452,384,275,195,22,22,22,22,22,22,22,22,22,22,22,22,22,22,22,22,22,22,22,5,25],"timestamp_mouse":[9,40,47,69,87,107,128,148,168,187,207,227,249,267,287,308,327,347,367,387,407,427,448,467,489,507,528,547,568,587,608,627,648,667,687,707,727,749,768,787,807,827,848,867,887,909,928,947,968,987,1008,1028,1047,1068,1088,1107,1127,1148,1168,1188,1209,1228,1247,1267,1288,1309,1328,1348,1368,1388,1408,1427,1447,1468,1489,1508,1528,1548,1567,1589,1608,1627,1647,1667,1688,1708,1727,1748,1768,1788,1808,1829,1848,1869,1888,1908],"xSR":741.5,"ySR":469.95,"xT1":424.9,"yT1":0,"xT2":1058.1,"yT2":0,"toosoon":0,"cond_shown":"Incongruent","ratio_trial":100,"L_num":3,"L_den":5,"R_num":8,"R_den":16,"correct_side":1,"subjID":"IsabellaGomezJaramillo24","gender":"1","school":"6","age":"11"},{"start_time":1551800751732,"click_time":1551800754970,"finger_time":1551800754631,"fix_duration":700.0918901667965,"trial":25,"RT":2899,"MT":339,"sideResp":2,"stimulus":[],"xmouse":[797,797,797,797,797,797,797,797,797,797,797,797,797,797,797,797,797,797,797,797,797,797,797,797,797,797,797,797,797,797,797,797,797,797,797,797,797,797,797,797,797,797,797,797,797,797,797,797,797,797,797,797,797,797,797,797,797,797,797,797,797,797,797,797,797,797,797,797,797,797,797,797,797,797,797,797,797,797,797,797,797,797,797,797,797,797,797,797,797,797,797,797,797,797,797,797,797,797,797,797,797,797,797,797,797,797,797,797,797,797,797,797,797,797,797,797,797,797,797,797,797,797,797,797,797,797,797,797,797,797,797,797,797,797,797,797,797,797,797,797,797,797,797,812,844,887,1004,1067,1099,1108,1108,1108,1106,1105,1105,1104,1103,1102,1101,1098,1096,1094],"ymouse":[506,506,506,506,506,506,506,506,506,506,506,506,506,506,506,506,506,506,506,506,506,506,506,506,506,506,506,506,506,506,506,506,506,506,506,506,506,506,506,506,506,506,506,506,506,506,506,506,506,506,506,506,506,506,506,506,506,506,506,506,506,506,506,506,506,506,506,506,506,506,506,506,506,506,506,506,506,506,506,506,506,506,506,506,506,506,506,506,506,506,506,506,506,506,506,506,506,506,506,506,506,506,506,506,506,506,506,506,506,506,506,506,506,506,506,506,506,506,506,506,506,506,506,506,506,506,506,506,506,506,506,506,506,506,506,506,506,506,506,506,506,506,506,495,475,447,355,296,259,237,236,234,232,232,231,226,196,163,143,127,110,81],"timestamp_mouse":[18,37,57,78,97,118,137,158,177,198,217,237,259,278,298,317,338,359,378,399,417,438,459,477,497,517,538,558,577,598,617,638,659,677,698,717,737,757,778,799,817,839,858,877,899,918,937,959,977,997,1017,1037,1057,1078,1098,1119,1139,1157,1178,1197,1218,1237,1257,1277,1299,1317,1338,1358,1379,1398,1417,1439,1457,1477,1497,1518,1539,1558,1577,1599,1617,1638,1658,1677,1697,1717,1737,1758,1778,1798,1817,1838,1857,1879,1898,1918,1938,1957,1978,1998,2017,2038,2058,2078,2099,2117,2137,2159,2178,2198,2218,2238,2258,2277,2298,2317,2339,2358,2378,2398,2417,2438,2458,2479,2497,2517,2539,2559,2578,2597,2619,2637,2658,2678,2699,2718,2738,2758,2778,2798,2817,2837,2857,2877,2899,2917,2938,2957,2978,2997,3017,3037,3057,3078,3097,3118,3137,3157,3178,3197,3218,3238],"xSR":741.5,"ySR":469.95,"xT1":424.9,"yT1":0,"xT2":1058.1,"yT2":0,"toosoon":0,"cond_shown":"Congruent","ratio_trial":300,"L_num":3,"L_den":6,"R_num":4,"R_den":5,"correct_side":2,"subjID":"IsabellaGomezJaramillo24","gender":"1","school":"6","age":"11"},{"start_time":1551800758967,"click_time":1551800761109,"finger_time":1551800760751,"fix_duration":975.3118383143703,"trial":26,"RT":1784,"MT":358,"sideResp":2,"stimulus":[],"xmouse":[799,799,799,799,799,799,799,799,799,799,799,799,799,799,799,799,799,799,799,799,799,799,799,799,799,799,799,799,799,799,799,799,799,799,799,799,799,799,799,799,799,799,799,799,799,799,799,799,799,799,799,799,799,799,799,799,799,799,799,799,799,799,799,799,799,799,799,799,799,799,799,799,799,799,799,799,799,799,799,799,799,799,799,799,799,799,798,802,820,839,901,939,967,984,1000,1020,1055,1063,1065,1066,1067,1069,1070,1071,1071,1071,1074,1076],"ymouse":[507,507,507,507,507,507,507,507,507,507,507,507,507,507,507,507,507,507,507,507,507,507,507,507,507,507,507,507,507,507,507,507,507,507,507,507,507,507,507,507,507,507,507,507,507,507,507,507,507,507,507,507,507,507,507,507,507,507,507,507,507,507,507,507,507,507,507,507,507,507,507,507,507,507,507,507,507,507,507,507,507,507,507,507,507,507,507,499,478,459,402,364,331,312,292,265,218,206,197,185,164,154,147,143,139,134,109,93],"timestamp_mouse":[11,36,42,62,83,102,123,142,163,184,202,223,244,263,284,302,323,343,363,383,402,422,443,463,483,502,523,543,563,582,604,622,643,663,682,703,724,743,764,782,802,824,842,863,884,902,923,942,963,984,1003,1023,1042,1064,1082,1102,1122,1143,1162,1184,1203,1222,1242,1262,1283,1302,1322,1342,1362,1382,1402,1424,1442,1462,1482,1504,1523,1543,1564,1583,1603,1622,1642,1662,1683,1702,1724,1743,1762,1784,1803,1822,1842,1862,1884,1903,1923,1942,1963,1982,2003,2023,2042,2063,2084,2103,2122,2142],"xSR":741.5,"ySR":469.95,"xT1":424.9,"yT1":0,"xT2":1058.1,"yT2":0,"toosoon":0,"cond_shown":"Congruent","ratio_trial":300,"L_num":3,"L_den":12,"R_num":11,"R_den":20,"correct_side":2,"subjID":"IsabellaGomezJaramillo24","gender":"1","school":"6","age":"11"},{"start_time":1551800763044,"click_time":1551800765809,"finger_time":1551800765469,"fix_duration":1073.8134163546276,"trial":27,"RT":2425,"MT":340,"sideResp":2,"stimulus":[],"xmouse":[804,804,804,804,804,804,804,804,804,804,804,804,804,804,804,804,804,804,804,804,804,804,804,804,804,804,804,804,804,804,804,804,804,804,804,804,804,804,804,804,804,804,804,804,804,804,804,804,804,804,804,804,804,804,804,804,804,804,804,804,804,804,804,804,804,804,804,804,804,804,804,804,804,804,804,804,804,804,804,804,804,804,804,804,804,804,804,804,804,804,804,804,804,804,804,804,804,804,804,804,804,804,804,804,804,804,804,804,804,804,804,804,804,804,804,804,804,804,809,817,832,855,949,980,1008,1029,1041,1041,1038,1036,1036,1040,1043,1045,1045,1045,1046,1054,1068],"ymouse":[525,525,525,525,525,525,525,525,525,525,525,525,525,525,525,525,525,525,525,525,525,525,525,525,525,525,525,525,525,525,525,525,525,525,525,525,525,525,525,525,525,525,525,525,525,525,525,525,525,525,525,525,525,525,525,525,525,525,525,525,525,525,525,525,525,525,525,525,525,525,525,525,525,525,525,525,525,525,525,525,525,525,525,525,525,525,525,525,525,525,525,525,525,525,525,525,525,525,525,525,525,525,525,525,525,525,525,525,525,525,525,525,525,525,525,525,525,525,519,510,496,480,398,337,275,224,180,172,163,156,149,130,120,111,109,109,108,102,95],"timestamp_mouse":[8,39,45,65,85,106,126,145,166,185,205,226,246,265,286,305,325,346,366,387,406,425,446,465,485,505,525,546,565,587,606,625,645,665,686,705,725,746,765,785,806,825,845,867,885,906,925,946,965,985,1005,1025,1046,1065,1085,1105,1125,1145,1165,1185,1205,1225,1246,1266,1285,1307,1326,1345,1367,1385,1405,1425,1445,1465,1485,1506,1525,1547,1565,1586,1606,1625,1646,1667,1685,1705,1725,1746,1765,1785,1807,1826,1845,1867,1886,1905,1925,1946,1966,1985,2006,2026,2045,2065,2085,2107,2126,2146,2165,2185,2205,2225,2247,2265,2285,2306,2327,2345,2366,2385,2405,2425,2445,2466,2485,2506,2526,2546,2566,2586,2605,2625,2645,2666,2686,2706,2725,2745,2765],"xSR":741.5,"ySR":469.95,"xT1":424.9,"yT1":0,"xT2":1058.1,"yT2":0,"toosoon":0,"cond_shown":"Congruent","ratio_trial":200,"L_num":8,"L_den":15,"R_num":3,"R_den":9,"correct_side":1,"subjID":"IsabellaGomezJaramillo24","gender":"1","school":"6","age":"11"},{"start_time":1551800767615,"click_time":1551800769549,"finger_time":1551800769209,"fix_duration":824.5728520351679,"trial":28,"RT":1594,"MT":340,"sideResp":1,"stimulus":[],"xmouse":[821,821,821,821,821,821,821,821,821,821,821,821,821,821,821,821,821,821,821,821,821,821,821,821,821,821,821,821,821,821,821,821,821,821,821,821,821,821,821,821,821,821,821,821,821,821,821,821,821,821,821,821,821,821,821,821,821,821,821,821,821,821,821,821,821,821,821,821,821,821,821,821,821,821,821,821,821,813,793,770,736,692,644,577,557,550,546,544,535,527,520,515,509,508,505,501,497],"ymouse":[537,537,537,537,537,537,537,537,537,537,537,537,537,537,537,537,537,537,537,537,537,537,537,537,537,537,537,537,537,537,537,537,537,537,537,537,537,537,537,537,537,537,537,537,537,537,537,537,537,537,537,537,537,537,537,537,537,537,537,537,537,537,537,537,537,537,537,537,537,537,537,537,537,537,537,537,537,525,485,447,403,360,321,268,241,227,216,211,191,176,164,152,138,128,120,108,93],"timestamp_mouse":[21,40,54,75,94,114,135,154,174,195,214,234,254,274,294,314,335,355,374,395,414,434,454,475,494,514,536,555,575,594,614,635,654,676,696,714,735,754,774,795,815,834,855,874,894,915,936,954,974,996,1016,1034,1054,1075,1094,1114,1136,1154,1174,1196,1214,1234,1255,1275,1294,1316,1335,1355,1374,1394,1416,1434,1455,1474,1494,1516,1535,1554,1575,1594,1615,1634,1655,1675,1695,1714,1734,1755,1774,1796,1814,1835,1854,1874,1895,1915,1934],"xSR":741.5,"ySR":469.95,"xT1":424.9,"yT1":0,"xT2":1058.1,"yT2":0,"toosoon":0,"cond_shown":"Incongruent","ratio_trial":200,"L_num":4,"L_den":6,"R_num":14,"R_den":30,"correct_side":1,"subjID":"IsabellaGomezJaramillo24","gender":"1","school":"6","age":"11"},{"start_time":1551800770763,"click_time":1551800773309,"finger_time":1551800772969,"fix_duration":331.04378231151577,"trial":29,"RT":2206,"MT":340,"sideResp":2,"stimulus":[],"xmouse":[790,790,790,790,790,790,790,790,790,790,790,790,790,790,790,790,790,790,790,790,790,790,790,790,790,790,790,790,790,790,790,790,790,790,790,790,790,790,790,790,790,790,790,790,790,790,790,790,790,790,790,790,790,790,790,790,790,790,790,790,790,790,790,790,790,790,790,790,790,790,790,790,790,790,790,790,790,790,790,790,790,790,790,790,790,790,790,790,790,790,790,790,790,790,790,790,790,790,790,790,790,790,790,790,790,790,790,790,802,825,908,947,971,988,1003,1036,1056,1076,1081,1083,1084,1084,1084,1086,1092,1106,1112,1114],"ymouse":[518,518,518,518,518,518,518,518,518,518,518,518,518,518,518,518,518,518,518,518,518,518,518,518,518,518,518,518,518,518,518,518,518,518,518,518,518,518,518,518,518,518,518,518,518,518,518,518,518,518,518,518,518,518,518,518,518,518,518,518,518,518,518,518,518,518,518,518,518,518,518,518,518,518,518,518,518,518,518,518,518,518,518,518,518,518,518,518,518,518,518,518,518,518,518,518,518,518,518,518,518,518,518,518,518,518,518,518,506,488,428,391,362,330,295,215,180,151,145,143,142,142,142,141,135,114,101,98],"timestamp_mouse":[8,37,46,66,86,106,127,146,167,187,206,226,247,267,287,306,326,346,367,386,407,426,446,466,486,507,527,547,567,587,606,626,647,666,686,707,726,746,767,787,807,827,846,867,886,906,926,946,967,987,1006,1027,1047,1067,1087,1106,1126,1146,1167,1186,1207,1226,1246,1267,1288,1306,1326,1347,1367,1386,1407,1426,1447,1467,1487,1506,1526,1546,1567,1586,1606,1627,1647,1667,1687,1706,1727,1746,1766,1787,1807,1826,1847,1867,1886,1906,1926,1946,1967,1986,2007,2026,2046,2066,2087,2106,2127,2147,2167,2187,2206,2226,2246,2266,2287,2306,2326,2346,2366,2386,2406,2426,2447,2466,2487,2506,2526,2546],"xSR":741.5,"ySR":469.95,"xT1":424.9,"yT1":0,"xT2":1058.1,"yT2":0,"toosoon":0,"cond_shown":"Congruent","ratio_trial":300,"L_num":1,"L_den":5,"R_num":11,"R_den":22,"correct_side":2,"subjID":"IsabellaGomezJaramillo24","gender":"1","school":"6","age":"11"},{"start_time":1551800775865,"click_time":1551800778909,"finger_time":1551800777649,"fix_duration":1435.6797796795797,"trial":30,"RT":1784,"MT":1260,"sideResp":2,"stimulus":[],"xmouse":[803,803,803,803,803,803,803,803,803,803,803,803,803,803,803,803,803,803,803,803,803,803,803,803,803,803,803,803,803,803,803,803,803,803,803,803,803,803,803,803,803,803,803,803,803,803,803,803,803,803,803,803,803,803,803,803,803,803,803,803,803,803,803,803,803,803,803,803,803,803,803,803,803,803,803,803,803,803,803,803,803,803,803,803,812,832,837,839,840,842,846,852,866,879,891,912,918,924,930,933,935,935,935,935,935,935,935,935,935,935,931,919,907,897,890,884,876,871,865,858,850,847,844,842,840,835,832,830,829,829,829,828,826,824,823,823,823,823,823,823,823,829,846,876,923,975,1041,1047,1050,1050,1050,1056,1059],"ymouse":[515,515,515,515,515,515,515,515,515,515,515,515,515,515,515,515,515,515,515,515,515,515,515,515,515,515,515,515,515,515,515,515,515,515,515,515,515,515,515,515,515,515,515,515,515,515,515,515,515,515,515,515,515,515,515,515,515,515,515,515,515,515,515,515,515,515,515,515,515,515,515,515,515,515,515,515,515,515,515,515,515,515,515,514,503,483,479,477,475,474,465,456,435,417,399,370,357,344,330,323,319,319,319,319,319,319,319,319,319,318,321,333,347,359,367,375,387,393,402,411,426,431,436,443,449,468,476,480,483,483,483,485,488,490,491,491,491,491,491,491,491,487,467,433,379,320,236,218,199,179,155,107,86],"timestamp_mouse":[8,25,45,71,84,105,124,145,165,184,205,224,244,265,284,304,324,344,365,384,405,424,445,464,485,504,524,545,564,585,604,624,644,664,684,704,724,744,765,784,804,824,845,864,885,904,924,945,964,984,1004,1024,1045,1064,1085,1104,1125,1144,1164,1184,1205,1225,1245,1265,1284,1304,1325,1344,1365,1384,1404,1425,1445,1465,1484,1504,1524,1545,1564,1584,1605,1624,1644,1664,1684,1705,1725,1745,1764,1784,1805,1824,1845,1864,1885,1905,1923,1945,1964,1985,2005,2024,2044,2064,2086,2105,2124,2144,2165,2185,2204,2224,2245,2265,2285,2304,2324,2344,2364,2385,2405,2424,2445,2465,2485,2504,2524,2544,2565,2584,2604,2624,2644,2664,2684,2705,2724,2745,2765,2784,2804,2825,2844,2864,2884,2904,2924,2945,2964,2984,3005,3025,3044],"xSR":741.5,"ySR":469.95,"xT1":424.9,"yT1":0,"xT2":1058.1,"yT2":0,"toosoon":0,"cond_shown":"Congruent","ratio_trial":300,"L_num":5,"L_den":25,"R_num":6,"R_den":12,"correct_side":2,"subjID":"IsabellaGomezJaramillo24","gender":"1","school":"6","age":"11"},{"start_time":1551800780979,"click_time":1551800783849,"finger_time":1551800783310,"fix_duration":1149.9252383814926,"trial":31,"RT":2331,"MT":539,"sideResp":2,"stimulus":[],"xmouse":[807,807,807,807,807,807,807,807,807,807,807,807,807,807,807,807,807,807,807,807,807,807,807,807,807,807,807,807,807,807,807,807,807,807,807,807,807,807,807,807,807,807,807,807,807,807,807,807,807,807,807,807,807,807,807,807,807,807,807,807,807,807,807,807,807,807,807,807,807,807,807,807,807,807,807,807,807,807,807,807,807,807,807,807,807,807,807,807,807,807,807,807,807,807,807,807,807,807,807,807,807,807,807,807,807,807,807,807,807,807,807,807,807,806,807,823,836,845,853,903,944,993,1046,1102,1171,1186,1194,1195,1195,1197,1198,1198,1198,1198,1195,1188,1174,1169,1166,1166,1166,1164,1160,1155],"ymouse":[520,520,520,520,520,520,520,520,520,520,520,520,520,520,520,520,520,520,520,520,520,520,520,520,520,520,520,520,520,520,520,520,520,520,520,520,520,520,520,520,520,520,520,520,520,520,520,520,520,520,520,520,520,520,520,520,520,520,520,520,520,520,520,520,520,520,520,520,520,520,520,520,520,520,520,520,520,520,520,520,520,520,520,520,520,520,520,520,520,520,520,520,520,520,520,520,520,520,520,520,520,520,520,520,520,520,520,520,520,520,520,520,520,517,510,482,463,452,438,368,308,242,181,125,73,64,55,52,51,43,41,40,40,40,39,41,44,46,46,46,47,48,51,55],"timestamp_mouse":[9,38,51,70,90,110,130,150,171,191,210,231,251,270,290,310,330,350,371,391,410,430,450,471,491,510,530,550,570,591,610,630,651,671,690,710,730,750,770,790,810,830,850,871,890,910,930,950,971,990,1010,1030,1050,1071,1090,1110,1131,1150,1171,1191,1210,1230,1250,1271,1291,1311,1331,1350,1370,1391,1410,1430,1450,1471,1490,1511,1531,1551,1570,1590,1610,1630,1650,1670,1691,1710,1730,1750,1771,1790,1810,1831,1850,1871,1890,1911,1930,1950,1971,1990,2011,2031,2050,2070,2090,2111,2131,2150,2170,2191,2211,2230,2251,2271,2291,2310,2331,2350,2370,2391,2410,2430,2451,2470,2490,2509,2530,2550,2570,2591,2610,2631,2651,2671,2691,2710,2730,2750,2770,2790,2811,2830,2850,2870],"xSR":741.5,"ySR":469.95,"xT1":424.9,"yT1":0,"xT2":1058.1,"yT2":0,"toosoon":0,"cond_shown":"Congruent","ratio_trial":100,"L_num":15,"L_den":25,"R_num":13,"R_den":26,"correct_side":1,"subjID":"IsabellaGomezJaramillo24","gender":"1","school":"6","age":"11"},{"start_time":1551800785337,"click_time":1551800787070,"finger_time":1551800786749,"fix_duration":764.0856563623335,"trial":32,"RT":1412,"MT":321,"sideResp":2,"stimulus":[],"xmouse":[796,796,796,796,796,796,796,796,796,796,796,796,796,796,796,796,796,796,796,796,796,796,796,796,796,796,796,796,796,796,796,796,796,796,796,796,796,796,796,796,796,796,796,796,796,796,796,796,796,796,