[{"start_time":1551801356975,"click_time":1551801358428,"finger_time":1551801358007,"fix_duration":561.6729355228417,"trial":0,"RT":1032,"MT":421,"sideResp":1,"stimulus":"img/250/equaldotsize/L/7_Ratio_250_L_8_R_2.png","xmouse":[765,765,765,765,765,765,765,765,765,765,765,765,765,765,765,765,765,765,765,765,765,765,765,765,765,765,765,765,765,765,765,765,765,765,765,765,765,765,765,765,765,765,765,765,765,765,765,766,766,764,750,735,708,676,652,571,518,499,493,490,484,482,477,471,464,453,451,450,450,450,450,450,453],"ymouse":[542,542,542,542,542,542,542,542,542,542,542,542,542,542,542,542,542,542,542,542,542,542,542,542,542,542,542,542,542,542,542,542,542,542,542,542,542,542,542,542,542,542,542,542,542,542,542,542,541,538,526,510,483,449,427,357,304,277,255,237,216,209,198,184,164,129,120,115,114,112,108,104,99],"timestamp_mouse":[13,32,53,72,93,114,133,152,172,193,212,233,252,273,293,313,333,353,372,393,412,433,452,472,492,513,533,552,573,592,613,634,652,673,692,713,733,753,773,792,812,832,853,873,892,913,933,953,973,993,1012,1032,1054,1073,1092,1112,1133,1152,1172,1193,1213,1232,1253,1273,1292,1312,1333,1353,1372,1393,1413,1433,1453],"xSR":741.5,"ySR":501.8,"xT1":424.9,"yT1":0,"xT2":1058.1,"yT2":0,"toosoon":0,"cond_shown":"equaldotsize","ratio_trial":250,"smaller_num":"2","larger_num":"8","correct_side":1,"subjID":"IsabellaGomezJaramillo24","gender":"1","age":"11","school":"6","test":{"fix_dur":[250,1500],"timestim":300,"targets_dim":[100,100],"targets_relative_coord":[0.3,0.7],"size_stim":[880,420],"start_dim":[100,100],"size_start":[300,300],"size_fix":60,"samplingrate":20,"img_types":["equaldotsize","equaldotanddens","randomdotsizeEA"],"ratios":[250,500,750,900],"rep_conds":9,"nTrials":120,"trials_to_rest":500,"Trials_order":[96,3,34,32,88,102,0,16,17,114,28,1,13,26,35,36,90,48,44,97,2,33,66,37,46,81,117,71,67,112,80,5,12,45,95,98,57,103,52,56,99,22,87,41,105,47,24,76,86,101,78,58,104,18,111,38,30,72,20,69,93,39,65,68,107,27,6,11,63,85,21,91,61,23,29,83,94,60,118,116,70,31,59,75,50,4,64,51,106,73,108,25,19,84,74,14,15,109,42,10,9,89,92,79,54,119,115,100,49,7,82,110,77,40,53,55,62,8,43,113],"cond_shown":["equaldotsize","equaldotsize","equaldotanddens","randomdotsizeEA","equaldotanddens","equaldotsize","equaldotsize","equaldotanddens","randomdotsizeEA","equaldotsize","equaldotanddens","equaldotanddens","equaldotanddens","randomdotsizeEA","randomdotsizeEA","equaldotsize","equaldotsize","equaldotsize","randomdotsizeEA","equaldotanddens","randomdotsizeEA","equaldotsize","equaldotsize","equaldotanddens","equaldotanddens","equaldotsize","equaldotsize","randomdotsizeEA","equaldotanddens","equaldotanddens","randomdotsizeEA","randomdotsizeEA","equaldotsize","equaldotsize","randomdotsizeEA","randomdotsizeEA","equaldotsize","equaldotanddens","equaldotanddens","randomdotsizeEA","equaldotsize","equaldotanddens","equaldotsize","randomdotsizeEA","equaldotsize","randomdotsizeEA","equaldotsize","equaldotanddens","randomdotsizeEA","randomdotsizeEA","equaldotsize","equaldotanddens","randomdotsizeEA","equaldotsize","equaldotsize","randomdotsizeEA","equaldotsize","equaldotsize","randomdotsizeEA","equaldotsize","equaldotsize","equaldotsize","randomdotsizeEA","randomdotsizeEA","randomdotsizeEA","equaldotsize","equaldotsize","randomdotsizeEA","equaldotsize","equaldotanddens","equaldotsize","equaldotanddens","equaldotanddens","randomdotsizeEA","randomdotsizeEA","randomdotsizeEA","equaldotanddens","equaldotsize","equaldotanddens","randomdotsizeEA","equaldotanddens","equaldotanddens","randomdotsizeEA","equaldotsize","randomdotsizeEA","equaldotanddens","equaldotanddens","equaldotsize","equaldotanddens","equaldotanddens","equaldotsize","equaldotanddens","equaldotanddens","equaldotsize","randomdotsizeEA","randomdotsizeEA","equaldotsize","equaldotanddens","equaldotsize","equaldotanddens","equaldotsize","randomdotsizeEA","randomdotsizeEA","equaldotanddens","equaldotsize","randomdotsizeEA","equaldotanddens","equaldotanddens","equaldotanddens","equaldotanddens","equaldotanddens","randomdotsizeEA","randomdotsizeEA","equaldotanddens","randomdotsizeEA","equaldotanddens","randomdotsizeEA","randomdotsizeEA","equaldotanddens","randomdotsizeEA"],"ratio_trial":[250,500,900,750,500,750,250,500,500,750,500,250,250,250,900,250,750,250,750,250,250,900,750,250,900,900,900,900,750,500,750,500,250,900,900,250,900,750,500,750,500,900,500,500,900,900,250,500,250,500,750,900,750,750,500,250,750,250,750,900,900,500,500,750,900,500,750,900,500,250,900,750,250,900,500,900,900,250,900,750,900,750,900,500,250,500,500,500,900,250,250,250,750,250,250,250,500,250,750,900,900,500,750,750,750,900,750,500,250,750,900,250,500,500,500,750,250,750,750,500],"smaller_num":["2","2","18","12","9","18","1","2","1","15","5","3","3","4","9","6","3","3","9","5","6","18","3","6","9","9","18","18","6","9","18","9","5","9","9","6","9","3","1","3","1","18","5","4","9","18","3","5","2","2","15","18","15","3","9","1","3","2","3","9","18","4","2","6","18","1","6","18","4","1","18","3","3","18","1","9","9","5","18","6","18","3","9","2","3","10","2","4","9","3","2","4","3","3","5","2","2","1","3","18","18","9","18","15","6","18","9","9","2","12","18","2","10","3","4","6","3","15","3","9"],"larger_num":["8","4","20","16","18","24","4","4","2","20","10","12","12","16","10","24","4","12","12","20","24","20","4","24","10","10","20","20","8","18","24","18","20","10","10","24","10","4","2","4","2","20","10","8","10","20","12","10","8","4","20","20","20","4","18","4","4","8","4","10","20","8","4","8","20","2","8","20","8","4","20","4","12","20","2","10","10","20","20","8","20","4","10","4","12","20","4","8","10","12","8","16","4","12","20","8","4","4","4","20","20","18","24","20","8","20","12","18","8","16","20","8","20","6","8","8","12","20","4","18"],"correct_side":[1,1,2,2,1,1,2,1,2,2,2,2,2,1,1,2,2,2,2,2,1,2,2,2,2,2,1,1,2,2,1,2,2,2,2,2,2,2,2,1,2,1,1,1,2,1,1,1,2,1,1,1,2,1,2,2,2,1,2,1,1,1,2,1,2,2,1,2,1,2,2,2,2,2,2,2,1,2,2,2,1,1,2,2,2,2,1,1,2,2,1,2,1,2,2,1,1,2,1,1,1,2,1,1,1,2,2,1,1,2,1,2,2,2,1,2,1,1,1,1],"img_shown":["img/250/equaldotsize/L/7_Ratio_250_L_8_R_2.png","img/500/equaldotsize/L/10_Ratio_500_L_4_R_2.png","img/900/equaldotanddens/R/13_Ratio_900_L_18_R_20.png","img/750/randomdotsizeEA/R/11_Ratio_750_L_12_R_16.png","img/500/equaldotanddens/L/4_Ratio_500_L_18_R_9.png","img/750/equaldotsize/L/6_Ratio_750_L_24_R_18.png","img/250/equaldotsize/R/8_Ratio_250_L_1_R_4.png","img/500/equaldotanddens/L/5_Ratio_500_L_4_R_2.png","img/500/randomdotsizeEA/R/12_Ratio_500_L_1_R_2.png","img/750/equaldotsize/R/3_Ratio_750_L_15_R_20.png","img/500/equaldotanddens/R/14_Ratio_500_L_5_R_10.png","img/250/equaldotanddens/R/4_Ratio_250_L_3_R_12.png","img/250/equaldotanddens/R/11_Ratio_250_L_3_R_12.png","img/250/randomdotsizeEA/L/2_Ratio_250_L_16_R_4.png","img/900/randomdotsizeEA/L/1_Ratio_900_L_10_R_9.png","img/250/equaldotsize/R/6_Ratio_250_L_6_R_24.png","img/750/equaldotsize/R/7_Ratio_750_L_3_R_4.png","img/250/equaldotsize/R/9_Ratio_250_L_3_R_12.png","img/750/randomdotsizeEA/R/15_Ratio_750_L_9_R_12.png","img/250/equaldotanddens/R/12_Ratio_250_L_5_R_20.png","img/250/randomdotsizeEA/L/5_Ratio_250_L_24_R_6.png","img/900/equaldotsize/R/14_Ratio_900_L_18_R_20.png","img/750/equaldotsize/R/12_Ratio_750_L_3_R_4.png","img/250/equaldotanddens/R/6_Ratio_250_L_6_R_24.png","img/900/equaldotanddens/R/15_Ratio_900_L_9_R_10.png","img/900/equaldotsize/R/15_Ratio_900_L_9_R_10.png","img/900/equaldotsize/L/2_Ratio_900_L_20_R_18.png","img/900/randomdotsizeEA/L/8_Ratio_900_L_20_R_18.png","img/750/equaldotanddens/R/2_Ratio_750_L_6_R_8.png","img/500/equaldotanddens/R/6_Ratio_500_L_9_R_18.png","img/750/randomdotsizeEA/L/6_Ratio_750_L_24_R_18.png","img/500/randomdotsizeEA/R/1_Ratio_500_L_9_R_18.png","img/250/equaldotsize/R/12_Ratio_250_L_5_R_20.png","img/900/equaldotsize/R/7_Ratio_900_L_9_R_10.png","img/900/randomdotsizeEA/R/6_Ratio_900_L_9_R_10.png","img/250/randomdotsizeEA/R/6_Ratio_250_L_6_R_24.png","img/900/equaldotsize/R/5_Ratio_900_L_9_R_10.png","img/750/equaldotanddens/R/12_Ratio_750_L_3_R_4.png","img/500/equaldotanddens/R/15_Ratio_500_L_1_R_2.png","img/750/randomdotsizeEA/L/9_Ratio_750_L_4_R_3.png","img/500/equaldotsize/R/15_Ratio_500_L_1_R_2.png","img/900/equaldotanddens/L/8_Ratio_900_L_20_R_18.png","img/500/equaldotsize/L/7_Ratio_500_L_10_R_5.png","img/500/randomdotsizeEA/L/8_Ratio_500_L_8_R_4.png","img/900/equaldotsize/R/15_Ratio_900_L_9_R_10.png","img/900/randomdotsizeEA/L/10_Ratio_900_L_20_R_18.png","img/250/equaldotsize/L/15_Ratio_250_L_12_R_3.png","img/500/equaldotanddens/L/7_Ratio_500_L_10_R_5.png","img/250/randomdotsizeEA/R/13_Ratio_250_L_2_R_8.png","img/500/randomdotsizeEA/L/5_Ratio_500_L_4_R_2.png","img/750/equaldotsize/L/1_Ratio_750_L_20_R_15.png","img/900/equaldotanddens/L/8_Ratio_900_L_20_R_18.png","img/750/randomdotsizeEA/R/3_Ratio_750_L_15_R_20.png","img/750/equaldotsize/L/8_Ratio_750_L_4_R_3.png","img/500/equaldotsize/R/1_Ratio_500_L_9_R_18.png","img/250/randomdotsizeEA/R/8_Ratio_250_L_1_R_4.png","img/750/equaldotsize/R/7_Ratio_750_L_3_R_4.png","img/250/equaldotsize/L/3_Ratio_250_L_8_R_2.png","img/750/randomdotsizeEA/R/7_Ratio_750_L_3_R_4.png","img/900/equaldotsize/L/1_Ratio_900_L_10_R_9.png","img/900/equaldotsize/L/8_Ratio_900_L_20_R_18.png","img/500/equaldotsize/L/8_Ratio_500_L_8_R_4.png","img/500/randomdotsizeEA/R/9_Ratio_500_L_2_R_4.png","img/750/randomdotsizeEA/L/13_Ratio_750_L_8_R_6.png","img/900/randomdotsizeEA/R/14_Ratio_900_L_18_R_20.png","img/500/equaldotsize/R/15_Ratio_500_L_1_R_2.png","img/750/equaldotsize/L/14_Ratio_750_L_8_R_6.png","img/900/randomdotsizeEA/R/14_Ratio_900_L_18_R_20.png","img/500/equaldotsize/L/8_Ratio_500_L_8_R_4.png","img/250/equaldotanddens/R/8_Ratio_250_L_1_R_4.png","img/900/equaldotsize/R/13_Ratio_900_L_18_R_20.png","img/750/equaldotanddens/R/7_Ratio_750_L_3_R_4.png","img/250/equaldotanddens/R/11_Ratio_250_L_3_R_12.png","img/900/randomdotsizeEA/R/9_Ratio_900_L_18_R_20.png","img/500/randomdotsizeEA/R/12_Ratio_500_L_1_R_2.png","img/900/randomdotsizeEA/R/5_Ratio_900_L_9_R_10.png","img/900/equaldotanddens/L/1_Ratio_900_L_10_R_9.png","img/250/equaldotsize/R/12_Ratio_250_L_5_R_20.png","img/900/equaldotanddens/R/14_Ratio_900_L_18_R_20.png","img/750/randomdotsizeEA/R/2_Ratio_750_L_6_R_8.png","img/900/equaldotanddens/L/4_Ratio_900_L_20_R_18.png","img/750/equaldotanddens/L/9_Ratio_750_L_4_R_3.png","img/900/randomdotsizeEA/R/7_Ratio_900_L_9_R_10.png","img/500/equaldotsize/R/9_Ratio_500_L_2_R_4.png","img/250/randomdotsizeEA/R/11_Ratio_250_L_3_R_12.png","img/500/equaldotanddens/R/3_Ratio_500_L_10_R_20.png","img/500/equaldotanddens/L/10_Ratio_500_L_4_R_2.png","img/500/equaldotsize/L/8_Ratio_500_L_8_R_4.png","img/900/equaldotanddens/R/6_Ratio_900_L_9_R_10.png","img/250/equaldotanddens/R/4_Ratio_250_L_3_R_12.png","img/250/equaldotsize/L/7_Ratio_250_L_8_R_2.png","img/250/equaldotanddens/R/10_Ratio_250_L_4_R_16.png","img/750/equaldotanddens/L/8_Ratio_750_L_4_R_3.png","img/250/equaldotsize/R/11_Ratio_250_L_3_R_12.png","img/250/randomdotsizeEA/R/12_Ratio_250_L_5_R_20.png","img/250/randomdotsizeEA/L/7_Ratio_250_L_8_R_2.png","img/500/equaldotsize/L/5_Ratio_500_L_4_R_2.png","img/250/equaldotanddens/R/8_Ratio_250_L_1_R_4.png","img/750/equaldotsize/L/10_Ratio_750_L_4_R_3.png","img/900/equaldotanddens/L/4_Ratio_900_L_20_R_18.png","img/900/equaldotsize/L/8_Ratio_900_L_20_R_18.png","img/500/randomdotsizeEA/R/6_Ratio_500_L_9_R_18.png","img/750/randomdotsizeEA/L/6_Ratio_750_L_24_R_18.png","img/750/equaldotanddens/L/1_Ratio_750_L_20_R_15.png","img/750/equaldotsize/L/14_Ratio_750_L_8_R_6.png","img/900/randomdotsizeEA/R/14_Ratio_900_L_18_R_20.png","img/750/equaldotanddens/R/15_Ratio_750_L_9_R_12.png","img/500/equaldotanddens/L/4_Ratio_500_L_18_R_9.png","img/250/equaldotanddens/L/7_Ratio_250_L_8_R_2.png","img/750/equaldotanddens/R/11_Ratio_750_L_12_R_16.png","img/900/equaldotanddens/L/2_Ratio_900_L_20_R_18.png","img/250/randomdotsizeEA/R/13_Ratio_250_L_2_R_8.png","img/500/randomdotsizeEA/R/3_Ratio_500_L_10_R_20.png","img/500/equaldotanddens/R/2_Ratio_500_L_3_R_6.png","img/500/randomdotsizeEA/L/8_Ratio_500_L_8_R_4.png","img/750/equaldotanddens/R/2_Ratio_750_L_6_R_8.png","img/250/randomdotsizeEA/L/15_Ratio_250_L_12_R_3.png","img/750/randomdotsizeEA/L/1_Ratio_750_L_20_R_15.png","img/750/equaldotanddens/L/10_Ratio_750_L_4_R_3.png","img/500/randomdotsizeEA/L/4_Ratio_500_L_18_R_9.png"],"Rat0":[["12_Ratio_0_L_9_R_0.png","13_Ratio_0_L_6_R_0.png","5_Ratio_0_L_2_R_0.png","6_Ratio_0_L_4_R_0.png","8_Ratio_0_L_6_R_0.png"],["1_Ratio_0_L_0_R_17.png","10_Ratio_0_L_0_R_22.png","11_Ratio_0_L_0_R_1.png","14_Ratio_0_L_0_R_24.png","15_Ratio_0_L_0_R_4.png","2_Ratio_0_L_0_R_5.png","3_Ratio_0_L_0_R_17.png","4_Ratio_0_L_0_R_7.png","7_Ratio_0_L_0_R_19.png","9_Ratio_0_L_0_R_15.png"]],"Rat250":[["1_Ratio_250_L_8_R_2.png","14_Ratio_250_L_12_R_3.png","15_Ratio_250_L_12_R_3.png","2_Ratio_250_L_16_R_4.png","3_Ratio_250_L_8_R_2.png","5_Ratio_250_L_24_R_6.png","7_Ratio_250_L_8_R_2.png"],["10_Ratio_250_L_4_R_16.png","11_Ratio_250_L_3_R_12.png","12_Ratio_250_L_5_R_20.png","13_Ratio_250_L_2_R_8.png","4_Ratio_250_L_3_R_12.png","6_Ratio_250_L_6_R_24.png","8_Ratio_250_L_1_R_4.png","9_Ratio_250_L_3_R_12.png"]],"Rat500":[["10_Ratio_500_L_4_R_2.png","11_Ratio_500_L_12_R_6.png","13_Ratio_500_L_12_R_6.png","4_Ratio_500_L_18_R_9.png","5_Ratio_500_L_4_R_2.png","7_Ratio_500_L_10_R_5.png","8_Ratio_500_L_8_R_4.png"],["1_Ratio_500_L_9_R_18.png","12_Ratio_500_L_1_R_2.png","14_Ratio_500_L_5_R_10.png","15_Ratio_500_L_1_R_2.png","2_Ratio_500_L_3_R_6.png","3_Ratio_500_L_10_R_20.png","6_Ratio_500_L_9_R_18.png","9_Ratio_500_L_2_R_4.png"]],"Rat750":[["1_Ratio_750_L_20_R_15.png","10_Ratio_750_L_4_R_3.png","13_Ratio_750_L_8_R_6.png","14_Ratio_750_L_8_R_6.png","6_Ratio_750_L_24_R_18.png","8_Ratio_750_L_4_R_3.png","9_Ratio_750_L_4_R_3.png"],["11_Ratio_750_L_12_R_16.png","12_Ratio_750_L_3_R_4.png","15_Ratio_750_L_9_R_12.png","2_Ratio_750_L_6_R_8.png","3_Ratio_750_L_15_R_20.png","4_Ratio_750_L_15_R_20.png","5_Ratio_750_L_15_R_20.png","7_Ratio_750_L_3_R_4.png"]],"Rat900":[["1_Ratio_900_L_10_R_9.png","10_Ratio_900_L_20_R_18.png","2_Ratio_900_L_20_R_18.png","4_Ratio_900_L_20_R_18.png","8_Ratio_900_L_20_R_18.png"],["11_Ratio_900_L_18_R_20.png","12_Ratio_900_L_18_R_20.png","13_Ratio_900_L_18_R_20.png","14_Ratio_900_L_18_R_20.png","15_Ratio_900_L_9_R_10.png","3_Ratio_900_L_9_R_10.png","5_Ratio_900_L_9_R_10.png","6_Ratio_900_L_9_R_10.png","7_Ratio_900_L_9_R_10.png","9_Ratio_900_L_18_R_20.png"]],"Rat1000":[["10_Ratio_1000_L_16_R_16.png","11_Ratio_1000_L_6_R_6.png","12_Ratio_1000_L_14_R_14.png","13_Ratio_1000_L_20_R_20.png","15_Ratio_1000_L_15_R_15.png","2_Ratio_1000_L_17_R_17.png","4_Ratio_1000_L_9_R_9.png","5_Ratio_1000_L_6_R_6.png","6_Ratio_1000_L_19_R_19.png","8_Ratio_1000_L_14_R_14.png","9_Ratio_1000_L_25_R_25.png"],["1_Ratio_1000_L_1_R_1.png","14_Ratio_1000_L_17_R_17.png","3_Ratio_1000_L_17_R_17.png","7_Ratio_1000_L_6_R_6.png"]]}},{"start_time":1551801360279,"click_time":1551801361487,"finger_time":1551801360967,"fix_duration":1010.9629226705033,"trial":1,"RT":688,"MT":520,"sideResp":1,"stimulus":"img/500/equaldotsize/L/10_Ratio_500_L_4_R_2.png","xmouse":[790,790,790,790,790,790,790,790,790,790,790,790,790,790,790,790,790,790,790,790,790,790,790,790,790,790,790,790,790,790,790,787,781,777,774,767,763,756,747,735,698,685,672,663,655,638,628,620,611,603,594,591,589,585,582,574,569,560,549,534,505],"ymouse":[525,525,525,525,525,525,525,525,525,525,525,525,525,525,525,525,525,525,525,525,525,525,525,525,525,525,525,525,525,525,526,506,486,472,462,444,437,425,412,396,347,327,310,295,283,251,228,211,198,188,177,176,174,171,168,163,158,150,137,114,65],"timestamp_mouse":[9,38,48,68,89,108,129,149,170,188,209,229,248,268,288,310,329,349,370,390,409,428,448,468,488,509,529,548,570,589,608,628,648,669,688,709,728,748,769,788,809,829,849,869,889,909,928,949,969,988,1008,1029,1049,1068,1088,1109,1129,1148,1168,1188,1208],"xSR":741.5,"ySR":469.95,"xT1":424.9,"yT1":0,"xT2":1058.1,"yT2":0,"toosoon":0,"cond_shown":"equaldotsize","ratio_trial":500,"smaller_num":"2","larger_num":"4","correct_side":1,"subjID":"IsabellaGomezJaramillo24","gender":"1","age":"11","school":"6"},{"start_time":1551801362598,"click_time":1551801363769,"finger_time":1551801363468,"fix_duration":350.52122769549675,"trial":2,"RT":870,"MT":301,"sideResp":2,"stimulus":"img/900/equaldotanddens/R/13_Ratio_900_L_18_R_20.png","xmouse":[812,812,812,812,811,811,811,811,811,811,811,811,811,811,811,811,811,811,811,811,811,811,811,811,811,811,811,811,811,811,811,811,811,811,811,811,811,811,811,811,811,813,818,854,909,941,964,989,1016,1047,1051,1055,1058,1065,1070,1074,1078,1085,1093],"ymouse":[541,541,541,541,541,541,541,541,541,541,541,541,541,541,541,541,541,541,541,541,541,541,541,541,541,541,541,541,541,541,541,541,541,541,541,541,541,541,541,541,541,538,532,494,432,390,352,307,250,187,176,167,159,146,133,121,112,104,95],"timestamp_mouse":[13,36,50,69,90,110,129,149,170,189,210,231,250,269,289,310,331,349,369,389,410,430,449,469,489,509,529,550,570,589,611,629,649,670,689,710,730,750,769,789,810,830,850,870,890,909,929,950,971,989,1010,1029,1049,1070,1089,1110,1130,1149,1170],"xSR":741.5,"ySR":469.95,"xT1":424.9,"yT1":0,"xT2":1058.1,"yT2":0,"toosoon":0,"cond_shown":"equaldotanddens","ratio_trial":900,"smaller_num":"18","larger_num":"20","correct_side":2,"subjID":"IsabellaGomezJaramillo24","gender":"1","age":"11","school":"6"},{"start_time":1551801364922,"click_time":1551801366048,"finger_time":1551801365728,"fix_duration":271.45970873021554,"trial":3,"RT":806,"MT":320,"sideResp":2,"stimulus":"img/750/randomdotsizeEA/R/11_Ratio_750_L_12_R_16.png","xmouse":[792,792,792,792,792,792,792,792,792,792,792,792,792,792,792,792,792,792,792,792,792,792,792,792,792,792,792,792,792,792,792,792,792,792,792,792,794,797,827,841,851,857,863,881,896,915,930,938,948,948,954,963,978,1024,1048,1070,1087],"ymouse":[509,509,509,509,509,509,509,509,509,509,509,509,509,509,509,509,509,509,509,509,509,509,509,509,509,509,509,509,509,509,509,509,509,509,509,509,509,509,489,477,465,450,432,375,338,303,282,269,241,230,215,198,177,128,114,103,98],"timestamp_mouse":[8,33,46,66,86,107,126,146,165,185,206,225,246,266,287,307,326,346,366,386,406,426,445,466,486,505,527,546,565,586,607,626,645,666,686,705,725,746,765,786,806,825,845,865,885,906,926,945,965,986,1006,1026,1046,1065,1085,1105,1126],"xSR":741.5,"ySR":469.95,"xT1":424.9,"yT1":0,"xT2":1058.1,"yT2":0,"toosoon":0,"cond_shown":"randomdotsizeEA","ratio_trial":750,"smaller_num":"12","larger_num":"16","correct_side":2,"subjID":"IsabellaGomezJaramillo24","gender":"1","age":"11","school":"6"},{"start_time":1551801367711,"click_time":1551801368887,"finger_time":1551801368467,"fix_duration":722.7894246114162,"trial":4,"RT":756,"MT":420,"sideResp":1,"stimulus":"img/500/equaldotanddens/L/4_Ratio_500_L_18_R_9.png","xmouse":[773,773,773,773,773,773,773,773,773,773,773,773,773,773,773,773,773,773,773,773,773,773,773,773,773,773,773,773,773,773,773,773,773,773,773,767,762,751,727,715,702,691,681,660,653,643,634,622,596,576,565,557,549,535,531,527,523,517,503],"ymouse":[504,504,504,504,504,504,504,504,504,504,504,504,504,504,504,504,504,504,504,504,504,504,504,504,504,504,504,504,504,504,504,504,504,504,504,491,483,465,423,400,379,360,341,304,288,270,255,239,206,186,176,167,155,133,127,122,115,108,89],"timestamp_mouse":[17,36,56,77,98,117,137,156,176,198,216,236,256,277,297,316,336,356,377,396,417,437,456,476,498,517,538,556,576,598,617,637,657,677,696,718,736,756,776,796,816,836,858,876,897,916,936,958,977,996,1016,1036,1057,1076,1097,1117,1136,1156,1176],"xSR":741.5,"ySR":469.95,"xT1":424.9,"yT1":0,"xT2":1058.1,"yT2":0,"toosoon":0,"cond_shown":"equaldotanddens","ratio_trial":500,"smaller_num":"9","larger_num":"18","correct_side":1,"subjID":"IsabellaGomezJaramillo24","gender":"1","age":"11","school":"6"},{"start_time":1551801371084,"click_time":1551801373027,"finger_time":1551801372267,"fix_duration":1235.026990843148,"trial":5,"RT":1183,"MT":760,"sideResp":2,"stimulus":"img/750/equaldotsize/L/6_Ratio_750_L_24_R_18.png","xmouse":[780,780,780,780,780,780,780,780,780,780,780,780,780,780,780,780,780,780,780,780,780,780,780,780,780,780,780,780,780,780,780,780,780,780,780,780,780,780,780,780,780,780,780,780,780,780,780,780,780,780,780,780,780,780,780,780,780,771,760,742,690,644,628,620,615,612,610,608,600,595,584,579,577,575,575,575,575,575,575,576,645,701,767,826,889,969,986,996,1001,1005,1008,1010,1011,1013,1016,1025,1041,1066],"ymouse":[503,503,503,503,503,503,503,503,503,503,503,503,503,503,503,503,503,503,503,503,503,503,503,503,503,503,503,503,503,503,503,503,503,503,503,503,503,503,503,503,503,503,503,503,503,503,503,503,503,503,503,503,503,503,503,503,503,488,475,455,400,352,329,313,302,295,292,284,269,251,225,214,208,205,203,203,203,203,203,204,236,249,252,250,230,191,176,167,160,153,142,137,129,121,113,101,94,84],"timestamp_mouse":[9,29,43,65,85,103,124,144,163,185,203,224,245,264,284,303,323,344,364,383,404,423,444,464,483,503,523,543,564,584,604,623,643,663,683,703,725,744,763,784,803,823,844,863,884,904,923,944,964,983,1003,1025,1044,1064,1085,1103,1125,1145,1164,1183,1204,1224,1243,1263,1283,1304,1323,1343,1363,1385,1404,1423,1443,1463,1483,1503,1524,1544,1563,1583,1604,1624,1644,1663,1684,1703,1725,1745,1764,1783,1803,1823,1843,1863,1884,1903,1924,1943],"xSR":741.5,"ySR":469.95,"xT1":424.9,"yT1":0,"xT2":1058.1,"yT2":0,"toosoon":0,"cond_shown":"equaldotsize","ratio_trial":750,"smaller_num":"18","larger_num":"24","correct_side":1,"subjID":"IsabellaGomezJaramillo24","gender":"1","age":"11","school":"6"},{"start_time":1551801374104,"click_time":1551801375328,"finger_time":1551801375128,"fix_duration":355.95105574950026,"trial":6,"RT":1024,"MT":200,"sideResp":2,"stimulus":"img/250/equaldotsize/R/8_Ratio_250_L_1_R_4.png","xmouse":[779,779,779,779,779,779,779,779,779,779,779,779,779,779,779,779,779,779,779,779,779,779,779,779,779,779,779,779,779,779,779,779,779,779,779,779,779,779,779,780,780,780,780,780,780,780,780,781,783,812,838,881,928,972,1027,1056,1080,1100,1113,1125,1127,1127],"ymouse":[516,516,516,516,516,516,516,516,516,516,516,516,516,516,516,516,516,516,516,516,516,516,516,516,516,516,516,516,516,516,516,516,516,516,516,516,516,516,516,516,516,516,516,516,516,516,516,516,516,489,474,450,423,395,321,259,202,163,138,109,102,95],"timestamp_mouse":[3,32,44,64,84,105,123,143,163,183,204,224,243,263,284,303,325,343,364,383,405,423,443,463,483,504,524,543,564,583,604,623,644,664,683,704,724,743,763,784,804,823,845,865,883,904,924,944,963,983,1004,1024,1044,1063,1083,1104,1124,1143,1164,1183,1204,1224],"xSR":741.5,"ySR":469.95,"xT1":424.9,"yT1":0,"xT2":1058.1,"yT2":0,"toosoon":0,"cond_shown":"equaldotsize","ratio_trial":250,"smaller_num":"1","larger_num":"4","correct_side":2,"subjID":"IsabellaGomezJaramillo24","gender":"1","age":"11","school":"6"},{"start_time":1551801376933,"click_time":1551801378087,"finger_time":1551801377687,"fix_duration":723.9730213501072,"trial":7,"RT":754,"MT":400,"sideResp":1,"stimulus":"img/500/equaldotanddens/L/5_Ratio_500_L_4_R_2.png","xmouse":[796,796,796,796,796,796,796,796,796,796,796,796,796,796,796,796,796,796,796,796,796,796,796,796,796,796,796,796,796,796,796,796,796,796,792,789,777,718,696,682,671,662,654,646,638,626,612,589,585,582,578,574,562,556,551,547,542,492],"ymouse":[539,539,539,539,539,539,539,539,539,539,539,539,539,539,539,539,539,539,539,539,539,539,539,539,539,539,539,539,539,539,539,539,539,539,537,533,517,446,415,394,375,354,314,291,268,244,220,169,161,156,150,147,141,137,132,129,123,82],"timestamp_mouse":[14,34,54,74,95,114,134,154,174,195,215,235,256,276,295,314,334,354,375,394,415,435,456,475,494,515,534,555,574,595,614,634,656,674,694,715,734,754,775,795,814,834,855,874,894,916,936,956,975,995,1014,1035,1055,1074,1095,1116,1135,1154],"xSR":741.5,"ySR":469.95,"xT1":424.9,"yT1":0,"xT2":1058.1,"yT2":0,"toosoon":0,"cond_shown":"equaldotanddens","ratio_trial":500,"smaller_num":"2","larger_num":"4","correct_side":1,"subjID":"IsabellaGomezJaramillo24","gender":"1","age":"11","school":"6"},{"start_time":1551801380787,"click_time":1551801381648,"finger_time":1551801381488,"fix_duration":1057.8262124119217,"trial":8,"RT":701,"MT":160,"sideResp":2,"stimulus":"img/500/randomdotsizeEA/R/12_Ratio_500_L_1_R_2.png","xmouse":[804,804,804,804,804,804,804,804,804,804,804,804,804,804,804,804,804,804,804,804,804,804,804,804,804,804,804,804,804,804,804,804,804,804,804,904,985,1067,1132,1161,1170,1168,1158,1149],"ymouse":[537,537,537,537,537,537,537,537,537,537,537,537,537,537,537,537,537,537,537,537,537,537,537,537,537,537,537,537,537,537,537,537,537,537,533,420,349,286,231,200,158,135,115,98],"timestamp_mouse":[8,20,40,61,81,100,121,140,161,181,202,222,241,260,281,301,320,341,362,381,401,420,441,462,482,501,522,540,560,581,601,621,640,661,680,701,720,740,761,781,800,822,840,860],"xSR":741.5,"ySR":469.95,"xT1":424.9,"yT1":0,"xT2":1058.1,"yT2":0,"toosoon":0,"cond_shown":"randomdotsizeEA","ratio_trial":500,"smaller_num":"1","larger_num":"2","correct_side":2,"subjID":"IsabellaGomezJaramillo24","gender":"1","age":"11","school":"6"},{"start_time":1551801388561,"click_time":1551801389587,"finger_time":1551801389307,"fix_duration":1410.826254102391,"trial":9,"RT":746,"MT":280,"sideResp":2,"stimulus":"img/750/equaldotsize/R/3_Ratio_750_L_15_R_20.png","xmouse":[796,796,796,796,796,796,796,796,796,796,796,796,796,796,796,796,796,796,796,796,796,796,796,796,796,796,796,796,796,796,796,796,796,796,796,796,801,833,861,885,915,974,993,1008,1020,1028,1056,1069,1080,1090,1097,1104],"ymouse":[509,509,509,509,509,509,509,509,509,509,509,509,509,509,509,509,509,509,509,509,509,509,509,509,509,509,509,509,509,509,509,509,509,509,509,509,499,467,438,419,393,342,324,311,293,278,229,207,182,152,120,63],"timestamp_mouse":[6,35,46,66,88,107,127,146,167,187,208,226,247,268,286,306,328,347,367,386,406,426,446,466,486,506,526,547,567,587,606,627,646,667,686,706,726,746,768,786,807,826,847,866,887,906,926,946,966,987,1006,1026],"xSR":741.5,"ySR":469.95,"xT1":424.9,"yT1":0,"xT2":1058.1,"yT2":0,"toosoon":0,"cond_shown":"equaldotsize","ratio_trial":750,"smaller_num":"15","larger_num":"20","correct_side":2,"subjID":"IsabellaGomezJaramillo24","gender":"1","age":"11","school":"6"},{"start_time":1551801391353,"click_time":1551801392247,"finger_time":1551801391907,"fix_duration":983.0441492597067,"trial":10,"RT":554,"MT":340,"sideResp":2,"stimulus":"img/500/equaldotanddens/R/14_Ratio_500_L_5_R_10.png","xmouse":[760,760,760,760,760,760,760,760,760,760,760,760,760,760,760,760,760,760,760,760,760,760,760,760,760,760,781,879,949,1010,1053,1088,1092,1094,1094,1095,1104,1107,1110,1110,1111,1111,1113,1116,1121],"ymouse":[533,533,533,533,533,533,533,533,533,533,533,533,533,533,533,533,533,533,533,533,533,533,533,533,533,533,513,446,399,355,318,277,264,250,235,220,185,174,166,159,152,135,124,112,98],"timestamp_mouse":[15,34,55,74,94,115,134,155,175,195,214,234,255,275,296,316,334,355,374,394,416,435,454,475,494,515,535,554,574,594,616,634,655,674,695,714,734,755,774,794,814,835,854,875,894],"xSR":741.5,"ySR":469.95,"xT1":424.9,"yT1":0,"xT2":1058.1,"yT2":0,"toosoon":0,"cond_shown":"equaldotanddens","ratio_trial":500,"smaller_num":"5","larger_num":"10","correct_side":2,"subjID":"IsabellaGomezJaramillo24","gender":"1","age":"11","school":"6"},{"start_time":1551801393479,"click_time":1551801394768,"finger_time":1551801394067,"fix_duration":551.3076845663987,"trial":11,"RT":588,"MT":701,"sideResp":2,"stimulus":"img/250/equaldotanddens/R/4_Ratio_250_L_3_R_12.png","xmouse":[805,805,805,805,805,805,805,805,805,805,805,805,805,805,805,805,805,805,805,805,805,805,805,807,813,821,825,829,834,846,869,884,898,911,924,936,939,942,948,957,977,986,994,1001,1006,1015,1021,1028,1037,1044,1052,1052,1053,1053,1053,1053,1053,1053,1053,1053,1053,1053,1053,1053,1064],"ymouse":[512,512,512,512,512,512,512,512,512,512,512,512,512,512,512,512,512,512,512,512,512,512,513,513,508,496,491,485,479,462,426,407,386,368,352,333,327,321,310,298,264,250,234,222,210,186,170,153,138,125,106,105,104,104,104,104,104,104,104,104,104,104,104,102,91],"timestamp_mouse":[10,34,50,68,88,109,129,150,169,188,208,228,249,268,288,309,329,349,369,388,408,428,448,468,488,508,530,549,568,588,608,629,649,668,688,709,728,748,768,788,808,829,849,868,889,908,928,948,969,988,1008,1028,1049,1070,1090,1109,1128,1148,1168,1189,1209,1229,1248,1268,1289],"xSR":741.5,"ySR":469.95,"xT1":424.9,"yT1":0,"xT2":1058.1,"yT2":0,"toosoon":0,"cond_shown":"equaldotanddens","ratio_trial":250,"smaller_num":"3","larger_num":"12","correct_side":2,"subjID":"IsabellaGomezJaramillo24","gender":"1","age":"11","school":"6"},{"start_time":1551801397443,"click_time":1551801398908,"finger_time":1551801398087,"fix_duration":375.61988441327657,"trial":12,"RT":644,"MT":821,"sideResp":2,"stimulus":"img/250/equaldotanddens/R/11_Ratio_250_L_3_R_12.png","xmouse":[796,796,796,796,796,796,796,796,796,796,796,796,796,796,796,796,796,796,796,796,796,796,796,796,794,794,794,792,787,785,785,785,815,829,842,857,872,900,911,918,922,926,946,955,965,972,980,997,1003,1012,1024,1037,1043,1043,1043,1043,1045,1046,1046,1046,1046,1044,1039,1037,1036,1037,1041,1049,1050,1052,1052,1053,1056,1060],"ymouse":[520,520,520,520,520,520,520,520,520,520,520,520,520,520,520,520,520,520,520,520,520,520,520,520,520,521,521,523,524,524,518,504,429,401,378,357,337,300,282,272,263,252,222,211,198,187,175,140,119,94,63,34,10,10,10,10,8,7,7,7,7,10,25,35,41,46,48,49,49,49,49,49,49,48],"timestamp_mouse":[9,24,45,66,84,105,125,144,164,185,205,225,244,265,284,305,324,345,365,385,406,424,444,465,484,504,525,545,564,585,605,625,644,664,684,704,725,744,765,784,804,826,844,864,885,904,924,945,964,984,1005,1026,1045,1065,1085,1105,1124,1145,1165,1185,1204,1224,1245,1266,1285,1304,1325,1344,1365,1385,1404,1424,1445,1465],"xSR":741.5,"ySR":469.95,"xT1":424.9,"yT1":0,"xT2":1058.1,"yT2":0,"toosoon":0,"cond_shown":"equaldotanddens","ratio_trial":250,"smaller_num":"3","larger_num":"12","correct_side":2,"subjID":"IsabellaGomezJaramillo24","gender":"1","age":"11","school":"6"},{"start_time":1551801400246,"click_time":1551801401247,"finger_time":1551801400907,"fix_duration":558.6302236314367,"trial":13,"RT":661,"MT":340,"sideResp":1,"stimulus":"img/250/randomdotsizeEA/L/2_Ratio_250_L_16_R_4.png","xmouse":[792,792,792,792,792,792,792,792,792,792,792,792,792,792,792,792,792,794,795,796,796,796,796,796,796,796,796,796,796,793,789,783,767,757,742,725,704,671,657,644,633,623,597,589,582,578,573,556,545,534,521],"ymouse":[525,525,525,525,525,525,525,525,525,525,525,525,525,525,525,525,525,525,524,524,524,524,524,524,524,524,524,524,520,517,510,503,478,460,434,403,365,318,300,285,271,258,219,204,190,178,167,140,123,107,93],"timestamp_mouse":[10,23,42,61,82,103,121,142,162,181,202,221,241,262,283,302,321,342,362,381,401,421,442,462,481,501,522,541,561,581,602,622,641,661,682,702,721,741,761,782,801,821,841,862,881,901,922,942,962,981,1001],"xSR":741.5,"ySR":469.95,"xT1":424.9,"yT1":0,"xT2":1058.1,"yT2":0,"toosoon":0,"cond_shown":"randomdotsizeEA","ratio_trial":250,"smaller_num":"4","larger_num":"16","correct_side":1,"subjID":"IsabellaGomezJaramillo24","gender":"1","age":"11","school":"6"},{"start_time":1551801402597,"click_time":1551801404328,"finger_time":1551801403529,"fix_duration":507.1882524714275,"trial":14,"RT":932,"MT":799,"sideResp":1,"stimulus":"img/900/randomdotsizeEA/L/1_Ratio_900_L_10_R_9.png","xmouse":[808,808,808,808,808,808,808,808,808,808,808,808,808,808,808,808,808,808,808,808,808,808,808,808,808,808,808,808,808,808,808,808,808,808,808,808,808,808,808,808,809,813,819,827,836,840,842,844,846,851,852,853,853,853,859,871,883,896,908,913,913,913,913,899,819,734,685,649,634,624,624,622,618,606,575,565,552,539,530,530,530,530,530,530,530,530,494],"ymouse":[529,529,529,529,529,529,529,529,529,529,529,529,529,529,529,529,529,529,529,529,529,529,529,529,529,529,529,529,529,529,529,529,529,529,529,529,529,529,529,529,528,526,522,516,507,503,501,497,493,485,480,478,474,470,451,423,401,378,361,354,353,353,352,349,347,347,339,330,321,290,252,197,146,110,48,34,19,7,2,2,2,2,2,2,2,2,10],"timestamp_mouse":[11,33,50,71,91,111,130,150,170,190,210,231,250,271,290,311,330,351,370,390,410,430,451,470,490,510,530,550,571,591,611,630,651,671,690,711,730,750,771,791,811,830,851,872,890,910,932,950,970,991,1010,1030,1051,1071,1090,1111,1130,1151,1171,1191,1211,1230,1250,1271,1290,1310,1330,1350,1370,1390,1411,1431,1451,1470,1490,1510,1530,1551,1571,1590,1610,1630,1651,1670,1691,1711,1731],"xSR":741.5,"ySR":469.95,"xT1":424.9,"yT1":0,"xT2":1058.1,"yT2":0,"toosoon":0,"cond_shown":"randomdotsizeEA","ratio_trial":900,"smaller_num":"9","larger_num":"10","correct_side":1,"subjID":"IsabellaGomezJaramillo24","gender":"1","age":"11","school":"6"},{"start_time":1551801405903,"click_time":1551801406909,"finger_time":1551801406568,"fix_duration":773.0383050266261,"trial":15,"RT":665,"MT":341,"sideResp":2,"stimulus":"img/250/equaldotsize/R/6_Ratio_250_L_6_R_24.png","xmouse":[818,818,818,818,818,818,818,818,818,818,818,818,818,818,818,818,818,818,818,818,818,818,818,818,818,818,818,818,818,818,818,824,834,850,894,925,953,977,1008,1044,1052,1055,1057,1058,1061,1064,1066,1068,1070,1070,1072],"ymouse":[520,520,520,520,520,520,520,520,520,520,520,520,520,520,520,520,520,520,520,520,520,520,520,520,520,520,520,520,520,520,520,513,500,482,430,392,349,309,258,168,147,138,132,128,119,111,107,103,100,100,98],"timestamp_mouse":[8,35,44,66,85,104,125,144,166,185,204,225,245,264,286,305,324,344,365,384,406,424,445,465,484,505,525,545,564,584,604,625,644,665,684,705,725,744,765,785,804,824,844,864,884,904,925,945,964,985,1005],"xSR":741.5,"ySR":469.95,"xT1":424.9,"yT1":0,"xT2":1058.1,"yT2":0,"toosoon":0,"cond_shown":"equaldotsize","ratio_trial":250,"smaller_num":"6","larger_num":"24","correct_side":2,"subjID":"IsabellaGomezJaramillo24","gender":"1","age":"11","school":"6"},{"start_time":1551801409094,"click_time":1551801409808,"finger_time":1551801409687,"fix_duration":1305.2791438377049,"trial":16,"RT":593,"MT":121,"sideResp":2,"stimulus":"img/750/equaldotsize/R/7_Ratio_750_L_3_R_4.png","xmouse":[769,769,769,769,769,769,769,769,769,769,769,769,769,769,769,769,769,769,769,769,769,769,769,769,769,769,771,777,794,876,915,942,973,1001,1047,1065],"ymouse":[525,525,525,525,525,525,525,525,525,525,525,525,525,525,525,525,525,525,525,525,525,525,525,525,525,525,525,522,509,397,345,294,253,207,121,82],"timestamp_mouse":[14,37,53,74,93,113,134,153,175,193,214,233,255,274,294,313,333,354,374,393,413,433,454,473,493,513,534,553,573,593,614,634,653,673,694,713],"xSR":741.5,"ySR":469.95,"xT1":424.9,"yT1":0,"xT2":1058.1,"yT2":0,"toosoon":0,"cond_shown":"equaldotsize","ratio_trial":750,"smaller_num":"3","larger_num":"4","correct_side":2,"subjID":"IsabellaGomezJaramillo24","gender":"1","age":"11","school":"6"},{"start_time":1551801411252,"click_time":1551801411988,"finger_time":1551801411849,"fix_duration":604.6452332107017,"trial":17,"RT":597,"MT":139,"sideResp":2,"stimulus":"img/250/equaldotsize/R/9_Ratio_250_L_3_R_12.png","xmouse":[788,791,791,791,791,791,791,791,791,791,791,791,791,791,791,791,791,793,795,798,800,801,801,801,801,801,804,811,829,861,897,1030,1078,1113,1127,1132,1136],"ymouse":[554,554,554,554,554,554,554,554,554,554,554,554,554,554,554,554,554,554,554,554,552,552,552,552,552,552,550,547,533,504,461,298,229,166,131,110,85],"timestamp_mouse":[16,35,55,75,95,115,135,156,175,195,215,235,255,275,295,316,335,355,376,396,416,435,456,476,495,517,535,555,576,596,616,635,656,676,696,715,736],"xSR":741.5,"ySR":469.95,"xT1":424.9,"yT1":0,"xT2":1058.1,"yT2":0,"toosoon":0,"cond_shown":"equaldotsize","ratio_trial":250,"smaller_num":"3","larger_num":"12","correct_side":2,"subjID":"IsabellaGomezJaramillo24","gender":"1","age":"11","school":"6"},{"start_time":1551801413169,"click_time":1551801413987,"finger_time":1551801413587,"fix_duration":340.758117722844,"trial":18,"RT":418,"MT":400,"sideResp":2,"stimulus":"img/750/randomdotsizeEA/R/15_Ratio_750_L_9_R_12.png","xmouse":[790,790,790,790,790,790,790,790,790,790,790,790,790,790,790,790,790,794,810,833,905,937,964,984,991,992,992,992,992,993,999,1009,1017,1029,1041,1058,1062,1066,1070,1075,1085],"ymouse":[500,500,500,500,500,500,500,500,500,500,500,500,500,500,500,500,500,499,490,474,409,363,317,283,271,269,269,269,269,269,256,241,225,210,190,158,150,139,123,107,73],"timestamp_mouse":[27,38,60,79,99,118,139,159,180,199,218,239,259,278,298,319,339,358,379,398,418,438,458,478,499,519,539,558,579,599,619,638,659,678,699,718,739,758,779,798,818],"xSR":741.5,"ySR":469.95,"xT1":424.9,"yT1":0,"xT2":1058.1,"yT2":0,"toosoon":0,"cond_shown":"randomdotsizeEA","ratio_trial":750,"smaller_num":"9","larger_num":"12","correct_side":2,"subjID":"IsabellaGomezJaramillo24","gender":"1","age":"11","school":"6"},{"start_time":1551801415370,"click_time":1551801416168,"finger_time":1551801415908,"fix_duration":682.2862318269105,"trial":19,"RT":538,"MT":260,"sideResp":2,"stimulus":"img/250/equaldotanddens/R/12_Ratio_250_L_5_R_20.png","xmouse":[794,794,794,794,794,794,794,794,794,794,794,794,794,794,794,794,794,794,794,794,794,794,794,801,810,824,829,833,838,844,867,885,909,943,973,1026,1035,1046,1055,1065],"ymouse":[527,527,527,527,527,527,527,527,527,527,527,527,527,527,527,527,527,527,527,527,527,527,527,520,503,478,469,464,455,443,402,368,326,279,235,160,142,123,108,90],"timestamp_mouse":[17,38,57,77,97,118,137,158,178,198,217,238,258,277,297,318,339,357,377,397,417,437,458,478,497,517,538,559,577,598,617,637,658,678,697,717,738,757,777,798],"xSR":741.5,"ySR":469.95,"xT1":424.9,"yT1":0,"xT2":1058.1,"yT2":0,"toosoon":0,"cond_shown":"equaldotanddens","ratio_trial":250,"smaller_num":"5","larger_num":"20","correct_side":2,"subjID":"IsabellaGomezJaramillo24","gender":"1","age":"11","school":"6"},{"start_time":1551801417728,"click_time":1551801418667,"finger_time":1551801418349,"fix_duration":939.0231245765831,"trial":20,"RT":621,"MT":318,"sideResp":1,"stimulus":"img/250/randomdotsizeEA/L/5_Ratio_250_L_24_R_6.png","xmouse":[792,792,792,792,792,792,792,792,792,792,792,792,792,792,792,792,792,792,792,792,792,792,792,792,792,792,792,792,792,788,766,729,682,591,550,513,478,448,404,399,395,394,393,393,398,406,416,427],"ymouse":[517,517,517,517,517,517,517,517,517,517,517,517,517,517,517,517,517,517,517,517,517,517,517,517,517,517,517,517,517,515,479,427,361,251,213,185,162,143,118,114,110,108,103,94,88,84,79,73],"timestamp_mouse":[1,19,39,60,79,99,119,139,160,180,199,219,239,259,279,300,320,339,359,379,401,419,439,459,479,499,520,539,559,579,601,621,640,659,679,699,720,739,759,780,799,819,840,860,879,899,920,939],"xSR":741.5,"ySR":469.95,"xT1":424.9,"yT1":0,"xT2":1058.1,"yT2":0,"toosoon":0,"cond_shown":"randomdotsizeEA","ratio_trial":250,"smaller_num":"6","larger_num":"24","correct_side":1,"subjID":"IsabellaGomezJaramillo24","gender":"1","age":"11","school":"6"},{"start_time":1551801420023,"click_time":1551801420988,"finger_time":1551801420629,"fix_duration":635.6406895572609,"trial":21,"RT":606,"MT":359,"sideResp":2,"stimulus":"img/900/equaldotsize/R/14_Ratio_900_L_18_R_20.png","xmouse":[803,803,803,803,803,803,803,803,803,803,803,803,803,803,803,803,803,803,803,803,803,803,803,803,803,803,803,807,822,834,849,863,879,951,980,1007,1024,1033,1034,1034,1034,1034,1034,1035,1040,1044,1049,1060,1093],"ymouse":[533,533,533,533,533,533,533,533,533,533,533,533,533,533,533,533,533,533,533,533,533,533,533,533,533,533,533,531,514,497,477,457,431,301,238,191,159,145,140,140,140,140,140,139,137,135,132,122,96],"timestamp_mouse":[9,33,45,66,84,105,125,144,164,186,205,224,244,264,284,305,324,344,365,385,404,425,444,464,485,505,526,545,564,585,606,626,644,664,684,705,725,744,764,784,806,825,844,864,884,904,926,946,965],"xSR":741.5,"ySR":469.95,"xT1":424.9,"yT1":0,"xT2":1058.1,"yT2":0,"toosoon":0,"cond_shown":"equaldotsize","ratio_trial":900,"smaller_num":"18","larger_num":"20","correct_side":2,"subjID":"IsabellaGomezJaramillo24","gender":"1","age":"11","school":"6"},{"start_time":1551801422368,"click_time":1551801423588,"finger_time":1551801423267,"fix_duration":679.5845363088931,"trial":22,"RT":899,"MT":321,"sideResp":2,"stimulus":"img/750/equaldotsize/R/12_Ratio_750_L_3_R_4.png","xmouse":[773,773,773,773,773,773,773,773,773,773,773,773,773,773,773,773,773,773,773,773,773,773,773,773,773,773,773,773,773,773,773,773,773,773,773,773,773,773,773,773,773,773,773,778,790,813,853,866,875,884,891,918,930,942,950,957,982,998,1019,1039,1051,1083],"ymouse":[500,500,500,500,500,500,500,500,500,500,500,500,500,500,500,500,500,500,500,500,500,500,500,500,500,500,500,500,500,500,500,500,500,500,500,500,500,500,500,500,500,500,500,496,482,451,393,375,359,345,327,275,251,230,214,203,174,160,144,128,117,93],"timestamp_mouse":[1,28,40,59,79,99,119,140,160,179,199,219,239,260,280,300,320,340,361,380,399,419,440,459,479,500,519,540,559,580,600,619,640,660,679,699,719,739,760,781,799,820,841,859,881,899,919,940,959,979,1000,1019,1040,1060,1079,1100,1119,1140,1159,1179,1199,1220],"xSR":741.5,"ySR":469.95,"xT1":424.9,"yT1":0,"xT2":1058.1,"yT2":0,"toosoon":0,"cond_shown":"equaldotsize","ratio_trial":750,"smaller_num":"3","larger_num":"4","correct_side":2,"subjID":"IsabellaGomezJaramillo24","gender":"1","age":"11","school":"6"},{"start_time":1551801424498,"click_time":1551801425488,"finger_time":1551801425087,"fix_duration":250,"trial":23,"RT":589,"MT":401,"sideResp":2,"stimulus":"img/250/equaldotanddens/R/6_Ratio_250_L_6_R_24.png","xmouse":[781,781,781,781,781,781,781,781,781,781,781,781,781,781,781,781,781,781,781,781,781,781,781,781,781,788,792,803,813,841,850,859,872,888,930,950,963,972,979,988,991,995,998,1002,1017,1027,1040,1059,1080,1131],"ymouse":[540,540,540,540,540,540,540,540,540,540,540,540,540,540,540,540,540,540,540,540,540,540,540,540,540,539,536,522,506,461,443,424,396,361,282,252,232,219,209,190,183,175,168,161,146,136,126,114,103,82],"timestamp_mouse":[9,32,51,70,90,110,130,150,170,189,211,230,249,270,289,309,329,349,369,389,410,430,450,469,489,509,529,549,569,589,610,629,649,669,690,710,729,751,770,790,810,829,850,869,889,910,929,949,969,990],"xSR":741.5,"ySR":469.95,"xT1":424.9,"yT1":0,"xT2":1058.1,"yT2":0,"toosoon":0,"cond_shown":"equaldotanddens","ratio_trial":250,"smaller_num":"6","larger_num":"24","correct_side":2,"subjID":"IsabellaGomezJaramillo24","gender":"1","age":"11","school":"6"},{"start_time":1551801427239,"click_time":1551801428167,"finger_time":1551801428047,"fix_duration":850.3285242303227,"trial":24,"RT":808,"MT":120,"sideResp":2,"stimulus":"img/900/equaldotanddens/R/15_Ratio_900_L_9_R_10.png","xmouse":[797,797,797,797,797,797,797,797,797,797,797,797,797,797,797,797,797,797,797,797,797,797,797,797,797,797,797,797,797,797,797,797,797,797,797,797,797,797,800,814,859,913,1019,1035,1044,1055,1060],"ymouse":[525,525,525,525,525,525,525,525,525,525,525,525,525,525,525,525,525,525,525,525,525,525,525,525,525,525,525,525,525,525,525,525,525,525,525,525,525,525,512,488,428,359,209,178,147,111,81],"timestamp_mouse":[12,30,48,69,89,109,128,148,168,189,208,228,248,268,290,310,330,349,370,388,410,429,448,469,488,508,529,548,570,588,608,628,649,669,688,709,729,748,768,788,808,828,848,869,888,908,928],"xSR":741.5,"ySR":469.95,"xT1":424.9,"yT1":0,"xT2":1058.1,"yT2":0,"toosoon":0,"cond_shown":"equaldotanddens","ratio_trial":900,"smaller_num":"9","larger_num":"10","correct_side":2,"subjID":"IsabellaGomezJaramillo24","gender":"1","age":"11","school":"6"},{"start_time":1551801429681,"click_time":1551801430608,"finger_time":1551801430387,"fix_duration":351.6375193348522,"trial":25,"RT":706,"MT":221,"sideResp":2,"stimulus":"img/900/equaldotsize/R/15_Ratio_900_L_9_R_10.png","xmouse":[808,808,808,808,808,808,808,808,808,808,808,808,808,808,808,808,808,808,808,808,808,808,808,808,808,808,808,808,808,808,808,808,808,808,824,855,878,899,916,928,963,984,1007,1027,1039,1058,1064],"ymouse":[520,520,520,520,520,520,520,520,520,520,520,520,520,520,520,520,520,520,520,520,520,520,520,520,520,520,520,520,520,520,520,520,520,520,487,424,389,359,336,315,256,226,188,162,140,104,90],"timestamp_mouse":[8,33,47,67,87,107,127,146,168,186,206,226,247,266,286,306,326,346,366,386,406,427,447,466,486,506,527,548,566,587,606,626,647,667,687,706,726,747,766,787,806,826,846,866,887,906,927],"xSR":741.5,"ySR":469.95,"xT1":424.9,"yT1":0,"xT2":1058.1,"yT2":0,"toosoon":0,"cond_shown":"equaldotsize","ratio_trial":900,"smaller_num":"9","larger_num":"10","correct_side":2,"subjID":"IsabellaGomezJaramillo24","gender":"1","age":"11","school":"6"},{"start_time":1551801431720,"click_time":1551801432827,"finger_time":1551801432348,"fix_duration":250,"trial":26,"RT":628,"MT":479,"sideResp":1,"stimulus":"img/900/equaldotsize/L/2_Ratio_900_L_20_R_18.png","xmouse":[800,800,800,800,800,800,800,800,800,800,800,800,800,800,800,800,800,800,800,800,800,800,800,800,800,800,800,800,800,800,790,771,754,711,694,684,676,669,644,630,617,604,590,571,563,552,537,517,485,485,484,484,484,484,477,471],"ymouse":[497,497,497,497,497,497,497,497,497,497,497,497,497,497,497,497,497,497,497,497,497,497,497,497,497,497,497,497,497,497,489,466,443,390,367,355,341,328,286,264,247,227,210,188,180,170,158,142,118,118,117,117,117,115,105,95],"timestamp_mouse":[8,34,48,67,88,107,127,147,167,189,207,228,247,268,287,307,328,348,367,387,409,427,447,467,488,508,527,547,568,588,608,628,648,667,688,707,727,748,768,788,807,827,847,868,887,908,928,947,967,987,1007,1027,1047,1068,1088,1107],"xSR":741.5,"ySR":469.95,"xT1":424.9,"yT1":0,"xT2":1058.1,"yT2":0,"toosoon":0,"cond_shown":"equaldotsize","ratio_trial":900,"smaller_num":"18","larger_num":"20","correct_side":1,"subjID":"IsabellaGomezJaramillo24","gender":"1","age":"11","school":"6"},{"start_time":1551801434892,"click_time":1551801435968,"finger_time":1551801435628,"fix_duration":1324.0012885596998,"trial":27,"RT":736,"MT":340,"sideResp":2,"stimulus":"img/900/randomdotsizeEA/L/8_Ratio_900_L_20_R_18.png","xmouse":[784,784,784,784,784,784,784,784,784,784,784,784,784,784,784,784,784,784,784,784,784,784,784,784,784,784,784,784,784,784,784,784,784,784,791,821,855,885,906,937,943,945,949,954,963,969,973,975,978,1009,1024,1039,1053,1066],"ymouse":[527,527,527,527,527,527,527,527,527,527,527,527,527,527,527,527,527,527,527,527,527,527,527,527,527,527,527,527,527,527,527,527,527,527,527,487,438,394,359,299,276,245,202,166,112,90,77,72,67,45,35,28,25,25],"timestamp_mouse":[15,39,56,76,96,115,135,155,176,196,215,235,255,275,295,315,336,355,375,395,416,435,456,475,495,516,536,556,576,595,616,637,655,675,696,716,736,756,776,796,815,835,855,876,895,916,935,955,975,995,1016,1036,1056,1076],"xSR":741.5,"ySR":469.95,"xT1":424.9,"yT1":0,"xT2":1058.1,"yT2":0,"toosoon":0,"cond_shown":"randomdotsizeEA","ratio_trial":900,"smaller_num":"18","larger_num":"20","correct_side":1,"subjID":"IsabellaGomezJaramillo24","gender":"1","age":"11","school":"6"},{"start_time":1551801437832,"click_time":1551801438688,"finger_time":1551801438447,"fix_duration":584.3935322543119,"trial":28,"RT":615,"MT":241,"sideResp":2,"stimulus":"img/750/equaldotanddens/R/2_Ratio_750_L_6_R_8.png","xmouse":[796,796,796,796,796,796,796,796,796,796,796,796,796,796,796,796,796,782,772,764,762,762,762,762,761,761,761,761,765,786,835,902,1048,1085,1103,1111,1115,1116,1116,1116,1116,1117,1123],"ymouse":[568,568,568,568,568,568,568,568,568,568,568,568,568,568,568,568,568,532,507,492,488,487,487,487,487,487,487,487,485,475,454,424,317,280,251,229,210,178,163,148,131,116,72],"timestamp_mouse":[22,35,56,76,95,115,136,155,176,196,216,236,255,277,295,315,335,355,376,395,417,435,455,475,496,515,535,555,576,596,615,635,655,675,695,715,735,755,775,795,815,836,856],"xSR":741.5,"ySR":469.95,"xT1":424.9,"yT1":0,"xT2":1058.1,"yT2":0,"toosoon":0,"cond_shown":"equaldotanddens","ratio_trial":750,"smaller_num":"6","larger_num":"8","correct_side":2,"subjID":"IsabellaGomezJaramillo24","gender":"1","age":"11","school":"6"},{"start_time":1551801441801,"click_time":1551801442707,"finger_time":1551801442448,"fix_duration":991.7351672168583,"trial":29,"RT":647,"MT":259,"sideResp":2,"stimulus":"img/500/equaldotanddens/R/6_Ratio_500_L_9_R_18.png","xmouse":[812,812,812,812,812,812,812,812,812,812,812,812,812,812,812,812,812,812,812,812,812,812,811,810,809,809,809,809,809,809,818,833,860,891,964,981,998,1018,1043,1088,1099,1106,1111,1117,1126,1132],"ymouse":[543,543,543,543,543,543,543,543,543,543,543,543,543,543,543,543,543,543,543,543,543,543,544,545,545,545,545,545,545,545,530,512,482,458,406,393,380,362,337,267,239,218,198,179,125,96],"timestamp_mouse":[8,31,46,66,88,106,126,146,167,186,206,226,247,266,286,307,326,347,366,386,408,426,446,468,487,506,526,546,566,586,606,626,647,667,686,706,726,747,766,786,808,826,846,867,886,906],"xSR":741.5,"ySR":469.95,"xT1":424.9,"yT1":0,"xT2":1058.1,"yT2":0,"toosoon":0,"cond_shown":"equaldotanddens","ratio_trial":500,"smaller_num":"9","larger_num":"18","correct_side":2,"subjID":"IsabellaGomezJaramillo24","gender":"1","age":"11","school":"6"},{"start_time":1551801443679,"click_time":1551801444628,"finger_time":1551801444287,"fix_duration":250,"trial":30,"RT":608,"MT":341,"sideResp":1,"stimulus":"img/750/randomdotsizeEA/L/6_Ratio_750_L_24_R_18.png","xmouse":[793,793,793,793,793,793,793,793,793,793,793,793,793,793,793,793,793,793,793,793,793,793,793,793,793,793,793,792,788,778,754,742,730,713,699,671,659,647,636,628,609,600,589,575,563,533,518,505],"ymouse":[538,538,538,538,538,538,538,538,538,538,538,538,538,538,538,538,538,538,538,538,538,538,538,538,538,538,538,531,521,498,443,414,392,361,335,294,278,263,250,240,211,199,185,167,151,121,108,97],"timestamp_mouse":[9,34,50,68,89,108,129,149,169,189,208,229,249,270,288,308,328,348,370,389,408,428,448,469,488,509,529,549,569,588,608,629,649,668,689,709,728,748,769,788,808,829,849,868,889,908,928,949],"xSR":741.5,"ySR":469.95,"xT1":424.9,"yT1":0,"xT2":1058.1,"yT2":0,"toosoon":0,"cond_shown":"randomdotsizeEA","ratio_trial":750,"smaller_num":"18","larger_num":"24","correct_side":1,"subjID":"IsabellaGomezJaramillo24","gender":"1","age":"11","school":"6"},{"start_time":1551801445849,"click_time":1551801446709,"finger_time":1551801446267,"fix_duration":399.7304996979262,"trial":31,"RT":418,"MT":442,"sideResp":2,"stimulus":"img/500/randomdotsizeEA/R/1_Ratio_500_L_9_R_18.png","xmouse":[808,808,808,808,808,808,808,808,808,808,808,808,807,800,797,795,795,796,802,809,816,833,842,851,862,872,896,908,921,933,944,968,977,988,1000,1013,1028,1030,1032,1034,1039,1055,1059],"ymouse":[551,551,551,551,551,551,551,551,551,551,551,551,547,535,527,524,511,500,486,473,461,432,419,407,391,376,338,317,294,270,249,207,192,177,162,150,137,134,132,128,121,102,97],"timestamp_mouse":[19,39,59,79,98,119,138,159,179,200,218,238,260,278,298,318,339,359,379,398,418,438,458,478,499,519,539,558,579,599,618,638,658,678,698,718,738,758,778,798,818,838,859],"xSR":741.5,"ySR":469.95,"xT1":424.9,"yT1":0,"xT2":1058.1,"yT2":0,"toosoon":0,"cond_shown":"randomdotsizeEA","ratio_trial":500,"smaller_num":"9","larger_num":"18","correct_side":2,"subjID":"IsabellaGomezJaramillo24","gender":"1","age":"11","school":"6"},{"start_time":1551801447740,"click_time":1551801448788,"finger_time":1551801448508,"fix_duration":250,"trial":32,"RT":768,"MT":280,"sideResp":2,"stimulus":"img/250/equaldotsize/R/12_Ratio_250_L_5_R_20.png","xmouse":[773,773,773,773,773,773,773,773,773,773,773,773,773,773,773,773,773,773,773,773,773,773,773,773,773,773,773,773,773,773,773,773,773,773,773,773,773,791,812,833,861,888,937,964,991,1009,1022,1049,1054,1058,1062,1067,1073],"ymouse":[514,514,514,514,514,514,514,514,514,514,514,514,514,514,514,514,514,514,514,514,514,514,514,514,514,514,514,514,514,514,514,514,514,514,514,514,514,492,461,433,394,353,279,241,200,175,157,128,121,115,110,103,93],"timestamp_mouse":[7,32,48,67,87,107,128,148,168,189,208,228,249,268,288,307,328,347,367,387,407,428,447,467,487,507,528,548,567,588,608,627,647,669,687,708,727,747,768,787,808,828,848,868,888,907,928,947,967,987,1007,1027,1048],"xSR":741.5,"ySR":469.95,"xT1":424.9,"yT1":0,"xT2":1058.1,"yT2":0,"toosoon":0,"cond_shown":"equaldotsize","ratio_trial":250,"smaller_num":"5","larger_num":"20","correct_side":2,"subjID":"IsabellaGomezJaramillo24","gender":"1","age":"11","school":"6"},{"start_time":1551801450397,"click_time":1551801451428,"finger_time":1551801451108,"fix_duration":808.7449953641411,"trial":33,"RT":711,"MT":320,"sideResp":1,"stimulus":"img/900/equaldotsize/R/7_Ratio_900_L_9_R_10.png","xmouse":[764,764,764,764,764,764,764,764,764,764,764,764,764,764,764,764,764,764,764,764,764,764,764,764,764,764,764,764,764,764,764,764,764,764,748,734,719,705,691,668,658,650,640,630,602,587,572,556,542,514,505,502],"ymouse":[533,533,533,533,533,533,533,533,533,533,533,533,533,533,533,533,533,533,533,533,533,533,533,533,533,533,533,533,533,533,533,533,533,533,506,483,460,438,415,375,354,333,311,289,233,209,187,164,143,110,102,98],"timestamp_mouse":[11,35,50,71,90,110,130,150,170,191,210,230,251,272,290,311,332,350,370,391,410,431,450,470,490,510,531,550,570,590,611,631,651,670,690,711,732,751,770,790,811,830,851,871,890,910,930,950,970,990,1010,1031],"xSR":741.5,"ySR":469.95,"xT1":424.9,"yT1":0,"xT2":1058.1,"yT2":0,"toosoon":0,"cond_shown":"equaldotsize","ratio_trial":900,"smaller_num":"9","larger_num":"10","correct_side":2,"subjID":"IsabellaGomezJaramillo24","gender":"1","age":"11","school":"6"},{"start_time":1551801454000,"click_time":1551801454887,"finger_time":1551801454787,"fix_duration":250,"trial":34,"RT":787,"MT":100,"sideResp":1,"stimulus":"img/900/randomdotsizeEA/R/6_Ratio_900_L_9_R_10.png","xmouse":[812,812,812,812,812,812,812,812,812,812,812,812,812,812,812,812,812,812,812,812,812,812,812,812,812,812,812,812,812,812,812,812,812,812,812,812,812,812,807,773,738,693,644,584,467],"ymouse":[496,496,496,496,496,496,496,496,496,496,496,496,496,496,496,496,496,496,496,496,496,496,496,496,496,496,496,496,496,496,496,496,496,496,496,496,496,496,488,435,383,330,276,215,86],"timestamp_mouse":[9,30,49,67,88,109,127,148,167,188,207,228,248,267,288,307,328,348,368,387,409,428,447,468,487,507,527,547,568,588,607,628,647,668,688,708,727,748,768,787,807,827,849,868,887],"xSR":741.5,"ySR":469.95,"xT1":424.9,"yT1":0,"xT2":1058.1,"yT2":0,"toosoon":0,"cond_shown":"randomdotsizeEA","ratio_trial":900,"smaller_num":"9","larger_num":"10","correct_side":2,"subjID":"IsabellaGomezJaramillo24","gender":"1","age":"11","school":"6"},{"start_time":1551801457021,"click_time":1551801457847,"finger_time":1551801457627,"fix_duration":1332.0952956852009,"trial":35,"RT":606,"MT":220,"sideResp":2,"stimulus":"img/250/randomdotsizeEA/R/6_Ratio_250_L_6_R_24.png","xmouse":[773,773,773,773,775,776,777,778,778,778,778,778,778,778,778,778,778,778,778,778,778,778,778,778,778,778,778,778,785,802,822,853,891,985,1009,1026,1042,1052,1061,1063,1070,1082],"ymouse":[536,536,536,536,534,534,533,530,530,530,530,530,530,530,530,530,530,530,530,530,530,530,530,530,530,530,530,530,517,493,461,417,362,230,194,173,154,143,128,121,109,94],"timestamp_mouse":[8,35,47,67,87,107,127,147,166,188,207,227,247,267,287,306,327,348,367,387,407,426,447,467,487,507,528,547,566,586,606,628,648,667,686,706,727,748,767,787,806,826],"xSR":741.5,"ySR":469.95,"xT1":424.9,"yT1":0,"xT2":1058.1,"yT2":0,"toosoon":0,"cond_shown":"randomdotsizeEA","ratio_trial":250,"smaller_num":"6","larger_num":"24","correct_side":2,"subjID":"IsabellaGomezJaramillo24","gender":"1","age":"11","school":"6"},{"start_time":1551801459789,"click_time":1551801461008,"finger_time":1551801460787,"fix_duration":1101.3723278213934,"trial":36,"RT":998,"MT":221,"sideResp":1,"stimulus":"img/900/equaldotsize/R/5_Ratio_900_L_9_R_10.png","xmouse":[789,789,789,789,789,789,789,789,789,789,789,789,789,789,789,789,789,789,789,789,789,789,789,789,789,789,789,789,789,789,789,789,789,789,789,789,789,789,789,789,789,789,789,789,789,789,789,777,767,720,692,665,634,606,564,553,545,538,530,505,488],"ymouse":[510,510,510,510,510,510,510,510,510,510,510,510,510,510,510,510,510,510,510,510,510,510,510,510,510,510,510,510,510,510,510,510,510,510,510,510,510,510,510,510,510,510,510,510,510,510,510,492,478,413,367,331,289,259,207,191,179,165,149,106,86],"timestamp_mouse":[28,39,58,79,98,118,139,159,178,198,219,238,258,278,298,318,338,358,378,399,418,438,458,479,498,519,538,558,578,598,618,639,659,678,698,718,738,758,778,799,818,838,858,878,899,918,938,959,978,998,1018,1039,1059,1078,1099,1119,1138,1158,1179,1198,1218],"xSR":741.5,"ySR":469.95,"xT1":424.9,"yT1":0,"xT2":1058.1,"yT2":0,"toosoon":0,"cond_shown":"equaldotsize","ratio_trial":900,"smaller_num":"9","larger_num":"10","correct_side":2,"subjID":"IsabellaGomezJaramillo24","gender":"1","age":"11","school":"6"},{"start_time":1551801461978,"click_time":1551801462948,"finger_time":1551801462627,"fix_duration":250.1155338251353,"trial":37,"RT":649,"MT":321,"sideResp":2,"stimulus":"img/750/equaldotanddens/R/12_Ratio_750_L_3_R_4.png","xmouse":[817,817,817,817,817,817,817,817,817,817,817,817,817,817,817,817,817,817,817,817,817,817,817,817,817,817,817,817,817,817,817,827,846,873,914,951,965,975,982,988,996,998,1001,1003,1005,1020,1034,1050,1063],"ymouse":[519,519,519,519,519,519,519,519,519,519,519,519,519,519,519,519,519,519,519,519,519,519,519,519,519,519,519,519,519,519,511,473,423,368,296,231,207,189,174,159,140,135,131,127,125,115,107,100,95],"timestamp_mouse":[13,35,50,70,90,111,130,149,171,189,209,229,250,270,289,309,329,349,369,391,410,429,449,469,490,509,529,549,569,589,610,630,649,670,689,710,729,750,770,789,809,829,849,869,890,909,930,949,970],"xSR":741.5,"ySR":469.95,"xT1":424.9,"yT1":0,"xT2":1058.1,"yT2":0,"toosoon":0,"cond_shown":"equaldotanddens","ratio_trial":750,"smaller_num":"3","larger_num":"4","correct_side":2,"subjID":"IsabellaGomezJaramillo24","gender":"1","age":"11","school":"6"},{"start_time":1551801465454,"click_time":1551801466487,"finger_time":1551801466229,"fix_duration":1344.3529225548014,"trial":38,"RT":775,"MT":258,"sideResp":2,"stimulus":"img/500/equaldotanddens/R/15_Ratio_500_L_1_R_2.png","xmouse":[788,788,788,788,788,788,788,788,788,788,788,788,788,788,788,788,788,788,788,788,788,788,788,788,788,788,788,782,782,782,782,782,782,782,782,782,781,794,865,943,1052,1127,1135,1136,1137,1139,1144,1146,1148,1148,1145,1137],"ymouse":[493,493,493,493,493,493,493,493,493,493,493,493,493,493,493,493,493,493,493,493,493,493,493,493,493,493,493,497,497,497,497,497,497,497,497,497,497,490,449,400,325,268,257,248,235,218,177,152,134,119,105,81],"timestamp_mouse":[14,34,55,74,94,113,133,153,174,193,214,234,255,274,293,313,333,353,373,393,413,433,454,473,494,513,533,553,575,594,613,634,654,673,694,713,734,754,775,793,814,833,854,873,893,914,933,954,973,993,1014,1033],"xSR":741.5,"ySR":469.95,"xT1":424.9,"yT1":0,"xT2":1058.1,"yT2":0,"toosoon":0,"cond_shown":"equaldotanddens","ratio_trial":500,"smaller_num":"1","larger_num":"2","correct_side":2,"subjID":"IsabellaGomezJaramillo24","gender":"1","age":"11","school":"6"},{"start_time":1551801468241,"click_time":1551801469507,"finger_time":1551801469147,"fix_duration":793.649605033564,"trial":39,"RT":906,"MT":360,"sideResp":2,"stimulus":"img/750/randomdotsizeEA/L/9_Ratio_750_L_4_R_3.png","xmouse":[814,814,814,814,814,814,814,814,814,814,814,814,814,814,813,813,813,813,813,813,813,813,813,813,813,813,813,813,813,813,813,813,813,813,813,813,813,813,813,813,813,813,813,813,822,876,955,1135,1203,1253,1289,1289,1289,1289,1289,1289,1289,1289,1289,1289,1289,1289,1289,1121],"ymouse":[544,544,544,544,544,544,544,544,544,544,544,544,544,544,544,544,544,544,544,544,544,544,544,544,544,544,544,544,544,544,544,544,544,544,544,544,544,544,544,544,544,544,544,544,529,435,326,136,76,34,3,3,3,3,3,3,3,3,3,3,3,3,3,44],"timestamp_mouse":[6,28,46,66,88,107,126,147,166,188,207,226,246,267,287,306,326,346,367,387,406,426,446,468,486,507,527,547,566,588,606,627,646,668,686,707,727,746,767,786,806,826,846,867,888,906,926,947,966,986,1006,1026,1047,1068,1087,1106,1127,1147,1167,1186,1206,1226,1247,1266],"xSR":741.5,"ySR":469.95,"xT1":424.9,"yT1":0,"xT2":1058.1,"yT2":0,"toosoon":0,"cond_shown":"randomdotsizeEA","ratio_trial":750,"smaller_num":"3","larger_num":"4","correct_side":1,"subjID":"IsabellaGomezJaramillo24","gender":"1","age":"11","school":"6"},{"start_time":1551801471982,"click_time":1551801472990,"finger_time":1551801472670,"fix_duration":1311.3489284766774,"trial":40,"RT":688,"MT":320,"sideResp":2,"stimulus":"img/500/equaldotsize/R/15_Ratio_500_L_1_R_2.png","xmouse":[796,796,796,796,796,796,796,796,796,796,796,796,796,796,796,796,796,796,796,796,796,796,796,796,796,796,796,796,796,796,796,796,796,808,822,904,928,946,955,961,975,983,993,1009,1026,1048,1050,1054,1056,1060,1079],"ymouse":[508,508,508,508,508,508,508,508,508,508,508,508,508,508,508,508,508,508,508,508,508,508,508,508,508,508,508,508,508,508,508,508,508,484,469,367,338,313,299,291,266,247,223,198,167,130,123,116,111,102,76],"timestamp_mouse":[8,33,48,69,88,107,129,148,168,188,207,227,247,268,289,307,329,347,367,388,408,428,448,467,487,508,528,547,569,588,607,627,649,668,688,707,728,747,768,788,808,829,847,868,887,908,929,948,967,988,1008],"xSR":741.5,"ySR":469.95,"xT1":424.9,"yT1":0,"xT2":1058.1,"yT2":0,"toosoon":0,"cond_shown":"equaldotsize","ratio_trial":500,"smaller_num":"1","larger_num":"2","correct_side":2,"subjID":"IsabellaGomezJaramillo24","gender":"1","age":"11","school":"6"},{"start_time":1551801474180,"click_time":1551801475211,"finger_time":1551801475030,"fix_duration":308.7915340814008,"trial":41,"RT":850,"MT":181,"sideResp":1,"stimulus":"img/900/equaldotanddens/L/8_Ratio_900_L_20_R_18.png","xmouse":[769,769,769,769,769,769,769,769,769,769,769,769,769,769,769,769,769,769,769,769,769,769,769,769,769,769,769,769,769,769,769,769,769,769,769,769,769,769,769,769,769,758,733,707,674,607,595,585,575,564,539,523],"ymouse":[506,506,506,506,506,506,506,506,506,506,506,506,506,506,506,506,506,506,506,506,506,506,506,506,506,506,506,506,506,506,506,506,506,506,506,506,506,506,506,506,506,484,437,382,324,212,191,170,145,122,78,60],"timestamp_mouse":[9,36,50,71,90,109,130,149,170,190,210,230,249,270,290,310,330,349,370,390,409,429,450,470,490,509,531,551,569,590,610,629,650,669,690,709,729,750,769,789,811,831,850,869,890,909,930,950,971,991,1009,1030],"xSR":741.5,"ySR":469.95,"xT1":424.9,"yT1":0,"xT2":1058.1,"yT2":0,"toosoon":0,"cond_shown":"equaldotanddens","ratio_trial":900,"smaller_num":"18","larger_num":"20","correct_side":1,"subjID":"IsabellaGomezJaramillo24","gender":"1","age":"11","school":"6"},{"start_time":1551801477034,"click_time":1551801478089,"finger_time":1551801477790,"fix_duration":843.7125192744778,"trial":42,"RT":756,"MT":299,"sideResp":1,"stimulus":"img/500/equaldotsize/L/7_Ratio_500_L_10_R_5.png","xmouse":[788,788,788,788,788,788,788,788,788,788,788,788,788,788,788,788,788,788,788,788,788,788,788,788,788,788,788,788,788,788,788,788,788,788,788,786,780,750,731,710,684,660,609,595,583,571,565,553,548,541,535,525,499],"ymouse":[497,497,497,497,497,497,497,497,497,497,497,497,497,497,497,497,497,497,497,497,497,497,497,497,497,497,497,497,497,497,497,497,497,497,497,495,489,462,436,406,369,336,266,246,229,213,201,179,166,150,135,117,76],"timestamp_mouse":[20,36,55,76,96,115,136,155,175,197,215,236,255,276,295,315,336,357,375,395,415,436,455,476,495,515,535,556,576,596,615,636,656,676,696,716,736,756,776,796,816,836,855,876,895,915,935,956,975,996,1017,1036,1055],"xSR":741.5,"ySR":469.95,"xT1":424.9,"yT1":0,"xT2":1058.1,"yT2":0,"toosoon":0,"cond_shown":"equaldotsize","ratio_trial":500,"smaller_num":"5","larger_num":"10","correct_side":1,"subjID":"IsabellaGomezJaramillo24","gender":"1","age":"11","school":"6"},{"start_time":1551801480365,"click_time":1551801482550,"finger_time":1551801482189,"fix_duration":1435.162123037561,"trial":43,"RT":1824,"MT":361,"sideResp":1,"stimulus":"img/500/randomdotsizeEA/L/8_Ratio_500_L_8_R_4.png","xmouse":[785,785,785,785,785,785,785,785,785,785,785,785,785,785,785,785,785,785,785,785,785,785,785,785,785,785,785,785,785,785,785,785,785,785,785,785,785,785,785,785,785,785,785,785,785,785,785,785,785,785,785,785,785,785,785,785,785,785,785,785,785,785,785,785,785,785,785,785,785,785,785,785,785,783,779,774,772,772,772,772,772,772,772,772,772,772,772,772,770,763,754,733,724,713,702,690,655,638,620,604,588,561,552,542,533,527,502,492,485,479],"ymouse":[513,513,513,513,513,513,513,513,513,513,513,513,513,513,513,513,513,513,513,513,513,513,513,513,513,513,513,513,513,513,513,513,513,513,513,513,513,513,513,513,513,513,513,513,513,513,513,513,513,513,513,513,513,513,513,513,513,513,513,513,513,513,513,513,513,513,513,513,513,513,513,513,513,507,502,496,494,494,494,494,494,494,494,494,494,494,494,494,492,485,478,466,459,450,441,425,377,356,332,313,294,258,241,222,202,183,135,118,102,92],"timestamp_mouse":[9,34,45,65,86,105,124,146,164,184,204,225,244,265,284,305,325,344,364,385,404,425,444,466,484,504,525,545,566,586,605,624,645,664,684,704,725,744,764,786,804,824,846,865,885,905,924,944,965,984,1005,1024,1046,1065,1084,1105,1125,1146,1165,1185,1204,1224,1246,1266,1285,1305,1326,1344,1365,1386,1405,1425,1444,1464,1485,1505,1525,1544,1564,1584,1605,1625,1646,1666,1684,1705,1725,1744,1765,1785,1804,1824,1845,1866,1885,1905,1924,1946,1964,1985,2005,2025,2044,2065,2085,2105,2124,2144,2164,2185],"xSR":741.5,"ySR":469.95,"xT1":424.9,"yT1":0,"xT2":1058.1,"yT2":0,"toosoon":0,"cond_shown":"randomdotsizeEA","ratio_trial":500,"smaller_num":"4","larger_num":"8","correct_side":1,"subjID":"IsabellaGomezJaramillo24","gender":"1","age":"11","school":"6"},{"start_time":1551801483641,"click_time":1551801484990,"finger_time":1551801484710,"fix_duration":250,"trial":44,"RT":1069,"MT":280,"sideResp":2,"stimulus":"img/900/equaldotsize/R/15_Ratio_900_L_9_R_10.png","xmouse":[760,760,760,760,760,760,760,760,760,760,760,760,760,760,760,760,760,760,760,760,760,760,760,760,760,760,760,760,760,760,760,760,760,760,761,761,761,761,761,761,761,761,761,761,761,761,761,761,761,761,766,774,829,859,887,905,925,960,981,1002,1020,1035,1054,1057,1058,1062,1065,1075],"ymouse":[552,551,551,551,551,551,551,551,551,551,551,551,551,551,551,551,551,551,551,551,551,551,551,551,551,551,551,551,551,551,551,551,551,551,550,550,550,550,550,550,550,550,550,550,550,550,550,550,550,550,550,541,483,456,428,408,382,325,288,254,215,188,150,143,138,130,118,93],"timestamp_mouse":[8,31,48,70,88,110,129,148,170,189,209,228,249,270,288,308,330,350,369,390,410,428,448,469,490,510,528,549,569,589,608,629,649,669,689,708,729,749,769,790,809,829,848,868,889,909,929,948,970,988,1010,1030,1048,1069,1090,1108,1129,1149,1169,1188,1210,1228,1248,1270,1288,1308,1328,1348],"xSR":741.5,"ySR":469.95,"xT1":424.9,"yT1":0,"xT2":1058.1,"yT2":0,"toosoon":0,"cond_shown":"equaldotsize","ratio_trial":900,"smaller_num":"9","larger_num":"10","correct_side":2,"subjID":"IsabellaGomezJaramillo24","gender":"1","age":"11","school":"6"},{"start_time":1551801486002,"click_time":1551801487250,"finger_time":1551801487090,"fix_duration":250,"trial":45,"RT":1088,"MT":160,"sideResp":1,"stimulus":"img/900/randomdotsizeEA/L/10_Ratio_900_L_20_R_18.png","xmouse":[810,810,810,810,810,810,810,810,810,810,810,810,810,810,810,810,810,810,810,810,810,810,810,810,810,810,810,810,810,810,810,810,810,810,810,810,810,810,810,810,810,810,810,810,810,810,810,810,810,810,806,801,787,772,718,693,668,639,600,528,498,481,470],"ymouse":[536,536,536,536,536,536,536,536,536,536,536,536,536,536,536,536,536,536,536,536,536,536,536,536,536,536,536,536,536,536,536,536,536,536,536,536,536,536,536,536,536,536,536,536,536,536,536,536,536,536,531,521,501,480,417,385,352,313,260,156,121,101,87],"timestamp_mouse":[8,32,47,67,88,108,127,149,167,188,207,228,249,268,287,308,328,347,368,387,408,428,449,467,487,509,528,547,567,588,607,629,647,668,687,707,727,749,768,788,808,828,848,868,888,908,927,949,968,988,1007,1028,1048,1067,1088,1109,1128,1148,1167,1188,1209,1228,1248],"xSR":741.5,"ySR":469.95,"xT1":424.9,"yT1":0,"xT2":1058.1,"yT2":0,"toosoon":0,"cond_shown":"randomdotsizeEA","ratio_trial":900,"smaller_num":"18","larger_num":"20","correct_side":1,"subjID":"IsabellaGomezJaramillo24","gender":"1","age":"11","school":"6"},{"start_time":1551801489225,"click_time":1551801490270,"finger_time":1551801489970,"fix_duration":1234.6860477567805,"trial":46,"RT":745,"MT":300,"sideResp":1,"stimulus":"img/250/equaldotsize/L/15_Ratio_250_L_12_R_3.png","xmouse":[801,801,801,801,801,801,801,801,801,801,801,801,801,801,801,801,801,801,801,801,801,801,801,801,801,801,801,801,801,801,801,801,801,801,801,800,793,771,710,676,642,616,602,586,582,576,569,562,552,547,540,533,522],"ymouse":[502,502,502,502,502,502,502,502,502,502,502,502,502,502,502,502,502,502,502,502,502,502,502,502,502,502,502,502,502,502,502,502,502,502,502,502,490,451,356,307,260,226,210,183,174,162,147,137,122,114,102,89,74],"timestamp_mouse":[8,28,45,64,84,106,125,145,164,186,204,226,245,265,286,305,324,344,364,385,404,425,444,464,484,504,524,545,565,584,605,625,644,664,685,705,726,745,765,785,805,824,846,865,884,904,924,944,964,986,1005,1026,1045],"xSR":741.5,"ySR":469.95,"xT1":424.9,"yT1":0,"xT2":1058.1,"yT2":0,"toosoon":0,"cond_shown":"equaldotsize","ratio_trial":250,"smaller_num":"3","larger_num":"12","correct_side":1,"subjID":"IsabellaGomezJaramillo24","gender":"1","age":"11","school":"6"},{"start_time":1551801491275,"click_time":1551801492430,"finger_time":1551801491969,"fix_duration":284.64459681397767,"trial":47,"RT":694,"MT":461,"sideResp":1,"stimulus":"img/500/equaldotanddens/L/7_Ratio_500_L_10_R_5.png","xmouse":[809,809,809,809,809,809,809,809,809,809,809,809,809,809,809,809,809,809,809,809,809,809,809,809,809,809,809,809,809,809,809,809,807,789,764,727,710,699,692,687,673,664,656,649,642,624,611,599,584,567,533,524,516,511,507,501,497,493],"ymouse":[492,492,492,492,492,492,492,492,492,492,492,492,492,492,492,492,492,492,492,492,492,492,492,492,492,492,492,492,492,492,492,492,492,473,445,401,380,363,351,340,306,288,272,255,243,215,200,188,176,164,140,132,125,120,116,107,102,95],"timestamp_mouse":[15,35,54,75,96,115,135,155,176,194,214,234,255,274,294,316,335,355,375,394,415,435,454,476,494,514,535,555,574,594,614,636,655,674,694,714,734,754,775,795,814,835,854,875,895,915,935,955,975,995,1014,1034,1055,1075,1094,1114,1136,1155],"xSR":741.5,"ySR":469.95,"xT1":424.9,"yT1":0,"xT2":1058.1,"yT2":0,"toosoon":0,"cond_shown":"equaldotanddens","ratio_trial":500,"smaller_num":"5","larger_num":"10","correct_side":1,"subjID":"IsabellaGomezJaramillo24","gender":"1","age":"11","school":"6"},{"start_time":1551801494553,"click_time":1551801495750,"finger_time":1551801495350,"fix_duration":1482.311389530857,"trial":48,"RT":797,"MT":400,"sideResp":2,"stimulus":"img/250/randomdotsizeEA/R/13_Ratio_250_L_2_R_8.png","xmouse":[796,796,796,796,796,796,796,796,796,796,796,796,796,796,796,796,796,796,796,796,796,796,796,796,796,796,796,796,796,796,796,796,796,796,796,796,808,826,840,858,871,890,898,909,923,938,980,992,1001,1009,1019,1044,1060,1074,1086,1099,1118,1124,1131,1139],"ymouse":[535,535,535,535,535,535,535,535,535,535,535,535,535,535,535,535,535,535,535,535,535,535,535,535,535,535,535,535,535,535,535,535,535,535,535,535,530,517,506,496,484,466,451,431,407,381,313,297,282,267,251,210,191,175,163,153,130,119,107,93],"timestamp_mouse":[16,36,56,77,96,118,137,156,177,197,217,236,257,277,296,316,338,357,376,397,416,436,457,477,496,517,537,557,577,598,616,636,658,678,698,716,737,756,777,797,816,837,857,877,897,916,937,957,976,996,1016,1037,1057,1077,1098,1116,1136,1156,1177,1196],"xSR":741.5,"ySR":469.95,"xT1":424.9,"yT1":0,"xT2":1058.1,"yT2":0,"toosoon":0,"cond_shown":"randomdotsizeEA","ratio_trial":250,"smaller_num":"2","larger_num":"8","correct_side":2,"subjID":"IsabellaGomezJaramillo24","gender":"1","age":"11","school":"6"},{"start_time":1551801496703,"click_time":1551801497851,"finger_time":1551801497490,"fix_duration":250,"trial":49,"RT":787,"MT":361,"sideResp":1,"stimulus":"img/500/randomdotsizeEA/L/5_Ratio_500_L_4_R_2.png","xmouse":[787,787,787,787,787,787,787,787,787,787,787,787,787,787,787,787,787,787,787,787,787,787,787,787,787,787,787,787,787,787,787,787,787,787,787,783,779,774,767,723,710,702,696,689,675,667,656,643,629,600,586,575,564,555,539,534,527,518],"ymouse":[534,534,534,534,534,534,534,534,534,534,534,534,534,534,534,534,534,534,534,534,534,534,534,534,534,534,534,534,534,534,534,534,534,534,534,531,526,517,495,367,324,294,270,254,224,212,197,181,165,135,124,115,107,101,90,87,82,77],"timestamp_mouse":[7,27,46,68,86,106,127,146,167,186,207,228,247,267,286,306,326,346,368,387,406,426,446,468,486,508,528,548,566,587,607,626,646,667,687,706,727,746,767,787,806,826,846,868,886,907,927,947,966,987,1007,1027,1047,1067,1086,1107,1126,1147],"xSR":741.5,"ySR":469.95,"xT1":424.9,"yT1":0,"xT2":1058.1,"yT2":0,"toosoon":0,"cond_shown":"randomdotsizeEA","ratio_trial":500,"smaller_num":"2","larger_num":"4","correct_side":1,"subjID":"IsabellaGomezJaramillo24","gender":"1","age":"11","school":"6"},{"start_time":1551801499964,"click_time":1551801501070,"finger_time":1551801500889,"fix_duration":1152.5216363229922,"trial":50,"RT":925,"MT":181,"sideResp":1,"stimulus":"img/750/equaldotsize/L/1_Ratio_750_L_20_R_15.png","xmouse":[802,802,802,802,802,802,802,802,802,802,802,802,802,802,802,802,802,802,802,802,802,802,802,802,802,802,802,802,802,802,802,802,802,802,802,802,802,802,802,802,802,802,802,802,784,774,674,626,592,573,562,541,531,519,509,500],"ymouse":[497,497,497,497,497,497,497,497,497,497,497,497,497,497,497,497,497,497,497,497,497,497,497,497,497,497,497,497,497,497,497,497,497,497,497,497,497,497,497,497,497,497,497,497,483,474,382,333,290,260,236,189,164,135,113,92],"timestamp_mouse":[9,35,46,65,86,105,127,145,166,186,206,226,246,267,285,306,326,345,367,387,406,426,445,467,487,506,525,546,567,585,605,625,647,667,685,706,726,745,765,786,805,826,845,866,886,906,925,947,967,986,1005,1025,1047,1066,1085,1105],"xSR":741.5,"ySR":469.95,"xT1":424.9,"yT1":0,"xT2":1058.1,"yT2":0,"toosoon":0,"cond_shown":"equaldotsize","ratio_trial":750,"smaller_num":"15","larger_num":"20","correct_side":1,"subjID":"IsabellaGomezJaramillo24","gender":"1","age":"11","school":"6"},{"start_time":1551801502518,"click_time":1551801503471,"finger_time":1551801503349,"fix_duration":625.4192053526609,"trial":51,"RT":831,"MT":122,"sideResp":2,"stimulus":"img/900/equaldotanddens/L/8_Ratio_900_L_20_R_18.png","xmouse":[789,789,789,789,789,789,789,789,789,789,789,789,789,789,789,789,789,789,789,789,789,789,789,789,789,789,789,789,789,789,789,789,789,789,789,789,789,789,789,789,809,835,889,1003,1058,1089,1108,1120],"ymouse":[523,523,523,523,523,523,523,523,523,523,523,523,523,523,523,523,523,523,523,523,523,523,523,523,523,523,523,523,523,523,523,523,523,523,523,523,523,523,523,523,496,460,377,221,163,132,110,92],"timestamp_mouse":[12,32,52,72,93,111,131,151,172,192,213,231,251,272,292,312,332,352,372,393,411,433,451,471,491,513,532,551,571,591,613,632,652,672,691,711,732,751,772,791,811,831,851,873,893,911,931,952],"xSR":741.5,"ySR":469.95,"xT1":424.9,"yT1":0,"xT2":1058.1,"yT2":0,"toosoon":0,"cond_shown":"equaldotanddens","ratio_trial":900,"smaller_num":"18","larger_num":"20","correct_side":1,"subjID":"IsabellaGomezJaramillo24","gender":"1","age":"11","school":"6"},{"start_time":1551801505122,"click_time":1551801506330,"finger_time":1551801505969,"fix_duration":830.3951274456598,"trial":52,"RT":847,"MT":361,"sideResp":2,"stimulus":"img/750/randomdotsizeEA/R/3_Ratio_750_L_15_R_20.png","xmouse":[800,800,800,800,800,800,800,800,800,800,800,800,800,800,800,800,800,800,800,800,800,800,800,800,800,800,800,800,800,800,800,800,800,800,800,800,800,800,800,800,800,800,828,893,947,997,1023,1034,1038,1038,1038,1043,1043,1043,1043,1043,1043,1043,1043,1043,1066],"ymouse":[505,505,505,505,505,505,505,505,505,505,505,505,505,505,505,505,505,505,505,505,505,505,505,505,505,505,505,505,505,505,505,505,505,505,505,505,505,505,505,505,505,505,455,346,255,174,120,93,55,40,24,3,3,3,3,3,3,3,3,3,6],"timestamp_mouse":[23,35,49,67,88,108,128,147,168,188,208,228,247,267,288,307,327,348,367,388,408,428,448,467,487,507,529,547,567,587,607,628,648,668,687,707,728,747,767,788,807,827,847,868,888,907,927,948,968,988,1008,1028,1048,1068,1087,1107,1129,1148,1169,1188,1208],"xSR":741.5,"ySR":469.95,"xT1":424.9,"yT1":0,"xT2":1058.1,"yT2":0,"toosoon":0,"cond_shown":"randomdotsizeEA","ratio_trial":750,"smaller_num":"15","larger_num":"20","correct_side":2,"subjID":"IsabellaGomezJaramillo24","gender":"1","age":"11","school":"6"},{"start_time":1551801508854,"click_time":1551801510169,"finger_time":1551801509671,"fix_duration":1362.0529282663006,"trial":53,"RT":817,"MT":498,"sideResp":1,"stimulus":"img/750/equaldotsize/L/8_Ratio_750_L_4_R_3.png","xmouse":[820,820,820,820,820,820,820,820,820,820,820,820,820,820,820,820,820,820,820,820,820,820,820,820,820,820,819,818,818,818,818,818,818,818,818,817,811,800,791,777,763,714,694,678,664,653,639,634,628,625,614,592,586,581,576,570,559,556,552,549,546,540,538,532,526,519],"ymouse":[503,503,503,503,503,503,503,503,503,503,503,503,503,503,503,503,503,503,503,503,503,503,503,503,503,503,503,503,503,503,503,503,503,503,503,503,502,497,490,479,465,419,401,385,368,352,326,312,291,264,228,161,148,134,120,107,85,79,75,71,70,69,69,69,69,69],"timestamp_mouse":[17,36,55,76,97,116,135,156,175,195,216,235,257,277,296,316,336,355,376,396,416,436,455,476,495,516,536,555,576,595,616,636,656,676,696,715,735,756,777,795,817,836,857,875,895,915,935,957,976,997,1015,1035,1055,1076,1096,1116,1135,1155,1176,1195,1216,1235,1255,1275,1295,1315],"xSR":741.5,"ySR":469.95,"xT1":424.9,"yT1":0,"xT2":1058.1,"yT2":0,"toosoon":0,"cond_shown":"equaldotsize","ratio_trial":750,"smaller_num":"3","larger_num":"4","correct_side":1,"subjID":"IsabellaGomezJaramillo24","gender":"1","age":"11","school":"6"},{"start_time":1551801512666,"click_time":1551801513990,"finger_time":1551801513469,"fix_duration":1475.993445724957,"trial":54,"RT":803,"MT":521,"sideResp":2,"stimulus":"img/500/equaldotsize/R/1_Ratio_500_L_9_R_18.png","xmouse":[764,764,764,764,764,764,764,764,764,764,764,764,764,764,764,764,764,764,764,764,764,764,764,764,764,764,764,764,764,764,764,764,764,764,764,765,766,769,774,783,805,841,862,882,898,915,949,971,994,1008,1018,1026,1026,1026,1026,1026,1032,1033,1037,1040,1046,1049,1053,1055,1059,1065,1083],"ymouse":[500,500,500,500,500,500,500,500,500,500,500,500,500,500,500,500,500,500,500,500,500,500,500,500,500,500,500,500,500,500,500,500,497,494,493,491,489,486,482,476,463,444,433,421,410,396,358,323,288,261,244,222,217,210,203,194,170,156,142,135,122,117,113,111,107,102,92],"timestamp_mouse":[8,32,44,64,85,103,123,144,163,183,203,225,244,265,284,305,324,343,364,384,403,424,444,463,483,503,523,544,565,592,604,624,643,664,683,704,724,743,765,784,803,823,844,864,883,903,923,945,964,983,1004,1024,1044,1063,1083,1103,1124,1143,1164,1185,1207,1223,1244,1263,1283,1304,1324],"xSR":741.5,"ySR":469.95,"xT1":424.9,"yT1":0,"xT2":1058.1,"yT2":0,"toosoon":0,"cond_shown":"equaldotsize","ratio_trial":500,"smaller_num":"9","larger_num":"18","correct_side":2,"subjID":"IsabellaGomezJaramillo24","gender":"1","age":"11","school":"6"},{"start_time":1551801517559,"click_time":1551801518809,"finger_time":1551801518549,"fix_duration":1308.409870684374,"trial":55,"RT":990,"MT":260,"sideResp":2,"stimulus":"img/250/randomdotsizeEA/R/8_Ratio_250_L_1_R_4.png","xmouse":[783,783,783,783,783,783,783,783,783,783,783,783,783,783,783,783,783,783,783,783,783,783,783,783,783,783,783,783,783,783,783,783,783,783,783,783,783,783,783,783,783,783,783,783,783,783,783,787,817,870,932,1058,1106,1134,1144,1149,1149,1149,1149,1149,1150,1153,1155],"ymouse":[524,524,524,524,524,524,524,524,524,524,524,524,524,524,524,524,524,524,524,524,524,524,524,524,524,524,524,524,524,524,524,524,524,524,524,524,524,524,524,524,524,524,524,524,524,524,524,522,504,467,424,336,298,266,248,231,194,180,167,154,143,114,99],"timestamp_mouse":[11,30,52,72,90,110,131,151,172,191,211,231,250,271,290,310,331,350,372,390,411,431,452,470,491,510,530,550,572,592,611,631,652,670,691,711,731,750,771,791,810,830,850,871,892,911,931,951,971,990,1011,1030,1051,1071,1090,1112,1130,1151,1171,1190,1210,1231,1250],"xSR":741.5,"ySR":469.95,"xT1":424.9,"yT1":0,"xT2":1058.1,"yT2":0,"toosoon":0,"cond_shown":"randomdotsizeEA","ratio_trial":250,"smaller_num":"1","larger_num":"4","correct_side":2,"subjID":"IsabellaGomezJaramillo24","gender":"1","age":"11","school":"6"},{"start_time":1551801521282,"click_time":1551801522289,"finger_time":1551801522030,"fix_duration":250,"trial":56,"RT":748,"MT":259,"sideResp":2,"stimulus":"img/750/equaldotsize/R/7_Ratio_750_L_3_R_4.png","xmouse":[814,814,814,814,814,814,814,814,814,814,814,814,814,814,814,814,812,812,812,812,812,812,812,812,812,812,812,812,812,810,794,791,791,791,795,815,827,844,863,889,950,973,990,1001,1009,1022,1030,1039,1048,1055,1074],"ymouse":[503,503,503,503,503,503,503,503,503,503,503,503,503,503,503,503,505,505,505,505,505,505,505,505,505,505,505,505,505,505,513,514,514,514,513,489,472,453,431,404,337,310,283,260,235,189,167,144,124,107,70],"timestamp_mouse":[10,34,47,69,88,107,127,149,168,188,208,228,247,269,287,308,327,347,369,388,407,429,448,468,488,508,528,547,567,588,608,629,649,667,689,708,728,748,769,788,807,827,847,868,889,908,927,948,968,989,1007],"xSR":741.5,"ySR":469.95,"xT1":424.9,"yT1":0,"xT2":1058.1,"yT2":0,"toosoon":0,"cond_shown":"equaldotsize","ratio_trial":750,"smaller_num":"3","larger_num":"4","correct_side":2,"subjID":"IsabellaGomezJaramillo24","gender":"1","age":"11","school":"6"},{"start_time":1551801524314,"click_time":1551801525450,"finger_time":1551801525049,"fix_duration":1422.8841604686877,"trial":57,"RT":735,"MT":401,"sideResp":1,"stimulus":"img/250/equaldotsize/L/3_Ratio_250_L_8_R_2.png","xmouse":[796,796,796,796,796,796,796,796,796,796,796,796,796,796,796,796,796,796,796,796,796,796,796,796,796,796,796,796,796,796,796,796,796,787,772,756,741,728,712,698,686,671,658,638,632,624,615,600,559,549,541,536,532,525,517,507,496],"ymouse":[550,550,550,550,550,550,550,550,550,550,550,550,550,550,550,550,550,550,550,550,550,550,550,550,550,550,550,550,550,550,550,550,550,542,527,512,498,485,459,439,423,405,387,351,333,312,284,247,176,162,150,143,137,128,120,109,98],"timestamp_mouse":[17,36,55,75,96,115,136,155,175,195,216,235,256,275,296,317,335,355,376,395,415,437,457,476,495,515,536,555,576,597,617,636,657,675,697,716,735,755,776,796,816,835,855,876,895,915,935,956,975,996,1015,1036,1055,1075,1097,1116,1136],"xSR":741.5,"ySR":469.95,"xT1":424.9,"yT1":0,"xT2":1058.1,"yT2":0,"toosoon":0,"cond_shown":"equaldotsize","ratio_trial":250,"smaller_num":"2","larger_num":"8","correct_side":1,"subjID":"IsabellaGomezJaramillo24","gender":"1","age":"11","school":"6"},{"start_time":1551801528962,"click_time":1551801530109,"finger_time":1551801529690,"fix_duration":850.0044793415084,"trial":58,"RT":728,"MT":419,"sideResp":2,"stimulus":"img/750/randomdotsizeEA/R/7_Ratio_750_L_3_R_4.png","xmouse":[804,804,804,804,804,804,804,804,804,804,804,804,804,804,804,804,804,804,804,804,804,804,804,804,804,804,804,804,804,804,804,804,804,804,805,809,846,865,884,901,919,962,981,996,1008,1019,1025,1027,1029,1032,1036,1048,1053,1056,1058,1061,1082,1101],"ymouse":[529,529,529,529,529,529,529,529,529,529,529,529,529,529,529,529,529,529,529,529,529,529,529,529,529,529,529,529,529,529,529,529,529,529,528,522,478,458,434,410,385,315,281,253,232,211,200,191,184,174,161,129,122,116,114,112,101,90],"timestamp_mouse":[8,38,48,68,87,109,127,147,167,189,207,227,248,267,288,307,328,348,367,388,407,429,448,468,489,508,527,547,569,587,608,627,648,668,687,708,728,749,768,787,808,827,847,868,889,908,927,947,968,988,1008,1028,1048,1068,1088,1108,1128,1147],"xSR":741.5,"ySR":469.95,"xT1":424.9,"yT1":0,"xT2":1058.1,"yT2":0,"toosoon":0,"cond_shown":"randomdotsizeEA","ratio_trial":750,"smaller_num":"3","larger_num":"4","correct_side":2,"subjID":"IsabellaGomezJaramillo24","gender":"1","age":"11","school":"6"},{"start_time":1551801533029,"click_time":1551801534349,"finger_time":1551801534029,"fix_duration":677.2332949729604,"trial":59,"RT":1000,"MT":320,"sideResp":1,"stimulus":"img/900/equaldotsize/L/1_Ratio_900_L_10_R_9.png","xmouse":[767,767,767,767,767,767,767,767,767,767,767,767,767,767,767,767,767,767,767,767,767,767,767,767,767,767,767,767,767,767,767,767,767,767,767,767,767,767,767,767,767,767,767,767,767,767,767,764,759,754,747,738,728,699,687,676,665,654,623,606,585,566,551,512,500,489,478],"ymouse":[515,515,515,515,515,515,515,515,515,515,515,515,515,515,515,515,515,515,515,515,515,515,515,515,515,515,515,515,515,515,515,515,515,515,515,515,515,515,515,515,515,515,515,515,515,515,515,505,490,478,462,442,417,357,341,328,318,309,282,267,249,230,207,147,124,101,77],"timestamp_mouse":[9,21,41,61,80,100,121,141,160,181,202,221,240,260,280,301,320,340,361,380,400,420,440,460,480,502,521,540,561,580,600,621,641,660,680,700,722,741,761,782,801,821,841,861,880,902,921,940,961,980,1000,1021,1041,1061,1081,1100,1120,1140,1160,1181,1201,1220,1241,1261,1282,1301,1320],"xSR":741.5,"ySR":469.95,"xT1":424.9,"yT1":0,"xT2":1058.1,"yT2":0,"toosoon":0,"cond_shown":"equaldotsize","ratio_trial":900,"smaller_num":"9","larger_num":"10","correct_side":1,"subjID":"IsabellaGomezJaramillo24","gender":"1","age":"11","school":"6"},{"start_time":1551801538066,"click_time":1551801539729,"finger_time":1551801539189,"fix_duration":1494.9931903767779,"trial":60,"RT":1123,"MT":540,"sideResp":2,"stimulus":"img/900/equaldotsize/L/8_Ratio_900_L_20_R_18.png","xmouse":[768,768,768,768,768,768,768,768,768,768,768,768,768,768,768,768,768,768,768,768,768,768,768,768,768,768,768,768,768,768,768,768,768,768,768,768,768,768,768,768,768,768,768,768,768,768,768,768,768,768,768,768,768,768,756,743,702,687,675,670,668,667,667,667,671,679,731,786,863,949,1041,1221,1244,1249,1249,1249,1249,1249,1247,1244,1234,1195,1170,1145],"ymouse":[546,546,546,546,546,546,546,546,546,546,546,546,546,546,546,546,546,546,546,546,546,546,546,546,546,546,546,546,546,546,546,546,546,546,546,546,546,546,546,546,546,546,546,546,546,546,546,546,546,546,546,546,546,546,519,488,410,390,374,366,363,361,361,360,358,356,355,353,341,320,291,187,152,132,118,111,100,94,87,79,71,67,67,71],"timestamp_mouse":[8,23,44,64,84,104,123,143,164,183,204,223,244,263,283,304,324,345,363,385,403,424,443,463,485,503,525,543,563,585,603,623,643,663,684,703,723,743,763,785,803,824,843,863,884,903,923,943,963,984,1004,1024,1044,1063,1085,1104,1123,1144,1163,1183,1204,1224,1244,1263,1284,1303,1323,1344,1364,1385,1404,1423,1444,1463,1484,1504,1524,1544,1564,1583,1603,1623,1644,1663],"xSR":741.5,"ySR":469.95,"xT1":424.9,"yT1":0,"xT2":1058.1,"yT2":0,"toosoon":0,"cond_shown":"equaldotsize","ratio_trial":900,"smaller_num":"18","larger_num":"20","correct_side":1,"subjID":"IsabellaGomezJaramillo24","gender":"1","age":"11","school":"6"},{"start_time":1551801541347,"click_time":1551801542390,"finger_time":1551801542029,"fix_duration":815.4496750397134,"trial":61,"RT":682,"MT":361,"sideResp":1,"stimulus":"img/500/equaldotsize/L/8_Ratio_500_L_8_R_4.png","xmouse":[789,789,789,789,789,789,789,789,789,789,789,789,789,789,789,789,789,789,789,789,789,789,789,789,789,789,786,774,771,770,768,766,755,743,724,695,665,593,543,518,501,495,492,490,487,481,476,471,471,471,470,470,469],"ymouse":[546,546,546,546,546,546,546,546,546,546,546,546,546,546,546,546,546,546,546,546,546,546,546,546,546,546,546,548,549,549,548,547,523,498,466,432,396,338,307,297,289,285,281,274,264,250,237,203,184,162,139,115,68],"timestamp_mouse":[8,22,42,62,82,102,123,143,163,182,202,222,243,262,283,302,322,342,362,383,403,422,442,462,482,502,522,543,563,583,602,623,643,663,682,704,724,743,762,782,803,824,843,863,883,903,922,942,962,984,1003,1023,1043],"xSR":741.5,"ySR":469.95,"xT1":424.9,"yT1":0,"xT2":1058.1,"yT2":0,"toosoon":0,"cond_shown":"equaldotsize","ratio_trial":500,"smaller_num":"4","larger_num":"8","correct_side":1,"subjID":"IsabellaGomezJaramillo24","gender":"1","age":"11","school":"6"},{"start_time":1551801544095,"click_time":1551801545150,"finger_time":1551801544770,"fix_duration":883.1922207331579,"trial":62,"RT":675,"MT":380,"sideResp":2,"stimulus":"img/500/randomdotsizeEA/R/9_Ratio_500_L_2_R_4.png","xmouse":[823,823,823,823,823,823,823,823,823,823,823,823,823,823,823,823,823,823,823,823,823,823,823,823,823,823,823,823,823,823,823,823,836,846,891,913,928,942,956,996,1013,1024,1032,1036,1039,1039,1039,1040,1043,1051,1056,1059,1065],"ymouse":[513,513,513,513,513,513,513,513,513,513,513,513,513,513,513,513,513,513,513,513,513,513,513,513,513,513,513,513,513,513,513,513,496,481,417,384,358,335,314,260,241,226,214,205,196,191,184,174,156,136,124,114,99],"timestamp_mouse":[14,36,55,75,94,115,135,156,175,194,214,235,254,275,295,315,335,355,375,395,415,434,456,474,495,515,536,554,574,594,616,634,654,675,694,714,735,755,774,795,814,834,856,875,894,915,934,954,974,994,1014,1034,1055],"xSR":741.5,"ySR":469.95,"xT1":424.9,"yT1":0,"xT2":1058.1,"yT2":0,"toosoon":0,"cond_shown":"randomdotsizeEA","ratio_trial":500,"smaller_num":"2","larger_num":"4","correct_side":2,"subjID":"IsabellaGomezJaramillo24","gender":"1","age":"11","school":"6"},{"start_time":1551801548624,"click_time":1551801549830,"finger_time":1551801549389,"fix_duration":1372.1169531311118,"trial":63,"RT":765,"MT":441,"sideResp":1,"stimulus":"img/750/randomdotsizeEA/L/13_Ratio_750_L_8_R_6.png","xmouse":[793,793,793,793,793,793,793,793,793,793,793,793,793,793,793,793,793,793,793,793,793,793,793,793,793,793,793,793,793,793,793,793,793,793,793,793,792,785,741,707,668,621,578,541,538,535,533,529,521,517,512,508,505,500,500,499,498,495,493,493,492],"ymouse":[514,514,514,514,514,514,514,514,514,514,514,514,514,514,514,514,514,514,514,514,514,514,514,514,514,514,514,514,514,514,514,514,514,514,514,514,509,489,382,325,277,232,196,164,159,156,153,149,140,136,133,129,126,121,121,118,116,111,103,100,97],"timestamp_mouse":[8,35,47,66,86,106,127,146,167,185,206,226,246,267,286,306,325,345,367,386,407,425,445,466,485,507,525,545,566,585,606,627,645,665,686,706,726,745,765,787,805,825,847,865,886,905,925,945,966,986,1006,1025,1045,1066,1085,1105,1125,1145,1166,1185,1206],"xSR":741.5,"ySR":469.95,"xT1":424.9,"yT1":0,"xT2":1058.1,"yT2":0,"toosoon":0,"cond_shown":"randomdotsizeEA","ratio_trial":750,"smaller_num":"6","larger_num":"8","correct_side":1,"subjID":"IsabellaGomezJaramillo24","gender":"1","age":"11","school":"6"},{"start_time":1551801552056,"click_time":1551801553251,"finger_time":1551801552910,"fix_duration":1284.603310179302,"trial":64,"RT":854,"MT":341,"sideResp":2,"stimulus":"img/900/randomdotsizeEA/R/14_Ratio_900_L_18_R_20.png","xmouse":[793,793,793,793,793,793,793,793,793,793,793,793,793,793,793,793,793,793,793,793,793,793,793,793,793,793,793,793,793,793,793,793,793,793,793,793,793,793,793,793,795,810,819,829,841,855,892,921,951,983,1013,1067,1077,1083,1086,1088,1093,1098,1105,1108],"ymouse":[521,521,521,521,521,521,521,521,521,521,521,521,521,521,521,521,521,521,521,521,521,521,521,521,521,521,521,521,521,521,521,521,521,521,521,521,521,521,521,521,517,482,466,454,440,425,388,363,336,308,282,213,193,179,167,158,137,123,109,99],"timestamp_mouse":[14,33,53,74,94,114,133,155,174,193,213,234,253,274,293,313,334,353,374,393,414,434,454,474,494,513,533,553,573,595,613,633,653,673,694,713,734,753,773,793,813,834,854,873,893,914,933,953,974,993,1013,1034,1055,1074,1093,1113,1134,1155,1173,1194],"xSR":741.5,"ySR":469.95,"xT1":424.9,"yT1":0,"xT2":1058.1,"yT2":0,"toosoon":0,"cond_shown":"randomdotsizeEA","ratio_trial":900,"smaller_num":"18","larger_num":"20","correct_side":2,"subjID":"IsabellaGomezJaramillo24","gender":"1","age":"11","school":"6"},{"start_time":1551801555509,"click_time":1551801556549,"finger_time":1551801556189,"fix_duration":1458.2576374134499,"trial":65,"RT":680,"MT":360,"sideResp":2,"stimulus":"img/500/equaldotsize/R/15_Ratio_500_L_1_R_2.png","xmouse":[793,793,793,793,793,793,793,793,793,793,793,793,793,793,793,793,793,793,793,793,793,793,793,793,793,793,793,793,793,793,793,793,793,800,838,870,900,930,957,1010,1029,1041,1049,1055,1069,1076,1083,1086,1087,1088,1089,1093,1099],"ymouse":[525,525,525,525,525,525,525,525,525,525,525,525,525,525,525,525,525,525,525,525,525,525,525,525,525,525,525,525,525,525,525,525,525,516,454,405,349,305,271,224,211,202,194,184,158,142,129,122,120,117,112,102,88],"timestamp_mouse":[8,27,41,60,81,102,120,140,161,180,201,221,240,261,281,301,320,341,361,380,401,422,441,461,480,502,520,540,561,580,600,622,641,661,680,702,721,742,761,780,801,820,840,861,880,900,920,941,962,980,1001,1021,1040],"xSR":741.5,"ySR":469.95,"xT1":424.9,"yT1":0,"xT2":1058.1,"yT2":0,"toosoon":0,"cond_shown":"equaldotsize","ratio_trial":500,"smaller_num":"1","larger_num":"2","correct_side":2,"subjID":"IsabellaGomezJaramillo24","gender":"1","age":"11","school":"6"},{"start_time":1551801558587,"click_time":1551801559930,"finger_time":1551801559310,"fix_duration":1455.720280068944,"trial":66,"RT":723,"MT":620,"sideResp":1,"stimulus":"img/750/equaldotsize/L/14_Ratio_750_L_8_R_6.png","xmouse":[777,777,777,777,777,777,777,777,777,777,777,777,777,777,777,777,777,777,777,777,777,777,777,777,777,777,777,777,777,777,777,777,777,776,771,742,722,700,677,658,631,622,614,605,598,585,580,576,572,568,559,554,551,547,541,515,509,504,501,498,494,490,484,478,472,460,456,453],"ymouse":[505,505,505,505,505,505,505,505,505,505,505,505,505,505,505,505,505,505,505,505,505,505,505,505,505,505,505,505,505,505,505,505,505,505,501,476,459,442,424,408,386,380,373,367,361,342,334,328,319,310,289,279,271,263,253,215,206,196,191,185,175,169,159,147,136,110,101,92],"timestamp_mouse":[9,28,42,63,83,102,124,143,162,183,202,224,242,264,282,302,323,342,362,383,402,423,443,463,482,503,522,543,563,583,602,623,643,663,683,702,723,742,764,783,803,823,842,862,884,902,923,943,962,982,1003,1022,1042,1062,1083,1103,1124,1143,1162,1182,1202,1224,1243,1263,1282,1302,1322,1343],"xSR":741.5,"ySR":469.95,"xT1":424.9,"yT1":0,"xT2":1058.1,"yT2":0,"toosoon":0,"cond_shown":"equaldotsize","ratio_trial":750,"smaller_num":"6","larger_num":"8","correct_side":1,"subjID":"IsabellaGomezJaramillo24","gender":"1","age":"11","school":"6"},{"start_time":1551801561141,"click_time":1551801562211,"finger_time":1551801561889,"fix_duration":250,"trial":67,"RT":748,"MT":322,"sideResp":2,"stimulus":"img/900/randomdotsizeEA/R/14_Ratio_900_L_18_R_20.png","xmouse":[780,780,780,780,780,780,780,780,780,780,780,780,780,780,780,780,780,780,780,780,780,780,780,780,780,780,780,780,780,780,780,780,780,780,787,794,804,844,864,885,911,935,974,996,1022,1051,1075,1128,1141,1147,1149,1150,1150,1148],"ymouse":[513,513,513,513,513,513,513,513,513,513,513,513,513,513,513,513,513,513,513,513,513,513,513,513,513,513,513,513,513,513,513,513,513,513,510,506,502,473,459,445,427,410,376,345,309,268,234,173,156,142,131,121,100,92],"timestamp_mouse":[10,29,49,68,90,108,129,148,170,189,209,229,249,268,289,309,329,348,369,388,410,428,448,469,488,510,528,548,569,590,610,628,648,670,688,710,729,748,770,790,810,830,849,869,888,909,929,948,968,989,1009,1028,1048,1070],"xSR":741.5,"ySR":469.95,"xT1":424.9,"yT1":0,"xT2":1058.1,"yT2":0,"toosoon":0,"cond_shown":"randomdotsizeEA","ratio_trial":900,"smaller_num":"18","larger_num":"20","correct_side":2,"subjID":"IsabellaGomezJaramillo24","gender":"1","age":"11","school":"6"},{"start_time":1551801563458,"click_time":1551801564429,"finger_time":1551801564069,"fix_duration":326.00853196297817,"trial":68,"RT":611,"MT":360,"sideResp":1,"stimulus":"img/500/equaldotsize/L/8_Ratio_500_L_8_R_4.png","xmouse":[788,788,788,788,788,788,788,788,788,788,788,788,788,788,788,788,788,788,788,788,788,788,788,788,788,788,788,788,781,772,753,679,657,637,619,604,581,570,558,547,538,526,522,520,516,513,506,500,494],"ymouse":[500,500,500,500,500,500,500,500,500,500,500,500,500,500,500,500,500,500,500,500,500,500,500,500,500,500,500,500,489,474,440,346,326,309,293,279,248,233,219,206,193,166,158,150,142,134,118,107,97],"timestamp_mouse":[14,31,52,72,91,111,132,152,171,191,211,232,253,273,291,312,332,351,372,391,411,432,451,473,493,512,532,553,572,592,611,632,651,671,692,712,731,751,772,791,811,832,852,871,891,912,931,951,971],"xSR":741.5,"ySR":469.95,"xT1":424.9,"yT1":0,"xT2":1058.1,"yT2":0,"toosoon":0,"cond_shown":"equaldotsize","ratio_trial":500,"smaller_num":"4","larger_num":"8","correct_side":1,"subjID":"IsabellaGomezJaramillo24","gender":"1","age":"11","school":"6"},{"start_time":1551801566200,"click_time":1551801567189,"finger_time":1551801566690,"fix_duration":568.7987677859851,"trial":69,"RT":490,"MT":499,"sideResp":2,"stimulus":"img/250/equaldotanddens/R/8_Ratio_250_L_1_R_4.png","xmouse":[769,769,769,769,769,769,769,769,769,769,769,769,769,769,769,769,769,769,769,769,769,769,769,771,812,852,904,970,1030,1135,1171,1201,1225,1235,1235,1233,1232,1231,1229,1224,1222,1219,1216,1213,1196,1186,1176,1167,1161,1155],"ymouse":[491,491,491,491,491,491,491,491,491,491,491,491,491,491,491,491,491,491,491,491,491,491,491,492,462,428,389,339,299,221,187,154,114,81,53,42,36,33,29,22,19,18,18,18,25,31,36,43,46,50],"timestamp_mouse":[9,30,51,70,90,109,130,149,171,190,209,229,249,269,290,310,330,350,370,389,410,430,450,470,490,509,529,549,571,590,610,630,650,669,689,709,729,749,769,789,810,829,850,869,890,910,929,949,971,989],"xSR":741.5,"ySR":469.95,"xT1":424.9,"yT1":0,"xT2":1058.1,"yT2":0,"toosoon":0,"cond_shown":"equaldotanddens","ratio_trial":250,"smaller_num":"1","larger_num":"4","correct_side":2,"subjID":"IsabellaGomezJaramillo24","gender":"1","age":"11","school":"6"},{"start_time":1551801568822,"click_time":1551801569789,"finger_time":1551801569490,"fix_duration":692.8155053530126,"trial":70,"RT":668,"MT":299,"sideResp":2,"stimulus":"img/900/equaldotsize/R/13_Ratio_900_L_18_R_20.png","xmouse":[781,781,781,781,781,781,781,781,781,781,781,781,781,781,781,781,781,781,781,781,781,781,781,781,781,781,781,781,781,781,781,784,793,843,863,878,894,910,960,983,999,1009,1015,1019,1021,1028,1037,1052,1078],"ymouse":[539,539,539,539,539,539,539,539,539,539,539,539,539,539,539,539,539,539,539,539,539,539,539,539,539,539,539,539,539,539,539,539,532,491,476,461,442,414,335,300,271,246,225,202,194,180,159,131,90],"timestamp_mouse":[9,28,49,69,87,109,127,147,168,187,207,228,248,267,287,307,329,348,367,387,408,428,447,468,487,509,527,547,568,588,607,628,647,668,688,707,727,747,767,788,807,828,849,867,888,907,927,947,967],"xSR":741.5,"ySR":469.95,"xT1":424.9,"yT1":0,"xT2":1058.1,"yT2":0,"toosoon":0,"cond_shown":"equaldotsize","ratio_trial":900,"smaller_num":"18","larger_num":"20","correct_side":2,"subjID":"IsabellaGomezJaramillo24","gender":"1","age":"11","school":"6"},{"start_time":1551801570832,"click_time":1551801571629,"finger_time":1551801571329,"fix_duration":341.80858927934275,"trial":71,"RT":497,"MT":300,"sideResp":2,"stimulus":"img/750/equaldotanddens/R/7_Ratio_750_L_3_R_4.png","xmouse":[789,789,789,789,789,789,789,789,789,789,789,789,789,789,789,789,789,789,789,789,789,789,803,821,842,864,883,910,926,948,972,1008,1029,1035,1040,1045,1048,1054,1060,1064],"ymouse":[509,509,509,509,509,509,509,509,509,509,509,509,509,509,509,509,509,509,509,509,509,509,496,481,465,447,429,389,363,327,285,223,187,177,165,153,142,119,105,91],"timestamp_mouse":[17,39,57,77,99,118,138,158,177,199,217,237,257,277,298,317,338,359,377,397,417,439,457,478,497,517,538,558,577,597,617,639,657,677,697,718,738,757,778,797],"xSR":741.5,"ySR":469.95,"xT1":424.9,"yT1":0,"xT2":1058.1,"yT2":0,"toosoon":0,"cond_shown":"equaldotanddens","ratio_trial":750,"smaller_num":"3","larger_num":"4","correct_side":2,"subjID":"IsabellaGomezJaramillo24","gender":"1","age":"11","school":"6"},{"start_time":1551801573031,"click_time":1551801573690,"finger_time":1551801573489,"fix_duration":579.0968267755453,"trial":72,"RT":458,"MT":201,"sideResp":2,"stimulus":"img/250/equaldotanddens/R/11_Ratio_250_L_3_R_12.png","xmouse":[762,762,762,762,762,762,762,762,762,762,762,762,762,762,762,762,762,762,763,771,781,801,826,884,903,919,937,963,1025,1058,1086,1109,1122,1138],"ymouse":[534,534,534,534,534,534,534,534,534,534,534,534,534,534,534,534,534,534,534,529,524,510,490,450,43