[{"start_time":1551893307857,"click_time":1551893314767,"finger_time":1551893307867,"fix_duration":1165.001967335135,"trial":0,"RT":10,"MT":6900,"sideResp":1,"stimulus":"img/750/equaldotsize/L/6_Ratio_750_L_24_R_18.png","xmouse":[785,785,785,785,785,785,785,785,785,785,785,785,785,785,785,785,785,785,785,785,785,785,785,784,783,783,783,782,782,782,781,781,781,781,780,780,780,779,778,770,768,763,760,757,754,754,754,754,754,755,757,759,761,763,768,771,771,771,771,771,771,771,771,771,771,771,771,770,769,769,769,769,769,769,769,769,769,769,769,769,769,769,769,769,769,767,766,766,766,766,766,766,766,766,766,766,766,766,766,766,766,766,766,766,766,766,766,766,766,766,766,766,766,766,766,766,766,766,764,763,763,763,763,763,763,763,763,763,763,763,763,763,764,766,770,772,774,775,775,775,775,775,775,775,775,775,775,765,753,749,749,749,749,749,749,752,755,759,761,762,762,762,762,762,762,762,762,762,762,762,762,762,762,762,762,762,762,762,762,762,762,762,762,762,762,762,762,762,762,762,762,762,762,762,762,762,764,768,774,782,783,783,783,783,783,783,783,783,783,783,783,783,783,783,783,783,783,783,783,783,783,783,783,783,783,783,783,783,783,783,784,786,787,787,787,787,787,787,787,787,787,787,787,787,787,787,787,787,787,787,787,787,787,787,787,787,787,787,787,787,787,787,787,787,787,787,787,787,787,787,787,787,787,787,787,787,787,787,787,787,787,787,787,787,787,787,787,787,787,787,787,787,787,787,787,787,787,787,787,787,787,787,796,904,1004,1099,1181,1196,1198,1193,1180,1165,1148,1125,993,680,369,114,0,0,8,58,158,328,854,1011,1075,1080,996,822,625,420,241,89,88,109,154,212,318,354,384,407,421,427,436,452],"ymouse":[530,530,530,530,530,530,530,530,530,530,530,530,530,530,530,530,530,530,530,530,530,530,530,530,528,528,528,528,528,527,527,527,527,527,527,527,527,527,527,535,540,545,551,555,565,569,577,581,583,588,592,593,596,598,602,604,605,605,605,605,605,605,605,605,605,605,605,606,607,607,607,607,607,607,607,607,607,607,607,607,607,607,607,607,607,607,607,607,607,607,607,607,607,607,607,607,607,607,607,607,607,607,607,607,607,607,607,607,607,607,607,607,607,607,607,607,607,607,608,609,609,609,609,609,609,609,609,609,609,609,609,607,605,601,572,559,546,543,543,543,543,543,543,543,543,543,542,542,553,562,568,573,574,575,575,576,578,582,589,610,618,621,623,624,624,624,624,624,624,624,624,624,624,624,624,624,624,624,624,624,624,624,624,624,624,624,624,624,624,624,624,624,624,624,624,624,625,622,618,612,611,611,611,611,611,611,611,611,611,611,611,611,611,611,611,611,611,611,611,611,611,611,611,611,611,611,611,611,611,611,610,609,607,607,607,607,607,607,607,607,607,607,607,607,607,607,607,607,607,607,607,607,607,607,607,607,607,607,607,607,607,607,607,607,607,607,607,607,607,607,607,607,607,607,607,607,607,607,607,607,607,607,607,607,607,607,607,607,607,607,607,607,607,607,607,607,607,607,607,607,607,607,605,604,604,604,604,601,600,586,566,543,518,487,401,315,255,234,237,237,239,240,240,240,240,244,251,252,252,239,212,185,150,121,120,117,114,114,114,114,114,114,111,109,103,94],"timestamp_mouse":[9,30,50,71,91,110,129,150,171,190,211,230,249,269,289,309,329,351,370,390,410,429,450,470,490,510,529,550,570,589,610,630,650,669,689,709,730,750,769,789,809,830,849,870,889,909,930,950,970,990,1009,1029,1050,1070,1091,1109,1130,1149,1169,1190,1210,1230,1249,1269,1290,1310,1331,1349,1370,1389,1409,1430,1449,1470,1489,1511,1530,1550,1570,1591,1611,1630,1650,1670,1690,1709,1730,1750,1770,1790,1809,1831,1849,1871,1889,1910,1930,1949,1971,1990,2010,2030,2050,2069,2090,2110,2129,2150,2169,2189,2209,2231,2250,2269,2290,2309,2329,2350,2370,2390,2410,2430,2450,2469,2490,2510,2529,2551,2570,2589,2610,2630,2650,2670,2690,2709,2730,2750,2771,2790,2809,2830,2850,2870,2890,2909,2930,2950,2970,2989,3010,3029,3050,3070,3089,3110,3129,3149,3169,3191,3209,3230,3249,3270,3290,3309,3329,3349,3369,3389,3409,3431,3450,3470,3489,3509,3530,3551,3570,3589,3611,3630,3651,3670,3690,3711,3730,3749,3770,3789,3809,3830,3850,3869,3889,3909,3930,3949,3971,3989,4010,4031,4051,4070,4090,4109,4131,4149,4169,4190,4210,4229,4249,4269,4289,4310,4331,4349,4369,4389,4409,4429,4449,4469,4489,4509,4529,4551,4569,4590,4610,4631,4649,4669,4689,4711,4730,4751,4769,4789,4810,4829,4849,4869,4891,4909,4929,4950,4970,4989,5009,5029,5051,5069,5089,5109,5131,5149,5169,5191,5210,5229,5250,5269,5289,5310,5329,5349,5369,5389,5410,5430,5449,5470,5489,5509,5530,5549,5569,5589,5609,5629,5649,5669,5689,5709,5730,5750,5769,5789,5810,5829,5850,5869,5889,5910,5930,5951,5969,5989,6010,6029,6049,6071,6089,6110,6129,6150,6170,6190,6210,6230,6249,6270,6289,6309,6330,6349,6370,6390,6410,6429,6449,6470,6489,6510,6531,6549,6570,6589,6609,6629,6649,6670,6689,6709,6729,6749,6770,6790,6810,6830,6850,6871,6890,6909],"xSR":741.5,"ySR":469.95,"xT1":424.9,"yT1":0,"xT2":1058.1,"yT2":0,"toosoon":0,"cond_shown":"equaldotsize","ratio_trial":750,"smaller_num":"18","larger_num":"24","correct_side":1,"subjID":"ISABELLAMONTENEGRO39","gender":"1","age":"11","school":"6","test":{"fix_dur":[250,1500],"timestim":300,"targets_dim":[100,100],"targets_relative_coord":[0.3,0.7],"size_stim":[880,420],"start_dim":[100,100],"size_start":[300,300],"size_fix":60,"samplingrate":20,"img_types":["equaldotsize","equaldotanddens","randomdotsizeEA"],"ratios":[250,500,750,900],"rep_conds":9,"nTrials":120,"trials_to_rest":500,"Trials_order":[6,42,57,11,109,5,4,34,107,13,7,90,46,76,0,116,45,49,51,63,82,111,47,27,88,95,20,39,1,72,37,2,14,69,102,93,35,112,66,67,75,15,29,9,18,84,106,48,115,114,79,108,86,80,64,103,53,58,41,119,33,74,52,97,43,36,19,81,54,12,50,22,110,31,8,28,62,77,60,101,56,105,3,55,98,118,92,32,70,73,83,21,40,10,24,104,100,26,99,68,16,30,38,65,44,23,61,89,25,85,59,117,17,96,71,87,94,78,113,91],"cond_shown":["equaldotsize","equaldotsize","equaldotsize","randomdotsizeEA","equaldotanddens","randomdotsizeEA","equaldotanddens","equaldotanddens","randomdotsizeEA","equaldotanddens","equaldotanddens","equaldotsize","equaldotanddens","equaldotanddens","equaldotsize","randomdotsizeEA","equaldotsize","equaldotanddens","equaldotsize","equaldotsize","equaldotanddens","equaldotsize","randomdotsizeEA","equaldotsize","equaldotanddens","randomdotsizeEA","randomdotsizeEA","equaldotsize","equaldotanddens","equaldotsize","equaldotanddens","randomdotsizeEA","randomdotsizeEA","equaldotsize","equaldotsize","equaldotsize","randomdotsizeEA","equaldotanddens","equaldotsize","equaldotanddens","equaldotsize","equaldotsize","randomdotsizeEA","equaldotsize","equaldotsize","equaldotsize","equaldotanddens","equaldotsize","equaldotanddens","equaldotsize","equaldotanddens","equaldotsize","randomdotsizeEA","randomdotsizeEA","equaldotanddens","equaldotanddens","randomdotsizeEA","equaldotanddens","randomdotsizeEA","randomdotsizeEA","equaldotsize","randomdotsizeEA","equaldotanddens","equaldotanddens","equaldotanddens","equaldotsize","equaldotanddens","equaldotsize","equaldotsize","equaldotsize","randomdotsizeEA","equaldotanddens","randomdotsizeEA","equaldotanddens","randomdotsizeEA","equaldotanddens","randomdotsizeEA","randomdotsizeEA","equaldotsize","randomdotsizeEA","randomdotsizeEA","equaldotsize","equaldotsize","equaldotanddens","randomdotsizeEA","equaldotanddens","randomdotsizeEA","randomdotsizeEA","equaldotanddens","equaldotanddens","randomdotsizeEA","equaldotsize","equaldotanddens","equaldotanddens","equaldotsize","randomdotsizeEA","equaldotanddens","randomdotsizeEA","equaldotsize","randomdotsizeEA","equaldotanddens","equaldotsize","randomdotsizeEA","randomdotsizeEA","randomdotsizeEA","randomdotsizeEA","equaldotanddens","randomdotsizeEA","equaldotanddens","equaldotanddens","randomdotsizeEA","equaldotsize","randomdotsizeEA","equaldotsize","randomdotsizeEA","equaldotsize","equaldotanddens","equaldotsize","randomdotsizeEA","equaldotanddens"],"ratio_trial":[750,750,900,900,250,500,500,900,900,250,750,750,900,500,250,750,900,250,500,500,900,500,900,500,500,900,750,500,250,250,250,250,250,900,750,900,900,500,750,750,500,500,500,900,750,250,900,250,750,750,750,250,250,750,500,750,500,900,500,900,900,250,500,250,750,250,750,900,750,250,250,900,250,750,750,500,250,500,250,500,750,900,500,750,250,900,750,750,900,250,900,900,500,900,250,750,500,250,500,750,500,750,250,500,750,900,250,500,250,250,900,900,500,250,900,500,900,750,500,750],"smaller_num":["18","3","9","18","3","5","2","18","18","4","15","15","18","2","3","3","18","2","6","1","9","2","18","6","2","18","3","2","2","3","3","4","2","18","3","18","18","3","18","15","9","9","2","18","6","4","9","4","18","12","12","5","4","3","2","6","2","18","1","18","9","5","2","2","6","2","3","9","6","1","6","18","6","15","15","5","5","6","5","9","15","18","2","15","6","18","15","3","18","3","9","9","10","18","1","3","5","2","2","6","1","3","6","2","15","9","1","6","2","2","9","18","5","3","18","4","9","15","5","3"],"larger_num":["24","4","10","20","12","10","4","20","20","16","20","20","20","4","12","4","20","8","12","2","10","4","20","12","4","20","4","4","8","12","12","16","8","20","4","20","20","6","24","20","18","18","4","20","8","16","10","16","24","16","16","20","16","4","4","8","4","20","2","20","10","20","4","8","8","8","4","10","8","4","24","20","24","20","20","10","20","12","20","18","20","20","4","20","24","20","20","4","20","12","10","10","20","20","4","4","10","8","4","8","2","4","24","4","20","10","4","12","8","8","10","20","10","12","20","8","10","20","10","4"],"correct_side":[1,1,1,1,2,1,1,1,1,2,2,2,1,1,2,1,1,2,1,2,1,1,2,1,1,2,1,1,1,1,1,1,2,1,1,1,1,2,1,1,2,1,2,1,2,2,2,1,1,2,2,2,2,1,1,1,1,1,2,1,1,2,1,2,1,1,2,2,2,2,1,2,1,2,2,2,2,1,2,2,2,2,2,2,2,2,1,1,1,1,2,2,2,1,2,2,1,1,2,1,2,2,1,1,1,2,2,1,1,1,2,2,2,1,1,1,2,2,1,1],"img_shown":["img/750/equaldotsize/L/6_Ratio_750_L_24_R_18.png","img/750/equaldotsize/L/10_Ratio_750_L_4_R_3.png","img/900/equaldotsize/L/1_Ratio_900_L_10_R_9.png","img/900/randomdotsizeEA/L/4_Ratio_900_L_20_R_18.png","img/250/equaldotanddens/R/11_Ratio_250_L_3_R_12.png","img/500/randomdotsizeEA/L/7_Ratio_500_L_10_R_5.png","img/500/equaldotanddens/L/10_Ratio_500_L_4_R_2.png","img/900/equaldotanddens/L/2_Ratio_900_L_20_R_18.png","img/900/randomdotsizeEA/L/10_Ratio_900_L_20_R_18.png","img/250/equaldotanddens/R/10_Ratio_250_L_4_R_16.png","img/750/equaldotanddens/R/5_Ratio_750_L_15_R_20.png","img/750/equaldotsize/R/5_Ratio_750_L_15_R_20.png","img/900/equaldotanddens/L/4_Ratio_900_L_20_R_18.png","img/500/equaldotanddens/L/5_Ratio_500_L_4_R_2.png","img/250/equaldotsize/R/9_Ratio_250_L_3_R_12.png","img/750/randomdotsizeEA/L/10_Ratio_750_L_4_R_3.png","img/900/equaldotsize/L/10_Ratio_900_L_20_R_18.png","img/250/equaldotanddens/R/13_Ratio_250_L_2_R_8.png","img/500/equaldotsize/L/13_Ratio_500_L_12_R_6.png","img/500/equaldotsize/R/12_Ratio_500_L_1_R_2.png","img/900/equaldotanddens/L/1_Ratio_900_L_10_R_9.png","img/500/equaldotsize/L/10_Ratio_500_L_4_R_2.png","img/900/randomdotsizeEA/R/12_Ratio_900_L_18_R_20.png","img/500/equaldotsize/L/11_Ratio_500_L_12_R_6.png","img/500/equaldotanddens/L/10_Ratio_500_L_4_R_2.png","img/900/randomdotsizeEA/R/11_Ratio_900_L_18_R_20.png","img/750/randomdotsizeEA/L/10_Ratio_750_L_4_R_3.png","img/500/equaldotsize/L/10_Ratio_500_L_4_R_2.png","img/250/equaldotanddens/L/3_Ratio_250_L_8_R_2.png","img/250/equaldotsize/L/14_Ratio_250_L_12_R_3.png","img/250/equaldotanddens/L/15_Ratio_250_L_12_R_3.png","img/250/randomdotsizeEA/L/2_Ratio_250_L_16_R_4.png","img/250/randomdotsizeEA/R/13_Ratio_250_L_2_R_8.png","img/900/equaldotsize/L/2_Ratio_900_L_20_R_18.png","img/750/equaldotsize/L/10_Ratio_750_L_4_R_3.png","img/900/equaldotsize/L/4_Ratio_900_L_20_R_18.png","img/900/randomdotsizeEA/L/2_Ratio_900_L_20_R_18.png","img/500/equaldotanddens/R/2_Ratio_500_L_3_R_6.png","img/750/equaldotsize/L/6_Ratio_750_L_24_R_18.png","img/750/equaldotanddens/L/1_Ratio_750_L_20_R_15.png","img/500/equaldotsize/R/6_Ratio_500_L_9_R_18.png","img/500/equaldotsize/L/4_Ratio_500_L_18_R_9.png","img/500/randomdotsizeEA/R/9_Ratio_500_L_2_R_4.png","img/900/equaldotsize/L/10_Ratio_900_L_20_R_18.png","img/750/equaldotsize/R/2_Ratio_750_L_6_R_8.png","img/250/equaldotsize/R/10_Ratio_250_L_4_R_16.png","img/900/equaldotanddens/R/5_Ratio_900_L_9_R_10.png","img/250/equaldotsize/L/2_Ratio_250_L_16_R_4.png","img/750/equaldotanddens/L/6_Ratio_750_L_24_R_18.png","img/750/equaldotsize/R/11_Ratio_750_L_12_R_16.png","img/750/equaldotanddens/R/11_Ratio_750_L_12_R_16.png","img/250/equaldotsize/R/12_Ratio_250_L_5_R_20.png","img/250/randomdotsizeEA/R/10_Ratio_250_L_4_R_16.png","img/750/randomdotsizeEA/L/10_Ratio_750_L_4_R_3.png","img/500/equaldotanddens/L/10_Ratio_500_L_4_R_2.png","img/750/equaldotanddens/L/14_Ratio_750_L_8_R_6.png","img/500/randomdotsizeEA/L/10_Ratio_500_L_4_R_2.png","img/900/equaldotanddens/L/2_Ratio_900_L_20_R_18.png","img/500/randomdotsizeEA/R/15_Ratio_500_L_1_R_2.png","img/900/randomdotsizeEA/L/2_Ratio_900_L_20_R_18.png","img/900/equaldotsize/L/1_Ratio_900_L_10_R_9.png","img/250/randomdotsizeEA/R/12_Ratio_250_L_5_R_20.png","img/500/equaldotanddens/L/10_Ratio_500_L_4_R_2.png","img/250/equaldotanddens/R/13_Ratio_250_L_2_R_8.png","img/750/equaldotanddens/L/13_Ratio_750_L_8_R_6.png","img/250/equaldotsize/L/1_Ratio_250_L_8_R_2.png","img/750/equaldotanddens/R/12_Ratio_750_L_3_R_4.png","img/900/equaldotsize/R/5_Ratio_900_L_9_R_10.png","img/750/equaldotsize/R/2_Ratio_750_L_6_R_8.png","img/250/equaldotsize/R/8_Ratio_250_L_1_R_4.png","img/250/randomdotsizeEA/L/5_Ratio_250_L_24_R_6.png","img/900/equaldotanddens/R/13_Ratio_900_L_18_R_20.png","img/250/randomdotsizeEA/L/5_Ratio_250_L_24_R_6.png","img/750/equaldotanddens/R/3_Ratio_750_L_15_R_20.png","img/750/randomdotsizeEA/R/5_Ratio_750_L_15_R_20.png","img/500/equaldotanddens/R/14_Ratio_500_L_5_R_10.png","img/250/randomdotsizeEA/R/12_Ratio_250_L_5_R_20.png","img/500/randomdotsizeEA/L/11_Ratio_500_L_12_R_6.png","img/250/equaldotsize/R/12_Ratio_250_L_5_R_20.png","img/500/randomdotsizeEA/R/1_Ratio_500_L_9_R_18.png","img/750/randomdotsizeEA/R/5_Ratio_750_L_15_R_20.png","img/900/equaldotsize/R/13_Ratio_900_L_18_R_20.png","img/500/equaldotsize/R/9_Ratio_500_L_2_R_4.png","img/750/equaldotanddens/R/3_Ratio_750_L_15_R_20.png","img/250/randomdotsizeEA/R/6_Ratio_250_L_6_R_24.png","img/900/equaldotanddens/R/9_Ratio_900_L_18_R_20.png","img/750/randomdotsizeEA/L/1_Ratio_750_L_20_R_15.png","img/750/randomdotsizeEA/L/8_Ratio_750_L_4_R_3.png","img/900/equaldotanddens/L/2_Ratio_900_L_20_R_18.png","img/250/equaldotanddens/L/14_Ratio_250_L_12_R_3.png","img/900/randomdotsizeEA/R/6_Ratio_900_L_9_R_10.png","img/900/equaldotsize/R/7_Ratio_900_L_9_R_10.png","img/500/equaldotanddens/R/3_Ratio_500_L_10_R_20.png","img/900/equaldotanddens/L/2_Ratio_900_L_20_R_18.png","img/250/equaldotsize/R/8_Ratio_250_L_1_R_4.png","img/750/randomdotsizeEA/R/12_Ratio_750_L_3_R_4.png","img/500/equaldotanddens/L/7_Ratio_500_L_10_R_5.png","img/250/randomdotsizeEA/L/1_Ratio_250_L_8_R_2.png","img/500/equaldotsize/R/9_Ratio_500_L_2_R_4.png","img/750/randomdotsizeEA/L/13_Ratio_750_L_8_R_6.png","img/500/equaldotanddens/R/15_Ratio_500_L_1_R_2.png","img/750/equaldotsize/R/12_Ratio_750_L_3_R_4.png","img/250/randomdotsizeEA/L/5_Ratio_250_L_24_R_6.png","img/500/randomdotsizeEA/L/5_Ratio_500_L_4_R_2.png","img/750/randomdotsizeEA/L/1_Ratio_750_L_20_R_15.png","img/900/randomdotsizeEA/R/7_Ratio_900_L_9_R_10.png","img/250/equaldotanddens/R/8_Ratio_250_L_1_R_4.png","img/500/randomdotsizeEA/L/13_Ratio_500_L_12_R_6.png","img/250/equaldotanddens/L/7_Ratio_250_L_8_R_2.png","img/250/equaldotanddens/L/7_Ratio_250_L_8_R_2.png","img/900/randomdotsizeEA/R/3_Ratio_900_L_9_R_10.png","img/900/equaldotsize/R/12_Ratio_900_L_18_R_20.png","img/500/randomdotsizeEA/R/14_Ratio_500_L_5_R_10.png","img/250/equaldotsize/L/15_Ratio_250_L_12_R_3.png","img/900/randomdotsizeEA/L/2_Ratio_900_L_20_R_18.png","img/500/equaldotsize/L/8_Ratio_500_L_8_R_4.png","img/900/equaldotanddens/R/5_Ratio_900_L_9_R_10.png","img/750/equaldotsize/R/3_Ratio_750_L_15_R_20.png","img/500/randomdotsizeEA/L/7_Ratio_500_L_10_R_5.png","img/750/equaldotanddens/L/8_Ratio_750_L_4_R_3.png"],"Rat0":[["12_Ratio_0_L_9_R_0.png","13_Ratio_0_L_6_R_0.png","5_Ratio_0_L_2_R_0.png","6_Ratio_0_L_4_R_0.png","8_Ratio_0_L_6_R_0.png"],["1_Ratio_0_L_0_R_17.png","10_Ratio_0_L_0_R_22.png","11_Ratio_0_L_0_R_1.png","14_Ratio_0_L_0_R_24.png","15_Ratio_0_L_0_R_4.png","2_Ratio_0_L_0_R_5.png","3_Ratio_0_L_0_R_17.png","4_Ratio_0_L_0_R_7.png","7_Ratio_0_L_0_R_19.png","9_Ratio_0_L_0_R_15.png"]],"Rat250":[["1_Ratio_250_L_8_R_2.png","14_Ratio_250_L_12_R_3.png","15_Ratio_250_L_12_R_3.png","2_Ratio_250_L_16_R_4.png","3_Ratio_250_L_8_R_2.png","5_Ratio_250_L_24_R_6.png","7_Ratio_250_L_8_R_2.png"],["10_Ratio_250_L_4_R_16.png","11_Ratio_250_L_3_R_12.png","12_Ratio_250_L_5_R_20.png","13_Ratio_250_L_2_R_8.png","4_Ratio_250_L_3_R_12.png","6_Ratio_250_L_6_R_24.png","8_Ratio_250_L_1_R_4.png","9_Ratio_250_L_3_R_12.png"]],"Rat500":[["10_Ratio_500_L_4_R_2.png","11_Ratio_500_L_12_R_6.png","13_Ratio_500_L_12_R_6.png","4_Ratio_500_L_18_R_9.png","5_Ratio_500_L_4_R_2.png","7_Ratio_500_L_10_R_5.png","8_Ratio_500_L_8_R_4.png"],["1_Ratio_500_L_9_R_18.png","12_Ratio_500_L_1_R_2.png","14_Ratio_500_L_5_R_10.png","15_Ratio_500_L_1_R_2.png","2_Ratio_500_L_3_R_6.png","3_Ratio_500_L_10_R_20.png","6_Ratio_500_L_9_R_18.png","9_Ratio_500_L_2_R_4.png"]],"Rat750":[["1_Ratio_750_L_20_R_15.png","10_Ratio_750_L_4_R_3.png","13_Ratio_750_L_8_R_6.png","14_Ratio_750_L_8_R_6.png","6_Ratio_750_L_24_R_18.png","8_Ratio_750_L_4_R_3.png","9_Ratio_750_L_4_R_3.png"],["11_Ratio_750_L_12_R_16.png","12_Ratio_750_L_3_R_4.png","15_Ratio_750_L_9_R_12.png","2_Ratio_750_L_6_R_8.png","3_Ratio_750_L_15_R_20.png","4_Ratio_750_L_15_R_20.png","5_Ratio_750_L_15_R_20.png","7_Ratio_750_L_3_R_4.png"]],"Rat900":[["1_Ratio_900_L_10_R_9.png","10_Ratio_900_L_20_R_18.png","2_Ratio_900_L_20_R_18.png","4_Ratio_900_L_20_R_18.png","8_Ratio_900_L_20_R_18.png"],["11_Ratio_900_L_18_R_20.png","12_Ratio_900_L_18_R_20.png","13_Ratio_900_L_18_R_20.png","14_Ratio_900_L_18_R_20.png","15_Ratio_900_L_9_R_10.png","3_Ratio_900_L_9_R_10.png","5_Ratio_900_L_9_R_10.png","6_Ratio_900_L_9_R_10.png","7_Ratio_900_L_9_R_10.png","9_Ratio_900_L_18_R_20.png"]],"Rat1000":[["10_Ratio_1000_L_16_R_16.png","11_Ratio_1000_L_6_R_6.png","12_Ratio_1000_L_14_R_14.png","13_Ratio_1000_L_20_R_20.png","15_Ratio_1000_L_15_R_15.png","2_Ratio_1000_L_17_R_17.png","4_Ratio_1000_L_9_R_9.png","5_Ratio_1000_L_6_R_6.png","6_Ratio_1000_L_19_R_19.png","8_Ratio_1000_L_14_R_14.png","9_Ratio_1000_L_25_R_25.png"],["1_Ratio_1000_L_1_R_1.png","14_Ratio_1000_L_17_R_17.png","3_Ratio_1000_L_17_R_17.png","7_Ratio_1000_L_6_R_6.png"]]}},{"start_time":1551893316338,"click_time":1551893317827,"finger_time":1551893317267,"fix_duration":428.27069836708307,"trial":1,"RT":929,"MT":560,"sideResp":2,"stimulus":"img/750/equaldotsize/L/10_Ratio_750_L_4_R_3.png","xmouse":[790,790,790,790,790,790,790,790,790,790,790,790,790,790,790,790,790,790,790,790,790,790,790,790,790,790,790,790,790,790,790,790,790,790,790,790,790,790,790,790,790,790,790,794,804,808,812,815,819,822,836,847,861,871,887,895,906,916,924,939,945,953,961,966,981,991,1002,1011,1020,1027,1034,1037,1045,1050,1060],"ymouse":[607,607,607,607,607,607,607,607,607,607,607,607,607,607,607,607,607,607,607,607,607,607,607,607,607,607,607,607,607,607,607,607,607,607,607,607,607,607,607,607,607,606,602,594,581,575,567,562,553,545,510,491,467,442,395,375,355,340,325,301,289,271,249,231,189,170,151,135,120,105,84,75,63,56,44],"timestamp_mouse":[10,38,49,68,89,109,128,149,169,189,209,230,250,268,289,308,329,350,369,389,408,429,449,468,489,509,529,550,569,588,608,630,649,669,689,708,728,749,770,789,808,829,849,869,890,909,929,949,968,989,1008,1029,1048,1069,1089,1109,1128,1149,1169,1189,1208,1229,1250,1268,1289,1308,1329,1349,1369,1389,1408,1428,1448,1468,1489],"xSR":741.5,"ySR":573.95,"xT1":424.9,"yT1":0,"xT2":1058.1,"yT2":0,"toosoon":0,"cond_shown":"equaldotsize","ratio_trial":750,"smaller_num":"3","larger_num":"4","correct_side":1,"subjID":"ISABELLAMONTENEGRO39","gender":"1","age":"11","school":"6"},{"start_time":1551893320884,"click_time":1551893322746,"finger_time":1551893322406,"fix_duration":735.512584672546,"trial":2,"RT":1522,"MT":340,"sideResp":1,"stimulus":"img/900/equaldotsize/L/1_Ratio_900_L_10_R_9.png","xmouse":[814,814,814,814,814,814,814,814,814,814,814,814,814,814,814,814,814,814,814,814,814,814,814,814,814,814,814,814,814,814,814,814,814,814,814,814,814,814,814,812,811,811,811,811,811,811,811,811,811,811,811,811,811,811,811,811,811,811,811,811,811,811,811,811,811,811,811,811,811,811,811,811,811,811,808,796,778,726,686,642,602,567,517,506,494,484,472,461,437,434,433,433,433,437],"ymouse":[612,612,612,612,612,612,612,612,612,612,612,612,612,612,612,612,612,612,612,612,612,612,612,612,612,612,612,612,612,612,612,612,612,612,612,612,612,612,612,612,612,612,612,612,612,612,612,612,612,612,612,612,612,612,612,612,612,612,612,612,612,612,612,612,612,612,612,612,612,612,612,612,612,612,600,582,557,478,423,365,315,272,213,197,184,173,160,153,133,128,123,116,106,91],"timestamp_mouse":[9,23,44,62,83,103,123,142,163,182,204,224,242,263,283,302,323,343,363,382,403,424,442,463,482,503,524,543,562,584,602,622,643,662,683,703,724,743,762,782,804,823,842,862,882,903,922,944,963,982,1002,1023,1044,1064,1082,1103,1123,1143,1162,1182,1203,1222,1242,1262,1284,1302,1322,1342,1362,1384,1403,1423,1442,1462,1482,1502,1522,1543,1562,1582,1602,1623,1643,1662,1684,1702,1722,1742,1763,1782,1803,1823,1843,1862],"xSR":741.5,"ySR":573.95,"xT1":424.9,"yT1":0,"xT2":1058.1,"yT2":0,"toosoon":0,"cond_shown":"equaldotsize","ratio_trial":900,"smaller_num":"9","larger_num":"10","correct_side":1,"subjID":"ISABELLAMONTENEGRO39","gender":"1","age":"11","school":"6"},{"start_time":1551893325221,"click_time":1551893326667,"finger_time":1551893326127,"fix_duration":1474.1585609695028,"trial":3,"RT":906,"MT":540,"sideResp":2,"stimulus":"img/900/randomdotsizeEA/L/4_Ratio_900_L_20_R_18.png","xmouse":[767,767,767,767,767,767,767,767,767,767,767,767,767,767,767,767,767,767,767,767,767,767,767,767,767,767,767,767,767,767,767,767,767,767,767,763,757,756,756,756,756,756,756,756,756,764,771,779,792,818,845,900,916,924,933,955,968,980,989,999,1000,1004,1005,1006,1008,1013,1021,1026,1030,1036,1051,1058,1068],"ymouse":[616,616,616,616,616,616,616,616,616,616,616,616,616,616,616,616,616,616,616,616,616,616,616,616,616,616,616,616,616,616,616,616,616,616,611,604,590,587,587,587,587,587,587,587,581,557,534,504,461,393,343,255,228,207,188,151,132,114,97,75,67,56,53,51,48,44,40,37,36,34,34,34,34],"timestamp_mouse":[10,38,46,65,86,106,125,145,166,186,206,227,246,266,285,305,326,346,367,386,407,426,446,466,486,507,527,545,566,586,605,625,645,666,685,705,726,746,767,786,805,826,845,866,887,906,925,945,966,985,1006,1026,1045,1065,1086,1106,1125,1146,1165,1185,1205,1225,1246,1266,1286,1306,1326,1345,1365,1385,1406,1425,1446],"xSR":741.5,"ySR":573.95,"xT1":424.9,"yT1":0,"xT2":1058.1,"yT2":0,"toosoon":0,"cond_shown":"randomdotsizeEA","ratio_trial":900,"smaller_num":"18","larger_num":"20","correct_side":1,"subjID":"ISABELLAMONTENEGRO39","gender":"1","age":"11","school":"6"},{"start_time":1551893330432,"click_time":1551893331467,"finger_time":1551893331167,"fix_duration":584.9214009616646,"trial":4,"RT":735,"MT":300,"sideResp":2,"stimulus":"img/250/equaldotanddens/R/11_Ratio_250_L_3_R_12.png","xmouse":[793,793,793,793,793,793,793,793,793,793,793,793,793,793,793,793,793,793,793,793,793,793,793,793,793,793,793,793,793,793,793,793,793,793,797,808,831,849,864,893,916,939,964,984,1011,1018,1022,1028,1034,1047,1056,1059],"ymouse":[630,630,630,630,630,630,630,630,630,630,630,630,630,630,630,630,630,630,630,630,630,630,630,630,630,630,630,630,630,630,630,630,630,630,624,600,548,511,476,405,354,297,241,197,135,113,99,86,71,46,26,21],"timestamp_mouse":[15,35,55,74,94,116,134,154,175,194,215,235,254,274,296,315,335,355,376,394,414,434,454,475,494,515,535,555,575,594,615,635,654,674,695,714,735,756,775,795,814,834,854,875,895,914,934,954,974,995,1014,1034],"xSR":741.5,"ySR":573.95,"xT1":424.9,"yT1":0,"xT2":1058.1,"yT2":0,"toosoon":0,"cond_shown":"equaldotanddens","ratio_trial":250,"smaller_num":"3","larger_num":"12","correct_side":2,"subjID":"ISABELLAMONTENEGRO39","gender":"1","age":"11","school":"6"},{"start_time":1551893333967,"click_time":1551893334948,"finger_time":1551893334606,"fix_duration":1419.5084316647356,"trial":5,"RT":639,"MT":342,"sideResp":1,"stimulus":"img/500/randomdotsizeEA/L/7_Ratio_500_L_10_R_5.png","xmouse":[800,800,800,800,800,800,800,800,800,800,800,800,800,800,800,800,800,800,800,800,800,800,800,800,800,800,800,800,800,800,794,790,768,729,713,700,686,676,641,608,573,537,508,493,493,493,493,493,493,487],"ymouse":[598,598,598,598,598,598,598,598,598,598,598,598,598,598,598,598,598,598,598,598,598,598,598,598,598,598,598,598,598,598,584,575,546,501,480,457,432,406,339,288,245,205,163,132,126,121,118,114,109,93],"timestamp_mouse":[1,19,41,60,79,101,120,139,160,180,201,220,239,260,280,299,319,341,361,379,400,419,439,461,480,501,519,539,561,580,600,620,639,659,679,700,719,739,759,779,800,819,839,859,879,899,919,940,959,981],"xSR":741.5,"ySR":573.95,"xT1":424.9,"yT1":0,"xT2":1058.1,"yT2":0,"toosoon":0,"cond_shown":"randomdotsizeEA","ratio_trial":500,"smaller_num":"5","larger_num":"10","correct_side":1,"subjID":"ISABELLAMONTENEGRO39","gender":"1","age":"11","school":"6"},{"start_time":1551893337399,"click_time":1551893338346,"finger_time":1551893338226,"fix_duration":1452.0541547725559,"trial":6,"RT":827,"MT":120,"sideResp":1,"stimulus":"img/500/equaldotanddens/L/10_Ratio_500_L_4_R_2.png","xmouse":[800,800,800,800,800,800,800,800,800,800,800,800,800,800,800,800,800,800,800,800,800,800,800,800,800,800,800,796,792,789,784,780,779,779,779,779,779,779,777,772,765,751,707,669,619,561,468,445],"ymouse":[601,601,601,601,601,601,601,601,601,601,601,601,601,601,601,601,601,601,601,601,601,601,601,601,601,601,601,607,612,615,618,619,620,620,620,620,620,620,620,618,606,552,428,361,293,226,107,73],"timestamp_mouse":[10,40,48,67,87,108,128,149,168,187,207,228,248,267,288,307,327,349,368,387,408,429,448,468,487,507,528,547,568,587,607,628,648,667,688,707,728,747,767,789,807,827,847,867,887,908,927,947],"xSR":741.5,"ySR":573.95,"xT1":424.9,"yT1":0,"xT2":1058.1,"yT2":0,"toosoon":0,"cond_shown":"equaldotanddens","ratio_trial":500,"smaller_num":"2","larger_num":"4","correct_side":1,"subjID":"ISABELLAMONTENEGRO39","gender":"1","age":"11","school":"6"},{"start_time":1551893340870,"click_time":1551893341927,"finger_time":1551893341327,"fix_duration":1380.0984496058984,"trial":7,"RT":457,"MT":600,"sideResp":1,"stimulus":"img/900/equaldotanddens/L/2_Ratio_900_L_20_R_18.png","xmouse":[769,769,768,768,768,768,768,768,768,768,768,768,768,768,768,768,768,768,768,767,761,753,727,718,715,715,715,715,713,710,706,704,703,703,704,706,706,703,690,681,667,647,618,531,483,462,453,449,447,446,446,446,453],"ymouse":[587,586,584,584,584,584,584,584,584,584,584,584,584,584,584,584,584,593,598,603,614,626,655,666,672,672,672,672,666,653,639,630,626,618,611,601,578,560,529,512,493,466,431,345,283,249,228,211,180,161,140,119,98],"timestamp_mouse":[16,41,57,76,97,118,136,156,177,196,217,237,256,276,298,318,337,357,376,397,417,438,457,477,496,516,538,557,577,597,617,636,656,677,698,716,736,756,777,797,817,837,857,878,897,917,936,957,978,997,1017,1036,1057],"xSR":741.5,"ySR":573.95,"xT1":424.9,"yT1":0,"xT2":1058.1,"yT2":0,"toosoon":0,"cond_shown":"equaldotanddens","ratio_trial":900,"smaller_num":"18","larger_num":"20","correct_side":1,"subjID":"ISABELLAMONTENEGRO39","gender":"1","age":"11","school":"6"},{"start_time":1551893344751,"click_time":1551893346987,"finger_time":1551893345206,"fix_duration":823.7290201716489,"trial":8,"RT":455,"MT":1781,"sideResp":2,"stimulus":"img/900/randomdotsizeEA/L/10_Ratio_900_L_20_R_18.png","xmouse":[785,785,785,785,785,785,785,785,785,785,785,785,785,785,785,785,785,785,785,785,785,785,782,777,777,781,786,789,791,791,792,798,808,821,850,865,874,883,889,901,905,912,914,922,938,945,954,967,1013,1021,1047,1072,1073,1073,1073,1073,1073,1073,1073,1073,1073,1073,1073,1073,1073,1073,1073,1073,1073,1073,1073,1073,1073,1073,1073,1073,1073,1073,1073,1073,1073,1073,1073,1073,1073,1073,1073,1073,1073,1073,1073,1073,1073,1073,1073,1073,1073,1073,1073,1073,1073,1073,1066,1009,984,984,984,984,984,995,1029,1099],"ymouse":[637,638,639,639,639,639,639,639,639,639,639,639,639,639,639,639,639,639,639,631,618,578,556,502,477,451,433,422,415,414,413,410,404,393,359,339,320,302,283,252,238,219,209,195,170,160,149,140,121,119,114,110,110,110,110,110,110,110,110,110,110,110,110,110,110,110,110,110,110,110,110,110,110,110,110,110,110,110,110,110,110,110,110,110,110,110,110,110,110,110,110,110,110,110,110,110,110,110,110,110,110,110,110,108,84,84,84,84,84,78,68,48],"timestamp_mouse":[17,39,55,75,96,117,136,156,177,195,215,235,256,277,295,316,337,355,377,396,416,436,455,476,495,516,537,556,576,595,616,635,655,677,696,715,735,755,776,796,816,836,855,875,895,915,935,956,976,995,1015,1035,1056,1076,1096,1115,1135,1157,1177,1196,1215,1235,1257,1276,1297,1317,1335,1357,1375,1396,1415,1436,1455,1476,1496,1515,1536,1555,1576,1595,1615,1636,1655,1677,1696,1718,1736,1755,1775,1796,1816,1836,1855,1877,1896,1915,1937,1955,1975,1996,2017,2035,2057,2076,2095,2116,2136,2155,2177,2195,2216,2236],"xSR":741.5,"ySR":573.95,"xT1":424.9,"yT1":0,"xT2":1058.1,"yT2":0,"toosoon":0,"cond_shown":"randomdotsizeEA","ratio_trial":900,"smaller_num":"18","larger_num":"20","correct_side":1,"subjID":"ISABELLAMONTENEGRO39","gender":"1","age":"11","school":"6"},{"start_time":1551893349542,"click_time":1551893350927,"finger_time":1551893350188,"fix_duration":1373.04327819908,"trial":9,"RT":646,"MT":739,"sideResp":2,"stimulus":"img/250/equaldotanddens/R/10_Ratio_250_L_4_R_16.png","xmouse":[788,788,788,788,788,788,788,788,788,788,790,792,792,792,784,771,771,771,771,771,771,770,770,775,778,778,778,778,780,783,812,834,867,884,896,898,903,916,932,1025,1098,1138,1156,1161,1162,1165,1169,1172,1174,1175,1175,1175,1175,1175,1172,1168,1164,1159,1156,1151,1151,1151,1149,1148,1146,1146,1146,1146,1148,1148],"ymouse":[618,618,618,618,618,618,618,618,618,618,616,614,614,614,614,618,618,618,618,618,618,618,617,610,606,606,606,606,605,603,588,578,566,561,557,557,553,541,525,430,364,332,316,302,281,237,218,207,199,196,196,196,194,181,155,146,139,134,130,128,128,127,126,125,123,120,118,113,106,99],"timestamp_mouse":[9,38,45,65,84,104,124,144,165,184,205,225,246,265,284,305,324,344,365,385,405,426,444,464,485,505,524,545,565,585,604,625,646,665,685,705,724,744,766,785,805,825,845,864,885,906,926,945,964,985,1005,1025,1045,1064,1085,1104,1124,1144,1164,1185,1204,1225,1245,1264,1285,1305,1324,1345,1364,1385],"xSR":741.5,"ySR":573.95,"xT1":424.9,"yT1":0,"xT2":1058.1,"yT2":0,"toosoon":0,"cond_shown":"equaldotanddens","ratio_trial":250,"smaller_num":"4","larger_num":"16","correct_side":2,"subjID":"ISABELLAMONTENEGRO39","gender":"1","age":"11","school":"6"},{"start_time":1551893354619,"click_time":1551893355927,"finger_time":1551893355546,"fix_duration":250,"trial":10,"RT":927,"MT":381,"sideResp":2,"stimulus":"img/750/equaldotanddens/R/5_Ratio_750_L_15_R_20.png","xmouse":[804,804,804,804,804,804,804,804,804,804,804,804,804,804,804,804,804,804,804,804,804,804,804,804,804,804,804,804,804,804,804,804,803,803,803,803,803,803,803,803,803,803,803,803,804,809,836,887,931,979,1026,1089,1103,1109,1111,1113,1117,1124,1127,1135,1137,1139,1140,1140,1138,1127],"ymouse":[625,625,625,625,625,625,625,625,625,625,625,625,625,625,625,625,625,625,625,625,625,625,625,625,625,625,625,625,625,625,625,625,625,625,625,625,625,625,625,625,625,625,625,625,623,617,572,502,447,388,322,247,230,219,213,207,196,184,181,167,158,145,138,126,107,68],"timestamp_mouse":[11,38,48,67,87,108,127,147,167,188,208,227,247,268,288,309,327,347,367,387,407,428,448,469,487,508,527,547,567,587,608,627,647,668,688,708,727,747,768,788,808,827,849,868,888,907,927,948,967,988,1007,1028,1048,1068,1087,1108,1128,1148,1167,1188,1208,1228,1248,1267,1287,1308],"xSR":741.5,"ySR":573.95,"xT1":424.9,"yT1":0,"xT2":1058.1,"yT2":0,"toosoon":0,"cond_shown":"equaldotanddens","ratio_trial":750,"smaller_num":"15","larger_num":"20","correct_side":2,"subjID":"ISABELLAMONTENEGRO39","gender":"1","age":"11","school":"6"},{"start_time":1551893359877,"click_time":1551893360846,"finger_time":1551893360688,"fix_duration":1389.7349259856603,"trial":11,"RT":811,"MT":158,"sideResp":1,"stimulus":"img/750/equaldotsize/R/5_Ratio_750_L_15_R_20.png","xmouse":[791,791,791,791,791,791,791,791,791,791,791,791,791,791,791,791,791,791,791,791,791,791,791,791,791,791,791,791,791,791,791,791,791,791,791,791,791,790,784,770,742,697,571,520,488,478,478,497,513],"ymouse":[624,624,624,624,624,624,624,624,624,624,624,624,624,624,624,624,624,624,624,624,624,624,624,624,624,624,624,624,624,624,624,624,624,624,624,624,624,619,612,596,562,502,297,207,163,141,134,111,98],"timestamp_mouse":[9,30,49,69,91,111,129,151,169,189,209,229,249,271,289,309,330,349,369,391,410,429,450,471,489,509,531,550,570,589,609,629,651,670,689,711,730,750,769,789,811,830,850,869,890,909,930,950,969],"xSR":741.5,"ySR":573.95,"xT1":424.9,"yT1":0,"xT2":1058.1,"yT2":0,"toosoon":0,"cond_shown":"equaldotsize","ratio_trial":750,"smaller_num":"15","larger_num":"20","correct_side":2,"subjID":"ISABELLAMONTENEGRO39","gender":"1","age":"11","school":"6"},{"start_time":1551893364606,"click_time":1551893366208,"finger_time":1551893365466,"fix_duration":1098.1566381472755,"trial":12,"RT":860,"MT":742,"sideResp":1,"stimulus":"img/900/equaldotanddens/L/4_Ratio_900_L_20_R_18.png","xmouse":[766,772,776,779,780,780,780,780,780,780,780,780,780,780,780,780,781,779,777,775,772,772,770,770,770,770,770,770,770,770,770,770,770,770,770,770,770,769,768,768,767,764,761,755,745,724,625,556,473,396,338,274,266,264,264,264,266,268,269,275,275,281,281,281,282,284,290,295,305,325,339,352,362,362,362,362,362,369,395,416,437],"ymouse":[651,652,652,652,652,652,652,652,652,652,652,652,652,652,652,652,653,657,658,660,660,660,660,659,659,659,658,658,658,658,658,658,658,658,658,657,648,642,636,634,626,603,583,561,536,501,374,303,234,177,133,86,76,71,68,66,62,56,38,0,0,0,0,0,0,1,4,9,22,45,57,66,73,73,73,73,73,77,83,84,84],"timestamp_mouse":[1,35,40,61,80,100,121,140,160,182,201,221,240,261,281,301,321,340,361,381,400,422,441,460,480,501,520,540,561,581,601,620,640,661,682,701,721,740,760,781,800,820,840,860,881,901,921,940,961,982,1002,1021,1042,1060,1082,1102,1121,1140,1160,1181,1201,1223,1240,1261,1281,1300,1323,1341,1361,1381,1402,1420,1440,1461,1480,1501,1521,1542,1561,1581,1602],"xSR":741.5,"ySR":573.95,"xT1":424.9,"yT1":0,"xT2":1058.1,"yT2":0,"toosoon":0,"cond_shown":"equaldotanddens","ratio_trial":900,"smaller_num":"18","larger_num":"20","correct_side":1,"subjID":"ISABELLAMONTENEGRO39","gender":"1","age":"11","school":"6"},{"start_time":1551893368345,"click_time":1551893369308,"finger_time":1551893369007,"fix_duration":1095.8644794935594,"trial":13,"RT":662,"MT":301,"sideResp":1,"stimulus":"img/500/equaldotanddens/L/5_Ratio_500_L_4_R_2.png","xmouse":[803,803,803,803,803,803,803,803,803,803,803,803,803,803,803,803,803,803,803,803,803,803,803,803,803,803,803,803,803,803,803,801,797,784,758,672,629,607,591,581,567,567,563,557,548,540,532,526,523],"ymouse":[613,613,613,613,613,613,613,613,613,613,613,613,613,613,613,613,613,613,613,613,613,613,613,613,613,613,613,613,613,613,612,604,588,560,495,314,237,199,179,163,136,126,114,101,88,82,77,74,72],"timestamp_mouse":[11,23,42,62,81,103,122,142,162,183,202,223,241,262,281,302,322,342,361,381,401,422,442,463,481,501,523,541,563,582,602,622,641,661,682,703,723,743,761,782,803,822,841,862,882,902,921,942,962],"xSR":741.5,"ySR":573.95,"xT1":424.9,"yT1":0,"xT2":1058.1,"yT2":0,"toosoon":0,"cond_shown":"equaldotanddens","ratio_trial":500,"smaller_num":"2","larger_num":"4","correct_side":1,"subjID":"ISABELLAMONTENEGRO39","gender":"1","age":"11","school":"6"},{"start_time":1551893371841,"click_time":1551893373027,"finger_time":1551893372347,"fix_duration":1233.8483019255307,"trial":14,"RT":506,"MT":680,"sideResp":2,"stimulus":"img/250/equaldotsize/R/9_Ratio_250_L_3_R_12.png","xmouse":[786,786,786,786,786,786,786,786,786,786,786,786,786,786,786,786,786,786,786,786,786,789,791,795,807,814,821,835,850,867,887,894,901,910,920,960,1003,1066,1181,1327,1379,1418,1446,1461,1470,1471,1465,1460,1460,1460,1459,1456,1448,1432,1407,1333,1263,1225,1188,1123],"ymouse":[597,597,597,597,597,597,597,597,597,597,597,597,597,597,597,597,597,597,597,597,598,596,593,588,575,566,548,510,470,432,385,372,360,345,327,273,229,182,117,64,55,49,44,37,32,16,2,0,0,0,0,0,0,0,7,16,19,19,17,6],"timestamp_mouse":[10,34,47,66,86,106,126,147,167,186,207,226,246,267,287,307,325,347,366,386,406,425,446,467,486,506,526,545,566,585,606,625,646,665,685,706,727,746,766,786,805,825,845,865,886,907,927,946,966,986,1006,1026,1046,1067,1086,1105,1127,1146,1166,1186],"xSR":741.5,"ySR":573.95,"xT1":424.9,"yT1":0,"xT2":1058.1,"yT2":0,"toosoon":0,"cond_shown":"equaldotsize","ratio_trial":250,"smaller_num":"3","larger_num":"12","correct_side":2,"subjID":"ISABELLAMONTENEGRO39","gender":"1","age":"11","school":"6"},{"start_time":1551893375308,"click_time":1551893376787,"finger_time":1551893376027,"fix_duration":1139.9748924455582,"trial":15,"RT":719,"MT":760,"sideResp":2,"stimulus":"img/750/randomdotsizeEA/L/10_Ratio_750_L_4_R_3.png","xmouse":[764,764,764,764,764,764,764,764,764,764,764,764,764,764,764,764,764,765,770,774,777,779,779,780,781,781,781,781,781,781,781,781,781,781,781,781,781,779,768,751,726,693,628,622,615,615,615,615,614,614,616,620,630,639,663,683,726,743,758,769,775,779,788,794,806,819,850,868,890,911,939,992,1018,1047,1062],"ymouse":[616,616,616,616,616,616,616,616,616,616,616,616,616,616,616,616,616,616,608,602,599,597,597,596,596,594,594,594,594,594,594,594,593,591,586,579,543,519,484,434,375,317,222,215,208,208,208,208,207,207,204,201,197,197,208,220,236,238,238,238,237,234,224,213,191,177,152,141,132,122,116,100,92,81,73],"timestamp_mouse":[1,21,39,59,79,98,120,139,158,179,199,219,240,259,279,298,318,338,358,380,400,419,440,458,480,500,518,539,559,579,599,619,639,659,679,700,719,739,759,779,798,818,838,859,879,899,919,939,958,980,998,1019,1040,1059,1079,1099,1119,1138,1158,1179,1199,1219,1239,1258,1279,1299,1319,1338,1360,1379,1398,1420,1439,1459,1478],"xSR":741.5,"ySR":573.95,"xT1":424.9,"yT1":0,"xT2":1058.1,"yT2":0,"toosoon":0,"cond_shown":"randomdotsizeEA","ratio_trial":750,"smaller_num":"3","larger_num":"4","correct_side":1,"subjID":"ISABELLAMONTENEGRO39","gender":"1","age":"11","school":"6"},{"start_time":1551893378280,"click_time":1551893379547,"finger_time":1551893379127,"fix_duration":250,"trial":16,"RT":847,"MT":420,"sideResp":1,"stimulus":"img/900/equaldotsize/L/10_Ratio_900_L_20_R_18.png","xmouse":[801,801,801,801,801,801,801,801,801,801,801,801,801,801,801,801,801,801,801,801,801,801,801,801,801,801,801,801,801,801,801,801,801,801,801,801,801,801,801,799,795,791,778,760,734,686,650,622,584,576,571,569,566,566,566,566,566,565,564,563,560,555,531,510],"ymouse":[645,645,645,645,645,645,645,645,645,645,645,645,645,645,645,645,645,645,645,645,645,643,642,640,640,640,640,640,640,640,640,640,640,640,637,636,635,634,629,620,606,586,523,448,361,226,143,81,17,5,0,0,0,0,0,0,0,0,0,0,0,0,16,28],"timestamp_mouse":[9,31,48,68,87,107,128,146,167,187,208,227,247,267,288,306,327,347,366,388,408,426,448,467,487,508,528,547,566,588,608,628,647,667,687,706,728,747,766,788,806,827,847,867,886,907,927,948,968,988,1007,1027,1048,1067,1088,1107,1127,1147,1167,1186,1208,1227,1248,1267],"xSR":741.5,"ySR":573.95,"xT1":424.9,"yT1":0,"xT2":1058.1,"yT2":0,"toosoon":0,"cond_shown":"equaldotsize","ratio_trial":900,"smaller_num":"18","larger_num":"20","correct_side":1,"subjID":"ISABELLAMONTENEGRO39","gender":"1","age":"11","school":"6"},{"start_time":1551893381960,"click_time":1551893383027,"finger_time":1551893382527,"fix_duration":1212.5074588745165,"trial":17,"RT":567,"MT":500,"sideResp":2,"stimulus":"img/250/equaldotanddens/R/13_Ratio_250_L_2_R_8.png","xmouse":[770,770,770,770,770,770,770,770,770,770,770,770,770,770,770,770,770,770,770,770,770,770,770,774,777,783,790,800,819,837,848,862,872,882,896,903,910,920,943,967,974,994,1003,1010,1020,1025,1029,1034,1040,1052,1060,1074,1082,1091],"ymouse":[613,613,613,613,613,613,613,613,613,613,613,613,613,613,613,613,613,613,613,613,613,613,613,610,608,604,599,589,561,530,509,485,469,455,429,415,398,382,333,282,271,243,234,225,210,202,192,181,170,151,139,121,110,99],"timestamp_mouse":[10,32,46,68,87,107,126,147,167,187,207,228,248,266,287,308,327,347,368,387,406,427,448,467,486,507,527,548,567,587,608,626,647,668,686,706,727,748,767,786,806,827,848,867,888,906,926,946,967,987,1006,1027,1047,1067],"xSR":741.5,"ySR":573.95,"xT1":424.9,"yT1":0,"xT2":1058.1,"yT2":0,"toosoon":0,"cond_shown":"equaldotanddens","ratio_trial":250,"smaller_num":"2","larger_num":"8","correct_side":2,"subjID":"ISABELLAMONTENEGRO39","gender":"1","age":"11","school":"6"},{"start_time":1551893385423,"click_time":1551893386627,"finger_time":1551893385908,"fix_duration":1294.5620171303556,"trial":18,"RT":485,"MT":719,"sideResp":1,"stimulus":"img/500/equaldotsize/L/13_Ratio_500_L_12_R_6.png","xmouse":[778,778,778,778,778,778,778,778,778,778,778,778,778,778,778,778,778,778,778,778,778,778,778,778,778,776,776,774,770,762,748,692,652,616,578,550,520,518,516,516,516,516,516,518,520,527,531,535,540,541,541,538,534,530,528,528,528,528,527,526,507],"ymouse":[594,594,594,594,594,594,594,594,594,594,594,594,594,594,594,594,594,594,594,594,594,589,583,578,573,570,570,565,556,539,515,428,371,321,274,245,226,225,222,219,216,206,199,191,187,171,158,145,123,107,88,55,41,32,31,31,31,31,31,31,45],"timestamp_mouse":[9,36,43,65,85,104,123,143,164,184,204,225,244,264,283,303,324,345,365,385,404,424,443,463,484,505,525,544,563,583,604,624,645,664,683,704,725,743,764,783,804,824,843,864,885,904,924,943,963,984,1003,1024,1044,1064,1084,1105,1125,1143,1164,1184,1204],"xSR":741.5,"ySR":573.95,"xT1":424.9,"yT1":0,"xT2":1058.1,"yT2":0,"toosoon":0,"cond_shown":"equaldotsize","ratio_trial":500,"smaller_num":"6","larger_num":"12","correct_side":1,"subjID":"ISABELLAMONTENEGRO39","gender":"1","age":"11","school":"6"},{"start_time":1551893388852,"click_time":1551893390087,"finger_time":1551893389588,"fix_duration":922.7237836439936,"trial":19,"RT":736,"MT":499,"sideResp":2,"stimulus":"img/500/equaldotsize/R/12_Ratio_500_L_1_R_2.png","xmouse":[784,784,784,784,784,784,784,784,784,784,784,784,784,784,784,784,784,784,784,784,784,784,784,784,784,784,784,784,784,784,784,784,784,784,790,801,824,843,882,905,932,954,983,1023,1032,1038,1043,1045,1047,1047,1049,1051,1053,1057,1063,1068,1074,1080,1082,1092,1098,1107],"ymouse":[595,594,594,594,594,594,594,594,594,594,594,594,594,594,594,594,594,594,594,594,594,594,594,594,594,594,594,594,594,594,594,594,593,592,584,575,555,539,509,489,466,448,421,367,348,332,316,304,286,246,229,220,210,185,167,152,139,130,126,117,110,97],"timestamp_mouse":[20,34,58,75,95,116,134,154,175,195,215,236,255,275,295,315,335,356,376,395,415,435,454,476,494,516,535,555,575,594,614,636,654,674,695,715,736,755,775,795,814,835,854,875,894,915,934,954,975,994,1014,1034,1054,1075,1094,1115,1136,1155,1176,1196,1216,1235],"xSR":741.5,"ySR":573.95,"xT1":424.9,"yT1":0,"xT2":1058.1,"yT2":0,"toosoon":0,"cond_shown":"equaldotsize","ratio_trial":500,"smaller_num":"1","larger_num":"2","correct_side":2,"subjID":"ISABELLAMONTENEGRO39","gender":"1","age":"11","school":"6"},{"start_time":1551893391716,"click_time":1551893393426,"finger_time":1551893392846,"fix_duration":387.3869801807276,"trial":20,"RT":1130,"MT":580,"sideResp":1,"stimulus":"img/900/equaldotanddens/L/1_Ratio_900_L_10_R_9.png","xmouse":[772,772,772,772,772,772,772,772,772,772,772,772,772,772,772,772,772,772,772,772,772,772,772,772,772,772,772,772,772,772,772,772,772,772,772,772,772,772,772,772,772,772,772,772,772,772,772,772,772,772,772,772,772,772,761,748,726,714,703,691,682,675,675,675,674,671,665,660,653,642,601,573,542,506,486,458,444,434,430,430,430,430,432,435,439,443],"ymouse":[622,622,622,622,622,622,622,622,622,622,622,622,622,622,622,622,622,622,622,622,622,622,622,622,622,622,622,622,622,622,622,622,622,622,622,622,622,622,622,622,622,622,622,622,622,622,622,622,622,622,622,622,622,620,597,575,537,519,501,480,464,453,453,452,451,447,434,424,408,388,332,300,265,223,197,157,141,129,124,124,121,118,110,105,100,94],"timestamp_mouse":[12,31,59,71,92,112,131,151,171,191,211,231,251,271,291,312,331,351,370,391,410,432,452,470,492,512,531,550,572,592,612,631,652,670,691,712,732,751,771,790,811,832,851,871,891,911,932,950,971,991,1011,1030,1051,1071,1090,1110,1130,1151,1170,1191,1211,1231,1251,1271,1292,1312,1332,1351,1371,1391,1412,1430,1451,1471,1492,1511,1531,1550,1570,1590,1612,1630,1651,1670,1691,1710],"xSR":741.5,"ySR":573.95,"xT1":424.9,"yT1":0,"xT2":1058.1,"yT2":0,"toosoon":0,"cond_shown":"equaldotanddens","ratio_trial":900,"smaller_num":"9","larger_num":"10","correct_side":1,"subjID":"ISABELLAMONTENEGRO39","gender":"1","age":"11","school":"6"},{"start_time":1551893395510,"click_time":1551893396807,"finger_time":1551893396267,"fix_duration":1322.9756793112597,"trial":21,"RT":757,"MT":540,"sideResp":1,"stimulus":"img/500/equaldotsize/L/10_Ratio_500_L_4_R_2.png","xmouse":[796,796,796,796,796,796,796,796,796,796,796,796,796,796,796,796,796,796,796,796,796,796,796,796,796,796,796,796,796,796,796,796,796,796,791,783,763,737,720,701,699,695,679,656,615,593,564,532,505,487,469,464,454,444,442,440,439,439,438,437,437,437,439,442],"ymouse":[662,662,662,662,662,662,662,662,662,662,662,662,662,662,662,662,662,662,662,662,662,662,662,662,662,662,662,662,662,662,662,662,662,662,642,614,566,502,452,411,406,401,370,335,262,220,191,170,156,150,145,143,136,131,129,128,126,123,120,116,113,111,104,98],"timestamp_mouse":[37,57,77,98,116,137,157,176,197,217,237,256,278,296,318,337,356,377,397,417,437,457,476,497,517,537,558,576,598,618,637,658,677,696,718,738,757,777,797,817,837,857,877,897,917,936,958,977,997,1017,1037,1056,1077,1096,1116,1136,1157,1176,1196,1218,1237,1257,1289,1297],"xSR":741.5,"ySR":573.95,"xT1":424.9,"yT1":0,"xT2":1058.1,"yT2":0,"toosoon":0,"cond_shown":"equaldotsize","ratio_trial":500,"smaller_num":"2","larger_num":"4","correct_side":1,"subjID":"ISABELLAMONTENEGRO39","gender":"1","age":"11","school":"6"},{"start_time":1551893398516,"click_time":1551893399806,"finger_time":1551893399267,"fix_duration":587.5732504600122,"trial":22,"RT":751,"MT":539,"sideResp":2,"stimulus":"img/900/randomdotsizeEA/R/12_Ratio_900_L_18_R_20.png","xmouse":[786,786,786,786,786,786,786,786,786,786,786,786,786,786,786,786,786,786,786,786,786,786,786,786,786,786,786,786,786,783,780,774,774,774,775,795,809,824,843,861,902,921,937,946,955,965,967,969,969,970,973,978,980,983,985,991,1007,1016,1028,1043,1062,1110,1127,1143,1157],"ymouse":[613,613,613,613,613,613,613,613,613,613,613,613,613,613,613,613,613,613,613,613,613,613,613,613,613,613,613,613,613,615,616,616,616,616,616,595,576,555,530,508,476,460,444,432,415,393,382,368,353,339,325,306,298,281,270,257,235,227,217,204,188,153,137,118,97],"timestamp_mouse":[11,41,51,71,91,111,132,152,171,192,210,230,252,271,292,311,331,352,371,392,411,430,452,472,490,512,532,551,570,590,610,631,651,671,690,711,730,751,771,790,811,830,852,872,890,911,931,951,970,991,1011,1031,1050,1071,1090,1112,1131,1151,1170,1190,1211,1231,1251,1272,1290],"xSR":741.5,"ySR":573.95,"xT1":424.9,"yT1":0,"xT2":1058.1,"yT2":0,"toosoon":0,"cond_shown":"randomdotsizeEA","ratio_trial":900,"smaller_num":"18","larger_num":"20","correct_side":2,"subjID":"ISABELLAMONTENEGRO39","gender":"1","age":"11","school":"6"},{"start_time":1551893401903,"click_time":1551893403028,"finger_time":1551893402648,"fix_duration":714.5637249266928,"trial":23,"RT":745,"MT":380,"sideResp":1,"stimulus":"img/500/equaldotsize/L/11_Ratio_500_L_12_R_6.png","xmouse":[793,793,793,793,793,793,793,793,793,793,793,793,793,793,793,793,793,793,793,793,793,793,793,793,793,793,793,793,793,793,793,793,793,791,786,781,774,756,741,728,711,673,653,632,616,603,597,590,586,584,580,566,557,548,536,527,518],"ymouse":[632,632,632,632,632,632,632,632,632,632,632,632,632,632,632,632,632,632,632,632,632,632,632,632,632,632,632,632,632,632,632,632,631,623,611,600,584,535,493,446,387,281,242,199,170,149,132,104,95,87,76,56,47,43,39,37,34],"timestamp_mouse":[11,24,43,64,83,104,124,143,164,184,205,224,243,264,285,304,324,344,364,384,405,424,443,463,485,504,524,544,564,585,603,625,644,665,683,704,725,745,763,784,803,824,843,864,884,903,923,945,964,985,1004,1024,1044,1064,1085,1104,1125],"xSR":741.5,"ySR":573.95,"xT1":424.9,"yT1":0,"xT2":1058.1,"yT2":0,"toosoon":0,"cond_shown":"equaldotsize","ratio_trial":500,"smaller_num":"6","larger_num":"12","correct_side":1,"subjID":"ISABELLAMONTENEGRO39","gender":"1","age":"11","school":"6"},{"start_time":1551893404683,"click_time":1551893405907,"finger_time":1551893405527,"fix_duration":735.5014757691952,"trial":24,"RT":844,"MT":380,"sideResp":1,"stimulus":"img/500/equaldotanddens/L/10_Ratio_500_L_4_R_2.png","xmouse":[784,784,784,784,784,784,784,784,784,784,784,784,784,784,784,784,784,784,784,784,784,784,784,784,784,784,784,784,784,784,784,784,784,784,784,784,784,784,784,783,775,755,701,678,648,641,620,606,582,575,570,563,550,547,544,540,537,534,532,530,526,522],"ymouse":[660,660,660,660,660,660,660,660,660,660,660,660,660,660,660,660,660,660,660,660,660,660,660,660,660,660,660,660,660,660,660,660,660,660,660,660,660,660,660,648,623,575,448,380,313,296,243,211,157,138,126,115,95,87,81,74,69,67,66,65,63,62],"timestamp_mouse":[10,25,44,64,84,103,123,144,164,184,203,224,244,264,283,303,324,344,364,385,404,424,444,464,484,505,523,544,564,583,603,623,645,664,683,704,724,744,764,784,803,824,844,863,883,904,923,944,963,984,1003,1024,1044,1064,1083,1105,1124,1144,1164,1184,1203,1224],"xSR":741.5,"ySR":573.95,"xT1":424.9,"yT1":0,"xT2":1058.1,"yT2":0,"toosoon":0,"cond_shown":"equaldotanddens","ratio_trial":500,"smaller_num":"2","larger_num":"4","correct_side":1,"subjID":"ISABELLAMONTENEGRO39","gender":"1","age":"11","school":"6"},{"start_time":1551893407863,"click_time":1551893409446,"finger_time":1551893408886,"fix_duration":1114.830087554492,"trial":25,"RT":1023,"MT":560,"sideResp":1,"stimulus":"img/900/randomdotsizeEA/R/11_Ratio_900_L_18_R_20.png","xmouse":[794,794,794,794,794,794,794,794,794,794,794,794,794,794,794,794,794,794,794,794,794,794,794,796,796,796,796,796,796,796,796,796,796,796,796,796,796,796,796,796,796,796,796,796,796,796,796,796,796,796,796,796,790,779,742,719,711,702,681,671,661,654,649,639,634,630,619,608,587,581,574,569,566,566,562,560,549,539,529,515],"ymouse":[612,612,612,612,612,612,612,612,612,612,612,612,612,612,612,612,612,612,612,612,612,612,612,612,612,612,612,612,612,612,612,612,612,612,612,612,612,612,612,612,612,612,612,612,612,612,612,612,612,608,587,567,547,517,424,374,352,331,295,283,273,266,259,243,233,222,204,188,160,148,138,127,122,112,104,99,85,77,71,64],"timestamp_mouse":[10,37,45,64,85,105,124,144,164,183,204,224,243,263,283,304,325,343,364,385,403,423,444,464,484,503,525,544,565,584,604,624,643,665,684,705,723,744,765,785,805,824,843,865,884,903,924,943,964,984,1004,1023,1044,1064,1083,1104,1125,1144,1164,1184,1205,1225,1245,1264,1284,1304,1324,1344,1363,1384,1405,1425,1444,1464,1484,1505,1525,1544,1564,1583],"xSR":741.5,"ySR":573.95,"xT1":424.9,"yT1":0,"xT2":1058.1,"yT2":0,"toosoon":0,"cond_shown":"randomdotsizeEA","ratio_trial":900,"smaller_num":"18","larger_num":"20","correct_side":2,"subjID":"ISABELLAMONTENEGRO39","gender":"1","age":"11","school":"6"},{"start_time":1551893410863,"click_time":1551893412207,"finger_time":1551893411746,"fix_duration":574.3672785553772,"trial":26,"RT":883,"MT":461,"sideResp":2,"stimulus":"img/750/randomdotsizeEA/L/10_Ratio_750_L_4_R_3.png","xmouse":[770,770,770,770,770,770,770,770,770,770,770,770,770,770,770,770,770,770,770,770,770,770,770,770,770,770,770,770,770,770,770,770,770,770,770,770,770,770,770,770,770,770,777,805,832,866,908,926,948,950,954,961,971,994,1009,1014,1029,1036,1047,1052,1060,1068,1078,1098,1106,1113,1116,1118],"ymouse":[619,619,619,619,619,619,619,619,619,619,619,619,619,619,619,619,619,619,619,619,619,619,619,619,619,619,619,619,619,619,619,619,619,619,619,619,619,619,619,619,619,619,613,590,559,512,462,442,408,396,383,370,352,310,283,273,249,236,210,198,184,172,158,131,120,107,101,98],"timestamp_mouse":[9,30,44,64,84,104,125,144,164,184,205,224,245,264,285,305,325,344,365,384,404,425,443,464,484,504,524,545,564,584,604,625,645,664,683,704,725,744,764,784,803,825,845,865,883,903,925,944,964,984,1003,1024,1045,1064,1083,1104,1124,1143,1164,1183,1204,1223,1243,1264,1284,1304,1324,1344],"xSR":741.5,"ySR":573.95,"xT1":424.9,"yT1":0,"xT2":1058.1,"yT2":0,"toosoon":0,"cond_shown":"randomdotsizeEA","ratio_trial":750,"smaller_num":"3","larger_num":"4","correct_side":1,"subjID":"ISABELLAMONTENEGRO39","gender":"1","age":"11","school":"6"},{"start_time":1551893416189,"click_time":1551893417067,"finger_time":1551893416866,"fix_duration":1041.3681432409787,"trial":27,"RT":677,"MT":201,"sideResp":1,"stimulus":"img/500/equaldotsize/L/10_Ratio_500_L_4_R_2.png","xmouse":[777,777,777,777,777,777,777,777,777,777,777,777,777,777,777,777,777,777,777,777,777,777,777,777,777,777,777,777,777,777,777,777,774,760,745,721,668,640,615,589,573,546,533,521],"ymouse":[624,624,624,624,624,624,624,624,624,624,624,624,624,624,624,624,624,624,624,624,624,624,624,624,624,624,624,624,624,624,624,624,604,557,508,451,328,263,206,145,112,64,46,31],"timestamp_mouse":[18,38,57,79,97,119,138,159,178,198,218,238,259,278,298,318,338,357,379,397,419,439,458,478,498,517,538,557,578,597,617,637,657,677,697,717,737,757,778,798,819,837,858,878],"xSR":741.5,"ySR":573.95,"xT1":424.9,"yT1":0,"xT2":1058.1,"yT2":0,"toosoon":0,"cond_shown":"equaldotsize","ratio_trial":500,"smaller_num":"2","larger_num":"4","correct_side":1,"subjID":"ISABELLAMONTENEGRO39","gender":"1","age":"11","school":"6"},{"start_time":1551893418897,"click_time":1551893419688,"finger_time":1551893419427,"fix_duration":870.4440960935959,"trial":28,"RT":530,"MT":261,"sideResp":1,"stimulus":"img/250/equaldotanddens/L/3_Ratio_250_L_8_R_2.png","xmouse":[814,814,814,814,814,814,814,814,814,814,814,814,814,814,814,814,814,814,814,814,814,814,814,814,814,812,778,736,695,653,620,600,572,546,535,528,522,510,503,497],"ymouse":[613,613,613,613,613,613,613,613,613,613,613,613,613,613,613,613,613,613,613,613,613,613,613,613,613,607,516,434,370,321,283,259,218,181,162,148,135,114,105,97],"timestamp_mouse":[10,31,50,70,90,111,130,150,171,190,210,229,251,269,291,310,330,349,370,390,410,430,450,469,489,510,530,550,569,589,610,630,649,671,690,709,731,750,771,791],"xSR":741.5,"ySR":573.95,"xT1":424.9,"yT1":0,"xT2":1058.1,"yT2":0,"toosoon":0,"cond_shown":"equaldotanddens","ratio_trial":250,"smaller_num":"2","larger_num":"8","correct_side":1,"subjID":"ISABELLAMONTENEGRO39","gender":"1","age":"11","school":"6"},{"start_time":1551893420879,"click_time":1551893422047,"finger_time":1551893421488,"fix_duration":250,"trial":29,"RT":609,"MT":559,"sideResp":1,"stimulus":"img/250/equaldotsize/L/14_Ratio_250_L_12_R_3.png","xmouse":[783,783,783,783,783,783,783,783,783,783,783,783,783,783,783,783,783,783,783,783,783,783,783,783,783,783,783,783,783,774,758,733,699,653,638,612,593,578,549,540,532,525,520,508,505,501,497,495,494,494,494,494,494,496,498,498,498,498,498],"ymouse":[626,626,626,626,626,626,626,626,626,626,626,626,626,626,626,626,626,626,626,626,626,626,626,626,626,626,626,626,614,575,523,464,398,331,315,288,273,259,233,223,211,202,194,178,173,167,160,155,149,143,138,133,128,118,113,110,109,103,98],"timestamp_mouse":[7,30,49,67,89,109,127,148,167,189,207,227,248,268,288,308,327,348,367,389,408,428,449,468,488,507,528,547,567,588,609,628,648,669,688,708,727,747,768,788,808,828,848,868,889,907,928,949,967,988,1007,1029,1047,1069,1088,1108,1129,1148,1167],"xSR":741.5,"ySR":573.95,"xT1":424.9,"yT1":0,"xT2":1058.1,"yT2":0,"toosoon":0,"cond_shown":"equaldotsize","ratio_trial":250,"smaller_num":"3","larger_num":"12","correct_side":1,"subjID":"ISABELLAMONTENEGRO39","gender":"1","age":"11","school":"6"},{"start_time":1551893424174,"click_time":1551893424886,"finger_time":1551893424726,"fix_duration":1306.7950180163227,"trial":30,"RT":552,"MT":160,"sideResp":1,"stimulus":"img/250/equaldotanddens/L/15_Ratio_250_L_12_R_3.png","xmouse":[801,798,795,794,794,794,794,794,794,794,794,794,794,794,794,794,794,794,794,794,794,794,794,794,794,787,782,766,704,646,633,595,530,496,464,433],"ymouse":[623,625,627,627,627,627,627,627,627,627,627,627,627,627,627,627,627,627,627,627,627,627,627,627,627,607,588,541,432,359,340,289,212,171,127,83],"timestamp_mouse":[12,34,53,73,94,112,133,153,173,194,212,234,254,273,293,312,333,353,373,393,413,433,453,473,493,513,532,552,573,594,613,634,653,673,693,712],"xSR":741.5,"ySR":573.95,"xT1":424.9,"yT1":0,"xT2":1058.1,"yT2":0,"toosoon":0,"cond_shown":"equaldotanddens","ratio_trial":250,"smaller_num":"3","larger_num":"12","correct_side":1,"subjID":"ISABELLAMONTENEGRO39","gender":"1","age":"11","school":"6"},{"start_time":1551893427698,"click_time":1551893429628,"finger_time":1551893428168,"fix_duration":250,"trial":31,"RT":470,"MT":1460,"sideResp":2,"stimulus":"img/250/randomdotsizeEA/L/2_Ratio_250_L_16_R_4.png","xmouse":[762,762,762,762,762,762,762,762,762,762,762,762,762,762,762,762,762,762,762,762,762,754,744,739,736,735,735,735,737,741,751,793,818,837,838,837,837,837,837,840,893,1097,1180,1263,1300,1322,1358,1384,1411,1422,1427,1419,1354,1254,1175,1097,941,858,787,756,742,737,736,740,754,764,772,799,819,842,858,882,888,890,891,898,907,940,962,978,991,996,996,996,998,1005,1016,1018,1018,1018,1018,1021,1028,1037,1040,1045,1061],"ymouse":[651,651,651,651,651,651,651,651,651,651,651,651,651,651,651,651,651,651,651,651,651,634,597,563,546,538,531,511,490,463,427,323,264,219,206,203,203,203,203,203,195,148,112,65,36,7,0,0,0,0,0,0,0,42,100,149,215,233,235,235,233,231,231,227,209,185,161,116,85,50,29,0,0,0,0,0,0,10,16,19,20,20,20,20,20,17,10,9,9,9,9,9,16,27,30,35,45],"timestamp_mouse":[10,36,50,71,90,109,131,149,170,189,210,229,250,271,290,309,331,350,370,389,409,431,450,470,491,511,530,550,570,590,610,630,650,670,691,709,730,749,769,790,810,831,850,870,891,910,930,949,970,989,1010,1030,1051,1070,1091,1110,1131,1149,1170,1189,1209,1229,1251,1269,1290,1309,1330,1350,1369,1389,1410,1431,1450,1471,1490,1510,1530,1549,1570,1590,1610,1631,1650,1670,1689,1710,1730,1750,1770,1790,1810,1831,1850,1870,1890,1909,1930],"xSR":741.5,"ySR":573.95,"xT1":424.9,"yT1":0,"xT2":1058.1,"yT2":0,"toosoon":0,"cond_shown":"randomdotsizeEA","ratio_trial":250,"smaller_num":"4","larger_num":"16","correct_side":1,"subjID":"ISABELLAMONTENEGRO39","gender":"1","age":"11","school":"6"},{"start_time":1551893432499,"click_time":1551893433288,"finger_time":1551893433028,"fix_duration":609.5816780474817,"trial":32,"RT":529,"MT":260,"sideResp":2,"stimulus":"img/250/randomdotsizeEA/R/13_Ratio_250_L_2_R_8.png","xmouse":[795,795,795,795,795,795,795,795,795,795,795,795,795,795,795,795,795,795,795,795,795,795,795,798,810,829,883,909,936,957,974,991,1028,1044,1064,1074,1092,1095,1097,1100],"ymouse":[634,634,634,634,634,634,634,634,634,634,634,634,634,634,634,634,634,634,634,634,634,634,634,634,627,609,558,529,490,453,415,374,284,248,201,176,134,119,104,88],"timestamp_mouse":[10,30,50,70,88,109,130,148,168,190,209,228,250,268,290,309,328,349,370,389,409,429,449,469,489,508,529,548,569,589,609,629,650,669,690,709,729,749,768,788],"xSR":741.5,"ySR":573.95,"xT1":424.9,"yT1":0,"xT2":1058.1,"yT2":0,"toosoon":0,"cond_shown":"randomdotsizeEA","ratio_trial":250,"smaller_num":"2","larger_num":"8","correct_side":2,"subjID":"ISABELLAMONTENEGRO39","gender":"1","age":"11","school":"6"},{"start_time":1551893434459,"click_time":1551893434948,"finger_time":1551893434789,"fix_duration":250,"trial":33,"RT":330,"MT":159,"sideResp":1,"stimulus":"img/900/equaldotsize/L/2_Ratio_900_L_20_R_18.png","xmouse":[760,765,765,786,789,789,789,789,789,789,785,779,774,770,770,770,770,769,752,719,666,621,576,484,448],"ymouse":[611,617,617,650,654,654,654,654,654,646,633,620,608,597,594,588,573,560,509,446,372,312,247,111,42],"timestamp_mouse":[10,35,50,69,88,110,130,150,169,190,208,229,248,270,289,309,330,349,369,389,408,428,449,470,488],"xSR":741.5,"ySR":573.95,"xT1":424.9,"yT1":0,"xT2":1058.1,"yT2":0,"toosoon":0,"cond_shown":"equaldotsize","ratio_trial":900,"smaller_num":"18","larger_num":"20","correct_side":1,"subjID":"ISABELLAMONTENEGRO39","gender":"1","age":"11","school":"6"},{"start_time":1551893438477,"click_time":1551893439087,"finger_time":1551893438949,"fix_duration":987.3139698706774,"trial":34,"RT":472,"MT":138,"sideResp":2,"stimulus":"img/750/equaldotsize/L/10_Ratio_750_L_4_R_3.png","xmouse":[795,795,795,795,795,795,795,795,795,795,795,795,794,792,789,788,787,786,785,786,787,790,806,831,842,890,929,973,1035,1052,1074],"ymouse":[620,620,620,620,620,620,620,620,620,619,619,619,619,619,620,620,620,620,620,617,615,611,588,554,537,466,402,322,189,139,83],"timestamp_mouse":[10,31,51,71,92,110,131,151,170,191,212,230,252,271,291,311,332,350,371,391,411,431,451,472,491,511,531,551,572,591,610],"xSR":741.5,"ySR":573.95,"xT1":424.9,"yT1":0,"xT2":1058.1,"yT2":0,"toosoon":0,"cond_shown":"equaldotsize","ratio_trial":750,"smaller_num":"3","larger_num":"4","correct_side":1,"subjID":"ISABELLAMONTENEGRO39","gender":"1","age":"11","school":"6"},{"start_time":1551893440462,"click_time":1551893441288,"finger_time":1551893440828,"fix_duration":271.3837182701238,"trial":35,"RT":366,"MT":460,"sideResp":1,"stimulus":"img/900/equaldotsize/L/4_Ratio_900_L_20_R_18.png","xmouse":[790,790,790,790,790,790,790,790,790,790,790,790,790,790,790,790,788,780,770,739,716,695,681,674,674,674,674,673,669,667,663,654,629,568,536,530,522,522,522,519,513,504],"ymouse":[605,605,605,605,605,605,605,605,605,605,605,605,605,605,605,605,603,581,557,479,422,372,323,227,191,168,147,135,115,105,93,71,41,0,0,0,0,0,0,0,0,3],"timestamp_mouse":[10,30,45,66,85,107,125,145,167,185,206,227,246,267,286,307,326,346,366,387,406,426,446,467,486,505,526,546,566,586,606,627,646,667,687,705,726,746,767,786,806,826],"xSR":741.5,"ySR":573.95,"xT1":424.9,"yT1":0,"xT2":1058.1,"yT2":0,"toosoon":0,"cond_shown":"equaldotsize","ratio_trial":900,"smaller_num":"18","larger_num":"20","correct_side":1,"subjID":"ISABELLAMONTENEGRO39","gender":"1","age":"11","school":"6"},{"start_time":1551893442398,"click_time":1551893443028,"finger_time":1551893442828,"fix_duration":287.8369184736834,"trial":36,"RT":430,"MT":200,"sideResp":2,"stimulus":"img/900/randomdotsizeEA/L/2_Ratio_900_L_20_R_18.png","xmouse":[812,812,812,812,812,812,812,810,810,810,810,810,810,810,810,810,810,810,810,821,837,861,929,975,1010,1032,1058,1076,1080,1095,1104,1117],"ymouse":[642,642,642,642,642,642,642,642,642,642,642,642,642,642,642,642,642,637,631,605,576,543,428,348,286,238,178,148,140,117,105,84],"timestamp_mouse":[11,29,50,69,91,109,131,150,171,189,211,231,249,270,290,310,329,350,371,391,409,430,449,470,490,511,530,549,569,591,611,630],"xSR":741.5,"ySR":573.95,"xT1":424.9,"yT1":0,"xT2":1058.1,"yT2":0,"toosoon":0,"cond_shown":"randomdotsizeEA","ratio_trial":900,"smaller_num":"18","larger_num":"20","correct_side":1,"subjID":"ISABELLAMONTENEGRO39","gender":"1","age":"11","school":"6"},{"start_time":1551893444279,"click_time":1551893444747,"finger_time":1551893444647,"fix_duration":250,"trial":37,"RT":368,"MT":100,"sideResp":1,"stimulus":"img/500/equaldotanddens/R/2_Ratio_500_L_3_R_6.png","xmouse":[786,786,786,786,786,786,786,786,786,786,786,786,786,786,786,786,786,776,759,728,691,643,539,473],"ymouse":[618,618,618,618,618,618,618,618,618,618,618,618,618,618,618,618,617,578,519,446,367,287,149,66],"timestamp_mouse":[8,34,49,68,90,109,129,150,170,188,210,230,249,269,289,309,329,349,368,388,409,429,449,468],"xSR":741.5,"ySR":573.95,"xT1":424.9,"yT1":0,"xT2":1058.1,"yT2":0,"toosoon":0,"cond_shown":"equaldotanddens","ratio_trial":500,"smaller_num":"3","larger_num":"6","correct_side":2,"subjID":"ISABELLAMONTENEGRO39","gender":"1","age":"11","school":"6"},{"start_time":1551893446823,"click_time":1551893447588,"finger_time":1551893447148,"fix_duration":1274.8841454224996,"trial":38,"RT":325,"MT":440,"sideResp":2,"stimulus":"img/750/equaldotsize/L/6_Ratio_750_L_24_R_18.png","xmouse":[799,799,799,799,799,799,799,799,799,799,799,799,798,798,798,803,835,879,894,928,966,978,987,992,996,1000,1005,1011,1016,1021,1027,1030,1033,1035,1039,1048,1055,1057,1060],"ymouse":[634,634,634,634,634,634,634,634,634,634,634,634,634,633,627,612,543,442,416,364,307,287,267,251,237,225,207,190,178,169,153,147,138,131,120,99,89,85,82],"timestamp_mouse":[10,36,45,64,86,105,125,144,165,185,205,225,245,264,284,305,325,345,366,386,405,424,444,466,484,504,525,545,566,586,605,625,644,666,686,705,724,744,765],"xSR":741.5,"ySR":573.95,"xT1":424.9,"yT1":0,"xT2":1058.1,"yT2":0,"toosoon":0,"cond_shown":"equaldotsize","ratio_trial":750,"smaller_num":"18","larger_num":"24","correct_side":1,"subjID":"ISABELLAMONTENEGRO39","gender":"1","age":"11","school":"6"},{"start_time":1551893448976,"click_time":1551893449768,"finger_time":1551893449509,"fix_duration":568.1313348596108,"trial":39,"RT":533,"MT":259,"sideResp":1,"stimulus":"img/750/equaldotanddens/L/1_Ratio_750_L_20_R_15.png","xmouse":[770,770,770,770,770,770,770,770,770,770,770,770,770,770,770,770,770,770,770,770,770,770,770,770,769,758,714,680,679,677,676,676,660,650,642,631,614,587,543,523],"ymouse":[591,591,591,591,591,591,591,591,591,591,591,591,591,591,591,591,591,591,591,591,591,591,591,591,589,582,581,581,579,563,506,441,285,230,200,175,150,120,89,75],"timestamp_mouse":[20,37,53,72,92,111,132,152,172,192,213,232,251,272,291,312,333,352,373,392,412,433,452,472,492,512,533,552,571,592,612,633,652,672,692,712,733,751,773,792],"xSR":741.5,"ySR":573.95,"xT1":424.9,"yT1":0,"xT2":1058.1,"yT2":0,"toosoon":0,"cond_shown":"equaldotanddens","ratio_trial":750,"smaller_num":"15","larger_num":"20","correct_side":1,"subjID":"ISABELLAMONTENEGRO39","gender":"1","age":"11","school":"6"},{"start_time":1551893451225,"click_time":1551893452228,"finger_time":1551893451629,"fix_duration":375.8965683681762,"trial":40,"RT":404,"MT":599,"sideResp":2,"stimulus":"img/500/equaldotsize/R/6_Ratio_500_L_9_R_18.png","xmouse":[804,804,804,804,804,804,804,804,804,804,804,804,804,804,804,804,804,805,814,828,868,888,907,924,941,971,983,993,1006,1016,1026,1057,1077,1095,1117,1139,1185,1195,1202,1204,1204,1204,1204,1204,1204,1204,1204,1202,1191,1175,1143],"ymouse":[610,610,610,610,610,610,610,610,610,610,610,610,610,610,610,610,610,610,603,585,513,469,411,349,287,205,177,155,123,100,76,10,0,0,0,0,0,0,1,1,1,1,1,1,1,1,1,10,29,53,90],"timestamp_mouse":[8,23,42,64,82,104,123,143,163,183,202,223,243,263,282,303,323,342,363,383,404,422,444,462,482,503,523,542,563,583,602,622,643,664,683,703,723,743,763,783,803,824,844,863,883,903,923,943,964,983,1003],"xSR":741.5,"ySR":573.95,"xT1":424.9,"yT1":0,"xT2":1058.1,"yT2":0,"toosoon":0,"cond_shown":"equaldotsize","ratio_trial":500,"smaller_num":"9","larger_num":"18","correct_side":2,"subjID":"ISABELLAMONTENEGRO39","gender":"1","age":"11","school":"6"},{"start_time":1551893453141,"click_time":1551893453727,"finger_time":1551893453509,"fix_duration":310.17406208734974,"trial":41,"RT":368,"MT":218,"sideResp":1,"stimulus":"img/500/equaldotsize/L/4_Ratio_500_L_18_R_9.png","xmouse":[798,798,798,798,798,798,798,798,798,798,798,798,798,798,797,795,790,780,757,685,648,607,587,575,565,553,549,543,534,524],"ymouse":[631,631,631,631,631,631,631,631,631,631,631,631,631,631,631,622,607,581,528,390,331,273,245,224,203,162,134,100,71,46],"timestamp_mouse":[11,37,47,66,88,107,126,147,167,187,208,227,246,268,287,306,327,347,368,387,406,428,447,466,487,508,528,548,567,586],"xSR":741.5,"ySR":573.95,"xT1":424.9,"yT1":0,"xT2":1058.1,"yT2":0,"toosoon":0,"cond_shown":"equaldotsize","ratio_trial":500,"smaller_num":"9","larger_num":"18","correct_side":1,"subjID":"ISABELLAMONTENEGRO39","gender":"1","age":"11","school":"6"},{"start_time":1551893456299,"click_time":1551893456888,"finger_time":1551893456748,"fix_duration":250,"trial":42,"RT":449,"MT":140,"sideResp":2,"stimulus":"img/500/randomdotsizeEA/R/9_Ratio_500_L_2_R_4.png","xmouse":[793,793,793,793,793,793,793,793,793,793,793,793,793,793,793,793,793,793,793,794,796,814,832,879,918,965,1064,1103,1128,1148],"ymouse":[617,617,617,617,617,617,617,617,617,617,617,617,617,617,617,617,617,617,617,615,610,574,548,482,432,366,227,160,103,60],"timestamp_mouse":[9,33,49,69,89,109,128,150,168,190,209,230,249,269,289,309,330,350,368,389,408,430,449,469,489,509,529,548,569,589],"xSR":741.5,"ySR":573.95,"xT1":424.9,"yT1":0,"xT2":1058.1,"yT2":0,"toosoon":0,"cond_shown":"randomdotsizeEA","ratio_trial":500,"smaller_num":"2","larger_num":"4","correct_side":2,"subjID":"ISABELLAMONTENEGRO39","gender":"1","age":"11","school":"6"},{"start_time":1551893458112,"click_time":1551893458828,"finger_time":1551893458487,"fix_duration":281.6536008841308,"trial":43,"RT":375,"MT":341,"sideResp":1,"stimulus":"img/900/equaldotsize/L/10_Ratio_900_L_20_R_18.png","xmouse":[771,771,771,771,771,771,771,771,771,771,771,771,771,771,771,771,769,763,752,735,691,670,642,615,585,554,519,510,505,501,489,485,479,477,474,461],"ymouse":[605,605,605,605,605,605,605,605,605,605,605,605,605,605,605,605,602,590,569,527,373,269,112,12,0,0,0,0,0,0,0,0,0,0,0,4],"timestamp_mouse":[32,37,55,76,97,115,137,156,176,196,217,237,256,277,296,316,337,356,375,396,416,435,456,476,496,516,537,556,576,596,618,636,656,676,696,716],"xSR":741.5,"ySR":573.95,"xT1":424.9,"yT1":0,"xT2":1058.1,"yT2":0,"toosoon":0,"cond_shown":"equaldotsize","ratio_trial":900,"smaller_num":"18","larger_num":"20","correct_side":1,"subjID":"ISABELLAMONTENEGRO39","gender":"1","age":"11","school":"6"},{"start_time":1551893460508,"click_time":1551893461029,"finger_time":1551893460807,"fix_duration":877.0087940856856,"trial":44,"RT":299,"MT":222,"sideResp":2,"stimulus":"img/750/equaldotsize/R/2_Ratio_750_L_6_R_8.png","xmouse":[773,773,773,773,773,773,773,773,773,773,773,773,776,780,800,815,860,890,920,956,987,1034,1045,1050,1056,1057,1059],"ymouse":[622,622,622,622,622,622,622,622,622,622,622,622,619,615,584,560,483,433,377,323,272,179,147,128,107,100,87],"timestamp_mouse":[8,19,39,60,80,99,120,139,160,180,200,219,241,259,280,299,320,340,360,379,400,420,439,459,480,499,521],"xSR":741.5,"ySR":573.95,"xT1":424.9,"yT1":0,"xT2":1058.1,"yT2":0,"toosoon":0,"cond_shown":"equaldotsize","ratio_trial":750,"smaller_num":"6","larger_num":"8","correct_side":2,"subjID":"ISABELLAMONTENEGRO39","gender":"1","age":"11","school":"6"},{"start_time":1551893462200,"click_time":1551893462947,"finger_time":1551893462507,"fix_duration":250,"trial":45,"RT":307,"MT":440,"sideResp":1,"stimulus":"img/250/equaldotsize/R/10_Ratio_250_L_4_R_16.png","xmouse":[770,770,770,770,770,771,771,771,771,771,771,771,771,770,760,740,711,642,620,616,616,618,621,621,621,621,621,621,621,621,621,614,604,590,576,561,533,521],"ymouse":[655,655,655,655,655,656,656,656,656,656,656,656,654,640,616,570,500,336,277,257,238,221,206,206,206,206,206,206,206,206,206,188,164,134,104,78,33,16],"timestamp_mouse":[9,27,48,69,88,108,128,148,168,188,208,228,248,268,289,307,328,348,368,387,407,428,448,467,488,509,528,549,567,588,609,628,648,668,688,709,728,747],"xSR":741.5,"ySR":573.95,"xT1":424.9,"yT1":0,"xT2":1058.1,"yT2":0,"toosoon":0,"cond_shown":"equaldotsize","ratio_trial":250,"smaller_num":"4","larger_num":"16","correct_side":2,"subjID":"ISABELLAMONTENEGRO39","gender":"1","age":"11","school":"6"},{"start_time":1551893464653,"click_time":1551893465728,"finger_time":1551893464868,"fix_duration":903.438091941667,"trial":46,"RT":215,"MT":860,"sideResp":2,"stimulus":"img/900/equaldotanddens/R/5_Ratio_900_L_9_R_10.png","xmouse":[779,779,779,779,779,779,779,779,779,780,785,792,803,830,842,860,874,890,905,928,939,951,962,969,986,988,991,996,1001,1013,1019,1024,1029,1035,1068,1102,1123,1139,1151,1152,1152,1153,1153,1153,1153,1152,1152,1151,1151,1150,1150,1150,1150,1150],"ymouse":[606,606,605,605,604,603,601,598,594,580,567,551,532,489,465,428,398,363,330,272,248,227,207,193,148,141,123,114,110,108,107,106,105,105,108,113,114,115,115,114,114,113,113,112,111,110,110,110,110,109,107,105,104,97],"timestamp_mouse":[29,36,55,74,94,115,136,156,175,195,215,235,256,276,294,315,335,354,375,395,415,435,455,475,496,515,534,555,576,595,615,635,656,674,695,715,735,755,775,795,815,835,856,876,894,916,936,955,975,994,1014,1035,1055,1075],"xSR":741.5,"ySR":573.95,"xT1":424.9,"yT1":0,"xT2":1058.1,"yT2":0,"toosoon":0,"cond_shown":"equaldotanddens","ratio_trial":900,"smaller_num":"9","larger_num":"10","correct_side":2,"subjID":"ISABELLAMONTENEGRO39","gender":"1","age":"11","school":"6"},{"start_time":1551893466779,"click_time":1551893467607,"finger_time":1551893467189,"fix_duration":250,"trial":47,"RT":410,"MT":418,"sideResp":1,"stimulus":"img/250/equaldotsize/L/2_Ratio_250_L_16_R_4.png","xmouse":[772,772,772,772,772,772,774,774,774,774,774,774,774,774,774,774,774,774,774,774,774,771,761,738,722,710,698,668,652,636,619,611,604,587,577,567,553,538,510,497,482,475],"ymouse":[625,624,624,624,624,624,624,624,624,624,624,624,624,624,624,624,624,624,607,587,551,526,501,452,425,403,382,344,329,318,305,298,287,258,242,229,213,195,155,134,102,86],"timestamp_mouse":[10,32,49,68,88,109,129,150,169,189,208,229,249,268,288,310,330,349,370,388,410,430,449,470,489,508,530,549,569,588,609,629,649,669,689,708,729,749,770,790,810,828],"xSR":741.5,"ySR":573.95,"xT1":424.9,"yT1":0,"xT2":1058.1,"yT2":0,"toosoon":0,"cond_shown":"equaldotsize","ratio_trial":250,"smaller_num":"4","larger_num":"16","correct_side":1,"subjID":"ISABELLAMONTENEGRO39","gender":"1","age":"11","school":"6"},{"start_time":1551893469423,"click_time":1551893469949,"finger_time":1551893469547,"fix_duration":731.40745462008,"trial":48,"RT":124,"MT":402,"sideResp":2,"stimulus":"img/750/equaldotanddens/L/6_Ratio_750_L_24_R_18.png","xmouse":[806,806,806,806,812,827,848,862,869,875,896,908,919,933,953,971,998,1015,1021,1028,1036,1041,1045,1051,1056,1058,1062],"ymouse":[628,628,628,628,620,602,572,552,544,537,506,488,468,448,421,396,353,315,292,264,204,175,150,129,113,104,93],"timestamp_mouse":[10,35,44,66,84,104,124,144,165,186,205,224,245,265,284,304,324,345,366,385,405,426,445,466,485,504,526],"xSR":741.5,"ySR":573.95,"xT1":424.9,"yT1":0,"xT2":1058.1,"yT2":0,"toosoon":0,"cond_shown":"equaldotanddens","ratio_trial":750,"smaller_num":"18","larger_num":"24","correct_side":1,"subjID":"ISABELLAMONTENEGRO39","gender":"1","age":"11","school":"6"},{"start_time":1551893472241,"click_time":1551893473008,"finger_time":1551893472568,"fix_duration":1411.9244100985916,"trial":49,"RT":327,"MT":440,"sideResp":1,"stimulus":"img/750/equaldotsize/R/11_Ratio_750_L_12_R_16.png","xmouse":[779,779,779,779,779,779,779,779,779,779,779,779,779,779,779,780,780,772,753,700,668,635,608,575,534,522,515,507,496,484,463,457,455,455,455,457,460,464,470],"ymouse":[600,600,600,600,600,600,600,600,600,600,600,600,600,600,600,599,566,531,486,409,375,344,313,276,230,213,196,178,154,141,127,124,122,122,117,112,109,103,93],"timestamp_mouse":[13,37,47,68,87,108,126,148,166,187,207,228,246,267,288,306,327,347,367,387,407,427,448,467,487,506,527,547,568,587,607,627,647,666,687,706,726,747,767],"xSR":741.5,"ySR":573.95,"xT1":424.9,"yT1":0,"xT2":1058.1,"yT2":0,"toosoon":0,"cond_shown":"equaldotsize","ratio_trial":750,"smaller_num":"12","larger_num":"16","correct_side":2,"subjID":"ISABELLAMONTENEGRO39","gender":"1","age":"11","school":"6"},{"start_time":1551893474199,"click_time":1551893474768,"finger_time":1551893474528,"fix_duration":250,"trial":50,"RT":329,"MT":240,"sideResp":2,"stimulus":"img/750/equaldotanddens/R/11_Ratio_750_L_12_R_16.png","xmouse":[805,805,805,805,805,805,805,805,805,802,797,788,787,787,787,790,830,874,891,935,957,998,1021,1037,1056,1070,1089,1090,1090],"ymouse":[632,632,632,633,633,633,633,633,633,627,619,602,599,595,588,579,524,461,436,382,357,311,287,266,245,219,160,125,79],"timestamp_mouse":[8,36,50,69,89,110,128,149,170,189,210,229,249,269,290,310,329,348,370,390,410,429,448,470,490,509,529,548,568],"xSR":741.5,"ySR":573.95,"xT1":424.9,"yT1":0,"xT2":1058.1,"yT2":0,"toosoon":0,"cond_shown":"equaldotanddens","ratio_trial":750,"smaller_num":"12","larger_num":"16","correct_side":2,"subjID":"ISABELLAMONTENEGRO39","gender":"1","age":"11","school":"6"},{"start_time":1551893481835,"click_time":1551893482809,"finger_time":1551893482349,"fix_duration":1406.7905451798244,"trial":51,"RT":514,"MT":460,"sideResp":2,"stimulus":"img/250/equaldotsize/R/12_Ratio_250_L_5_R_20.png","xmouse":[811,811,811,811,811,810,810,810,810,810,810,810,810,810,810,809,806,799,796,792,792,792,792,793,798,816,851,881,921,1034,1104,1170,1217,1249,1286,1297,1307,1312,1313,1315,1314,1311,1306,1295,1245,1214,1180,1162,1152],"ymouse":[627,627,627,627,627,627,627,627,627,627,627,627,627,627,627,627,628,630,630,630,630,630,626,624,614,573,510,464,406,277,217,167,131,105,66,50,29,15,9,0,0,0,0,0,0,0,8,13,16],"timestamp_mouse":[19,42,53,72,93,113,133,154,173,193,214,233,253,273,293,314,332,353,374,393,413,433,453,473,493,514,533,554,572,593,613,633,653,672,693,713,733,753,774,793,814,834,853,873,893,913,933,953,974],"xSR":741.5,"ySR":573.95,"xT1":424.9,"yT1":0,"xT2":1058.1,"yT2":0,"toosoon":0,"cond_shown":"equaldotsize","ratio_trial":250,"smaller_num":"5","larger_num":"20","correct_side":2,"subjID":"ISABELLAMONTENEGRO39","gender":"1","age":"11","school":"6"},{"start_time":1551893483940,"click_time":1551893484788,"finger_time":1551893484388,"fix_duration":250,"trial":52,"RT":448,"MT":400,"sideResp":1,"stimulus":"img/250/randomdotsizeEA/R/10_Ratio_250_L_4_R_16.png","xmouse":[773,773,773,773,773,773,773,773,773,773,773,773,773,773,773,773,773,773,773,773,772,773,775,775,773,741,711,678,652,634,607,598,594,591,577,569,562,556,551,543,537,526,514],"ymouse":[627,627,627,627,627,627,627,627,627,627,627,627,627,627,627,627,627,627,627,627,618,607,563,522,461,322,259,208,172,147,115,102,94,88,73,68,63,61,59,58,57,57,55],"timestamp_mouse":[10,35,47,68,87,107,129,149,168,187,208,227,248,268,288,309,327,348,369,388,408,429,448,469,488,508,528,549,567,588,608,628,649,667,688,707,729,748,768,788,807,828,848],"xSR":741.5,"ySR":573.95,"xT1":424.9,"yT1":0,"xT2":1058.1,"yT2":0,"toosoon":0,"cond_shown":"randomdotsizeEA","ratio_trial":250,"smaller_num":"4","larger_num":"16","correct_side":2,"subjID":"ISABELLAMONTENEGRO39","gender":"1","age":"11","school":"6"},{"start_time":1551893489104,"click_time":1551893489969,"finger_time":1551893489551,"fix_duration":874.2381971745806,"trial":53,"RT":447,"MT":418,"sideResp":2,"stimulus":"img/750/randomdotsizeEA/L/10_Ratio_750_L_4_R_3.png","xmouse":[788,788,788,788,788,788,788,788,788,788,788,788,788,788,788,788,788,788,788,791,796,812,870,935,977,1006,1034,1088,1114,1135,1149,1164,1169,1173,1176,1177,1179,1179,1179,1179,1179,1178,1175,1158],"ymouse":[614,614,614,614,614,614,614,614,614,614,614,614,614,614,614,614,614,614,614,610,605,591,527,439,381,343,316,267,237,209,183,139,120,102,80,69,52,46,41,37,35,34,33,32],"timestamp_mouse":[22,41,45,66,86,106,125,145,166,185,205,225,245,265,286,305,325,345,365,386,406,425,447,466,486,505,525,546,565,585,606,625,646,665,685,706,725,746,765,785,806,825,845,865],"xSR":741.5,"ySR":573.95,"xT1":424.9,"yT1":0,"xT2":1058.1,"yT2":0,"toosoon":0,"cond_shown":"randomdotsizeEA","ratio_trial":750,"smaller_num":"3","larger_num":"4","correct_side":1,"subjID":"ISABELLAMONTENEGRO39","gender":"1","age":"11","school":"6"},{"start_time":1551893491880,"click_time":1551893492329,"finger_time":1551893492249,"fix_duration":1129.4288154183832,"trial":54,"RT":369,"MT":80,"sideResp":1,"stimulus":"img/500/equaldotanddens/L/10_Ratio_500_L_4_R_2.png","xmouse":[776,776,776,776,776,776,776,776,776,776,776,776,776,776,776,776,776,769,715,677,639,596,509],"ymouse":[625,625,625,625,625,625,625,625,625,625,625,625,625,625,625,625,624,603,479,393,299,222,99],"timestamp_mouse":[10,30,49,69,89,109,130,151,169,190,209,229,250,269,289,309,330,349,369,389,410,431,449],"xSR":741.5,"ySR":573.95,"xT1":424.9,"yT1":0,"xT2":1058.1,"yT2":0,"toosoon":0,"cond_shown":"equaldotanddens","ratio_trial":500,"smaller_num":"2","larger_num":"4","correct_side":1,"subjID":"ISABELLAMONTENEGRO39","gender":"1","age":"11","school":"6"},{"start_time":1551893494139,"click_time":1551893495110,"finger_time":1551893494730,"fix_duration":829.3499074629912,"trial":55,"RT":591,"MT":380,"sideResp":1,"stimulus":"img/750/equaldotanddens/L/14_Ratio_750_L_8_R_6.png","xmouse":[768,768,768,768,768,768,768,768,768,768,768,768,768,768,768,768,768,768,768,768,768,768,768,768,768,770,774,776,777,777,777,777,777,772,738,725,707,696,686,656,646,639,630,617,605,574,555,534,515],"ymouse":[611,611,611,611,611,611,611,611,611,611,611,611,611,611,611,611,611,611,611,611,611,611,611,611,611,609,598,588,575,557,545,512,477,423,273,191,131,106,86,45,31,22,12,6,4,4,4,4,4],"timestamp_mouse":[10,32,55,70,91,110,130,151,171,190,210,231,250,270,291,310,330,350,370,390,411,430,450,470,491,511,530,551,570,591,610,630,650,671,691,710,730,751,770,790,810,830,850,870,890,910,930,951,971],"xSR":741.5,"ySR":573.95,"xT1":424.9,"yT1":0,"xT2":1058.1,"yT2":0,"toosoon":0,"cond_shown":"equaldotanddens","ratio_trial":750,"smaller_num":"6","larger_num":"8","correct_side":1,"subjID":"ISABELLAMONTENEGRO39","gender":"1","age":"11","school":"6"},{"start_time":1551893496965,"click_time":1551893497770,"finger_time":1551893497430,"fix_duration":915.9296423442655,"trial":56,"RT":465,"MT":340,"sideResp":1,"stimulus":"img/500/randomdotsizeEA/L/10_Ratio_500_L_4_R_2.png","xmouse":[786,786,786,786,786,786,786,786,786,786,786,786,786,786,786,786,786,786,786,786,789,797,803,809,817,821,823,824,824,824,824,824,824,824,821,814,806,791,698,611,502],"ymouse":[627,627,627,627,627,627,627,627,627,627,627,627,627,627,627,627,627,627,627,626,613,598,576,555,524,511,500,492,485,485,485,485,485,484,482,474,457,425,280,183,81],"timestamp_mouse":[10,31,45,64,84,104,125,145,164,184,204,225,244,264,285,304,324,346,365,384,405,425,444,465,484,504,524,545,564,584,605,624,644,665,685,705,725,744,764,784,805],"xSR":741.5,"ySR":573.95,"xT1":424.9,"yT1":0,"xT2":1058.1,"yT2":0,"toosoon":0,"cond_shown":"randomdotsizeEA","ratio_trial":500,"smaller_num":"2","larger_num":"4","correct_side":1,"subjID":"ISABELLAMONTENEGRO39","gender":"1","age":"11","school":"6"},{"start_time":1551893500793,"click_time":1551893501749,"finger_time":1551893501329,"fix_duration":302.73222253525034,"trial":57,"RT":536,"MT":420,"sideResp":1,"stimulus":"img/900/equaldotanddens/L/2_Ratio_900_L_20_R_18.png","xmouse":[794,794,794,794,794,794,793,793,793,792,791,790,790,790,790,790,790,790,790,790,790,790,790,788,785,779,752,728,686,660,645,615,602,586,573,556,538,505,495,491,491,491,491,491,491,490,487,475],"ymouse":[597,597,597,597,597,597,598,600,601,603,604,607,607,607,607,607,607,607,607,607,607,607,607,602,596,580,517,458,357,291,234,174,159,148,138,132,128,122,121,121,121,121,121,121,120,119,112,90],"timestamp_mouse":[19,36,57,76,97,116,136,156,177,197,216,237,258,276,297,317,337,356,376,396,416,436,456,476,497,517,536,556,576,597,616,636,656,676,697,716,736,756,777,796,817,836,857,876,897,917,936,956],"xSR":741.5,"ySR":573.95,"xT1":424.9,"yT1":0,"xT2":1058.1,"yT2":0,"toosoon":0,"cond_shown":"equaldotanddens","ratio_trial":900,"smaller_num":"18","larger_num":"20","correct_side":1,"subjID":"ISABELLAMONTENEGRO39","gender":"1","age":"11","school":"6"},{"start_time":1551893506391,"click_time":1551893507789,"finger_time":1551893507549,"fix_duration":1100.8596227722308,"trial":58,"RT":1158,"MT":240,"sideResp":2,"stimulus":"img/500/randomdotsizeEA/R/15_Ratio_500_L_1_R_2.png","xmouse":[799,799,799,799,799,799,799,799,799,799,799,799,799,799,799,799,799,799,799,799,799,799,799,799,799,799,799,799,799,799,799,799,799,799,799,799,799,799,799,799,799,799,799,799,799,799,799,799,799,799,799,799,799,799,799,804,806,816,844,887,898,929,950,970,982,993,1004,1010,1021,1060],"ymouse":[612,612,612,612,612,612,612,612,612,612,612,612,612,612,612,612,612,612,612,612,612,612,612,612,612,612,612,612,612,612,612,612,612,612,612,612,612,612,612,612,612,612,612,612,612,612,612,612,612,612,612,612,612,612,612,600,590,538,458,353,305,220,188,165,149,132,102,88,76,66],"timestamp_mouse":[18,39,58,79,98,119,139,158,179,200,218,238,259,280,299,319,338,358,378,399,420,440,458,478,498,518,538,558,578,598,619,639,658,678,699,718,738,759,778,800,818,838,860,879,899,918,939,959,978,998,1019,1039,1058,1078,1099,1119,1138,1158,1179,1199,1218,1238,1258,1278,1298,1318,1338,1358,1379,1398],"xSR":741.5,"ySR":573.95,"xT1":424.9,"yT1":0,"xT2":1058.1,"yT2":0,"toosoon":0,"cond_shown":"randomdotsizeEA","ratio_trial":500,"smaller_num":"1","larger_num":"2","correct_side":2,"subjID":"ISABELLAMONTENEGRO39","gender":"1","age":"11","school":"6"},{"start_time":1551893509510,"click_time":1551893510490,"finger_time":1551893509929,"fix_duration":658.4840077219949,"trial":59,"RT":419,"MT":561,"sideResp":1,"stimulus":"img/900/randomdotsizeEA/L/2_Ratio_900_L_20_R_18.png","xmouse":[777,777,777,777,777,777,777,777,777,777,777,777,777,777,777,777,777,777,777,775,774,766,740,708,693,648,626,591,577,565,553,540,534,529,526,525,524,524,524,527,530,530,530,528,523,505,492,469,462,457],"ymouse":[594,594,594,594,594,594,594,594,594,594,594,594,594,594,594,594,594,594,594,590,583,565,529,495,481,433,405,359,343,331,319,307,300,294,286,283,281,279,273,265,257,246,241,230,213,181,158,125,111,95],"timestamp_mouse":[1,35,39,59,80,100,119,141,160,181,200,220,240,259,280,300,319,339,359,379,400,419,440,460,479,499,519,540,559,580,599,619,639,659,679,699,719,739,759,780,799,819,839,860,879,900,920,939,960,980],"xSR":741.5,"ySR":573.95,"xT1":424.9,"yT1":0,"xT2":1058.1,"yT2":0,"toosoon":0,"cond_shown":"randomdotsizeEA","ratio_trial":900,"smaller_num":"18","larger_num":"20","correct_side":1,"subjID":"ISABELLAMONTENEGRO39","gender":"1","age":"11","school":"6"},{"start_time":1551893512105,"click_time":1551893513189,"finger_time":1551893512730,"fix_duration":853.9492522172542,"trial":60,"RT":625,"MT":459,"sideResp":1,"stimulus":"img/900/equaldotsize/L/1_Ratio_900_L_10_R_9.png","xmouse":[772,772,772,772,772,772,772,772,772,772,772,772,772,772,772,772,772,772,772,772,772,772,772,772,772,772,772,772,772,772,770,749,732,714,682,659,619,604,593,584,575,556,548,541,534,531,526,523,523,524,526,529,529,529,519],"ymouse":[628,628,628,628,628,628,628,628,628,628,628,628,628,628,628,628,628,628,628,628,628,628,628,628,628,628,628,628,628,617,608,562,537,511,469,440,394,374,359,347,335,307,296,286,269,254,239,210,195,182,167,135,119,107,90],"timestamp_mouse":[11,32,45,65,86,104,124,145,164,185,205,224,244,266,284,305,324,345,364,384,404,424,444,464,484,505,524,544,564,584,604,625,644,664,684,705,724,744,764,785,805,824,844,865,884,904,925,945,965,985,1005,1025,1044,1065,1084],"xSR":741.5,"ySR":573.95,"xT1":424.9,"yT1":0,"xT2":1058.1,"yT2":0,"toosoon":0,"cond_shown":"equaldotsize","ratio_trial":900,"smaller_num":"9","larger_num":"10","correct_side":1,"subjID":"ISABELLAMONTENEGRO39","gender":"1","age":"11","school":"6"},{"start_time":1551893514911,"click_time":1551893516090,"finger_time":1551893515709,"fix_duration":698.2665520403403,"trial":61,"RT":798,"MT":381,"sideResp":2,"stimulus":"img/250/randomdotsizeEA/R/12_Ratio_250_L_5_R_20.png","xmouse":[804,804,804,804,804,804,804,804,804,804,804,804,804,804,804,804,804,804,804,804,804,804,804,804,804,804,804,806,806,806,806,806,806,806,807,809,815,821,828,837,850,884,901,923,933,941,950,974,988,1004,1019,1045,1055,1063,1074,1092,1119,1134,1145,1153],"ymouse":[651,651,651,651,651,651,651,651,651,651,651,651,651,651,651,651,651,651,651,651,651,651,651,651,651,651,648,644,644,644,644,644,644,644,643,639,624,616,607,598,589,565,552,536,527,515,502,475,459,439,420,378,355,327,296,238,167,129,100,76],"timestamp_mouse":[1,18,38,58,78,99,118,139,158,179,198,218,240,259,279,299,318,339,358,379,398,419,439,458,480,498,518,538,559,579,598,618,638,659,678,699,718,739,759,778,798,818,838,858,878,899,918,938,958,978,999,1019,1038,1059,1078,1098,1118,1138,1158,1179],"xSR":741.5,"ySR":573.95,"xT1":424.9,"yT1":0,"xT2":1058.1,"yT2":0,"toosoon":0,"cond_shown":"randomdotsizeEA","ratio_trial":250,"smaller_num":"5","larger_num":"20","correct_side":2,"subjID":"ISABELLAMONTENEGRO39","gender":"1","age":"11","school":"6"},{"start_time":1551893518613,"click_time":1551893519609,"finger_time":1551893519189,"fix_duration":1461.300753022566,"trial":62,"RT":576,"MT":420,"sideResp":1,"stimulus":"img/500/equaldotanddens/L/10_Ratio_500_L_4_R_2.png","xmouse":[810,810,810,810,810,810,810,810,810,810,810,810,810,810,810,810,810,810,810,810,810,810,810,810,810,810,800,792,744,682,522,444,390,355,337,325,322,321,321,320,320,320,320,320,321,335,353,375,409,428],"ymouse":[629,629,629,629,629,629,629,629,629,629,629,629,629,629,629,629,629,629,629,629,629,629,629,629,629,629,602,588,486,394,201,117,48,0,0,0,0,0,0,0,0,0,0,0,0,0,4,11,24,32],"timestamp_mouse":[30,36,56,77,96,116,138,156,176,197,216,236,256,276,296,317,336,356,376,396,416,436,457,476,496,517,537,556,576,597,616,637,656,676,697,717,736,757,776,796,816,837,857,876,896,916,936,957,976,996],"xSR":741.5,"ySR":573.95,"xT1":424.9,"yT1":0,"xT2":1058.1,"yT2":0,"toosoon":0,"cond_shown":"equaldotanddens","ratio_trial":500,"smaller_num":"2","larger_num":"4","correct_side":1,"subjID":"ISABELLAMONTENEGRO39","gender":"1","age":"11","school":"6"},{"start_time":1551893520821,"click_time":1551893521729,"finger_time":1551893521549,"fix_duration":250,"trial":63,"RT":728,"MT":180,"sideResp":2,"stimulus":"img/250/equaldotanddens/R/13_Ratio_250_L_2_R_8.png","xmouse":[826,826,826,826,826,826,826,826,826,826,826,826,826,826,826,826,826,826,826,826,826,826,826,826,826,826,826,823,817,813,813,813,812,812,817,840,866,922,963,1006,1079,1109,1128,1136,1141,1147],"ymouse":[638,638,638,638,638,638,638,638,638,638,638,638,638,638,638,638,638,638,638,638,638,638,638,638,638,638,638,638,638,637,637,637,637,634,627,592,556,477,422,359,241,185,147,121,100,67],"timestamp_mouse":[9,40,48,68,88,108,129,148,168,188,208,229,248,269,289,309,329,349,370,388,408,429,449,468,488,508,528,548,569,588,609,628,648,669,688,708,728,749,768,789,808,828,848,869,888,908],"xSR":741.5,"ySR":573.95,"xT1":424.9,"yT1":0,"xT2":1058.1,"yT2":0,"toosoon":0,"cond_shown":"equaldotanddens","ratio_trial":250,"smaller_num":"2","larger_num":"8","correct_side":2,"subjID":"ISABELLAMONTENEGRO39","gender":"1","age":"11","school":"6"},{"start_time":1551893523309,"click_time":1551893524310,"finger_time":1551893523749,"fix_duration":499.60946931257,"trial":64,"RT":440,"MT":561,"sideResp":1,"stimulus":"img/750/equaldotanddens/L/13_Ratio_750_L_8_R_6.png","xmouse":[788,788,788,788,788,788,788,788,788,788,788,788,788,788,788,788,788,788,788,788,787,767,740,730,698,683,668,655,650,644,636,628,609,597,590,583,577,575,574,570,565,558,552,551,548,547,539,536,531,525,518],"ymouse":[597,597,597,597,597,597,597,597,597,597,597,597,597,597,597,597,597,597,597,597,597,580,543,529,485,462,441,412,394,374,348,322,275,248,229,212,187,173,162,148,133,106,94,91,85,80,69,65,60,56,53],"timestamp_mouse":[8,20,41,60,81,100,120,141,161,180,201,220,241,260,280,301,320,340,360,380,400,420,440,460,481,501,520,540,561,581,600,620,640,661,680,701,720,740,760,780,800,820,840,860,880,900,920,940,960,982,1001],"xSR":741.5,"ySR":573.95,"xT1":424.9,"yT1":0,"xT2":1058.1,"yT2":0,"toosoon":0,"cond_shown":"equaldotanddens","ratio_trial":750,"smaller_num":"6","larger_num":"8","correct_side":1,"subjID":"ISABELLAMONTENEGRO39","gender":"1","age":"11","school":"6"},{"start_time":1551893525953,"click_time":1551893526889,"finger_time":1551893526449,"fix_duration":662.5269288469673,"trial":65,"RT":496,"MT":440,"sideResp":1,"stimulus":"img/250/equaldotsize/L/1_Ratio_250_L_8_R_2.png","xmouse":[775,775,775,775,775,775,775,775,775,775,775,775,775,775,775,775,775,775,775,775,775,775,774,753,738,721,695,676,664,647,638,632,626,616,613,609,604,601,589,581,561,545,529,509,474,452,433],"ymouse":[622,622,622,622,622,622,622,622,622,622,622,622,622,622,622,622,622,622,622,622,622,622,622,575,540,502,457,425,403,363,337,323,308,279,267,250,236,223,191,175,152,140,129,118,106,100,94],"timestamp_mouse":[17,42,56,76,97,117,136,157,177,198,216,236,256,278,296,316,336,358,378,396,418,436,456,476,496,516,536,556,576,596,617,636,657,676,696,716,736,757,776,796,817,836,856,876,897,916,936],"xSR":741.5,"ySR":573.95,"xT1":424.9,"yT1":0,"xT2":1058.1,"yT2":0,"toosoon":0,"cond_shown":"equaldotsize","ratio_trial":250,"smaller_num":"2","larger_num":"8","correct_side":1,"subjID":"ISABELLAMONTENEGRO39","gender":"1","age":"11","school":"6"},{"start_time":1551893528649,"click_time":1551893529570,"finger_time":1551893529269,"fix_duration":917.2263840636921,"trial":66,"RT":620,"MT":301,"sideResp":2,"stimulus":"img/750/equaldotanddens/R/12_Ratio_750_L_3_R_4.png","xmouse":[803,803,803,803,803,803,803,803,803,803,803,803,803,803,803,803,803,803,803,803,803,803,803,803,803,803,803,803,803,813,834,865,910,970,1083,1147,1164,1185,1190,1198,1199,1199,1199,1195,1178,1168,1149],"ymouse":[654,654,654,654,654,654,654,654,654,654,654,654,654,654,654,654,654,654,654,654,654,654,654,654,654,654,654,654,654,651,629,596,540,463,331,257,237,208,196,164,150,134,115,97,63,51,39],"timestamp_mouse":[8,30,41,61,81,100,121,141,160,180,200,221,241,261,280,301,320,340,360,380,401,420,441,461,481,500,521,540,561,580,601,620,640,662,681,700,720,741,761,780,802,820,841,861,880,900,921],"xSR":741.5,"ySR":573.95,"xT1":424.9,"yT1":0,"xT2":1058.1,"yT2":0,"toosoon":0,"cond_shown":"equaldotanddens","ratio_trial":750,"smaller_num":"3","larger_num":"4","correct_side":2,"subjID":"ISABELLAMONTENEGRO39","gender":"1","age":"11","school":"6"},{"start_time":1551893533000,"click_time":1551893534850,"finger_time":1551893533991,"fix_duration":1109.6099576516522,"trial":67,"RT":991,"MT":859,"sideResp":2,"stimulus":"img/900/equaldotsize/R/5_Ratio_900_L_9_R_10.png","xmouse":[792,792,792,792,792,792,792,792,792,792,792,792,792,792,792,792,792,792,792,792,792,792,792,792,792,792,792,792,792,792,792,792,792,792,792,792,792,792,792,792,792,792,792,792,792,792,792,803,827,879,909,964,982,1000,1021,1037,1043,1043,1043,1043,1040,1026,1019,1014,1013,1012,1012,1016,1022,1034,1048,1063,1090,1101,1106,1109,1109,1112,1116,1126,1130,1133,1133,1133,1133,1133,1133,1133,1133,1133,1133,1133,1133],"ymouse":[621,621,621,621,621,621,621,621,621,621,621,621,621,621,621,621,621,621,621,621,621,621,621,621,621,621,621,621,621,621,621,621,621,621,621,621,621,621,621,621,621,621,621,621,621,621,621,613,586,545,523,486,468,433,377,307,231,208,188,158,136,84,61,42,31,21,11,5,1,0,0,0,0,0,0,0,0,0,0,0,0,0,0,0,0,0,0,0,0,0,0,0,1],"timestamp_mouse":[10,33,49,69,89,109,130,149,169,190,209,229,249,270,290,311,330,349,371,390,409,429,449,469,489,510,529,551,569,589,609,629,649,670,689,710,729,749,769,789,809,830,849,870,889,911,930,950,971,991,1010,1029,1049,1069,1090,1109,1129,1149,1169,1189,1210,1229,1251,1270,1290,1311,1329,1349,1369,1389,1409,1429,1450,1469,1489,1509,1529,1549,1569,1591,1610,1629,1650,1670,1689,1710,1729,1750,1770,1789,1809,1829,1850],"xSR":741.5,"ySR":573.95,"xT1":424.9,"yT1":0,"xT2":1058.1,"yT2":0,"toosoon":0,"cond_shown":"equaldotsize","ratio_trial":900,"smaller_num":"9","larger_num":"10","correct_side":2,"subjID":"ISABELLAMONTENEGRO39","gender":"1","age":"11","school":"6"},{"start_time":1551893537556,"click_time":1551893538590,"finger_time":1551893538050,"fix_duration":1424.3189320440194,"trial":68,"RT":494,"MT":540,"sideResp":1,"stimulus":"img/750/equaldotsize/R/2_Ratio_750_L_6_R_8.png","xmouse":[773,773,773,773,773,773,773,773,773,773,773,773,773,773,773,773,773,773,773,773,773,773,773,772,774,778,780,780,776,772,762,753,737,718,656,633,614,597,572,559,553,533,518,494,487,485,485,488,491,491,490,487],"ymouse":[603,603,603,603,603,603,603,603,603,603,603,603,603,603,603,603,603,603,603,603,603,603,603,601,567,519,491,471,453,443,431,423,414,405,378,366,353,340,323,310,305,286,273,238,219,202,184,167,137,124,107,99],"timestamp_mouse":[13,36,54,73,93,113,134,155,173,193,214,233,253,273,293,313,333,353,374,393,414,433,454,474,494,513,533,554,573,594,613,633,654,673,694,713,733,754,773,793,813,834,853,873,893,913,933,953,974,993,1014,1033],"xSR":741.5,"ySR":573.95,"xT1":424.9,"yT1":0,"xT2":1058.1,"yT2":0,"toosoon":0,"cond_shown":"equaldotsize","ratio_trial":750,"smaller_num":"6","larger_num":"8","correct_side":2,"subjID":"ISABELLAMONTENEGRO39","gender":"1","age":"11","school":"6"},{"start_time":1551893540400,"click_time":1551893541429,"finger_time":1551893540829,"fix_duration":608.9181594909998,"trial":69,"RT":429,"MT":600,"sideResp":2,"stimulus":"img/250/equaldotsize/R/8_Ratio_250_L_1_R_4.png","xmouse":[767,767,767,767,767,767,767,767,767,767,767,767,767,767,767,767,767,767,767,767,767,778,784,792,803,814,839,849,857,865,870,880,887,896,911,928,1001,1052,1098,1159,1192,1208,1209,1211,1211,1211,1211,1211,1209,1195,1177,1157],"ymouse":[608,608,608,608,608,608,608,608,608,608,608,608,608,608,608,608,608,608,608,608,606,566,544,525,499,465,423,411,400,388,380,363,352,340,320,297,235,200,170,125,95,74,68,63,59,56,52,52,49,38,27,20],"timestamp_mouse":[11,33,50,69,90,110,129,149,169,189,210,229,249,270,289,310,329,349,370,390,409,429,449,470,490,511,530,549,569,590,609,629,649,669,689,709,729,749,769,789,809,829,849,869,890,910,929,949,970,990,1010,1029],"xSR":741.5,"ySR":573.95,"xT1":424.9,"yT1":0,"xT2":1058.1,"yT2":0,"toosoon":0,"cond_shown":"equaldotsize","ratio_trial":250,"smaller_num":"1","larger_num":"4","correct_side":2,"subjID":"ISABELLAMONTENEGRO39","gender":"1","age":"11","school":"6"},{"start_time":1551893542598,"click_time":1551893543349,"finger_time":1551893543149,"fix_duration":347.2462331838561,"trial":70,"RT":551,"MT":200,"sideResp":1,"stimulus":"img/250/randomdotsizeEA/L/5_Ratio_250_L_24_R_6.png","xmouse":[810,809,809,809,809,809,809,809,809,809,809,809,809,809,809,809,809,809,809,808,808,808,808,808,806,804,801,797,779,748,713,645,618,594,577,561,517,498],"ymouse":[622,622,622,622,622,622,622,622,622,622,622,622,622,622,622,622,622,622,622,620,610,604,596,594,591,588,581,570,538,496,447,341,294,247,209,176,111,91],"timestamp_mouse":[13,35,51,72,92,112,132,152,172,191,212,231,252,272,291,311,332,351,371,392,411,431,452,472,491,512,532,551,571,591,612,631,651,672,691,711,731,751],"xSR":741.5,"ySR":573.95,"xT1":424.9,"yT1":0,"xT2":1058.1,"yT2":0,"toosoon":0,"cond_shown":"randomdotsizeEA","ratio_trial":250,"smaller_num":"6","larger_num":"24","correct_side":1,"subjID":"ISABELLAMONTENEGRO39","gender":"1","age":"11","school":"6"},{"start_time":1551893546794,"click_time":1551893547470,"finger_time":1551893547250,"fix_duration":1144.2438773747494,"trial":71,"RT":456,"MT":220,"sideResp":2,"stimulus":"img/900/equaldotanddens/R/13_Ratio_900_L_18_R_20.png","xmouse":[783,783,783,783,783,783,783,783,783,783,783,783,783,783,783,783,783,783,783,784,792,810,870,914,950,975,996,1044,1067,1091,1106,1115,1132,1138],"ymouse":[619,619,619,619,619,619,619,619,619,619,619,619,619,619,619,619,619,619,619,615,599,575,476,415,368,330,293,217,186,155,136,125,104,96],"timestamp_mouse":[15,39,56,76,95,116,137,155,176,195,217,236,256,275,296,315,337,355,375,395,416,435,456,476,496,517,536,557,577,596,615,635,656,676],"xSR":741.5,"ySR":573.95,"xT1":424.9,"yT1":0,"xT2":1058.1,"yT2":0,"toosoon":0,"cond_shown":"equaldotanddens","ratio_trial":900,"smaller_num":"18","larger_num":"20","correct_side":2,"subjID":"ISABELLAMONTENEGRO39","gender":"1","age":"11","school":"6"},{"start_time":1551893549719,"click_time":1551893550529,"finger_time":1551893550090,"fix_duration":1488.7592776617184,"trial":72,"RT":371,"MT":439,"sideResp":1,"stimulus":"img/250/randomdotsizeEA/L/5_Ratio_250_L_24_R_6.png","xmouse":[779,779,779,779,779,779,779,779,779,779,779,779,779,779,779,780,783,783,783,783,758,740,724,700,689,679,661,647,627,596,569,518,498,483,473,472,471,470,469,469,472],"ymouse":[633,633,633,633,633,633,633,633,633,633,633,633,633,633,633,631,609,579,530,464,364,339,322,301,290,277,258,244,226,203,186,164,157,152,147,14