[{"start_time":1551900313871,"click_time":1551900316052,"finger_time":1551900315472,"fix_duration":635.8447236585708,"trial":0,"RT":1601,"MT":580,"sideResp":2,"stimulus":"img/500/randomdotsizeEA/R/15_Ratio_500_L_1_R_2.png","xmouse":[793,793,793,793,793,793,793,793,793,793,793,793,793,793,793,793,793,793,793,793,793,793,793,793,793,793,793,793,793,793,793,793,793,793,793,793,793,793,793,793,793,793,793,793,793,793,793,793,793,793,793,793,793,793,793,793,793,793,793,793,793,793,793,793,793,793,793,793,793,793,793,793,793,793,793,793,793,799,812,823,853,894,911,928,941,952,965,972,979,986,995,1002,1004,1006,1008,1011,1028,1039,1045,1046,1048,1051,1056,1063,1069,1072,1073,1074,1077,1080],"ymouse":[538,538,538,538,538,538,538,538,538,538,538,538,538,538,538,538,538,538,538,538,538,538,538,538,538,538,538,538,538,538,538,538,538,538,538,538,538,538,538,538,538,538,538,538,538,538,538,538,538,538,538,538,538,538,538,538,538,538,538,538,538,538,538,538,538,538,538,538,538,538,538,538,538,538,538,538,538,533,515,489,434,375,355,337,326,316,301,290,282,271,251,224,218,214,208,200,172,155,143,142,138,134,128,120,112,109,107,105,102,98],"timestamp_mouse":[10,39,40,60,81,100,121,141,160,180,201,220,240,261,281,300,320,341,362,381,400,420,441,460,480,502,522,542,562,581,601,620,642,661,680,700,720,741,760,781,802,821,841,861,881,900,922,940,960,981,1000,1021,1042,1061,1081,1101,1120,1140,1160,1181,1201,1221,1242,1262,1282,1301,1321,1342,1361,1380,1400,1420,1442,1461,1482,1501,1520,1541,1560,1581,1601,1621,1641,1660,1681,1701,1720,1740,1760,1781,1801,1820,1841,1861,1881,1901,1920,1940,1960,1980,2000,2020,2040,2062,2080,2100,2121,2142,2161,2181],"xSR":741.5,"ySR":500.5,"xT1":424.9,"yT1":0,"xT2":1058.1,"yT2":0,"toosoon":0,"cond_shown":"randomdotsizeEA","ratio_trial":500,"smaller_num":"1","larger_num":"2","correct_side":2,"subjID":"isabellamurillourrea28","gender":"1","age":"11","school":"6","test":{"fix_dur":[250,1500],"timestim":300,"targets_dim":[100,100],"targets_relative_coord":[0.3,0.7],"size_stim":[880,420],"start_dim":[100,100],"size_start":[300,300],"size_fix":60,"samplingrate":20,"img_types":["equaldotsize","equaldotanddens","randomdotsizeEA"],"ratios":[250,500,750,900],"rep_conds":9,"nTrials":120,"trials_to_rest":500,"Trials_order":[29,98,84,116,92,61,75,90,37,40,103,39,59,62,73,76,102,118,19,105,54,70,66,6,63,64,109,49,110,52,78,83,82,93,17,48,9,101,67,2,97,57,18,113,51,81,86,104,99,106,44,91,47,100,50,114,119,20,88,22,55,38,23,12,4,3,7,5,32,107,24,27,43,77,89,14,36,28,30,112,85,31,21,35,46,15,41,16,42,26,68,34,71,0,10,45,74,53,80,96,56,95,117,60,72,11,13,1,69,25,33,8,65,94,58,108,111,87,79,115],"cond_shown":["randomdotsizeEA","randomdotsizeEA","equaldotsize","randomdotsizeEA","randomdotsizeEA","equaldotanddens","equaldotsize","equaldotsize","equaldotanddens","equaldotanddens","equaldotanddens","equaldotsize","randomdotsizeEA","randomdotsizeEA","equaldotanddens","equaldotanddens","equaldotsize","equaldotanddens","equaldotanddens","equaldotsize","equaldotsize","equaldotanddens","equaldotsize","equaldotsize","equaldotsize","equaldotanddens","equaldotanddens","equaldotanddens","randomdotsizeEA","equaldotanddens","equaldotsize","randomdotsizeEA","equaldotanddens","equaldotsize","randomdotsizeEA","equaldotsize","equaldotsize","randomdotsizeEA","equaldotanddens","randomdotsizeEA","equaldotanddens","equaldotsize","equaldotsize","randomdotsizeEA","equaldotsize","equaldotsize","randomdotsizeEA","randomdotsizeEA","equaldotsize","equaldotanddens","randomdotsizeEA","equaldotanddens","randomdotsizeEA","equaldotanddens","randomdotsizeEA","equaldotsize","randomdotsizeEA","randomdotsizeEA","equaldotanddens","equaldotanddens","equaldotanddens","randomdotsizeEA","randomdotsizeEA","equaldotsize","equaldotanddens","equaldotsize","equaldotanddens","randomdotsizeEA","randomdotsizeEA","randomdotsizeEA","equaldotsize","equaldotsize","equaldotanddens","randomdotsizeEA","randomdotsizeEA","randomdotsizeEA","equaldotsize","equaldotanddens","equaldotsize","equaldotanddens","equaldotanddens","equaldotanddens","equaldotsize","randomdotsizeEA","equaldotanddens","equaldotsize","randomdotsizeEA","equaldotanddens","equaldotsize","randomdotsizeEA","randomdotsizeEA","equaldotanddens","randomdotsizeEA","equaldotsize","equaldotanddens","equaldotsize","randomdotsizeEA","randomdotsizeEA","randomdotsizeEA","equaldotsize","randomdotsizeEA","randomdotsizeEA","equaldotsize","equaldotsize","equaldotsize","randomdotsizeEA","equaldotanddens","equaldotanddens","equaldotsize","equaldotanddens","equaldotsize","randomdotsizeEA","randomdotsizeEA","equaldotanddens","equaldotanddens","equaldotsize","equaldotsize","equaldotsize","equaldotanddens","equaldotanddens"],"ratio_trial":[500,250,250,750,750,250,500,750,250,500,750,500,900,250,250,500,750,900,750,900,750,900,750,750,500,500,250,250,250,500,750,900,900,900,500,250,900,500,750,250,250,900,750,500,500,900,250,750,500,900,750,750,900,500,250,750,900,750,500,900,750,250,900,250,500,500,750,500,750,900,250,500,750,500,500,250,250,500,750,500,250,750,900,900,900,500,500,500,750,250,750,900,900,250,900,900,250,500,750,250,750,900,900,250,250,900,250,250,900,250,900,750,500,900,900,250,500,500,750,750],"smaller_num":["1","4","1","3","6","1","2","6","4","9","3","9","18","2","3","1","18","9","3","9","6","9","3","3","5","9","3","6","4","1","3","18","18","9","10","6","18","9","15","2","4","9","12","1","10","18","1","15","1","18","3","6","9","9","3","3","9","3","9","18","3","4","18","2","6","9","3","10","9","9","1","5","9","1","4","2","4","9","3","1","2","15","9","9","18","3","1","3","3","6","15","9","9","2","18","9","6","9","12","6","12","18","9","3","3","18","2","6","18","3","9","9","3","9","18","3","6","1","3","15"],"larger_num":["2","16","4","4","8","4","4","8","16","18","4","18","20","8","12","2","24","10","4","10","8","10","4","4","10","18","12","24","16","2","4","20","20","10","20","24","20","18","20","8","16","10","16","2","20","20","4","20","2","20","4","8","10","18","12","4","10","4","18","20","4","16","20","8","12","18","4","20","12","10","4","10","12","2","8","8","16","18","4","2","8","20","10","10","20","6","2","6","4","24","20","10","10","8","20","10","24","18","16","24","16","20","10","12","12","20","8","24","20","12","10","12","6","10","20","12","12","2","4","20"],"correct_side":[2,2,2,1,1,2,1,1,2,1,1,1,2,1,2,2,1,2,1,2,2,2,2,1,2,2,2,1,1,2,1,1,2,2,2,1,1,2,2,1,1,2,2,2,2,2,2,1,2,2,1,2,2,1,2,1,2,1,2,1,2,2,2,1,1,2,2,2,2,2,2,2,2,2,1,1,1,2,1,2,2,2,2,2,1,2,2,2,2,1,2,1,2,1,2,2,1,2,2,2,2,2,2,2,1,2,2,1,1,2,2,2,2,2,2,2,1,2,1,2],"img_shown":["img/500/randomdotsizeEA/R/15_Ratio_500_L_1_R_2.png","img/250/randomdotsizeEA/R/10_Ratio_250_L_4_R_16.png","img/250/equaldotsize/R/8_Ratio_250_L_1_R_4.png","img/750/randomdotsizeEA/L/9_Ratio_750_L_4_R_3.png","img/750/randomdotsizeEA/L/14_Ratio_750_L_8_R_6.png","img/250/equaldotanddens/R/8_Ratio_250_L_1_R_4.png","img/500/equaldotsize/L/10_Ratio_500_L_4_R_2.png","img/750/equaldotsize/L/13_Ratio_750_L_8_R_6.png","img/250/equaldotanddens/R/10_Ratio_250_L_4_R_16.png","img/500/equaldotanddens/L/4_Ratio_500_L_18_R_9.png","img/750/equaldotanddens/L/10_Ratio_750_L_4_R_3.png","img/500/equaldotsize/L/4_Ratio_500_L_18_R_9.png","img/900/randomdotsizeEA/R/9_Ratio_900_L_18_R_20.png","img/250/randomdotsizeEA/L/3_Ratio_250_L_8_R_2.png","img/250/equaldotanddens/R/11_Ratio_250_L_3_R_12.png","img/500/equaldotanddens/R/12_Ratio_500_L_1_R_2.png","img/750/equaldotsize/L/6_Ratio_750_L_24_R_18.png","img/900/equaldotanddens/R/6_Ratio_900_L_9_R_10.png","img/750/equaldotanddens/L/10_Ratio_750_L_4_R_3.png","img/900/equaldotsize/R/15_Ratio_900_L_9_R_10.png","img/750/equaldotsize/R/2_Ratio_750_L_6_R_8.png","img/900/equaldotanddens/R/3_Ratio_900_L_9_R_10.png","img/750/equaldotsize/R/7_Ratio_750_L_3_R_4.png","img/750/equaldotsize/L/10_Ratio_750_L_4_R_3.png","img/500/equaldotsize/R/14_Ratio_500_L_5_R_10.png","img/500/equaldotanddens/R/1_Ratio_500_L_9_R_18.png","img/250/equaldotanddens/R/11_Ratio_250_L_3_R_12.png","img/250/equaldotanddens/L/5_Ratio_250_L_24_R_6.png","img/250/randomdotsizeEA/L/2_Ratio_250_L_16_R_4.png","img/500/equaldotanddens/R/12_Ratio_500_L_1_R_2.png","img/750/equaldotsize/L/10_Ratio_750_L_4_R_3.png","img/900/randomdotsizeEA/L/2_Ratio_900_L_20_R_18.png","img/900/equaldotanddens/R/14_Ratio_900_L_18_R_20.png","img/900/equaldotsize/R/5_Ratio_900_L_9_R_10.png","img/500/randomdotsizeEA/R/3_Ratio_500_L_10_R_20.png","img/250/equaldotsize/L/5_Ratio_250_L_24_R_6.png","img/900/equaldotsize/L/4_Ratio_900_L_20_R_18.png","img/500/randomdotsizeEA/R/6_Ratio_500_L_9_R_18.png","img/750/equaldotanddens/R/4_Ratio_750_L_15_R_20.png","img/250/randomdotsizeEA/L/7_Ratio_250_L_8_R_2.png","img/250/equaldotanddens/L/2_Ratio_250_L_16_R_4.png","img/900/equaldotsize/R/5_Ratio_900_L_9_R_10.png","img/750/equaldotsize/R/11_Ratio_750_L_12_R_16.png","img/500/randomdotsizeEA/R/12_Ratio_500_L_1_R_2.png","img/500/equaldotsize/R/3_Ratio_500_L_10_R_20.png","img/900/equaldotsize/R/9_Ratio_900_L_18_R_20.png","img/250/randomdotsizeEA/R/8_Ratio_250_L_1_R_4.png","img/750/randomdotsizeEA/L/1_Ratio_750_L_20_R_15.png","img/500/equaldotsize/R/12_Ratio_500_L_1_R_2.png","img/900/equaldotanddens/R/13_Ratio_900_L_18_R_20.png","img/750/randomdotsizeEA/L/10_Ratio_750_L_4_R_3.png","img/750/equaldotanddens/R/2_Ratio_750_L_6_R_8.png","img/900/randomdotsizeEA/R/6_Ratio_900_L_9_R_10.png","img/500/equaldotanddens/L/4_Ratio_500_L_18_R_9.png","img/250/randomdotsizeEA/R/9_Ratio_250_L_3_R_12.png","img/750/equaldotsize/L/9_Ratio_750_L_4_R_3.png","img/900/randomdotsizeEA/R/7_Ratio_900_L_9_R_10.png","img/750/randomdotsizeEA/L/8_Ratio_750_L_4_R_3.png","img/500/equaldotanddens/R/6_Ratio_500_L_9_R_18.png","img/900/equaldotanddens/L/4_Ratio_900_L_20_R_18.png","img/750/equaldotanddens/R/7_Ratio_750_L_3_R_4.png","img/250/randomdotsizeEA/R/10_Ratio_250_L_4_R_16.png","img/900/randomdotsizeEA/R/13_Ratio_900_L_18_R_20.png","img/250/equaldotsize/L/3_Ratio_250_L_8_R_2.png","img/500/equaldotanddens/L/13_Ratio_500_L_12_R_6.png","img/500/equaldotsize/R/6_Ratio_500_L_9_R_18.png","img/750/equaldotanddens/R/7_Ratio_750_L_3_R_4.png","img/500/randomdotsizeEA/R/3_Ratio_500_L_10_R_20.png","img/750/randomdotsizeEA/R/15_Ratio_750_L_9_R_12.png","img/900/randomdotsizeEA/R/7_Ratio_900_L_9_R_10.png","img/250/equaldotsize/R/8_Ratio_250_L_1_R_4.png","img/500/equaldotsize/R/14_Ratio_500_L_5_R_10.png","img/750/equaldotanddens/R/15_Ratio_750_L_9_R_12.png","img/500/randomdotsizeEA/R/15_Ratio_500_L_1_R_2.png","img/500/randomdotsizeEA/L/8_Ratio_500_L_8_R_4.png","img/250/randomdotsizeEA/L/3_Ratio_250_L_8_R_2.png","img/250/equaldotsize/L/2_Ratio_250_L_16_R_4.png","img/500/equaldotanddens/R/6_Ratio_500_L_9_R_18.png","img/750/equaldotsize/L/10_Ratio_750_L_4_R_3.png","img/500/equaldotanddens/R/12_Ratio_500_L_1_R_2.png","img/250/equaldotanddens/R/13_Ratio_250_L_2_R_8.png","img/750/equaldotanddens/R/3_Ratio_750_L_15_R_20.png","img/900/equaldotsize/R/3_Ratio_900_L_9_R_10.png","img/900/randomdotsizeEA/R/7_Ratio_900_L_9_R_10.png","img/900/equaldotanddens/L/2_Ratio_900_L_20_R_18.png","img/500/equaldotsize/R/2_Ratio_500_L_3_R_6.png","img/500/randomdotsizeEA/R/12_Ratio_500_L_1_R_2.png","img/500/equaldotanddens/R/2_Ratio_500_L_3_R_6.png","img/750/equaldotsize/R/7_Ratio_750_L_3_R_4.png","img/250/randomdotsizeEA/L/5_Ratio_250_L_24_R_6.png","img/750/randomdotsizeEA/R/5_Ratio_750_L_15_R_20.png","img/900/equaldotanddens/L/1_Ratio_900_L_10_R_9.png","img/900/randomdotsizeEA/R/6_Ratio_900_L_9_R_10.png","img/250/equaldotsize/L/7_Ratio_250_L_8_R_2.png","img/900/equaldotanddens/R/9_Ratio_900_L_18_R_20.png","img/900/equaldotsize/R/6_Ratio_900_L_9_R_10.png","img/250/randomdotsizeEA/L/5_Ratio_250_L_24_R_6.png","img/500/randomdotsizeEA/R/6_Ratio_500_L_9_R_18.png","img/750/randomdotsizeEA/R/11_Ratio_750_L_12_R_16.png","img/250/equaldotsize/R/6_Ratio_250_L_6_R_24.png","img/750/randomdotsizeEA/R/11_Ratio_750_L_12_R_16.png","img/900/randomdotsizeEA/R/13_Ratio_900_L_18_R_20.png","img/900/equaldotsize/R/7_Ratio_900_L_9_R_10.png","img/250/equaldotsize/R/11_Ratio_250_L_3_R_12.png","img/250/equaldotsize/L/15_Ratio_250_L_12_R_3.png","img/900/randomdotsizeEA/R/11_Ratio_900_L_18_R_20.png","img/250/equaldotanddens/R/13_Ratio_250_L_2_R_8.png","img/250/equaldotanddens/L/5_Ratio_250_L_24_R_6.png","img/900/equaldotsize/L/2_Ratio_900_L_20_R_18.png","img/250/equaldotanddens/R/11_Ratio_250_L_3_R_12.png","img/900/equaldotsize/R/15_Ratio_900_L_9_R_10.png","img/750/randomdotsizeEA/R/15_Ratio_750_L_9_R_12.png","img/500/randomdotsizeEA/R/2_Ratio_500_L_3_R_6.png","img/900/equaldotanddens/R/5_Ratio_900_L_9_R_10.png","img/900/equaldotanddens/R/12_Ratio_900_L_18_R_20.png","img/250/equaldotsize/R/9_Ratio_250_L_3_R_12.png","img/500/equaldotsize/L/13_Ratio_500_L_12_R_6.png","img/500/equaldotsize/R/12_Ratio_500_L_1_R_2.png","img/750/equaldotanddens/L/10_Ratio_750_L_4_R_3.png","img/750/equaldotanddens/R/3_Ratio_750_L_15_R_20.png"],"Rat0":[["12_Ratio_0_L_9_R_0.png","13_Ratio_0_L_6_R_0.png","5_Ratio_0_L_2_R_0.png","6_Ratio_0_L_4_R_0.png","8_Ratio_0_L_6_R_0.png"],["1_Ratio_0_L_0_R_17.png","10_Ratio_0_L_0_R_22.png","11_Ratio_0_L_0_R_1.png","14_Ratio_0_L_0_R_24.png","15_Ratio_0_L_0_R_4.png","2_Ratio_0_L_0_R_5.png","3_Ratio_0_L_0_R_17.png","4_Ratio_0_L_0_R_7.png","7_Ratio_0_L_0_R_19.png","9_Ratio_0_L_0_R_15.png"]],"Rat250":[["1_Ratio_250_L_8_R_2.png","14_Ratio_250_L_12_R_3.png","15_Ratio_250_L_12_R_3.png","2_Ratio_250_L_16_R_4.png","3_Ratio_250_L_8_R_2.png","5_Ratio_250_L_24_R_6.png","7_Ratio_250_L_8_R_2.png"],["10_Ratio_250_L_4_R_16.png","11_Ratio_250_L_3_R_12.png","12_Ratio_250_L_5_R_20.png","13_Ratio_250_L_2_R_8.png","4_Ratio_250_L_3_R_12.png","6_Ratio_250_L_6_R_24.png","8_Ratio_250_L_1_R_4.png","9_Ratio_250_L_3_R_12.png"]],"Rat500":[["10_Ratio_500_L_4_R_2.png","11_Ratio_500_L_12_R_6.png","13_Ratio_500_L_12_R_6.png","4_Ratio_500_L_18_R_9.png","5_Ratio_500_L_4_R_2.png","7_Ratio_500_L_10_R_5.png","8_Ratio_500_L_8_R_4.png"],["1_Ratio_500_L_9_R_18.png","12_Ratio_500_L_1_R_2.png","14_Ratio_500_L_5_R_10.png","15_Ratio_500_L_1_R_2.png","2_Ratio_500_L_3_R_6.png","3_Ratio_500_L_10_R_20.png","6_Ratio_500_L_9_R_18.png","9_Ratio_500_L_2_R_4.png"]],"Rat750":[["1_Ratio_750_L_20_R_15.png","10_Ratio_750_L_4_R_3.png","13_Ratio_750_L_8_R_6.png","14_Ratio_750_L_8_R_6.png","6_Ratio_750_L_24_R_18.png","8_Ratio_750_L_4_R_3.png","9_Ratio_750_L_4_R_3.png"],["11_Ratio_750_L_12_R_16.png","12_Ratio_750_L_3_R_4.png","15_Ratio_750_L_9_R_12.png","2_Ratio_750_L_6_R_8.png","3_Ratio_750_L_15_R_20.png","4_Ratio_750_L_15_R_20.png","5_Ratio_750_L_15_R_20.png","7_Ratio_750_L_3_R_4.png"]],"Rat900":[["1_Ratio_900_L_10_R_9.png","10_Ratio_900_L_20_R_18.png","2_Ratio_900_L_20_R_18.png","4_Ratio_900_L_20_R_18.png","8_Ratio_900_L_20_R_18.png"],["11_Ratio_900_L_18_R_20.png","12_Ratio_900_L_18_R_20.png","13_Ratio_900_L_18_R_20.png","14_Ratio_900_L_18_R_20.png","15_Ratio_900_L_9_R_10.png","3_Ratio_900_L_9_R_10.png","5_Ratio_900_L_9_R_10.png","6_Ratio_900_L_9_R_10.png","7_Ratio_900_L_9_R_10.png","9_Ratio_900_L_18_R_20.png"]],"Rat1000":[["10_Ratio_1000_L_16_R_16.png","11_Ratio_1000_L_6_R_6.png","12_Ratio_1000_L_14_R_14.png","13_Ratio_1000_L_20_R_20.png","15_Ratio_1000_L_15_R_15.png","2_Ratio_1000_L_17_R_17.png","4_Ratio_1000_L_9_R_9.png","5_Ratio_1000_L_6_R_6.png","6_Ratio_1000_L_19_R_19.png","8_Ratio_1000_L_14_R_14.png","9_Ratio_1000_L_25_R_25.png"],["1_Ratio_1000_L_1_R_1.png","14_Ratio_1000_L_17_R_17.png","3_Ratio_1000_L_17_R_17.png","7_Ratio_1000_L_6_R_6.png"]]}},{"start_time":1551900318162,"click_time":1551900321712,"finger_time":1551900321012,"fix_duration":809.4533854567527,"trial":1,"RT":2850,"MT":700,"sideResp":2,"stimulus":"img/250/randomdotsizeEA/R/10_Ratio_250_L_4_R_16.png","xmouse":[792,792,792,792,792,786,781,781,781,780,779,779,779,779,779,779,779,779,779,779,779,779,779,779,779,779,779,779,779,779,779,779,779,779,779,779,779,779,779,779,779,779,779,779,779,779,779,779,779,779,779,779,779,779,779,779,779,779,779,779,779,779,779,779,779,779,779,779,779,779,779,779,779,779,779,779,779,779,779,779,779,779,779,779,779,779,779,779,779,779,779,779,779,779,779,779,779,779,779,779,779,779,779,779,779,779,779,779,779,779,779,779,779,779,779,779,779,779,779,779,779,779,779,779,779,779,779,779,779,779,779,779,779,779,778,777,773,772,771,771,771,776,781,786,792,798,801,814,828,842,850,855,859,862,866,877,900,910,917,919,920,926,934,939,943,951,974,984,992,996,998,1001,1005,1011,1022,1035,1058,1067],"ymouse":[562,562,558,556,556,552,550,550,550,550,550,550,550,550,550,550,550,550,550,550,550,550,550,550,550,550,550,550,550,550,550,550,550,550,550,550,550,550,550,550,550,550,550,550,550,550,550,550,550,550,550,550,550,550,550,550,550,550,550,550,550,550,550,550,550,550,550,550,550,550,550,550,550,550,550,550,550,550,550,550,550,550,550,550,550,550,550,550,550,550,550,550,550,550,550,550,550,550,550,550,550,550,550,550,550,550,550,550,550,550,550,550,550,550,550,550,550,550,550,550,550,550,550,550,550,550,550,550,550,550,550,550,550,550,547,537,523,519,515,512,507,481,450,430,412,398,390,357,333,315,305,301,297,294,289,276,249,238,232,227,223,213,201,196,191,181,157,150,148,147,146,144,143,140,134,123,105,98],"timestamp_mouse":[9,30,51,77,90,109,129,151,170,189,210,231,250,269,290,310,329,350,369,391,410,429,451,470,490,510,531,549,570,590,609,630,651,670,689,710,731,750,771,790,810,829,850,869,890,910,929,949,969,991,1010,1031,1049,1069,1089,1109,1131,1151,1170,1191,1210,1231,1250,1270,1290,1310,1331,1351,1370,1389,1411,1431,1450,1470,1490,1511,1531,1550,1570,1591,1611,1631,1650,1670,1691,1710,1730,1751,1769,1790,1810,1830,1849,1869,1891,1910,1930,1950,1970,1990,2009,2029,2051,2071,2090,2110,2129,2151,2171,2190,2210,2230,2251,2271,2289,2311,2330,2349,2370,2389,2411,2430,2450,2469,2491,2510,2531,2550,2570,2591,2610,2629,2650,2669,2691,2710,2729,2749,2770,2790,2810,2829,2850,2870,2890,2910,2930,2949,2969,2989,3011,3029,3050,3070,3089,3109,3130,3149,3170,3190,3209,3231,3250,3270,3291,3311,3331,3349,3369,3390,3411,3431,3449,3469,3491,3510,3531,3549],"xSR":741.5,"ySR":469.95,"xT1":424.9,"yT1":0,"xT2":1058.1,"yT2":0,"toosoon":0,"cond_shown":"randomdotsizeEA","ratio_trial":250,"smaller_num":"4","larger_num":"16","correct_side":2,"subjID":"isabellamurillourrea28","gender":"1","age":"11","school":"6"},{"start_time":1551900323941,"click_time":1551900325533,"finger_time":1551900324951,"fix_duration":947.4544425559441,"trial":2,"RT":1010,"MT":582,"sideResp":2,"stimulus":"img/250/equaldotsize/R/8_Ratio_250_L_1_R_4.png","xmouse":[778,778,778,778,778,778,778,778,778,778,778,778,778,778,778,778,778,778,778,778,778,778,778,778,778,778,778,778,778,778,778,778,778,778,778,778,778,778,778,778,778,778,778,778,778,778,778,778,776,776,780,790,822,834,851,866,884,901,933,946,958,965,971,988,998,1008,1018,1029,1049,1055,1058,1058,1058,1058,1058,1058,1058,1058,1058,1060],"ymouse":[515,515,515,515,515,515,515,515,515,515,515,515,515,515,515,515,515,515,515,515,515,515,515,515,515,515,515,515,515,515,515,515,515,515,515,515,515,515,515,515,515,515,515,515,515,515,515,515,508,488,438,390,321,301,283,264,239,216,177,164,153,149,146,136,130,124,116,110,103,101,100,100,100,100,100,100,100,100,100,98],"timestamp_mouse":[12,30,51,72,92,110,130,150,171,190,210,232,251,271,292,311,332,352,370,392,411,431,450,472,491,510,530,552,571,590,611,631,652,672,691,710,732,752,771,792,811,831,851,870,891,911,932,952,970,992,1010,1031,1053,1070,1090,1111,1130,1150,1171,1191,1210,1230,1251,1271,1291,1312,1330,1351,1371,1392,1412,1430,1451,1470,1492,1511,1531,1551,1571,1592],"xSR":741.5,"ySR":469.95,"xT1":424.9,"yT1":0,"xT2":1058.1,"yT2":0,"toosoon":0,"cond_shown":"equaldotsize","ratio_trial":250,"smaller_num":"1","larger_num":"4","correct_side":2,"subjID":"isabellamurillourrea28","gender":"1","age":"11","school":"6"},{"start_time":1551900328766,"click_time":1551900330831,"finger_time":1551900330392,"fix_duration":913.0315598092603,"trial":3,"RT":1626,"MT":439,"sideResp":1,"stimulus":"img/750/randomdotsizeEA/L/9_Ratio_750_L_4_R_3.png","xmouse":[802,802,802,802,802,802,802,802,802,802,802,802,802,802,802,802,802,802,802,802,802,802,802,802,802,802,802,802,802,802,802,802,802,802,802,802,802,802,802,802,802,802,802,802,802,802,802,802,802,802,802,802,802,802,802,802,802,802,802,802,802,802,802,802,802,802,802,802,802,802,802,802,802,802,802,802,802,802,797,789,778,762,749,736,732,731,727,699,660,643,633,626,605,576,539,507,487,470,469,467,464,462,460,458],"ymouse":[487,487,487,487,487,487,487,487,487,487,487,487,487,487,487,487,487,487,487,487,487,487,487,487,487,487,487,487,487,487,487,487,487,487,487,487,487,487,487,487,487,487,487,487,487,487,487,487,487,487,487,487,487,487,487,487,487,487,487,487,487,487,487,487,487,487,487,487,487,487,487,487,487,487,487,487,487,487,489,490,481,461,441,416,409,404,400,361,306,282,266,257,234,209,179,153,135,114,112,110,106,104,101,96],"timestamp_mouse":[9,26,45,70,85,106,127,147,167,186,207,226,245,266,286,306,326,346,365,386,406,427,445,465,486,507,525,546,567,585,606,625,645,667,686,706,726,745,767,786,806,827,845,865,886,905,925,946,967,985,1007,1027,1046,1066,1086,1106,1126,1146,1165,1186,1206,1225,1246,1267,1285,1306,1326,1345,1365,1386,1406,1427,1446,1467,1486,1507,1525,1546,1566,1585,1605,1626,1645,1665,1686,1705,1725,1747,1765,1786,1805,1826,1847,1865,1885,1905,1927,1947,1966,1986,2006,2025,2046,2065],"xSR":741.5,"ySR":469.95,"xT1":424.9,"yT1":0,"xT2":1058.1,"yT2":0,"toosoon":0,"cond_shown":"randomdotsizeEA","ratio_trial":750,"smaller_num":"3","larger_num":"4","correct_side":1,"subjID":"isabellamurillourrea28","gender":"1","age":"11","school":"6"},{"start_time":1551900333217,"click_time":1551900334631,"finger_time":1551900334351,"fix_duration":1384.7204205201015,"trial":4,"RT":1134,"MT":280,"sideResp":1,"stimulus":"img/750/randomdotsizeEA/L/14_Ratio_750_L_8_R_6.png","xmouse":[788,788,788,788,788,788,788,788,788,788,788,788,788,788,788,788,788,788,788,788,788,788,788,788,788,788,788,788,788,788,788,788,788,788,788,788,788,788,788,788,788,788,788,788,788,788,788,788,788,788,788,787,787,785,784,777,763,732,691,607,584,568,557,540,528,516,512,511,509,509,507],"ymouse":[493,493,493,493,493,493,493,493,493,493,493,493,493,494,494,494,494,494,494,494,494,494,494,494,494,494,494,494,494,494,494,494,494,494,494,494,494,494,494,494,494,494,494,494,494,494,494,494,494,494,494,495,495,495,495,489,463,412,350,244,213,193,180,158,143,122,114,108,104,102,95],"timestamp_mouse":[15,38,56,74,95,116,135,154,175,195,216,234,254,276,295,314,336,355,374,396,415,434,454,474,495,515,536,554,575,594,616,635,655,674,695,716,736,755,775,794,815,834,856,875,894,914,934,955,976,995,1016,1034,1054,1076,1095,1114,1134,1154,1175,1197,1215,1234,1255,1275,1295,1316,1334,1355,1376,1395,1414],"xSR":741.5,"ySR":469.95,"xT1":424.9,"yT1":0,"xT2":1058.1,"yT2":0,"toosoon":0,"cond_shown":"randomdotsizeEA","ratio_trial":750,"smaller_num":"6","larger_num":"8","correct_side":1,"subjID":"isabellamurillourrea28","gender":"1","age":"11","school":"6"},{"start_time":1551900338039,"click_time":1551900338951,"finger_time":1551900338732,"fix_duration":725.6650414893727,"trial":5,"RT":693,"MT":219,"sideResp":2,"stimulus":"img/250/equaldotanddens/R/8_Ratio_250_L_1_R_4.png","xmouse":[785,785,785,785,785,785,785,785,785,785,785,785,785,785,785,785,785,785,785,785,785,785,785,785,785,785,786,788,791,802,805,806,806,808,821,827,837,851,877,915,993,1009,1021,1033,1052,1059],"ymouse":[553,553,553,553,553,553,553,553,553,553,553,553,553,553,553,553,553,553,553,553,553,553,553,553,548,546,542,538,532,516,505,495,487,477,453,441,426,407,369,300,159,140,125,114,98,93],"timestamp_mouse":[12,33,53,74,92,114,133,154,172,193,214,234,253,273,293,313,334,354,373,392,412,432,454,472,493,512,532,554,572,593,614,632,653,673,693,712,732,753,773,793,813,832,852,873,893,912],"xSR":741.5,"ySR":469.95,"xT1":424.9,"yT1":0,"xT2":1058.1,"yT2":0,"toosoon":0,"cond_shown":"equaldotanddens","ratio_trial":250,"smaller_num":"1","larger_num":"4","correct_side":2,"subjID":"isabellamurillourrea28","gender":"1","age":"11","school":"6"},{"start_time":1551900340464,"click_time":1551900341372,"finger_time":1551900341053,"fix_duration":250,"trial":6,"RT":589,"MT":319,"sideResp":1,"stimulus":"img/500/equaldotsize/L/10_Ratio_500_L_4_R_2.png","xmouse":[814,814,814,814,814,814,814,814,814,814,814,814,814,814,814,814,814,814,814,814,814,814,814,814,814,814,814,811,801,710,645,590,549,497,487,480,474,470,470,469,469,469,469,481,484,486],"ymouse":[539,539,539,539,539,539,539,539,539,539,539,539,539,539,539,539,539,539,539,539,539,539,539,539,539,539,539,535,529,444,384,329,289,234,212,187,168,160,157,155,155,151,135,110,104,97],"timestamp_mouse":[12,27,48,67,88,107,128,148,167,187,207,229,249,268,289,309,328,348,368,388,408,428,447,468,487,507,527,549,567,589,607,628,647,669,687,709,728,748,768,788,807,829,848,869,887,908],"xSR":741.5,"ySR":469.95,"xT1":424.9,"yT1":0,"xT2":1058.1,"yT2":0,"toosoon":0,"cond_shown":"equaldotsize","ratio_trial":500,"smaller_num":"2","larger_num":"4","correct_side":1,"subjID":"isabellamurillourrea28","gender":"1","age":"11","school":"6"},{"start_time":1551900343798,"click_time":1551900346973,"finger_time":1551900344912,"fix_duration":1164.2442421411283,"trial":7,"RT":1114,"MT":2061,"sideResp":2,"stimulus":"img/750/equaldotsize/L/13_Ratio_750_L_8_R_6.png","xmouse":[782,782,782,782,782,782,782,782,782,782,782,782,782,782,782,782,782,782,782,782,782,782,782,782,782,782,782,782,782,782,782,782,782,782,782,782,782,782,782,782,782,782,782,782,782,782,782,782,782,782,782,787,791,791,791,789,787,783,783,783,783,783,783,785,789,794,800,810,814,818,821,823,823,824,824,824,824,824,824,824,824,824,824,824,824,824,824,824,824,824,824,824,824,824,824,824,824,824,824,824,824,826,841,850,856,861,864,868,874,876,876,878,880,885,889,894,901,912,924,933,944,959,988,1001,1010,1018,1025,1032,1034,1035,1035,1035,1035,1038,1043,1049,1050,1053,1055,1057,1064,1071,1086,1091,1093,1094,1095,1095,1095,1095,1095,1095,1095,1095,1095,1096,1098,1099,1099],"ymouse":[520,520,520,520,520,520,520,520,520,520,520,520,520,520,520,520,520,520,520,520,520,520,520,520,520,520,520,520,520,520,520,520,520,520,520,520,520,520,520,520,520,520,520,520,520,520,520,520,520,520,517,507,492,482,471,461,454,441,438,438,438,438,437,436,434,431,423,415,410,407,404,402,401,400,400,400,400,400,400,400,400,400,400,400,400,400,400,400,400,400,400,400,400,400,400,400,400,400,400,400,399,397,371,357,350,345,343,340,335,334,334,333,331,326,322,318,315,309,304,301,299,297,293,291,289,288,285,284,283,282,282,282,281,277,272,265,263,259,255,250,237,221,189,175,161,151,146,139,138,138,138,138,138,138,138,138,128,106,98],"timestamp_mouse":[14,34,66,73,94,114,134,154,173,193,215,234,253,275,295,315,334,354,375,393,414,435,453,475,493,515,534,555,574,593,613,634,654,674,694,713,734,753,773,794,815,834,853,875,894,915,934,953,973,995,1015,1034,1054,1073,1094,1114,1134,1153,1173,1195,1215,1233,1254,1273,1293,1313,1333,1353,1374,1394,1414,1434,1453,1475,1493,1514,1534,1554,1574,1594,1614,1633,1653,1674,1693,1713,1735,1754,1773,1795,1815,1834,1853,1873,1894,1915,1934,1954,1974,1995,2013,2035,2053,2073,2093,2114,2133,2153,2173,2195,2213,2233,2253,2273,2293,2314,2333,2354,2374,2393,2413,2433,2454,2473,2494,2513,2534,2554,2574,2593,2613,2633,2654,2673,2694,2714,2733,2754,2773,2793,2814,2834,2854,2873,2894,2914,2934,2954,2974,2995,3014,3035,3053,3074,3094,3114,3133,3155,3175],"xSR":741.5,"ySR":469.95,"xT1":424.9,"yT1":0,"xT2":1058.1,"yT2":0,"toosoon":0,"cond_shown":"equaldotsize","ratio_trial":750,"smaller_num":"6","larger_num":"8","correct_side":1,"subjID":"isabellamurillourrea28","gender":"1","age":"11","school":"6"},{"start_time":1551900349234,"click_time":1551900350411,"finger_time":1551900350053,"fix_duration":1259.974318558173,"trial":8,"RT":819,"MT":358,"sideResp":2,"stimulus":"img/250/equaldotanddens/R/10_Ratio_250_L_4_R_16.png","xmouse":[794,794,794,794,794,794,794,794,794,794,794,794,794,794,794,794,794,794,794,794,794,794,794,794,794,794,794,794,794,794,794,794,794,794,794,794,794,795,798,800,815,817,821,829,833,851,879,896,908,925,951,961,974,993,1010,1032,1059,1071,1080],"ymouse":[531,531,531,531,531,531,531,531,531,531,531,531,531,531,531,531,531,531,531,531,531,531,531,531,531,531,531,531,531,531,531,531,531,531,531,531,531,526,513,494,458,435,410,375,364,320,270,246,226,211,192,182,168,155,144,128,108,100,94],"timestamp_mouse":[18,49,59,78,97,118,139,157,178,198,218,239,257,277,298,317,338,358,377,399,417,437,459,478,498,517,539,557,578,597,619,637,658,678,699,717,737,757,777,798,819,837,858,877,898,918,938,958,978,998,1019,1037,1058,1077,1098,1117,1138,1157,1177],"xSR":741.5,"ySR":469.95,"xT1":424.9,"yT1":0,"xT2":1058.1,"yT2":0,"toosoon":0,"cond_shown":"equaldotanddens","ratio_trial":250,"smaller_num":"4","larger_num":"16","correct_side":2,"subjID":"isabellamurillourrea28","gender":"1","age":"11","school":"6"},{"start_time":1551900352541,"click_time":1551900353752,"finger_time":1551900353271,"fix_duration":427.5348810245383,"trial":9,"RT":730,"MT":481,"sideResp":1,"stimulus":"img/500/equaldotanddens/L/4_Ratio_500_L_18_R_9.png","xmouse":[779,779,779,779,779,779,779,779,779,779,779,779,779,779,779,779,779,779,779,779,779,779,779,779,779,779,779,779,779,779,779,779,779,779,774,767,696,660,613,589,558,524,518,512,506,500,498,496,496,496,496,493,490,489,488,487,485,481,478,475,472],"ymouse":[525,525,525,525,525,525,525,525,525,525,525,525,525,525,525,525,525,525,525,525,525,525,525,525,525,525,525,525,525,525,525,525,525,525,524,517,468,435,382,353,322,279,270,261,246,231,218,205,199,193,187,166,159,154,150,147,135,125,119,110,97],"timestamp_mouse":[10,30,50,71,90,110,130,151,171,192,211,231,250,272,291,311,331,351,371,391,412,432,452,470,491,510,532,551,571,591,611,630,650,672,690,710,730,751,770,791,810,830,850,870,891,910,930,951,971,990,1011,1031,1051,1071,1091,1112,1131,1152,1170,1192,1211],"xSR":741.5,"ySR":469.95,"xT1":424.9,"yT1":0,"xT2":1058.1,"yT2":0,"toosoon":0,"cond_shown":"equaldotanddens","ratio_trial":500,"smaller_num":"9","larger_num":"18","correct_side":1,"subjID":"isabellamurillourrea28","gender":"1","age":"11","school":"6"},{"start_time":1551900355427,"click_time":1551900356912,"finger_time":1551900356472,"fix_duration":374.66501448743537,"trial":10,"RT":1045,"MT":440,"sideResp":1,"stimulus":"img/750/equaldotanddens/L/10_Ratio_750_L_4_R_3.png","xmouse":[747,747,747,747,747,747,747,747,747,747,747,747,747,747,747,747,747,747,747,747,747,747,747,747,747,748,748,748,748,748,748,748,748,748,748,748,748,748,748,748,748,748,748,748,748,748,748,748,748,748,747,746,733,719,702,683,660,618,585,569,556,545,535,524,524,524,524,524,520,517,512,499,496,476,469],"ymouse":[538,538,538,538,538,538,538,538,538,538,538,538,538,538,538,538,538,538,538,538,538,538,538,538,539,539,539,539,539,539,539,539,539,539,539,539,539,539,539,539,539,539,539,539,539,539,539,536,533,529,524,515,481,459,437,414,388,339,309,288,268,248,234,219,219,219,219,216,209,199,187,159,151,107,95],"timestamp_mouse":[4,25,45,77,85,105,126,144,164,184,204,226,246,264,286,304,325,346,364,385,404,426,446,465,484,505,524,545,566,585,605,625,645,665,686,704,725,746,766,785,805,825,845,864,886,905,925,944,964,985,1005,1025,1045,1064,1085,1105,1125,1146,1164,1186,1205,1224,1244,1265,1285,1305,1324,1346,1364,1385,1405,1424,1444,1464,1485],"xSR":741.5,"ySR":469.95,"xT1":424.9,"yT1":0,"xT2":1058.1,"yT2":0,"toosoon":0,"cond_shown":"equaldotanddens","ratio_trial":750,"smaller_num":"3","larger_num":"4","correct_side":1,"subjID":"isabellamurillourrea28","gender":"1","age":"11","school":"6"},{"start_time":1551900359037,"click_time":1551900360272,"finger_time":1551900359852,"fix_duration":1164.124076489654,"trial":11,"RT":815,"MT":420,"sideResp":1,"stimulus":"img/500/equaldotsize/L/4_Ratio_500_L_18_R_9.png","xmouse":[790,790,790,790,790,790,790,790,790,790,790,790,790,790,790,790,790,790,790,790,790,790,790,790,790,790,790,790,790,790,790,790,790,789,786,780,772,762,754,749,737,730,719,714,710,706,702,687,677,655,639,621,618,616,614,611,602,593,575,567,539,524],"ymouse":[524,524,524,524,524,524,524,524,524,524,524,524,524,524,524,524,524,524,524,524,524,524,524,524,524,524,524,524,524,524,524,524,524,524,524,520,514,507,501,497,485,475,458,447,434,421,408,378,358,321,302,273,264,255,250,244,226,207,171,158,117,99],"timestamp_mouse":[14,46,54,75,96,115,135,154,175,194,215,234,254,276,296,315,336,356,374,395,414,434,455,474,495,516,534,556,576,595,616,636,655,674,695,715,734,754,776,795,815,834,855,874,895,915,934,954,974,994,1014,1036,1054,1074,1095,1115,1137,1154,1175,1195,1214,1235],"xSR":741.5,"ySR":469.95,"xT1":424.9,"yT1":0,"xT2":1058.1,"yT2":0,"toosoon":0,"cond_shown":"equaldotsize","ratio_trial":500,"smaller_num":"9","larger_num":"18","correct_side":1,"subjID":"isabellamurillourrea28","gender":"1","age":"11","school":"6"},{"start_time":1551900364603,"click_time":1551900366871,"finger_time":1551900366092,"fix_duration":250,"trial":12,"RT":1489,"MT":779,"sideResp":1,"stimulus":"img/900/randomdotsizeEA/R/9_Ratio_900_L_18_R_20.png","xmouse":[802,802,802,802,802,802,802,802,802,802,802,802,802,802,802,802,802,802,802,802,802,802,802,802,802,802,802,802,802,802,802,802,802,802,802,802,802,802,797,794,792,792,792,792,792,792,792,792,792,792,792,792,792,792,792,792,792,792,792,792,792,792,792,792,792,792,792,792,792,792,792,792,791,789,773,766,762,757,756,749,745,738,728,716,707,705,703,696,682,659,503,421,366,350,345,345,345,345,345,350,366,380,395,401,403,408,409,411,411,411,411,412,420,433],"ymouse":[507,507,507,507,507,507,507,507,507,507,507,507,507,507,507,507,507,507,507,507,507,507,507,507,507,507,507,507,507,507,507,507,507,507,507,507,507,507,510,510,511,511,511,511,511,511,511,511,511,511,511,511,511,511,511,511,511,511,511,511,511,511,511,511,511,511,511,511,511,511,511,511,510,501,445,424,411,403,399,390,386,378,368,359,354,353,351,343,327,307,175,115,75,64,58,58,58,58,57,57,57,57,57,57,57,59,60,60,60,60,60,61,63,66],"timestamp_mouse":[10,28,48,78,88,109,128,150,169,190,209,229,248,269,290,310,329,350,370,389,409,429,448,469,490,510,529,549,568,589,610,629,649,669,689,708,730,748,769,788,810,830,849,869,890,910,929,950,969,989,1009,1029,1050,1068,1089,1109,1130,1148,1168,1188,1210,1230,1248,1268,1289,1310,1330,1349,1368,1389,1408,1429,1448,1469,1489,1508,1529,1549,1569,1589,1609,1628,1648,1669,1690,1708,1729,1749,1768,1789,1809,1828,1849,1869,1890,1908,1928,1949,1968,1989,2009,2028,2049,2069,2089,2108,2129,2149,2170,2189,2208,2229,2249,2268],"xSR":741.5,"ySR":469.95,"xT1":424.9,"yT1":0,"xT2":1058.1,"yT2":0,"toosoon":0,"cond_shown":"randomdotsizeEA","ratio_trial":900,"smaller_num":"18","larger_num":"20","correct_side":2,"subjID":"isabellamurillourrea28","gender":"1","age":"11","school":"6"},{"start_time":1551900370078,"click_time":1551900371411,"finger_time":1551900370911,"fix_duration":486.3483393509335,"trial":13,"RT":833,"MT":500,"sideResp":1,"stimulus":"img/250/randomdotsizeEA/L/3_Ratio_250_L_8_R_2.png","xmouse":[796,796,796,796,796,796,796,796,796,796,796,796,796,796,796,796,796,796,796,796,796,796,796,796,796,796,796,796,796,796,796,796,796,796,796,796,796,796,794,789,769,695,635,600,579,563,539,532,521,511,504,500,499,498,498,497,493,492,491,490,488,486,484,483,482,481,476],"ymouse":[508,508,508,508,508,508,508,508,508,508,508,508,508,508,508,508,508,508,508,508,508,508,508,508,508,508,508,508,508,508,508,508,508,508,508,508,508,508,507,501,481,409,360,331,311,294,263,250,234,223,215,204,197,192,187,180,161,150,142,135,129,119,112,109,107,105,97],"timestamp_mouse":[15,33,57,74,95,113,133,153,175,195,214,235,255,273,294,314,333,353,375,395,414,433,453,474,495,514,534,553,573,594,614,635,653,674,693,715,735,754,773,794,814,833,854,873,894,914,934,954,974,994,1014,1033,1054,1073,1093,1113,1134,1153,1174,1194,1214,1234,1253,1273,1294,1314,1333],"xSR":741.5,"ySR":469.95,"xT1":424.9,"yT1":0,"xT2":1058.1,"yT2":0,"toosoon":0,"cond_shown":"randomdotsizeEA","ratio_trial":250,"smaller_num":"2","larger_num":"8","correct_side":1,"subjID":"isabellamurillourrea28","gender":"1","age":"11","school":"6"},{"start_time":1551900373569,"click_time":1551900375072,"finger_time":1551900374472,"fix_duration":1095.1052862752235,"trial":14,"RT":903,"MT":600,"sideResp":2,"stimulus":"img/250/equaldotanddens/R/11_Ratio_250_L_3_R_12.png","xmouse":[782,782,782,782,782,782,782,782,782,782,782,782,782,782,782,782,782,779,775,775,775,775,775,775,775,775,775,775,775,775,775,775,775,775,775,775,775,775,775,776,785,799,812,827,829,830,838,859,887,906,919,927,944,953,961,972,980,989,992,995,997,998,1001,1003,1006,1009,1012,1026,1033,1039,1044,1051,1059,1076,1079,1080],"ymouse":[531,531,531,531,531,531,531,531,531,531,531,531,531,531,531,531,530,525,515,515,515,515,515,515,515,515,515,515,515,515,515,515,515,515,515,515,515,515,515,513,510,502,495,485,473,441,392,344,321,304,292,282,252,237,223,209,199,188,184,181,178,177,172,168,164,158,154,139,133,130,127,124,119,103,100,98],"timestamp_mouse":[10,24,49,64,82,103,123,142,162,184,203,224,242,262,282,302,323,343,363,384,404,424,442,463,483,504,523,543,564,584,604,623,643,662,682,704,723,743,763,782,803,822,843,862,883,903,923,944,962,982,1003,1023,1044,1063,1083,1103,1124,1143,1162,1183,1203,1224,1243,1262,1282,1303,1324,1343,1362,1382,1404,1423,1442,1462,1483,1503],"xSR":741.5,"ySR":469.95,"xT1":424.9,"yT1":0,"xT2":1058.1,"yT2":0,"toosoon":0,"cond_shown":"equaldotanddens","ratio_trial":250,"smaller_num":"3","larger_num":"12","correct_side":2,"subjID":"isabellamurillourrea28","gender":"1","age":"11","school":"6"},{"start_time":1551900377312,"click_time":1551900378931,"finger_time":1551900378131,"fix_duration":958.0404085975871,"trial":15,"RT":819,"MT":800,"sideResp":2,"stimulus":"img/500/equaldotanddens/R/12_Ratio_500_L_1_R_2.png","xmouse":[836,830,826,822,822,822,822,822,822,822,822,822,822,822,822,822,822,822,822,822,822,822,822,822,822,822,822,822,822,822,822,822,822,822,822,822,822,822,822,822,827,842,849,860,867,875,892,903,919,931,941,954,958,961,966,971,982,986,991,992,995,1000,1003,1007,1010,1012,1018,1023,1025,1027,1028,1029,1029,1029,1031,1033,1038,1042,1047,1049,1051,1066],"ymouse":[525,525,528,528,529,529,529,529,529,529,529,529,529,529,529,529,529,529,529,529,529,529,529,529,529,529,529,529,529,529,529,529,529,529,529,529,529,529,529,528,520,478,446,411,387,365,330,315,292,272,255,227,220,213,209,203,191,184,176,171,163,152,147,140,134,129,116,110,108,103,101,99,98,95,93,88,79,74,69,67,64,52],"timestamp_mouse":[1,20,39,65,79,100,121,139,160,179,201,220,239,259,279,300,320,340,361,380,399,420,440,460,479,500,521,539,559,580,599,620,640,661,680,699,720,739,759,780,800,819,839,860,879,900,920,940,960,979,1000,1019,1039,1059,1079,1099,1119,1141,1159,1180,1199,1219,1239,1260,1280,1300,1319,1339,1360,1380,1400,1420,1440,1460,1480,1499,1519,1541,1559,1579,1599,1619],"xSR":741.5,"ySR":469.95,"xT1":424.9,"yT1":0,"xT2":1058.1,"yT2":0,"toosoon":0,"cond_shown":"equaldotanddens","ratio_trial":500,"smaller_num":"1","larger_num":"2","correct_side":2,"subjID":"isabellamurillourrea28","gender":"1","age":"11","school":"6"},{"start_time":1551900380337,"click_time":1551900381853,"finger_time":1551900381431,"fix_duration":585.2815172616171,"trial":16,"RT":1094,"MT":422,"sideResp":1,"stimulus":"img/750/equaldotsize/L/6_Ratio_750_L_24_R_18.png","xmouse":[800,800,800,800,800,800,800,800,800,800,800,800,800,800,800,800,800,800,800,800,800,800,800,800,800,800,800,800,800,800,800,800,800,800,800,800,800,800,800,800,800,800,800,800,800,800,800,800,800,800,800,800,799,794,762,724,703,692,682,657,644,631,624,617,605,587,576,565,557,543,534,523,513,498,485,473],"ymouse":[523,523,523,523,523,523,523,523,523,523,523,523,523,523,523,523,523,523,523,523,523,523,523,523,523,523,523,523,523,523,523,523,523,523,523,523,523,523,523,523,523,523,523,523,523,523,523,523,524,524,524,524,519,509,456,405,379,366,351,319,307,298,292,285,273,260,252,244,240,227,214,194,169,136,104,64],"timestamp_mouse":[14,35,55,77,95,116,134,154,176,195,215,234,256,275,295,315,335,354,376,396,414,434,455,476,496,515,535,555,576,596,615,635,655,676,696,715,736,754,775,794,815,835,855,875,895,916,934,954,975,995,1015,1035,1054,1075,1094,1115,1134,1155,1175,1195,1214,1235,1254,1274,1295,1314,1335,1356,1375,1394,1414,1434,1455,1476,1494,1516],"xSR":741.5,"ySR":469.95,"xT1":424.9,"yT1":0,"xT2":1058.1,"yT2":0,"toosoon":0,"cond_shown":"equaldotsize","ratio_trial":750,"smaller_num":"18","larger_num":"24","correct_side":1,"subjID":"isabellamurillourrea28","gender":"1","age":"11","school":"6"},{"start_time":1551900383980,"click_time":1551900385212,"finger_time":1551900384733,"fix_duration":1285.3473019202872,"trial":17,"RT":753,"MT":479,"sideResp":2,"stimulus":"img/900/equaldotanddens/R/6_Ratio_900_L_9_R_10.png","xmouse":[810,810,810,810,810,810,810,810,810,810,810,810,810,810,810,810,810,810,810,810,810,810,810,810,810,810,810,810,810,810,810,810,810,810,810,816,835,881,898,910,924,935,961,971,979,985,992,998,1005,1007,1009,1011,1015,1021,1024,1029,1033,1037,1049,1053,1058,1062],"ymouse":[554,554,554,554,554,554,554,554,554,554,554,554,554,554,554,554,554,554,554,554,554,554,554,554,554,554,554,554,554,554,554,554,554,554,554,545,522,454,430,412,392,374,327,309,294,280,264,251,231,225,215,210,202,185,175,162,147,132,103,90,81,73],"timestamp_mouse":[11,32,67,72,92,112,131,152,173,192,212,233,253,272,293,313,331,351,371,391,412,432,453,473,492,512,531,551,571,593,612,632,651,671,691,712,731,753,771,792,812,831,853,871,891,912,932,952,971,993,1012,1033,1051,1071,1092,1112,1131,1151,1171,1191,1211,1232],"xSR":741.5,"ySR":469.95,"xT1":424.9,"yT1":0,"xT2":1058.1,"yT2":0,"toosoon":0,"cond_shown":"equaldotanddens","ratio_trial":900,"smaller_num":"9","larger_num":"10","correct_side":2,"subjID":"isabellamurillourrea28","gender":"1","age":"11","school":"6"},{"start_time":1551900387561,"click_time":1551900389133,"finger_time":1551900388512,"fix_duration":1067.6787001100013,"trial":18,"RT":951,"MT":621,"sideResp":1,"stimulus":"img/750/equaldotanddens/L/10_Ratio_750_L_4_R_3.png","xmouse":[795,795,795,795,795,795,795,795,795,795,795,795,795,795,795,795,795,795,795,795,795,795,795,795,795,795,795,795,795,795,795,795,795,795,795,795,795,795,795,795,795,795,795,795,794,786,766,734,695,661,606,586,579,574,557,544,529,515,505,500,500,500,500,497,494,490,488,487,485,483,483,483,483,483,483,483,483,483,483],"ymouse":[536,536,536,536,536,536,536,536,536,536,536,536,536,536,536,536,536,536,536,536,536,536,536,536,536,536,536,536,536,536,536,536,536,536,536,536,536,536,536,536,536,536,536,536,536,532,521,500,479,455,413,392,382,373,338,320,302,282,265,247,235,224,209,191,172,141,130,122,118,114,114,114,114,114,113,109,105,101,97],"timestamp_mouse":[19,46,51,72,92,111,131,151,171,190,211,230,251,271,290,311,332,350,370,390,411,432,451,471,491,510,531,550,570,591,610,631,652,670,690,710,731,752,770,791,812,832,852,870,890,910,931,951,972,991,1011,1030,1051,1070,1090,1110,1131,1150,1171,1191,1210,1230,1251,1271,1290,1310,1331,1351,1371,1390,1412,1430,1451,1471,1490,1511,1531,1550,1572],"xSR":741.5,"ySR":469.95,"xT1":424.9,"yT1":0,"xT2":1058.1,"yT2":0,"toosoon":0,"cond_shown":"equaldotanddens","ratio_trial":750,"smaller_num":"3","larger_num":"4","correct_side":1,"subjID":"isabellamurillourrea28","gender":"1","age":"11","school":"6"},{"start_time":1551900391109,"click_time":1551900392592,"finger_time":1551900391931,"fix_duration":1016.8668782905768,"trial":19,"RT":822,"MT":661,"sideResp":2,"stimulus":"img/900/equaldotsize/R/15_Ratio_900_L_9_R_10.png","xmouse":[799,799,799,799,799,799,799,799,799,799,799,799,799,799,799,799,799,799,799,799,799,799,799,799,799,799,799,799,799,799,799,799,799,799,799,799,799,800,805,810,818,825,842,849,858,869,875,888,898,908,918,926,939,944,949,954,959,966,970,973,974,976,977,978,981,984,987,991,1004,1008,1015,1016,1043,1054,1063],"ymouse":[519,519,519,519,519,519,519,519,519,519,519,519,519,519,519,519,519,519,519,519,519,519,519,519,519,519,519,519,519,519,519,519,519,519,519,519,519,519,508,492,475,458,416,399,380,359,347,322,302,279,258,240,213,204,193,182,171,148,137,129,123,119,117,116,116,116,115,114,112,110,107,107,104,102,99],"timestamp_mouse":[9,23,51,62,83,102,123,143,164,183,202,223,244,262,284,302,323,342,363,383,402,422,443,463,484,504,523,542,564,584,603,623,643,664,684,702,723,742,762,782,803,822,843,862,882,904,923,943,962,983,1003,1023,1043,1062,1082,1104,1123,1144,1162,1183,1203,1224,1243,1263,1282,1303,1322,1342,1362,1383,1402,1423,1443,1462,1483],"xSR":741.5,"ySR":469.95,"xT1":424.9,"yT1":0,"xT2":1058.1,"yT2":0,"toosoon":0,"cond_shown":"equaldotsize","ratio_trial":900,"smaller_num":"9","larger_num":"10","correct_side":2,"subjID":"isabellamurillourrea28","gender":"1","age":"11","school":"6"},{"start_time":1551900394173,"click_time":1551900396033,"finger_time":1551900395332,"fix_duration":480.52363316196744,"trial":20,"RT":1159,"MT":701,"sideResp":2,"stimulus":"img/750/equaldotsize/R/2_Ratio_750_L_6_R_8.png","xmouse":[761,761,761,761,761,761,761,761,761,761,761,761,761,761,761,761,761,761,761,761,761,761,761,761,761,761,761,761,761,761,761,761,761,761,761,761,761,761,761,761,761,761,761,761,761,761,761,761,761,761,761,761,761,762,762,772,776,784,796,817,824,832,838,846,863,874,882,890,899,916,922,930,937,942,948,948,952,959,971,989,992,995,999,1002,1024,1035,1035,1035,1035,1039,1047,1055,1060],"ymouse":[566,566,566,566,566,566,566,566,566,566,566,566,566,566,566,566,566,566,566,566,566,566,566,566,566,566,566,566,566,566,566,566,566,566,566,566,566,566,566,566,566,566,566,566,567,567,567,567,567,567,567,567,567,567,567,543,519,469,433,367,344,318,291,266,218,186,164,145,129,105,96,88,80,76,73,73,73,71,67,62,60,59,58,57,54,52,52,52,52,52,52,52,52],"timestamp_mouse":[19,39,67,79,100,120,139,158,179,199,219,238,260,278,298,320,338,359,378,398,420,439,459,479,499,518,539,559,578,599,618,639,660,678,698,720,738,758,778,799,818,840,859,878,899,918,940,958,978,999,1018,1039,1059,1099,1099,1119,1140,1159,1178,1198,1219,1238,1259,1279,1299,1318,1338,1359,1378,1398,1419,1439,1459,1479,1498,1519,1540,1559,1579,1599,1619,1638,1658,1680,1698,1719,1738,1758,1778,1798,1818,1840,1860],"xSR":741.5,"ySR":469.95,"xT1":424.9,"yT1":0,"xT2":1058.1,"yT2":0,"toosoon":0,"cond_shown":"equaldotsize","ratio_trial":750,"smaller_num":"6","larger_num":"8","correct_side":2,"subjID":"isabellamurillourrea28","gender":"1","age":"11","school":"6"},{"start_time":1551900398712,"click_time":1551900399832,"finger_time":1551900399612,"fix_duration":1239.3959335511108,"trial":21,"RT":900,"MT":220,"sideResp":2,"stimulus":"img/900/equaldotanddens/R/3_Ratio_900_L_9_R_10.png","xmouse":[807,806,806,806,806,806,806,806,806,806,806,806,806,806,806,806,806,806,806,806,806,806,806,806,806,806,806,806,806,806,806,806,806,806,806,806,806,806,806,806,806,806,806,808,823,853,894,930,980,1015,1024,1036,1052,1087,1102,1112,1120],"ymouse":[552,552,552,552,552,552,552,552,552,552,552,552,552,552,552,552,552,552,552,552,552,552,552,552,552,552,552,552,552,552,552,552,552,552,552,552,552,552,552,552,552,552,551,532,496,440,388,347,304,270,252,232,209,158,132,107,85],"timestamp_mouse":[1,20,45,60,80,100,119,140,161,179,201,220,239,259,280,299,321,340,359,381,401,420,441,461,480,499,520,540,559,579,601,619,639,659,679,701,720,741,759,780,799,821,840,860,880,900,919,939,959,980,999,1020,1039,1060,1079,1100,1120],"xSR":741.5,"ySR":469.95,"xT1":424.9,"yT1":0,"xT2":1058.1,"yT2":0,"toosoon":0,"cond_shown":"equaldotanddens","ratio_trial":900,"smaller_num":"9","larger_num":"10","correct_side":2,"subjID":"isabellamurillourrea28","gender":"1","age":"11","school":"6"},{"start_time":1551900402578,"click_time":1551900405631,"finger_time":1551900403532,"fix_duration":1423.7094732206656,"trial":22,"RT":954,"MT":2099,"sideResp":2,"stimulus":"img/750/equaldotsize/R/7_Ratio_750_L_3_R_4.png","xmouse":[784,784,784,784,784,784,782,781,779,777,774,773,773,773,773,773,773,773,773,773,773,773,773,773,773,773,773,773,773,773,773,773,773,773,773,773,773,773,773,773,773,773,773,773,773,774,776,779,781,783,791,798,811,826,833,848,851,853,856,859,864,866,869,871,872,875,876,877,879,879,879,879,879,879,879,879,879,879,875,852,816,806,800,796,795,789,785,780,775,768,760,737,716,701,684,654,639,625,611,599,570,555,539,529,527,522,522,522,522,522,522,522,522,522,522,522,522,522,522,522,522,522,523,524,524,526,530,534,539,544,562,587,602,624,646,703,739,776,819,852,919,935,947,953,959,970,977,985,998,1011,1030,1048,1064],"ymouse":[505,505,505,505,505,505,505,505,505,505,506,506,506,506,506,506,506,506,506,506,506,506,506,506,506,506,506,506,506,506,506,506,506,506,506,506,506,506,506,506,506,506,506,506,505,491,476,463,455,447,428,412,391,365,352,327,320,316,310,306,297,294,290,287,287,282,280,278,276,275,275,275,275,275,275,275,275,275,273,270,266,266,266,266,266,266,266,266,266,265,262,255,249,245,240,233,231,229,227,225,221,219,215,213,212,210,210,210,210,210,210,210,210,210,210,210,210,210,210,210,207,204,201,201,200,199,198,198,198,198,191,179,171,163,157,146,141,140,134,129,119,116,114,112,111,108,105,104,99,96,90,88,88],"timestamp_mouse":[15,35,55,73,93,113,133,153,173,194,214,234,254,274,294,314,334,355,373,394,414,434,455,475,494,513,533,554,573,595,614,633,654,674,693,715,735,754,774,793,813,833,854,875,894,914,933,954,973,994,1013,1035,1054,1074,1093,1114,1133,1155,1175,1194,1213,1233,1254,1274,1294,1313,1334,1354,1374,1394,1415,1434,1454,1473,1494,1513,1534,1554,1573,1594,1613,1634,1653,1674,1694,1715,1733,1755,1774,1794,1813,1834,1853,1874,1895,1914,1934,1954,1974,1995,2013,2034,2054,2073,2093,2113,2135,2154,2175,2194,2214,2234,2253,2274,2294,2313,2334,2354,2375,2394,2414,2435,2453,2473,2494,2513,2533,2554,2574,2593,2613,2633,2653,2673,2693,2713,2733,2754,2775,2794,2814,2835,2853,2873,2893,2913,2935,2953,2974,2995,3013,3035,3053],"xSR":741.5,"ySR":469.95,"xT1":424.9,"yT1":0,"xT2":1058.1,"yT2":0,"toosoon":0,"cond_shown":"equaldotsize","ratio_trial":750,"smaller_num":"3","larger_num":"4","correct_side":2,"subjID":"isabellamurillourrea28","gender":"1","age":"11","school":"6"},{"start_time":1551900407044,"click_time":1551900409073,"finger_time":1551900408512,"fix_duration":250,"trial":23,"RT":1468,"MT":561,"sideResp":1,"stimulus":"img/750/equaldotsize/L/10_Ratio_750_L_4_R_3.png","xmouse":[786,786,786,786,786,786,786,786,786,786,786,786,786,786,786,786,786,786,786,786,786,786,786,786,786,786,786,786,786,786,786,786,786,786,786,786,786,786,786,786,786,786,786,786,786,786,786,786,786,786,786,786,786,786,786,786,786,786,786,786,786,786,786,786,786,786,786,785,785,785,785,785,785,773,758,737,715,677,670,666,663,657,649,622,603,584,568,556,541,539,538,536,536,536,536,536,535,531,508,498,492,486],"ymouse":[532,532,532,532,532,532,532,532,532,532,532,532,532,532,532,532,532,532,532,532,532,532,532,532,532,532,532,532,532,532,532,532,532,532,532,532,532,532,532,532,532,532,532,532,532,532,532,532,532,532,532,532,532,532,532,532,532,532,532,532,532,532,532,532,532,532,532,532,531,519,506,492,481,454,435,418,405,384,378,371,363,355,344,314,299,283,272,265,255,253,251,250,248,243,235,224,209,194,140,122,108,95],"timestamp_mouse":[14,29,48,69,88,107,127,147,168,187,207,227,249,269,287,307,327,347,369,388,407,429,449,467,488,509,529,548,568,587,608,628,648,667,688,708,727,747,768,787,809,829,847,868,887,908,928,947,969,988,1008,1028,1047,1068,1088,1108,1128,1147,1168,1188,1207,1228,1247,1269,1289,1309,1327,1348,1368,1387,1409,1428,1448,1468,1487,1507,1527,1548,1568,1587,1607,1627,1648,1668,1688,1708,1729,1748,1768,1787,1808,1828,1849,1867,1888,1908,1928,1948,1969,1987,2009,2029],"xSR":741.5,"ySR":469.95,"xT1":424.9,"yT1":0,"xT2":1058.1,"yT2":0,"toosoon":0,"cond_shown":"equaldotsize","ratio_trial":750,"smaller_num":"3","larger_num":"4","correct_side":1,"subjID":"isabellamurillourrea28","gender":"1","age":"11","school":"6"},{"start_time":1551900411194,"click_time":1551900412452,"finger_time":1551900411973,"fix_duration":819.1459917531753,"trial":24,"RT":779,"MT":479,"sideResp":2,"stimulus":"img/500/equaldotsize/R/14_Ratio_500_L_5_R_10.png","xmouse":[802,802,802,802,802,802,802,802,802,802,802,802,802,802,802,802,802,802,802,802,802,802,802,802,802,802,802,802,802,802,802,802,802,802,802,802,802,808,816,862,890,939,956,970,981,991,1007,1014,1022,1031,1045,1057,1060,1063,1063,1064,1065,1065,1065,1065,1065,1066,1069,1070],"ymouse":[537,537,537,537,537,537,537,537,537,537,537,537,537,537,537,537,537,537,537,537,537,537,537,537,537,537,537,537,537,537,537,537,537,537,537,537,537,521,501,426,389,341,323,300,282,263,234,219,204,191,169,149,140,135,130,126,124,124,124,123,121,110,104,95],"timestamp_mouse":[1,18,39,58,79,98,117,137,159,178,197,218,239,259,277,297,318,338,358,378,399,419,438,457,477,499,517,539,558,578,598,617,638,658,677,699,718,738,757,779,798,818,837,857,877,898,917,938,957,978,998,1017,1037,1059,1078,1099,1118,1139,1159,1178,1197,1218,1238,1257],"xSR":741.5,"ySR":469.95,"xT1":424.9,"yT1":0,"xT2":1058.1,"yT2":0,"toosoon":0,"cond_shown":"equaldotsize","ratio_trial":500,"smaller_num":"5","larger_num":"10","correct_side":2,"subjID":"isabellamurillourrea28","gender":"1","age":"11","school":"6"},{"start_time":1551900413966,"click_time":1551900415531,"finger_time":1551900414752,"fix_duration":492.6708000615675,"trial":25,"RT":786,"MT":779,"sideResp":2,"stimulus":"img/500/equaldotanddens/R/1_Ratio_500_L_9_R_18.png","xmouse":[814,814,814,814,814,814,814,814,814,814,814,814,814,814,814,814,814,814,814,814,814,814,814,814,814,814,814,814,814,814,814,814,814,814,814,814,814,814,814,814,815,820,829,845,849,851,851,853,854,855,856,858,865,870,874,879,886,895,917,929,940,961,980,993,1005,1016,1024,1034,1037,1037,1037,1037,1038,1039,1041,1043,1045,1053,1065],"ymouse":[505,505,505,505,505,505,505,505,505,505,505,505,505,505,505,505,505,505,505,505,505,505,505,505,505,505,505,505,505,505,505,505,505,505,505,505,505,492,476,464,447,427,404,367,354,344,337,329,327,324,319,314,296,287,279,270,258,246,221,209,198,180,162,152,142,133,126,118,114,114,114,114,113,112,109,107,103,82,55],"timestamp_mouse":[10,26,46,75,85,106,126,145,166,186,205,227,245,266,286,305,327,346,366,385,406,426,447,467,486,506,526,546,566,585,606,625,645,666,686,706,726,746,766,786,806,825,845,865,885,906,925,946,966,985,1007,1026,1045,1065,1087,1106,1126,1145,1165,1185,1205,1225,1245,1265,1286,1305,1327,1346,1365,1386,1406,1425,1446,1465,1486,1506,1527,1546,1565],"xSR":741.5,"ySR":469.95,"xT1":424.9,"yT1":0,"xT2":1058.1,"yT2":0,"toosoon":0,"cond_shown":"equaldotanddens","ratio_trial":500,"smaller_num":"9","larger_num":"18","correct_side":2,"subjID":"isabellamurillourrea28","gender":"1","age":"11","school":"6"},{"start_time":1551900416705,"click_time":1551900418112,"finger_time":1551900417511,"fix_duration":250,"trial":26,"RT":806,"MT":601,"sideResp":2,"stimulus":"img/250/equaldotanddens/R/11_Ratio_250_L_3_R_12.png","xmouse":[797,797,797,797,797,797,797,797,797,797,797,797,797,797,797,797,797,797,797,797,797,797,797,797,797,797,797,797,797,797,797,797,797,797,797,797,797,797,798,802,817,825,833,843,852,863,888,902,917,930,939,959,967,974,981,993,998,1001,1005,1011,1029,1033,1037,1041,1044,1050,1052,1055,1058,1060,1062],"ymouse":[535,535,535,535,535,535,535,535,535,535,535,535,535,535,535,535,535,535,535,535,535,535,535,535,535,535,535,535,535,535,535,535,535,535,535,535,535,535,521,509,459,443,426,411,395,375,334,314,298,286,278,257,245,232,219,199,193,188,185,178,151,143,136,130,124,115,112,107,103,101,97],"timestamp_mouse":[12,40,46,67,86,108,127,147,167,187,206,227,247,268,287,307,327,346,367,388,407,427,448,468,487,506,528,547,566,588,606,627,648,666,687,707,727,747,766,788,806,826,846,866,887,907,927,948,967,987,1007,1027,1046,1067,1087,1107,1126,1146,1166,1188,1207,1228,1247,1267,1287,1307,1326,1346,1366,1388,1407],"xSR":741.5,"ySR":469.95,"xT1":424.9,"yT1":0,"xT2":1058.1,"yT2":0,"toosoon":0,"cond_shown":"equaldotanddens","ratio_trial":250,"smaller_num":"3","larger_num":"12","correct_side":2,"subjID":"isabellamurillourrea28","gender":"1","age":"11","school":"6"},{"start_time":1551900419801,"click_time":1551900420951,"finger_time":1551900420552,"fix_duration":788.4480249618643,"trial":27,"RT":751,"MT":399,"sideResp":1,"stimulus":"img/250/equaldotanddens/L/5_Ratio_250_L_24_R_6.png","xmouse":[805,805,805,805,805,805,805,805,805,805,805,805,805,805,805,805,805,805,805,805,805,805,805,805,805,805,805,805,805,805,805,805,805,805,805,805,786,700,630,581,542,488,469,461,453,451,450,457,463,469,473,477,478,478,478,478,479,479],"ymouse":[524,524,524,524,524,524,524,524,524,524,524,524,524,524,524,524,524,524,524,524,524,524,524,524,524,524,524,524,524,524,524,524,524,524,524,524,523,502,481,467,456,433,420,411,391,378,337,294,248,214,190,161,147,143,128,118,100,95],"timestamp_mouse":[10,43,51,72,91,112,131,151,171,190,211,230,251,271,291,311,332,350,371,390,412,432,450,470,490,512,531,550,570,590,611,631,652,671,691,711,731,751,770,790,811,830,852,871,891,910,930,950,971,990,1011,1030,1051,1071,1090,1110,1130,1150],"xSR":741.5,"ySR":469.95,"xT1":424.9,"yT1":0,"xT2":1058.1,"yT2":0,"toosoon":0,"cond_shown":"equaldotanddens","ratio_trial":250,"smaller_num":"6","larger_num":"24","correct_side":1,"subjID":"isabellamurillourrea28","gender":"1","age":"11","school":"6"},{"start_time":1551900423146,"click_time":1551900425051,"finger_time":1551900423632,"fix_duration":1411.4726775462516,"trial":28,"RT":486,"MT":1419,"sideResp":1,"stimulus":"img/250/randomdotsizeEA/L/2_Ratio_250_L_16_R_4.png","xmouse":[827,827,827,827,827,827,827,827,827,827,827,827,827,827,827,827,827,827,827,827,827,827,827,827,832,834,838,838,839,839,839,839,839,835,812,796,775,763,750,730,722,716,714,711,708,702,699,695,691,686,686,686,686,686,686,686,686,686,686,686,686,686,686,686,686,686,686,686,686,686,686,686,686,685,673,651,635,622,608,583,570,559,546,536,522,521,520,519,519,516,514,513,512,510,505,500],"ymouse":[516,516,516,516,516,516,516,516,516,516,516,516,516,516,516,516,516,516,516,516,516,516,513,502,424,412,394,392,391,389,389,386,384,377,357,346,336,329,322,310,303,299,297,294,292,286,284,282,280,278,278,278,278,278,278,278,278,278,278,278,278,278,278,278,278,278,278,278,278,278,278,278,278,278,273,264,258,249,240,219,207,197,188,180,165,161,158,155,153,145,139,133,127,120,104,95],"timestamp_mouse":[16,28,45,66,85,107,125,147,166,185,207,227,245,266,286,306,327,345,366,387,405,425,446,467,486,505,525,546,565,586,607,625,645,666,686,705,725,747,766,786,807,827,846,867,885,907,925,945,965,986,1007,1027,1045,1065,1086,1106,1126,1146,1165,1186,1206,1225,1245,1265,1286,1305,1325,1346,1366,1386,1406,1426,1447,1466,1486,1505,1526,1546,1566,1586,1606,1627,1647,1667,1685,1707,1725,1746,1766,1785,1805,1826,1846,1865,1886,1905],"xSR":741.5,"ySR":469.95,"xT1":424.9,"yT1":0,"xT2":1058.1,"yT2":0,"toosoon":0,"cond_shown":"randomdotsizeEA","ratio_trial":250,"smaller_num":"4","larger_num":"16","correct_side":1,"subjID":"isabellamurillourrea28","gender":"1","age":"11","school":"6"},{"start_time":1551900426894,"click_time":1551900428352,"finger_time":1551900427573,"fix_duration":860.1275491245651,"trial":29,"RT":679,"MT":779,"sideResp":2,"stimulus":"img/500/equaldotanddens/R/12_Ratio_500_L_1_R_2.png","xmouse":[806,806,806,806,806,806,806,806,806,806,806,806,806,806,806,806,806,806,806,806,806,806,806,806,806,806,806,806,806,806,806,806,817,853,898,934,968,1016,1023,1025,1027,1027,1029,1032,1034,1039,1043,1046,1047,1048,1051,1057,1059,1061,1065,1069,1075,1077,1078,1078,1078,1078,1078,1078,1078,1078,1078,1078,1078,1078,1078,1078,1080],"ymouse":[543,543,543,543,543,543,543,543,543,543,543,543,543,543,543,543,543,543,543,543,543,543,543,543,543,543,543,543,543,543,543,543,523,457,394,345,300,241,228,222,217,214,207,200,193,184,174,168,166,164,158,144,137,132,125,115,105,101,100,100,100,100,100,100,100,100,100,100,100,100,100,100,93],"timestamp_mouse":[18,38,58,78,98,119,139,158,178,199,218,237,258,278,297,317,338,358,378,398,417,438,458,477,499,518,538,557,578,599,617,639,658,679,697,717,737,759,777,798,818,839,857,878,898,919,938,957,977,999,1018,1038,1058,1077,1098,1117,1138,1159,1178,1198,1218,1237,1258,1277,1297,1317,1339,1357,1377,1398,1418,1438,1458],"xSR":741.5,"ySR":469.95,"xT1":424.9,"yT1":0,"xT2":1058.1,"yT2":0,"toosoon":0,"cond_shown":"equaldotanddens","ratio_trial":500,"smaller_num":"1","larger_num":"2","correct_side":2,"subjID":"isabellamurillourrea28","gender":"1","age":"11","school":"6"},{"start_time":1551900429844,"click_time":1551900431452,"finger_time":1551900430991,"fix_duration":250,"trial":30,"RT":1147,"MT":461,"sideResp":1,"stimulus":"img/750/equaldotsize/L/10_Ratio_750_L_4_R_3.png","xmouse":[783,783,783,783,783,783,783,783,783,783,783,783,783,783,783,783,783,783,783,783,783,783,783,783,783,783,783,783,783,783,783,783,783,783,783,780,774,771,770,770,770,770,770,770,770,770,770,770,770,770,770,770,770,770,770,770,763,741,702,670,641,635,624,607,584,537,509,459,439,427,417,412,411,411,411,412,415,419,423,425,434],"ymouse":[536,536,536,536,536,536,536,536,536,536,536,536,536,536,536,536,536,536,536,536,536,536,536,536,536,536,536,536,536,536,536,536,536,536,536,533,517,512,508,508,508,508,508,508,508,508,508,508,508,508,508,508,508,508,508,508,501,482,454,435,416,411,406,396,379,340,316,273,255,244,225,215,205,201,194,174,154,138,128,118,97],"timestamp_mouse":[12,36,47,68,88,108,127,149,169,188,208,228,247,269,287,307,328,349,367,387,408,429,448,467,487,509,528,549,568,587,607,627,648,668,688,708,727,748,768,787,809,828,848,868,887,909,928,948,969,987,1007,1027,1048,1067,1087,1108,1128,1147,1168,1188,1207,1229,1247,1267,1287,1307,1328,1347,1367,1387,1407,1430,1449,1467,1487,1507,1527,1548,1568,1588,1608],"xSR":741.5,"ySR":469.95,"xT1":424.9,"yT1":0,"xT2":1058.1,"yT2":0,"toosoon":0,"cond_shown":"equaldotsize","ratio_trial":750,"smaller_num":"3","larger_num":"4","correct_side":1,"subjID":"isabellamurillourrea28","gender":"1","age":"11","school":"6"},{"start_time":1551900433934,"click_time":1551900436712,"finger_time":1551900436031,"fix_duration":1401.9235025637486,"trial":31,"RT":2097,"MT":681,"sideResp":1,"stimulus":"img/900/randomdotsizeEA/L/2_Ratio_900_L_20_R_18.png","xmouse":[796,796,796,796,796,796,796,796,796,796,796,796,796,796,796,796,796,796,796,796,796,796,796,796,796,796,796,796,796,796,796,796,796,796,796,796,796,796,796,796,796,796,796,796,796,796,796,796,796,796,796,796,796,796,796,796,796,796,796,796,796,796,796,796,796,796,796,796,796,796,796,796,796,796,796,796,796,796,796,796,796,796,796,796,796,796,796,796,796,796,796,796,796,796,796,796,796,796,796,798,804,821,831,837,843,848,852,853,855,855,858,866,868,871,871,871,853,837,823,811,779,766,752,731,707,618,576,539,499,480,463,443,439,438,438,438,438,438,440],"ymouse":[545,545,545,545,545,545,545,545,545,545,545,545,545,545,545,545,545,545,545,545,545,545,545,545,545,545,545,545,545,545,545,545,545,545,545,545,545,545,545,545,545,545,545,545,545,545,545,545,545,545,545,545,545,545,545,545,545,545,545,545,545,545,545,545,545,545,545,545,545,545,545,545,545,545,545,545,545,545,545,545,545,545,545,545,545,545,545,545,545,545,545,545,545,545,545,545,545,545,545,542,534,509,498,491,483,477,473,471,468,468,459,441,431,422,413,405,378,364,352,341,315,305,295,282,269,219,197,177,153,143,131,117,113,111,111,111,107,103,95],"timestamp_mouse":[18,37,61,78,98,117,138,159,178,197,217,239,259,278,297,318,339,358,378,398,418,438,457,478,498,519,538,558,577,598,618,638,657,678,698,718,738,759,778,798,817,837,859,877,898,918,937,958,978,998,1017,1039,1058,1078,1098,1119,1137,1157,1178,1199,1217,1239,1257,1279,1299,1319,1338,1359,1378,1398,1418,1438,1457,1478,1497,1519,1539,1558,1579,1598,1619,1639,1658,1678,1699,1719,1738,1759,1777,1798,1818,1838,1858,1879,1897,1917,1939,1958,1978,1998,2018,2038,2058,2078,2097,2118,2138,2159,2178,2199,2218,2238,2257,2278,2298,2318,2337,2358,2377,2397,2419,2438,2457,2478,2498,2519,2538,2558,2578,2598,2619,2639,2657,2678,2698,2717,2737,2758,2778],"xSR":741.5,"ySR":469.95,"xT1":424.9,"yT1":0,"xT2":1058.1,"yT2":0,"toosoon":0,"cond_shown":"randomdotsizeEA","ratio_trial":900,"smaller_num":"18","larger_num":"20","correct_side":1,"subjID":"isabellamurillourrea28","gender":"1","age":"11","school":"6"},{"start_time":1551900438902,"click_time":1551900440251,"finger_time":1551900439832,"fix_duration":929.8740253826775,"trial":32,"RT":930,"MT":419,"sideResp":2,"stimulus":"img/900/equaldotanddens/R/14_Ratio_900_L_18_R_20.png","xmouse":[773,773,773,773,773,773,773,773,773,773,773,773,773,773,773,773,773,773,773,773,773,773,773,773,773,773,773,773,773,773,773,773,773,773,773,773,773,773,773,773,773,773,773,781,793,808,822,832,851,859,876,890,901,921,929,937,946,956,976,985,996,1006,1019,1051,1064,1072,1077,1082],"ymouse":[528,528,528,528,528,528,528,528,528,528,528,528,528,528,528,528,528,528,528,528,528,528,528,528,528,528,528,528,528,528,528,528,528,528,528,528,528,528,528,528,528,528,528,518,497,473,454,440,415,404,380,360,342,307,295,283,271,258,236,226,213,202,189,154,135,120,109,99],"timestamp_mouse":[9,31,50,70,91,110,131,150,170,190,211,230,251,271,290,310,329,349,371,391,410,429,449,470,491,511,529,550,571,590,609,629,650,670,690,709,731,751,771,790,809,831,850,870,889,910,930,950,970,990,1010,1031,1050,1069,1089,1110,1130,1151,1170,1191,1210,1229,1249,1269,1291,1311,1329,1349],"xSR":741.5,"ySR":469.95,"xT1":424.9,"yT1":0,"xT2":1058.1,"yT2":0,"toosoon":0,"cond_shown":"equaldotanddens","ratio_trial":900,"smaller_num":"18","larger_num":"20","correct_side":2,"subjID":"isabellamurillourrea28","gender":"1","age":"11","school":"6"},{"start_time":1551900444035,"click_time":1551900446851,"finger_time":1551900445052,"fix_duration":1261.5926237020817,"trial":33,"RT":1017,"MT":1799,"sideResp":2,"stimulus":"img/900/equaldotsize/R/5_Ratio_900_L_9_R_10.png","xmouse":[771,771,771,771,771,771,771,771,771,771,771,771,772,773,773,773,774,776,777,778,779,779,779,779,779,779,779,779,779,779,779,779,779,779,779,779,779,779,779,779,779,779,779,779,779,779,779,777,768,757,741,733,718,708,699,688,675,667,659,651,640,627,617,615,614,614,614,614,614,614,614,614,614,612,611,610,606,604,602,602,602,602,602,602,602,601,600,592,588,584,580,578,578,578,578,578,578,578,578,578,577,576,575,575,575,575,575,576,577,579,585,588,599,603,610,621,639,645,657,667,688,702,730,745,760,776,792,833,860,886,927,948,982,995,1005,1015,1022,1035,1046,1054,1064],"ymouse":[500,500,500,500,500,500,500,500,500,502,502,504,505,505,506,506,507,509,510,511,512,512,512,512,512,512,512,512,512,512,512,512,512,512,512,512,512,512,512,512,512,512,512,512,512,512,512,506,496,486,474,465,448,436,419,400,358,333,308,288,270,251,239,238,237,237,237,237,237,237,237,237,236,231,230,228,223,219,217,217,217,217,217,217,217,216,213,202,196,192,187,185,185,185,185,185,185,185,185,183,176,170,167,163,158,154,145,141,137,134,127,123,115,111,107,102,94,88,82,78,72,69,66,64,62,60,60,60,60,61,68,70,75,77,79,80,81,81,81,81,79],"timestamp_mouse":[17,38,67,77,98,117,138,158,178,197,216,237,258,277,296,318,337,357,377,397,417,437,458,477,497,516,537,557,578,597,616,638,658,678,696,717,737,757,778,798,817,837,858,878,897,917,937,956,977,996,1017,1038,1057,1076,1097,1117,1139,1156,1178,1197,1217,1237,1257,1276,1297,1318,1337,1358,1376,1397,1416,1437,1456,1476,1497,1517,1539,1557,1577,1597,1617,1637,1658,1678,1698,1718,1737,1756,1777,1797,1818,1838,1856,1877,1896,1918,1938,1958,1976,1997,2017,2039,2057,2077,2097,2117,2139,2157,2177,2197,2218,2237,2258,2276,2297,2317,2338,2356,2377,2397,2416,2437,2457,2478,2498,2517,2537,2556,2577,2597,2617,2637,2656,2677,2697,2716,2738,2757,2778,2797,2816],"xSR":741.5,"ySR":469.95,"xT1":424.9,"yT1":0,"xT2":1058.1,"yT2":0,"toosoon":0,"cond_shown":"equaldotsize","ratio_trial":900,"smaller_num":"9","larger_num":"10","correct_side":2,"subjID":"isabellamurillourrea28","gender":"1","age":"11","school":"6"},{"start_time":1551900449121,"click_time":1551900450992,"finger_time":1551900450652,"fix_duration":1426.0397382926296,"trial":34,"RT":1531,"MT":340,"sideResp":2,"stimulus":"img/500/randomdotsizeEA/R/3_Ratio_500_L_10_R_20.png","xmouse":[791,791,791,791,791,791,791,791,791,791,791,791,791,791,791,791,791,791,791,791,791,791,791,791,791,791,791,791,791,791,791,791,791,791,791,791,791,791,791,791,791,791,791,791,791,791,791,791,791,791,791,791,791,791,791,791,791,791,791,791,791,791,791,791,791,791,791,791,791,791,791,792,794,814,821,829,837,846,853,866,871,876,881,891,904,912,919,928,947,966,993,1020,1040,1060],"ymouse":[549,549,549,549,549,549,549,549,549,549,549,549,549,549,549,549,549,549,549,549,549,549,549,549,549,549,549,549,549,549,549,549,549,549,549,549,549,549,549,549,549,549,549,549,549,549,549,549,549,549,549,549,549,549,549,549,549,549,549,549,549,549,549,549,549,549,549,549,549,549,549,547,542,507,491,476,462,447,434,409,399,390,380,359,342,334,324,312,283,249,192,147,110,76],"timestamp_mouse":[10,42,51,71,90,112,132,151,170,191,212,232,251,272,291,311,330,352,372,390,411,432,452,471,492,511,531,552,572,590,610,631,652,675,691,711,731,751,771,790,812,832,851,871,891,912,931,951,970,990,1011,1031,1050,1072,1091,1110,1132,1151,1172,1192,1212,1232,1251,1272,1291,1311,1331,1352,1371,1390,1411,1431,1450,1471,1492,1511,1531,1551,1571,1591,1611,1631,1652,1671,1690,1710,1731,1751,1771,1792,1811,1831,1851,1871],"xSR":741.5,"ySR":469.95,"xT1":424.9,"yT1":0,"xT2":1058.1,"yT2":0,"toosoon":0,"cond_shown":"randomdotsizeEA","ratio_trial":500,"smaller_num":"10","larger_num":"20","correct_side":2,"subjID":"isabellamurillourrea28","gender":"1","age":"11","school":"6"},{"start_time":1551900452474,"click_time":1551900453951,"finger_time":1551900453272,"fix_duration":640.9003054529489,"trial":35,"RT":798,"MT":679,"sideResp":1,"stimulus":"img/250/equaldotsize/L/5_Ratio_250_L_24_R_6.png","xmouse":[754,754,754,754,754,754,754,754,754,754,754,754,754,754,754,754,754,754,754,754,754,754,754,754,754,754,754,754,754,754,754,754,754,754,754,754,754,751,745,724,698,653,642,640,639,639,639,636,634,631,626,623,618,616,613,604,593,583,574,563,553,537,526,516,510,508,508,508,508,508,508,508,507,505],"ymouse":[523,523,523,523,523,523,523,523,523,523,523,523,523,523,523,523,523,523,523,523,523,523,523,523,523,523,523,523,523,523,523,523,523,523,523,523,523,522,512,471,407,304,269,242,219,195,176,165,155,146,133,129,125,123,121,118,116,114,112,110,109,107,106,103,103,103,103,103,103,103,103,103,102,98],"timestamp_mouse":[17,46,58,79,98,119,139,159,179,198,217,239,257,278,299,318,337,359,379,397,418,438,457,478,497,518,538,557,578,599,618,639,659,677,697,718,737,758,778,798,818,838,858,877,897,917,937,958,978,999,1019,1039,1058,1077,1098,1119,1139,1158,1178,1197,1218,1237,1258,1278,1299,1319,1339,1358,1378,1398,1419,1438,1459,1477],"xSR":741.5,"ySR":469.95,"xT1":424.9,"yT1":0,"xT2":1058.1,"yT2":0,"toosoon":0,"cond_shown":"equaldotsize","ratio_trial":250,"smaller_num":"6","larger_num":"24","correct_side":1,"subjID":"isabellamurillourrea28","gender":"1","age":"11","school":"6"},{"start_time":1551900455539,"click_time":1551900457453,"finger_time":1551900457111,"fix_duration":726.392608582844,"trial":36,"RT":1572,"MT":342,"sideResp":2,"stimulus":"img/900/equaldotsize/L/4_Ratio_900_L_20_R_18.png","xmouse":[786,786,786,786,786,786,786,786,786,786,786,786,786,786,786,786,786,786,786,786,786,786,786,786,786,786,786,786,786,786,786,786,786,786,786,786,786,786,786,786,786,786,786,786,786,786,786,786,786,786,786,786,786,786,786,786,786,786,786,786,786,786,786,786,786,786,786,786,786,786,786,786,790,797,803,810,817,827,850,864,881,887,893,907,917,930,944,963,998,1013,1020,1029,1038,1054,1061,1065],"ymouse":[517,517,517,517,517,517,517,517,517,517,517,517,517,517,517,517,517,517,517,517,517,517,517,517,517,517,517,517,517,517,517,517,517,517,517,517,517,517,517,517,517,517,517,517,517,517,517,517,517,517,517,517,517,517,517,517,517,517,517,517,517,517,517,517,517,517,517,517,517,517,517,517,516,509,504,498,490,478,447,429,407,399,390,369,352,328,304,276,215,189,176,160,145,117,106,99],"timestamp_mouse":[12,33,70,72,93,114,133,154,173,194,214,232,252,274,293,313,333,353,373,393,414,433,454,473,494,514,533,554,574,593,614,633,652,674,692,713,734,752,772,793,812,834,853,873,893,914,933,952,972,993,1014,1034,1053,1074,1092,1113,1134,1154,1173,1194,1214,1234,1254,1274,1293,1313,1332,1354,1374,1392,1413,1433,1453,1472,1493,1513,1533,1553,1572,1593,1612,1633,1652,1673,1694,1713,1733,1753,1772,1793,1812,1832,1853,1873,1893,1914],"xSR":741.5,"ySR":469.95,"xT1":424.9,"yT1":0,"xT2":1058.1,"yT2":0,"toosoon":0,"cond_shown":"equaldotsize","ratio_trial":900,"smaller_num":"18","larger_num":"20","correct_side":1,"subjID":"isabellamurillourrea28","gender":"1","age":"11","school":"6"},{"start_time":1551900458915,"click_time":1551900460751,"finger_time":1551900459912,"fix_duration":641.0644920141767,"trial":37,"RT":997,"MT":839,"sideResp":2,"stimulus":"img/500/randomdotsizeEA/R/6_Ratio_500_L_9_R_18.png","xmouse":[750,750,750,750,750,750,750,750,750,750,750,750,750,750,750,750,750,750,750,750,750,750,750,750,750,750,750,750,750,750,750,750,750,750,750,750,750,750,750,750,750,750,750,750,750,750,750,750,752,762,764,766,768,770,776,780,786,794,804,832,842,856,878,902,958,986,1006,1019,1040,1064,1074,1083,1090,1097,1102,1104,1106,1108,1109,1109,1110,1110,1110,1110,1110,1110,1110,1110,1110,1110,1110,1110],"ymouse":[517,517,517,517,517,517,517,517,517,517,517,517,517,517,517,517,517,517,517,517,517,517,517,517,517,517,517,517,517,517,517,517,517,517,517,517,517,517,517,517,517,517,517,517,511,504,500,495,486,458,454,448,444,438,420,411,398,383,367,333,322,308,291,272,227,207,192,183,167,149,140,133,128,122,117,114,111,109,107,105,104,104,103,103,103,103,103,103,103,103,102,98],"timestamp_mouse":[18,38,57,78,96,116,138,158,176,197,216,238,258,276,296,318,337,357,378,397,418,438,458,477,497,517,537,556,576,597,618,637,657,676,697,718,737,757,778,797,817,837,858,877,896,917,936,957,977,997,1018,1037,1056,1076,1097,1116,1136,1156,1178,1197,1217,1236,1257,1276,1297,1316,1337,1357,1377,1397,1417,1436,1457,1477,1498,1517,1537,1557,1576,1597,1617,1638,1657,1677,1697,1717,1738,1757,1778,1797,1817,1836],"xSR":741.5,"ySR":469.95,"xT1":424.9,"yT1":0,"xT2":1058.1,"yT2":0,"toosoon":0,"cond_shown":"randomdotsizeEA","ratio_trial":500,"smaller_num":"9","larger_num":"18","correct_side":2,"subjID":"isabellamurillourrea28","gender":"1","age":"11","school":"6"},{"start_time":1551900464249,"click_time":1551900465751,"finger_time":1551900465112,"fix_duration":876.8253678401205,"trial":38,"RT":863,"MT":639,"sideResp":2,"stimulus":"img/750/equaldotanddens/R/4_Ratio_750_L_15_R_20.png","xmouse":[785,785,785,785,785,785,785,785,785,785,785,785,785,785,785,785,785,785,785,785,785,785,785,785,785,785,785,785,785,785,785,785,785,785,785,785,785,785,785,785,790,799,804,821,843,855,867,882,901,930,942,953,965,970,977,981,987,993,1000,1015,1024,1036,1042,1044,1046,1046,1046,1046,1048,1049,1049,1050,1050,1052,1057,1059],"ymouse":[511,511,511,511,511,511,511,511,511,511,511,511,511,511,511,511,511,511,511,511,511,511,511,511,511,511,511,511,511,511,511,511,511,511,511,511,511,511,511,511,500,486,478,457,426,409,393,371,344,298,277,257,237,227,215,207,198,186,173,149,136,120,112,108,106,106,106,106,105,105,105,104,103,101,95,92],"timestamp_mouse":[11,24,44,69,83,103,123,142,163,184,204,224,242,264,284,302,322,343,363,384,403,424,444,464,483,504,524,543,562,584,603,624,643,664,683,702,724,743,763,782,803,824,843,863,883,903,922,942,964,982,1002,1023,1043,1063,1082,1103,1124,1143,1164,1182,1203,1223,1244,1263,1283,1304,1323,1342,1363,1384,1403,1422,1443,1463,1483,1502],"xSR":741.5,"ySR":469.95,"xT1":424.9,"yT1":0,"xT2":1058.1,"yT2":0,"toosoon":0,"cond_shown":"equaldotanddens","ratio_trial":750,"smaller_num":"15","larger_num":"20","correct_side":2,"subjID":"isabellamurillourrea28","gender":"1","age":"11","school":"6"},{"start_time":1551900468105,"click_time":1551900469433,"finger_time":1551900469053,"fix_duration":1431.478726791439,"trial":39,"RT":948,"MT":380,"sideResp":1,"stimulus":"img/250/randomdotsizeEA/L/7_Ratio_250_L_8_R_2.png","xmouse":[786,786,786,786,786,786,786,786,786,786,786,786,786,786,786,786,786,786,786,786,786,786,786,786,786,786,786,786,786,786,786,786,786,786,786,786,786,786,786,786,786,786,786,786,786,785,781,743,735,733,731,721,714,704,696,685,684,670,659,646,633,611,602,588,564,537,490],"ymouse":[534,534,534,534,534,534,534,534,534,534,534,534,534,534,534,534,534,534,534,534,534,534,534,534,534,534,534,534,534,534,534,534,534,534,534,534,534,534,534,534,534,534,534,534,534,535,526,444,431,425,421,401,387,368,354,332,328,303,286,268,250,220,201,174,134,86,25],"timestamp_mouse":[9,40,47,68,88,106,126,148,166,187,208,228,246,267,287,308,327,347,368,387,408,426,446,467,487,508,527,547,567,588,608,626,647,668,688,708,726,748,767,788,807,827,848,867,888,908,927,948,966,987,1006,1027,1047,1067,1087,1108,1126,1146,1167,1188,1207,1227,1246,1268,1287,1306,1328],"xSR":741.5,"ySR":469.95,"xT1":424.9,"yT1":0,"xT2":1058.1,"yT2":0,"toosoon":0,"cond_shown":"randomdotsizeEA","ratio_trial":250,"smaller_num":"2","larger_num":"8","correct_side":1,"subjID":"isabellamurillourrea28","gender":"1","age":"11","school":"6"},{"start_time":1551900471838,"click_time":1551900473312,"finger_time":1551900472752,"fix_duration":1424.300832906065,"trial":40,"RT":914,"MT":560,"sideResp":1,"stimulus":"img/250/equaldotanddens/L/2_Ratio_250_L_16_R_4.png","xmouse":[774,774,774,774,774,774,774,774,774,774,774,774,774,774,774,774,774,774,774,774,774,774,774,774,774,774,774,774,774,774,774,774,774,774,774,774,774,774,774,774,774,774,774,765,755,685,647,586,543,508,453,435,425,417,410,398,394,392,390,390,394,396,400,402,404,408,414,416,424,427,435,440,448,454],"ymouse":[528,528,528,528,528,528,528,528,528,528,528,528,528,528,528,528,528,528,528,528,528,528,528,528,528,528,528,528,528,528,528,528,528,528,528,528,528,528,528,528,528,528,528,519,514,483,466,440,422,406,382,370,362,354,345,313,292,275,253,243,218,206,194,185,177,164,153,148,138,132,121,114,102,92],"timestamp_mouse":[14,49,53,74,95,113,133,154,175,194,214,233,255,275,294,314,334,354,375,394,415,435,454,475,494,514,533,554,573,595,615,634,654,674,694,714,734,755,775,795,815,835,854,874,895,914,935,953,974,993,1013,1033,1054,1074,1094,1114,1134,1154,1175,1193,1214,1234,1254,1274,1294,1313,1335,1353,1373,1394,1414,1434,1454,1474],"xSR":741.5,"ySR":469.95,"xT1":424.9,"yT1":0,"xT2":1058.1,"yT2":0,"toosoon":0,"cond_shown":"equaldotanddens","ratio_trial":250,"smaller_num":"4","larger_num":"16","correct_side":1,"subjID":"isabellamurillourrea28","gender":"1","age":"11","school":"6"},{"start_time":1551900475165,"click_time":1551900476293,"finger_time":1551900475832,"fix_duration":250,"trial":41,"RT":667,"MT":461,"sideResp":2,"stimulus":"img/900/equaldotsize/R/5_Ratio_900_L_9_R_10.png","xmouse":[765,765,765,765,765,765,765,765,765,765,765,765,765,765,765,765,765,765,765,765,765,765,765,765,765,765,765,765,765,766,771,775,781,789,808,819,829,840,847,875,888,898,910,922,946,958,965,972,981,1002,1008,1013,1018,1025,1041,1053,1063],"ymouse":[520,520,520,520,520,520,520,520,520,520,520,520,520,520,520,520,520,520,520,520,520,520,520,520,520,520,520,520,520,518,502,493,483,469,435,417,398,378,358,302,277,257,235,215,177,161,148,135,122,96,89,84,77,69,53,45,38],"timestamp_mouse":[20,43,47,67,87,108,128,147,166,187,207,227,247,267,287,307,327,348,367,386,406,428,448,467,488,507,527,548,567,586,608,627,648,667,687,706,727,747,767,787,807,827,847,866,887,907,927,947,968,986,1007,1026,1046,1067,1087,1107,1128],"xSR":741.5,"ySR":469.95,"xT1":424.9,"yT1":0,"xT2":1058.1,"yT2":0,"toosoon":0,"cond_shown":"equaldotsize","ratio_trial":900,"smaller_num":"9","larger_num":"10","correct_side":2,"subjID":"isabellamurillourrea28","gender":"1","age":"11","school":"6"},{"start_time":1551900478834,"click_time":1551900479953,"finger_time":1551900479571,"fix_duration":1299.275463657745,"trial":42,"RT":737,"MT":382,"sideResp":2,"stimulus":"img/750/equaldotsize/R/11_Ratio_750_L_12_R_16.png","xmouse":[766,766,766,766,766,766,766,766,766,766,766,766,766,766,766,766,766,766,766,766,766,766,766,766,766,766,766,766,766,766,766,766,766,766,770,783,808,820,831,840,865,882,905,939,982,1013,1022,1028,1032,1038,1043,1056,1066,1073,1078,1083],"ymouse":[538,538,538,538,538,538,538,538,538,538,538,538,538,538,538,538,538,538,538,538,538,538,538,538,538,538,538,538,538,538,538,538,538,538,534,510,468,446,427,410,373,350,321,283,241,207,192,183,174,165,154,133,119,110,103,96],"timestamp_mouse":[18,39,69,77,98,119,137,157,179,198,218,238,257,278,299,318,338,358,377,397,418,439,458,478,498,518,539,558,577,599,619,638,658,678,698,717,737,758,777,797,819,838,858,878,898,919,937,959,978,999,1018,1038,1057,1078,1098,1119],"xSR":741.5,"ySR":469.95,"xT1":424.9,"yT1":0,"xT2":1058.1,"yT2":0,"toosoon":0,"cond_shown":"equaldotsize","ratio_trial":750,"smaller_num":"12","larger_num":"16","correct_side":2,"subjID":"isabellamurillourrea28","gender":"1","age":"11","school":"6"},{"start_time":1551900483538,"click_time":1551900485153,"finger_time":1551900484512,"fix_duration":1345.3782861970733,"trial":43,"RT":974,"MT":641,"sideResp":2,"stimulus":"img/500/randomdotsizeEA/R/12_Ratio_500_L_1_R_2.png","xmouse":[784,784,784,784,784,784,784,784,784,784,784,784,784,784,784,784,784,784,784,784,784,784,784,784,784,784,784,784,784,784,784,784,784,784,784,784,784,784,784,784,784,784,784,784,784,784,798,809,819,822,824,830,834,841,846,851,856,859,860,861,862,867,869,871,874,880,892,910,921,932,941,964,975,987,998,1011,1042,1051,1055,1059,1061],"ymouse":[529,529,529,529,529,529,529,529,529,529,529,529,529,529,529,529,529,529,529,529,529,529,529,529,529,529,529,529,529,529,529,529,529,529,529,529,529,529,529,529,529,529,529,529,529,527,503,484,467,460,456,446,435,425,415,407,394,390,386,384,381,373,369,363,358,349,326,299,285,270,258,229,216,200,183,164,123,112,106,101,97],"timestamp_mouse":[15,33,64,74,95,114,133,153,175,194,214,234,255,273,295,315,335,355,379,395,413,433,453,475,494,514,534,553,574,593,614,633,655,673,695,714,734,754,774,794,814,833,854,875,895,914,934,954,974,994,1014,1033,1054,1074,1095,1115,1134,1153,1174,1195,1214,1234,1254,1273,1293,1314,1334,1353,1373,1394,1413,1434,1454,1474,1495,1514,1533,1554,1573,1595,1615],"xSR":741.5,"ySR":469.95,"xT1":424.9,"yT1":0,"xT2":1058.1,"yT2":0,"toosoon":0,"cond_shown":"randomdotsizeEA","ratio_trial":500,"smaller_num":"1","larger_num":"2","correct_side":2,"subjID":"isabellamurillourrea28","gender":"1","age":"11","school":"6"},{"start_time":1551900487118,"click_time":1551900488992,"finger_time":1551900487972,"fix_duration":944.0728086229093,"trial":44,"RT":854,"MT":1020,"sideResp":2,"stimulus":"img/500/equaldotsize/R/3_Ratio_500_L_10_R_20.png","xmouse":[800,800,800,800,800,800,800,800,800,800,800,800,800,800,800,800,800,800,800,800,800,800,800,800,800,800,800,800,800,800,800,800,800,800,800,800,800,800,800,801,804,811,817,831,841,850,859,873,887,893,898,905,915,920,929,934,946,970,974,977,982,988,996,1013,1018,1023,1028,1030,1030,1030,1030,1030,1030,1030,1030,1030,1030,1030,1030,1030,1030,1030,1030,1030,1030,1030,1030,1031,1042,1045,1049,1049,1049,1062],"ymouse":[518,518,518,518,518,518,518,518,518,518,518,518,518,518,518,518,518,518,518,518,518,518,518,518,518,518,518,518,518,518,518,518,518,518,518,518,518,518,518,514,503,482,458,421,398,376,356,325,297,287,276,266,248,239,227,219,204,176,169,165,158,150,139,120,112,107,99,93,92,92,92,92,92,92,92,92,92,92,92,92,92,92,92,92,92,92,92,92,85,83,81,81,81,80],"timestamp_mouse":[14,45,54,75,95,115,133,154,174,193,215,235,254,273,293,313,335,354,374,395,415,434,453,474,495,515,535,554,575,595,614,635,654,675,694,714,735,755,774,795,813,834,854,874,895,915,935,954,975,994,1014,1034,1056,1074,1094,1114,1134,1155,1174,1195,1213,1234,1255,1274,1294,1313,1334,1354,1374,1395,1415,1435,1454,1474,1494,1514,1534,1555,1575,1595,1614,1633,1655,1674,1694,1715,1734,1755,1775,1793,1814,1833,1855,1873],"xSR":741.5,"ySR":469.95,"xT1":424.9,"yT1":0,"xT2":1058.1,"yT2":0,"toosoon":0,"cond_shown":"equaldotsize","ratio_trial":500,"smaller_num":"10","larger_num":"20","correct_side":2,"subjID":"isabellamurillourrea28","gender":"1","age":"11","school":"6"},{"start_time":1551900490361,"click_time":1551900494292,"finger_time":1551900493951,"fix_duration":567.1620622399677,"trial":45,"RT":3590,"MT":341,"sideResp":1,"stimulus":"img/900/equaldotsize/R/9_Ratio_900_L_18_R_20.png","xmouse":[768,768,768,768,768,768,768,768,768,768,768,768,768,768,768,768,768,768,768,768,768,768,768,768,768,768,768,768,768,768,768,768,768,768,768,768,768,768,768,768,768,768,768,768,768,768,768,768,768,768,768,768,768,768,768,768,768,768,768,768,768,768,768,768,768,768,768,768,768,768,768,768,768,768,768,768,768,768,768,768,768,768,768,768,768,768,768,768,768,768,768,768,768,768,768,768,768,768,768,768,768,768,768,768,768,768,768,768,768,768,768,768,768,768,768,768,768,768,768,768,768,768,768,768,768,768,768,768,768,768,768,768,768,768,768,768,768,768,768,768,768,768,768,768,768,768,768,768,768,768,768,768,768,768,768,768,768,768,768,768,768,768,768,768,768,768,768,768,768,768,768,768,768,768,768,768,768,767,761,730,691,648,513,481,474,457,434,416,408,407,406,407,411,417,422,426,436],"ymouse":[519,519,519,519,519,519,519,519,519,519,519,519,519,519,519,519,519,519,519,519,519,519,519,519,519,519,519,519,519,519,519,519,519,519,519,519,519,519,519,519,519,519,519,519,519,519,519,519,519,519,519,519,519,519,519,519,519,519,519,519,519,519,519,519,519,519,519,519,519,519,519,519,519,519,519,519,519,519,519,519,519,519,519,519,519,519,519,519,519,519,519,519,519,519,519,519,519,519,519,519,519,519,519,519,519,519,519,519,519,519,519,519,519,519,519,519,519,519,519,519,519,519,519,519,519,519,519,519,519,519,519,519,519,519,519,519,519,519,519,519,519,519,519,519,519,519,519,519,519,519,519,519,519,519,519,519,519,519,519,519,519,519,519,519,519,519,519,519,519,519,519,519,519,519,519,519,519,518,507,458,406,357,239,215,208,193,171,154,145,141,138,132,127,118,112,106,93],"timestamp_mouse":[11,31,51,71,91,111,130,152,171,190,210,232,252,270,290,310,330,350,371,390,412,430,451,471,492,511,532,552,572,591,611,632,652,670,690,710,731,751,771,792,811,831,850,871,890,911,932,950,971,992,1011,1032,1051,1070,1091,1110,1130,1152,1171,1190,1211,1232,1251,1271,1292,1312,1331,1352,1371,1392,1411,1431,1451,1471,1490,1510,1532,1550,1570,1591,1611,1632,1651,1672,1692,1711,1731,1752,1770,1792,1811,1832,1851,1872,1890,1911,1932,1952,1971,1992,2012,2032,2051,2072,2091,2111,2131,2152,2170,2192,2212,2231,2250,2272,2292,2310,2331,2350,2372,2392,2412,2432,2451,2472,2491,2511,2532,2552,2571,2591,2610,2632,2651,2671,2691,2711,2732,2751,2772,2792,2811,2831,2852,2870,2892,2912,2931,2950,2972,2990,3010,3031,3052,3072,3091,3110,3132,3151,3171,3191,3212,3231,3251,3272,3291,3311,3331,3351,3371,3391,3410,3431,3452,3470,3491,3512,3531,3551,3571,3590,3610,3631,3652,3670,3690,3710,3731,3751,3771,3791,3812,3831,3851,3871,3892,3912,3930],"xSR":741.5,"ySR":469.95,"xT1":424.9,"yT1":0,"xT2":1058.1,"yT2":0,"toosoon":0,"cond_shown":"equaldotsize","ratio_trial":900,"smaller_num":"18","larger_num":"20","correct_side":2,"subjID":"isabellamurillourrea28","gender":"1","age":"11","school":"6"},{"start_time":1551900495462,"click_time":1551900496993,"finger_time":1551900496434,"fix_duration":327.98265724678663,"trial":46,"RT":972,"MT":559,"sideResp":2,"stimulus":"img/250/randomdotsizeEA/R/8_Ratio_250_L_1_R_4.png","xmouse":[820,820,820,820,820,820,820,820,820,820,820,820,820,820,820,820,820,820,820,820,820,820,820,820,820,820,820,820,820,820,820,820,820,820,820,820,820,820,820,820,820,820,821,822,822,823,826,831,835,838,842,854,865,878,898,915,969,982,993,1002,1012,1019,1023,1031,1031,1031,1031,1031,1031,1031,1031,1031,1031,1031,1031,1058,1059],"ymouse":[546,546,546,546,546,546,546,546,546,546,546,546,546,546,546,546,546,546,546,546,546,546,546,546,546,546,546,546,546,546,546,546,546,546,546,546,546,546,546,546,543,534,528,522,519,516,497,483,468,454,437,393,356,312,266,226,119,94,70,47,26,13,8,0,0,0,0,0,0,0,0,0,0,0,0,3,7],"timestamp_mouse":[11,31,51,71,91,112,131,152,171,191,212,232,251,271,291,312,331,352,371,391,411,432,451,471,492,511,532,552,571,592,611,631,652,672,691,712,731,751,772,792,811,831,851,871,891,912,931,951,972,991,1012,1032,1051,1071,1092,1111,1131,1151,1172,1191,1212,1232,1252,1271,1292,1311,1332,1351,1371,1391,1412,1432,1451,1471,1491,1511,1531],"xSR":741.5,"ySR":469.95,"xT1":424.9,"yT1":0,"xT2":1058.1,"yT2":0,"toosoon":0,"cond_shown":"randomdotsizeEA","ratio_trial":250,"smaller_num":"1","larger_num":"4","correct_side":2,"subjID":"isabellamurillourrea28","gender":"1","age":"11","school":"6"},{"start_time":1551900499158,"click_time":1551900502173,"finger_time":1551900501614,"fix_duration":342.7810243066273,"trial":47,"RT":2456,"MT":559,"sideResp":1,"stimulus":"img/750/randomdotsizeEA/L/1_Ratio_750_L_20_R_15.png","xmouse":[770,770,770,770,770,770,770,770,770,770,770,770,770,770,770,770,770,770,770,770,770,770,770,770,770,770,770,770,770,770,770,770,770,770,770,770,770,770,770,770,770,770,770,770,770,770,770,770,770,770,770,770,770,770,770,770,770,770,770,770,770,770,770,770,770,770,770,770,770,770,770,770,770,770,770,770,770,770,770,770,770,770,770,770,770,770,770,770,770,770,770,770,770,770,770,770,770,770,770,770,770,770,770,770,770,770,770,770,770,770,770,770,770,770,770,770,770,770,770,770,770,766,750,741,731,721,712,693,680,671,659,646,603,582,559,543,537,520,517,513,513,512,512,512,512,512,511,501,494,490,487],"ymouse":[514,514,514,514,514,514,514,514,514,514,514,514,514,514,514,514,514,514,514,514,514,514,514,514,514,514,514,514,514,514,514,514,514,514,514,514,514,514,514,514,514,514,514,514,514,514,514,514,514,514,514,514,514,514,514,514,514,514,514,514,514,514,514,514,514,514,514,514,514,514,514,514,514,514,514,514,514,514,514,514,514,514,514,514,514,514,514,514,514,514,514,514,514,514,514,514,514,514,514,514,514,514,514,514,514,514,514,514,514,514,514,514,514,514,514,514,514,514,514,514,510,502,468,454,441,426,414,387,368,352,335,315,260,227,196,174,162,135,130,126,125,124,124,124,124,124,122,113,105,101,98],"timestamp_mouse":[15,42,55,76,95,115,136,155,176,196,216,235,255,275,295,315,335,356,375,395,415,436,456,475,495,516,535,555,575,596,615,635,655,676,695,715,735,755,776,796,815,836,855,876,895,915,935,956,975,995,1015,1036,1055,1075,1095,1116,1135,1155,1175,1196,1216,1235,1255,1276,1295,1315,1336,1357,1375,1396,1415,1435,1455,1476,1495,1515,1535,1555,1575,1595,1616,1635,1655,1675,1695,1715,1735,1756,1775,1796,1816,1836,1855,1875,1896,1916,1935,1955,1976,1995,2015,2035,2055,2075,2095,2116,2136,2155,2176,2195,2215,2235,2255,2275,2296,2316,2335,2354,2376,2395,2416,2435,2456,2476,2495,2516,2536,2555,2575,2596,2616,2636,2655,2676,2695,2715,2736,2755,2775,2795,2815,2835,2856,2875,2896,2915,2936,2955,2975,2995,3015],"xSR":741.5,"ySR":469.95,"xT1":424.9,"yT1":0,"xT2":1058.1,"yT2":0,"toosoon":0,"cond_shown":"randomdotsizeEA","ratio_trial":750,"smaller_num":"15","larger_num":"20","correct_side":1,"subjID":"isabellamurillourrea28","gender":"1","age":"11","school":"6"},{"start_time":1551900503490,"click_time":1551900504814,"finger_time":1551900504632,"fix_duration":335.9021908828471,"trial":48,"RT":1142,"MT":182,"sideResp":2,"stimulus":"img/500/equaldotsize/R/12_Ratio_500_L_1_R_2.png","xmouse":[785,785,785,785,785,787,788,788,788,788,788,788,788,788,788,788,788,788,788,788,788,788,788,788,788,788,788,788,788,788,788,788,788,788,788,788,788,788,788,788,788,788,788,788,788,788,788,788,788,788,788,788,788,788,791,796,817,873,907,943,975,1043,1064,1084,1106,1125,1157],"ymouse":[542,542,542,542,542,542,543,543,543,543,543,543,543,543,543,543,543,543,543,543,543,543,543,543,543,543,543,543,543,543,543,543,543,543,543,543,543,543,543,543,543,543,543,543,543,543,543,543,543,543,543,543,543,543,543,539,513,427,380,330,286,191,165,141,120,104,73],"timestamp_mouse":[3,23,44,63,83,103,123,143,163,183,203,223,243,263,284,303,323,343,363,384,404,423,443,463,483,504,523,544,564,583,603,624,643,664,684,703,723,743,763,783,804,823,844,863,883,902,923,943,963,984,1004,1023,1043,1063,1084,1103,1124,1142,1163,1183,1203,1223,1244,1264,1283,1304,1324],"xSR":741.5,"ySR":469.95,"xT1":424.9,"yT1":0,"xT2":1058.1,"yT2":0,"toosoon":0,"cond_shown":"equaldotsize","ratio_trial":500,"smaller_num":"1","larger_num":"2","correct_side":2,"subjID":"isabellamurillourrea28","gender":"1","age":"11","school":"6"},{"start_time":1551900506125,"click_time":1551900507715,"finger_time":1551900507193,"fix_duration":250,"trial":49,"RT":1068,"MT":522,"sideResp":2,"stimulus":"img/900/equaldotanddens/R/13_Ratio_900_L_18_R_20.png","xmouse":[786,786,786,786,786,786,786,786,786,786,786,786,786,786,786,786,786,786,786,786,786,786,786,786,786,786,786,786,786,786,786,786,786,786,786,786,786,786,786,786,786,786,786,786,786,786,786,786,786,786,786,788,791,798,808,822,826,835,838,851,871,882,894,905,919,949,964,978,997,1014,1019,1024,1029,1035,1042,1052,1055,1057,1058,1060],"ymouse":[494,494,494,494,494,494,494,494,494,494,494,494,494,494,494,494,494,494,494,494,494,494,494,494,494,494,494,494,494,494,494,494,494,494,494,494,494,494,494,494,494,494,494,494,494,494,494,494,494,494,494,489,482,465,449,424,417,403,398,377,348,332,315,299,277,228,207,188,163,136,127,116,104,93,81,63,58,54,52,49],"timestamp_mouse":[8,28,48,68,88,108,128,147,168,187,208,228,249,268,289,309,328,348,369,388,409,428,448,469,489,508,528,548,569,588,608,629,649,669,688,708,729,748,769,788,808,829,849,868,888,908,928,949,968,988,1009,1028,1048,1068,1089,1108,1128,1149,1168,1188,1208,1228,1248,1268,1288,1308,1328,1349,1368,1390,1408,1429,1448,1468,1488,1508,1529,1549,1568,1589],"xSR":741.5,"ySR":469.95,"xT1":424.9,"yT1":0,"xT2":1058.1,"yT2":0,"toosoon":0,"cond_shown":"equaldotanddens","ratio_trial":900,"smaller_num":"18","larger_num":"20","correct_side":2,"subjID":"isabellamurillourrea28","gender":"1","age":"11","school":"6"},{"start_time":1551900509316,"click_time":1551900511293,"finger_time":1551900510433,"fix_duration":702.5423068320113,"trial":50,"RT":1117,"MT":860,"sideResp":1,"stimulus":"img/750/randomdotsizeEA/L/10_Ratio_750_L_4_R_3.png","xmouse":[802,802,802,802,802,802,802,802,802,802,802,802,802,802,802,802,802,802,802,802,802,802,802,802,802,802,802,802,802,802,802,802,802,802,802,802,802,802,802,802,802,802,802,802,802,802,802,802,802,802,802,802,801,799,797,788,786,783,781,778,766,759,751,743,739,726,722,719,714,712,707,705,702,698,690,663,652,642,632,623,608,596,585,577,572,570,570,570,570,570,570,570,570,570,569,553,540,526,516],"ymouse":[512,512,512,512,512,512,512,512,512,512,512,512,512,512,512,512,512,512,512,512,512,512,512,512,512,512,512,512,512,512,512,512,512,512,512,512,512,512,512,512,512,512,512,512,512,512,512,512,512,512,512,512,506,496,479,443,435,428,420,407,373,355,340,326,317,298,291,286,280,277,269,265,262,255,243,209,195,183,172,164,147,136,126,121,118,116,116,116,116,116,116,116,116,116,116,109,104,98,94],"timestamp_mouse":[17,42,57,78,97,117,137,157,177,197,217,237,258,278,297,317,337,358,377,397,417,438,457,477,497,517,538,557,577,597,617,637,658,677,697,718,738,758,778,798,818,837,857,878,897,918,937,957,978,997,1017,1037,1057,1078,1098,1117,1138,1157,1177,1197,1217,1237,1256,1276,1296,1317,1337,1356,1376,1396,1417,1437,1458,1478,1498,1517,1538,1557,1577,1598,1617,1638,1658,1678,1697,1717,1738,1758,1778,1797,1818,1837,1857,1878,1898,1917,1938,1958,1977],"xSR":741.5,"ySR":469.95,"xT1":424.9,"yT1":0,"xT2":1058.1,"yT2":0,"toosoon":0,"cond_shown":"randomdotsizeEA","ratio_trial":750,"smaller_num":"3","larger_num":"4","correct_side":1,"subjID":"isabellamurillourrea28","gender":"1","age":"11","school":"6"},{"start_time":1551900512698,"click_time":1551900514153,"finger_time":1551900513534,"fix_duration":463.7133713315602,"trial":51,"RT":836,"MT":619,"sideResp":2,"stimulus":"img/750/equaldotanddens/R/2_Ratio_750_L_6_R_8.png","xmouse":[817,817,817,817,817,817,817,817,817,817,817,817,817,817,817,817,817,817,817,817,817,817,817,817,817,817,817,817,817,817,817,817,817,817,817,817,817,817,817,830,839,872,887,902,917,934,972,986,996,1003,1009,1013,1019,1020,1022,1023,1027,1029,1031,1033,1035,1036,1040,1043,1045,1046,1049,1050,1051,1052,1054,1058,1059],"ymouse":[533,533,533,533,533,533,533,533,533,533,533,533,533,533,533,533,533,533,533,533,533,533,533,533,533,533,533,533,533,533,533,533,533,533,533,533,533,533,533,518,505,454,435,419,401,379,312,282,257,237,220,203,178,171,164,158,144,138,132,125,120,116,102,95,91,87,81,77,76,74,71,64,61],"timestamp_mouse":[16,38,55,75,96,114,135,156,176,195,216,236,255,275,295,315,335,356,376,396,416,435,456,475,496,516,536,555,576,595,616,635,655,674,696,715,735,756,775,795,815,836,855,875,895,915,936,955,974,995,1015,1036,1056,1075,1096,1116,1135,1155,1175,1196,1214,1235,1255,1275,1295,1316,1336,1356,1375,1395,1415,1436,1455],"xSR":741.5,"ySR":469.95,"xT1":424.9,"yT1":0,"xT2":1058.1,"yT2":0,"toosoon":0,"cond_shown":"equaldotanddens","ratio_trial":750,"smaller_num":"6","larger_num":"8","correct_side":2,"subjID":"isabellamurillourrea28","gender":"1","age":"11","school":"6"},{"start_time":1551900515548,"click_time":1551900517193,"finger_time":1551900516473,"fix_duration":493.86145305909236,"trial":52,"RT":925,"MT":720,"sideResp":1,"stimulus":"img/900/randomdotsizeEA/R/6_Ratio_900_L_9_R_10.png","xmouse":[756,756,756,756,756,756,756,756,756,756,756,756,756,756,756,756,756,756,756,756,756,756,756,756,756,756,756,756,756,756,756,756,756,756,756,756,756,756,756,756,756,756,756,756,756,756,756,756,756,750,742,736,732,725,721,711,706,704,703,702,701,695,685,664,629,610,589,574,572,572,572,572,572,572,572,572,570,566,561,554,537,529,510],"ymouse":[526,526,526,526,526,526,526,526,526,526,526,526,526,526,526,526,526,526,526,526,526,526,526,526,526,526,526,526,526,526,526,526,526,526,526,526,526,526,526,526,526,526,526,526,526,498,446,397,362,326,269,246,227,204,194,174,169,167,166,165,165,163,161,155,145,139,132,126,126,126,126,126,125,125,125,125,123,120,116,113,104,102,93],"timestamp_mouse":[10,25,45,66,85,105,126,146,166,186,206,225,246,266,285,305,325,346,365,386,405,426,446,465,486,505,526,546,566,586,606,626,646,666,685,705,726,745,765,785,805,826,845,865,886,905,925,946,965,985,1005,1026,1046,1066,1085,1105,1126,1145,1165,1186,1205,1225,1245,1266,1287,1305,1326,1345,1365,1385,1406,1425,1446,1466,1486,1506,1525,1545,1566,1586,1605,1625,1645],"xSR":741.5,"ySR":469.95,"xT1":424.9,"yT1":0,"xT2":1058.1,"yT2":0,"toosoon":0,"cond_shown":"randomdotsizeEA","ratio_trial":900,"smaller_num":"9","larger_num":"10","correct_side":2,"subjID":"isabellamurillourrea28","gender":"1","age":"11","school":"6"},{"start_time":1551900518466,"click_time":1551900519973,"finger_time":1551900519173,"fix_duration":250,"trial":53,"RT":707,"MT":800,"sideResp":1,"stimulus":"img/500/equaldotanddens/L/4_Ratio_500_L_18_R_9.png","xmouse":[814,814,814,814,814,814,814,814,814,814,814,814,814,814,814,814,814,814,814,814,814,814,814,814,814,814,814,814,814,814,814,814,814,815,803,783,775,769,763,748,741,734,726,718,704,692,685,678,667,641,628,619,609,596,546,546,535,526,526,526,526,526,526,526,526,526,526,526,526,526,526,526,526,526,525,520],"ymouse":[530,530,530,530,530,530,530,530,530,530,530,530,530,530,530,530,530,530,530,530,530,530,530,530,530,530,530,530,530,530,530,530,530,530,502,458,440,426,414,384,372,359,344,332,314,301,290,279,265,230,213,196,179,159,95,95,86,82,81,81,81,81,81,81,81,81,81,81,81,81,81,81,81,81,80,76],"timestamp_mouse":[13,36,47,67,87,107,128,148,167,188,208,228,248,267,288,307,327,347,367,388,407,428,447,467,488,508,527,547,567,588,608,628,647,668,687,707,727,747,767,787,807,827,847,867,888,906,927,948,968,987,1007,1027,1047,1067,1087,1107,1127,1149,1167,1187,1207,1228,1247,1267,1287,1307,1328,1347,1367,1388,1407,1428,1448,1468,1487,1507],"xSR":741.5,"ySR":469.95,"xT1":424.9,"yT1":0,"xT2":1058.1,"yT2":0,"toosoon":0,"cond_shown":"equaldotanddens","ratio_trial":500,"smaller_num":"9","larger_num":"18","correct_side":1,"subjID":"isabellamurillourrea28","gender":"1","age":"11","school":"6"},{"start_time":1551900521645,"click_time":1551900522933,"finger_time":1551900522473,"fix_duration":671.6342855132577,"trial":54,"RT":828,"MT":460,"sideResp":2,"stimulus":"img/250/randomdotsizeEA/R/9_Ratio_250_L_3_R_12.png","xmouse":[767,767,767,767,767,767,767,767,767,767,767,767,767,767,767,767,