[{"start_time":1551794721850,"click_time":1551794732083,"finger_time":1551794721863,"fix_duration":822.6579124236769,"trial":0,"RT":13,"MT":10220,"sideResp":1,"stimulus":"img/500/equaldotsize/L/11_Ratio_500_L_12_R_6.png","xmouse":[299,299,299,299,299,299,299,299,299,299,299,299,299,299,299,299,299,299,299,299,299,299,299,299,299,299,299,299,299,299,299,1416,1430,1471,1498,1515,1514,1491,1452,1409,1327,1308,1308,1308,1308,1308,1308,1308,1308,1308,1308,1308,1308,1308,1308,1308,1308,1308,1308,1308,1308,1308,1308,1308,847,825,808,798,805,820,836,840,844,847,846,838,837,836,836,836,835,834,831,828,828,828,827,824,814,804,798,798,798,798,798,798,798,797,797,797,796,796,796,796,796,796,796,796,796,797,797,797,797,797,797,797,797,797,797,798,798,798,798,798,799,795,792,792,792,792,792,792,792,792,792,792,792,792,792,792,792,792,792,792,792,792,792,792,792,792,795,796,796,796,796,796,796,796,796,796,796,796,796,796,796,790,786,784,782,781,781,780,780,780,780,780,780,780,780,780,780,780,780,781,783,787,790,793,797,799,804,806,810,811,811,811,811,811,811,811,811,811,811,811,811,811,811,810,809,808,808,807,806,806,806,805,805,804,803,802,801,800,800,800,800,799,799,799,799,799,799,799,799,799,799,799,799,799,799,799,799,799,799,799,799,800,801,802,802,802,802,802,802,802,802,802,802,802,802,802,802,802,802,802,802,802,802,802,802,802,802,802,802,802,802,802,802,802,802,801,800,796,795,794,794,794,794,794,794,794,794,794,794,794,794,794,794,794,794,794,792,792,792,792,792,792,792,792,792,793,795,796,796,796,796,796,796,796,796,796,796,796,796,796,796,796,795,786,778,775,771,769,768,768,768,768,768,768,768,768,768,768,768,773,778,781,781,781,781,781,781,781,781,781,781,781,781,781,781,781,781,781,781,786,793,799,802,803,803,803,803,803,803,803,803,803,803,803,803,803,803,803,803,803,803,803,803,803,803,803,803,803,803,802,802,802,801,799,798,798,797,797,797,797,797,796,795,794,794,792,791,788,786,779,777,777,777,777,777,777,777,777,777,777,777,777,777,777,777,777,777,777,777,777,777,781,785,790,793,794,796,796,796,796,796,796,796,796,796,796,796,796,796,796,796,796,796,796,796,796,796,796,796,796,796,796,796,796,796,796,796,796,796,796,796,796,796,796,796,796,796,796,796,796,796,780,763,732,712,700,690,686,684,674,667,653,643,629,612,598,571,561,545,537,529,523,523,523,523,523,523,523],"ymouse":[25,25,25,25,25,25,25,25,25,25,25,25,25,25,25,25,25,25,25,25,25,25,25,25,25,25,25,25,25,25,25,79,113,189,220,224,218,203,174,139,49,22,22,22,22,22,22,22,22,22,22,22,22,22,22,22,22,22,22,22,22,22,22,22,31,211,348,485,594,647,659,657,649,624,608,601,601,602,602,602,595,578,565,560,560,560,558,546,514,484,474,474,474,474,474,474,474,474,474,475,478,480,480,480,480,483,487,493,497,498,498,498,498,498,498,498,498,498,498,498,498,498,498,498,498,497,497,497,497,497,497,497,497,497,497,497,497,497,497,497,497,497,497,497,497,497,497,496,496,492,487,487,487,487,487,487,487,487,487,487,487,487,487,487,487,484,481,479,478,478,478,478,478,478,478,478,479,479,479,479,479,480,481,483,485,488,488,488,488,489,490,490,489,488,488,488,488,488,488,488,488,488,488,488,488,488,488,488,488,488,488,487,487,487,487,487,487,487,487,487,487,487,487,487,487,487,487,487,487,487,487,487,487,487,487,487,487,487,487,487,487,487,485,480,475,462,457,453,453,453,453,453,453,453,453,453,453,453,453,453,453,453,453,453,453,453,453,453,453,453,453,453,453,453,453,453,453,451,450,448,444,434,432,431,431,431,431,431,431,431,431,431,431,431,431,431,431,431,432,434,441,444,445,446,447,453,456,459,461,462,466,466,467,469,470,473,473,473,473,473,473,473,473,473,473,473,473,473,475,477,479,480,480,481,481,481,481,481,481,479,476,474,473,471,469,465,465,465,465,465,465,465,465,465,465,465,465,465,465,465,465,465,465,470,477,483,488,492,492,492,492,492,492,492,492,492,492,492,492,492,492,492,492,492,492,492,492,492,492,492,492,496,500,502,502,502,499,495,491,490,489,489,489,489,489,489,489,488,488,488,488,488,488,490,490,490,490,490,490,490,490,490,490,490,490,490,490,490,490,490,490,490,490,490,490,490,490,489,488,487,485,483,483,483,483,483,483,483,483,483,483,483,483,483,483,483,483,483,483,483,483,483,483,483,483,483,483,483,483,483,483,483,483,483,483,483,483,483,483,483,483,483,483,483,481,456,430,389,354,338,322,314,311,299,288,269,256,244,229,215,181,167,141,124,111,105,103,102,101,101,100,97],"timestamp_mouse":[13,34,53,74,93,113,134,154,173,194,214,233,254,273,292,313,332,352,373,393,414,433,453,473,493,513,534,553,574,593,613,633,653,673,693,713,734,753,774,793,813,833,854,873,894,913,934,953,973,993,1014,1034,1053,1073,1093,1113,1133,1154,1174,1194,1214,1234,1253,1273,1294,1313,1333,1353,1373,1394,1413,1433,1454,1473,1494,1513,1533,1554,1573,1593,1613,1633,1653,1674,1694,1713,1734,1753,1773,1793,1813,1833,1853,1874,1893,1913,1933,1954,1973,1993,2013,2033,2054,2073,2093,2113,2133,2152,2174,2193,2212,2234,2254,2274,2292,2313,2333,2354,2374,2392,2414,2432,2453,2472,2493,2513,2533,2553,2573,2594,2614,2634,2653,2673,2694,2712,2733,2753,2773,2794,2814,2834,2853,2873,2894,2914,2933,2954,2974,2994,3013,3033,3053,3073,3093,3114,3134,3154,3174,3194,3213,3234,3252,3274,3293,3313,3334,3354,3373,3393,3412,3433,3454,3472,3493,3514,3533,3554,3573,3592,3613,3633,3653,3673,3694,3712,3733,3754,3772,3793,3813,3834,3853,3874,3894,3913,3934,3953,3974,3993,4014,4034,4053,4073,4093,4113,4134,4153,4173,4194,4212,4233,4254,4273,4293,4314,4333,4354,4373,4394,4414,4434,4454,4474,4494,4514,4533,4553,4574,4594,4613,4634,4653,4674,4694,4714,4734,4754,4774,4794,4813,4834,4853,4872,4894,4912,4934,4953,4973,4994,5013,5033,5053,5074,5092,5113,5133,5154,5173,5194,5214,5234,5253,5273,5292,5314,5334,5353,5374,5392,5414,5433,5453,5473,5492,5513,5534,5554,5573,5593,5613,5634,5653,5674,5693,5714,5734,5754,5774,5793,5813,5833,5854,5874,5893,5914,5933,5953,5973,5994,6012,6033,6053,6073,6094,6114,6133,6153,6172,6194,6213,6233,6254,6274,6294,6313,6334,6352,6374,6394,6414,6434,6453,6473,6493,6513,6533,6553,6573,6593,6613,6634,6653,6673,6694,6713,6734,6753,6773,6793,6813,6834,6853,6872,6893,6913,6933,6954,6974,6993,7012,7033,7053,7073,7094,7113,7133,7153,7173,7194,7214,7234,7253,7273,7293,7313,7333,7354,7373,7393,7414,7434,7454,7473,7493,7514,7533,7553,7573,7593,7614,7632,7653,7673,7693,7714,7733,7754,7773,7793,7813,7834,7853,7873,7892,7913,7934,7953,7972,7993,8012,8034,8054,8073,8093,8113,8133,8153,8174,8194,8214,8233,8254,8273,8294,8313,8333,8354,8374,8393,8414,8434,8454,8474,8492,8513,8533,8553,8572,8593,8614,8632,8652,8673,8693,8712,8734,8754,8774,8793,8812,8833,8853,8874,8894,8914,8934,8953,8974,8994,9014,9034,9053,9074,9094,9113,9134,9153,9173,9194,9213,9234,9253,9273,9293,9313,9333,9353,9374,9392,9414,9432,9453,9473,9493,9514,9533,9553,9573,9593,9613,9634,9654,9674,9694,9714,9734,9753,9773,9793,9814,9832,9852,9873,9893,9914,9933,9953,9973,9994,10013,10033,10054,10073,10093,10113,10134,10153,10173,10193,10214,10233],"xSR":741.5,"ySR":481,"xT1":424.9,"yT1":0,"xT2":1058.1,"yT2":0,"toosoon":0,"cond_shown":"equaldotsize","ratio_trial":500,"smaller_num":"6","larger_num":"12","correct_side":1,"subjID":"AlissonCamilaMalpicaMuñoz14","gender":"1","age":"11","school":"6","test":{"fix_dur":[250,1500],"timestim":300,"targets_dim":[100,100],"targets_relative_coord":[0.3,0.7],"size_stim":[880,420],"start_dim":[100,100],"size_start":[300,300],"size_fix":60,"samplingrate":20,"img_types":["equaldotsize","equaldotanddens","randomdotsizeEA"],"ratios":[250,500,750,900],"rep_conds":9,"nTrials":120,"trials_to_rest":500,"Trials_order":[51,81,2,109,45,92,32,71,24,114,3,37,55,54,64,66,13,42,74,83,43,93,49,1,22,31,95,57,80,15,17,96,87,60,4,52,9,23,19,40,38,111,11,86,50,116,8,103,108,34,115,6,65,18,36,35,46,113,39,91,44,33,104,73,77,88,25,110,7,106,90,98,117,67,59,16,79,100,48,61,20,78,70,105,29,12,82,101,112,5,72,107,89,30,56,58,75,41,68,27,10,94,26,76,14,21,63,84,85,97,119,118,0,62,47,69,99,102,53,28],"cond_shown":["equaldotsize","equaldotsize","randomdotsizeEA","equaldotanddens","equaldotsize","randomdotsizeEA","randomdotsizeEA","randomdotsizeEA","equaldotsize","equaldotsize","equaldotsize","equaldotanddens","equaldotanddens","equaldotsize","equaldotanddens","equaldotsize","equaldotanddens","equaldotsize","randomdotsizeEA","randomdotsizeEA","equaldotanddens","equaldotsize","equaldotanddens","equaldotanddens","equaldotanddens","equaldotanddens","randomdotsizeEA","equaldotsize","randomdotsizeEA","equaldotsize","randomdotsizeEA","equaldotsize","equaldotsize","equaldotsize","equaldotanddens","equaldotanddens","equaldotsize","randomdotsizeEA","equaldotanddens","equaldotanddens","randomdotsizeEA","equaldotsize","randomdotsizeEA","randomdotsizeEA","randomdotsizeEA","randomdotsizeEA","randomdotsizeEA","equaldotanddens","equaldotsize","equaldotanddens","equaldotanddens","equaldotsize","randomdotsizeEA","equaldotsize","equaldotsize","randomdotsizeEA","equaldotanddens","randomdotsizeEA","equaldotsize","equaldotanddens","randomdotsizeEA","equaldotsize","randomdotsizeEA","equaldotanddens","randomdotsizeEA","equaldotanddens","equaldotanddens","randomdotsizeEA","equaldotanddens","equaldotanddens","equaldotsize","randomdotsizeEA","equaldotsize","equaldotanddens","randomdotsizeEA","equaldotanddens","equaldotanddens","equaldotanddens","equaldotsize","equaldotanddens","randomdotsizeEA","equaldotsize","equaldotanddens","equaldotsize","randomdotsizeEA","equaldotsize","equaldotanddens","randomdotsizeEA","equaldotanddens","randomdotsizeEA","equaldotsize","randomdotsizeEA","randomdotsizeEA","equaldotsize","randomdotsizeEA","equaldotanddens","equaldotsize","randomdotsizeEA","randomdotsizeEA","equaldotsize","equaldotanddens","equaldotanddens","randomdotsizeEA","equaldotanddens","randomdotsizeEA","equaldotsize","equaldotsize","equaldotsize","equaldotanddens","equaldotanddens","randomdotsizeEA","equaldotanddens","equaldotsize","randomdotsizeEA","randomdotsizeEA","equaldotsize","equaldotsize","equaldotsize","randomdotsizeEA","equaldotanddens"],"ratio_trial":[500,900,250,250,900,750,750,900,250,750,500,250,750,750,500,750,250,750,250,900,750,900,250,250,900,750,900,900,750,500,500,250,500,250,500,500,900,900,750,500,250,500,900,250,250,750,750,750,250,900,750,750,500,750,250,900,900,500,500,750,750,900,750,250,500,500,250,250,750,900,750,250,900,750,900,500,750,500,250,250,750,750,900,900,500,250,900,500,500,500,250,900,500,750,750,900,500,500,750,500,900,900,250,500,250,900,500,250,250,250,900,900,250,250,900,900,500,750,500,500],"smaller_num":["6","18","2","2","18","6","3","18","4","18","2","3","9","15","6","3","1","15","4","9","15","18","4","3","18","6","18","18","18","9","10","1","2","6","9","1","9","9","3","6","6","5","18","2","3","15","15","15","5","18","3","6","1","3","6","18","9","4","1","18","15","18","6","6","6","6","3","2","18","9","6","3","18","15","18","1","6","4","2","3","3","9","9","9","6","3","9","9","5","4","2","18","2","15","3","18","3","5","9","2","18","9","2","3","3","18","2","2","1","3","18","18","2","5","18","9","2","6","1","4"],"larger_num":["12","20","8","8","20","8","4","20","16","24","4","12","12","20","12","4","4","20","16","10","20","20","16","12","20","8","20","20","24","18","20","4","4","24","18","2","10","10","4","12","24","10","20","8","12","20","20","20","20","20","4","8","2","4","24","20","10","8","2","24","20","20","8","24","12","12","12","8","24","10","8","12","20","20","20","2","8","8","8","12","4","12","10","10","12","12","10","18","10","8","8","20","4","20","4","20","6","10","12","4","20","10","8","6","12","20","4","8","4","12","20","20","8","20","20","10","4","8","2","8"],"correct_side":[1,1,1,1,2,2,1,2,2,1,1,1,2,1,1,1,2,1,1,2,2,1,1,1,1,2,1,2,1,2,2,2,1,2,1,2,1,1,1,1,2,1,2,1,1,1,2,2,2,2,1,1,2,2,1,1,1,1,2,1,2,1,1,1,1,1,2,2,1,2,2,2,2,2,1,2,1,1,1,1,2,2,2,1,1,1,2,2,1,1,1,1,2,2,1,2,2,2,2,2,1,1,1,2,2,2,1,1,2,1,1,2,1,2,2,2,1,2,2,1],"img_shown":["img/500/equaldotsize/L/11_Ratio_500_L_12_R_6.png","img/900/equaldotsize/L/4_Ratio_900_L_20_R_18.png","img/250/randomdotsizeEA/L/3_Ratio_250_L_8_R_2.png","img/250/equaldotanddens/L/1_Ratio_250_L_8_R_2.png","img/900/equaldotsize/R/12_Ratio_900_L_18_R_20.png","img/750/randomdotsizeEA/R/2_Ratio_750_L_6_R_8.png","img/750/randomdotsizeEA/L/9_Ratio_750_L_4_R_3.png","img/900/randomdotsizeEA/R/12_Ratio_900_L_18_R_20.png","img/250/equaldotsize/R/10_Ratio_250_L_4_R_16.png","img/750/equaldotsize/L/6_Ratio_750_L_24_R_18.png","img/500/equaldotsize/L/5_Ratio_500_L_4_R_2.png","img/250/equaldotanddens/L/14_Ratio_250_L_12_R_3.png","img/750/equaldotanddens/R/15_Ratio_750_L_9_R_12.png","img/750/equaldotsize/L/1_Ratio_750_L_20_R_15.png","img/500/equaldotanddens/L/13_Ratio_500_L_12_R_6.png","img/750/equaldotsize/L/9_Ratio_750_L_4_R_3.png","img/250/equaldotanddens/R/8_Ratio_250_L_1_R_4.png","img/750/equaldotsize/L/1_Ratio_750_L_20_R_15.png","img/250/randomdotsizeEA/L/2_Ratio_250_L_16_R_4.png","img/900/randomdotsizeEA/R/6_Ratio_900_L_9_R_10.png","img/750/equaldotanddens/R/5_Ratio_750_L_15_R_20.png","img/900/equaldotsize/L/4_Ratio_900_L_20_R_18.png","img/250/equaldotanddens/L/2_Ratio_250_L_16_R_4.png","img/250/equaldotanddens/L/15_Ratio_250_L_12_R_3.png","img/900/equaldotanddens/L/8_Ratio_900_L_20_R_18.png","img/750/equaldotanddens/R/2_Ratio_750_L_6_R_8.png","img/900/randomdotsizeEA/L/4_Ratio_900_L_20_R_18.png","img/900/equaldotsize/R/9_Ratio_900_L_18_R_20.png","img/750/randomdotsizeEA/L/6_Ratio_750_L_24_R_18.png","img/500/equaldotsize/R/1_Ratio_500_L_9_R_18.png","img/500/randomdotsizeEA/R/3_Ratio_500_L_10_R_20.png","img/250/equaldotsize/R/8_Ratio_250_L_1_R_4.png","img/500/equaldotsize/L/5_Ratio_500_L_4_R_2.png","img/250/equaldotsize/R/6_Ratio_250_L_6_R_24.png","img/500/equaldotanddens/L/4_Ratio_500_L_18_R_9.png","img/500/equaldotanddens/R/12_Ratio_500_L_1_R_2.png","img/900/equaldotsize/L/1_Ratio_900_L_10_R_9.png","img/900/randomdotsizeEA/L/1_Ratio_900_L_10_R_9.png","img/750/equaldotanddens/L/10_Ratio_750_L_4_R_3.png","img/500/equaldotanddens/L/11_Ratio_500_L_12_R_6.png","img/250/randomdotsizeEA/R/6_Ratio_250_L_6_R_24.png","img/500/equaldotsize/L/7_Ratio_500_L_10_R_5.png","img/900/randomdotsizeEA/R/14_Ratio_900_L_18_R_20.png","img/250/randomdotsizeEA/L/1_Ratio_250_L_8_R_2.png","img/250/randomdotsizeEA/L/14_Ratio_250_L_12_R_3.png","img/750/randomdotsizeEA/L/1_Ratio_750_L_20_R_15.png","img/750/randomdotsizeEA/R/3_Ratio_750_L_15_R_20.png","img/750/equaldotanddens/R/4_Ratio_750_L_15_R_20.png","img/250/equaldotsize/R/12_Ratio_250_L_5_R_20.png","img/900/equaldotanddens/R/14_Ratio_900_L_18_R_20.png","img/750/equaldotanddens/L/10_Ratio_750_L_4_R_3.png","img/750/equaldotsize/L/14_Ratio_750_L_8_R_6.png","img/500/randomdotsizeEA/R/15_Ratio_500_L_1_R_2.png","img/750/equaldotsize/R/12_Ratio_750_L_3_R_4.png","img/250/equaldotsize/L/5_Ratio_250_L_24_R_6.png","img/900/randomdotsizeEA/L/8_Ratio_900_L_20_R_18.png","img/900/equaldotanddens/L/1_Ratio_900_L_10_R_9.png","img/500/randomdotsizeEA/L/8_Ratio_500_L_8_R_4.png","img/500/equaldotsize/R/12_Ratio_500_L_1_R_2.png","img/750/equaldotanddens/L/6_Ratio_750_L_24_R_18.png","img/750/randomdotsizeEA/R/5_Ratio_750_L_15_R_20.png","img/900/equaldotsize/L/10_Ratio_900_L_20_R_18.png","img/750/randomdotsizeEA/L/14_Ratio_750_L_8_R_6.png","img/250/equaldotanddens/L/5_Ratio_250_L_24_R_6.png","img/500/randomdotsizeEA/L/13_Ratio_500_L_12_R_6.png","img/500/equaldotanddens/L/13_Ratio_500_L_12_R_6.png","img/250/equaldotanddens/R/9_Ratio_250_L_3_R_12.png","img/250/randomdotsizeEA/R/13_Ratio_250_L_2_R_8.png","img/750/equaldotanddens/L/6_Ratio_750_L_24_R_18.png","img/900/equaldotanddens/R/5_Ratio_900_L_9_R_10.png","img/750/equaldotsize/R/2_Ratio_750_L_6_R_8.png","img/250/randomdotsizeEA/R/11_Ratio_250_L_3_R_12.png","img/900/equaldotsize/R/14_Ratio_900_L_18_R_20.png","img/750/equaldotanddens/R/3_Ratio_750_L_15_R_20.png","img/900/randomdotsizeEA/L/2_Ratio_900_L_20_R_18.png","img/500/equaldotanddens/R/15_Ratio_500_L_1_R_2.png","img/750/equaldotanddens/L/13_Ratio_750_L_8_R_6.png","img/500/equaldotanddens/L/8_Ratio_500_L_8_R_4.png","img/250/equaldotsize/L/3_Ratio_250_L_8_R_2.png","img/250/equaldotanddens/L/14_Ratio_250_L_12_R_3.png","img/750/randomdotsizeEA/R/7_Ratio_750_L_3_R_4.png","img/750/equaldotsize/R/15_Ratio_750_L_9_R_12.png","img/900/equaldotanddens/R/3_Ratio_900_L_9_R_10.png","img/900/equaldotsize/L/1_Ratio_900_L_10_R_9.png","img/500/randomdotsizeEA/L/13_Ratio_500_L_12_R_6.png","img/250/equaldotsize/L/14_Ratio_250_L_12_R_3.png","img/900/equaldotanddens/R/5_Ratio_900_L_9_R_10.png","img/500/randomdotsizeEA/R/6_Ratio_500_L_9_R_18.png","img/500/equaldotanddens/L/7_Ratio_500_L_10_R_5.png","img/500/randomdotsizeEA/L/8_Ratio_500_L_8_R_4.png","img/250/equaldotsize/L/1_Ratio_250_L_8_R_2.png","img/900/randomdotsizeEA/L/2_Ratio_900_L_20_R_18.png","img/500/randomdotsizeEA/R/9_Ratio_500_L_2_R_4.png","img/750/equaldotsize/R/4_Ratio_750_L_15_R_20.png","img/750/randomdotsizeEA/L/9_Ratio_750_L_4_R_3.png","img/900/equaldotanddens/R/12_Ratio_900_L_18_R_20.png","img/500/equaldotsize/R/2_Ratio_500_L_3_R_6.png","img/500/randomdotsizeEA/R/14_Ratio_500_L_5_R_10.png","img/750/randomdotsizeEA/R/15_Ratio_750_L_9_R_12.png","img/500/equaldotsize/R/9_Ratio_500_L_2_R_4.png","img/900/equaldotanddens/L/4_Ratio_900_L_20_R_18.png","img/900/equaldotanddens/L/1_Ratio_900_L_10_R_9.png","img/250/randomdotsizeEA/L/3_Ratio_250_L_8_R_2.png","img/500/equaldotanddens/R/2_Ratio_500_L_3_R_6.png","img/250/randomdotsizeEA/R/11_Ratio_250_L_3_R_12.png","img/900/equaldotsize/R/12_Ratio_900_L_18_R_20.png","img/500/equaldotsize/L/5_Ratio_500_L_4_R_2.png","img/250/equaldotsize/L/1_Ratio_250_L_8_R_2.png","img/250/equaldotanddens/R/8_Ratio_250_L_1_R_4.png","img/250/equaldotanddens/L/14_Ratio_250_L_12_R_3.png","img/900/randomdotsizeEA/L/8_Ratio_900_L_20_R_18.png","img/900/equaldotanddens/R/9_Ratio_900_L_18_R_20.png","img/250/equaldotsize/L/1_Ratio_250_L_8_R_2.png","img/250/randomdotsizeEA/R/12_Ratio_250_L_5_R_20.png","img/900/randomdotsizeEA/R/13_Ratio_900_L_18_R_20.png","img/900/equaldotsize/R/6_Ratio_900_L_9_R_10.png","img/500/equaldotsize/L/10_Ratio_500_L_4_R_2.png","img/750/equaldotsize/R/2_Ratio_750_L_6_R_8.png","img/500/randomdotsizeEA/R/12_Ratio_500_L_1_R_2.png","img/500/equaldotanddens/L/8_Ratio_500_L_8_R_4.png"],"Rat0":[["12_Ratio_0_L_9_R_0.png","13_Ratio_0_L_6_R_0.png","5_Ratio_0_L_2_R_0.png","6_Ratio_0_L_4_R_0.png","8_Ratio_0_L_6_R_0.png"],["1_Ratio_0_L_0_R_17.png","10_Ratio_0_L_0_R_22.png","11_Ratio_0_L_0_R_1.png","14_Ratio_0_L_0_R_24.png","15_Ratio_0_L_0_R_4.png","2_Ratio_0_L_0_R_5.png","3_Ratio_0_L_0_R_17.png","4_Ratio_0_L_0_R_7.png","7_Ratio_0_L_0_R_19.png","9_Ratio_0_L_0_R_15.png"]],"Rat250":[["1_Ratio_250_L_8_R_2.png","14_Ratio_250_L_12_R_3.png","15_Ratio_250_L_12_R_3.png","2_Ratio_250_L_16_R_4.png","3_Ratio_250_L_8_R_2.png","5_Ratio_250_L_24_R_6.png","7_Ratio_250_L_8_R_2.png"],["10_Ratio_250_L_4_R_16.png","11_Ratio_250_L_3_R_12.png","12_Ratio_250_L_5_R_20.png","13_Ratio_250_L_2_R_8.png","4_Ratio_250_L_3_R_12.png","6_Ratio_250_L_6_R_24.png","8_Ratio_250_L_1_R_4.png","9_Ratio_250_L_3_R_12.png"]],"Rat500":[["10_Ratio_500_L_4_R_2.png","11_Ratio_500_L_12_R_6.png","13_Ratio_500_L_12_R_6.png","4_Ratio_500_L_18_R_9.png","5_Ratio_500_L_4_R_2.png","7_Ratio_500_L_10_R_5.png","8_Ratio_500_L_8_R_4.png"],["1_Ratio_500_L_9_R_18.png","12_Ratio_500_L_1_R_2.png","14_Ratio_500_L_5_R_10.png","15_Ratio_500_L_1_R_2.png","2_Ratio_500_L_3_R_6.png","3_Ratio_500_L_10_R_20.png","6_Ratio_500_L_9_R_18.png","9_Ratio_500_L_2_R_4.png"]],"Rat750":[["1_Ratio_750_L_20_R_15.png","10_Ratio_750_L_4_R_3.png","13_Ratio_750_L_8_R_6.png","14_Ratio_750_L_8_R_6.png","6_Ratio_750_L_24_R_18.png","8_Ratio_750_L_4_R_3.png","9_Ratio_750_L_4_R_3.png"],["11_Ratio_750_L_12_R_16.png","12_Ratio_750_L_3_R_4.png","15_Ratio_750_L_9_R_12.png","2_Ratio_750_L_6_R_8.png","3_Ratio_750_L_15_R_20.png","4_Ratio_750_L_15_R_20.png","5_Ratio_750_L_15_R_20.png","7_Ratio_750_L_3_R_4.png"]],"Rat900":[["1_Ratio_900_L_10_R_9.png","10_Ratio_900_L_20_R_18.png","2_Ratio_900_L_20_R_18.png","4_Ratio_900_L_20_R_18.png","8_Ratio_900_L_20_R_18.png"],["11_Ratio_900_L_18_R_20.png","12_Ratio_900_L_18_R_20.png","13_Ratio_900_L_18_R_20.png","14_Ratio_900_L_18_R_20.png","15_Ratio_900_L_9_R_10.png","3_Ratio_900_L_9_R_10.png","5_Ratio_900_L_9_R_10.png","6_Ratio_900_L_9_R_10.png","7_Ratio_900_L_9_R_10.png","9_Ratio_900_L_18_R_20.png"]],"Rat1000":[["10_Ratio_1000_L_16_R_16.png","11_Ratio_1000_L_6_R_6.png","12_Ratio_1000_L_14_R_14.png","13_Ratio_1000_L_20_R_20.png","15_Ratio_1000_L_15_R_15.png","2_Ratio_1000_L_17_R_17.png","4_Ratio_1000_L_9_R_9.png","5_Ratio_1000_L_6_R_6.png","6_Ratio_1000_L_19_R_19.png","8_Ratio_1000_L_14_R_14.png","9_Ratio_1000_L_25_R_25.png"],["1_Ratio_1000_L_1_R_1.png","14_Ratio_1000_L_17_R_17.png","3_Ratio_1000_L_17_R_17.png","7_Ratio_1000_L_6_R_6.png"]]}},{"start_time":1551794734695,"click_time":1551794735864,"finger_time":1551794735684,"fix_duration":250,"trial":1,"RT":989,"MT":180,"sideResp":1,"stimulus":"img/900/equaldotsize/L/4_Ratio_900_L_20_R_18.png","xmouse":[804,804,804,804,804,804,804,804,804,804,804,804,804,804,804,804,804,804,804,804,804,804,804,804,804,804,804,804,804,804,804,804,804,804,804,804,804,804,804,804,804,804,804,804,804,801,798,790,778,736,713,684,669,637,614,581,553,530,513],"ymouse":[508,506,506,506,505,505,505,505,505,505,505,505,505,505,505,505,505,505,505,505,505,505,505,505,505,505,505,505,505,505,505,505,505,505,505,505,505,505,505,505,505,505,505,505,501,493,486,477,462,387,342,294,274,228,195,153,121,101,91],"timestamp_mouse":[9,47,47,68,89,109,128,148,167,187,208,228,248,269,289,308,328,348,368,389,408,429,448,468,489,509,528,548,569,589,609,628,649,669,688,709,728,749,769,788,807,828,849,869,888,908,928,949,968,989,1009,1028,1047,1068,1087,1108,1128,1149,1168],"xSR":741.5,"ySR":449.15000000000003,"xT1":424.9,"yT1":0,"xT2":1058.1,"yT2":0,"toosoon":0,"cond_shown":"equaldotsize","ratio_trial":900,"smaller_num":"18","larger_num":"20","correct_side":1,"subjID":"AlissonCamilaMalpicaMuñoz14","gender":"1","age":"11","school":"6"},{"start_time":1551794737036,"click_time":1551794737644,"finger_time":1551794737544,"fix_duration":271.90772791399274,"trial":2,"RT":508,"MT":100,"sideResp":2,"stimulus":"img/250/randomdotsizeEA/L/3_Ratio_250_L_8_R_2.png","xmouse":[769,769,769,769,769,769,769,769,770,772,773,780,781,782,783,784,785,787,788,789,790,796,807,819,839,855,917,966,1013,1047,1074],"ymouse":[482,482,482,482,482,482,482,482,482,482,482,482,482,482,482,482,483,484,485,485,485,484,480,472,458,441,352,277,186,106,11],"timestamp_mouse":[22,34,48,67,87,107,127,148,166,188,208,227,247,267,288,308,326,348,368,387,406,428,447,467,487,508,527,546,567,588,608],"xSR":741.5,"ySR":449.15000000000003,"xT1":424.9,"yT1":0,"xT2":1058.1,"yT2":0,"toosoon":0,"cond_shown":"randomdotsizeEA","ratio_trial":250,"smaller_num":"2","larger_num":"8","correct_side":1,"subjID":"AlissonCamilaMalpicaMuñoz14","gender":"1","age":"11","school":"6"},{"start_time":1551794739192,"click_time":1551794740263,"finger_time":1551794739903,"fix_duration":327.1435004228085,"trial":3,"RT":711,"MT":360,"sideResp":1,"stimulus":"img/250/equaldotanddens/L/1_Ratio_250_L_8_R_2.png","xmouse":[804,804,804,804,804,804,803,802,800,800,800,800,800,800,800,800,800,800,800,800,800,800,800,800,800,800,800,800,800,800,800,800,800,800,784,760,644,550,418,402,399,399,399,399,398,395,392,392,392,395,401,408,414,429],"ymouse":[473,473,473,473,473,473,473,472,472,472,472,472,472,472,472,472,473,474,475,475,475,475,475,475,475,475,475,475,475,475,475,475,475,475,456,430,316,234,116,102,101,100,100,100,100,100,98,98,95,89,80,71,64,56],"timestamp_mouse":[11,38,51,72,92,112,131,151,171,190,212,232,250,271,291,312,332,351,372,390,411,431,450,472,491,511,532,551,571,591,611,632,651,671,692,711,731,750,771,791,811,831,851,871,891,912,932,951,971,991,1011,1031,1052,1071],"xSR":741.5,"ySR":449.15000000000003,"xT1":424.9,"yT1":0,"xT2":1058.1,"yT2":0,"toosoon":0,"cond_shown":"equaldotanddens","ratio_trial":250,"smaller_num":"2","larger_num":"8","correct_side":1,"subjID":"AlissonCamilaMalpicaMuñoz14","gender":"1","age":"11","school":"6"},{"start_time":1551794741813,"click_time":1551794742783,"finger_time":1551794742363,"fix_duration":349.4611024551834,"trial":4,"RT":550,"MT":420,"sideResp":2,"stimulus":"img/900/equaldotsize/R/12_Ratio_900_L_18_R_20.png","xmouse":[803,803,797,796,796,796,796,796,796,796,796,796,796,796,796,796,796,796,796,796,796,796,796,797,800,803,807,826,841,856,861,869,906,937,963,967,964,960,954,954,954,954,973,987,1005,1025,1035,1053,1063],"ymouse":[470,471,474,475,476,476,476,476,476,476,476,476,476,476,476,476,476,476,476,476,476,476,476,476,473,470,464,431,399,358,319,279,198,154,126,120,116,110,100,100,100,100,92,87,82,79,77,75,72],"timestamp_mouse":[9,32,51,70,90,110,130,150,170,190,211,231,250,270,291,310,329,350,370,390,411,430,451,470,491,510,531,550,570,590,610,631,650,671,691,710,731,750,770,790,811,829,850,870,891,911,930,950,970],"xSR":741.5,"ySR":449.15000000000003,"xT1":424.9,"yT1":0,"xT2":1058.1,"yT2":0,"toosoon":0,"cond_shown":"equaldotsize","ratio_trial":900,"smaller_num":"18","larger_num":"20","correct_side":2,"subjID":"AlissonCamilaMalpicaMuñoz14","gender":"1","age":"11","school":"6"},{"start_time":1551794746324,"click_time":1551794747264,"finger_time":1551794746863,"fix_duration":718.0579449859853,"trial":5,"RT":539,"MT":401,"sideResp":1,"stimulus":"img/750/randomdotsizeEA/R/2_Ratio_750_L_6_R_8.png","xmouse":[812,814,816,816,816,816,816,816,816,816,816,816,816,816,816,816,815,813,810,805,803,803,802,802,799,795,791,780,772,759,727,692,624,599,574,559,553,551,551,551,549,543,528,523,517,511,502,479],"ymouse":[483,481,479,479,479,479,478,478,478,478,478,478,478,478,478,478,477,477,475,473,472,472,471,469,465,460,452,432,421,405,372,335,267,241,220,207,199,197,197,197,194,183,158,149,139,125,107,68],"timestamp_mouse":[1,19,39,59,80,100,119,138,159,179,198,220,238,258,279,298,319,339,359,380,400,419,439,460,479,500,519,539,559,580,599,620,638,660,679,699,719,740,760,780,799,819,839,859,879,900,919,939],"xSR":741.5,"ySR":449.15000000000003,"xT1":424.9,"yT1":0,"xT2":1058.1,"yT2":0,"toosoon":0,"cond_shown":"randomdotsizeEA","ratio_trial":750,"smaller_num":"6","larger_num":"8","correct_side":2,"subjID":"AlissonCamilaMalpicaMuñoz14","gender":"1","age":"11","school":"6"},{"start_time":1551794748806,"click_time":1551794749824,"finger_time":1551794749523,"fix_duration":800.1772742609369,"trial":6,"RT":717,"MT":301,"sideResp":2,"stimulus":"img/750/randomdotsizeEA/L/9_Ratio_750_L_4_R_3.png","xmouse":[801,801,801,801,801,801,801,801,801,801,801,801,801,801,801,801,801,801,801,801,801,801,801,801,801,801,801,801,801,801,801,801,803,807,813,842,883,968,1003,1037,1064,1079,1086,1087,1087,1087,1087,1089,1095,1100,1105],"ymouse":[497,497,497,497,497,497,497,497,497,497,497,497,497,497,497,497,497,497,497,497,497,497,497,497,497,497,497,497,497,497,497,497,497,495,492,474,447,368,311,246,198,171,148,147,146,146,146,139,122,103,84],"timestamp_mouse":[17,37,58,77,98,117,138,158,177,198,218,238,258,278,298,317,337,357,378,398,417,437,458,478,497,517,538,558,577,598,618,638,658,678,698,717,737,757,776,797,818,837,858,877,896,918,938,958,976,997,1018],"xSR":741.5,"ySR":449.15000000000003,"xT1":424.9,"yT1":0,"xT2":1058.1,"yT2":0,"toosoon":0,"cond_shown":"randomdotsizeEA","ratio_trial":750,"smaller_num":"3","larger_num":"4","correct_side":1,"subjID":"AlissonCamilaMalpicaMuñoz14","gender":"1","age":"11","school":"6"},{"start_time":1551794750914,"click_time":1551794752104,"finger_time":1551794751723,"fix_duration":250,"trial":7,"RT":809,"MT":381,"sideResp":1,"stimulus":"img/900/randomdotsizeEA/R/12_Ratio_900_L_18_R_20.png","xmouse":[809,809,809,809,809,809,809,809,809,809,809,809,809,809,809,809,809,809,809,809,809,809,809,809,809,809,809,809,809,809,809,809,809,809,809,809,809,807,797,784,748,703,604,572,558,551,549,549,549,544,534,529,527,527,527,527,527,527,526,524],"ymouse":[506,506,506,506,506,506,506,506,506,506,506,506,506,506,506,506,506,506,506,506,506,506,506,506,506,506,506,506,506,506,506,506,506,506,506,506,506,503,493,481,428,344,173,117,93,83,78,78,74,61,40,28,22,22,22,22,22,22,21,21],"timestamp_mouse":[9,34,49,70,90,110,129,150,169,189,209,229,250,268,289,310,329,349,370,389,410,428,449,470,488,509,530,549,569,590,609,629,650,668,690,709,729,750,770,790,809,829,848,870,889,909,929,949,969,989,1010,1030,1048,1070,1091,1109,1130,1150,1169,1190],"xSR":741.5,"ySR":449.15000000000003,"xT1":424.9,"yT1":0,"xT2":1058.1,"yT2":0,"toosoon":0,"cond_shown":"randomdotsizeEA","ratio_trial":900,"smaller_num":"18","larger_num":"20","correct_side":2,"subjID":"AlissonCamilaMalpicaMuñoz14","gender":"1","age":"11","school":"6"},{"start_time":1551794753454,"click_time":1551794754183,"finger_time":1551794754084,"fix_duration":250,"trial":8,"RT":630,"MT":99,"sideResp":2,"stimulus":"img/250/equaldotsize/R/10_Ratio_250_L_4_R_16.png","xmouse":[816,816,816,815,815,815,815,815,815,815,815,815,815,815,815,815,815,815,815,815,815,815,815,815,815,815,815,815,815,816,824,842,893,940,993,1045,1129],"ymouse":[472,472,472,473,473,473,473,473,473,473,473,473,473,473,473,473,473,473,473,473,473,473,473,473,473,473,473,473,473,470,457,426,340,277,215,156,60],"timestamp_mouse":[9,29,49,69,89,109,130,150,170,189,210,229,250,269,289,310,329,350,369,389,409,429,449,470,490,509,530,550,570,588,609,630,650,670,689,709,729],"xSR":741.5,"ySR":449.15000000000003,"xT1":424.9,"yT1":0,"xT2":1058.1,"yT2":0,"toosoon":0,"cond_shown":"equaldotsize","ratio_trial":250,"smaller_num":"4","larger_num":"16","correct_side":2,"subjID":"AlissonCamilaMalpicaMuñoz14","gender":"1","age":"11","school":"6"},{"start_time":1551794757277,"click_time":1551794758323,"finger_time":1551794757963,"fix_duration":1091.6516529719013,"trial":9,"RT":686,"MT":360,"sideResp":1,"stimulus":"img/750/equaldotsize/L/6_Ratio_750_L_24_R_18.png","xmouse":[800,800,800,800,800,800,800,800,800,800,800,800,800,800,800,800,800,800,800,800,800,800,800,800,800,800,800,800,800,800,800,800,798,773,729,715,706,698,691,672,653,648,635,627,616,595,588,583,578,563,551,533,499],"ymouse":[482,482,482,482,482,482,482,482,482,482,482,482,482,482,482,482,482,482,482,482,482,482,482,482,482,482,482,482,482,482,482,482,483,453,392,375,363,352,342,314,292,286,270,259,247,222,214,208,202,184,167,143,95],"timestamp_mouse":[9,36,46,66,87,107,127,146,167,186,207,227,246,266,286,306,326,347,367,387,406,427,445,467,487,506,527,546,566,586,607,627,647,667,686,707,726,747,767,786,806,826,846,866,886,906,927,946,966,986,1006,1026,1046],"xSR":741.5,"ySR":449.15000000000003,"xT1":424.9,"yT1":0,"xT2":1058.1,"yT2":0,"toosoon":0,"cond_shown":"equaldotsize","ratio_trial":750,"smaller_num":"18","larger_num":"24","correct_side":1,"subjID":"AlissonCamilaMalpicaMuñoz14","gender":"1","age":"11","school":"6"},{"start_time":1551794760012,"click_time":1551794761643,"finger_time":1551794761063,"fix_duration":566.9159464362347,"trial":10,"RT":1051,"MT":580,"sideResp":1,"stimulus":"img/500/equaldotsize/L/5_Ratio_500_L_4_R_2.png","xmouse":[799,799,799,799,799,799,799,799,799,799,799,799,799,799,799,799,799,799,799,799,799,799,799,799,799,799,799,799,799,799,799,799,799,799,799,799,799,799,799,800,800,800,800,800,800,800,800,800,800,800,800,789,770,754,751,736,727,708,635,617,605,593,576,568,562,554,548,543,540,538,535,533,527,527,527,527,527,527,527,526,525,522],"ymouse":[503,503,503,503,503,503,503,503,503,503,503,503,503,503,503,503,503,503,503,503,503,503,503,503,503,503,503,503,503,503,503,503,503,503,503,503,503,503,503,505,505,505,505,505,505,505,505,505,505,493,479,462,436,418,414,395,382,358,249,225,209,194,162,138,115,94,86,77,73,68,61,55,47,46,46,46,46,46,46,46,48,50],"timestamp_mouse":[11,32,64,71,91,112,132,152,172,192,212,232,252,271,291,312,331,351,371,391,412,431,451,472,491,512,530,551,571,591,612,630,652,672,691,712,730,752,772,790,811,832,851,872,891,912,931,950,972,991,1011,1032,1051,1071,1091,1111,1131,1151,1172,1192,1211,1231,1251,1271,1292,1311,1330,1351,1370,1392,1412,1432,1452,1471,1491,1511,1532,1551,1570,1590,1612,1631],"xSR":741.5,"ySR":449.15000000000003,"xT1":424.9,"yT1":0,"xT2":1058.1,"yT2":0,"toosoon":0,"cond_shown":"equaldotsize","ratio_trial":500,"smaller_num":"2","larger_num":"4","correct_side":1,"subjID":"AlissonCamilaMalpicaMuñoz14","gender":"1","age":"11","school":"6"},{"start_time":1551794763538,"click_time":1551794764324,"finger_time":1551794764083,"fix_duration":812.2367822106764,"trial":11,"RT":545,"MT":241,"sideResp":1,"stimulus":"img/250/equaldotanddens/L/14_Ratio_250_L_12_R_3.png","xmouse":[807,807,807,807,807,807,807,807,807,807,807,807,807,807,807,807,807,807,807,807,807,806,805,804,803,799,789,748,725,685,665,631,621,610,602,590,547,526,516,508],"ymouse":[493,493,493,493,493,493,493,493,493,493,493,493,493,493,493,493,493,493,493,493,493,492,488,485,481,477,468,439,424,401,386,354,338,323,306,280,178,134,114,90],"timestamp_mouse":[12,41,45,65,86,105,126,146,166,185,205,226,244,265,285,306,326,345,366,386,405,425,446,465,485,506,524,545,566,586,606,625,646,665,685,705,726,744,765,786],"xSR":741.5,"ySR":449.15000000000003,"xT1":424.9,"yT1":0,"xT2":1058.1,"yT2":0,"toosoon":0,"cond_shown":"equaldotanddens","ratio_trial":250,"smaller_num":"3","larger_num":"12","correct_side":1,"subjID":"AlissonCamilaMalpicaMuñoz14","gender":"1","age":"11","school":"6"},{"start_time":1551794766086,"click_time":1551794766943,"finger_time":1551794766704,"fix_duration":861.2659820145528,"trial":12,"RT":618,"MT":239,"sideResp":2,"stimulus":"img/750/equaldotanddens/R/15_Ratio_750_L_9_R_12.png","xmouse":[813,813,813,813,813,813,813,813,813,813,813,813,813,813,813,813,813,813,813,813,813,813,813,813,813,813,813,813,813,815,823,829,838,851,854,858,866,880,913,941,978,1051,1104],"ymouse":[470,470,470,470,470,470,470,470,470,470,470,470,470,470,470,470,470,470,470,470,470,470,470,470,470,470,470,470,465,450,431,415,396,364,358,353,337,312,254,218,173,101,60],"timestamp_mouse":[33,37,58,76,97,116,138,158,176,198,217,238,256,277,297,317,337,357,378,396,418,437,458,478,497,516,538,557,578,597,618,638,658,678,696,717,737,757,777,796,817,837,857],"xSR":741.5,"ySR":449.15000000000003,"xT1":424.9,"yT1":0,"xT2":1058.1,"yT2":0,"toosoon":0,"cond_shown":"equaldotanddens","ratio_trial":750,"smaller_num":"9","larger_num":"12","correct_side":2,"subjID":"AlissonCamilaMalpicaMuñoz14","gender":"1","age":"11","school":"6"},{"start_time":1551794770555,"click_time":1551794772063,"finger_time":1551794771123,"fix_duration":1269.5790605624168,"trial":13,"RT":568,"MT":940,"sideResp":1,"stimulus":"img/750/equaldotsize/L/1_Ratio_750_L_20_R_15.png","xmouse":[810,810,810,810,810,810,810,810,810,810,810,810,810,810,810,810,810,810,810,810,810,810,810,810,810,808,806,803,796,789,776,767,759,751,739,717,707,699,687,681,674,672,669,667,664,655,649,644,638,634,625,622,620,618,612,611,611,611,611,611,611,608,605,600,595,582,575,571,570,568,565,563,561,561,560,514],"ymouse":[485,485,485,485,485,485,485,485,485,485,485,485,485,485,485,485,485,485,485,485,485,485,485,485,484,474,462,456,441,430,408,395,380,366,350,320,304,287,263,254,244,242,237,234,231,225,223,221,219,216,212,209,206,200,191,178,174,173,173,173,173,172,172,172,172,172,172,172,172,172,171,171,170,170,169,61],"timestamp_mouse":[9,42,47,69,88,109,129,148,169,188,208,229,249,268,287,309,328,348,367,389,409,428,449,468,488,508,529,548,568,589,608,629,648,668,688,709,727,748,768,787,808,828,848,868,887,908,928,948,968,988,1008,1028,1049,1068,1088,1107,1128,1148,1168,1188,1208,1228,1248,1268,1288,1308,1328,1348,1368,1389,1409,1428,1448,1468,1488,1508],"xSR":741.5,"ySR":449.15000000000003,"xT1":424.9,"yT1":0,"xT2":1058.1,"yT2":0,"toosoon":0,"cond_shown":"equaldotsize","ratio_trial":750,"smaller_num":"15","larger_num":"20","correct_side":1,"subjID":"AlissonCamilaMalpicaMuñoz14","gender":"1","age":"11","school":"6"},{"start_time":1551794775228,"click_time":1551794776404,"finger_time":1551794775884,"fix_duration":442.12792229339203,"trial":14,"RT":656,"MT":520,"sideResp":1,"stimulus":"img/500/equaldotanddens/L/13_Ratio_500_L_12_R_6.png","xmouse":[787,787,787,787,787,786,786,786,786,786,786,786,786,786,786,785,782,782,782,782,780,780,780,780,780,780,779,774,771,767,761,752,724,699,683,667,648,641,626,610,594,561,543,523,518,512,508,505,504,502,500,497,496,496,496,496,501,502,504],"ymouse":[471,472,472,474,474,476,476,476,476,476,476,476,476,476,477,477,480,480,480,480,480,480,480,480,480,480,480,477,474,469,461,451,408,375,358,346,330,322,311,301,293,274,260,245,237,226,216,204,196,186,178,167,164,158,154,149,124,110,95],"timestamp_mouse":[16,49,56,76,96,115,134,155,174,196,216,235,255,275,296,315,335,356,375,394,415,436,455,476,495,515,535,555,576,596,615,635,656,675,695,716,736,754,775,796,815,835,856,875,895,916,935,955,975,995,1015,1034,1054,1074,1095,1116,1135,1156,1176],"xSR":741.5,"ySR":449.15000000000003,"xT1":424.9,"yT1":0,"xT2":1058.1,"yT2":0,"toosoon":0,"cond_shown":"equaldotanddens","ratio_trial":500,"smaller_num":"6","larger_num":"12","correct_side":1,"subjID":"AlissonCamilaMalpicaMuñoz14","gender":"1","age":"11","school":"6"},{"start_time":1551794778383,"click_time":1551794781223,"finger_time":1551794780824,"fix_duration":1018.8739255916413,"trial":15,"RT":2441,"MT":399,"sideResp":1,"stimulus":"img/750/equaldotsize/L/9_Ratio_750_L_4_R_3.png","xmouse":[814,814,814,814,814,814,814,814,814,814,814,814,814,814,814,814,814,814,814,814,814,814,814,814,814,814,814,814,814,814,814,814,814,814,814,814,814,814,814,814,814,814,814,814,814,814,814,814,814,814,814,814,814,814,814,814,814,814,814,814,814,814,814,814,814,814,814,814,814,814,814,814,814,814,814,814,814,814,814,814,814,814,814,814,814,814,814,814,814,814,814,814,814,814,814,814,814,814,814,814,814,814,814,814,814,814,814,814,814,814,814,814,814,814,814,814,814,814,814,814,814,814,791,772,667,628,616,616,616,616,616,616,616,616,616,616,616,616,616,616,616,514,497],"ymouse":[480,480,480,480,480,480,480,480,480,480,480,480,480,480,480,480,480,480,480,480,480,480,480,480,480,480,480,480,480,480,480,480,480,480,480,480,480,480,480,480,480,480,480,480,480,480,480,480,480,480,480,480,480,480,480,480,480,480,480,480,480,480,480,480,480,480,480,480,480,480,480,480,480,480,480,480,480,480,480,480,480,480,480,480,480,480,480,480,480,480,480,480,480,480,480,480,480,480,480,480,480,480,480,480,480,480,480,480,480,480,480,480,480,480,480,480,480,480,480,480,480,480,420,378,169,60,1,1,1,1,1,1,1,1,1,1,1,1,1,1,1,0,6],"timestamp_mouse":[9,36,40,61,81,100,120,140,160,181,200,220,241,261,281,300,321,340,360,380,400,420,440,460,481,500,520,541,559,580,600,620,640,661,680,700,719,740,760,781,800,820,839,861,880,901,920,941,960,980,1000,1021,1041,1060,1080,1100,1121,1140,1161,1180,1200,1220,1241,1260,1280,1300,1320,1341,1360,1380,1400,1420,1440,1460,1481,1499,1521,1539,1561,1581,1599,1620,1640,1660,1681,1700,1720,1740,1761,1780,1800,1821,1840,1861,1879,1901,1920,1940,1960,1981,2000,2020,2040,2060,2080,2100,2120,2140,2161,2179,2200,2220,2239,2261,2280,2300,2320,2341,2361,2381,2401,2420,2441,2459,2480,2500,2520,2539,2560,2581,2601,2621,2641,2660,2680,2700,2720,2740,2760,2780,2799,2819,2839],"xSR":741.5,"ySR":449.15000000000003,"xT1":424.9,"yT1":0,"xT2":1058.1,"yT2":0,"toosoon":0,"cond_shown":"equaldotsize","ratio_trial":750,"smaller_num":"3","larger_num":"4","correct_side":1,"subjID":"AlissonCamilaMalpicaMuñoz14","gender":"1","age":"11","school":"6"},{"start_time":1551794783686,"click_time":1551794784563,"finger_time":1551794784184,"fix_duration":1021.8927177650673,"trial":16,"RT":498,"MT":379,"sideResp":2,"stimulus":"img/250/equaldotanddens/R/8_Ratio_250_L_1_R_4.png","xmouse":[825,823,822,819,819,819,819,819,819,819,819,819,819,819,819,819,819,819,819,819,819,818,819,830,853,877,887,888,908,961,979,1010,1019,1023,1024,1024,1024,1024,1024,1024,1024,1024,1058,1096],"ymouse":[488,488,488,488,488,488,488,488,488,488,488,488,488,488,488,488,488,488,488,488,488,488,485,467,435,395,357,318,242,153,124,59,35,7,0,0,0,0,0,0,0,0,3,38],"timestamp_mouse":[17,40,57,77,97,117,138,157,177,196,218,238,258,277,298,318,337,356,376,397,416,436,456,476,498,517,536,557,577,597,617,638,658,677,697,717,737,756,777,798,818,838,858,877],"xSR":741.5,"ySR":449.15000000000003,"xT1":424.9,"yT1":0,"xT2":1058.1,"yT2":0,"toosoon":0,"cond_shown":"equaldotanddens","ratio_trial":250,"smaller_num":"1","larger_num":"4","correct_side":2,"subjID":"AlissonCamilaMalpicaMuñoz14","gender":"1","age":"11","school":"6"},{"start_time":1551794788240,"click_time":1551794789384,"finger_time":1551794789124,"fix_duration":1474.4078606317103,"trial":17,"RT":884,"MT":260,"sideResp":1,"stimulus":"img/750/equaldotsize/L/1_Ratio_750_L_20_R_15.png","xmouse":[791,791,791,791,791,791,791,791,791,791,791,791,791,791,791,791,791,791,791,791,791,791,791,791,791,791,791,791,791,791,791,791,791,790,790,789,789,787,780,776,773,769,767,762,751,741,709,691,677,664,657,651,648,644,640,631,534,465],"ymouse":[496,496,496,496,496,496,496,496,496,496,496,496,496,496,496,496,496,496,496,496,496,496,496,496,496,496,496,496,496,496,496,496,496,497,497,497,497,495,487,479,474,468,465,459,442,427,345,280,208,162,125,87,78,74,70,65,34,20],"timestamp_mouse":[10,39,43,63,82,104,124,143,163,183,204,223,243,263,283,303,323,342,363,382,404,423,442,464,484,514,522,543,564,584,603,622,643,663,683,704,723,744,763,783,803,823,843,863,884,903,924,943,963,983,1002,1023,1043,1063,1082,1102,1124,1144],"xSR":741.5,"ySR":449.15000000000003,"xT1":424.9,"yT1":0,"xT2":1058.1,"yT2":0,"toosoon":0,"cond_shown":"equaldotsize","ratio_trial":750,"smaller_num":"15","larger_num":"20","correct_side":1,"subjID":"AlissonCamilaMalpicaMuñoz14","gender":"1","age":"11","school":"6"},{"start_time":1551794791697,"click_time":1551794793162,"finger_time":1551794792463,"fix_duration":953.0493242384603,"trial":18,"RT":766,"MT":699,"sideResp":1,"stimulus":"img/250/randomdotsizeEA/L/2_Ratio_250_L_16_R_4.png","xmouse":[780,780,780,780,780,781,781,782,782,782,782,782,782,782,782,782,782,782,782,782,782,784,784,787,789,791,794,798,805,806,807,807,807,807,807,806,805,801,786,778,767,758,746,721,639,621,613,602,565,559,558,563,566,566,566,566,566,566,566,556,537,532,529,526,526,524,522,520,520,520,520,519,519,515],"ymouse":[487,487,487,487,487,487,487,487,487,487,487,487,487,487,487,487,487,487,487,487,487,487,486,482,480,479,476,473,462,459,456,456,455,455,455,454,454,451,428,414,393,379,365,352,337,334,330,325,311,308,285,263,256,256,256,256,256,255,243,209,182,176,167,153,129,120,117,115,115,115,115,114,109,94],"timestamp_mouse":[8,26,47,65,86,106,127,146,165,187,206,226,246,266,285,306,326,346,366,386,407,426,446,466,486,506,526,545,567,586,605,626,646,666,686,707,727,745,766,787,806,825,846,866,886,905,926,946,966,986,1005,1026,1045,1067,1087,1106,1125,1147,1166,1185,1206,1226,1245,1266,1285,1306,1327,1347,1367,1386,1406,1426,1445,1465],"xSR":741.5,"ySR":449.15000000000003,"xT1":424.9,"yT1":0,"xT2":1058.1,"yT2":0,"toosoon":0,"cond_shown":"randomdotsizeEA","ratio_trial":250,"smaller_num":"4","larger_num":"16","correct_side":1,"subjID":"AlissonCamilaMalpicaMuñoz14","gender":"1","age":"11","school":"6"},{"start_time":1551794795695,"click_time":1551794797144,"finger_time":1551794796622,"fix_duration":1450.7498780122012,"trial":19,"RT":927,"MT":522,"sideResp":1,"stimulus":"img/900/randomdotsizeEA/R/6_Ratio_900_L_9_R_10.png","xmouse":[798,798,798,798,798,798,798,798,798,798,798,798,798,798,798,798,798,798,798,798,798,798,798,798,798,798,798,798,798,798,798,798,798,798,798,798,798,798,798,798,797,795,794,792,790,787,783,780,772,767,756,747,742,728,714,688,648,613,562,545,536,534,533,533,533,533,533,533,529,525,523,515,505],"ymouse":[527,527,527,527,527,527,527,527,527,527,527,527,527,527,527,527,527,527,527,527,527,527,527,527,527,527,527,527,527,527,527,527,527,527,527,527,527,527,527,519,509,500,493,475,464,450,437,430,421,418,410,403,392,365,345,324,299,278,243,233,228,227,226,226,225,222,218,212,197,182,159,101,63],"timestamp_mouse":[9,29,47,69,88,108,127,149,168,188,208,227,247,269,288,307,329,348,368,389,408,429,448,468,488,507,529,549,567,588,609,629,649,669,688,707,729,749,769,789,808,828,848,868,888,908,927,947,968,988,1008,1029,1047,1069,1089,1107,1128,1148,1168,1189,1207,1228,1248,1268,1288,1307,1329,1349,1367,1387,1407,1427,1448],"xSR":741.5,"ySR":449.15000000000003,"xT1":424.9,"yT1":0,"xT2":1058.1,"yT2":0,"toosoon":0,"cond_shown":"randomdotsizeEA","ratio_trial":900,"smaller_num":"9","larger_num":"10","correct_side":2,"subjID":"AlissonCamilaMalpicaMuñoz14","gender":"1","age":"11","school":"6"},{"start_time":1551794798547,"click_time":1551794799624,"finger_time":1551794799163,"fix_duration":422.3047102647051,"trial":20,"RT":616,"MT":461,"sideResp":2,"stimulus":"img/750/equaldotanddens/R/5_Ratio_750_L_15_R_20.png","xmouse":[809,809,809,809,809,809,809,809,809,809,809,809,809,809,809,809,809,809,809,809,809,809,809,809,809,809,809,809,814,829,877,892,905,915,928,950,956,962,966,971,986,997,1001,1002,1003,1015,1023,1033,1038,1040,1048,1053,1058,1064],"ymouse":[503,503,503,503,503,503,503,503,503,503,503,503,503,503,503,503,503,503,503,503,503,503,503,503,503,503,503,503,501,485,426,407,391,376,358,322,308,289,278,265,224,183,148,120,97,53,42,35,32,32,31,31,31,34],"timestamp_mouse":[16,35,62,77,97,116,135,156,177,195,217,236,256,277,297,316,336,356,377,397,416,437,457,475,496,517,535,557,575,595,616,636,656,675,695,716,736,756,776,796,815,836,856,876,897,915,936,956,977,997,1017,1037,1055,1076],"xSR":741.5,"ySR":449.15000000000003,"xT1":424.9,"yT1":0,"xT2":1058.1,"yT2":0,"toosoon":0,"cond_shown":"equaldotanddens","ratio_trial":750,"smaller_num":"15","larger_num":"20","correct_side":2,"subjID":"AlissonCamilaMalpicaMuñoz14","gender":"1","age":"11","school":"6"},{"start_time":1551794803319,"click_time":1551794804284,"finger_time":1551794803883,"fix_duration":1013.6005426021185,"trial":21,"RT":564,"MT":401,"sideResp":1,"stimulus":"img/900/equaldotsize/L/4_Ratio_900_L_20_R_18.png","xmouse":[791,791,791,791,791,791,791,791,791,791,791,791,791,791,791,791,791,791,791,791,791,790,790,790,790,790,790,790,787,774,759,744,727,719,713,703,694,678,645,636,590,564,542,540,539,538,537,525,513],"ymouse":[498,498,498,498,498,498,498,498,498,498,498,498,498,498,498,498,498,498,498,498,497,497,492,485,483,478,473,460,445,415,386,362,333,321,314,306,301,292,259,241,156,124,105,103,103,102,99,89,78],"timestamp_mouse":[10,23,44,64,85,105,123,144,164,184,204,225,245,264,285,304,325,344,365,383,404,424,444,464,485,505,524,544,564,584,604,624,643,664,685,704,724,744,764,785,804,824,843,863,883,904,924,944,965],"xSR":741.5,"ySR":449.15000000000003,"xT1":424.9,"yT1":0,"xT2":1058.1,"yT2":0,"toosoon":0,"cond_shown":"equaldotsize","ratio_trial":900,"smaller_num":"18","larger_num":"20","correct_side":1,"subjID":"AlissonCamilaMalpicaMuñoz14","gender":"1","age":"11","school":"6"},{"start_time":1551794806447,"click_time":1551794807503,"finger_time":1551794807024,"fix_duration":1301.4783578786203,"trial":22,"RT":577,"MT":479,"sideResp":1,"stimulus":"img/250/equaldotanddens/L/2_Ratio_250_L_16_R_4.png","xmouse":[798,798,798,798,798,798,798,798,798,798,798,798,798,798,798,798,798,798,798,798,798,798,798,798,798,813,816,818,819,819,822,826,827,827,821,813,788,773,750,726,675,655,632,618,602,577,562,549,544,540,533,527,524],"ymouse":[497,497,497,497,497,497,497,497,497,497,497,497,497,497,497,497,497,497,497,497,497,497,497,496,494,475,464,454,445,435,403,376,351,315,294,280,259,251,237,225,205,201,198,198,195,179,165,152,142,130,105,86,80],"timestamp_mouse":[15,35,56,76,95,117,137,156,176,196,216,235,256,276,296,317,336,356,375,396,417,435,456,476,495,516,536,556,577,596,615,635,656,676,696,716,737,756,776,795,816,837,856,876,895,917,936,956,976,997,1015,1035,1056],"xSR":741.5,"ySR":449.15000000000003,"xT1":424.9,"yT1":0,"xT2":1058.1,"yT2":0,"toosoon":0,"cond_shown":"equaldotanddens","ratio_trial":250,"smaller_num":"4","larger_num":"16","correct_side":1,"subjID":"AlissonCamilaMalpicaMuñoz14","gender":"1","age":"11","school":"6"},{"start_time":1551794810234,"click_time":1551794811143,"finger_time":1551794810643,"fix_duration":250,"trial":23,"RT":409,"MT":500,"sideResp":1,"stimulus":"img/250/equaldotanddens/L/15_Ratio_250_L_12_R_3.png","xmouse":[822,822,822,822,822,821,821,821,821,821,821,821,821,821,821,820,810,804,795,780,763,736,724,711,689,675,644,625,594,564,541,513,504,497,494,492,489,487,486,485,484,484,485,486,486,486],"ymouse":[505,505,505,505,505,505,505,505,505,505,505,505,505,505,505,504,494,488,473,453,432,397,381,364,339,323,294,277,250,224,200,166,154,141,136,132,123,117,113,110,109,108,108,106,101,98],"timestamp_mouse":[9,34,49,69,90,109,130,149,169,190,208,229,250,270,289,309,330,348,368,388,409,430,450,469,489,509,528,548,569,589,609,628,649,668,689,708,729,748,769,789,810,829,849,869,889,909],"xSR":741.5,"ySR":449.15000000000003,"xT1":424.9,"yT1":0,"xT2":1058.1,"yT2":0,"toosoon":0,"cond_shown":"equaldotanddens","ratio_trial":250,"smaller_num":"3","larger_num":"12","correct_side":1,"subjID":"AlissonCamilaMalpicaMuñoz14","gender":"1","age":"11","school":"6"},{"start_time":1551794812706,"click_time":1551794813863,"finger_time":1551794813463,"fix_duration":481.8945582116609,"trial":24,"RT":757,"MT":400,"sideResp":1,"stimulus":"img/900/equaldotanddens/L/8_Ratio_900_L_20_R_18.png","xmouse":[783,783,783,783,783,783,783,783,783,783,783,783,783,783,783,784,785,790,791,791,792,792,792,792,792,792,792,792,792,792,792,792,792,792,792,793,793,773,753,730,706,691,666,649,625,595,571,542,529,513,490,478,469,465,461,459,457,455],"ymouse":[487,487,487,487,487,487,487,487,487,487,487,487,487,487,487,487,487,487,487,487,487,487,487,487,487,487,487,487,487,487,487,487,487,487,487,487,484,448,418,387,359,344,316,300,278,250,230,202,189,171,150,140,129,121,116,109,104,95],"timestamp_mouse":[23,38,57,77,96,117,138,158,177,197,216,237,257,277,298,317,336,357,376,398,417,437,458,477,498,517,538,556,578,598,617,637,656,677,696,718,736,757,778,798,817,838,857,878,897,916,937,957,977,996,1016,1037,1058,1076,1097,1117,1138,1157],"xSR":741.5,"ySR":449.15000000000003,"xT1":424.9,"yT1":0,"xT2":1058.1,"yT2":0,"toosoon":0,"cond_shown":"equaldotanddens","ratio_trial":900,"smaller_num":"18","larger_num":"20","correct_side":1,"subjID":"AlissonCamilaMalpicaMuñoz14","gender":"1","age":"11","school":"6"},{"start_time":1551794816003,"click_time":1551794817084,"finger_time":1551794816743,"fix_duration":1279.1495092350467,"trial":25,"RT":740,"MT":341,"sideResp":2,"stimulus":"img/750/equaldotanddens/R/2_Ratio_750_L_6_R_8.png","xmouse":[794,794,794,794,794,794,794,794,794,794,794,794,794,794,794,794,794,794,794,794,794,794,794,794,794,794,794,794,794,794,794,794,794,796,806,823,833,843,884,926,1003,1091,1150,1183,1192,1199,1204,1204,1205,1205,1200,1196,1189,1163,1150],"ymouse":[476,476,476,476,476,476,476,476,476,476,476,476,476,476,476,476,476,476,476,476,476,476,476,476,476,476,476,476,476,476,476,476,476,476,473,459,450,439,414,392,349,302,267,231,211,187,168,155,134,124,116,107,99,80,72],"timestamp_mouse":[1,20,40,76,80,100,119,141,161,180,199,221,240,261,279,301,320,341,360,380,401,420,441,461,481,499,521,540,561,579,601,620,641,660,680,700,720,740,760,779,800,820,840,860,880,899,920,941,960,980,999,1020,1040,1060,1080],"xSR":741.5,"ySR":449.15000000000003,"xT1":424.9,"yT1":0,"xT2":1058.1,"yT2":0,"toosoon":0,"cond_shown":"equaldotanddens","ratio_trial":750,"smaller_num":"6","larger_num":"8","correct_side":2,"subjID":"AlissonCamilaMalpicaMuñoz14","gender":"1","age":"11","school":"6"},{"start_time":1551794818337,"click_time":1551794819283,"finger_time":1551794818903,"fix_duration":313.566638587016,"trial":26,"RT":566,"MT":380,"sideResp":1,"stimulus":"img/900/randomdotsizeEA/L/4_Ratio_900_L_20_R_18.png","xmouse":[795,795,795,795,795,795,795,795,795,795,795,795,795,795,795,795,795,795,795,795,795,795,795,795,795,795,795,791,787,772,767,761,749,734,716,699,672,661,591,537,514,494,490,482,475,467,456,454],"ymouse":[462,462,462,462,462,462,462,462,462,462,462,462,462,464,466,470,470,470,470,470,470,470,470,470,470,470,470,452,439,402,389,375,360,341,326,313,290,279,237,205,190,168,159,147,137,125,107,99],"timestamp_mouse":[9,26,45,67,86,105,127,145,166,185,205,227,245,266,287,306,327,345,367,386,407,426,445,467,487,505,527,547,566,585,605,625,646,665,686,707,727,747,767,785,806,827,846,866,886,906,927,946],"xSR":741.5,"ySR":449.15000000000003,"xT1":424.9,"yT1":0,"xT2":1058.1,"yT2":0,"toosoon":0,"cond_shown":"randomdotsizeEA","ratio_trial":900,"smaller_num":"18","larger_num":"20","correct_side":1,"subjID":"AlissonCamilaMalpicaMuñoz14","gender":"1","age":"11","school":"6"},{"start_time":1551794822510,"click_time":1551794823763,"finger_time":1551794823103,"fix_duration":1065.4310459182109,"trial":27,"RT":593,"MT":660,"sideResp":2,"stimulus":"img/900/equaldotsize/R/9_Ratio_900_L_18_R_20.png","xmouse":[799,799,799,799,799,800,800,800,800,800,800,800,800,800,800,800,800,800,800,800,800,802,804,806,808,809,811,816,820,823,828,830,832,833,834,835,838,847,853,868,882,904,959,985,1000,1008,1015,1022,1027,1030,1032,1032,1032,1032,1032,1032,1034,1038,1042,1057,1068,1078,1102],"ymouse":[489,489,489,489,489,489,489,489,489,489,489,489,489,489,489,489,489,489,489,489,489,487,479,476,473,470,468,459,451,446,435,430,426,425,423,419,412,397,387,361,344,323,291,277,266,257,247,229,219,212,204,197,186,181,177,173,166,159,153,135,124,113,85],"timestamp_mouse":[14,33,69,73,92,113,133,152,173,193,213,234,253,273,294,313,333,353,373,393,413,433,453,473,493,513,532,552,573,593,613,634,653,672,693,713,732,753,772,792,814,833,854,873,893,913,932,954,973,993,1014,1032,1052,1072,1093,1113,1132,1153,1174,1193,1213,1233,1252],"xSR":741.5,"ySR":449.15000000000003,"xT1":424.9,"yT1":0,"xT2":1058.1,"yT2":0,"toosoon":0,"cond_shown":"equaldotsize","ratio_trial":900,"smaller_num":"18","larger_num":"20","correct_side":2,"subjID":"AlissonCamilaMalpicaMuñoz14","gender":"1","age":"11","school":"6"},{"start_time":1551794825027,"click_time":1551794826364,"finger_time":1551794825662,"fix_duration":402.00451558193504,"trial":28,"RT":635,"MT":702,"sideResp":1,"stimulus":"img/750/randomdotsizeEA/L/6_Ratio_750_L_24_R_18.png","xmouse":[786,788,788,788,788,788,788,788,788,788,788,788,788,788,788,788,788,788,788,788,788,788,788,788,788,788,788,788,788,785,781,763,759,758,755,753,747,743,737,732,725,720,716,706,704,700,695,693,688,682,676,649,633,619,616,612,601,594,583,571,561,545,542,542,539,535,523],"ymouse":[504,500,499,499,499,499,499,499,499,499,499,499,499,499,499,499,499,499,499,499,499,499,499,499,499,499,499,499,499,486,477,445,437,434,426,419,400,393,384,376,369,361,357,346,344,342,338,334,320,299,277,203,169,144,135,126,111,104,96,87,81,74,72,72,70,67,59],"timestamp_mouse":[16,36,56,76,97,115,137,156,176,196,217,237,256,276,296,316,336,357,377,397,415,435,456,477,495,515,537,557,575,595,616,635,657,675,696,716,735,756,775,797,817,836,857,876,896,917,935,956,976,996,1016,1035,1057,1076,1097,1117,1135,1156,1175,1196,1216,1237,1256,1276,1297,1316,1336],"xSR":741.5,"ySR":449.15000000000003,"xT1":424.9,"yT1":0,"xT2":1058.1,"yT2":0,"toosoon":0,"cond_shown":"randomdotsizeEA","ratio_trial":750,"smaller_num":"18","larger_num":"24","correct_side":1,"subjID":"AlissonCamilaMalpicaMuñoz14","gender":"1","age":"11","school":"6"},{"start_time":1551794827762,"click_time":1551794828663,"finger_time":1551794828322,"fix_duration":417.76347952672546,"trial":29,"RT":560,"MT":341,"sideResp":2,"stimulus":"img/500/equaldotsize/R/1_Ratio_500_L_9_R_18.png","xmouse":[789,789,789,789,789,789,789,789,789,789,789,789,789,789,789,789,789,789,789,789,789,789,789,789,789,789,794,803,812,824,844,856,874,893,910,944,959,974,990,1001,1024,1037,1050,1060,1066,1075],"ymouse":[465,465,465,465,465,465,465,465,465,465,465,465,465,465,465,465,465,465,465,465,465,465,465,465,465,465,461,454,446,436,417,405,387,370,353,307,284,263,229,203,163,146,132,118,109,93],"timestamp_mouse":[9,20,46,62,82,101,121,141,161,182,202,220,241,261,282,301,322,341,362,380,400,422,441,460,480,502,522,541,560,581,601,621,640,661,682,701,721,742,762,780,801,820,841,861,881,901],"xSR":741.5,"ySR":449.15000000000003,"xT1":424.9,"yT1":0,"xT2":1058.1,"yT2":0,"toosoon":0,"cond_shown":"equaldotsize","ratio_trial":500,"smaller_num":"9","larger_num":"18","correct_side":2,"subjID":"AlissonCamilaMalpicaMuñoz14","gender":"1","age":"11","school":"6"},{"start_time":1551794830799,"click_time":1551794832643,"finger_time":1551794831703,"fix_duration":934.4309470718931,"trial":30,"RT":904,"MT":940,"sideResp":2,"stimulus":"img/500/randomdotsizeEA/R/3_Ratio_500_L_10_R_20.png","xmouse":[752,752,752,752,752,752,752,752,752,754,756,758,759,761,761,761,761,762,762,762,762,762,762,762,762,762,763,764,764,765,765,765,765,765,765,765,766,768,771,773,775,778,783,795,798,804,809,815,826,832,835,840,844,853,855,860,867,878,904,919,932,944,952,961,964,967,969,972,977,980,982,984,986,991,995,1003,1010,1016,1026,1031,1033,1034,1034,1035,1035,1035,1035,1035,1040,1048,1053,1058,1063],"ymouse":[507,507,507,507,507,507,507,507,507,507,505,503,502,501,501,500,500,499,499,499,499,499,499,499,499,498,497,497,497,496,496,496,496,496,496,496,494,494,492,491,489,487,482,459,453,434,420,407,376,362,350,336,321,294,286,276,267,256,236,228,221,214,210,204,200,194,188,179,160,151,144,136,131,121,114,96,80,65,48,45,44,43,43,43,43,43,43,43,46,56,63,72,81],"timestamp_mouse":[8,24,43,64,84,103,125,145,164,184,205,224,244,264,284,305,323,344,364,384,404,423,444,463,484,504,524,543,565,584,604,625,643,664,685,704,723,745,764,783,805,823,843,865,884,904,923,945,964,984,1003,1024,1045,1065,1084,1104,1124,1145,1165,1184,1203,1225,1245,1264,1285,1303,1324,1343,1364,1383,1403,1424,1445,1463,1485,1504,1524,1544,1563,1583,1604,1624,1644,1665,1684,1705,1724,1743,1764,1784,1805,1825,1844],"xSR":741.5,"ySR":449.15000000000003,"xT1":424.9,"yT1":0,"xT2":1058.1,"yT2":0,"toosoon":0,"cond_shown":"randomdotsizeEA","ratio_trial":500,"smaller_num":"10","larger_num":"20","correct_side":2,"subjID":"AlissonCamilaMalpicaMuñoz14","gender":"1","age":"11","school":"6"},{"start_time":1551794833835,"click_time":1551794834924,"finger_time":1551794834543,"fix_duration":250,"trial":31,"RT":708,"MT":381,"sideResp":2,"stimulus":"img/250/equaldotsize/R/8_Ratio_250_L_1_R_4.png","xmouse":[795,795,795,795,795,795,795,795,795,795,795,795,795,795,795,795,794,793,792,791,790,789,789,789,789,789,789,789,789,790,791,799,805,811,817,823,833,838,845,852,861,890,900,916,933,949,969,980,998,1015,1032,1059,1076,1081,1094],"ymouse":[483,483,483,483,483,483,483,483,483,483,483,483,483,483,483,483,484,484,486,487,488,489,489,489,489,489,489,489,489,490,490,485,478,469,456,448,428,418,407,394,381,354,343,320,305,288,244,222,200,182,164,135,115,109,93],"timestamp_mouse":[9,28,47,68,89,108,129,148,167,189,207,227,248,268,287,307,328,349,368,388,407,427,447,467,489,508,528,548,567,588,608,627,648,667,689,708,727,747,768,788,809,828,848,868,889,907,929,948,968,987,1007,1028,1048,1069,1089],"xSR":741.5,"ySR":449.15000000000003,"xT1":424.9,"yT1":0,"xT2":1058.1,"yT2":0,"toosoon":0,"cond_shown":"equaldotsize","ratio_trial":250,"smaller_num":"1","larger_num":"4","correct_side":2,"subjID":"AlissonCamilaMalpicaMuñoz14","gender":"1","age":"11","school":"6"},{"start_time":1551794836264,"click_time":1551794837303,"finger_time":1551794836863,"fix_duration":379.35569847757836,"trial":32,"RT":599,"MT":440,"sideResp":1,"stimulus":"img/500/equaldotsize/L/5_Ratio_500_L_4_R_2.png","xmouse":[818,818,818,817,817,817,817,817,816,816,816,816,816,815,814,814,814,814,814,814,814,814,814,813,813,813,812,807,804,796,772,759,749,736,718,665,627,592,561,530,505,501,493,487,479,450,433,423,419,419,419,420,431],"ymouse":[496,496,496,496,496,496,496,496,496,496,496,496,496,496,496,496,496,496,496,496,496,496,496,496,496,496,496,496,492,477,432,411,392,369,347,304,281,265,242,208,172,168,158,154,147,119,105,97,95,95,95,94,88],"timestamp_mouse":[2,34,39,58,79,99,118,139,159,179,199,219,239,259,279,299,318,338,360,380,400,418,439,460,479,499,519,539,559,578,599,619,639,659,680,698,719,740,759,778,799,820,839,860,879,898,919,939,960,979,999,1020,1039],"xSR":741.5,"ySR":449.15000000000003,"xT1":424.9,"yT1":0,"xT2":1058.1,"yT2":0,"toosoon":0,"cond_shown":"equaldotsize","ratio_trial":500,"smaller_num":"2","larger_num":"4","correct_side":1,"subjID":"AlissonCamilaMalpicaMuñoz14","gender":"1","age":"11","school":"6"},{"start_time":1551794838556,"click_time":1551794839604,"finger_time":1551794839124,"fix_duration":250,"trial":33,"RT":568,"MT":480,"sideResp":2,"stimulus":"img/250/equaldotsize/R/6_Ratio_250_L_6_R_24.png","xmouse":[784,784,784,784,784,784,784,784,784,784,784,784,784,784,784,784,784,784,781,781,781,781,781,781,781,781,782,788,819,850,929,951,962,969,973,977,979,979,979,979,979,979,979,980,983,991,1002,1007,1023,1032,1050,1056,1060],"ymouse":[484,484,484,484,484,484,484,484,484,484,484,484,484,484,484,484,484,485,488,488,488,488,488,488,488,488,486,480,447,418,355,333,313,292,273,241,212,204,183,173,160,153,145,138,132,117,104,99,87,81,72,69,66],"timestamp_mouse":[8,27,47,67,88,106,128,146,168,187,207,226,248,267,287,307,327,347,368,386,406,428,448,468,487,507,527,547,568,586,608,628,647,668,688,707,727,748,767,788,806,826,847,867,887,907,927,948,967,987,1006,1027,1048],"xSR":741.5,"ySR":449.15000000000003,"xT1":424.9,"yT1":0,"xT2":1058.1,"yT2":0,"toosoon":0,"cond_shown":"equaldotsize","ratio_trial":250,"smaller_num":"6","larger_num":"24","correct_side":2,"subjID":"AlissonCamilaMalpicaMuñoz14","gender":"1","age":"11","school":"6"},{"start_time":1551794841138,"click_time":1551794842162,"finger_time":1551794841723,"fix_duration":535.6190902637927,"trial":34,"RT":585,"MT":439,"sideResp":1,"stimulus":"img/500/equaldotanddens/L/4_Ratio_500_L_18_R_9.png","xmouse":[797,797,797,797,797,797,797,797,797,797,797,797,797,797,797,797,797,797,797,797,797,797,797,797,797,797,796,787,778,769,758,731,719,710,704,698,693,690,685,680,677,668,664,659,654,650,629,593,577,538,523,506],"ymouse":[494,494,494,494,494,494,494,494,494,494,494,494,494,494,494,494,494,494,494,494,494,494,494,494,494,494,495,478,459,439,415,367,346,326,302,283,258,249,239,231,226,213,208,202,196,192,173,149,140,118,108,96],"timestamp_mouse":[9,24,44,64,84,105,125,144,164,184,205,225,246,264,284,304,325,344,365,384,404,424,445,464,484,505,524,545,565,585,605,625,645,664,684,706,724,745,765,785,805,826,845,864,884,906,924,944,964,985,1004,1024],"xSR":741.5,"ySR":449.15000000000003,"xT1":424.9,"yT1":0,"xT2":1058.1,"yT2":0,"toosoon":0,"cond_shown":"equaldotanddens","ratio_trial":500,"smaller_num":"9","larger_num":"18","correct_side":1,"subjID":"AlissonCamilaMalpicaMuñoz14","gender":"1","age":"11","school":"6"},{"start_time":1551794843765,"click_time":1551794844883,"finger_time":1551794844404,"fix_duration":801.9523818370205,"trial":35,"RT":639,"MT":479,"sideResp":2,"stimulus":"img/500/equaldotanddens/R/12_Ratio_500_L_1_R_2.png","xmouse":[805,805,805,805,805,805,805,805,805,805,805,805,805,805,805,805,805,805,805,805,805,805,805,805,805,805,805,805,805,812,824,837,850,868,903,917,938,954,964,983,989,996,1001,1007,1019,1024,1033,1034,1034,1035,1037,1039,1043,1046,1054,1059],"ymouse":[492,492,492,492,492,492,492,492,492,492,492,492,492,492,492,492,492,492,492,492,492,492,492,492,492,492,492,492,492,479,462,446,429,409,368,347,317,296,280,254,245,234,221,210,181,166,143,127,112,90,81,73,65,59,46,40],"timestamp_mouse":[24,46,58,77,97,117,138,158,177,198,217,237,257,278,297,317,337,359,377,399,417,437,457,478,498,517,537,559,577,597,617,639,658,677,697,717,737,758,777,798,818,838,858,877,898,917,937,959,979,997,1017,1038,1057,1079,1097,1118],"xSR":741.5,"ySR":449.15000000000003,"xT1":424.9,"yT1":0,"xT2":1058.1,"yT2":0,"toosoon":0,"cond_shown":"equaldotanddens","ratio_trial":500,"smaller_num":"1","larger_num":"2","correct_side":2,"subjID":"AlissonCamilaMalpicaMuñoz14","gender":"1","age":"11","school":"6"},{"start_time":1551794851066,"click_time":1551794851843,"finger_time":1551794851562,"fix_duration":422.0826187380304,"trial":36,"RT":496,"MT":281,"sideResp":1,"stimulus":"img/900/equaldotsize/L/1_Ratio_900_L_10_R_9.png","xmouse":[816,816,816,816,816,816,816,816,816,816,816,816,816,816,816,816,816,816,816,816,816,816,811,790,716,692,679,671,663,626,607,591,572,563,558,548,539,526,509],"ymouse":[495,495,495,495,495,495,495,495,495,495,495,495,495,495,495,495,495,495,495,495,495,495,489,463,397,380,369,360,340,276,248,224,189,169,154,119,102,86,69],"timestamp_mouse":[17,36,56,76,96,117,136,157,176,197,216,237,257,276,297,318,337,357,376,396,416,436,456,477,496,517,538,556,577,596,616,638,656,676,696,716,736,756,777],"xSR":741.5,"ySR":449.15000000000003,"xT1":424.9,"yT1":0,"xT2":1058.1,"yT2":0,"toosoon":0,"cond_shown":"equaldotsize","ratio_trial":900,"smaller_num":"9","larger_num":"10","correct_side":1,"subjID":"AlissonCamilaMalpicaMuñoz14","gender":"1","age":"11","school":"6"},{"start_time":1551794855146,"click_time":1551794856404,"finger_time":1551794855783,"fix_duration":381.73479495747586,"trial":37,"RT":637,"MT":621,"sideResp":2,"stimulus":"img/900/randomdotsizeEA/L/1_Ratio_900_L_10_R_9.png","xmouse":[786,785,785,785,785,785,785,785,785,785,785,785,785,785,785,785,785,785,785,785,785,785,785,785,785,785,785,785,787,804,816,837,864,887,908,914,920,927,930,937,945,952,956,958,959,960,970,982,996,1016,1021,1024,1027,1031,1034,1034,1034,1035,1036,1046,1055,1064],"ymouse":[491,491,491,491,491,491,491,491,491,491,491,491,491,491,491,491,491,491,491,491,491,491,491,491,491,491,491,489,487,465,438,384,320,261,196,175,158,135,125,103,86,74,67,65,63,61,56,50,42,36,36,36,36,36,37,37,37,39,42,53,56,57],"timestamp_mouse":[38,56,76,96,116,136,158,176,196,217,236,256,276,296,317,337,356,376,397,418,437,456,476,498,516,537,556,576,597,616,637,656,677,697,716,736,756,776,798,816,836,856,876,896,916,936,956,976,997,1017,1037,1057,1076,1097,1117,1136,1156,1176,1196,1216,1237,1258],"xSR":741.5,"ySR":449.15000000000003,"xT1":424.9,"yT1":0,"xT2":1058.1,"yT2":0,"toosoon":0,"cond_shown":"randomdotsizeEA","ratio_trial":900,"smaller_num":"9","larger_num":"10","correct_side":1,"subjID":"AlissonCamilaMalpicaMuñoz14","gender":"1","age":"11","school":"6"},{"start_time":1551794858642,"click_time":1551794859762,"finger_time":1551794859382,"fix_duration":1138.158424424206,"trial":38,"RT":740,"MT":380,"sideResp":1,"stimulus":"img/750/equaldotanddens/L/10_Ratio_750_L_4_R_3.png","xmouse":[805,805,805,805,805,805,805,805,805,805,805,805,805,805,805,805,805,805,805,805,805,805,805,805,805,805,805,805,805,805,805,805,805,805,805,803,796,791,786,778,761,702,682,672,668,668,660,651,641,630,619,598,590,580,559,541,494],"ymouse":[500,500,500,500,500,500,500,500,500,500,500,500,500,500,500,500,500,500,500,500,500,500,500,500,500,500,500,500,500,500,500,500,500,500,499,489,458,437,404,357,310,222,201,191,189,188,180,170,156,145,135,122,115,106,81,61,23],"timestamp_mouse":[2,20,45,60,80,101,120,140,160,180,201,220,240,260,280,300,321,340,360,380,402,421,441,461,481,502,520,540,560,580,600,620,640,660,681,700,720,740,760,780,801,820,842,862,880,901,920,940,961,980,1000,1020,1041,1061,1080,1102,1120],"xSR":741.5,"ySR":449.15000000000003,"xT1":424.9,"yT1":0,"xT2":1058.1,"yT2":0,"toosoon":0,"cond_shown":"equaldotanddens","ratio_trial":750,"smaller_num":"3","larger_num":"4","correct_side":1,"subjID":"AlissonCamilaMalpicaMuñoz14","gender":"1","age":"11","school":"6"},{"start_time":1551794861960,"click_time":1551794863002,"finger_time":1551794862583,"fix_duration":1276.6598502490265,"trial":39,"RT":623,"MT":419,"sideResp":1,"stimulus":"img/500/equaldotanddens/L/11_Ratio_500_L_12_R_6.png","xmouse":[773,774,774,774,775,775,775,775,776,776,776,776,777,777,777,777,777,777,777,777,777,777,777,777,777,777,777,777,777,777,767,751,732,706,678,643,636,633,633,631,627,624,620,618,614,599,585,562,547,535,517,511,505],"ymouse":[499,500,500,500,500,500,500,500,500,500,500,500,500,500,500,500,500,500,500,500,500,500,500,500,500,500,500,500,500,496,454,418,386,350,318,272,256,245,243,238,227,223,219,217,214,194,178,153,142,133,115,105,92],"timestamp_mouse":[12,39,43,62,82,103,122,142,162,182,202,223,242,263,283,302,322,342,362,384,402,422,442,462,484,503,522,542,563,583,602,623,642,664,682,702,723,742,762,782,802,823,842,863,882,902,923,942,962,984,1003,1022,1042],"xSR":741.5,"ySR":449.15000000000003,"xT1":424.9,"yT1":0,"xT2":1058.1,"yT2":0,"toosoon":0,"cond_shown":"equaldotanddens","ratio_trial":500,"smaller_num":"6","larger_num":"12","correct_side":1,"subjID":"AlissonCamilaMalpicaMuñoz14","gender":"1","age":"11","school":"6"},{"start_time":1551794864114,"click_time":1551794865622,"finger_time":1551794864843,"fix_duration":250,"trial":40,"RT":729,"MT":779,"sideResp":1,"stimulus":"img/250/randomdotsizeEA/R/6_Ratio_250_L_6_R_24.png","xmouse":[791,791,791,791,791,791,791,791,791,791,791,791,791,791,791,791,791,791,791,791,791,791,791,791,791,791,791,791,791,791,791,791,791,791,791,789,776,739,719,681,661,642,618,612,608,605,601,597,594,591,586,579,566,558,553,546,540,535,533,533,532,532,532,532,532,532,532,532,532,532,532,532,532,532,528,521],"ymouse":[487,487,487,487,487,487,487,487,487,487,487,487,487,487,487,487,487,487,487,487,487,487,487,487,487,487,487,487,487,487,487,487,487,487,476,451,407,299,253,192,168,152,137,134,132,132,131,130,130,128,127,124,114,106,98,89,80,74,74,74,74,74,74,74,74,74,74,74,74,74,74,74,74,73,70,65],"timestamp_mouse":[8,31,48,69,88,109,128,148,168,188,209,228,249,268,289,308,329,349,368,388,408,428,448,470,489,509,529,549,569,588,608,628,648,668,689,709,729,749,769,788,810,830,849,868,888,908,928,948,968,988,1009,1029,1049,1068,1088,1108,1128,1149,1169,1188,1208,1229,1249,1268,1288,1308,1328,1349,1369,1389,1409,1430,1448,1468,1488,1508],"xSR":741.5,"ySR":449.15000000000003,"xT1":424.9,"yT1":0,"xT2":1058.1,"yT2":0,"toosoon":0,"cond_shown":"randomdotsizeEA","ratio_trial":250,"smaller_num":"6","larger_num":"24","correct_side":2,"subjID":"AlissonCamilaMalpicaMuñoz14","gender":"1","age":"11","school":"6"},{"start_time":1551794867179,"click_time":1551794868042,"finger_time":1551794867862,"fix_duration":334.3662788177819,"trial":41,"RT":683,"MT":180,"sideResp":1,"stimulus":"img/500/equaldotsize/L/7_Ratio_500_L_10_R_5.png","xmouse":[806,806,806,806,806,806,806,806,806,806,806,806,806,806,806,806,806,806,806,806,806,806,806,806,806,806,806,806,806,806,806,806,805,798,730,691,646,625,611,578,562,545,531,519],"ymouse":[494,494,494,494,494,494,494,494,494,494,494,494,494,494,494,494,494,494,494,494,494,494,494,494,494,494,494,494,494,494,494,494,494,486,354,277,183,149,129,96,84,72,61,51],"timestamp_mouse":[8,24,43,63,83,103,123,143,165,183,203,223,244,263,285,305,323,344,365,383,405,423,443,464,483,503,524,543,563,583,603,624,643,664,683,704,724,744,764,783,803,824,844,863],"xSR":741.5,"ySR":449.15000000000003,"xT1":424.9,"yT1":0,"xT2":1058.1,"yT2":0,"toosoon":0,"cond_shown":"equaldotsize","ratio_trial":500,"smaller_num":"5","larger_num":"10","correct_side":1,"subjID":"AlissonCamilaMalpicaMuñoz14","gender":"1","age":"11","school":"6"},{"start_time":1551794870262,"click_time":1551794871243,"finger_time":1551794870503,"fix_duration":1158.6037640751365,"trial":42,"RT":241,"MT":740,"sideResp":2,"stimulus":"img/900/randomdotsizeEA/R/14_Ratio_900_L_18_R_20.png","xmouse":[776,776,776,776,776,776,775,775,774,774,774,773,773,772,772,772,772,772,772,772,772,772,772,772,772,772,772,775,782,787,811,825,844,874,897,936,946,953,960,964,965,965,967,977,986,1004,1016,1029,1045,1061],"ymouse":[461,461,461,461,461,460,460,460,459,457,454,451,448,447,446,446,446,445,445,445,445,445,445,445,445,445,443,440,435,431,408,391,369,327,285,198,175,155,140,131,129,128,127,114,102,80,69,61,53,44],"timestamp_mouse":[8,21,46,60,81,101,121,140,161,181,200,221,241,261,280,300,320,341,361,380,401,421,446,461,481,501,520,540,561,580,600,621,642,662,680,700,721,741,760,780,800,820,840,860,881,901,920,941,960,981],"xSR":741.5,"ySR":449.15000000000003,"xT1":424.9,"yT1":0,"xT2":1058.1,"yT2":0,"toosoon":0,"cond_shown":"randomdotsizeEA","ratio_trial":900,"smaller_num":"18","larger_num":"20","correct_side":2,"subjID":"AlissonCamilaMalpicaMuñoz14","gender":"1","age":"11","school":"6"},{"start_time":1551794872213,"click_time":1551794873142,"finger_time":1551794872762,"fix_duration":250,"trial":43,"RT":549,"MT":380,"sideResp":1,"stimulus":"img/250/randomdotsizeEA/L/1_Ratio_250_L_8_R_2.png","xmouse":[781,781,781,781,781,781,781,781,781,781,781,781,781,781,781,781,781,781,781,781,781,781,781,781,781,781,781,774,766,751,735,717,694,675,663,648,633,603,592,582,573,562,540,531,529,525,521],"ymouse":[478,478,478,478,478,478,478,478,478,478,478,478,478,478,478,478,478,478,478,478,478,478,478,478,478,478,477,439,411,369,314,271,222,190,169,146,129,103,91,74,60,49,36,32,32,32,32],"timestamp_mouse":[9,32,51,70,90,111,130,150,170,190,209,229,249,269,289,310,329,350,370,389,409,429,449,470,489,509,529,549,569,589,610,630,649,669,689,709,730,750,770,789,809,830,849,869,889,909,929],"xSR":741.5,"ySR":449.15000000000003,"xT1":424.9,"yT1":0,"xT2":1058.1,"yT2":0,"toosoon":0,"cond_shown":"randomdotsizeEA","ratio_trial":250,"smaller_num":"2","larger_num":"8","correct_side":1,"subjID":"AlissonCamilaMalpicaMuñoz14","gender":"1","age":"11","school":"6"},{"start_time":1551794874357,"click_time":1551794875703,"finger_time":1551794874942,"fix_duration":312.995702555434,"trial":44,"RT":585,"MT":761,"sideResp":1,"stimulus":"img/250/randomdotsizeEA/L/14_Ratio_250_L_12_R_3.png","xmouse":[772,772,772,772,772,772,772,772,772,772,772,772,772,772,772,772,774,778,783,789,796,799,802,806,811,818,823,831,839,850,881,901,915,922,925,928,928,928,928,924,843,786,753,728,704,616,576,550,544,543,543,549,557,566,574,576,576,576,576,576,574,568,562,556,551,539,530,515],"ymouse":[505,505,505,505,505,505,505,505,505,505,505,505,505,505,505,505,505,505,505,503,501,500,499,497,495,490,487,483,477,468,433,403,383,370,363,354,352,352,351,350,339,331,330,330,330,328,320,297,270,223,143,112,86,58,32,19,17,17,17,17,16,17,21,25,29,32,34,34],"timestamp_mouse":[8,25,45,66,85,107,125,145,166,186,206,227,245,266,285,305,325,346,365,386,405,426,446,465,486,505,526,546,565,585,607,625,645,666,685,706,725,746,765,785,805,825,845,865,887,905,925,946,965,986,1005,1025,1045,1066,1085,1105,1125,1146,1166,1186,1206,1226,1245,1265,1285,1305,1326,1346],"xSR":741.5,"ySR":449.15000000000003,"xT1":424.9,"yT1":0,"xT2":1058.1,"yT2":0,"toosoon":0,"cond_shown":"randomdotsizeEA","ratio_trial":250,"smaller_num":"3","larger_num":"12","correct_side":1,"subjID":"AlissonCamilaMalpicaMuñoz14","gender":"1","age":"11","school":"6"},{"start_time":1551794877970,"click_time":1551794879322,"finger_time":1551794879002,"fix_duration":1205.6332591970126,"trial":45,"RT":1032,"MT":320,"sideResp":1,"stimulus":"img/750/randomdotsizeEA/L/1_Ratio_750_L_20_R_15.png","xmouse":[786,786,786,786,786,786,786,786,786,786,786,786,786,786,786,786,786,786,786,786,786,786,786,786,786,786,786,786,786,786,786,786,786,786,786,786,786,786,786,786,786,786,786,786,786,786,786,786,786,786,779,756,729,697,668,656,651,644,639,619,603,590,577,570,563,552,529,516],"ymouse":[501,501,501,501,501,501,501,501,501,501,501,501,501,501,501,501,501,501,501,501,501,501,501,501,501,501,501,501,501,501,501,501,501,501,501,501,501,501,501,501,501,501,501,501,501,501,501,501,500,485,459,408,358,311,241,213,202,192,182,164,153,144,132,126,118,109,97,91],"timestamp_mouse":[15,37,52,72,93,112,134,153,173,192,212,232,252,273,292,313,332,353,372,392,412,432,452,472,493,512,532,552,572,592,612,633,652,672,694,713,734,752,773,793,813,832,852,873,892,912,933,952,973,993,1012,1032,1053,1074,1092,1112,1133,1152,1174,1192,1212,1233,1252,1274,1292,1313,1333,1352],"xSR":741.5,"ySR":449.15000000000003,"xT1":424.9,"yT1":0,"xT2":1058.1,"yT2":0,"toosoon":0,"cond_shown":"randomdotsizeEA","ratio_trial":750,"smaller_num":"15","larger_num":"20","correct_side":1,"subjID":"AlissonCamilaMalpicaMuñoz14","gender":"1","age":"11","school":"6"},{"start_time":1551794881705,"click_time":1551794882902,"finger_time":1551794882542,"fix_duration":1081.1192841503428,"trial":46,"RT":837,"MT":360,"sideResp":2,"stimulus":"img/750/randomdotsizeEA/R/3_Ratio_750_L_15_R_20.png","xmouse":[777,777,777,777,777,777,777,777,777,777,777,777,777,777,777,777,777,777,777,777,777,777,777,777,777,777,777,777,777,777,777,777,777,777,777,777,777,776,788,795,814,824,839,844,850,860,875,911,929,956,983,1032,1089,1101,1108,1112,1114,1121,1123,1125],"ymouse":[494,494,494,494,494,494,494,494,494,494,494,494,494,494,494,494,494,494,494,494,494,494,494,494,494,494,494,494,494,494,494,494,494,494,494,494,494,493,480,474,453,442,428,424,420,414,405,381,370,352,327,273,191,171,156,146,133,112,104,98],"timestamp_mouse":[17,37,58,79,98,117,139,158,177,199,218,237,257,277,297,317,337,357,377,398,418,439,458,477,497,517,538,557,578,597,618,637,657,678,697,719,737,757,778,797,818,837,857,878,899,918,937,957,977,998,1019,1037,1057,1078,1097,1117,1137,1157,1178,1197],"xSR":741.5,"ySR":449.15000000000003,"xT1":424.9,"yT1":0,"xT2":1058.1,"yT2":0,"toosoon":0,"cond_shown":"randomdotsizeEA","ratio_trial":750,"smaller_num":"15","larger_num":"20","correct_side":2,"subjID":"AlissonCamilaMalpicaMuñoz14","gender":"1","age":"11","school":"6"},{"start_time":1551794889062,"click_time":1551794890022,"finger_time":1551794889763,"fix_duration":836.3196946628115,"trial":47,"RT":701,"MT":259,"sideResp":2,"stimulus":"img/750/equaldotanddens/R/4_Ratio_750_L_15_R_20.png","xmouse":[770,770,770,770,770,770,770,770,770,770,770,770,770,770,770,770,770,770,770,770,770,770,770,770,770,770,770,770,770,770,770,770,779,796,819,890,942,984,1015,1028,1043,1057,1074,1108,1128,1145,1150,1153,1155],"ymouse":[490,490,490,490,490,490,490,490,490,490,490,490,490,490,490,490,490,490,490,490,490,490,490,490,490,490,490,490,490,490,490,490,488,481,474,447,424,398,367,349,327,313,280,212,163,126,114,105,98],"timestamp_mouse":[8,22,42,66,80,100,121,141,160,180,202,221,241,260,280,300,320,341,360,380,400,420,440,461,480,501,521,541,561,580,600,620,640,660,681,701,720,741,762,780,800,820,841,860,881,900,921,940,960],"xSR":741.5,"ySR":449.15000000000003,"xT1":424.9,"yT1":0,"xT2":1058.1,"yT2":0,"toosoon":0,"cond_shown":"equaldotanddens","ratio_trial":750,"smaller_num":"15","larger_num":"20","correct_side":2,"subjID":"AlissonCamilaMalpicaMuñoz14","gender":"1","age":"11","school":"6"},{"start_time":1551794891400,"click_time":1551794892263,"finger_time":1551794891944,"fix_duration":376.4742186495593,"trial":48,"RT":544,"MT":319,"sideResp":2,"stimulus":"img/250/equaldotsize/R/12_Ratio_250_L_5_R_20.png","xmouse":[791,791,791,791,791,791,791,791,791,791,791,791,791,791,791,791,791,791,791,791,791,791,791,791,799,813,828,845,877,895,924,951,976,1005,1017,1027,1050,1074,1098,1102,1108,1112,1115,1125],"ymouse":[486,486,486,486,486,486,486,486,486,486,486,486,486,486,486,486,486,486,486,486,486,486,486,486,485,479,470,460,440,427,403,380,353,313,295,281,240,198,143,133,125,117,109,88],"timestamp_mouse":[9,22,43,63,83,102,122,144,162,184,202,224,242,263,282,303,322,343,362,382,404,422,443,463,482,503,523,544,562,583,602,623,643,662,683,703,723,744,762,782,802,823,842,862],"xSR":741.5,"ySR":449.15000000000003,"xT1":424.9,"yT1":0,"xT2":1058.1,"yT2":0,"toosoon":0,"cond_shown":"equaldotsize","ratio_trial":250,"smaller_num":"5","larger_num":"20","correct_side":2,"subjID":"AlissonCamilaMalpicaMuñoz14","gender":"1","age":"11","school":"6"},{"start_time":1551794894230,"click_time":1551794895524,"finger_time":1551794894903,"fix_duration":945.8531920744884,"trial":49,"RT":673,"MT":621,"sideResp":2,"stimulus":"img/900/equaldotanddens/R/14_Ratio_900_L_18_R_20.png","xmouse":[774,774,774,774,774,774,774,774,774,774,774,774,774,774,774,774,774,774,774,774,774,774,774,774,774,774,774,774,774,778,786,820,837,855,864,872,895,912,930,948,965,1000,1018,1043,1060,1076,1100,1113,1125,1136,1149,1172,1185,1203,1213,1216,1216,1213,1209,1206,1198,1180,1173,1162,1155],"ymouse":[492,492,492,492,492,492,492,492,492,492,492,492,492,492,492,492,492,492,492,492,492,492,492,492,492,492,492,492,492,493,491,478,470,462,459,456,449,442,437,428,416,387,371,345,325,305,269,251,237,225,213,194,182,161,145,131,118,113,109,106,98,85,82,77,75],"timestamp_mouse":[12,32,65,72,93,113,133,152,174,193,214,232,253,272,292,314,333,352,372,393,413,432,452,472,492,514,532,552,573,593,612,632,652,673,693,712,732,752,772,793,813,832,852,872,892,913,933,953,973,994,1013,1032,1053,1072,1092,1113,1133,1152,1172,1192,1214,1232,1253,1273,1294],"xSR":741.5,"ySR":449.15000000000003,"xT1":424.9,"yT1":0,"xT2":1058.1,"yT2":0,"toosoon":0,"cond_shown":"equaldotanddens","ratio_trial":900,"smaller_num":"18","larger_num":"20","correct_side":2,"subjID":"AlissonCamilaMalpicaMuñoz14","gender":"1","age":"11","school":"6"},{"start_time":1551794899387,"click_time":1551794900303,"finger_time":1551794899782,"fix_duration":1384.8355636322738,"trial":50,"RT":395,"MT":521,"sideResp":1,"stimulus":"img/750/equaldotanddens/L/10_Ratio_750_L_4_R_3.png","xmouse":[759,759,759,759,759,759,759,759,759,759,759,759,759,759,759,759,760,763,769,771,771,771,771,771,771,771,766,758,735,722,703,675,640,580,570,570,570,570,570,570,570,570,570,570,570,442],"ymouse":[498,498,498,498,498,498,498,498,498,498,498,498,498,498,498,498,498,493,452,434,419,406,395,373,356,319,292,266,216,193,159,116,71,8,2,2,2,2,2,2,2,2,2,2,2,17],"timestamp_mouse":[16,39,56,75,97,115,136,155,176,196,215,237,255,276,296,316,336,355,376,395,416,435,455,475,495,515,536,555,576,596,615,636,655,675,695,716,735,756,776,796,815,836,855,876,896,916],"xSR":741.5,"ySR":449.15000000000003,"xT1":424.9,"yT1":0,"xT2":1058.1,"yT2":0,"toosoon":0,"cond_shown":"equaldotanddens","ratio_trial":750,"smaller_num":"3","larger_num":"4","correct_side":1,"subjID":"AlissonCamilaMalpicaMuñoz14","gender":"1","age":"11","school":"6"},{"start_time":1551794902206,"click_time":1551794903925,"finger_time":1551794903645,"fix_duration":800.9760776154375,"trial":51,"RT":1439,"MT":280,"sideResp":2,"stimulus":"img/750/equaldotsize/L/14_Ratio_750_L_8_R_6.png","xmouse":[789,789,789,789,789,789,789,789,789,789,789,789,789,789,789,789,789,789,789,789,789,789,789,789,789,789,789,789,789,789,789,789,789,789,789,789,789,789,789,789,789,789,789,789,789,789,789,789,789,789,789,789,789,789,789,789,789,789,789,789,789,789,789,789,789,789,789,788,801,818,838,862,903,924,933,953,968,1003,1019,1033,1040,1049,1065,1078,1102,1152],"ymouse":[494,494,494,494,494,494,494,494,494,494,494,494,494,494,494,494,494,494,494,494,494,494,494,494,494,494,494,494,494,494,494,494,494,494,494,494,494,494,494,494,494,494,494,494,494,494,494,494,494,494,494,494,494,494,494,494,494,494,494,494,494,494,494,494,494,494,494,491,484,472,457,433,391,353,335,305,293,279,270,260,254,246,227,208,163,53],"timestamp_mouse":[19,48,59,79,98,118,139,158,178,198,219,240,259,278,300,319,338,359,379,399,420,440,459,479,500,518,540,559,579,599,620,639,658,678,700,719,739,759,780,799,819,838,859,879,900,920,938,960,979,999,1020,1040,1059,1079,1098,1120,1139,1160,1179,1199,1218,1239,1259,1279,1298,1318,1339,1359,1379,1399,1419,1439,1459,1479,1498,1518,1539,1560,1579,1599,1619,1639,1659,1679,1699,1719],"xSR":741.5,"ySR":449.15000000000003,"xT1":424.9,"yT1":0,"xT2":1058.1,"yT2":0,"toosoon":0,"cond_shown":"equaldotsize","ratio_trial":750,"smaller_num":"6","larger_num":"8","correct_side":1,"subjID":"AlissonCamilaMalpicaMuñoz14","gender":"1","age":"11","school":"6"},{"start_time":1551794906433,"click_time":1551794907924,"finger_time":1551794906925,"fix_duration":1427.4708494459157,"trial":52,"RT":492,"MT":999,"sideResp":2,"stimulus":"img/500/randomdotsizeEA/R/15_Ratio_500_L_1_R_2.png","xmouse":[804,804,804,804,804,804,804,804,804,804,804,804,804,804,804,804,804,804,804,804,804,804,807,808,812,813,814,814,814,812,804,773,756,738,702,667,593,593,593,593,593,593,593,593,593,593,593,593,594,678,770,920,968,998,1022,1029,1036,1037,1042,1055,1071,1103,1117,1130,1142,1145,1160,1165,1167,1167,1165,1164,1163,1161,1158],"ymouse":[500,500,500,500,500,500,500,500,500,500,500,500,500,500,500,500,500,500,500,500,500,500,478,469,444,438,424,411,395,371,343,266,235,210,158,108,7,7,7,7,7,7,7,7,7,7,7,7,39,115,179,273,300,319,336,342,345,345,343,336,327,301,287,267,237,215,147,118,96,84,77,74,74,73,73],"timestamp_mouse":[11,32,51,72,91,112,131,151,173,193,212,232,252,273,292,311,333,351,372,391,411,432,452,472,492,512,531,552,572,592,612,631,652,672,691,711,732,753,773,791,813,832,851,872,892,912,931,951,973,992,1013,1032,1051,1072,1093,1112,1131,1152,1171,1191,1212,1232,1253,1273,1292,1313,1332,1352,1372,1392,1413,1433,1453,1472,1491],"xSR":741.5,"ySR":449.15000000000003,"xT1":424.9,"yT1":0,"xT2":1058.1,"yT2":0,"toosoon":0,"cond_shown":"randomdotsizeEA","ratio_trial":500,"smaller_num":"1","larger_num":"2","correct_side":2,"subjID":"AlissonCamilaMalpicaMuñoz14","gender":"1","age":"11","school":"6"},{"start_time":1551794910000,"click_time":1551794911365,"finger_time":1551794911106,"fix_duration":1133.2826127342933,"trial":53,"RT":1106,"MT":259,"sideResp":2,"stimulus":"img/750/equaldotsize/R/12_Ratio_750_L_3_R_4.png","xmouse":[779,779,779,779,779,779,779,779,779,779,779,779,779,779,779,779,779,779,779,779,779,779,779,779,779,779,779,779,779,779,779,779,779,779,779,779,779,779,779,779,779,779,779,779,779,779,781,783,790,796,801,806,812,825,834,848,868,883,912,937,976,1018,1052,1107,1119,1126,1136,1143,1151],"ymouse":[497,497,497,497,497,497,497,497,497,497,497,497,497,497,497,497,497,497,497,497,497,497,497,497,497,497,497,497,497,497,497,497,497,497,497,497,497,497,497,497,497,497,497,497,497,497,495,494,489,485,481,478,474,464,456,447,432,422,401,383,356,323,298,223,200,180,146,127,97],"timestamp_mouse":[8,25,45,64,86,106,124,144,165,184,205,225,246,266,286,306,326,346,365,385,405,425,444,465,484,505,524,545,564,586,604,625,645,664,685,706,724,746,765,785,804,826,845,864,885,905,925,945,964,985,1006,1024,1046,1065,1085,1106,1125,1146,1165,1185,1204,1225,1244,1264,1286,1305,1325,1344,1364],"xSR":741.5,"ySR":449.15000000000003,"xT1":424.9,"yT1":0,"xT2":1058.1,"yT2":0,"toosoon":0,"cond_shown":"equaldotsize","ratio_trial":750,"smaller_num":"3","larger_num":"4","correct_side":2,"subjID":"AlissonCamilaMalpicaMuñoz14","gender":"1","age":"11","school":"6"},{"start_time":1551794914789,"click_time":1551794915465,"finger_time":1551794915345,"fix_duration":1003.0790270836981,"trial":54,"RT":556,"MT":120,"sideResp":1,"stimulus":"img/250/equaldotsize/L/5_Ratio_250_L_24_R_6.png","xmouse":[799,799,799,799,799,799,799,799,799,799,799,799,799,799,799,799,799,799,799,799,799,799,799,799,799,799,797,772,659,612,587,567,550,524],"ymouse":[477,477,477,477,477,477,477,477,477,477,477,477,477,477,477,477,477,477,477,477,477,477,477,477,477,477,472,424,274,224,200,157,126,67],"timestamp_mouse":[20,47,56,75,96,117,137,157,175,196,215,237,256,275,296,317,336,356,376,397,416,437,456,477,496,516,537,556,576,596,616,637,655,675],"xSR":741.5,"ySR":449.15000000000003,"xT1":424.9,"yT1":0,"xT2":1058.1,"yT2":0,"toosoon":0,"cond_shown":"equaldotsize","ratio_trial":250,"smaller_num":"6","larger_num":"24","correct_side":1,"subjID":"AlissonCamilaMalpicaMuñoz14","gender":"1","age":"11","school":"6"},{"start_time":1551794918462,"click_time":1551794920105,"finger_time":1551794919664,"fix_duration":375.9948284726089,"trial":55,"RT":1202,"MT":441,"sideResp":2,"stimulus":"img/900/randomdotsizeEA/L/8_Ratio_900_L_20_R_18.png","xmouse":[783,783,783,783,783,783,783,783,783,783,783,783,783,783,783,783,783,783,783,783,783,783,783,783,783,783,783,783,783,783,783,782,785,785,785,785,785,785,785,785,785,785,785,785,785,785,785,783,772,762,753,750,747,747,747,747,747,747,747,746,763,785,808,820,834,863,874,882,891,901,927,949,963,983,1003,1072,1108,1126,1132,1135,1141,1142,1143],"ymouse":[499,499,499,499,499,499,499,499,499,499,499,499,499,499,499,499,499,499,499,499,499,499,499,499,499,499,499,499,499,499,499,498,492,491,491,491,491,491,491,491,491,491,491,491,491,491,491,489,484,476,468,465,463,462,462,462,462,462,462,461,423,384,342,322,305,272,261,253,243,230,199,185,179,170,163,138,129,124,120,117,110,106,99],"timestamp_mouse":[9,35,42,63,82,103,124,143,162,184,204,223,243,263,283,302,323,344,364,382,403,424,442,464,483,502,524,543,563,582,603,623,643,663,683,703,723,744,763,783,802,823,842,862,882,904,923,944,963,982,1003,1024,1043,1062,1084,1103,1123,1144,1164,1183,1202,1223,1243,1263,1283,1303,1323,1342,1362,1382,1403,1422,1442,1462,1483,1503,1523,1544,1562,1583,1603,1624,1643],"xSR":741.5,"ySR":449.15000000000003,"xT1":424.9,"yT1":0,"xT2":1058.1,"yT2":0,"toosoon":0,"cond_shown":"randomdotsizeEA","ratio_trial":900,"smaller_num":"18","larger_num":"20","correct_side":1,"subjID":"AlissonCamilaMalpicaMuñoz14","gender":"1","age":"11","school":"6"},{"start_time":1551794921316,"click_time":1551794922546,"finger_time":1551794922165,"fix_duration":250,"trial":56,"RT":849,"MT":381,"sideResp":1,"stimulus":"img/900/equaldotanddens/L/1_Ratio_900_L_10_R_9.png","xmouse":[773,773,773,773,773,773,773,773,773,773,773,773,773,773,773,773,773,773,773,773,773,773,773,773,773,773,773,773,773,773,773,773,773,773,773,773,773,773,773,774,774,772,768,765,762,758,750,720,705,688,683,671,623,574,529,498,475,463,459,455,452,448],"ymouse":[489,489,489,489,489,489,489,489,489,489,489,489,489,489,489,489,489,489,489,489,489,489,489,489,489,489,489,489,489,489,489,489,489,489,489,489,489,489,489,480,470,462,449,443,438,432,422,395,384,373,368,360,316,267,222,190,169,142,132,114,106,97],"timestamp_mouse":[10,41,49,68,90,109,128,149,168,188,208,230,250,270,289,310,329,349,369,389,410,428,449,469,488,510,529,548,568,588,610,629,648,670,690,708,730,749,770,789,809,830,849,869,888,910,929,949,968,989,1009,1030,1049,1069,1090,1108,1130,1149,1170,1189,1209,1230],"xSR":741.5,"ySR":449.15000000000003,"xT1":424.9,"yT1":0,"xT2":1058.1,"yT2":0,"toosoon":0,"cond_shown":"equaldotanddens","ratio_trial":900,"smaller_num":"9","larger_num":"10","correct_side":1,"subjID":"AlissonCamilaMalpicaMuñoz14","gender":"1","age":"11","school":"6"},{"start_time":1551794923676,"click_time":1551794924724,"finger_time":1551794924425,"fix_duration":250,"trial":57,"RT":749,"MT":299,"sideResp":1,"stimulus":"img/500/randomdotsizeEA/L/8_Ratio_500_L_8_R_4.png","xmouse":[789,789,789,789,789,789,789,789,788,787,785,785,785,785,785,785,785,785,785,785,785,785,785,785,785,785,785,785,785,785,785,785,785,785,785,784,781,767,742,682,660,646,631,622,597,578,559,548,540,529,526,525,524],"ymouse":[488,488,488,488,488,488,488,488,487,487,487,487,487,487,487,487,487,487,487,487,487,487,487,487,487,487,487,487,487,487,487,487,487,487,487,487,470,423,367,274,241,217,194,184,160,140,120,107,100,94,94,94,94],"timestamp_mouse":[9,28,50,70,89,108,129,148,170,189,210,229,250,269,289,309,328,348,369,388,408,430,448,469,489,508,530,548,569,588,608,629,649,670,689,708,730,749,770,788,810,829,848,869,889,909,928,949,970,989,1008,1029,1048],"xSR":741.5,"ySR":449.15000000000003,"xT1":424.9,"yT1":0,"xT2":1058.1,"yT2":0,"toosoon":0,"cond_shown":"randomdotsizeEA","ratio_trial":500,"smaller_num":"4","larger_num":"8","correct_side":1,"subjID":"AlissonCamilaMalpicaMuñoz14","gender":"1","age":"11","school":"6"},{"start_time":1551794925998,"click_time":1551794927425,"finger_time":1551794926564,"fix_duration":250,"trial":58,"RT":566,"MT":861,"sideResp":2,"stimulus":"img/500/equaldotsize/R/12_Ratio_500_L_1_R_2.png","xmouse":[774,773,773,773,772,772,772,772,772,772,772,772,772,772,772,772,772,772,772,772,772,772,772,772,772,772,784,802,842,870,894,914,926,941,948,954,969,979,998,1005,1011,1014,1017,1022,1026,1029,1029,1030,1030,1030,1030,1030,1030,1031,1031,1036,1037,1039,1041,1041,1041,1042,1042,1043,1043,1043,1043,1043,1045,1049,1054,1065],"ymouse":[482,482,483,483,483,483,483,484,485,486,486,486,486,486,486,486,486,486,486,486,486,486,486,486,486,486,479,467,443,427,411,394,382,363,350,332,299,274,210,185,160,134,106,59,35,26,24,22,22,22,22,22,22,22,27,40,48,53,59,61,63,65,65,66,66,66,66,66,66,67,68,71],"timestamp_mouse":[6,27,47,67,88,107,126,147,168,188,206,228,248,267,288,306,326,348,366,386,408,428,446,468,487,506,527,547,566,587,606,626,647,666,687,707,726,746,766,787,806,828,847,866,886,907,927,947,968,987,1007,1026,1047,1067,1086,1107,1126,1148,1167,1187,1207,1226,1248,1268,1287,1307,1327,1348,1367,1387,1407,1426],"xSR":741.5,"ySR":449.15000000000003,"xT1":424.9,"yT1":0,"xT2":1058.1,"yT2":0,"toosoon":0,"cond_shown":"equaldotsize","ratio_trial":500,"smaller_num":"1","larger_num":"2","correct_side":2,"subjID":"AlissonCamilaMalpicaMuñoz14","gender":"1","age":"11","school":"6"},{"start_time":1551794928537,"click_time":1551794929324,"finger_time":1551794928964,"fix_duration":250,"trial":59,"RT":427,"MT":360,"sideResp":1,"stimulus":"img/750/equaldotanddens/L/6_Ratio_750_L_24_R_18.png","xmouse":[783,783,783,783,783,783,783,783,783,783,783,783,783,783,783,783,785,787,787,787,787,787,786,782,774,760,697,664,626,610,600,589,584,578,572,565,553,543,535,522],"ymouse":[511,511,511,511,511,511,511,511,511,511,511,511,511,509,508,506,489,478,467,457,453,448,445,435,418,390,311,281,243,228,218,204,195,184,172,154,128,111,96,75],"timestamp_mouse":[9,27,47,67,87,108,128,148,168,187,207,227,248,269,288,309,328,348,369,387,408,427,448,468,489,508,527,549,567,588,609,628,648,668,688,708,727,747,768,787],"xSR":741.5,"ySR":449.15000000000003,"xT1":424.9,"yT1":0,"xT2":1058.1,"yT2":0,"toosoon":0,"cond_shown":"equaldotanddens","ratio_trial":750,"smaller_num":"18","larger_num":"24","correct_side":1,"subjID":"AlissonCamilaMalpicaMuñoz14","gender":"1","age":"11","school":"6"},{"start_time":1551794930635,"click_time":1551794931565,"finger_time":1551794930985,"fix_duration":549.7720781779326,"trial":60,"RT":350,"MT":580,"sideResp":2,"stimulus":"img/750/randomdotsizeEA/R/5_Ratio_750_L_15_R_20.png","xmouse":[819,819,819,819,819,819,819,819,819,819,819,819,819,819,819,820,829,837,848,869,880,896,903,912,917,921,930,933,938,942,946,959,966,977,990,1001,1014,1019,1024,1032,1039,1064,1085,1088,1102,1113,1132],"ymouse":[507,507,507,507,507,507,507,507,507,507,507,507,507,507,503,494,465,446,418,372,346,322,311,296,285,277,260,254,247,240,235,221,213,202,190,178,166,161,159,153,147,137,130,127,120,113,99],"timestamp_mouse":[9,31,50,69,90,112,130,151,169,191,211,229,251,269,290,311,330,350,370,390,410,430,450,470,490,511,529,549,569,589,611,630,651,670,690,710,729,749,771,790,810,829,849,870,890,910,930],"xSR":741.5,"ySR":449.15000000000003,"xT1":424.9,"yT1":0,"xT2":1058.1,"yT2":0,"toosoon":0,"cond_shown":"randomdotsizeEA","ratio_trial":750,"smaller_num":"15","larger_num":"20","correct_side":2,"subjID":"AlissonCamilaMalpicaMuñoz14","gender":"1","age":"11","school":"6"},{"start_time":1551794934322,"click_time":1551794935226,"finger_time":1551794934985,"fix_duration":1496.312988053629,"trial":61,"RT":663,"MT":241,"sideResp":1,"stimulus":"img/900/equaldotsize/L/10_Ratio_900_L_20_R_18.png","xmouse":[785,785,785,785,785,785,785,785,785,785,785,785,785,785,785,785,785,785,785,785,785,785,782,780,780,780,779,779,778,778,776,775,770,767,762,757,746,714,687,628,577,542,520,516,512,504],"ymouse":[478,478,478,478,478,478,478,478,478,478,478,478,478,478,478,478,478,478,478,478,478,478,478,477,477,477,476,476,475,474,471,467,455,448,438,425,407,363,326,257,196,165,134,118,100,79],"timestamp_mouse":[8,22,50,62,83,103,122,143,163,184,203,223,243,263,284,302,323,343,362,384,402,423,443,463,483,502,524,542,563,583,604,624,642,663,682,703,724,742,762,783,803,824,843,862,882,904],"xSR":741.5,"ySR":449.15000000000003,"xT1":424.9,"yT1":0,"xT2":1058.1,"yT2":0,"toosoon":0,"cond_shown":"equaldotsize","ratio_trial":900,"smaller_num":"18","larger_num":"20","correct_side":1,"subjID":"AlissonCamilaMalpicaMuñoz14","gender":"1","age":"11","school":"6"},{"start_time":1551794936585,"click_time":1551794938105,"finger_time":1551794937245,"fix_duration":478.7698298839601,"trial":62,"RT":660,"MT":860,"sideResp":1,"stimulus":"img/750/randomdotsizeEA/L/14_Ratio_750_L_8_R_6.png","xmouse":[779,779,779,779,779,778,778,778,778,778,778,778,778,778,777,777,777,777,777,777,777,777,777,777,777,777,777,777,777,780,781,784,788,790,797,807,810,818,825,840,846,854,859,865,875,888,897,907,917,934,938,939,937,928,864,801,714,683,663,652,644,631,617,605,587,582,581,581,581,570,560,549,541,537,529,525,518],"ymouse":[473,473,473,474,476,476,476,476,477,477,477,477,477,477,479,480,480,480,480,480,480,480,480,480,480,480,480,480,480,474,469,462,455,448,432,417,411,394,383,351,336,319,301,285,263,245,233,222,208,181,167,154,143,134,120,120,120,120,120,117,108,96,82,72,61,59,59,59,59,55,51,49,48,48,48,48,48],"timestamp_mouse":[1,20,40,59,80,100,120,141,159,180,199,220,239,260,279,300,320,340,359,379,400,421,440,460,481,499,521,541,559,580,600,619,639,660,680,699,720,741,760,780,799,819,840,860,879,899,919,940,960,980,1000,1020,1039,1060,1080,1101,1120,1140,1160,1180,1199,1220,1239,1261,1280,1300,1319,1340,1361,1379,1400,1419,1441,1461,1480,1500,1520],"xSR":741.5,"ySR":449.15000000000003,"xT1":424.9,"yT1":0,"xT2":1058.1,"yT2":0,"toosoon":0,"cond_shown":"randomdotsizeEA","ratio_trial":750,"smaller_num":"6","larger_num":"8","correct_side":1,"subjID":"AlissonCamilaMalpicaMuñoz14","gender":"1","age":"11","school":"6"},{"start_time":1551794939685,"click_time":1551794940485,"finger_time":1551794940165,"fix_duration":717.5956661174074,"trial":63,"RT":480,"MT":320,"sideResp":1,"stimulus":"img/250/equaldotanddens/L/5_Ratio_250_L_24_R_6.png","xmouse":[780,780,780,780,780,780,780,780,780,780,780,780,780,780,780,780,780,780,780,780,780,780,778,777,771,762,748,721,693,643,615,599,585,575,567,564,557,547,536,521,515],"ymouse":[496,496,496,496,496,496,496,496,496,496,496,496,496,496,496,496,496,492,488,477,472,467,457,452,427,404,378,347,323,291,269,255,239,223,204,194,178,158,141,111,94],"timestamp_mouse":[8,34,40,59,80,99,120,141,159,179,200,219,240,260,279,299,320,340,360,379,400,420,439,459,480,500,519,540,560,579,599,619,640,661,679,699,720,740,761,780,799],"xSR":741.5,"ySR":449.15000000000003,"xT1":424.9,"yT1":0,"xT2":1058.1,"yT2":0,"toosoon":0,"cond_shown":"equaldotanddens","ratio_trial":250,"smaller_num":"6","larger_num":"24","correct_side":1,"subjID":"AlissonCamilaMalpicaMuñoz14","gender":"1","age":"11","school":"6"},{"start_time":1551794941639,"click_time":1551794943324,"finger_time":1551794942546,"fix_duration":333.18509003128827,"trial":64,"RT":907,"MT":778,"sideResp":1,"stimulus":"img/500/randomdotsizeEA/L/13_Ratio_500_L_12_R_6.png","xmouse":[802,802,802,802,802,802,802,802,802,802,802,802,802,802,802,802,802,802,802,802,802,802,802,802,802,802,802,802,802,802,802,802,802,802,802,802,802,802,802,802,802,802,802,802,798,790,777,771,764,757,749,721,700,664,576,503,385,357,339,339,339,339,339,339,339,339,339,339,339,318,334,363,377,398,408,412,416,419,420,420,420,420,421,423,427],"ymouse":[476,476,476,476,476,476,476,476,476,476,476,476,476,476,476,476,476,476,476,476,476,476,476,476,476,476,476,476,476,476,476,476,476,476,476,476,476,476,476,476,476,476,476,472,458,442,413,401,390,376,362,331,312,277,192,139,55,28,3,3,3,3,3,3,3,3,3,3,3,3,27,63,75,87,91,93,94,94,94,94,94,94,94,94,94],"timestamp_mouse":[5,27,46,67,87,105,126,147,165,186,206,225,246,266,285,306,325,345,366,387,406,425,446,467,486,506,525,546,565,587,606,627,645,667,686,705,726,746,766,787,805,826,846,866,885,907,925,946,966,986,1006,1026,1045,1066,1086,1106,1126,1145,1167,1186,1206,1226,1245,1265,1287,1306,1327,1346,1365,1385,1405,1426,1446,1465,1486,1507,1526,1547,1567,1586,1606,1626,1645,1665,1685],"xSR":741.5,"ySR":449.15000000000003,"xT1":424.9,"yT1":0,"xT2":1058.1,"yT2":0,"toosoon":0,"cond_shown":"randomdotsizeEA","ratio_trial":500,"smaller_num":"6","larger_num":"12","correct_side":1,"subjID":"AlissonCamilaMalpicaMuñoz14","gender":"1","age":"11","school":"6"},{"start_time":1551794946869,"click_time":1551794947725,"finger_time":1551794947464,"fix_duration":1082.2868023061062,"trial":65,"RT":595,"MT":261,"sideResp":1,"stimulus":"img/500/equaldotanddens/L/13_Ratio_500_L_12_R_6.png","xmouse":[786,786,786,786,785,785,785,785,785,785,785,785,784,784,783,782,781,781,781,780,779,778,777,777,777,776,774,773,769,753,738,716,684,669,652,642,633,621,605,572,556,537,510],"ymouse":[491,491,491,491,491,491,491,491,491,491,491,491,491,491,490,489,489,489,488,487,486,485,485,485,485,484,483,481,475,440,410,377,340,326,299,281,263,235,200,140,114,89,62],"timestamp_mouse":[16,35,55,