[{"start_time":1551793952305,"click_time":1551793955552,"finger_time":1551793955051,"fix_duration":1010.0246655900794,"trial":0,"RT":2746,"MT":501,"sideResp":1,"stimulus":[],"xmouse":[770,770,770,770,770,770,770,770,770,772,774,776,776,776,776,776,776,776,776,776,776,774,773,773,773,773,773,773,773,773,773,773,773,773,773,773,773,773,773,773,773,773,773,773,773,773,773,773,773,773,773,772,770,769,768,768,768,768,768,768,768,768,768,768,768,768,768,768,768,768,768,768,768,768,768,768,768,768,768,768,768,772,784,796,802,802,802,802,802,802,802,802,800,799,798,798,798,798,798,798,798,798,798,798,798,798,798,798,798,798,798,798,797,797,797,797,797,797,797,797,797,797,797,797,797,797,797,797,797,797,797,797,797,794,775,762,747,729,705,669,658,655,650,645,639,635,624,612,601,595,580,572,566,558,549,546,545,543,540,538,530,523],"ymouse":[522,522,522,522,522,522,522,522,522,521,521,520,520,520,520,520,520,520,520,520,520,520,520,521,521,521,521,521,521,521,521,521,521,521,521,521,521,521,521,521,521,521,521,521,521,521,521,521,521,521,521,521,521,520,519,519,519,519,519,519,519,519,519,519,519,519,519,519,519,519,519,519,519,519,519,519,519,519,519,519,519,515,510,503,499,499,499,499,499,499,498,498,498,498,497,497,497,497,497,497,497,497,497,497,497,497,497,497,497,497,497,497,497,497,497,497,497,497,497,497,497,497,497,497,497,497,497,497,497,497,497,497,497,497,496,481,446,386,328,244,222,215,206,200,189,181,168,155,150,147,142,138,136,133,129,126,125,121,114,108,94,86],"timestamp_mouse":[14,45,66,85,107,127,145,166,185,207,226,246,267,286,307,327,346,366,386,406,427,447,467,486,507,527,545,566,586,605,626,646,666,685,707,725,746,767,787,805,826,846,865,885,906,926,945,966,986,1007,1025,1046,1066,1087,1106,1126,1146,1167,1186,1206,1225,1246,1266,1286,1307,1325,1346,1365,1387,1406,1427,1447,1466,1485,1507,1527,1545,1567,1587,1607,1625,1646,1667,1687,1707,1727,1745,1767,1787,1806,1826,1847,1865,1885,1907,1927,1945,1967,1985,2005,2025,2046,2065,2086,2106,2127,2146,2166,2185,2205,2227,2246,2266,2286,2305,2326,2347,2365,2387,2405,2427,2445,2466,2485,2507,2525,2546,2567,2587,2605,2627,2647,2665,2686,2707,2725,2746,2767,2787,2807,2826,2847,2865,2886,2907,2926,2945,2965,2986,3006,3026,3046,3066,3086,3106,3126,3147,3166,3185,3206,3227,3246],"xSR":741.5,"ySR":481,"xT1":424.9,"yT1":0,"xT2":1058.1,"yT2":0,"toosoon":0,"cond_shown":"Incongruent","ratio_trial":300,"L_num":4,"L_den":20,"R_num":2,"R_den":4,"correct_side":2,"subjID":"AlissonCamilaMalpicaMunoz14","gender":"1","age":"11","school":"6","test":{"fix_dur":[250,1500],"timestim":1000,"targets_dim":[100,100],"targets_relative_coord":[0.3,0.7],"size_stim":[880,420],"start_dim":[100,100],"size_start":[300,300],"size_fix":60,"samplingrate":20,"img_types":["Congruent","Incongruent"],"ratios":[100,200,300],"rep_conds":19,"nTrials":120,"trials_to_rest":500,"Trials_order":[29,25,35,10,19,103,94,84,13,101,40,26,31,77,27,43,67,110,96,95,75,61,42,54,14,71,79,39,15,66,115,65,30,24,18,64,12,3,118,105,63,9,20,23,44,37,85,0,80,112,16,11,107,83,68,1,89,108,111,33,70,50,114,49,58,57,98,87,106,34,97,28,59,116,6,52,36,91,119,32,117,93,78,22,5,46,4,81,72,2,38,17,60,90,21,73,41,8,62,100,102,109,69,86,92,113,48,99,74,76,55,53,88,51,47,56,82,104,7,45],"cond_shown":["Incongruent","Incongruent","Incongruent","Congruent","Incongruent","Incongruent","Congruent","Congruent","Incongruent","Incongruent","Congruent","Congruent","Incongruent","Incongruent","Incongruent","Incongruent","Incongruent","Congruent","Congruent","Incongruent","Incongruent","Incongruent","Congruent","Congruent","Congruent","Incongruent","Incongruent","Incongruent","Incongruent","Congruent","Incongruent","Incongruent","Congruent","Congruent","Congruent","Congruent","Congruent","Incongruent","Congruent","Incongruent","Incongruent","Incongruent","Congruent","Incongruent","Congruent","Incongruent","Incongruent","Congruent","Congruent","Congruent","Congruent","Incongruent","Incongruent","Incongruent","Congruent","Incongruent","Incongruent","Congruent","Incongruent","Incongruent","Congruent","Congruent","Congruent","Incongruent","Congruent","Incongruent","Congruent","Incongruent","Congruent","Congruent","Incongruent","Congruent","Incongruent","Congruent","Congruent","Congruent","Congruent","Incongruent","Incongruent","Congruent","Incongruent","Incongruent","Congruent","Congruent","Incongruent","Congruent","Congruent","Incongruent","Congruent","Congruent","Congruent","Incongruent","Congruent","Congruent","Incongruent","Incongruent","Incongruent","Congruent","Congruent","Congruent","Congruent","Incongruent","Incongruent","Congruent","Congruent","Incongruent","Congruent","Incongruent","Congruent","Congruent","Incongruent","Incongruent","Congruent","Incongruent","Incongruent","Congruent","Congruent","Congruent","Incongruent","Incongruent"],"ratio_trial":[300,100,300,300,100,100,300,100,100,300,300,200,100,300,200,100,100,200,100,300,200,100,100,100,200,300,100,200,200,100,100,300,100,100,100,300,100,200,300,200,200,200,200,300,200,100,100,100,200,300,300,300,300,300,200,100,300,100,200,200,300,200,100,100,300,200,200,200,300,300,100,300,300,200,100,300,100,100,300,200,200,200,100,300,300,300,300,200,100,200,200,300,100,100,200,100,300,200,200,300,100,100,200,200,200,300,100,200,200,300,100,300,300,200,300,200,300,200,100,200],"left_num":[4,2,4,20,17,12,11,3,9,4,24,3,6,4,7,11,12,14,15,2,4,10,11,10,3,4,6,14,1,1,13,2,4,15,2,24,7,1,11,4,14,7,4,7,3,11,8,1,14,7,1,8,8,13,9,12,7,7,14,11,5,16,11,10,1,4,4,7,20,3,9,20,4,9,7,3,1,12,1,3,14,7,1,1,4,3,20,11,3,6,3,1,11,7,7,3,13,6,7,11,12,8,4,4,3,13,1,3,7,11,8,4,3,7,4,1,18,5,6,7],"right_num":[2,8,2,13,10,9,4,4,14,8,8,9,13,2,4,9,9,6,13,6,6,8,4,3,7,6,11,6,2,3,6,6,15,13,6,2,9,2,4,6,6,6,3,8,14,9,6,18,6,20,3,14,14,12,13,9,8,9,6,3,6,9,6,9,3,6,3,12,14,2,13,8,2,13,9,2,18,2,3,14,12,4,18,3,6,11,8,3,4,7,9,3,6,9,12,7,12,11,2,2,13,1,6,3,7,12,18,11,2,1,6,2,4,6,2,21,9,14,3,4],"left_den":[20,4,20,25,30,24,22,20,15,5,30,12,10,20,15,22,24,28,25,4,5,25,22,25,10,5,10,30,3,2,26,4,10,25,5,30,14,3,22,5,30,15,8,10,6,22,16,2,28,14,5,10,10,26,30,24,10,14,30,20,25,30,22,25,5,5,8,10,25,6,15,25,20,30,14,6,2,30,2,10,30,15,2,5,5,12,25,20,20,12,12,2,22,14,10,9,26,20,21,22,30,20,5,8,10,26,2,4,21,22,16,20,6,15,20,2,20,10,12,15],"right_den":[4,20,4,26,15,15,20,16,28,16,16,20,26,4,6,15,15,20,26,30,10,16,10,10,14,12,22,9,15,5,10,30,30,26,12,4,15,15,20,10,9,9,10,20,20,15,10,30,20,25,6,28,28,15,26,15,20,15,9,4,12,27,15,18,6,10,10,24,28,10,26,16,4,26,15,10,30,4,15,28,18,6,30,6,12,20,16,4,16,10,20,15,15,15,24,30,15,22,15,10,26,2,10,10,14,15,30,20,15,5,10,4,5,9,4,30,15,20,5,6],"correct_side":[2,1,2,1,2,2,1,2,1,1,1,2,1,2,2,2,2,1,1,1,1,2,1,1,2,1,1,2,1,2,2,1,2,1,2,1,2,1,1,1,2,2,1,1,2,2,2,2,1,2,2,1,1,2,2,2,1,2,2,2,2,1,1,2,2,1,1,1,1,1,1,1,2,2,2,1,2,2,1,2,2,2,2,2,1,2,1,2,2,2,2,1,1,2,1,1,2,2,1,1,2,2,1,1,2,2,2,1,1,1,2,2,2,2,2,2,1,2,2,2],"img_shown":["img2/300/Incongruent/R/I_Dist_300_LN_4_LD_20_RN_2_RD_4_1.png","img2/100/Incongruent/L/I_Dist_100_LN_2_LD_4_RN_8_RD_20_0.png","img2/300/Incongruent/R/I_Dist_300_LN_4_LD_20_RN_2_RD_4_1.png","img2/300/Congruent/L/C_Dist_300_LN_20_LD_25_RN_13_RD_26_0.png","img2/100/Incongruent/R/I_Dist_100_LN_17_LD_30_RN_10_RD_15_1.png","img2/100/Incongruent/R/I_Dist_100_LN_12_LD_24_RN_9_RD_15_1.png","img2/300/Congruent/L/C_Dist_300_LN_11_LD_22_RN_4_RD_20_0.png","img2/100/Congruent/R/C_Dist_100_LN_3_LD_20_RN_4_RD_16_1.png","img2/100/Incongruent/L/I_Dist_100_LN_9_LD_15_RN_14_RD_28_0.png","img2/300/Incongruent/L/I_Dist_300_LN_4_LD_5_RN_8_RD_16_0.png","img2/300/Congruent/L/C_Dist_300_LN_24_LD_30_RN_8_RD_16_0.png","img2/200/Congruent/R/C_Dist_200_LN_3_LD_12_RN_9_RD_20_1.png","img2/100/Incongruent/L/I_Dist_100_LN_6_LD_10_RN_13_RD_26_0.png","img2/300/Incongruent/R/I_Dist_300_LN_4_LD_20_RN_2_RD_4_1.png","img2/200/Incongruent/R/I_Dist_200_LN_7_LD_15_RN_4_RD_6_1.png","img2/100/Incongruent/R/I_Dist_100_LN_11_LD_22_RN_9_RD_15_1.png","img2/100/Incongruent/R/I_Dist_100_LN_12_LD_24_RN_9_RD_15_1.png","img2/200/Congruent/L/C_Dist_200_LN_14_LD_28_RN_6_RD_20_0.png","img2/100/Congruent/L/C_Dist_100_LN_15_LD_25_RN_13_RD_26_0.png","img2/300/Incongruent/L/I_Dist_300_LN_2_LD_4_RN_6_RD_30_0.png","img2/200/Incongruent/L/I_Dist_200_LN_4_LD_5_RN_6_RD_10_0.png","img2/100/Incongruent/R/I_Dist_100_LN_10_LD_25_RN_8_RD_16_1.png","img2/100/Congruent/L/C_Dist_100_LN_11_LD_22_RN_4_RD_10_0.png","img2/100/Congruent/L/C_Dist_100_LN_10_LD_25_RN_3_RD_10_0.png","img2/200/Congruent/R/C_Dist_200_LN_3_LD_10_RN_7_RD_14_1.png","img2/300/Incongruent/L/I_Dist_300_LN_4_LD_5_RN_6_RD_12_0.png","img2/100/Incongruent/L/I_Dist_100_LN_6_LD_10_RN_11_RD_22_0.png","img2/200/Incongruent/R/I_Dist_200_LN_14_LD_30_RN_6_RD_9_1.png","img2/200/Incongruent/L/I_Dist_200_LN_1_LD_3_RN_2_RD_15_0.png","img2/100/Congruent/R/C_Dist_100_LN_1_LD_2_RN_3_RD_5_1.png","img2/100/Incongruent/R/I_Dist_100_LN_13_LD_26_RN_6_RD_10_1.png","img2/300/Incongruent/L/I_Dist_300_LN_2_LD_4_RN_6_RD_30_0.png","img2/100/Congruent/R/C_Dist_100_LN_4_LD_10_RN_15_RD_30_1.png","img2/100/Congruent/L/C_Dist_100_LN_15_LD_25_RN_13_RD_26_0.png","img2/100/Congruent/R/C_Dist_100_LN_2_LD_5_RN_6_RD_12_1.png","img2/300/Congruent/L/C_Dist_300_LN_24_LD_30_RN_2_RD_4_0.png","img2/100/Congruent/R/C_Dist_100_LN_7_LD_14_RN_9_RD_15_1.png","img2/200/Incongruent/L/I_Dist_200_LN_1_LD_3_RN_2_RD_15_0.png","img2/300/Congruent/L/C_Dist_300_LN_11_LD_22_RN_4_RD_20_0.png","img2/200/Incongruent/L/I_Dist_200_LN_4_LD_5_RN_6_RD_10_0.png","img2/200/Incongruent/R/I_Dist_200_LN_14_LD_30_RN_6_RD_9_1.png","img2/200/Incongruent/R/I_Dist_200_LN_7_LD_15_RN_6_RD_9_1.png","img2/200/Congruent/L/C_Dist_200_LN_4_LD_8_RN_3_RD_10_0.png","img2/300/Incongruent/L/I_Dist_300_LN_7_LD_10_RN_8_RD_20_0.png","img2/200/Congruent/R/C_Dist_200_LN_3_LD_6_RN_14_RD_20_1.png","img2/100/Incongruent/R/I_Dist_100_LN_11_LD_22_RN_9_RD_15_1.png","img2/100/Incongruent/R/I_Dist_100_LN_8_LD_16_RN_6_RD_10_1.png","img2/100/Congruent/R/C_Dist_100_LN_1_LD_2_RN_18_RD_30_1.png","img2/200/Congruent/L/C_Dist_200_LN_14_LD_28_RN_6_RD_20_0.png","img2/300/Congruent/R/C_Dist_300_LN_7_LD_14_RN_20_RD_25_1.png","img2/300/Congruent/R/C_Dist_300_LN_1_LD_5_RN_3_RD_6_1.png","img2/300/Incongruent/L/I_Dist_300_LN_8_LD_10_RN_14_RD_28_0.png","img2/300/Incongruent/L/I_Dist_300_LN_8_LD_10_RN_14_RD_28_0.png","img2/300/Incongruent/R/I_Dist_300_LN_13_LD_26_RN_12_RD_15_1.png","img2/200/Congruent/R/C_Dist_200_LN_9_LD_30_RN_13_RD_26_1.png","img2/100/Incongruent/R/I_Dist_100_LN_12_LD_24_RN_9_RD_15_1.png","img2/300/Incongruent/L/I_Dist_300_LN_7_LD_10_RN_8_RD_20_0.png","img2/100/Congruent/R/C_Dist_100_LN_7_LD_14_RN_9_RD_15_1.png","img2/200/Incongruent/R/I_Dist_200_LN_14_LD_30_RN_6_RD_9_1.png","img2/200/Incongruent/R/I_Dist_200_LN_11_LD_20_RN_3_RD_4_1.png","img2/300/Congruent/R/C_Dist_300_LN_5_LD_25_RN_6_RD_12_1.png","img2/200/Congruent/L/C_Dist_200_LN_16_LD_30_RN_9_RD_27_0.png","img2/100/Congruent/L/C_Dist_100_LN_11_LD_22_RN_6_RD_15_0.png","img2/100/Incongruent/R/I_Dist_100_LN_10_LD_25_RN_9_RD_18_1.png","img2/300/Congruent/R/C_Dist_300_LN_1_LD_5_RN_3_RD_6_1.png","img2/200/Incongruent/L/I_Dist_200_LN_4_LD_5_RN_6_RD_10_0.png","img2/200/Congruent/L/C_Dist_200_LN_4_LD_8_RN_3_RD_10_0.png","img2/200/Incongruent/L/I_Dist_200_LN_7_LD_10_RN_12_RD_24_0.png","img2/300/Congruent/L/C_Dist_300_LN_20_LD_25_RN_14_RD_28_0.png","img2/300/Congruent/L/C_Dist_300_LN_3_LD_6_RN_2_RD_10_0.png","img2/100/Incongruent/L/I_Dist_100_LN_9_LD_15_RN_13_RD_26_0.png","img2/300/Congruent/L/C_Dist_300_LN_20_LD_25_RN_8_RD_16_0.png","img2/300/Incongruent/R/I_Dist_300_LN_4_LD_20_RN_2_RD_4_1.png","img2/200/Congruent/R/C_Dist_200_LN_9_LD_30_RN_13_RD_26_1.png","img2/100/Congruent/R/C_Dist_100_LN_7_LD_14_RN_9_RD_15_1.png","img2/300/Congruent/L/C_Dist_300_LN_3_LD_6_RN_2_RD_10_0.png","img2/100/Congruent/R/C_Dist_100_LN_1_LD_2_RN_18_RD_30_1.png","img2/100/Incongruent/R/I_Dist_100_LN_12_LD_30_RN_2_RD_4_1.png","img2/300/Incongruent/L/I_Dist_300_LN_1_LD_2_RN_3_RD_15_0.png","img2/200/Congruent/R/C_Dist_200_LN_3_LD_10_RN_14_RD_28_1.png","img2/200/Incongruent/R/I_Dist_200_LN_14_LD_30_RN_12_RD_18_1.png","img2/200/Incongruent/R/I_Dist_200_LN_7_LD_15_RN_4_RD_6_1.png","img2/100/Congruent/R/C_Dist_100_LN_1_LD_2_RN_18_RD_30_1.png","img2/300/Congruent/R/C_Dist_300_LN_1_LD_5_RN_3_RD_6_1.png","img2/300/Incongruent/L/I_Dist_300_LN_4_LD_5_RN_6_RD_12_0.png","img2/300/Congruent/R/C_Dist_300_LN_3_LD_12_RN_11_RD_20_1.png","img2/300/Congruent/L/C_Dist_300_LN_20_LD_25_RN_8_RD_16_0.png","img2/200/Incongruent/R/I_Dist_200_LN_11_LD_20_RN_3_RD_4_1.png","img2/100/Congruent/R/C_Dist_100_LN_3_LD_20_RN_4_RD_16_1.png","img2/200/Congruent/R/C_Dist_200_LN_6_LD_12_RN_7_RD_10_1.png","img2/200/Congruent/R/C_Dist_200_LN_3_LD_12_RN_9_RD_20_1.png","img2/300/Incongruent/L/I_Dist_300_LN_1_LD_2_RN_3_RD_15_0.png","img2/100/Congruent/L/C_Dist_100_LN_11_LD_22_RN_6_RD_15_0.png","img2/100/Congruent/R/C_Dist_100_LN_7_LD_14_RN_9_RD_15_1.png","img2/200/Incongruent/L/I_Dist_200_LN_7_LD_10_RN_12_RD_24_0.png","img2/100/Incongruent/L/I_Dist_100_LN_3_LD_9_RN_7_RD_30_0.png","img2/300/Incongruent/R/I_Dist_300_LN_13_LD_26_RN_12_RD_15_1.png","img2/200/Congruent/R/C_Dist_200_LN_6_LD_20_RN_11_RD_22_1.png","img2/200/Congruent/L/C_Dist_200_LN_7_LD_21_RN_2_RD_15_0.png","img2/300/Congruent/L/C_Dist_300_LN_11_LD_22_RN_2_RD_10_0.png","img2/100/Congruent/R/C_Dist_100_LN_12_LD_30_RN_13_RD_26_1.png","img2/100/Incongruent/R/I_Dist_100_LN_8_LD_20_RN_1_RD_2_1.png","img2/200/Incongruent/L/I_Dist_200_LN_4_LD_5_RN_6_RD_10_0.png","img2/200/Congruent/L/C_Dist_200_LN_4_LD_8_RN_3_RD_10_0.png","img2/200/Congruent/R/C_Dist_200_LN_3_LD_10_RN_7_RD_14_1.png","img2/300/Incongruent/R/I_Dist_300_LN_13_LD_26_RN_12_RD_15_1.png","img2/100/Congruent/R/C_Dist_100_LN_1_LD_2_RN_18_RD_30_1.png","img2/200/Incongruent/L/I_Dist_200_LN_3_LD_4_RN_11_RD_20_0.png","img2/200/Congruent/L/C_Dist_200_LN_7_LD_21_RN_2_RD_15_0.png","img2/300/Congruent/L/C_Dist_300_LN_11_LD_22_RN_1_RD_5_0.png","img2/100/Incongruent/R/I_Dist_100_LN_8_LD_16_RN_6_RD_10_1.png","img2/300/Incongruent/R/I_Dist_300_LN_4_LD_20_RN_2_RD_4_1.png","img2/300/Congruent/R/C_Dist_300_LN_3_LD_6_RN_4_RD_5_1.png","img2/200/Incongruent/R/I_Dist_200_LN_7_LD_15_RN_6_RD_9_1.png","img2/300/Incongruent/R/I_Dist_300_LN_4_LD_20_RN_2_RD_4_1.png","img2/200/Congruent/R/C_Dist_200_LN_1_LD_2_RN_21_RD_30_1.png","img2/300/Congruent/L/C_Dist_300_LN_18_LD_20_RN_9_RD_15_0.png","img2/200/Congruent/R/C_Dist_200_LN_5_LD_10_RN_14_RD_20_1.png","img2/100/Incongruent/R/I_Dist_100_LN_6_LD_12_RN_3_RD_5_1.png","img2/200/Incongruent/R/I_Dist_200_LN_7_LD_15_RN_4_RD_6_1.png"],"dist100_C":[["C_Dist_100_LN_10_LD_25_RN_3_RD_10_0.png","C_Dist_100_LN_11_LD_22_RN_4_RD_10_0.png","C_Dist_100_LN_11_LD_22_RN_6_RD_15_0.png","C_Dist_100_LN_15_LD_25_RN_13_RD_26_0.png","C_Dist_100_LN_3_LD_6_RN_2_RD_5_0.png","C_Dist_100_LN_6_LD_20_RN_5_RD_25_0.png","C_Dist_100_LN_8_LD_16_RN_2_RD_5_0.png","C_Dist_100_LN_9_LD_15_RN_8_RD_16_0.png"],["C_Dist_100_LN_1_LD_2_RN_18_RD_30_1.png","C_Dist_100_LN_1_LD_2_RN_3_RD_5_1.png","C_Dist_100_LN_12_LD_30_RN_13_RD_26_1.png","C_Dist_100_LN_2_LD_5_RN_11_RD_22_1.png","C_Dist_100_LN_2_LD_5_RN_6_RD_12_1.png","C_Dist_100_LN_3_LD_20_RN_4_RD_16_1.png","C_Dist_100_LN_4_LD_10_RN_15_RD_30_1.png","C_Dist_100_LN_4_LD_8_RN_6_RD_10_1.png","C_Dist_100_LN_6_LD_12_RN_15_RD_25_1.png","C_Dist_100_LN_7_LD_14_RN_15_RD_25_1.png","C_Dist_100_LN_7_LD_14_RN_9_RD_15_1.png"]],"dist100_I":[["I_Dist_100_LN_1_LD_2_RN_8_RD_20_0.png","I_Dist_100_LN_2_LD_4_RN_6_RD_15_0.png","I_Dist_100_LN_2_LD_4_RN_8_RD_20_0.png","I_Dist_100_LN_3_LD_5_RN_11_RD_22_0.png","I_Dist_100_LN_3_LD_5_RN_8_RD_16_0.png","I_Dist_100_LN_3_LD_6_RN_4_RD_10_0.png","I_Dist_100_LN_3_LD_9_RN_7_RD_30_0.png","I_Dist_100_LN_4_LD_8_RN_8_RD_20_0.png","I_Dist_100_LN_6_LD_10_RN_11_RD_22_0.png","I_Dist_100_LN_6_LD_10_RN_13_RD_26_0.png","I_Dist_100_LN_6_LD_10_RN_7_RD_14_0.png","I_Dist_100_LN_9_LD_10_RN_20_RD_25_0.png","I_Dist_100_LN_9_LD_15_RN_13_RD_26_0.png","I_Dist_100_LN_9_LD_15_RN_14_RD_28_0.png"],["I_Dist_100_LN_10_LD_25_RN_8_RD_16_1.png","I_Dist_100_LN_10_LD_25_RN_9_RD_18_1.png","I_Dist_100_LN_11_LD_22_RN_9_RD_15_1.png","I_Dist_100_LN_12_LD_24_RN_9_RD_15_1.png","I_Dist_100_LN_12_LD_30_RN_2_RD_4_1.png","I_Dist_100_LN_13_LD_26_RN_12_RD_20_1.png","I_Dist_100_LN_13_LD_26_RN_6_RD_10_1.png","I_Dist_100_LN_17_LD_30_RN_10_RD_15_1.png","I_Dist_100_LN_6_LD_12_RN_3_RD_5_1.png","I_Dist_100_LN_8_LD_16_RN_6_RD_10_1.png","I_Dist_100_LN_8_LD_20_RN_1_RD_2_1.png","I_Dist_100_LN_9_LD_18_RN_6_RD_10_1.png"]],"dist100_S":[["E_Dist_100_LN_2_LD_12_RN_2_RD_30_0.png","E_Dist_100_LN_6_LD_10_RN_6_RD_12_0.png"],["E_Dist_100_LN_6_LD_12_RN_6_RD_10_1.png"]],"dist200_C":[["C_Dist_200_LN_11_LD_22_RN_3_RD_10_0.png","C_Dist_200_LN_12_LD_15_RN_6_RD_10_0.png","C_Dist_200_LN_12_LD_20_RN_6_RD_15_0.png","C_Dist_200_LN_14_LD_28_RN_6_RD_20_0.png","C_Dist_200_LN_15_LD_25_RN_4_RD_10_0.png","C_Dist_200_LN_16_LD_20_RN_12_RD_20_0.png","C_Dist_200_LN_16_LD_30_RN_9_RD_27_0.png","C_Dist_200_LN_20_LD_25_RN_9_RD_15_0.png","C_Dist_200_LN_21_LD_30_RN_2_RD_4_0.png","C_Dist_200_LN_4_LD_10_RN_3_RD_15_0.png","C_Dist_200_LN_4_LD_8_RN_3_RD_10_0.png","C_Dist_200_LN_6_LD_15_RN_3_RD_15_0.png","C_Dist_200_LN_7_LD_21_RN_2_RD_15_0.png","C_Dist_200_LN_8_LD_15_RN_2_RD_6_0.png","C_Dist_200_LN_8_LD_15_RN_3_RD_9_0.png","C_Dist_200_LN_8_LD_15_RN_7_RD_21_0.png","C_Dist_200_LN_9_LD_20_RN_4_RD_16_0.png"],["C_Dist_200_LN_1_LD_2_RN_21_RD_30_1.png","C_Dist_200_LN_13_LD_26_RN_14_RD_20_1.png","C_Dist_200_LN_3_LD_10_RN_11_RD_22_1.png","C_Dist_200_LN_3_LD_10_RN_14_RD_28_1.png","C_Dist_200_LN_3_LD_10_RN_7_RD_14_1.png","C_Dist_200_LN_3_LD_12_RN_9_RD_20_1.png","C_Dist_200_LN_3_LD_6_RN_14_RD_20_1.png","C_Dist_200_LN_5_LD_10_RN_14_RD_20_1.png","C_Dist_200_LN_6_LD_12_RN_7_RD_10_1.png","C_Dist_200_LN_6_LD_20_RN_11_RD_22_1.png","C_Dist_200_LN_7_LD_15_RN_18_RD_27_1.png","C_Dist_200_LN_9_LD_30_RN_13_RD_26_1.png"]],"dist200_I":[["I_Dist_200_LN_1_LD_2_RN_3_RD_10_0.png","I_Dist_200_LN_1_LD_3_RN_2_RD_15_0.png","I_Dist_200_LN_3_LD_4_RN_11_RD_20_0.png","I_Dist_200_LN_4_LD_5_RN_6_RD_10_0.png","I_Dist_200_LN_4_LD_6_RN_14_RD_30_0.png","I_Dist_200_LN_7_LD_10_RN_12_RD_24_0.png","I_Dist_200_LN_7_LD_10_RN_14_RD_28_0.png","I_Dist_200_LN_7_LD_10_RN_8_RD_16_0.png"],["I_Dist_200_LN_11_LD_20_RN_3_RD_4_1.png","I_Dist_200_LN_14_LD_30_RN_12_RD_18_1.png","I_Dist_200_LN_14_LD_30_RN_6_RD_9_1.png","I_Dist_200_LN_3_LD_10_RN_1_RD_2_1.png","I_Dist_200_LN_4_LD_30_RN_1_RD_3_1.png","I_Dist_200_LN_6_LD_20_RN_3_RD_6_1.png","I_Dist_200_LN_7_LD_15_RN_4_RD_6_1.png","I_Dist_200_LN_7_LD_15_RN_6_RD_9_1.png","I_Dist_200_LN_9_LD_15_RN_8_RD_10_1.png"]],"dist200_S":[["E_Dist_200_LN_3_LD_6_RN_3_RD_10_0.png"],["E_Dist_200_LN_3_LD_10_RN_3_RD_6_1.png"]],"dist300_C":[["C_Dist_300_LN_11_LD_22_RN_1_RD_5_0.png","C_Dist_300_LN_11_LD_22_RN_2_RD_10_0.png","C_Dist_300_LN_11_LD_22_RN_4_RD_20_0.png","C_Dist_300_LN_12_LD_24_RN_2_RD_10_0.png","C_Dist_300_LN_18_LD_20_RN_9_RD_15_0.png","C_Dist_300_LN_20_LD_25_RN_13_RD_26_0.png","C_Dist_300_LN_20_LD_25_RN_14_RD_28_0.png","C_Dist_300_LN_20_LD_25_RN_5_RD_10_0.png","C_Dist_300_LN_20_LD_25_RN_8_RD_16_0.png","C_Dist_300_LN_20_LD_25_RN_9_RD_18_0.png","C_Dist_300_LN_24_LD_30_RN_2_RD_4_0.png","C_Dist_300_LN_24_LD_30_RN_8_RD_16_0.png","C_Dist_300_LN_3_LD_6_RN_2_RD_10_0.png","C_Dist_300_LN_4_LD_10_RN_1_RD_10_0.png","C_Dist_300_LN_4_LD_5_RN_2_RD_4_0.png","C_Dist_300_LN_8_LD_16_RN_1_RD_5_0.png","C_Dist_300_LN_9_LD_10_RN_3_RD_5_0.png"],["C_Dist_300_LN_1_LD_20_RN_7_RD_20_1.png","C_Dist_300_LN_1_LD_3_RN_19_RD_30_1.png","C_Dist_300_LN_1_LD_30_RN_8_RD_24_1.png","C_Dist_300_LN_1_LD_5_RN_11_RD_22_1.png","C_Dist_300_LN_1_LD_5_RN_3_RD_6_1.png","C_Dist_300_LN_1_LD_5_RN_6_RD_12_1.png","C_Dist_300_LN_2_LD_10_RN_12_RD_24_1.png","C_Dist_300_LN_2_LD_20_RN_10_RD_25_1.png","C_Dist_300_LN_3_LD_12_RN_11_RD_20_1.png","C_Dist_300_LN_3_LD_6_RN_4_RD_5_1.png","C_Dist_300_LN_4_LD_20_RN_13_RD_26_1.png","C_Dist_300_LN_5_LD_25_RN_6_RD_12_1.png","C_Dist_300_LN_5_LD_25_RN_7_RD_14_1.png","C_Dist_300_LN_7_LD_14_RN_20_RD_25_1.png","C_Dist_300_LN_8_LD_15_RN_10_RD_12_1.png"]],"dist300_I":[["I_Dist_300_LN_1_LD_2_RN_2_RD_10_0.png","I_Dist_300_LN_1_LD_2_RN_3_RD_15_0.png","I_Dist_300_LN_2_LD_4_RN_6_RD_30_0.png","I_Dist_300_LN_3_LD_6_RN_4_RD_20_0.png","I_Dist_300_LN_4_LD_5_RN_6_RD_12_0.png","I_Dist_300_LN_4_LD_5_RN_8_RD_16_0.png","I_Dist_300_LN_7_LD_10_RN_8_RD_20_0.png","I_Dist_300_LN_8_LD_10_RN_14_RD_28_0.png","I_Dist_300_LN_8_LD_10_RN_9_RD_18_0.png"],["I_Dist_300_LN_13_LD_26_RN_12_RD_15_1.png","I_Dist_300_LN_4_LD_20_RN_2_RD_4_1.png"]],"dist300_S":[["E_Dist_300_LN_9_LD_12_RN_9_RD_20_0.png"],["E_Dist_300_LN_18_LD_30_RN_18_RD_20_1.png","E_Dist_300_LN_3_LD_10_RN_3_RD_5_1.png","E_Dist_300_LN_9_LD_20_RN_9_RD_12_1.png"]],"dist500_C":[["C_Dist_500_LN_10_LD_13_RN_7_RD_26_0.png","C_Dist_500_LN_10_LD_15_RN_4_RD_24_0.png","C_Dist_500_LN_12_LD_16_RN_3_RD_12_0.png","C_Dist_500_LN_12_LD_18_RN_4_RD_24_0.png","C_Dist_500_LN_15_LD_18_RN_5_RD_15_0.png","C_Dist_500_LN_15_LD_20_RN_1_RD_4_0.png","C_Dist_500_LN_18_LD_27_RN_1_RD_6_0.png","C_Dist_500_LN_20_LD_24_RN_1_RD_3_0.png","C_Dist_500_LN_20_LD_24_RN_3_RD_9_0.png","C_Dist_500_LN_20_LD_24_RN_7_RD_21_0.png","C_Dist_500_LN_20_LD_28_RN_3_RD_14_0.png","C_Dist_500_LN_21_LD_28_RN_6_RD_24_0.png","C_Dist_500_LN_22_LD_28_RN_2_RD_7_0.png","C_Dist_500_LN_25_LD_30_RN_9_RD_27_0.png","C_Dist_500_LN_4_LD_6_RN_1_RD_6_0.png","C_Dist_500_LN_5_LD_6_RN_2_RD_6_0.png","C_Dist_500_LN_6_LD_9_RN_1_RD_6_0.png","C_Dist_500_LN_7_LD_10_RN_1_RD_5_0.png","C_Dist_500_LN_8_LD_12_RN_1_RD_6_0.png","C_Dist_500_LN_8_LD_12_RN_4_RD_24_0.png"],["C_Dist_500_LN_1_LD_4_RN_12_RD_16_1.png","C_Dist_500_LN_1_LD_4_RN_9_RD_12_1.png","C_Dist_500_LN_1_LD_9_RN_11_RD_18_1.png","C_Dist_500_LN_10_LD_24_RN_22_RD_24_1.png","C_Dist_500_LN_2_LD_12_RN_10_RD_15_1.png","C_Dist_500_LN_2_LD_12_RN_12_RD_18_1.png","C_Dist_500_LN_2_LD_12_RN_4_RD_6_1.png","C_Dist_500_LN_2_LD_24_RN_7_RD_12_1.png","C_Dist_500_LN_2_LD_5_RN_18_RD_20_1.png","C_Dist_500_LN_2_LD_5_RN_9_RD_10_1.png","C_Dist_500_LN_2_LD_8_RN_12_RD_16_1.png","C_Dist_500_LN_2_LD_8_RN_21_RD_28_1.png","C_Dist_500_LN_3_LD_10_RN_4_RD_5_1.png","C_Dist_500_LN_3_LD_12_RN_15_RD_20_1.png","C_Dist_500_LN_3_LD_30_RN_6_RD_10_1.png","C_Dist_500_LN_3_LD_8_RN_14_RD_16_1.png","C_Dist_500_LN_4_LD_16_RN_15_RD_20_1.png","C_Dist_500_LN_4_LD_24_RN_12_RD_18_1.png","C_Dist_500_LN_5_LD_14_RN_6_RD_7_1.png","C_Dist_500_LN_7_LD_21_RN_20_RD_24_1.png","C_Dist_500_LN_7_LD_28_RN_12_RD_16_1.png","C_Dist_500_LN_7_LD_28_RN_9_RD_12_1.png","C_Dist_500_LN_9_LD_27_RN_20_RD_24_1.png"]],"dist500_I":[["I_Dist_500_LN_2_LD_3_RN_4_RD_24_0.png","I_Dist_500_LN_5_LD_6_RN_6_RD_18_0.png","I_Dist_500_LN_7_LD_8_RN_9_RD_24_0.png"],["I_Dist_500_LN_7_LD_21_RN_5_RD_6_1.png"]],"dist500_S":[["E_Dist_500_LN_6_LD_8_RN_6_RD_24_0.png"],["E_Dist_500_LN_2_LD_12_RN_2_RD_3_1.png","E_Dist_500_LN_6_LD_24_RN_6_RD_8_1.png"]]}},{"start_time":1551793957440,"click_time":1551793958891,"finger_time":1551793958172,"fix_duration":566.3212697387142,"trial":1,"RT":732,"MT":719,"sideResp":2,"stimulus":[],"xmouse":[782,782,782,782,782,781,781,781,781,781,780,780,780,780,780,780,780,780,780,780,780,780,780,780,780,778,777,776,773,773,773,773,773,773,777,783,794,813,837,881,907,933,949,961,966,970,973,976,986,992,996,1001,1004,1014,1022,1023,1023,1024,1025,1026,1026,1026,1026,1026,1026,1026,1026,1026,1026,1032,1041,1053,1065],"ymouse":[481,482,482,482,484,484,485,485,485,485,486,486,486,486,486,486,486,486,486,486,486,486,486,486,486,486,486,486,486,486,486,486,486,486,480,469,449,425,400,345,313,283,261,248,245,243,241,238,224,216,208,201,193,165,139,129,123,116,104,101,101,101,101,101,101,101,100,99,99,96,93,90,89],"timestamp_mouse":[10,32,51,72,91,111,131,151,171,191,211,230,252,271,291,312,331,351,370,391,411,430,452,472,491,510,532,551,572,592,610,632,652,670,691,712,732,750,772,790,812,831,851,872,890,911,932,951,971,990,1010,1031,1051,1072,1091,1111,1131,1152,1172,1190,1210,1231,1250,1272,1291,1311,1332,1351,1371,1391,1410,1431,1450],"xSR":741.5,"ySR":449.15000000000003,"xT1":424.9,"yT1":0,"xT2":1058.1,"yT2":0,"toosoon":0,"cond_shown":"Incongruent","ratio_trial":100,"L_num":2,"L_den":4,"R_num":8,"R_den":20,"correct_side":1,"subjID":"AlissonCamilaMalpicaMunoz14","gender":"1","school":"6","age":"11"},{"start_time":1551793961255,"click_time":1551793963030,"finger_time":1551793962750,"fix_duration":1141.5957310758909,"trial":2,"RT":1495,"MT":280,"sideResp":1,"stimulus":[],"xmouse":[800,800,800,800,800,800,800,800,800,800,800,800,800,800,800,800,800,800,800,800,800,800,800,800,800,800,800,800,800,800,800,800,800,800,800,800,800,800,800,800,800,800,800,800,800,800,800,800,800,800,800,800,800,800,800,800,800,800,800,800,800,800,800,800,800,800,800,800,800,800,800,799,790,775,760,740,711,674,602,578,563,553,541,518,516,514,512,511,509],"ymouse":[500,500,500,500,500,500,500,500,500,500,500,500,500,500,500,500,500,500,500,500,500,500,500,500,500,500,500,500,500,500,500,500,500,500,500,500,500,500,500,500,500,500,500,500,500,500,500,500,500,500,500,500,500,500,500,500,500,500,500,500,500,500,500,500,500,500,500,500,500,500,500,498,473,450,428,400,361,316,232,203,183,169,151,126,121,116,110,105,97],"timestamp_mouse":[16,36,56,77,95,116,137,155,176,195,217,237,256,276,297,317,336,357,376,395,415,436,457,476,495,516,535,556,577,596,616,637,657,676,695,716,735,755,775,796,816,837,857,876,895,917,937,955,977,995,1017,1036,1056,1076,1097,1117,1136,1157,1176,1195,1216,1237,1255,1275,1296,1315,1337,1356,1375,1395,1416,1436,1457,1476,1495,1516,1537,1557,1576,1595,1615,1636,1655,1676,1696,1715,1736,1755,1775],"xSR":741.5,"ySR":449.15000000000003,"xT1":424.9,"yT1":0,"xT2":1058.1,"yT2":0,"toosoon":0,"cond_shown":"Incongruent","ratio_trial":300,"L_num":4,"L_den":20,"R_num":2,"R_den":4,"correct_side":2,"subjID":"AlissonCamilaMalpicaMunoz14","gender":"1","school":"6","age":"11"},{"start_time":1551793966103,"click_time":1551793967852,"finger_time":1551793967510,"fix_duration":250,"trial":3,"RT":1407,"MT":342,"sideResp":1,"stimulus":[],"xmouse":[809,809,809,809,809,809,809,809,809,809,809,809,809,809,809,809,809,809,809,809,809,809,809,809,809,809,809,809,809,809,809,809,809,809,809,809,809,809,809,809,809,808,807,806,806,806,806,806,806,806,806,806,806,806,806,806,806,806,806,806,806,806,806,806,806,806,806,803,801,791,777,716,690,664,641,618,574,559,551,549,549,542,534,529,525,523,520,517],"ymouse":[499,499,499,499,499,499,499,499,499,499,499,499,499,499,499,499,499,499,499,499,499,499,499,499,499,499,499,499,499,499,499,499,499,499,499,499,499,499,499,499,499,499,499,499,499,499,499,499,499,499,499,499,499,499,499,499,499,499,499,499,499,499,499,499,499,499,499,483,474,452,430,352,313,279,250,226,192,183,177,175,173,150,130,123,116,114,103,93],"timestamp_mouse":[9,42,48,68,89,108,129,148,167,188,208,229,247,268,287,308,328,348,367,387,408,427,447,467,487,508,527,547,567,587,608,628,648,668,687,707,729,748,767,787,808,829,847,868,888,908,928,948,967,988,1008,1028,1048,1068,1089,1108,1128,1148,1167,1188,1208,1227,1248,1269,1288,1308,1328,1349,1368,1388,1407,1427,1448,1469,1488,1508,1528,1548,1569,1588,1607,1629,1648,1668,1687,1707,1729,1748],"xSR":741.5,"ySR":449.15000000000003,"xT1":424.9,"yT1":0,"xT2":1058.1,"yT2":0,"toosoon":0,"cond_shown":"Congruent","ratio_trial":300,"L_num":20,"L_den":25,"R_num":13,"R_den":26,"correct_side":1,"subjID":"AlissonCamilaMalpicaMunoz14","gender":"1","school":"6","age":"11"},{"start_time":1551793969909,"click_time":1551793971352,"finger_time":1551793970930,"fix_duration":796.3999380603105,"trial":4,"RT":1021,"MT":422,"sideResp":2,"stimulus":[],"xmouse":[800,800,800,800,800,800,800,800,800,800,800,800,800,800,800,800,800,800,800,800,800,800,800,800,800,800,800,800,800,800,800,800,800,800,800,800,800,800,800,800,800,800,800,800,800,800,800,800,801,805,827,844,860,876,892,910,934,943,947,951,965,975,979,983,987,997,1011,1026,1039,1046,1052,1057,1070],"ymouse":[498,498,498,498,498,498,498,498,498,498,498,498,498,498,498,498,498,498,498,498,498,498,498,498,498,498,498,498,498,498,498,498,498,498,498,498,498,498,498,498,498,498,498,498,498,498,498,498,498,490,460,442,425,406,385,360,321,305,292,274,216,181,167,153,139,99,69,47,33,25,18,15,10],"timestamp_mouse":[9,34,42,62,81,103,121,142,163,182,201,222,241,263,281,302,323,341,362,382,403,422,442,462,482,501,522,542,563,582,601,623,642,661,683,701,723,742,763,783,801,823,842,861,882,903,922,943,962,982,1003,1021,1041,1062,1082,1102,1121,1142,1163,1183,1202,1221,1246,1263,1282,1302,1322,1341,1362,1382,1403,1422,1442],"xSR":741.5,"ySR":449.15000000000003,"xT1":424.9,"yT1":0,"xT2":1058.1,"yT2":0,"toosoon":0,"cond_shown":"Incongruent","ratio_trial":100,"L_num":17,"L_den":30,"R_num":10,"R_den":15,"correct_side":2,"subjID":"AlissonCamilaMalpicaMunoz14","gender":"1","school":"6","age":"11"},{"start_time":1551793973747,"click_time":1551793975571,"finger_time":1551793975251,"fix_duration":1412.5663016043748,"trial":5,"RT":1504,"MT":320,"sideResp":1,"stimulus":[],"xmouse":[799,799,799,799,799,799,799,799,799,799,799,799,799,799,799,799,799,799,799,799,799,799,799,799,799,799,799,799,799,799,799,799,799,799,799,799,799,799,799,799,799,799,799,799,799,799,799,799,799,799,799,799,799,799,799,799,799,799,799,799,799,799,799,799,799,799,799,799,799,799,799,799,799,794,758,733,705,685,649,626,616,605,593,583,575,573,571,566,560,543,532,520],"ymouse":[484,484,484,484,484,484,484,484,484,484,484,484,484,484,484,484,484,484,484,484,484,484,484,484,484,484,484,484,484,484,484,484,484,484,484,484,484,484,484,484,484,484,484,484,484,484,484,484,484,484,484,484,484,484,484,484,484,484,484,484,484,484,484,484,484,484,484,484,484,484,484,484,482,477,453,436,413,392,310,260,235,213,192,172,147,137,127,114,106,86,78,72],"timestamp_mouse":[8,24,43,66,83,103,125,143,164,184,204,223,244,265,284,304,323,344,363,384,403,425,443,465,484,505,524,545,565,583,604,625,644,664,684,704,724,744,765,785,804,823,843,864,883,903,923,945,965,983,1005,1025,1044,1064,1085,1104,1124,1144,1163,1185,1203,1225,1243,1265,1283,1304,1324,1345,1364,1384,1403,1423,1444,1464,1484,1504,1525,1543,1565,1583,1604,1625,1644,1663,1683,1704,1725,1744,1763,1783,1804,1824],"xSR":741.5,"ySR":449.15000000000003,"xT1":424.9,"yT1":0,"xT2":1058.1,"yT2":0,"toosoon":0,"cond_shown":"Incongruent","ratio_trial":100,"L_num":12,"L_den":24,"R_num":9,"R_den":15,"correct_side":2,"subjID":"AlissonCamilaMalpicaMunoz14","gender":"1","school":"6","age":"11"},{"start_time":1551793977663,"click_time":1551793979010,"finger_time":1551793978611,"fix_duration":250,"trial":6,"RT":948,"MT":399,"sideResp":2,"stimulus":[],"xmouse":[786,786,786,786,785,785,785,785,785,785,785,785,785,785,785,785,785,785,785,785,785,785,785,785,785,785,785,785,785,785,785,785,785,785,785,785,785,785,785,785,785,785,785,785,785,794,805,842,859,873,887,902,941,968,982,989,995,1006,1035,1044,1048,1050,1050,1052,1054,1057,1061,1066],"ymouse":[494,494,495,495,496,496,496,496,496,496,496,496,496,496,496,496,496,496,496,496,496,496,496,496,496,496,496,496,496,496,496,496,496,496,496,496,496,496,496,496,496,496,496,496,496,490,476,432,411,395,377,357,306,282,273,268,261,247,210,193,184,178,171,144,130,116,103,95],"timestamp_mouse":[9,29,48,79,87,108,128,148,169,187,208,228,247,268,288,307,329,348,367,388,407,428,447,467,488,508,529,547,567,587,608,628,649,668,688,709,728,748,769,787,808,827,848,868,888,909,928,948,967,988,1007,1028,1049,1068,1088,1108,1128,1147,1168,1187,1207,1227,1248,1268,1288,1308,1328,1347],"xSR":741.5,"ySR":449.15000000000003,"xT1":424.9,"yT1":0,"xT2":1058.1,"yT2":0,"toosoon":0,"cond_shown":"Congruent","ratio_trial":300,"L_num":11,"L_den":22,"R_num":4,"R_den":20,"correct_side":1,"subjID":"AlissonCamilaMalpicaMunoz14","gender":"1","school":"6","age":"11"},{"start_time":1551793980960,"click_time":1551793982131,"finger_time":1551793981731,"fix_duration":845.4092948229055,"trial":7,"RT":771,"MT":400,"sideResp":1,"stimulus":[],"xmouse":[795,795,795,795,795,795,795,795,795,795,795,795,795,795,795,795,795,795,795,795,795,795,795,795,795,795,795,795,795,795,795,795,795,795,795,793,789,780,740,721,705,691,678,635,616,603,594,592,588,586,584,582,577,567,560,553,547,536,522],"ymouse":[484,483,482,481,481,481,480,479,479,478,477,477,477,477,477,477,477,477,477,477,477,477,477,477,477,477,477,477,477,477,477,477,477,477,477,471,465,452,403,378,358,338,317,203,157,128,109,99,86,84,81,78,72,61,55,49,46,39,31],"timestamp_mouse":[12,36,51,72,91,111,131,151,172,190,211,232,252,271,290,310,331,352,371,391,410,432,451,471,491,511,530,550,570,591,611,632,651,671,692,711,732,752,771,791,811,831,851,871,891,912,931,950,971,990,1011,1032,1051,1071,1090,1110,1131,1152,1171],"xSR":741.5,"ySR":449.15000000000003,"xT1":424.9,"yT1":0,"xT2":1058.1,"yT2":0,"toosoon":0,"cond_shown":"Congruent","ratio_trial":100,"L_num":3,"L_den":20,"R_num":4,"R_den":16,"correct_side":2,"subjID":"AlissonCamilaMalpicaMunoz14","gender":"1","school":"6","age":"11"},{"start_time":1551793983283,"click_time":1551793984251,"finger_time":1551793983970,"fix_duration":250,"trial":8,"RT":687,"MT":281,"sideResp":2,"stimulus":[],"xmouse":[814,814,814,815,815,815,815,815,815,815,815,815,815,815,815,815,815,815,815,815,815,815,815,815,815,815,815,815,815,815,815,817,827,838,852,870,919,942,968,985,998,1016,1019,1021,1025,1030,1042,1051,1059],"ymouse":[487,487,488,488,488,485,484,484,484,484,484,484,484,484,484,484,484,484,484,484,484,484,484,484,484,484,484,484,484,484,484,482,468,453,439,424,380,336,283,252,227,175,159,144,129,114,84,63,45],"timestamp_mouse":[9,29,47,76,88,107,127,149,168,187,207,229,248,267,287,308,328,349,367,387,409,429,447,468,488,508,527,549,567,587,607,628,649,667,687,709,730,748,768,788,808,829,848,867,888,908,930,947,968],"xSR":741.5,"ySR":449.15000000000003,"xT1":424.9,"yT1":0,"xT2":1058.1,"yT2":0,"toosoon":0,"cond_shown":"Incongruent","ratio_trial":100,"L_num":9,"L_den":15,"R_num":14,"R_den":28,"correct_side":1,"subjID":"AlissonCamilaMalpicaMunoz14","gender":"1","school":"6","age":"11"},{"start_time":1551793985342,"click_time":1551793986551,"finger_time":1551793986131,"fix_duration":250,"trial":9,"RT":789,"MT":420,"sideResp":2,"stimulus":[],"xmouse":[772,772,772,772,772,772,772,772,772,772,772,772,772,772,772,772,772,772,772,772,772,772,772,772,772,772,772,772,772,772,772,772,772,772,772,772,772,774,785,810,845,892,947,1048,1048,1048,1048,1048,1048,1048,1048,1048,1048,1048,1048,1048,1048,1048,1048,1048,1124],"ymouse":[511,511,511,511,511,511,511,511,511,511,511,511,511,511,511,511,511,511,511,511,511,511,511,511,511,511,511,511,511,511,511,511,511,511,511,511,511,508,489,449,400,319,216,14,14,14,14,14,14,14,14,14,14,14,14,14,14,14,14,14,5],"timestamp_mouse":[9,34,49,69,90,110,129,150,169,189,209,228,249,270,290,309,330,349,368,390,409,430,450,468,488,510,530,549,569,589,609,629,649,670,688,708,730,750,769,789,809,829,849,869,888,909,928,949,969,988,1010,1030,1048,1069,1089,1109,1130,1150,1170,1189,1209],"xSR":741.5,"ySR":449.15000000000003,"xT1":424.9,"yT1":0,"xT2":1058.1,"yT2":0,"toosoon":0,"cond_shown":"Incongruent","ratio_trial":300,"L_num":4,"L_den":5,"R_num":8,"R_den":16,"correct_side":1,"subjID":"AlissonCamilaMalpicaMunoz14","gender":"1","school":"6","age":"11"},{"start_time":1551793988643,"click_time":1551793989632,"finger_time":1551793989530,"fix_duration":1131.2668505529202,"trial":10,"RT":887,"MT":102,"sideResp":2,"stimulus":[],"xmouse":[783,783,783,783,783,783,783,783,783,783,783,783,783,783,783,783,783,783,783,783,783,783,783,783,783,783,783,783,783,783,783,783,783,783,783,783,783,783,783,783,783,783,796,822,852,870,890,934,1001,1144],"ymouse":[492,492,492,492,492,492,492,492,492,492,492,492,492,492,492,492,492,492,492,492,492,492,492,492,492,492,492,492,492,492,492,492,492,492,492,492,492,492,492,492,492,492,481,455,430,415,387,302,205,53],"timestamp_mouse":[8,28,47,67,88,109,129,147,167,188,208,229,248,268,289,308,329,348,368,389,407,429,447,467,489,508,528,548,568,589,609,628,648,667,687,708,729,747,768,789,808,827,849,868,887,908,928,947,967,988],"xSR":741.5,"ySR":449.15000000000003,"xT1":424.9,"yT1":0,"xT2":1058.1,"yT2":0,"toosoon":0,"cond_shown":"Congruent","ratio_trial":300,"L_num":24,"L_den":30,"R_num":8,"R_den":16,"correct_side":1,"subjID":"AlissonCamilaMalpicaMunoz14","gender":"1","school":"6","age":"11"},{"start_time":1551793992790,"click_time":1551793993891,"finger_time":1551793993572,"fix_duration":1378.920645381249,"trial":11,"RT":782,"MT":319,"sideResp":1,"stimulus":[],"xmouse":[783,787,787,789,789,789,790,790,790,790,790,790,790,790,790,790,790,790,790,790,790,790,790,790,790,790,790,790,790,790,790,790,790,790,790,790,790,790,786,774,743,651,607,580,568,561,553,551,549,547,546,540,536,532,527,519],"ymouse":[478,486,486,487,487,487,487,487,487,487,487,487,487,487,487,487,487,487,487,487,487,487,487,487,487,487,487,487,487,487,487,487,487,487,487,487,487,476,459,430,377,244,183,144,126,113,91,87,84,82,81,78,77,75,73,70],"timestamp_mouse":[1,39,41,61,81,101,121,142,161,181,201,222,241,261,282,302,322,341,362,381,401,421,440,462,480,501,522,540,561,580,602,622,642,661,681,701,721,742,761,782,801,822,840,861,882,901,923,941,962,982,1001,1022,1040,1061,1081,1100],"xSR":741.5,"ySR":449.15000000000003,"xT1":424.9,"yT1":0,"xT2":1058.1,"yT2":0,"toosoon":0,"cond_shown":"Congruent","ratio_trial":200,"L_num":3,"L_den":12,"R_num":9,"R_den":20,"correct_side":2,"subjID":"AlissonCamilaMalpicaMunoz14","gender":"1","school":"6","age":"11"},{"start_time":1551793995764,"click_time":1551793997273,"finger_time":1551793996913,"fix_duration":250,"trial":12,"RT":1149,"MT":360,"sideResp":2,"stimulus":[],"xmouse":[796,796,796,796,797,797,797,798,801,802,802,802,802,802,802,802,802,802,802,802,802,802,802,802,802,802,802,802,802,802,800,798,796,796,796,796,796,796,802,804,804,804,804,804,802,801,799,797,789,777,763,756,756,756,756,758,766,804,863,908,952,989,1010,1026,1032,1038,1041,1046,1048,1051,1053,1056,1057,1065,1072,1079],"ymouse":[497,497,497,497,497,497,497,496,492,492,492,492,492,492,492,492,492,492,492,492,491,491,491,491,491,491,491,491,491,491,491,489,483,481,480,479,478,472,454,451,451,451,451,450,450,450,450,451,453,457,460,460,460,460,460,459,455,429,395,368,337,309,288,259,244,228,217,199,192,182,173,158,147,116,102,89],"timestamp_mouse":[8,33,49,69,90,108,129,149,169,189,210,229,248,268,289,310,329,349,370,389,409,428,448,468,489,509,528,550,568,588,610,629,649,669,688,708,729,749,768,789,810,829,848,869,888,909,929,949,969,989,1009,1029,1049,1070,1088,1109,1129,1149,1168,1188,1209,1230,1249,1269,1288,1309,1329,1350,1368,1388,1408,1429,1448,1468,1489,1508],"xSR":741.5,"ySR":449.15000000000003,"xT1":424.9,"yT1":0,"xT2":1058.1,"yT2":0,"toosoon":0,"cond_shown":"Incongruent","ratio_trial":100,"L_num":6,"L_den":10,"R_num":13,"R_den":26,"correct_side":1,"subjID":"AlissonCamilaMalpicaMunoz14","gender":"1","school":"6","age":"11"},{"start_time":1551794002004,"click_time":1551794003933,"finger_time":1551794003152,"fix_duration":1089.4276640459575,"trial":13,"RT":1148,"MT":781,"sideResp":1,"stimulus":[],"xmouse":[800,800,800,800,800,800,800,800,800,800,800,800,800,799,799,795,792,792,792,792,792,792,792,792,792,792,792,792,790,790,790,790,790,790,790,790,790,790,790,790,790,790,790,790,790,790,790,790,790,790,790,790,790,790,790,774,753,730,710,693,674,667,662,656,649,631,619,616,616,617,617,617,613,602,582,563,563,561,561,558,549,547,545,543,543,543,542,539,538,535,530,529,527,525,525,525,518],"ymouse":[492,492,492,492,492,492,492,492,492,492,492,492,492,491,490,488,487,487,487,487,487,487,487,487,487,487,487,487,486,486,486,486,486,486,486,486,486,486,486,486,486,486,486,486,486,486,486,486,486,486,486,486,486,486,486,479,469,453,437,425,410,403,397,389,378,350,335,329,324,317,301,284,266,237,174,113,108,100,96,90,73,68,65,63,63,63,63,63,63,63,65,66,67,68,68,68,71],"timestamp_mouse":[10,43,49,69,90,109,129,149,168,189,209,229,248,269,289,308,329,349,369,390,409,429,449,469,489,510,528,550,568,589,609,629,649,669,688,710,729,749,768,788,808,828,849,868,890,909,928,950,969,990,1009,1028,1050,1068,1088,1110,1129,1148,1168,1189,1209,1228,1249,1268,1289,1310,1328,1349,1370,1388,1409,1428,1448,1469,1489,1510,1528,1548,1570,1589,1609,1629,1648,1669,1690,1709,1729,1749,1769,1790,1809,1829,1848,1869,1890,1910,1929],"xSR":741.5,"ySR":449.15000000000003,"xT1":424.9,"yT1":0,"xT2":1058.1,"yT2":0,"toosoon":0,"cond_shown":"Incongruent","ratio_trial":300,"L_num":4,"L_den":20,"R_num":2,"R_den":4,"correct_side":2,"subjID":"AlissonCamilaMalpicaMunoz14","gender":"1","school":"6","age":"11"},{"start_time":1551794005781,"click_time":1551794006533,"finger_time":1551794006113,"fix_duration":345.29404313244373,"trial":14,"RT":332,"MT":420,"sideResp":2,"stimulus":[],"xmouse":[775,775,775,775,776,779,782,787,792,795,799,806,811,818,825,833,849,861,868,872,873,874,874,874,874,874,874,874,875,875,877,887,899,920,948,985,1056,1070],"ymouse":[508,508,508,508,508,508,508,508,507,506,505,503,500,496,490,481,457,436,424,418,416,415,415,415,415,415,415,414,412,410,407,383,352,301,234,158,31,9],"timestamp_mouse":[12,31,52,72,91,113,132,153,172,191,211,233,252,271,291,312,332,351,371,392,412,433,453,471,491,512,532,551,571,592,611,632,651,672,692,711,733,752],"xSR":741.5,"ySR":449.15000000000003,"xT1":424.9,"yT1":0,"xT2":1058.1,"yT2":0,"toosoon":0,"cond_shown":"Incongruent","ratio_trial":200,"L_num":7,"L_den":15,"R_num":4,"R_den":6,"correct_side":2,"subjID":"AlissonCamilaMalpicaMunoz14","gender":"1","school":"6","age":"11"},{"start_time":1551794008351,"click_time":1551794009714,"finger_time":1551794009392,"fix_duration":377.2167140070871,"trial":15,"RT":1041,"MT":322,"sideResp":1,"stimulus":[],"xmouse":[797,797,797,797,797,797,797,797,797,797,797,797,797,797,797,797,797,797,797,796,796,795,795,795,795,794,794,793,793,793,793,793,793,793,793,793,793,793,793,793,793,793,793,793,793,793,793,792,788,784,779,771,761,699,661,629,613,604,595,591,586,575,558,537,512,510,510,510,506],"ymouse":[488,488,488,488,488,488,488,488,488,488,488,488,488,488,488,488,488,488,488,485,485,485,485,485,485,484,484,484,484,484,484,484,484,484,484,484,484,484,484,484,484,484,484,484,484,484,484,484,481,477,471,462,448,372,319,275,251,238,223,215,205,191,171,153,129,122,118,115,98],"timestamp_mouse":[10,22,46,62,82,103,122,141,162,181,202,221,243,263,283,302,322,342,362,381,402,421,441,462,481,502,523,542,563,581,601,621,643,662,682,702,721,742,763,781,802,821,843,861,881,901,921,942,962,981,1002,1021,1041,1063,1082,1102,1122,1142,1163,1181,1202,1223,1242,1262,1282,1301,1321,1341,1363],"xSR":741.5,"ySR":449.15000000000003,"xT1":424.9,"yT1":0,"xT2":1058.1,"yT2":0,"toosoon":0,"cond_shown":"Incongruent","ratio_trial":100,"L_num":11,"L_den":22,"R_num":9,"R_den":15,"correct_side":2,"subjID":"AlissonCamilaMalpicaMunoz14","gender":"1","school":"6","age":"11"},{"start_time":1551794011532,"click_time":1551794012254,"finger_time":1551794011952,"fix_duration":637.3306072518101,"trial":16,"RT":420,"MT":302,"sideResp":2,"stimulus":[],"xmouse":[794,794,794,794,794,794,794,794,794,794,794,794,794,794,794,794,794,795,796,802,809,821,837,864,897,976,1010,1024,1032,1036,1049,1059,1074,1087,1096,1096,1096],"ymouse":[470,470,470,470,470,470,470,470,470,470,470,470,470,470,470,469,469,468,467,461,452,441,430,414,382,286,248,231,221,216,199,183,160,135,105,100,95],"timestamp_mouse":[9,32,41,60,80,101,122,140,160,181,202,222,241,261,281,302,321,341,360,381,401,420,441,461,481,501,521,542,561,581,601,621,641,661,682,700,722],"xSR":741.5,"ySR":449.15000000000003,"xT1":424.9,"yT1":0,"xT2":1058.1,"yT2":0,"toosoon":0,"cond_shown":"Incongruent","ratio_trial":100,"L_num":12,"L_den":24,"R_num":9,"R_den":15,"correct_side":2,"subjID":"AlissonCamilaMalpicaMunoz14","gender":"1","school":"6","age":"11"},{"start_time":1551794016275,"click_time":1551794029093,"finger_time":1551794021574,"fix_duration":980.4258132104125,"trial":17,"RT":5299,"MT":7519,"sideResp":2,"stimulus":[],"xmouse":[788,788,788,788,788,788,788,788,788,788,791,792,795,795,795,795,795,795,795,795,795,795,795,795,795,795,795,795,795,795,795,795,795,795,795,795,795,795,795,795,795,795,795,795,795,795,795,795,795,795,795,795,795,795,795,795,795,795,795,795,795,795,795,795,795,795,795,795,795,795,795,795,795,795,795,795,795,795,795,795,795,795,795,795,795,795,795,795,795,795,795,795,795,795,795,795,795,795,795,795,795,795,795,795,795,795,795,795,795,795,795,795,795,795,795,795,795,795,795,795,795,795,795,795,795,795,795,795,795,795,795,795,795,795,795,795,795,795,795,795,795,795,795,795,795,795,795,795,795,795,795,795,795,795,795,795,795,795,795,795,795,795,795,795,795,795,795,795,795,795,795,795,795,795,795,795,795,795,795,795,795,795,795,795,795,795,795,795,795,795,795,795,795,795,795,795,795,795,795,795,795,795,795,795,795,795,795,795,795,795,795,795,795,795,795,795,795,795,795,795,795,795,795,795,795,795,795,795,795,795,795,795,795,795,795,795,795,795,795,795,795,795,795,795,795,795,795,795,795,795,795,795,795,795,795,795,795,795,795,795,795,795,795,819,1070,1376,1376,1376,1376,1376,1376,1376,1376,1376,1376,1376,1376,1376,1376,1376,1376,1376,1376,1376,1376,1376,1376,1440,1340,1205,1045,823,822,817,805,787,750,695,693,708,718,729,735,743,758,778,817,831,838,847,852,853,853,848,840,834,823,817,812,807,801,794,794,794,794,794,794,794,794,794,795,796,796,796,796,796,796,796,796,796,796,796,796,796,796,798,798,799,800,800,800,800,800,800,800,800,800,800,800,800,800,800,800,800,800,800,800,800,800,800,800,800,800,800,800,800,800,800,800,800,800,800,800,800,800,798,798,796,796,796,795,793,792,792,792,792,791,790,789,789,788,786,785,785,785,785,785,785,785,786,787,787,787,787,788,788,788,788,789,789,789,789,789,789,789,789,789,789,789,789,789,789,789,789,789,789,789,789,789,789,789,789,789,789,789,789,789,789,789,789,787,784,783,783,783,778,774,759,757,760,768,780,783,784,784,785,781,780,780,780,780,780,780,780,771,759,759,759,759,759,758,760,757,740,719,703,702,702,702,701,701,699,698,694,694,702,723,734,744,751,756,761,763,765,767,768,775,779,781,782,783,785,790,795,800,804,807,807,807,807,806,803,783,780,780,780,780,780,784,787,792,796,798,798,798,798,798,797,797,794,791,779,779,779,779,780,783,784,786,786,787,787,789,789,789,789,787,775,772,771,771,771,771,772,779,787,793,797,797,797,797,796,791,789,787,787,787,788,789,791,794,824,833,833,831,828,823,803,798,798,798,800,823,838,849,851,851,851,852,852,852,852,851,845,833,819,801,798,798,798,798,798,798,798,801,803,812,814,814,814,814,809,808,808,808,808,809,815,829,851,882,970,1013,1025,1035,1043,1057,1060,1064,1068,1071],"ymouse":[487,487,487,487,487,487,487,487,487,487,483,478,473,473,473,473,473,473,473,473,473,473,473,473,473,473,473,473,473,473,473,473,473,473,473,473,473,473,473,473,473,473,473,473,473,473,473,473,473,473,473,473,473,473,473,473,473,473,473,473,473,473,473,473,473,473,473,473,473,473,473,473,473,473,473,473,473,473,473,473,473,473,473,473,473,473,473,473,473,473,473,473,473,473,473,473,473,473,473,473,473,473,473,473,473,473,473,473,473,473,473,473,473,473,473,473,473,473,473,473,473,473,473,473,473,473,473,473,473,473,473,473,473,473,473,473,473,473,473,473,473,473,473,473,473,473,473,473,473,473,473,473,473,473,473,473,473,473,473,473,473,473,473,473,473,473,473,473,473,473,473,473,473,473,473,473,473,473,473,473,473,473,473,473,473,473,473,473,473,473,473,473,473,473,473,473,473,473,473,473,473,473,473,473,473,473,473,473,473,473,473,473,473,473,473,473,473,473,473,473,473,473,473,473,473,473,473,473,473,473,473,473,473,473,473,473,473,473,473,473,473,473,473,473,473,473,473,473,473,473,473,473,473,473,473,473,473,473,473,473,473,473,473,460,385,316,316,316,316,316,316,316,316,316,316,316,316,316,316,316,316,316,316,316,316,316,316,215,215,216,189,129,129,131,140,163,234,413,457,484,497,517,528,537,548,562,582,586,586,581,574,540,525,511,498,490,483,482,482,482,484,493,497,498,500,500,500,500,500,500,500,500,500,500,500,500,500,500,500,500,500,500,500,500,500,497,496,493,490,489,486,479,474,473,472,472,472,472,472,472,472,472,472,472,472,472,472,472,472,472,472,472,472,472,472,472,472,472,472,472,472,472,472,472,472,471,470,470,470,470,470,470,470,470,470,470,470,471,472,472,473,474,478,482,484,485,485,485,487,488,490,490,490,490,490,490,490,490,489,489,488,488,488,488,488,488,488,488,488,488,488,488,488,488,488,488,488,488,488,488,488,488,488,488,488,488,488,488,488,488,488,490,490,490,490,490,490,492,492,487,480,471,470,470,470,476,493,495,495,491,490,487,487,487,488,493,493,493,493,493,489,486,485,497,512,533,533,533,533,527,524,522,522,534,550,558,552,541,532,528,525,524,524,524,524,523,521,520,519,519,518,516,510,501,489,475,465,463,463,463,463,463,475,478,479,480,481,482,482,482,481,480,480,480,480,480,480,481,481,482,484,493,493,494,496,496,496,496,495,495,493,493,491,491,491,490,489,486,486,486,486,486,486,485,480,473,468,463,463,463,463,463,468,473,480,486,493,494,495,495,494,471,463,461,460,459,460,487,497,500,500,499,473,442,409,390,379,370,369,369,369,369,375,395,431,483,577,612,636,650,653,654,654,655,652,644,603,564,532,512,500,482,482,481,481,481,479,475,467,455,432,349,270,231,200,179,148,136,123,110,96],"timestamp_mouse":[18,40,58,79,98,119,137,158,179,198,218,238,259,278,297,317,339,357,378,398,418,438,459,477,497,519,538,558,578,598,618,638,659,678,698,718,739,759,778,798,818,839,858,879,897,918,938,958,978,999,1017,1038,1057,1079,1097,1117,1138,1158,1179,1198,1217,1239,1258,1279,1298,1318,1339,1357,1379,1399,1419,1438,1457,1477,1498,1519,1539,1559,1578,1597,1619,1638,1657,1678,1698,1718,1739,1759,1779,1798,1818,1837,1859,1877,1898,1918,1938,1958,1978,1998,2017,2039,2059,2078,2098,2119,2138,2158,2179,2197,2218,2238,2259,2277,2298,2317,2338,2359,2377,2397,2419,2437,2458,2478,2499,2519,2537,2557,2578,2599,2619,2638,2658,2677,2697,2719,2738,2757,2779,2799,2817,2838,2858,2878,2899,2918,2937,2958,2979,2998,3018,3037,3058,3077,3097,3118,3137,3158,3179,3199,3218,3238,3259,3278,3298,3317,3339,3358,3379,3398,3418,3439,3459,3478,3497,3518,3539,3559,3577,3598,3617,3638,3658,3677,3698,3717,3739,3758,3779,3799,3819,3837,3859,3877,3898,3918,3937,3959,3979,3997,4018,4038,4057,4079,4097,4117,4139,4157,4179,4197,4217,4239,4258,4279,4299,4317,4337,4359,4378,4398,4419,4437,4458,4477,4498,4519,4538,4559,4577,4597,4619,4637,4658,4679,4699,4718,4737,4759,4777,4799,4817,4838,4859,4877,4899,4917,4938,4957,4978,4998,5018,5038,5059,5077,5097,5117,5138,5157,5179,5197,5218,5239,5257,5277,5299,5318,5338,5357,5378,5398,5418,5439,5458,5478,5497,5519,5539,5558,5579,5598,5617,5638,5658,5678,5699,5718,5738,5757,5778,5798,5818,5838,5857,5878,5897,5917,5938,5958,5978,5997,6017,6039,6057,6078,6098,6117,6139,6157,6178,6198,6218,6239,6257,6277,6298,6318,6338,6357,6378,6399,6417,6438,6458,6477,6498,6518,6539,6558,6579,6598,6619,6638,6657,6677,6699,6717,6738,6759,6778,6797,6817,6838,6858,6877,6899,6918,6938,6958,6978,6998,7019,7038,7057,7078,7098,7117,7138,7157,7178,7197,7217,7239,7259,7277,7299,7318,7337,7359,7378,7399,7417,7437,7459,7479,7498,7518,7538,7558,7578,7599,7617,7639,7659,7678,7697,7718,7738,7758,7777,7797,7819,7838,7857,7877,7897,7919,7938,7958,7977,7998,8018,8038,8058,8078,8098,8119,8138,8157,8178,8198,8217,8237,8258,8277,8297,8318,8338,8358,8379,8398,8417,8437,8459,8478,8498,8517,8537,8558,8577,8597,8619,8637,8657,8677,8697,8717,8737,8758,8778,8797,8818,8838,8857,8878,8898,8918,8937,8959,8977,8997,9019,9038,9057,9077,9099,9118,9137,9158,9179,9198,9217,9238,9258,9278,9298,9318,9338,9358,9378,9398,9419,9438,9459,9477,9499,9517,9538,9558,9578,9598,9618,9639,9657,9678,9698,9718,9738,9757,9789,9797,9817,9839,9857,9878,9899,9919,9939,9957,9978,9997,10017,10038,10058,10078,10098,10119,10138,10158,10178,10198,10217,10238,10258,10278,10297,10318,10339,10357,10377,10398,10418,10438,10457,10478,10497,10518,10539,10557,10579,10597,10617,10638,10658,10679,10699,10717,10738,10758,10777,10798,10819,10839,10857,10879,10897,10918,10938,10958,10978,10997,11018,11037,11058,11077,11098,11118,11137,11158,11178,11197,11219,11238,11258,11278,11298,11318,11338,11358,11379,11398,11418,11437,11458,11478,11498,11519,11538,11558,11578,11598,11618,11638,11658,11678,11698,11719,11738,11758,11779,11798,11818,11838,11857,11878,11898,11917,11939,11958,11977,11997,12018,12039,12058,12077,12097,12118,12138,12157,12179,12197,12218,12238,12259,12278,12298,12318,12339,12357,12378,12397,12418,12439,12458,12478,12498,12518,12538,12558,12579,12598,12617,12638,12657,12678,12699,12719,12738,12758,12777,12798,12818],"xSR":741.5,"ySR":449.15000000000003,"xT1":424.9,"yT1":0,"xT2":1058.1,"yT2":0,"toosoon":0,"cond_shown":"Congruent","ratio_trial":200,"L_num":14,"L_den":28,"R_num":6,"R_den":20,"correct_side":1,"subjID":"AlissonCamilaMalpicaMunoz14","gender":"1","school":"6","age":"11"},{"start_time":1551794031573,"click_time":1551794033094,"finger_time":1551794031892,"fix_duration":1497.9701406732177,"trial":18,"RT":319,"MT":1202,"sideResp":1,"stimulus":[],"xmouse":[782,782,780,776,776,774,773,771,764,762,761,761,760,759,758,757,756,756,756,756,756,756,756,756,756,756,756,756,756,756,756,756,756,756,756,756,756,756,757,759,760,761,762,764,765,766,766,768,771,772,772,772,772,772,772,772,772,772,762,728,673,614,569,537,537,536,534,534,534,534,534,534,534,534,534,534,458],"ymouse":[475,475,474,470,470,468,467,466,460,458,458,457,457,455,451,451,448,448,448,448,448,448,448,448,448,448,448,448,448,448,448,448,448,448,448,448,448,448,451,453,455,457,458,462,464,465,466,470,478,478,479,479,480,482,482,482,482,481,403,302,213,141,78,13,7,2,0,0,0,0,0,0,0,0,0,0,26],"timestamp_mouse":[1,21,39,72,79,99,120,140,160,180,200,219,239,260,280,301,319,340,361,381,401,420,440,459,479,500,520,540,559,580,600,620,641,660,680,700,719,740,759,780,800,820,840,859,879,900,919,940,960,979,999,1021,1040,1061,1080,1099,1119,1140,1160,1179,1200,1221,1241,1260,1280,1299,1319,1340,1359,1379,1399,1419,1440,1460,1480,1500,1521],"xSR":741.5,"ySR":449.15000000000003,"xT1":424.9,"yT1":0,"xT2":1058.1,"yT2":0,"toosoon":0,"cond_shown":"Congruent","ratio_trial":100,"L_num":15,"L_den":25,"R_num":13,"R_den":26,"correct_side":1,"subjID":"AlissonCamilaMalpicaMunoz14","gender":"1","school":"6","age":"11"},{"start_time":1551794034550,"click_time":1551794035952,"finger_time":1551794035633,"fix_duration":595.010746387784,"trial":19,"RT":1083,"MT":319,"sideResp":2,"stimulus":[],"xmouse":[779,779,779,779,779,779,779,779,779,779,779,779,779,779,779,779,779,779,779,779,779,779,779,779,779,779,779,779,779,779,779,779,779,779,779,779,779,779,779,779,779,779,779,779,779,779,779,779,781,786,789,793,802,813,845,858,872,889,916,975,992,1004,1014,1029,1034,1039,1043,1047,1053,1057,1062],"ymouse":[477,477,477,477,477,477,477,477,477,477,477,477,477,477,477,477,477,477,477,477,477,477,477,477,477,477,477,477,477,477,477,477,477,477,477,477,477,477,477,477,477,477,477,477,477,477,477,477,477,474,472,468,461,452,426,410,390,368,336,270,251,236,223,194,181,167,154,142,120,96,82],"timestamp_mouse":[9,36,42,63,82,102,123,144,162,183,204,224,243,264,282,302,324,344,363,383,402,424,442,463,484,503,524,542,563,584,604,622,642,662,684,703,723,742,764,783,802,823,844,862,882,903,922,943,963,984,1003,1023,1042,1062,1083,1103,1122,1143,1164,1184,1203,1224,1244,1262,1283,1302,1324,1343,1363,1382,1402],"xSR":741.5,"ySR":449.15000000000003,"xT1":424.9,"yT1":0,"xT2":1058.1,"yT2":0,"toosoon":0,"cond_shown":"Incongruent","ratio_trial":300,"L_num":2,"L_den":4,"R_num":6,"R_den":30,"correct_side":1,"subjID":"AlissonCamilaMalpicaMunoz14","gender":"1","school":"6","age":"11"},{"start_time":1551794037517,"click_time":1551794043273,"finger_time":1551794042552,"fix_duration":623.3025511537902,"trial":20,"RT":5035,"MT":721,"sideResp":1,"stimulus":[],"xmouse":[805,805,805,805,805,805,805,805,805,805,805,805,803,803,802,802,802,802,802,801,801,801,801,800,799,799,799,799,799,799,799,799,799,799,799,799,799,799,799,799,799,799,799,799,799,799,799,799,799,799,799,798,798,798,798,798,798,798,798,798,798,798,797,797,794,793,791,791,791,791,791,791,791,791,791,791,791,791,791,791,791,791,791,791,791,792,793,794,794,795,798,799,799,800,803,806,809,809,809,810,810,810,810,810,810,810,810,810,810,810,810,810,810,810,810,810,810,810,810,810,810,809,808,808,808,807,805,802,799,796,796,796,796,796,796,796,796,796,796,796,796,796,796,796,796,796,796,796,796,796,795,795,795,794,793,793,793,793,793,793,793,793,793,794,794,794,794,794,794,794,794,794,794,794,794,794,794,794,794,794,794,794,794,794,794,794,794,793,793,789,789,788,788,788,788,786,785,784,784,784,784,784,784,784,782,782,782,782,782,782,782,782,782,782,782,782,782,782,782,782,782,782,782,782,782,782,782,782,782,782,782,782,782,782,782,782,782,782,782,782,782,782,782,782,782,782,782,782,782,782,779,773,771,769,763,759,754,744,731,695,672,662,655,651,646,628,616,603,592,573,572,571,569,567,554,546,539,534,529,509,497,491,485,482,480,480,478,478],"ymouse":[486,486,486,486,485,484,483,482,482,482,482,482,481,480,480,480,479,479,479,479,478,477,477,476,474,474,474,474,474,474,474,474,474,474,474,474,474,474,474,474,474,474,474,474,474,474,474,474,474,474,474,473,464,454,451,451,451,451,451,451,451,451,450,450,451,451,453,454,455,456,459,460,461,461,461,462,464,466,467,472,473,473,475,475,478,479,481,482,483,485,488,490,491,491,494,497,499,500,501,501,501,501,501,501,501,501,501,501,501,501,501,501,501,501,501,501,501,501,500,499,497,496,495,495,495,495,494,493,491,488,488,488,488,488,488,488,487,487,486,486,486,486,486,486,486,486,486,486,486,484,483,482,481,480,480,480,480,480,480,480,480,480,478,477,476,476,476,476,476,476,476,476,476,476,476,476,476,476,476,476,476,476,476,476,476,476,476,476,475,475,475,475,475,475,475,475,475,475,475,475,475,475,475,475,475,475,475,475,475,475,475,475,475,475,475,475,475,475,475,475,475,475,475,475,475,475,475,475,475,475,475,475,475,475,475,475,475,475,475,475,475,475,475,475,475,475,475,475,475,470,458,442,435,429,422,417,408,393,372,325,303,290,280,272,259,228,211,194,179,149,144,141,138,137,130,127,123,123,121,117,112,109,105,102,101,101,100,99],"timestamp_mouse":[32,35,55,77,95,116,137,156,176,195,215,236,256,276,295,316,336,357,375,396,415,436,456,475,495,516,536,556,576,597,617,635,657,676,697,715,736,757,775,795,816,836,855,876,895,916,935,956,975,997,1017,1036,1055,1076,1095,1117,1137,1155,1175,1196,1215,1237,1256,1275,1297,1316,1335,1356,1375,1396,1417,1435,1457,1475,1495,1515,1537,1556,1575,1596,1616,1635,1656,1675,1697,1715,1736,1756,1776,1797,1817,1836,1856,1876,1896,1916,1936,1956,1977,1997,2016,2035,2055,2076,2095,2116,2136,2157,2175,2195,2215,2235,2256,2276,2296,2315,2336,2356,2377,2396,2416,2436,2455,2476,2496,2516,2536,2556,2575,2596,2617,2635,2655,2676,2696,2715,2735,2755,2775,2796,2815,2835,2857,2875,2897,2915,2935,2957,2976,2996,3017,3035,3056,3077,3095,3115,3135,3155,3175,3195,3216,3236,3257,3275,3297,3315,3335,3357,3375,3395,3415,3437,3456,3475,3497,3515,3535,3557,3575,3595,3615,3635,3656,3675,3696,3716,3736,3755,3775,3796,3817,3836,3855,3877,3895,3916,3937,3956,3975,3996,4015,4036,4056,4077,4096,4117,4137,4155,4176,4195,4216,4236,4255,4275,4296,4316,4336,4357,4376,4395,4417,4435,4455,4476,4496,4516,4536,4555,4576,4595,4616,4637,4656,4677,4696,4717,4737,4756,4776,4797,4815,4837,4855,4877,4896,4915,4937,4956,4975,4996,5016,5035,5055,5076,5097,5115,5136,5156,5176,5197,5215,5236,5256,5276,5296,5315,5337,5357,5375,5396,5415,5436,5457,5476,5496,5515,5537,5555,5575,5597,5615,5636,5656,5676,5696,5715,5735,5755],"xSR":741.5,"ySR":449.15000000000003,"xT1":424.9,"yT1":0,"xT2":1058.1,"yT2":0,"toosoon":0,"cond_shown":"Incongruent","ratio_trial":200,"L_num":4,"L_den":5,"R_num":6,"R_den":10,"correct_side":1,"subjID":"AlissonCamilaMalpicaMunoz14","gender":"1","school":"6","age":"11"},{"start_time":1551794046613,"click_time":1551794048414,"finger_time":1551794047913,"fix_duration":697.5875726291711,"trial":21,"RT":1300,"MT":501,"sideResp":1,"stimulus":[],"xmouse":[779,779,779,779,779,779,779,779,779,779,779,779,779,779,779,779,779,779,779,779,779,779,779,779,779,779,779,778,778,778,778,778,778,778,778,778,778,778,778,778,778,778,778,778,779,780,780,780,780,780,780,780,780,780,780,780,780,780,780,780,780,780,780,780,777,744,720,708,697,689,680,660,652,652,652,645,639,634,629,625,617,613,609,608,603,596,565,558,552,543,521],"ymouse":[486,486,486,486,486,486,486,486,486,486,486,486,486,486,486,486,486,486,486,486,486,486,486,486,486,485,469,463,462,462,462,462,462,462,462,462,462,462,462,462,462,461,461,460,459,458,458,458,458,458,458,458,458,458,458,458,458,458,458,458,458,458,458,456,452,420,393,382,373,366,358,340,331,323,307,261,245,230,214,203,187,182,178,177,173,166,133,126,121,110,89],"timestamp_mouse":[1,35,40,59,79,99,119,140,159,179,199,219,239,259,279,300,320,340,359,380,399,420,439,461,479,500,520,540,559,579,600,620,641,659,679,700,719,740,760,781,800,819,841,859,880,901,919,939,959,980,1000,1021,1040,1059,1079,1099,1120,1139,1160,1181,1201,1219,1240,1260,1280,1300,1320,1339,1359,1381,1401,1420,1440,1460,1479,1501,1519,1540,1559,1580,1600,1619,1640,1660,1681,1700,1720,1740,1759,1780,1801],"xSR":741.5,"ySR":449.15000000000003,"xT1":424.9,"yT1":0,"xT2":1058.1,"yT2":0,"toosoon":0,"cond_shown":"Incongruent","ratio_trial":100,"L_num":10,"L_den":25,"R_num":8,"R_den":16,"correct_side":2,"subjID":"AlissonCamilaMalpicaMunoz14","gender":"1","school":"6","age":"11"},{"start_time":1551794051784,"click_time":1551794053113,"finger_time":1551794052692,"fix_duration":269.42504143432944,"trial":22,"RT":908,"MT":421,"sideResp":1,"stimulus":[],"xmouse":[822,822,822,822,822,822,822,822,822,822,822,823,823,823,823,823,823,823,823,823,823,823,823,823,823,823,823,823,823,823,823,823,823,823,823,823,823,823,823,823,823,821,819,816,811,803,766,744,726,711,697,682,667,662,650,625,553,517,505,499,496,492,492,492,491,490,486],"ymouse":[486,486,486,486,486,486,486,486,486,486,486,485,485,484,484,483,483,483,483,483,483,483,483,483,483,483,483,483,483,483,483,483,483,483,483,483,483,483,483,483,483,478,474,465,452,434,351,311,282,257,236,216,197,194,189,183,163,147,137,130,126,121,120,117,112,103,88],"timestamp_mouse":[9,30,60,68,90,108,128,150,170,188,209,228,248,269,290,309,329,350,369,389,409,429,449,469,489,508,530,549,568,590,608,629,649,669,690,709,730,748,768,790,808,830,848,869,889,908,929,948,969,988,1008,1030,1049,1070,1090,1108,1130,1149,1169,1189,1209,1229,1249,1268,1290,1310,1329],"xSR":741.5,"ySR":449.15000000000003,"xT1":424.9,"yT1":0,"xT2":1058.1,"yT2":0,"toosoon":0,"cond_shown":"Congruent","ratio_trial":100,"L_num":11,"L_den":22,"R_num":4,"R_den":10,"correct_side":1,"subjID":"AlissonCamilaMalpicaMunoz14","gender":"1","school":"6","age":"11"},{"start_time":1551794056929,"click_time":1551794058153,"finger_time":1551794057832,"fix_duration":1494.5679201764694,"trial":23,"RT":903,"MT":321,"sideResp":1,"stimulus":[],"xmouse":[797,797,797,797,797,797,797,797,797,797,797,797,797,797,797,797,797,797,797,797,797,797,797,797,797,797,797,797,797,797,797,797,797,797,797,797,797,797,797,797,797,791,783,773,759,730,714,700,688,666,649,643,641,640,632,592,554,519,494,471,463,459],"ymouse":[497,497,497,497,497,497,497,497,497,497,497,497,497,497,497,497,497,497,497,497,497,497,497,497,497,497,497,497,497,497,497,497,497,497,497,497,497,497,497,497,497,494,482,468,452,406,378,354,335,305,285,281,279,278,271,231,197,168,147,123,107,95],"timestamp_mouse":[9,24,50,64,84,103,123,145,163,183,203,224,244,263,284,305,323,345,363,385,404,424,444,463,485,503,523,544,563,583,604,623,645,663,683,704,724,744,763,783,803,824,844,865,883,903,924,944,963,984,1003,1024,1044,1064,1084,1104,1124,1144,1164,1184,1204,1224],"xSR":741.5,"ySR":449.15000000000003,"xT1":424.9,"yT1":0,"xT2":1058.1,"yT2":0,"toosoon":0,"cond_shown":"Congruent","ratio_trial":100,"L_num":10,"L_den":25,"R_num":3,"R_den":10,"correct_side":1,"subjID":"AlissonCamilaMalpicaMunoz14","gender":"1","school":"6","age":"11"},{"start_time":1551794060745,"click_time":1551794062112,"finger_time":1551794061433,"fix_duration":250,"trial":24,"RT":688,"MT":679,"sideResp":2,"stimulus":[],"xmouse":[796,796,796,796,796,796,796,796,796,796,796,796,796,796,796,796,796,796,796,796,796,796,796,796,796,796,796,796,796,795,795,796,802,811,829,840,859,876,894,905,916,930,945,960,985,1000,1011,1023,1047,1052,1056,1058,1060,1062,1063,1064,1066,1070,1076,1081,1084,1087,1090,1093,1094,1096,1097,1098,1100],"ymouse":[489,489,489,489,489,489,489,489,489,489,489,489,489,489,489,489,489,489,489,489,489,489,489,489,489,489,489,489,489,488,486,482,473,462,438,427,416,409,399,388,373,353,331,309,272,250,233,217,186,179,174,168,165,162,162,160,158,153,143,137,132,126,121,114,112,108,105,101,98],"timestamp_mouse":[9,27,47,68,88,107,128,148,169,188,208,227,248,269,287,308,328,347,369,389,408,428,449,468,488,509,527,549,569,587,608,628,648,669,688,708,728,748,769,788,807,829,849,869,888,908,927,947,969,987,1008,1028,1047,1069,1090,1107,1129,1148,1168,1187,1208,1229,1249,1268,1287,1309,1328,1348,1367],"xSR":741.5,"ySR":449.15000000000003,"xT1":424.9,"yT1":0,"xT2":1058.1,"yT2":0,"toosoon":0,"cond_shown":"Congruent","ratio_trial":200,"L_num":3,"L_den":10,"R_num":7,"R_den":14,"correct_side":2,"subjID":"AlissonCamilaMalpicaMunoz14","gender":"1","school":"6","age":"11"},{"start_time":1551794064242,"click_time":1551794065074,"finger_time":1551794064852,"fix_duration":1048.4340352068386,"trial":25,"RT":610,"MT":222,"sideResp":2,"stimulus":[],"xmouse":[783,783,783,781,781,781,781,781,781,781,781,781,781,781,781,781,781,781,781,781,781,781,781,781,781,781,781,781,789,806,834,885,952,1042,1075,1082,1086,1089,1092,1101,1106,1111],"ymouse":[487,487,487,488,488,488,488,488,488,488,488,488,488,488,488,488,488,488,488,488,488,488,488,488,488,488,488,488,477,458,429,387,333,233,179,164,157,152,144,121,108,96],"timestamp_mouse":[13,38,52,71,90,111,130,151,170,192,210,230,251,270,291,310,330,351,372,391,410,432,450,471,490,510,531,551,571,591,610,630,652,671,690,710,731,751,771,790,812,832],"xSR":741.5,"ySR":449.15000000000003,"xT1":424.9,"yT1":0,"xT2":1058.1,"yT2":0,"toosoon":0,"cond_shown":"Incongruent","ratio_trial":300,"L_num":4,"L_den":5,"R_num":6,"R_den":12,"correct_side":1,"subjID":"AlissonCamilaMalpicaMunoz14","gender":"1","school":"6","age":"11"},{"start_time":1551794074800,"click_time":1551794076193,"finger_time":1551794075633,"fix_duration":1465.655406089673,"trial":26,"RT":833,"MT":560,"sideResp":2,"stimulus":[],"xmouse":[801,801,801,801,801,801,801,801,801,801,801,801,801,801,801,801,801,801,801,801,801,801,801,801,801,801,801,801,801,801,801,801,801,801,801,801,801,801,801,804,816,839,850,859,869,895,916,926,934,941,956,964,970,977,985,994,1015,1032,1050,1068,1083,1091,1092,1094,1095,1102,1105,1106,1108,1110],"ymouse":[480,480,480,480,480,480,480,479,478,478,477,477,476,476,475,475,475,475,475,474,473,473,473,473,473,473,473,473,473,473,473,473,473,473,473,473,473,473,472,468,461,449,440,431,421,389,365,349,335,324,304,292,283,271,259,246,219,201,179,162,146,138,136,133,129,116,110,107,102,97],"timestamp_mouse":[13,41,53,73,92,113,133,152,172,193,212,233,254,273,292,314,334,354,373,393,413,433,453,472,493,512,534,552,572,594,613,633,652,672,694,713,733,754,774,794,812,833,853,873,894,913,932,953,973,994,1014,1032,1052,1072,1092,1112,1132,1153,1174,1194,1213,1232,1253,1272,1292,1313,1333,1353,1374,1393],"xSR":741.5,"ySR":449.15000000000003,"xT1":424.9,"yT1":0,"xT2":1058.1,"yT2":0,"toosoon":0,"cond_shown":"Incongruent","ratio_trial":100,"L_num":6,"L_den":10,"R_num":11,"R_den":22,"correct_side":1,"subjID":"AlissonCamilaMalpicaMunoz14","gender":"1","school":"6","age":"11"},{"start_time":1551794078030,"click_time":1551794079394,"finger_time":1551794078793,"fix_duration":777.028471062529,"trial":27,"RT":763,"MT":601,"sideResp":2,"stimulus":[],"xmouse":[822,822,822,822,823,823,824,824,824,825,825,825,825,825,825,825,825,825,825,825,825,825,825,825,825,825,825,825,825,825,825,825,825,825,825,828,834,840,850,864,882,889,901,920,948,951,951,952,954,963,968,972,977,982,993,1000,1008,1019,1027,1041,1051,1065,1073,1080,1091,1096,1098,1101,1104],"ymouse":[506,506,506,506,505,504,504,502,502,501,500,500,500,500,500,500,500,500,500,500,500,500,500,500,500,500,500,500,500,500,500,500,500,500,500,495,486,473,454,431,395,382,365,338,300,297,295,293,288,267,256,247,239,232,219,208,197,183,173,159,150,139,131,124,114,108,106,102,98],"timestamp_mouse":[11,39,42,63,83,104,123,143,163,183,202,223,242,262,284,302,322,343,362,384,403,422,443,463,482,504,523,544,563,584,602,623,642,664,682,703,723,744,763,783,803,823,842,862,884,902,923,944,963,984,1002,1023,1043,1063,1083,1102,1122,1142,1162,1183,1202,1223,1244,1264,1283,1302,1322,1343,1364],"xSR":741.5,"ySR":449.15000000000003,"xT1":424.9,"yT1":0,"xT2":1058.1,"yT2":0,"toosoon":0,"cond_shown":"Incongruent","ratio_trial":200,"L_num":14,"L_den":30,"R_num":6,"R_den":9,"correct_side":2,"subjID":"AlissonCamilaMalpicaMunoz14","gender":"1","school":"6","age":"11"},{"start_time":1551794081755,"click_time":1551794082833,"finger_time":1551794082473,"fix_duration":1380.1572172932902,"trial":28,"RT":718,"MT":360,"sideResp":1,"stimulus":[],"xmouse":[796,796,797,797,797,797,797,797,797,797,797,797,797,797,797,797,797,797,797,797,797,797,797,797,797,797,797,797,797,797,797,797,797,797,798,798,798,774,753,740,725,711,682,670,662,654,643,628,587,560,546,537,531,510],"ymouse":[463,463,462,462,462,462,462,462,462,462,462,462,462,462,462,462,462,462,462,462,462,462,462,462,462,462,462,462,462,462,462,462,462,462,458,448,418,343,310,292,272,252,217,206,197,191,183,171,143,123,115,109,105,91],"timestamp_mouse":[18,46,58,77,97,118,139,158,178,197,217,239,257,279,297,317,338,359,377,398,418,438,459,477,497,517,539,558,579,598,619,639,657,679,698,718,738,759,777,797,818,839,858,877,898,918,937,958,978,997,1019,1038,1058,1078],"xSR":741.5,"ySR":449.15000000000003,"xT1":424.9,"yT1":0,"xT2":1058.1,"yT2":0,"toosoon":0,"cond_shown":"Incongruent","ratio_trial":200,"L_num":1,"L_den":3,"R_num":2,"R_den":15,"correct_side":1,"subjID":"AlissonCamilaMalpicaMunoz14","gender":"1","school":"6","age":"11"},{"start_time":1551794084524,"click_time":1551794086314,"finger_time":1551794086113,"fix_duration":609.5454146135006,"trial":29,"RT":1589,"MT":201,"sideResp":1,"stimulus":[],"xmouse":[794,790,790,779,771,769,768,767,766,766,764,763,763,763,763,763,762,762,762,762,761,761,761,761,761,761,761,761,761,761,761,761,761,761,761,761,761,761,761,761,761,761,761,761,761,759,759,759,759,757,756,756,754,753,752,751,751,751,751,751,751,752,755,759,767,770,772,773,773,773,773,774,777,778,782,784,784,784,784,766,733,703,673,642,616,580,563,547,533,515],"ymouse":[498,494,494,486,480,479,479,478,477,477,477,477,477,477,477,477,478,478,478,478,479,479,479,479,479,479,479,479,479,479,479,479,479,479,479,479,479,479,479,479,479,479,479,479,479,479,479,480,480,481,481,482,482,483,484,485,485,485,485,485,485,486,487,489,491,491,492,492,492,492,492,492,490,490,486,482,475,466,452,410,358,319,277,233,197,147,127,107,90,69],"timestamp_mouse":[14,38,48,68,90,109,129,149,168,188,209,229,249,269,289,309,328,349,368,389,410,428,448,469,490,509,528,550,568,588,608,629,650,669,689,708,729,748,770,788,808,830,849,868,889,910,929,950,968,990,1008,1029,1049,1068,1089,1109,1128,1149,1169,1189,1208,1229,1249,1268,1290,1308,1329,1348,1368,1390,1410,1429,1449,1470,1489,1509,1530,1550,1569,1589,1608,1630,1649,1669,1688,1709,1729,1749,1768,1789],"xSR":741.5,"ySR":449.15000000000003,"xT1":424.9,"yT1":0,"xT2":1058.1,"yT2":0,"toosoon":0,"cond_shown":"Congruent","ratio_trial":100,"L_num":1,"L_den":2,"R_num":3,"R_den":5,"correct_side":2,"subjID":"AlissonCamilaMalpicaMunoz14","gender":"1","school":"6","age":"11"},{"start_time":1551794088328,"click_time":1551794089532,"finger_time":1551794089172,"fix_duration":974.9009278135292,"trial":30,"RT":844,"MT":360,"sideResp":2,"stimulus":[],"xmouse":[804,804,804,804,804,804,804,804,804,804,804,804,804,804,804,804,804,804,804,804,804,804,804,804,804,804,804,804,804,804,804,804,804,804,804,804,804,808,811,825,831,838,849,859,875,883,889,896,903,922,935,947,956,967,987,999,1014,1031,1047,1060,1090],"ymouse":[491,491,491,491,491,491,491,491,491,491,491,491,491,491,491,491,491,491,491,491,491,491,491,491,491,491,491,491,491,491,491,491,491,491,491,491,492,490,489,483,481,479,476,473,465,459,453,446,434,399,366,342,319,293,246,224,198,175,156,139,99],"timestamp_mouse":[9,25,45,65,85,105,124,145,166,185,206,226,245,266,284,306,324,345,365,384,405,424,446,466,485,505,526,545,565,584,606,624,646,664,684,706,724,745,765,785,804,825,844,866,886,904,925,945,964,985,1005,1025,1046,1065,1086,1105,1126,1146,1166,1184,1204],"xSR":741.5,"ySR":449.15000000000003,"xT1":424.9,"yT1":0,"xT2":1058.1,"yT2":0,"toosoon":0,"cond_shown":"Incongruent","ratio_trial":100,"L_num":13,"L_den":26,"R_num":6,"R_den":10,"correct_side":2,"subjID":"AlissonCamilaMalpicaMunoz14","gender":"1","school":"6","age":"11"},{"start_time":1551794091434,"click_time":1551794092493,"finger_time":1551794092033,"fix_duration":939.8133927027193,"trial":31,"RT":599,"MT":460,"sideResp":1,"stimulus":[],"xmouse":[794,794,794,794,794,794,794,794,794,794,794,794,794,794,793,793,793,793,793,793,793,793,793,793,793,793,793,793,792,780,773,762,752,741,722,715,706,695,682,669,652,643,637,628,617,586,578,569,563,560,547,539,531,523],"ymouse":[518,518,518,518,516,515,515,514,514,513,512,512,511,510,508,508,508,508,508,508,507,504,503,501,498,493,490,487,481,451,434,410,384,355,289,269,247,228,210,193,169,158,152,146,139,122,118,112,109,107,98,94,89,85],"timestamp_mouse":[1,34,38,59,79,99,119,139,159,179,199,218,239,259,279,300,319,340,358,378,399,419,440,459,478,498,519,539,560,580,599,619,639,659,680,698,719,738,759,778,799,818,840,859,878,899,919,940,960,978,999,1019,1039,1059],"xSR":741.5,"ySR":449.15000000000003,"xT1":424.9,"yT1":0,"xT2":1058.1,"yT2":0,"toosoon":0,"cond_shown":"Incongruent","ratio_trial":300,"L_num":2,"L_den":4,"R_num":6,"R_den":30,"correct_side":1,"subjID":"AlissonCamilaMalpicaMunoz14","gender":"1","school":"6","age":"11"},{"start_time":1551794094980,"click_time":1551794096293,"finger_time":1551794095832,"fix_duration":1346.5125363682566,"trial":32,"RT":852,"MT":461,"sideResp":1,"stimulus":[],"xmouse":[778,778,778,778,778,778,778,778,778,778,778,778,778,778,778,778,778,778,778,778,778,778,778,778,778,778,778,776,775,775,775,775,775,775,773,773,773,773,773,773,773,773,773,772,768,762,754,740,732,721,707,668,637,607,581,560,545,525,522,517,513,509,506,503,500,496],"ymouse":[485,485,485,485,485,485,485,485,485,485,485,485,485,485,485,485,485,485,485,485,485,485,485,485,485,485,485,486,486,486,486,486,486,486,483,480,473,469,468,467,463,451,440,427,414,401,389,369,357,342,322,272,241,216,194,180,167,145,140,133,126,119,116,110,105,98],"timestamp_mouse":[13,32,53,73,93,112,133,152,173,193,213,232,254,272,292,313,333,354,372,393,412,433,454,472,492,514,532,552,572,594,613,633,653,673,693,713,732,753,773,793,814,833,852,873,893,912,932,954,972,993,1014,1033,1052,1073,1094,1113,1132,1154,1173,1194,1213,1233,1253,1273,1293,1313],"xSR":741.5,"ySR":449.15000000000003,"xT1":424.9,"yT1":0,"xT2":1058.1,"yT2":0,"toosoon":0,"cond_shown":"Congruent","ratio_trial":100,"L_num":4,"L_den":10,"R_num":15,"R_den":30,"correct_side":2,"subjID":"AlissonCamilaMalpicaMunoz14","gender":"1","school":"6","age":"11"},{"start_time":1551794098462,"click_time":1551794099232,"finger_time":1551794098952,"fix_duration":1228.9262256299712,"trial":33,"RT":490,"MT":280,"sideResp":2,"stimulus":[],"xmouse":[784,785,786,787,787,790,792,796,797,798,798,800,802,802,802,802,802,802,802,802,804,805,810,823,828,834,839,843,857,872,894,917,945,963,978,996,1016,1053,1066],"ymouse":[492,492,491,491,490,489,488,487,486,486,485,485,484,484,484,484,484,484,484,484,482,481,477,455,442,428,414,396,352,319,279,239,192,168,150,131,113,85,75],"timestamp_mouse":[13,31,51,71,91,111,131,151,171,191,210,230,252,271,291,311,331,352,371,390,411,431,450,471,490,510,531,550,570,591,611,632,651,670,691,710,730,752,770],"xSR":741.5,"ySR":449.15000000000003,"xT1":424.9,"yT1":0,"xT2":1058.1,"yT2":0,"toosoon":0,"cond_shown":"Congruent","ratio_trial":100,"L_num":15,"L_den":25,"R_num":13,"R_den":26,"correct_side":1,"subjID":"AlissonCamilaMalpicaMunoz14","gender":"1","school":"6","age":"11"},{"start_time":1551794101467,"click_time":1551794102573,"finger_time":1551794101992,"fix_duration":1452.23285514161,"trial":34,"RT":525,"MT":581,"sideResp":2,"stimulus":[],"xmouse":[804,804,803,803,803,803,803,803,803,803,803,803,803,803,803,803,803,803,803,803,803,803,803,803,805,813,820,830,835,838,841,844,868,899,947,1022,1105,1231,1258,1272,1278,1280,1281,1283,1283,1283,1283,1283,1283,1283,1280,1276,1229,1202,1175,1154],"ymouse":[480,477,477,477,477,477,477,477,477,477,477,477,477,477,477,477,477,477,477,477,477,477,477,476,466,450,434,409,398,390,386,382,355,325,285,224,152,49,28,18,13,10,8,4,4,4,4,4,4,4,4,4,11,14,20,25],"timestamp_mouse":[6,33,46,66,85,106,125,146,165,185,205,225,245,265,285,305,326,346,365,386,405,426,446,466,486,505,525,547,565,586,606,626,646,665,685,706,726,746,765,786,806,826,845,866,885,906,926,947,966,986,1005,1026,1046,1065,1085,1106],"xSR":741.5,"ySR":449.15000000000003,"xT1":424.9,"yT1":0,"xT2":1058.1,"yT2":0,"toosoon":0,"cond_shown":"Congruent","ratio_trial":100,"L_num":2,"L_den":5,"R_num":6,"R_den":12,"correct_side":2,"subjID":"AlissonCamilaMalpicaMunoz14","gender":"1","school":"6","age":"11"},{"start_time":1551794104984,"click_time":1551794105674,"finger_time":1551794105453,"fix_duration":250,"trial":35,"RT":469,"MT":221,"sideResp":1,"stimulus":[],"xmouse":[810,810,810,810,810,810,810,810,810,810,810,810,810,810,810,810,810,808,805,803,801,797,794,791,786,780,771,751,740,726,712,661,621,576,521],"ymouse":[510,510,510,510,510,510,510,510,510,510,510,510,510,509,509,508,507,499,492,482,477,467,457,441,416,392,374,341,328,310,292,216,157,94,17],"timestamp_mouse":[9,34,49,68,88,110,128,148,170,189,209,229,249,268,288,309,328,348,369,389,410,429,449,469,489,509,529,550,569,590,608,630,648,668,689],"xSR":741.5,"ySR":449.15000000000003,"xT1":424.9,"yT1":0,"xT2":1058.1,"yT2":0,"toosoon":0,"cond_shown":"Congruent","ratio_trial":300,"L_num":24,"L_den":30,"R_num":2,"R_den":4,"correct_side":1,"subjID":"AlissonCamilaMalpicaMunoz14","gender":"1","school":"6","age":"11"},{"start_time":1551794107160,"click_time":1551794108113,"finger_time":1551794107693,"fix_duration":527.7262581575098,"trial":36,"RT":533,"MT":420,"sideResp":2,"stimulus":[],"xmouse":[802,802,802,802,802,802,802,802,802,802,802,802,802,802,801,801,801,801,801,801,801,801,801,802,811,827,847,925,997,1030,1052,1062,1070,1085,1090,1093,1094,1098,1098,1098,1098,1098,1098,1098,1098,1097,1097,1097],"ymouse":[499,499,499,499,499,499,499,499,499,499,499,499,499,499,498,498,498,498,498,498,498,498,498,496,488,468,445,363,300,268,248,235,223,190,172,160,151,125,118,118,118,118,118,118,117,115,109,99],"timestamp_mouse":[14,42,53,73,92,113,134,153,173,193,214,233,254,272,294,313,332,353,373,392,414,433,452,473,492,512,533,553,572,593,613,633,652,673,693,713,733,754,773,792,814,833,854,872,892,912,933,953],"xSR":741.5,"ySR":449.15000000000003,"xT1":424.9,"yT1":0,"xT2":1058.1,"yT2":0,"toosoon":0,"cond_shown":"Congruent","ratio_trial":100,"L_num":7,"L_den":14,"R_num":9,"R_den":15,"correct_side":2,"subjID":"AlissonCamilaMalpicaMunoz14","gender":"1","school":"6","age":"11"},{"start_time":1551794110113,"click_time":1551794110832,"finger_time":1551794110573,"fix_duration":1218.365651697731,"trial":37,"RT":460,"MT":259,"sideResp":1,"stimulus":[],"xmouse":[802,802,802,802,802,802,802,802,802,802,802,802,802,802,802,802,802,802,799,795,788,782,776,767,747,736,724,709,688,649,630,607,587,568,548,504],"ymouse":[487,487,487,487,487,487,487,487,487,487,487,487,487,487,487,487,487,487,485,477,468,459,448,431,390,368,346,324,293,237,214,187,163,144,124,77],"timestamp_mouse":[33,40,59,80,100,121,139,160,179,200,219,241,259,281,299,319,340,359,380,400,420,440,460,479,501,519,539,559,580,601,619,639,659,681,699,719],"xSR":741.5,"ySR":449.15000000000003,"xT1":424.9,"yT1":0,"xT2":1058.1,"yT2":0,"toosoon":0,"cond_shown":"Incongruent","ratio_trial":200,"L_num":1,"L_den":3,"R_num":2,"R_den":15,"correct_side":1,"subjID":"AlissonCamilaMalpicaMunoz14","gender":"1","school":"6","age":"11"},{"start_time":1551794112103,"click_time":1551794113073,"finger_time":1551794112792,"fix_duration":269.84108701322793,"trial":38,"RT":689,"MT":281,"sideResp":2,"stimulus":[],"xmouse":[772,772,772,772,772,772,772,772,772,772,775,778,778,778,778,778,778,778,778,778,778,778,778,778,778,778,779,781,782,783,794,806,818,828,835,846,876,895,913,927,941,1001,1022,1032,1039,1042,1049,1053,1060],"ymouse":[466,466,466,466,466,466,466,466,468,469,477,480,480,480,480,480,480,480,480,480,480,480,480,480,480,480,480,480,480,480,473,466,459,452,446,435,393,361,334,311,288,175,140,122,112,106,92,83,70],"timestamp_mouse":[11,32,50,70,90,110,129,150,170,189,210,229,250,271,291,311,329,349,370,390,410,431,450,469,491,511,529,549,570,591,610,631,650,670,689,709,729,750,770,789,810,829,849,870,891,909,930,950,970],"xSR":741.5,"ySR":449.15000000000003,"xT1":424.9,"yT1":0,"xT2":1058.1,"yT2":0,"toosoon":0,"cond_shown":"Congruent","ratio_trial":300,"L_num":11,"L_den":22,"R_num":4,"R_den":20,"correct_side":1,"subjID":"AlissonCamilaMalpicaMunoz14","gender":"1","school":"6","age":"11"},{"start_time":1551794114165,"click_time":1551794115132,"finger_time":1551794114732,"fix_duration":250,"trial":39,"RT":567,"MT":400,"sideResp":1,"stimulus":[],"xmouse":[796,796,796,796,796,796,796,796,796,796,796,796,796,796,796,796,796,796,796,796,796,796,796,796,796,796,796,796,793,789,788,788,786,781,776,771,764,743,719,699,683,669,657,632,617,600,582,529,498],"ymouse":[482,482,482,482,482,482,482,482,482,482,482,482,482,482,482,482,482,482,482,482,482,482,482,482,482,480,477,453,430,418,412,409,404,387,374,362,354,329,302,281,261,242,227,199,184,167,149,103,80],"timestamp_mouse":[10,32,48,68,88,108,127,148,169,187,207,228,248,267,287,307,329,348,367,388,409,427,447,468,488,508,528,548,567,587,607,628,647,667,688,708,727,748,768,787,808,827,848,867,888,908,928,948,967],"xSR":741.5,"ySR":449.15000000000003,"xT1":424.9,"yT1":0,"xT2":1058.1,"yT2":0,"toosoon":0,"cond_shown":"Incongruent","ratio_trial":200,"L_num":4,"L_den":5,"R_num":6,"R_den":10,"correct_side":1,"subjID":"AlissonCamilaMalpicaMunoz14","gender":"1","school":"6","age":"11"},{"start_time":1551794117867,"click_time":1551794118334,"finger_time":1551794118175,"fix_duration":250,"trial":40,"RT":308,"MT":159,"sideResp":1,"stimulus":[],"xmouse":[802,800,800,797,796,796,796,795,794,794,793,792,789,783,776,765,754,715,686,659,629,602,572,519],"ymouse":[490,488,488,483,482,482,482,482,481,480,480,478,476,470,460,449,436,380,338,291,240,192,144,71],"timestamp_mouse":[9,35,48,67,88,107,127,147,167,187,207,227,247,267,287,308,328,347,366,387,408,427,447,466],"xSR":741.5,"ySR":449.15000000000003,"xT1":424.9,"yT1":0,"xT2":1058.1,"yT2":0,"toosoon":0,"cond_shown":"Incongruent","ratio_trial":200,"L_num":14,"L_den":30,"R_num":6,"R_den":9,"correct_side":2,"subjID":"AlissonCamilaMalpicaMunoz14","gender":"1","school":"6","age":"11"},{"start_time":1551794124046,"click_time":1551794124615,"finger_time":1551794124414,"fix_duration":1370.3565830132945,"trial":41,"RT":368,"MT":201,"sideResp":1,"stimulus":[],"xmouse":[788,788,788,788,788,788,788,788,788,788,788,788,788,788,788,785,776,761,706,673,641,614,593,578,548,541,535,526,508],"ymouse":[496,496,496,496,496,496,496,496,496,496,496,496,496,496,496,493,477,453,360,299,245,207,180,163,130,122,114,104,86],"timestamp_mouse":[9,35,48,68,88,109,129,148,168,188,207,228,248,268,289,307,328,349,368,388,408,428,448,468,489,508,529,547,569],"xSR":741.5,"ySR":449.15000000000003,"xT1":424.9,"yT1":0,"xT2":1058.1,"yT2":0,"toosoon":0,"cond_shown":"Incongruent","ratio_trial":200,"L_num":7,"L_den":15,"R_num":6,"R_den":9,"correct_side":2,"subjID":"AlissonCamilaMalpicaMunoz14","gender":"1","school":"6","age":"11"},{"start_time":1551794130439,"click_time":1551794131535,"finger_time":1551794130933,"fix_duration":744.9050586194303,"trial":42,"RT":494,"MT":602,"sideResp":2,"stimulus":[],"xmouse":[769,769,769,769,769,769,769,769,769,769,769,769,769,769,769,769,769,769,769,769,769,771,776,804,836,868,898,914,946,970,984,989,992,1009,1016,1022,1024,1025,1028,1030,1032,1033,1033,1033,1033,1033,1036,1040,1046,1049,1051,1054,1055,1057,1068],"ymouse":[481,481,481,481,481,481,481,481,481,481,481,481,481,481,481,481,481,481,481,481,481,478,473,451,426,393,353,324,258,215,191,178,165,118,105,95,92,90,85,83,82,81,81,81,81,81,81,81,82,83,83,83,83,83,80],"timestamp_mouse":[15,44,54,76,95,114,135,155,175,196,214,235,255,275,296,314,335,356,375,395,414,435,455,475,494,515,535,555,575,595,616,635,656,676,695,715,735,755,775,795,815,835,854,876,896,915,936,955,976,994,1016,1035,1056,1074,1096],"xSR":741.5,"ySR":449.15000000000003,"xT1":424.9,"yT1":0,"xT2":1058.1,"yT2":0,"toosoon":0,"cond_shown":"Congruent","ratio_trial":200,"L_num":4,"L_den":8,"R_num":3,"R_den":10,"correct_side":1,"subjID":"AlissonCamilaMalpicaMunoz14","gender":"1","school":"6","age":"11"},{"start_time":1551794134882,"click_time":1551794135754,"finger_time":1551794135294,"fix_duration":1006.5987533550964,"trial":43,"RT":412,"MT":460,"sideResp":2,"stimulus":[],"xmouse":[803,802,801,801,801,801,801,801,801,801,801,801,801,801,801,801,801,809,821,836,852,882,906,930,956,972,997,1004,1009,1018,1024,1032,1040,1045,1052,1059,1066,1076,1077,1078,1080,1085,1092,1098],"ymouse":[477,481,483,483,483,483,483,483,483,483,483,483,483,483,483,483,484,475,463,450,433,397,366,337,305,283,253,246,239,229,222,212,198,187,174,162,150,136,133,131,127,115,103,94],"timestamp_mouse":[13,35,53,72,91,112,131,152,172,191,212,232,253,272,292,313,331,352,372,392,412,432,451,472,493,512,533,551,572,593,613,632,653,671,691,712,733,752,772,792,812,832,852,872],"xSR":741.5,"ySR":449.15000000000003,"xT1":424.9,"yT1":0,"xT2":1058.1,"yT2":0,"toosoon":0,"cond_shown":"Incongruent","ratio_trial":300,"L_num":7,"L_den":10,"R_num":8,"R_den":20,"correct_side":1,"subjID":"AlissonCamilaMalpicaMunoz14","gender":"1","school":"6","age":"11"},{"start_time":1551794140027,"click_time":1551794141614,"finger_time":1551794141274,"fix_duration":1310.8290385294226,"trial":44,"RT":1247,"MT":340,"sideResp":2,"stimulus":[],"xmouse":[783,783,783,783,783,783,783,783,783,783,783,783,783,783,783,783,783,783,783,783,783,783,783,783,783,783,783,783,783,783,783,783,783,783,783,783,783,783,783,783,783,783,783,783,783,783,783,783,783,783,783,783,783,783,783,784,785,786,788,800,810,822,841,865,943,972,999,1023,1047,1082,1096,1105,1113,1121,1138,1138,1137,1136,1135,1135],"ymouse":[507,507,507,507,507,507,507,507,507,507,507,507,507,507,507,507,507,507,507,507,507,507,507,507,507,507,507,507,507,507,507,507,507,507,507,507,507,507,507,507,507,507,507,507,507,507,507,507,507,507,507,507,507,507,507,507,503,501,496,478,469,459,446,425,360,338,317,296,276,246,234,220,209,195,137,123,112,105,101,97],"timestamp_mouse":[13,34,47,68,88,108,128,148,167,187,207,226,247,267,288,308,326,347,368,388,408,427,448,468,487,508,528,548,566,586,608,628,648,668,687,708,726,748,768,787,808,828,847,868,888,908,926,947,967,987,1007,1028,1048,1067,1086,1107,1127,1148,1168,1187,1207,1228,1247,1267,1288,1307,1327,1348,1368,1387,1406,1427,1446,1467,1488,1506,1527,1547,1567,1587],"xSR":741.5,"ySR":449.15000000000003,"xT1":424.9,"yT1":0,"xT2":1058.1,"yT2":0,"toosoon":0,"cond_shown":"Congruent","ratio_trial":200,"L_num":3,"L_den":6,"R_num":14,"R_den":20,"correct_side":2,"subjID":"AlissonCamilaMalpicaMunoz14","gender":"1","school":"6","age":"11"},{"start_time":1551794143940,"click_time":1551794145494,"finger_time":1551794145055,"fix_duration":1345.5560803808864,"trial":45,"RT":1115,"MT":439,"sideResp":1,"stimulus":[],"xmouse":[782,782,782,782,782,782,782,782,782,782,782,782,782,782,782,782,782,782,782,782,782,782,782,782,782,782,782,782,782,782,782,782,782,782,782,782,782,782,782,782,782,782,782,782,782,782,782,782,782,782,782,782,782,781,775,763,745,722,685,661,646,631,619,598,588,578,569,561,552,550,549,547,545,543,533,529,525,524],"ymouse":[468,468,468,468,468,468,468,468,468,468,468,468,468,468,468,468,468,468,468,468,468,468,468,468,468,468,468,468,468,468,468,468,468,468,468,468,468,468,468,468,468,468,468,468,468,468,468,468,468,468,468,468,468,468,453,433,408,377,327,298,278,260,246,224,212,199,189,178,165,159,154,146,134,114,75,66,60,58],"timestamp_mouse":[14,41,55,74,94,114,134,155,173,195,214,234,254,275,295,314,333,354,374,395,413,433,454,473,495,514,533,554,574,593,614,633,654,675,694,715,734,754,774,794,814,834,854,874,895,914,934,955,975,994,1014,1034,1054,1074,1094,1115,1134,1155,1175,1193,1214,1234,1255,1274,1294,1313,1335,1354,1374,1393,1414,1434,1454,1474,1494,1514,1534,1554],"xSR":741.5,"ySR":449.15000000000003,"xT1":424.9,"yT1":0,"xT2":1058.1,"yT2":0,"toosoon":0,"cond_shown":"Incongruent","ratio_trial":100,"L_num":11,"L_den":22,"R_num":9,"R_den":15,"correct_side":2,"subjID":"AlissonCamilaMalpicaMunoz14","gender":"1","school":"6","age":"11"},{"start_time":1551794147419,"click_time":1551794149414,"finger_time":1551794148934,"fix_duration":984.7481078538237,"trial":46,"RT":1515,"MT":480,"sideResp":2,"stimulus":[],"xmouse":[797,797,797,797,797,797,797,798,798,798,798,798,798,798,798,798,798,798,798,798,798,798,798,798,798,798,798,798,798,798,798,798,798,798,798,798,798,798,798,798,798,798,798,798,798,798,798,798,798,801,801,801,801,801,801,801,801,801,801,801,801,801,801,801,801,801,801,801,802,805,808,811,813,816,827,849,866,896,924,942,974,994,1017,1043,1075,1087,1094,1106,1116,1124,1126,1127,1127,1127,1127,1127,1126,1116,1108,1097],"ymouse":[505,505,505,505,505,505,505,505,505,504,504,504,504,504,504,504,504,504,504,504,504,504,504,504,504,504,504,504,504,504,504,504,504,504,504,504,504,504,504,504,504,504,504,504,504,504,504,504,503,500,500,500,500,500,500,500,500,500,500,500,500,500,500,500,500,500,500,500,499,496,494,492,491,489,481,461,440,403,370,350,317,293,266,239,210,198,189,175,162,145,140,134,131,129,128,128,123,111,100,86],"timestamp_mouse":[15,36,54,74,95,116,136,156,175,195,215,235,255,275,295,316,335,355,376,394,415,436,456,475,496,515,535,556,574,595,615,636,656,674,695,716,734,755,776,794,815,836,855,876,895,916,935,956,975,995,1016,1034,1054,1076,1096,1116,1135,1154,1176,1195,1216,1236,1256,1276,1296,1316,1336,1355,1374,1395,1415,1435,1456,1475,1495,1515,1534,1554,1575,1595,1614,1635,1655,1676,1696,1715,1735,1756,1776,1795,1815,1836,1856,1876,1896,1915,1934,1956,1976,1995],"xSR":741.5,"ySR":449.15000000000003,"xT1":424.9,"yT1":0,"xT2":1058.1,"yT2":0,"toosoon":0,"cond_shown":"Incongruent","ratio_trial":100,"L_num":8,"L_den":16,"R_num":6,"R_den":10,"correct_side":2,"subjID":"AlissonCamilaMalpicaMunoz14","gender":"1","school":"6","age":"11"},{"start_time":1551794153099,"click_time":1551794154274,"finger_time":1551794153735,"fix_duration":923.7362922697337,"trial":47,"RT":636,"MT":539,"sideResp":1,"stimulus":[],"xmouse":[791,791,791,791,791,791,791,791,791,791,791,791,791,791,792,792,792,792,792,792,792,792,792,792,792,792,792,796,806,819,849,861,869,868,850,845,844,842,835,823,744,700,675,660,647,626,613,604,604,604,604,604,604,604,604,604,604,477],"ymouse":[496,496,496,496,496,496,496,496,496,496,496,496,496,496,495,495,495,495,495,495,495,495,495,495,495,495,495,493,484,472,428,398,370,345,322,321,320,319,312,296,153,95,68,51,34,17,7,3,3,3,3,3,3,3,3,3,3,23],"timestamp_mouse":[37,55,75,95,114,136,155,175,195,216,236,255,276,294,316,336,355,375,395,415,434,455,475,495,516,536,554,575,596,615,636,656,675,695,716,735,755,776,795,815,834,854,875,894,914,934,955,975,995,1015,1035,1055,1076,1096,1115,1136,1155,1175],"xSR":741.5,"ySR":449.15000000000003,"xT1":424.9,"yT1":0,"xT2":1058.1,"yT2":0,"toosoon":0,"cond_shown":"Congruent","ratio_trial":100,"L_num":1,"L_den":2,"R_num":18,"R_den":30,"correct_side":2,"subjID":"AlissonCamilaMalpicaMunoz14","gender":"1","school":"6","age":"11"},{"start_time":1551794156825,"click_time":1551794160975,"finger_time":1551794160614,"fix_duration":1150.1349193088083,"trial":48,"RT":3789,"MT":361,"sideResp":2,"stimulus":[],"xmouse":[798,798,798,798,798,798,798,798,798,798,798,798,798,798,798,798,798,798,798,798,798,798,798,798,798,798,798,798,798,798,798,798,798,798,798,798,798,798,798,798,798,798,798,798,798,798,798,798,798,798,798,798,798,798,798,798,798,798,798,798,798,798,798,798,798,798,798,798,798,798,798,798,798,798,798,798,798,798,798,798,798,798,798,798,798,798,798,798,798,798,798,798,798,798,798,798,798,798,798,798,798,798,798,798,798,798,798,798,798,798,798,798,798,798,798,798,798,798,798,798,798,798,798,798,798,798,798,798,798,798,798,798,798,798,798,798,798,798,798,798,798,798,798,798,798,798,798,798,798,798,798,798,798,798,798,798,798,798,798,798,798,798,798,798,798,798,798,798,798,798,798,798,798,798,798,798,798,798,798,798,798,798,798,798,799,805,807,810,815,831,842,859,885,910,946,958,968,976,979,985,989,996,1004,1019,1031,1034,1040,1059],"ymouse":[479,479,479,479,479,479,479,479,479,479,479,479,479,479,479,479,479,479,479,479,479,479,479,479,479,479,479,479,479,479,479,479,479,479,479,479,479,479,479,479,479,479,479,479,479,479,479,479,479,479,479,479,479,479,479,479,479,479,479,479,479,479,479,479,479,479,479,479,479,479,479,479,479,479,479,479,479,479,479,479,479,479,479,479,479,479,479,479,479,479,479,479,479,479,479,479,479,479,479,479,479,479,479,479,479,479,479,479,479,479,479,479,479,479,479,479,479,479,479,479,479,479,479,479,479,479,479,479,479,479,479,479,479,479,479,479,479,479,479,479,479,479,479,479,479,479,479,479,479,479,479,479,479,479,479,479,479,479,479,479,479,479,479,479,479,479,479,479,479,479,479,479,479,479,479,479,479,479,479,479,479,479,479,479,478,464,460,456,451,426,403,366,321,285,236,224,210,199,194,177,167,155,143,121,102,97,89,78],"timestamp_mouse":[11,38,49,69,89,110,129,149,170,190,210,229,250,270,290,310,329,349,370,390,408,430,450,469,490,508,529,549,569,589,610,628,648,669,689,709,729,750,768,790,809,829,850,870,889,910,930,950,970,990,1009,1029,1050,1069,1089,1110,1130,1150,1169,1190,1210,1229,1250,1270,1290,1308,1328,1348,1370,1389,1409,1430,1449,1469,1490,1510,1529,1550,1569,1589,1609,1630,1649,1669,1689,1710,1730,1749,1768,1789,1810,1829,1849,1870,1889,1909,1929,1950,1970,1990,2009,2029,2048,2069,2089,2110,2130,2150,2169,2190,2209,2229,2248,2269,2289,2309,2329,2350,2370,2389,2409,2429,2449,2470,2488,2509,2529,2548,2570,2589,2608,2630,2649,2670,2690,2710,2728,2750,2770,2789,2809,2830,2849,2869,2890,2910,2930,2950,2969,2989,3009,3029,3050,3070,3088,3110,3129,3150,3169,3189,3210,3230,3249,3270,3289,3310,3330,3349,3370,3389,3410,3430,3449,3470,3489,3509,3530,3550,3569,3590,3610,3629,3650,3669,3689,3709,3729,3749,3769,3789,3809,3829,3850,3870,3890,3909,3930,3949,3970,3989,4008,4030,4050,4070,4089,4109,4130,4150],"xSR":741.5,"ySR":449.15000000000003,"xT1":424.9,"yT1":0,"xT2":1058.1,"yT2":0,"toosoon":0,"cond_shown":"Congruent","ratio_trial":200,"L_num":14,"L_den":28,"R_num":6,"R_den":20,"correct_side":1,"subjID":"AlissonCamilaMalpicaMunoz14","gender":"1","school":"6","age":"11"},{"start_time":1551794162743,"click_time":1551794163734,"finger_time":1551794163193,"fix_duration":608.9256838922279,"trial":49,"RT":450,"MT":541,"sideResp":1,"stimulus":[],"xmouse":[815,815,815,815,815,813,811,810,806,802,801,800,800,800,799,798,796,794,793,784,777,769,761,754,724,705,690,677,659,622,601,579,554,532,532,532,532,532,532,532,532,532,532,532,532,532,532,532,532,490],"ymouse":[502,502,501,501,500,499,499,499,498,497,497,497,497,497,497,496,494,490,489,472,461,451,440,430,399,379,359,338,304,235,179,118,64,9,9,9,9,9,9,9,9,9,9,9,9,9,9,9,9,12],"timestamp_mouse":[11,30,61,71,91,112,131,151,171,191,211,231,251,271,291,310,331,350,372,391,411,432,450,472,491,511,531,551,571,591,611,631,650,672,690,712,731,751,771,792,811,831,852,871,891,911,931,950,970,990],"xSR":741.5,"ySR":449.15000000000003,"xT1":424.9,"yT1":0,"xT2":1058.1,"yT2":0,"toosoon":0,"cond_shown":"Congruent","ratio_trial":300,"L_num":7,"L_den":14,"R_num":20,"R_den":25,"correct_side":2,"subjID":"AlissonCamilaMalpicaMunoz14","gender":"1","school":"6","age":"11"},{"start_time":1551794165246,"click_time":1551794165754,"finger_time":1551794165535,"fix_duration":250,"trial":50,"RT":289,"MT":219,"sideResp":2,"stimulus":[],"xmouse":[790,790,790,790,790,790,790,790,790,790,792,794,801,832,874,902,931,955,996,1013,1028,1041,1052,1089,1115,1153],"ymouse":[514,514,514,514,514,514,514,514,514,514,512,510,502,459,401,362,321,287,235,215,199,188,178,149,127,93],"timestamp_mouse":[8,29,48,68,88,107,129,148,168,188,208,228,248,268,289,308,328,349,369,388,409,428,449,469,489,508],"xSR":741.5,"ySR":449.15000000000003,"xT1":424.9,"yT1":0,"xT2":1058.1,"yT2":0,"toosoon":0,"cond_shown":"Congruent","ratio_trial":300,"L_num":1,"L_den":5,"R_num":3,"R_den":6,"correct_side":2,"subjID":"AlissonCamilaMalpicaMunoz14","gender":"1","school":"6","age":"11"},{"start_time":1551794170463,"click_time":1551794171614,"finger_time":1551794171014,"fix_duration":1108.2643907011973,"trial":51,"RT":551,"MT":600,"sideResp":1,"stimulus":[],"xmouse":[762,762,762,762,762,762,762,762,762,762,762,762,762,762,760,758,756,755,755,755,755,755,755,754,754,753,752,738,720,694,671,646,614,595,584,578,572,571,568,567,567,567,567,567,567,567,567,564,561,556,550,545,537,535,533,531,528,523],"ymouse":[509,509,509,509,509,509,509,509,509,509,509,509,509,509,509,509,509,509,509,509,509,509,509,509,509,507,501,435,377,328,290,255,209,177,155,138,123,113,93,90,89,88,88,88,88,88,88,86,85,84,82,80,76,75,75,74,73,73],"timestamp_mouse":[12,35,51,71,91,112,131,152,171,192,212,232,251,272,291,310,331,352,371,392,410,431,451,471,492,511,531,551,570,592,611,631,652,671,691,712,731,750,771,791,812,831,852,871,892,911,931,951,970,991,1011,1031,1051,1070,1091,1112,1131,1151],"xSR":741.5,"ySR":449.15000000000003,"xT1":424.9,"yT1":0,"xT2":1058.1,"yT2":0,"toosoon":0,"cond_shown":"Incongruent","ratio_trial":300,"L_num":8,"L_den":10,"R_num":14,"R_den":28,"correct_side":1,"subjID":"AlissonCamilaMalpicaMunoz14","gender":"1","school":"6","age":"11"},{"start_time":1551794174289,"click_time":1551794175634,"finger_time":1551794174733,"fix_duration":1333.420219604609,"trial":52,"RT":444,"MT":901,"sideResp":1,"stimulus":[],"xmouse":[809,809,809,809,809,809,807,804,799,796,794,793,793,792,792,792,791,791,790,790,790,790,789,785,774,756,718,701,685,670,656,621,612,608,605,603,602,600,597,594,589,581,578,576,574,571,568,556,546,538,528,517,514,513,513,513,513,513,513,513,513,513,513,513,512,510,508,504],"ymouse":[485,485,485,485,485,485,484,480,474,471,469,468,467,465,462,460,456,452,451,451,451,451,449,447,442,435,417,405,391,372,346,279,258,242,230,221,215,202,192,183,173,162,158,157,156,153,150,139,132,123,118,109,107,107,107,107,106,106,106,106,106,106,106,106,106,103,101,95],"timestamp_mouse":[8,26,46,64,86,105,125,145,165,185,204,226,245,265,285,304,325,345,365,385,405,425,444,464,486,505,525,545,565,585,605,626,645,665,684,706,724,745,766,785,804,825,845,865,885,904,925,944,965,985,1005,1026,1044,1066,1085,1106,1125,1146,1166,1184,1205,1226,1245,1266,1286,1305,1324,1344],"xSR":741.5,"ySR":449.15000000000003,"xT1":424.9,"yT1":0,"xT2":1058.1,"yT2":0,"toosoon":0,"cond_shown":"Incongruent","ratio_trial":300,"L_num":8,"L_den":10,"R_num":14,"R_den":28,"correct_side":1,"subjID":"AlissonCamilaMalpicaMunoz14","gender":"1","school":"6","age":"11"},{"start_time":1551794178468,"click_time":1551794187654,"finger_time":1551794187295,"fix_duration":252.45107559628588,"trial":53,"RT":8827,"MT":359,"sideResp":2,"stimulus":[],"xmouse":[809,809,809,809,809,809,809,809,809,809,809,809,809,809,809,809,809,809,809,809,809,809,809,809,809,809,809,809,809,809,809,809,809,809,809,809,809,809,809,809,809,809,809,809,809,809,809,809,809,809,809,809,809,809,809,809,809,809,809,809,809,809,809,809,809,809,809,809,809,809,809,809,809,809,809,809,809,809,809,809,809,809,809,809,809,809,809,809,809,809,809,809,809,809,809,809,809,809,809,809,809,809,809,809,809,809,809,809,809,809,809,809,809,809,809,809,809,809,809,809,809,809,809,809,809,809,809,809,809,809,809,809,809,809,809,809,809,809,809,809,809,809,809,809,809,809,809,809,809,809,809,809,809,809,809,809,809,809,809,809,809,809,809,809,809,809,809,809,809,809,809,809,809,809,809,809,809,806,802,800,800,800,800,800,800,800,800,800,800,800,800,799,798,797,797,797,796,795,795,795,795,795,795,795,795,795,795,795,795,795,795,795,795,795,795,795,795,795,795,795,795,795,795,795,793,792,792,791,791,791,791,791,791,791,791,791,791,7