[{"start_time":1551887543026,"click_time":1551887544260,"finger_time":1551887543899,"fix_duration":1381.4083571517074,"trial":0,"RT":873,"MT":361,"sideResp":1,"stimulus":"img/500/equaldotanddens/L/4_Ratio_500_L_18_R_9.png","xmouse":[790,790,790,790,790,790,790,790,790,790,790,790,790,790,790,790,790,790,790,790,790,790,790,790,790,790,790,790,790,790,790,790,790,790,790,790,790,790,790,790,790,784,767,736,712,687,647,628,615,605,600,592,585,577,569,563,557,557,554,549,541,523],"ymouse":[535,535,535,535,535,535,535,535,535,535,535,535,535,535,535,535,535,535,535,535,535,535,535,535,535,535,535,535,535,535,535,535,535,535,535,535,535,535,535,535,533,523,489,429,370,311,228,192,168,150,137,111,99,87,78,73,70,70,70,70,70,70],"timestamp_mouse":[14,34,54,75,94,114,134,154,175,193,213,235,255,274,293,313,334,354,373,394,414,434,454,474,495,514,533,554,573,594,614,633,653,675,694,713,733,755,774,793,814,834,853,873,894,914,933,955,974,995,1014,1033,1054,1073,1093,1115,1134,1154,1174,1193,1213,1234],"xSR":741.5,"ySR":469.95,"xT1":424.9,"yT1":0,"xT2":1058.1,"yT2":0,"toosoon":0,"cond_shown":"equaldotanddens","ratio_trial":500,"smaller_num":"9","larger_num":"18","correct_side":1,"subjID":"IsabellaPabónDíaz8","gender":"1","age":"11","school":"2019","test":{"fix_dur":[250,1500],"timestim":300,"targets_dim":[100,100],"targets_relative_coord":[0.3,0.7],"size_stim":[880,420],"start_dim":[100,100],"size_start":[300,300],"size_fix":60,"samplingrate":20,"img_types":["equaldotsize","equaldotanddens","randomdotsizeEA"],"ratios":[250,500,750,900],"rep_conds":9,"nTrials":120,"trials_to_rest":500,"Trials_order":[76,72,91,11,115,47,78,57,53,56,34,43,16,25,118,87,40,12,24,14,85,107,80,37,86,92,48,114,95,102,26,17,50,65,96,60,30,94,54,99,21,81,36,9,23,32,93,106,13,100,55,71,104,117,58,3,66,103,15,111,0,119,62,69,70,61,51,4,90,89,110,108,113,33,116,88,41,97,84,2,63,29,42,59,46,20,105,44,45,49,10,6,27,68,52,109,82,7,22,101,19,73,28,112,39,98,18,31,77,67,74,38,8,5,1,79,75,35,83,64],"cond_shown":["equaldotanddens","equaldotsize","equaldotanddens","randomdotsizeEA","equaldotanddens","randomdotsizeEA","equaldotsize","equaldotsize","randomdotsizeEA","randomdotsizeEA","equaldotanddens","equaldotanddens","equaldotanddens","equaldotanddens","equaldotanddens","equaldotsize","equaldotanddens","equaldotsize","equaldotsize","randomdotsizeEA","equaldotanddens","randomdotsizeEA","randomdotsizeEA","equaldotanddens","randomdotsizeEA","randomdotsizeEA","equaldotsize","equaldotsize","randomdotsizeEA","equaldotsize","randomdotsizeEA","randomdotsizeEA","randomdotsizeEA","randomdotsizeEA","equaldotsize","equaldotsize","equaldotsize","equaldotanddens","equaldotsize","equaldotsize","equaldotsize","equaldotsize","equaldotsize","equaldotsize","randomdotsizeEA","randomdotsizeEA","equaldotsize","equaldotanddens","equaldotanddens","equaldotanddens","equaldotanddens","randomdotsizeEA","randomdotsizeEA","equaldotsize","equaldotanddens","equaldotsize","equaldotsize","equaldotanddens","equaldotsize","equaldotsize","equaldotsize","randomdotsizeEA","randomdotsizeEA","equaldotsize","equaldotanddens","equaldotanddens","equaldotsize","equaldotanddens","equaldotsize","randomdotsizeEA","randomdotsizeEA","equaldotsize","randomdotsizeEA","equaldotsize","randomdotsizeEA","equaldotanddens","randomdotsizeEA","equaldotanddens","equaldotsize","randomdotsizeEA","equaldotsize","randomdotsizeEA","equaldotsize","randomdotsizeEA","equaldotanddens","randomdotsizeEA","equaldotsize","randomdotsizeEA","equaldotsize","equaldotanddens","equaldotanddens","equaldotsize","equaldotsize","randomdotsizeEA","equaldotanddens","equaldotanddens","equaldotanddens","equaldotanddens","equaldotanddens","randomdotsizeEA","equaldotanddens","equaldotanddens","equaldotanddens","equaldotanddens","equaldotsize","randomdotsizeEA","equaldotsize","equaldotanddens","randomdotsizeEA","equaldotanddens","randomdotsizeEA","randomdotsizeEA","randomdotsizeEA","randomdotsizeEA","equaldotanddens","equaldotanddens","equaldotsize","randomdotsizeEA","randomdotsizeEA","equaldotanddens"],"ratio_trial":[500,250,750,900,750,900,750,900,500,750,900,750,500,250,900,500,500,250,250,250,250,900,750,250,250,750,250,750,900,750,250,500,250,500,250,250,750,900,750,500,900,900,250,900,900,750,900,900,250,500,750,900,750,900,900,500,750,750,500,500,250,900,250,900,900,250,500,500,750,500,250,250,500,900,750,500,500,250,250,250,500,500,750,900,900,750,900,750,900,250,900,750,500,750,500,250,900,750,900,500,750,250,500,500,500,250,750,750,500,750,250,250,750,500,250,750,500,900,900,500],"smaller_num":["9","2","6","9","3","18","15","9","2","3","18","6","2","3","18","1","2","4","4","2","2","9","3","3","2","12","6","15","18","12","2","9","5","9","2","3","9","18","9","2","9","9","3","18","18","3","9","18","3","9","3","9","6","9","18","6","15","15","4","2","3","18","3","18","9","1","4","4","3","10","6","3","2","18","6","5","4","4","2","3","9","1","3","18","18","3","18","9","18","4","18","6","4","18","6","3","9","3","18","3","6","2","2","3","4","4","15","3","2","3","2","2","12","9","2","3","4","18","9","4"],"larger_num":["18","8","8","10","4","20","20","10","4","4","20","8","4","12","20","2","4","16","16","8","8","10","4","12","8","16","24","20","20","16","8","18","20","18","8","12","12","20","12","4","10","10","12","20","20","4","10","20","12","18","4","10","8","10","20","12","20","20","8","4","12","20","12","20","10","4","8","8","4","20","24","12","4","20","8","10","8","16","8","12","18","2","4","20","20","4","20","12","20","16","20","8","8","24","12","12","10","4","20","6","8","8","4","6","8","16","20","4","4","4","8","8","16","18","8","4","8","20","10","8"],"correct_side":[1,1,1,2,1,2,2,2,1,1,2,1,1,2,2,2,2,2,1,1,1,2,1,1,1,2,2,2,1,2,2,2,2,2,2,2,2,1,2,2,2,1,2,2,1,2,1,1,2,1,1,2,1,2,1,1,1,2,1,1,1,1,1,1,1,2,1,1,1,2,1,2,1,1,1,1,1,1,1,2,1,2,1,2,2,2,1,2,1,1,2,1,1,1,1,1,2,1,1,2,2,1,1,2,1,1,1,1,1,1,1,1,2,2,1,1,1,2,1,1],"img_shown":["img/500/equaldotanddens/L/4_Ratio_500_L_18_R_9.png","img/250/equaldotsize/L/1_Ratio_250_L_8_R_2.png","img/750/equaldotanddens/L/14_Ratio_750_L_8_R_6.png","img/900/randomdotsizeEA/R/7_Ratio_900_L_9_R_10.png","img/750/equaldotanddens/L/10_Ratio_750_L_4_R_3.png","img/900/randomdotsizeEA/R/9_Ratio_900_L_18_R_20.png","img/750/equaldotsize/R/4_Ratio_750_L_15_R_20.png","img/900/equaldotsize/R/6_Ratio_900_L_9_R_10.png","img/500/randomdotsizeEA/L/10_Ratio_500_L_4_R_2.png","img/750/randomdotsizeEA/L/9_Ratio_750_L_4_R_3.png","img/900/equaldotanddens/R/14_Ratio_900_L_18_R_20.png","img/750/equaldotanddens/L/14_Ratio_750_L_8_R_6.png","img/500/equaldotanddens/L/10_Ratio_500_L_4_R_2.png","img/250/equaldotanddens/R/9_Ratio_250_L_3_R_12.png","img/900/equaldotanddens/R/9_Ratio_900_L_18_R_20.png","img/500/equaldotsize/R/15_Ratio_500_L_1_R_2.png","img/500/equaldotanddens/R/9_Ratio_500_L_2_R_4.png","img/250/equaldotsize/R/10_Ratio_250_L_4_R_16.png","img/250/equaldotsize/L/2_Ratio_250_L_16_R_4.png","img/250/randomdotsizeEA/L/7_Ratio_250_L_8_R_2.png","img/250/equaldotanddens/L/3_Ratio_250_L_8_R_2.png","img/900/randomdotsizeEA/R/5_Ratio_900_L_9_R_10.png","img/750/randomdotsizeEA/L/10_Ratio_750_L_4_R_3.png","img/250/equaldotanddens/L/14_Ratio_250_L_12_R_3.png","img/250/randomdotsizeEA/L/3_Ratio_250_L_8_R_2.png","img/750/randomdotsizeEA/R/11_Ratio_750_L_12_R_16.png","img/250/equaldotsize/R/6_Ratio_250_L_6_R_24.png","img/750/equaldotsize/R/3_Ratio_750_L_15_R_20.png","img/900/randomdotsizeEA/L/2_Ratio_900_L_20_R_18.png","img/750/equaldotsize/R/11_Ratio_750_L_12_R_16.png","img/250/randomdotsizeEA/R/13_Ratio_250_L_2_R_8.png","img/500/randomdotsizeEA/R/6_Ratio_500_L_9_R_18.png","img/250/randomdotsizeEA/R/12_Ratio_250_L_5_R_20.png","img/500/randomdotsizeEA/R/6_Ratio_500_L_9_R_18.png","img/250/equaldotsize/R/13_Ratio_250_L_2_R_8.png","img/250/equaldotsize/R/4_Ratio_250_L_3_R_12.png","img/750/equaldotsize/R/15_Ratio_750_L_9_R_12.png","img/900/equaldotanddens/L/2_Ratio_900_L_20_R_18.png","img/750/equaldotsize/R/15_Ratio_750_L_9_R_12.png","img/500/equaldotsize/R/9_Ratio_500_L_2_R_4.png","img/900/equaldotsize/R/3_Ratio_900_L_9_R_10.png","img/900/equaldotsize/L/1_Ratio_900_L_10_R_9.png","img/250/equaldotsize/R/11_Ratio_250_L_3_R_12.png","img/900/equaldotsize/R/12_Ratio_900_L_18_R_20.png","img/900/randomdotsizeEA/L/8_Ratio_900_L_20_R_18.png","img/750/randomdotsizeEA/R/12_Ratio_750_L_3_R_4.png","img/900/equaldotsize/L/1_Ratio_900_L_10_R_9.png","img/900/equaldotanddens/L/10_Ratio_900_L_20_R_18.png","img/250/equaldotanddens/R/9_Ratio_250_L_3_R_12.png","img/500/equaldotanddens/L/4_Ratio_500_L_18_R_9.png","img/750/equaldotanddens/L/8_Ratio_750_L_4_R_3.png","img/900/randomdotsizeEA/R/7_Ratio_900_L_9_R_10.png","img/750/randomdotsizeEA/L/14_Ratio_750_L_8_R_6.png","img/900/equaldotsize/R/6_Ratio_900_L_9_R_10.png","img/900/equaldotanddens/L/4_Ratio_900_L_20_R_18.png","img/500/equaldotsize/L/13_Ratio_500_L_12_R_6.png","img/750/equaldotsize/L/1_Ratio_750_L_20_R_15.png","img/750/equaldotanddens/R/3_Ratio_750_L_15_R_20.png","img/500/equaldotsize/L/8_Ratio_500_L_8_R_4.png","img/500/equaldotsize/L/5_Ratio_500_L_4_R_2.png","img/250/equaldotsize/L/15_Ratio_250_L_12_R_3.png","img/900/randomdotsizeEA/L/2_Ratio_900_L_20_R_18.png","img/250/randomdotsizeEA/L/14_Ratio_250_L_12_R_3.png","img/900/equaldotsize/L/4_Ratio_900_L_20_R_18.png","img/900/equaldotanddens/L/1_Ratio_900_L_10_R_9.png","img/250/equaldotanddens/R/8_Ratio_250_L_1_R_4.png","img/500/equaldotsize/L/8_Ratio_500_L_8_R_4.png","img/500/equaldotanddens/L/8_Ratio_500_L_8_R_4.png","img/750/equaldotsize/L/10_Ratio_750_L_4_R_3.png","img/500/randomdotsizeEA/R/3_Ratio_500_L_10_R_20.png","img/250/randomdotsizeEA/L/5_Ratio_250_L_24_R_6.png","img/250/equaldotsize/R/9_Ratio_250_L_3_R_12.png","img/500/randomdotsizeEA/L/5_Ratio_500_L_4_R_2.png","img/900/equaldotsize/L/10_Ratio_900_L_20_R_18.png","img/750/randomdotsizeEA/L/13_Ratio_750_L_8_R_6.png","img/500/equaldotanddens/L/7_Ratio_500_L_10_R_5.png","img/500/randomdotsizeEA/L/8_Ratio_500_L_8_R_4.png","img/250/equaldotanddens/L/2_Ratio_250_L_16_R_4.png","img/250/equaldotsize/L/3_Ratio_250_L_8_R_2.png","img/250/randomdotsizeEA/R/4_Ratio_250_L_3_R_12.png","img/500/equaldotsize/L/4_Ratio_500_L_18_R_9.png","img/500/randomdotsizeEA/R/12_Ratio_500_L_1_R_2.png","img/750/equaldotsize/L/9_Ratio_750_L_4_R_3.png","img/900/randomdotsizeEA/R/11_Ratio_900_L_18_R_20.png","img/900/equaldotanddens/R/13_Ratio_900_L_18_R_20.png","img/750/randomdotsizeEA/R/7_Ratio_750_L_3_R_4.png","img/900/equaldotsize/L/8_Ratio_900_L_20_R_18.png","img/750/randomdotsizeEA/R/15_Ratio_750_L_9_R_12.png","img/900/equaldotsize/L/10_Ratio_900_L_20_R_18.png","img/250/equaldotanddens/L/2_Ratio_250_L_16_R_4.png","img/900/equaldotanddens/R/14_Ratio_900_L_18_R_20.png","img/750/equaldotsize/L/13_Ratio_750_L_8_R_6.png","img/500/equaldotsize/L/8_Ratio_500_L_8_R_4.png","img/750/randomdotsizeEA/L/6_Ratio_750_L_24_R_18.png","img/500/equaldotanddens/L/11_Ratio_500_L_12_R_6.png","img/250/equaldotanddens/L/15_Ratio_250_L_12_R_3.png","img/900/equaldotanddens/R/15_Ratio_900_L_9_R_10.png","img/750/equaldotanddens/L/8_Ratio_750_L_4_R_3.png","img/900/equaldotanddens/L/4_Ratio_900_L_20_R_18.png","img/500/randomdotsizeEA/R/2_Ratio_500_L_3_R_6.png","img/750/equaldotanddens/R/2_Ratio_750_L_6_R_8.png","img/250/equaldotanddens/L/1_Ratio_250_L_8_R_2.png","img/500/equaldotanddens/L/10_Ratio_500_L_4_R_2.png","img/500/equaldotanddens/R/2_Ratio_500_L_3_R_6.png","img/500/equaldotsize/L/8_Ratio_500_L_8_R_4.png","img/250/randomdotsizeEA/L/2_Ratio_250_L_16_R_4.png","img/750/equaldotsize/L/1_Ratio_750_L_20_R_15.png","img/750/equaldotanddens/L/10_Ratio_750_L_4_R_3.png","img/500/randomdotsizeEA/L/10_Ratio_500_L_4_R_2.png","img/750/equaldotanddens/L/8_Ratio_750_L_4_R_3.png","img/250/randomdotsizeEA/L/1_Ratio_250_L_8_R_2.png","img/250/randomdotsizeEA/L/3_Ratio_250_L_8_R_2.png","img/750/randomdotsizeEA/R/11_Ratio_750_L_12_R_16.png","img/500/randomdotsizeEA/R/6_Ratio_500_L_9_R_18.png","img/250/equaldotanddens/L/7_Ratio_250_L_8_R_2.png","img/750/equaldotanddens/L/9_Ratio_750_L_4_R_3.png","img/500/equaldotsize/L/8_Ratio_500_L_8_R_4.png","img/900/randomdotsizeEA/R/13_Ratio_900_L_18_R_20.png","img/900/randomdotsizeEA/L/1_Ratio_900_L_10_R_9.png","img/500/equaldotanddens/L/8_Ratio_500_L_8_R_4.png"],"Rat0":[["12_Ratio_0_L_9_R_0.png","13_Ratio_0_L_6_R_0.png","5_Ratio_0_L_2_R_0.png","6_Ratio_0_L_4_R_0.png","8_Ratio_0_L_6_R_0.png"],["1_Ratio_0_L_0_R_17.png","10_Ratio_0_L_0_R_22.png","11_Ratio_0_L_0_R_1.png","14_Ratio_0_L_0_R_24.png","15_Ratio_0_L_0_R_4.png","2_Ratio_0_L_0_R_5.png","3_Ratio_0_L_0_R_17.png","4_Ratio_0_L_0_R_7.png","7_Ratio_0_L_0_R_19.png","9_Ratio_0_L_0_R_15.png"]],"Rat250":[["1_Ratio_250_L_8_R_2.png","14_Ratio_250_L_12_R_3.png","15_Ratio_250_L_12_R_3.png","2_Ratio_250_L_16_R_4.png","3_Ratio_250_L_8_R_2.png","5_Ratio_250_L_24_R_6.png","7_Ratio_250_L_8_R_2.png"],["10_Ratio_250_L_4_R_16.png","11_Ratio_250_L_3_R_12.png","12_Ratio_250_L_5_R_20.png","13_Ratio_250_L_2_R_8.png","4_Ratio_250_L_3_R_12.png","6_Ratio_250_L_6_R_24.png","8_Ratio_250_L_1_R_4.png","9_Ratio_250_L_3_R_12.png"]],"Rat500":[["10_Ratio_500_L_4_R_2.png","11_Ratio_500_L_12_R_6.png","13_Ratio_500_L_12_R_6.png","4_Ratio_500_L_18_R_9.png","5_Ratio_500_L_4_R_2.png","7_Ratio_500_L_10_R_5.png","8_Ratio_500_L_8_R_4.png"],["1_Ratio_500_L_9_R_18.png","12_Ratio_500_L_1_R_2.png","14_Ratio_500_L_5_R_10.png","15_Ratio_500_L_1_R_2.png","2_Ratio_500_L_3_R_6.png","3_Ratio_500_L_10_R_20.png","6_Ratio_500_L_9_R_18.png","9_Ratio_500_L_2_R_4.png"]],"Rat750":[["1_Ratio_750_L_20_R_15.png","10_Ratio_750_L_4_R_3.png","13_Ratio_750_L_8_R_6.png","14_Ratio_750_L_8_R_6.png","6_Ratio_750_L_24_R_18.png","8_Ratio_750_L_4_R_3.png","9_Ratio_750_L_4_R_3.png"],["11_Ratio_750_L_12_R_16.png","12_Ratio_750_L_3_R_4.png","15_Ratio_750_L_9_R_12.png","2_Ratio_750_L_6_R_8.png","3_Ratio_750_L_15_R_20.png","4_Ratio_750_L_15_R_20.png","5_Ratio_750_L_15_R_20.png","7_Ratio_750_L_3_R_4.png"]],"Rat900":[["1_Ratio_900_L_10_R_9.png","10_Ratio_900_L_20_R_18.png","2_Ratio_900_L_20_R_18.png","4_Ratio_900_L_20_R_18.png","8_Ratio_900_L_20_R_18.png"],["11_Ratio_900_L_18_R_20.png","12_Ratio_900_L_18_R_20.png","13_Ratio_900_L_18_R_20.png","14_Ratio_900_L_18_R_20.png","15_Ratio_900_L_9_R_10.png","3_Ratio_900_L_9_R_10.png","5_Ratio_900_L_9_R_10.png","6_Ratio_900_L_9_R_10.png","7_Ratio_900_L_9_R_10.png","9_Ratio_900_L_18_R_20.png"]],"Rat1000":[["10_Ratio_1000_L_16_R_16.png","11_Ratio_1000_L_6_R_6.png","12_Ratio_1000_L_14_R_14.png","13_Ratio_1000_L_20_R_20.png","15_Ratio_1000_L_15_R_15.png","2_Ratio_1000_L_17_R_17.png","4_Ratio_1000_L_9_R_9.png","5_Ratio_1000_L_6_R_6.png","6_Ratio_1000_L_19_R_19.png","8_Ratio_1000_L_14_R_14.png","9_Ratio_1000_L_25_R_25.png"],["1_Ratio_1000_L_1_R_1.png","14_Ratio_1000_L_17_R_17.png","3_Ratio_1000_L_17_R_17.png","7_Ratio_1000_L_6_R_6.png"]]}},{"start_time":1551887547028,"click_time":1551887548200,"finger_time":1551887547799,"fix_duration":1005.888402605588,"trial":1,"RT":771,"MT":401,"sideResp":1,"stimulus":"img/250/equaldotsize/L/1_Ratio_250_L_8_R_2.png","xmouse":[785,785,785,785,785,785,785,785,785,785,785,785,785,785,785,785,785,785,785,785,785,785,785,785,785,785,785,785,785,785,785,785,785,785,786,786,783,767,754,731,709,667,655,649,647,647,645,638,634,629,625,619,607,595,584,566,552,518,501],"ymouse":[521,521,521,521,521,521,521,521,521,521,521,521,521,521,521,521,521,521,521,521,521,521,521,521,521,521,521,521,521,521,521,521,521,521,521,518,512,487,468,438,403,342,326,316,309,308,300,283,276,267,260,251,230,214,199,173,154,113,92],"timestamp_mouse":[12,37,51,72,92,113,132,151,172,191,212,231,252,271,292,312,331,352,371,392,412,431,452,472,492,512,532,551,573,592,613,631,652,671,692,713,731,752,771,793,811,832,851,872,892,912,933,951,972,992,1011,1031,1052,1072,1091,1111,1131,1151,1172],"xSR":741.5,"ySR":469.95,"xT1":424.9,"yT1":0,"xT2":1058.1,"yT2":0,"toosoon":0,"cond_shown":"equaldotsize","ratio_trial":250,"smaller_num":"2","larger_num":"8","correct_side":1,"subjID":"IsabellaPabónDíaz8","gender":"1","age":"11","school":"2019"},{"start_time":1551887549604,"click_time":1551887551040,"finger_time":1551887550579,"fix_duration":283.99165355575826,"trial":2,"RT":975,"MT":461,"sideResp":1,"stimulus":"img/750/equaldotanddens/L/14_Ratio_750_L_8_R_6.png","xmouse":[801,801,801,801,801,801,801,801,801,801,801,801,801,801,801,801,801,801,801,801,801,801,801,801,801,801,801,801,801,801,801,801,801,801,801,801,801,801,801,801,801,801,801,801,801,801,799,795,764,751,742,735,729,718,710,703,696,685,659,641,623,602,583,554,546,535,529,525,519,515,511,509],"ymouse":[509,509,509,509,509,509,509,509,509,509,509,509,509,509,509,509,509,509,509,509,509,509,509,509,509,509,509,509,509,509,509,509,509,509,509,509,509,509,509,509,509,509,509,509,509,509,505,495,446,430,421,410,400,383,369,357,344,326,286,261,236,210,186,148,138,127,121,116,109,104,100,98],"timestamp_mouse":[23,35,57,75,97,115,135,156,177,197,216,235,256,275,297,317,335,355,377,396,417,436,455,476,496,515,537,557,576,597,615,636,656,675,696,715,736,756,776,796,816,836,855,877,896,916,936,955,975,996,1016,1035,1056,1076,1096,1116,1135,1156,1176,1197,1216,1235,1255,1275,1296,1316,1335,1357,1375,1396,1416,1436],"xSR":741.5,"ySR":469.95,"xT1":424.9,"yT1":0,"xT2":1058.1,"yT2":0,"toosoon":0,"cond_shown":"equaldotanddens","ratio_trial":750,"smaller_num":"6","larger_num":"8","correct_side":1,"subjID":"IsabellaPabónDíaz8","gender":"1","age":"11","school":"2019"},{"start_time":1551887552567,"click_time":1551887554260,"finger_time":1551887553621,"fix_duration":447.0618084743304,"trial":3,"RT":1054,"MT":639,"sideResp":2,"stimulus":"img/900/randomdotsizeEA/R/7_Ratio_900_L_9_R_10.png","xmouse":[780,780,780,780,780,780,780,780,780,780,780,780,780,780,780,780,780,780,780,780,780,780,780,780,780,780,780,780,780,780,780,780,780,780,780,780,780,780,780,780,780,780,780,780,780,782,783,784,787,789,796,803,810,815,821,839,849,859,870,881,903,911,919,926,935,951,957,962,967,972,982,989,996,1002,1012,1026,1031,1035,1039,1043,1050,1053,1055,1057,1059],"ymouse":[503,503,503,503,503,503,503,503,503,503,503,503,503,503,503,503,503,503,503,503,503,503,503,503,503,503,503,503,503,503,503,503,503,503,503,503,503,503,503,503,503,503,503,503,504,504,504,503,500,496,482,470,461,452,443,413,398,380,363,343,300,282,263,246,229,201,194,188,180,173,160,152,144,136,124,108,102,98,93,89,82,80,79,77,76],"timestamp_mouse":[13,34,52,72,93,112,134,152,173,193,212,233,254,274,293,313,333,354,374,392,413,434,453,473,493,512,534,552,574,592,614,632,654,674,693,712,733,754,772,794,812,833,854,873,892,912,934,952,973,992,1013,1032,1054,1073,1093,1112,1133,1153,1173,1193,1213,1232,1252,1273,1294,1312,1332,1352,1372,1392,1413,1433,1453,1472,1492,1513,1533,1552,1573,1593,1612,1634,1654,1672,1692],"xSR":741.5,"ySR":469.95,"xT1":424.9,"yT1":0,"xT2":1058.1,"yT2":0,"toosoon":0,"cond_shown":"randomdotsizeEA","ratio_trial":900,"smaller_num":"9","larger_num":"10","correct_side":2,"subjID":"IsabellaPabónDíaz8","gender":"1","age":"11","school":"2019"},{"start_time":1551887555932,"click_time":1551887558401,"finger_time":1551887557860,"fix_duration":569.6039402773266,"trial":4,"RT":1928,"MT":541,"sideResp":1,"stimulus":"img/750/equaldotanddens/L/10_Ratio_750_L_4_R_3.png","xmouse":[801,801,801,801,801,801,801,801,801,801,801,801,801,801,801,801,801,801,801,801,801,801,801,801,801,801,801,801,801,801,801,801,801,801,801,801,801,801,801,801,801,801,801,801,801,801,801,801,801,801,801,801,801,801,801,801,801,801,801,801,801,801,801,801,801,801,801,801,801,801,801,801,801,801,801,801,801,801,801,801,801,801,801,801,801,801,801,801,801,801,801,801,801,801,801,782,743,635,585,562,558,558,558,560,560,560,561,561,561,561,559,554,547,522,511,501,498,497,495,494,493,492,492,491],"ymouse":[504,504,504,504,504,504,504,504,504,504,504,504,504,504,504,504,504,504,504,504,504,504,504,504,504,504,504,504,504,504,504,504,504,504,504,504,504,504,504,504,504,504,504,504,504,504,504,504,504,504,504,504,504,504,504,504,504,504,504,504,504,504,504,504,504,504,504,504,504,504,504,504,504,504,504,504,504,504,504,504,504,504,504,504,504,504,504,504,504,504,504,504,504,504,504,487,444,331,284,261,253,249,239,233,228,223,220,218,204,193,182,169,155,126,117,108,106,105,104,104,103,102,101,98],"timestamp_mouse":[8,38,49,70,88,110,129,149,168,188,209,228,249,269,288,308,328,349,369,389,410,430,448,469,489,508,528,549,569,589,610,629,649,669,689,710,728,749,770,788,808,830,848,868,890,908,929,948,968,990,1010,1028,1050,1068,1089,1110,1128,1149,1168,1189,1209,1229,1249,1268,1288,1309,1329,1348,1369,1389,1410,1429,1448,1469,1488,1508,1530,1549,1569,1590,1609,1630,1649,1668,1689,1710,1728,1748,1770,1788,1808,1829,1848,1869,1888,1909,1928,1949,1968,1989,2008,2028,2049,2068,2089,2108,2129,2148,2169,2188,2209,2229,2248,2269,2289,2309,2328,2348,2368,2388,2409,2429,2448,2469],"xSR":741.5,"ySR":469.95,"xT1":424.9,"yT1":0,"xT2":1058.1,"yT2":0,"toosoon":0,"cond_shown":"equaldotanddens","ratio_trial":750,"smaller_num":"3","larger_num":"4","correct_side":1,"subjID":"IsabellaPabónDíaz8","gender":"1","age":"11","school":"2019"},{"start_time":1551887560938,"click_time":1551887562760,"finger_time":1551887562140,"fix_duration":1454.2443453983287,"trial":5,"RT":1202,"MT":620,"sideResp":2,"stimulus":"img/900/randomdotsizeEA/R/9_Ratio_900_L_18_R_20.png","xmouse":[786,786,786,786,786,786,786,786,786,786,786,786,786,786,786,786,786,786,786,786,786,786,786,786,786,786,786,786,786,786,786,786,786,786,786,786,786,786,786,786,786,786,786,786,786,786,786,786,786,786,786,786,786,786,786,786,786,786,786,785,777,766,752,719,708,702,695,690,671,661,651,644,636,634,631,631,631,631,631,634,644,660,689,742,786,833,882,929,1000,1027,1053,1072],"ymouse":[488,488,488,488,488,488,488,488,488,488,488,488,488,488,488,488,488,488,488,488,488,488,488,488,488,488,488,488,488,488,488,488,488,488,488,488,488,488,488,488,488,488,488,488,488,488,488,488,488,488,488,488,488,488,488,488,488,488,488,484,468,451,435,394,379,368,356,342,307,292,278,269,257,254,248,248,248,248,248,247,247,247,246,237,224,208,186,159,113,91,72,56],"timestamp_mouse":[9,23,42,63,82,102,122,143,163,182,202,222,244,263,282,302,322,342,362,382,403,423,443,462,482,502,523,542,563,583,603,624,643,662,682,702,722,743,762,782,802,823,844,862,883,904,923,942,963,982,1002,1023,1042,1063,1082,1102,1123,1143,1162,1182,1202,1223,1243,1262,1282,1303,1322,1342,1362,1383,1403,1422,1442,1462,1483,1503,1522,1542,1562,1582,1602,1622,1643,1663,1684,1703,1723,1742,1763,1782,1802,1822],"xSR":741.5,"ySR":469.95,"xT1":424.9,"yT1":0,"xT2":1058.1,"yT2":0,"toosoon":0,"cond_shown":"randomdotsizeEA","ratio_trial":900,"smaller_num":"18","larger_num":"20","correct_side":2,"subjID":"IsabellaPabónDíaz8","gender":"1","age":"11","school":"2019"},{"start_time":1551887564218,"click_time":1551887565921,"finger_time":1551887565121,"fix_duration":335.15983089518363,"trial":6,"RT":903,"MT":800,"sideResp":2,"stimulus":"img/750/equaldotsize/R/4_Ratio_750_L_15_R_20.png","xmouse":[776,776,776,776,776,776,776,776,776,776,776,776,776,776,776,776,776,776,776,776,776,776,776,776,776,776,776,776,776,776,776,776,776,776,776,776,776,776,776,776,778,783,794,808,839,852,862,873,881,899,906,914,920,927,935,953,962,972,984,1000,1008,1015,1022,1028,1033,1040,1044,1044,1048,1049,1051,1051,1051,1051,1051,1051,1051,1051,1052,1053,1057,1057,1058,1058,1058,1062],"ymouse":[527,527,527,527,527,527,527,527,527,527,527,527,527,527,527,527,527,527,527,527,527,527,527,527,527,527,527,527,527,527,527,527,527,527,527,527,527,527,527,527,525,522,515,504,471,450,431,413,395,355,338,324,307,291,274,235,214,194,171,143,128,117,105,95,85,69,64,64,59,57,56,56,56,56,56,56,56,56,56,55,55,55,55,55,55,54],"timestamp_mouse":[10,28,42,62,82,102,122,143,164,183,203,224,242,263,283,302,322,343,362,383,402,424,443,462,482,503,523,542,564,583,603,623,643,663,682,702,722,742,763,783,803,822,843,862,884,903,922,942,963,983,1002,1022,1043,1064,1082,1103,1122,1142,1164,1183,1202,1222,1242,1263,1283,1302,1323,1343,1363,1383,1403,1422,1442,1462,1482,1503,1523,1544,1564,1582,1602,1622,1644,1662,1682,1703],"xSR":741.5,"ySR":469.95,"xT1":424.9,"yT1":0,"xT2":1058.1,"yT2":0,"toosoon":0,"cond_shown":"equaldotsize","ratio_trial":750,"smaller_num":"15","larger_num":"20","correct_side":2,"subjID":"IsabellaPabónDíaz8","gender":"1","age":"11","school":"2019"},{"start_time":1551887567810,"click_time":1551887568980,"finger_time":1551887568660,"fix_duration":888.3707532323667,"trial":7,"RT":850,"MT":320,"sideResp":1,"stimulus":"img/900/equaldotsize/R/6_Ratio_900_L_9_R_10.png","xmouse":[821,821,821,821,821,821,821,821,821,821,821,821,821,821,821,821,821,821,821,821,821,821,821,821,821,821,821,821,821,821,821,821,821,821,821,821,821,821,821,817,793,771,739,698,655,597,584,578,574,572,569,568,566,564,557,544,531,525,518],"ymouse":[535,535,535,535,535,535,535,535,535,535,535,535,535,535,535,535,535,535,535,535,535,535,535,535,535,535,535,535,535,535,535,535,535,535,535,535,535,535,535,535,507,482,439,377,314,202,158,140,126,118,110,107,102,98,90,77,69,66,64],"timestamp_mouse":[11,35,50,71,91,110,131,151,171,190,210,232,252,272,291,310,330,351,372,391,410,431,450,472,490,511,532,550,571,591,611,631,650,670,690,710,731,751,770,790,811,830,850,870,890,910,930,951,971,992,1011,1030,1050,1071,1090,1110,1130,1150,1170],"xSR":741.5,"ySR":469.95,"xT1":424.9,"yT1":0,"xT2":1058.1,"yT2":0,"toosoon":0,"cond_shown":"equaldotsize","ratio_trial":900,"smaller_num":"9","larger_num":"10","correct_side":2,"subjID":"IsabellaPabónDíaz8","gender":"1","age":"11","school":"2019"},{"start_time":1551887570709,"click_time":1551887571821,"finger_time":1551887571620,"fix_duration":606.6019151995018,"trial":8,"RT":911,"MT":201,"sideResp":1,"stimulus":"img/500/randomdotsizeEA/L/10_Ratio_500_L_4_R_2.png","xmouse":[803,803,803,803,803,803,803,803,803,803,803,803,803,803,803,803,803,803,803,803,803,803,803,803,803,803,803,803,803,803,803,803,803,803,803,803,803,803,803,803,803,803,803,804,803,760,726,688,647,614,538,524,513,506,498,491],"ymouse":[517,517,517,517,517,517,517,517,517,517,517,517,517,517,517,517,517,517,517,517,517,517,517,517,517,517,517,517,517,517,517,517,517,517,517,517,517,517,517,517,517,517,517,517,510,445,398,350,304,266,179,159,143,130,115,90],"timestamp_mouse":[12,32,52,72,91,112,132,153,171,192,213,232,252,273,292,312,332,351,371,392,411,431,453,471,492,512,531,553,572,592,612,633,652,671,692,711,732,753,772,792,811,833,853,872,891,911,932,951,971,992,1012,1033,1051,1072,1091,1112],"xSR":741.5,"ySR":469.95,"xT1":424.9,"yT1":0,"xT2":1058.1,"yT2":0,"toosoon":0,"cond_shown":"randomdotsizeEA","ratio_trial":500,"smaller_num":"2","larger_num":"4","correct_side":1,"subjID":"IsabellaPabónDíaz8","gender":"1","age":"11","school":"2019"},{"start_time":1551887573643,"click_time":1551887574922,"finger_time":1551887574680,"fix_duration":921.1516546891112,"trial":9,"RT":1037,"MT":242,"sideResp":1,"stimulus":"img/750/randomdotsizeEA/L/9_Ratio_750_L_4_R_3.png","xmouse":[806,806,806,806,806,806,806,806,806,806,806,806,806,806,806,806,806,806,806,806,806,806,806,806,806,806,806,806,806,806,806,806,806,806,806,806,806,806,806,806,806,806,806,807,814,818,821,824,825,830,833,833,833,829,818,805,788,771,752,704,644,624,568,521],"ymouse":[555,555,555,555,555,555,555,555,555,555,555,555,555,555,555,555,555,555,555,555,555,555,555,555,555,555,555,555,555,555,555,555,555,555,555,555,555,555,555,555,555,555,555,555,549,542,534,518,507,485,475,466,456,439,424,410,396,381,363,309,236,211,145,98],"timestamp_mouse":[19,38,57,79,97,118,138,157,177,199,217,237,259,277,297,317,337,358,377,398,418,437,458,479,497,517,538,559,578,598,617,637,657,679,697,717,739,758,777,798,819,837,858,877,898,917,937,957,977,997,1017,1037,1057,1078,1097,1119,1138,1157,1177,1198,1217,1237,1259,1279],"xSR":741.5,"ySR":469.95,"xT1":424.9,"yT1":0,"xT2":1058.1,"yT2":0,"toosoon":0,"cond_shown":"randomdotsizeEA","ratio_trial":750,"smaller_num":"3","larger_num":"4","correct_side":1,"subjID":"IsabellaPabónDíaz8","gender":"1","age":"11","school":"2019"},{"start_time":1551887577220,"click_time":1551887578340,"finger_time":1551887577861,"fix_duration":1377.665889686441,"trial":10,"RT":641,"MT":479,"sideResp":2,"stimulus":"img/900/equaldotanddens/R/14_Ratio_900_L_18_R_20.png","xmouse":[802,802,802,802,802,802,802,802,802,802,802,802,802,802,802,802,802,802,802,802,802,802,802,802,802,802,802,802,802,804,805,817,827,840,853,867,895,907,920,933,944,956,960,966,971,977,992,999,1007,1013,1024,1036,1040,1046,1052,1058,1064],"ymouse":[507,507,507,507,507,507,507,507,507,507,507,507,507,507,507,507,507,507,507,507,507,507,507,507,507,507,507,507,507,505,501,473,458,436,418,398,356,335,312,290,269,232,218,200,186,170,137,119,103,88,66,51,47,44,41,40,39],"timestamp_mouse":[8,31,40,60,82,101,121,142,161,181,201,220,240,261,280,300,320,342,361,380,402,421,440,462,480,500,521,542,561,580,601,621,641,660,680,700,720,741,761,780,800,820,841,860,880,901,921,941,960,980,1001,1020,1041,1061,1080,1101,1120],"xSR":741.5,"ySR":469.95,"xT1":424.9,"yT1":0,"xT2":1058.1,"yT2":0,"toosoon":0,"cond_shown":"equaldotanddens","ratio_trial":900,"smaller_num":"18","larger_num":"20","correct_side":2,"subjID":"IsabellaPabónDíaz8","gender":"1","age":"11","school":"2019"},{"start_time":1551887580736,"click_time":1551887581680,"finger_time":1551887581401,"fix_duration":1495.258486669031,"trial":11,"RT":665,"MT":279,"sideResp":1,"stimulus":"img/750/equaldotanddens/L/14_Ratio_750_L_8_R_6.png","xmouse":[768,768,768,768,768,768,768,768,768,768,768,768,768,768,768,768,768,768,768,768,768,768,768,768,768,768,768,768,768,768,768,762,746,720,662,565,529,500,477,463,446,422,416,415,415,418,421,429],"ymouse":[528,528,528,528,528,528,528,528,528,528,528,528,528,528,528,528,528,528,528,528,528,528,528,528,528,528,528,528,528,528,518,504,481,449,390,286,243,211,184,163,144,115,105,100,92,84,81,78],"timestamp_mouse":[10,30,44,65,85,104,126,144,165,186,205,225,246,265,284,304,325,344,364,385,404,424,445,464,484,504,526,545,566,586,605,624,644,665,686,706,724,745,765,786,805,824,844,865,884,904,924,944],"xSR":741.5,"ySR":469.95,"xT1":424.9,"yT1":0,"xT2":1058.1,"yT2":0,"toosoon":0,"cond_shown":"equaldotanddens","ratio_trial":750,"smaller_num":"6","larger_num":"8","correct_side":1,"subjID":"IsabellaPabónDíaz8","gender":"1","age":"11","school":"2019"},{"start_time":1551887583743,"click_time":1551887584700,"finger_time":1551887584180,"fix_duration":1000.4456778311206,"trial":12,"RT":437,"MT":520,"sideResp":1,"stimulus":"img/500/equaldotanddens/L/10_Ratio_500_L_4_R_2.png","xmouse":[771,771,771,771,771,771,771,771,771,771,771,771,771,771,770,769,768,768,766,765,763,761,758,753,746,728,715,702,687,672,638,622,604,592,579,546,526,509,496,487,472,468,463,463,461,461,461,461],"ymouse":[491,491,491,491,491,491,491,491,491,491,491,490,490,488,487,485,483,481,479,476,470,466,460,452,441,419,404,389,373,359,330,316,297,283,270,232,212,194,177,164,143,138,129,125,121,109,100,93],"timestamp_mouse":[17,37,57,77,99,118,137,157,178,198,217,237,257,277,297,317,338,359,379,398,419,437,457,478,499,517,537,557,579,597,617,637,658,678,697,719,738,757,777,797,817,838,858,878,897,918,938,957],"xSR":741.5,"ySR":469.95,"xT1":424.9,"yT1":0,"xT2":1058.1,"yT2":0,"toosoon":0,"cond_shown":"equaldotanddens","ratio_trial":500,"smaller_num":"2","larger_num":"4","correct_side":1,"subjID":"IsabellaPabónDíaz8","gender":"1","age":"11","school":"2019"},{"start_time":1551887585652,"click_time":1551887586581,"finger_time":1551887586222,"fix_duration":250,"trial":13,"RT":570,"MT":359,"sideResp":2,"stimulus":"img/250/equaldotanddens/R/9_Ratio_250_L_3_R_12.png","xmouse":[784,784,784,784,784,784,784,784,784,784,784,784,784,784,784,784,784,784,784,785,789,791,794,797,801,810,822,836,850,864,892,903,914,924,934,953,961,970,979,990,1019,1033,1047,1060,1070,1092,1098],"ymouse":[518,518,518,518,518,518,518,518,518,518,518,518,518,518,518,518,518,518,518,519,519,519,519,519,518,510,492,472,450,424,373,346,321,298,277,242,228,208,195,180,155,144,134,125,118,101,96],"timestamp_mouse":[9,36,49,68,90,108,129,148,168,190,208,229,249,268,289,309,328,348,368,388,408,430,448,469,489,508,529,548,570,588,609,629,648,669,689,708,728,749,769,790,809,829,849,870,890,909,929],"xSR":741.5,"ySR":469.95,"xT1":424.9,"yT1":0,"xT2":1058.1,"yT2":0,"toosoon":0,"cond_shown":"equaldotanddens","ratio_trial":250,"smaller_num":"3","larger_num":"12","correct_side":2,"subjID":"IsabellaPabónDíaz8","gender":"1","age":"11","school":"2019"},{"start_time":1551887587908,"click_time":1551887589040,"finger_time":1551887588721,"fix_duration":365.995420175922,"trial":14,"RT":813,"MT":319,"sideResp":1,"stimulus":"img/900/equaldotanddens/R/9_Ratio_900_L_18_R_20.png","xmouse":[793,793,793,793,793,793,793,793,793,793,793,793,793,793,793,793,793,793,793,793,793,791,785,782,780,777,776,775,773,773,773,772,772,772,771,771,769,764,757,747,720,705,604,575,546,525,505,476,462,449,445,443,442,442,442,447,452],"ymouse":[524,524,524,524,524,524,524,524,524,524,524,524,524,524,524,524,524,524,524,524,525,525,516,513,511,508,507,504,503,503,503,502,502,502,500,500,498,491,482,471,442,428,332,302,265,237,211,171,155,141,134,129,117,112,107,100,92],"timestamp_mouse":[17,36,53,72,94,112,133,154,172,192,212,232,254,273,292,312,333,353,374,393,412,432,452,473,492,513,533,553,572,592,612,633,653,672,692,712,733,752,772,794,813,832,852,873,893,912,934,952,972,992,1013,1033,1053,1073,1092,1112,1132],"xSR":741.5,"ySR":469.95,"xT1":424.9,"yT1":0,"xT2":1058.1,"yT2":0,"toosoon":0,"cond_shown":"equaldotanddens","ratio_trial":900,"smaller_num":"18","larger_num":"20","correct_side":2,"subjID":"IsabellaPabónDíaz8","gender":"1","age":"11","school":"2019"},{"start_time":1551887591932,"click_time":1551887593001,"finger_time":1551887592520,"fix_duration":350.28767132363294,"trial":15,"RT":588,"MT":481,"sideResp":2,"stimulus":"img/500/equaldotsize/R/15_Ratio_500_L_1_R_2.png","xmouse":[800,800,800,800,800,800,800,800,800,800,800,800,800,800,800,800,800,800,800,800,800,800,800,800,800,802,805,825,835,850,860,889,903,917,930,939,947,958,961,966,970,977,981,990,1001,1011,1018,1031,1032,1034,1035,1043,1054,1061],"ymouse":[527,527,527,527,527,527,527,527,527,527,527,527,527,527,527,527,527,527,527,527,527,527,527,527,527,526,523,501,484,455,430,338,289,237,194,161,136,99,87,71,64,54,50,45,43,40,39,38,38,38,40,45,47,49],"timestamp_mouse":[8,29,48,70,89,108,130,148,168,189,209,229,250,268,289,309,328,348,370,388,409,428,449,470,488,510,529,548,568,588,608,630,649,668,689,709,729,748,768,789,810,830,848,868,888,910,929,949,968,989,1008,1030,1049,1069],"xSR":741.5,"ySR":469.95,"xT1":424.9,"yT1":0,"xT2":1058.1,"yT2":0,"toosoon":0,"cond_shown":"equaldotsize","ratio_trial":500,"smaller_num":"1","larger_num":"2","correct_side":2,"subjID":"IsabellaPabónDíaz8","gender":"1","age":"11","school":"2019"},{"start_time":1551887595143,"click_time":1551887596001,"finger_time":1551887595781,"fix_duration":1362.69923122198,"trial":16,"RT":638,"MT":220,"sideResp":2,"stimulus":"img/500/equaldotanddens/R/9_Ratio_500_L_2_R_4.png","xmouse":[768,768,768,768,768,768,768,768,768,768,768,768,768,768,768,768,768,768,768,768,768,768,768,768,768,768,768,771,775,781,793,825,849,882,915,947,988,1002,1015,1028,1042,1071,1083],"ymouse":[525,525,525,525,525,525,525,525,525,525,525,525,525,525,525,525,525,525,525,525,525,525,525,525,525,525,525,524,519,509,492,450,412,365,314,265,196,173,153,137,122,100,92],"timestamp_mouse":[18,37,58,79,99,117,137,157,177,197,218,239,257,277,297,319,339,357,378,398,417,437,458,478,497,517,538,557,577,597,618,638,658,678,697,717,737,758,778,797,817,837,858],"xSR":741.5,"ySR":469.95,"xT1":424.9,"yT1":0,"xT2":1058.1,"yT2":0,"toosoon":0,"cond_shown":"equaldotanddens","ratio_trial":500,"smaller_num":"2","larger_num":"4","correct_side":2,"subjID":"IsabellaPabónDíaz8","gender":"1","age":"11","school":"2019"},{"start_time":1551887598308,"click_time":1551887599301,"finger_time":1551887598842,"fix_duration":1306.7459550443573,"trial":17,"RT":534,"MT":459,"sideResp":2,"stimulus":"img/250/equaldotsize/R/10_Ratio_250_L_4_R_16.png","xmouse":[781,781,781,781,781,781,781,781,781,781,781,781,781,781,781,781,781,781,781,781,777,773,770,766,765,765,765,765,765,765,766,766,768,769,770,772,777,792,809,856,878,898,920,967,984,1000,1014,1033,1055,1059],"ymouse":[501,501,501,501,501,501,501,501,501,501,501,501,501,501,501,501,501,501,501,501,494,489,483,474,472,471,469,466,459,456,454,451,448,443,440,438,433,419,400,343,317,288,257,186,155,126,105,75,44,36],"timestamp_mouse":[13,35,53,72,92,114,132,152,172,193,214,232,252,274,293,312,332,354,372,393,412,433,452,473,493,513,534,552,573,592,613,632,654,673,692,712,734,753,772,792,814,834,854,873,892,912,932,952,972,992],"xSR":741.5,"ySR":469.95,"xT1":424.9,"yT1":0,"xT2":1058.1,"yT2":0,"toosoon":0,"cond_shown":"equaldotsize","ratio_trial":250,"smaller_num":"4","larger_num":"16","correct_side":2,"subjID":"IsabellaPabónDíaz8","gender":"1","age":"11","school":"2019"},{"start_time":1551887601653,"click_time":1551887602461,"finger_time":1551887602361,"fix_duration":1411.4169679487802,"trial":18,"RT":708,"MT":100,"sideResp":1,"stimulus":"img/250/equaldotsize/L/2_Ratio_250_L_16_R_4.png","xmouse":[776,776,776,776,776,776,776,776,776,776,776,776,776,775,775,774,774,774,774,774,774,774,774,774,774,776,777,782,783,783,783,783,783,783,781,771,696,647,602,544,515],"ymouse":[503,503,503,503,503,503,503,503,503,503,503,503,503,504,504,504,504,504,504,504,504,504,504,504,504,504,504,500,500,499,499,499,499,494,482,457,334,266,203,113,63],"timestamp_mouse":[9,27,47,68,88,107,128,147,168,188,207,228,247,267,288,308,328,349,368,388,407,429,448,468,487,508,527,547,567,587,607,628,648,667,689,708,729,747,767,787,807],"xSR":741.5,"ySR":469.95,"xT1":424.9,"yT1":0,"xT2":1058.1,"yT2":0,"toosoon":0,"cond_shown":"equaldotsize","ratio_trial":250,"smaller_num":"4","larger_num":"16","correct_side":1,"subjID":"IsabellaPabónDíaz8","gender":"1","age":"11","school":"2019"},{"start_time":1551887604796,"click_time":1551887605761,"finger_time":1551887605320,"fix_duration":1053.0813236461117,"trial":19,"RT":524,"MT":441,"sideResp":1,"stimulus":"img/250/randomdotsizeEA/L/7_Ratio_250_L_8_R_2.png","xmouse":[795,795,795,795,795,795,795,795,795,795,795,796,797,798,799,799,799,799,799,799,800,802,804,807,811,821,828,834,837,839,844,844,844,842,837,815,799,778,749,723,655,630,613,595,580,552,539,530,523],"ymouse":[501,501,501,501,501,501,501,501,501,501,501,500,499,498,497,497,497,497,497,497,496,494,492,489,485,470,461,451,445,437,413,402,394,382,366,326,310,292,268,247,195,173,153,133,114,89,81,77,75],"timestamp_mouse":[10,29,44,64,84,104,124,145,164,184,204,224,246,265,285,305,325,344,364,385,404,424,444,466,484,504,524,545,565,585,606,624,645,664,684,704,725,744,766,785,805,825,845,865,884,905,925,945,965],"xSR":741.5,"ySR":469.95,"xT1":424.9,"yT1":0,"xT2":1058.1,"yT2":0,"toosoon":0,"cond_shown":"randomdotsizeEA","ratio_trial":250,"smaller_num":"2","larger_num":"8","correct_side":1,"subjID":"IsabellaPabónDíaz8","gender":"1","age":"11","school":"2019"},{"start_time":1551887607921,"click_time":1551887608860,"finger_time":1551887608162,"fix_duration":1218.4432535436702,"trial":20,"RT":241,"MT":698,"sideResp":1,"stimulus":"img/250/equaldotanddens/L/3_Ratio_250_L_8_R_2.png","xmouse":[804,804,804,804,803,803,802,802,802,802,801,801,801,800,799,799,799,798,797,796,793,789,782,767,743,735,724,711,698,682,651,637,624,609,593,585,579,576,573,571,565,561,557,551,536,524,518,513],"ymouse":[481,480,480,479,478,478,477,476,475,473,473,471,469,468,465,464,462,460,456,444,434,423,407,381,347,334,320,305,289,275,247,232,217,199,176,165,157,153,149,147,140,135,132,125,115,106,102,99],"timestamp_mouse":[1,19,41,59,79,100,119,140,159,180,200,219,241,260,280,299,320,340,361,380,399,420,439,460,480,499,519,540,560,579,600,619,640,659,679,699,720,739,759,779,799,820,839,859,880,901,921,939],"xSR":741.5,"ySR":469.95,"xT1":424.9,"yT1":0,"xT2":1058.1,"yT2":0,"toosoon":0,"cond_shown":"equaldotanddens","ratio_trial":250,"smaller_num":"2","larger_num":"8","correct_side":1,"subjID":"IsabellaPabónDíaz8","gender":"1","age":"11","school":"2019"},{"start_time":1551887610926,"click_time":1551887611821,"finger_time":1551887611460,"fix_duration":964.2820084811863,"trial":21,"RT":534,"MT":361,"sideResp":1,"stimulus":"img/900/randomdotsizeEA/R/5_Ratio_900_L_9_R_10.png","xmouse":[789,789,789,789,789,789,789,789,789,789,789,789,789,789,789,789,789,789,788,781,779,777,773,770,761,754,744,734,717,706,688,672,652,623,588,576,566,559,552,537,524,515,506,495,474],"ymouse":[510,510,512,512,512,513,513,513,513,513,513,513,513,513,513,513,513,513,513,511,509,507,502,498,482,471,459,444,422,411,385,364,336,303,258,239,222,208,196,172,154,143,130,117,91],"timestamp_mouse":[27,36,55,76,94,114,136,154,175,196,215,235,255,274,295,314,334,355,374,394,415,435,455,474,495,514,534,556,576,594,615,635,654,676,695,714,734,754,774,794,815,835,855,875,894],"xSR":741.5,"ySR":469.95,"xT1":424.9,"yT1":0,"xT2":1058.1,"yT2":0,"toosoon":0,"cond_shown":"randomdotsizeEA","ratio_trial":900,"smaller_num":"9","larger_num":"10","correct_side":2,"subjID":"IsabellaPabónDíaz8","gender":"1","age":"11","school":"2019"},{"start_time":1551887614571,"click_time":1551887617943,"finger_time":1551887617644,"fix_duration":1489.9223407782063,"trial":22,"RT":3073,"MT":299,"sideResp":1,"stimulus":"img/750/randomdotsizeEA/L/10_Ratio_750_L_4_R_3.png","xmouse":[783,784,784,784,784,785,785,785,785,785,785,785,785,785,785,785,785,785,785,785,785,785,785,785,786,786,786,786,786,786,786,786,786,786,786,786,786,786,786,786,786,786,786,786,786,786,786,786,786,786,786,786,786,786,786,786,786,786,786,786,786,786,786,786,786,786,786,786,786,786,786,786,786,786,786,786,786,786,786,786,786,786,786,786,786,786,786,786,786,786,786,786,786,786,786,786,786,786,786,786,786,786,786,786,786,786,786,786,786,786,786,786,786,786,786,786,786,786,786,786,786,786,786,786,786,786,786,786,786,786,786,786,786,786,786,786,786,786,786,786,786,786,786,786,786,786,786,786,786,786,785,780,743,722,705,690,668,640,631,623,614,599,564,543,528,507,497,473,455],"ymouse":[528,528,528,528,528,528,528,528,528,528,528,528,528,528,528,528,528,528,528,528,528,528,528,528,528,528,528,528,528,528,528,528,528,528,528,528,528,528,528,528,528,528,528,528,528,528,528,528,528,528,528,528,528,528,528,528,528,528,528,528,528,528,528,528,528,528,528,528,528,528,528,528,528,528,528,528,528,528,528,528,528,528,528,528,528,528,528,528,528,528,528,528,528,528,528,528,528,528,528,528,528,528,528,528,528,528,528,528,528,528,528,528,528,528,528,528,528,528,528,528,528,528,528,528,528,528,528,528,528,528,528,528,528,528,528,528,528,528,528,528,528,528,528,528,528,528,528,528,528,528,526,522,471,438,414,394,366,336,326,315,302,284,236,214,196,168,150,108,88],"timestamp_mouse":[9,29,50,69,90,109,129,151,170,189,209,229,250,271,290,309,329,349,370,389,410,429,449,469,490,509,530,549,569,589,610,630,650,670,691,709,730,749,770,789,810,830,850,869,889,911,929,949,971,990,1009,1030,1049,1070,1091,1110,1129,1150,1171,1190,1211,1230,1249,1270,1291,1309,1330,1350,1372,1392,1414,1432,1453,1472,1493,1512,1534,1553,1572,1594,1613,1633,1653,1672,1694,1712,1732,1753,1773,1792,1812,1832,1853,1872,1893,1914,1932,1953,1972,1994,2014,2032,2054,2072,2092,2114,2133,2153,2172,2194,2214,2233,2253,2272,2292,2314,2332,2353,2372,2394,2412,2433,2453,2472,2492,2513,2532,2552,2574,2592,2612,2633,2652,2674,2694,2713,2734,2753,2773,2794,2813,2833,2852,2874,2893,2914,2932,2953,2973,2992,3012,3032,3053,3073,3094,3112,3132,3153,3172,3193,3212,3233,3254,3272,3292,3312,3333,3353,3372],"xSR":741.5,"ySR":469.95,"xT1":424.9,"yT1":0,"xT2":1058.1,"yT2":0,"toosoon":0,"cond_shown":"randomdotsizeEA","ratio_trial":750,"smaller_num":"3","larger_num":"4","correct_side":1,"subjID":"IsabellaPabónDíaz8","gender":"1","age":"11","school":"2019"},{"start_time":1551887619885,"click_time":1551887621683,"finger_time":1551887620963,"fix_duration":579.9868782906187,"trial":23,"RT":1078,"MT":720,"sideResp":1,"stimulus":"img/250/equaldotanddens/L/14_Ratio_250_L_12_R_3.png","xmouse":[806,806,806,806,806,806,806,806,806,806,806,806,806,806,806,806,806,806,806,806,806,806,806,806,806,806,806,806,806,806,806,806,806,806,806,806,806,806,806,806,806,806,806,806,806,806,806,806,806,806,806,805,800,795,790,787,784,777,759,733,698,673,646,638,630,618,597,503,423,392,384,384,384,384,384,384,384,384,384,384,384,384,384,385,395,405,415,420,424,427],"ymouse":[488,488,488,488,488,488,488,488,488,488,488,488,488,488,488,488,488,488,488,488,488,488,488,488,488,488,488,488,488,488,488,488,488,488,488,488,488,488,488,488,488,488,488,488,488,488,488,488,488,488,488,488,471,458,448,442,437,420,385,344,299,270,241,233,227,215,191,112,43,12,3,3,3,3,3,3,3,3,3,3,3,3,3,5,17,28,35,39,42,45],"timestamp_mouse":[19,39,58,80,99,119,139,160,179,198,220,238,258,280,298,318,339,358,378,398,420,438,460,478,498,519,540,558,579,599,620,638,659,678,699,720,738,758,779,798,819,838,858,880,898,918,940,958,979,999,1019,1038,1059,1078,1099,1119,1139,1159,1178,1198,1218,1239,1258,1279,1298,1320,1338,1359,1378,1399,1418,1439,1459,1478,1499,1518,1538,1558,1579,1598,1619,1639,1659,1678,1699,1720,1740,1758,1778,1798],"xSR":741.5,"ySR":469.95,"xT1":424.9,"yT1":0,"xT2":1058.1,"yT2":0,"toosoon":0,"cond_shown":"equaldotanddens","ratio_trial":250,"smaller_num":"3","larger_num":"12","correct_side":1,"subjID":"IsabellaPabónDíaz8","gender":"1","age":"11","school":"2019"},{"start_time":1551887623421,"click_time":1551887624524,"finger_time":1551887624125,"fix_duration":335.9022703303917,"trial":24,"RT":704,"MT":399,"sideResp":1,"stimulus":"img/250/randomdotsizeEA/L/3_Ratio_250_L_8_R_2.png","xmouse":[773,773,773,773,773,773,773,773,773,773,773,773,773,773,773,773,773,773,773,773,773,773,773,773,773,773,773,773,773,773,773,773,773,771,769,763,731,714,702,693,685,671,667,663,658,651,623,604,586,567,562,553,546,537,529,521],"ymouse":[497,497,497,497,497,497,497,497,497,497,497,497,497,497,497,497,497,497,497,497,497,497,497,497,497,497,497,497,497,497,497,497,497,481,472,446,371,336,306,281,254,205,191,177,162,146,107,92,80,70,67,65,63,60,57,56],"timestamp_mouse":[8,23,43,62,84,102,122,143,162,182,203,224,242,263,282,302,323,342,364,383,403,423,442,462,484,502,522,542,564,582,603,622,643,662,682,704,723,743,762,782,802,823,843,863,884,903,922,942,963,983,1003,1023,1043,1062,1082,1103],"xSR":741.5,"ySR":469.95,"xT1":424.9,"yT1":0,"xT2":1058.1,"yT2":0,"toosoon":0,"cond_shown":"randomdotsizeEA","ratio_trial":250,"smaller_num":"2","larger_num":"8","correct_side":1,"subjID":"IsabellaPabónDíaz8","gender":"1","age":"11","school":"2019"},{"start_time":1551887627531,"click_time":1551887628764,"finger_time":1551887628403,"fix_duration":606.0017230507816,"trial":25,"RT":872,"MT":361,"sideResp":2,"stimulus":"img/750/randomdotsizeEA/R/11_Ratio_750_L_12_R_16.png","xmouse":[824,824,824,824,824,824,824,824,824,824,824,824,824,824,824,824,824,824,824,824,824,824,824,824,824,824,824,824,824,824,824,824,824,824,824,824,824,824,824,824,824,825,838,847,856,868,901,916,932,942,956,965,968,978,988,997,1012,1019,1028,1035,1042,1060],"ymouse":[552,552,552,552,552,552,552,552,552,552,552,552,552,552,552,552,552,552,552,552,552,552,552,552,552,552,552,552,552,552,552,552,552,552,552,552,552,552,552,552,552,547,516,497,479,459,414,393,372,352,314,283,272,240,217,199,170,155,138,125,111,88],"timestamp_mouse":[13,34,53,73,93,113,133,153,172,193,212,233,252,273,292,313,333,354,373,393,414,432,453,473,494,513,533,553,572,593,613,634,653,672,692,713,734,752,774,792,813,833,853,872,893,912,933,954,973,994,1014,1033,1052,1073,1092,1112,1133,1153,1173,1192,1213,1233],"xSR":741.5,"ySR":469.95,"xT1":424.9,"yT1":0,"xT2":1058.1,"yT2":0,"toosoon":0,"cond_shown":"randomdotsizeEA","ratio_trial":750,"smaller_num":"12","larger_num":"16","correct_side":2,"subjID":"IsabellaPabónDíaz8","gender":"1","age":"11","school":"2019"},{"start_time":1551887631027,"click_time":1551887632064,"finger_time":1551887631663,"fix_duration":1261.7827653165778,"trial":26,"RT":636,"MT":401,"sideResp":2,"stimulus":"img/250/equaldotsize/R/6_Ratio_250_L_6_R_24.png","xmouse":[806,807,808,809,809,811,811,811,811,811,812,813,813,813,813,813,813,813,813,813,813,813,813,813,813,813,813,813,813,813,814,817,819,822,826,836,848,852,856,862,867,876,884,892,902,914,954,973,995,1016,1038,1076],"ymouse":[505,502,497,496,493,489,487,486,485,484,483,482,481,481,481,481,481,481,481,481,481,481,481,481,481,481,481,481,481,478,476,467,463,456,446,426,397,384,372,359,347,324,309,294,276,254,191,166,133,109,87,55],"timestamp_mouse":[16,37,57,78,98,118,136,156,176,197,218,236,256,276,298,318,337,357,377,397,418,437,457,477,497,518,537,557,576,597,618,636,656,676,697,718,737,756,776,797,818,837,856,876,897,916,936,957,977,996,1016,1037],"xSR":741.5,"ySR":469.95,"xT1":424.9,"yT1":0,"xT2":1058.1,"yT2":0,"toosoon":0,"cond_shown":"equaldotsize","ratio_trial":250,"smaller_num":"6","larger_num":"24","correct_side":2,"subjID":"IsabellaPabónDíaz8","gender":"1","age":"11","school":"2019"},{"start_time":1551887635020,"click_time":1551887636063,"finger_time":1551887635744,"fix_duration":576.9732115853062,"trial":27,"RT":724,"MT":319,"sideResp":2,"stimulus":"img/750/equaldotsize/R/3_Ratio_750_L_15_R_20.png","xmouse":[793,793,793,793,793,793,793,793,793,793,793,793,793,793,793,793,793,793,793,793,793,793,793,793,793,793,793,793,793,793,793,793,793,801,807,830,842,857,867,884,910,941,986,996,1000,1003,1004,1007,1018,1027,1039,1050,1059],"ymouse":[535,535,535,535,535,535,535,535,535,535,535,535,535,535,535,535,535,535,535,535,535,535,535,535,535,535,535,535,535,535,535,535,535,530,527,510,501,476,450,405,338,266,177,159,149,139,135,129,112,100,87,73,62],"timestamp_mouse":[9,23,45,64,83,105,124,143,165,183,204,223,243,265,284,303,325,344,364,385,404,423,444,464,484,504,523,543,565,583,605,623,643,663,685,703,724,745,764,784,804,824,845,863,884,903,923,945,965,983,1004,1023,1043],"xSR":741.5,"ySR":469.95,"xT1":424.9,"yT1":0,"xT2":1058.1,"yT2":0,"toosoon":0,"cond_shown":"equaldotsize","ratio_trial":750,"smaller_num":"15","larger_num":"20","correct_side":2,"subjID":"IsabellaPabónDíaz8","gender":"1","age":"11","school":"2019"},{"start_time":1551887638220,"click_time":1551887639163,"finger_time":1551887638783,"fix_duration":674.2168137778324,"trial":28,"RT":563,"MT":380,"sideResp":1,"stimulus":"img/900/randomdotsizeEA/L/2_Ratio_900_L_20_R_18.png","xmouse":[802,802,802,802,802,802,802,802,802,802,802,802,802,802,802,802,802,802,802,802,802,802,802,798,791,782,773,761,740,732,725,717,705,662,642,626,612,601,584,578,571,562,550,517,510,505,501,496],"ymouse":[520,520,520,520,520,520,520,520,520,520,520,520,520,520,520,520,520,520,520,520,520,520,520,518,511,504,496,486,466,455,446,432,416,369,351,333,317,301,268,253,237,220,201,156,141,126,110,95],"timestamp_mouse":[8,32,43,64,83,105,123,145,163,183,204,223,244,263,283,304,325,343,363,384,405,424,444,463,485,505,524,544,563,584,603,624,643,663,683,703,723,745,763,785,803,823,843,864,884,904,925,943],"xSR":741.5,"ySR":469.95,"xT1":424.9,"yT1":0,"xT2":1058.1,"yT2":0,"toosoon":0,"cond_shown":"randomdotsizeEA","ratio_trial":900,"smaller_num":"18","larger_num":"20","correct_side":1,"subjID":"IsabellaPabónDíaz8","gender":"1","age":"11","school":"2019"},{"start_time":1551887640496,"click_time":1551887641524,"finger_time":1551887641244,"fix_duration":250,"trial":29,"RT":748,"MT":280,"sideResp":2,"stimulus":"img/750/equaldotsize/R/11_Ratio_750_L_12_R_16.png","xmouse":[799,799,799,799,800,800,800,800,800,800,800,800,800,800,800,800,800,800,800,800,800,800,800,800,800,800,800,800,800,800,800,800,800,804,813,822,834,847,859,904,920,938,959,984,1014,1026,1033,1037,1042,1056,1064,1070],"ymouse":[517,518,518,519,520,520,520,520,520,520,520,520,520,520,520,520,520,520,520,520,520,520,520,520,520,520,520,520,520,520,520,520,520,519,511,500,484,465,445,365,329,293,256,220,171,155,146,140,133,114,106,95],"timestamp_mouse":[7,27,47,68,87,108,127,147,167,187,207,227,247,267,287,307,327,348,367,387,407,427,448,467,488,509,528,548,569,588,609,628,648,668,688,707,728,747,768,788,807,827,848,868,887,907,927,948,967,988,1007,1028],"xSR":741.5,"ySR":469.95,"xT1":424.9,"yT1":0,"xT2":1058.1,"yT2":0,"toosoon":0,"cond_shown":"equaldotsize","ratio_trial":750,"smaller_num":"12","larger_num":"16","correct_side":2,"subjID":"IsabellaPabónDíaz8","gender":"1","age":"11","school":"2019"},{"start_time":1551887642876,"click_time":1551887644986,"finger_time":1551887644103,"fix_duration":250,"trial":30,"RT":1227,"MT":883,"sideResp":2,"stimulus":"img/250/randomdotsizeEA/R/13_Ratio_250_L_2_R_8.png","xmouse":[787,787,787,787,787,787,787,787,787,787,787,787,787,787,787,787,787,787,787,787,787,787,787,787,787,787,787,787,787,787,787,787,787,787,787,787,787,787,787,787,787,787,787,787,787,787,787,787,787,787,787,787,787,787,787,787,787,787,785,777,765,716,690,672,662,657,655,655,655,655,655,655,655,655,655,655,655,655,655,656,701,941,1081,1211,1318,1403,1407,1403,1397,1380,1369,1356,1353,1349,1345,1338,1321,1298,1282,1265,1234,1216,1197,1180,1166,1150],"ymouse":[515,515,515,515,515,515,515,515,515,515,515,515,515,515,515,515,515,515,515,515,515,515,515,515,515,515,515,515,515,515,515,515,515,515,515,515,515,515,515,515,515,515,515,515,515,515,515,515,515,515,515,515,515,515,515,515,515,515,515,500,479,417,385,366,353,348,344,344,344,344,344,344,344,344,344,344,344,344,344,344,363,443,462,464,445,394,360,343,331,299,283,267,263,259,254,247,226,206,192,177,146,132,119,109,101,93],"timestamp_mouse":[11,27,48,69,87,107,128,147,167,188,209,228,248,276,287,309,329,349,368,389,408,428,448,468,488,509,528,548,568,589,607,627,648,668,688,708,727,748,769,788,808,828,847,868,888,909,928,947,969,989,1007,1027,1047,1068,1087,1109,1128,1148,1169,1188,1207,1227,1248,1268,1287,1307,1327,1348,1368,1388,1408,1427,1447,1467,1488,1509,1527,1548,1567,1588,1607,1628,1647,1669,1688,1709,1728,1748,1767,1788,1807,1828,1848,1867,1887,1908,1927,1947,1968,1988,2009,2028,2048,2069,2089,2109],"xSR":741.5,"ySR":469.95,"xT1":424.9,"yT1":0,"xT2":1058.1,"yT2":0,"toosoon":0,"cond_shown":"randomdotsizeEA","ratio_trial":250,"smaller_num":"2","larger_num":"8","correct_side":2,"subjID":"IsabellaPabónDíaz8","gender":"1","age":"11","school":"2019"},{"start_time":1551887646397,"click_time":1551887647523,"finger_time":1551887647123,"fix_duration":331.9022981266091,"trial":31,"RT":726,"MT":400,"sideResp":2,"stimulus":"img/500/randomdotsizeEA/R/6_Ratio_500_L_9_R_18.png","xmouse":[782,782,782,782,782,782,782,782,782,782,782,782,782,782,782,782,782,782,782,782,782,782,782,782,782,782,782,782,782,782,782,782,784,785,792,821,842,870,904,934,970,988,997,1002,1008,1017,1021,1025,1029,1031,1035,1038,1042,1047,1051,1058,1063],"ymouse":[553,553,553,553,553,553,553,553,553,553,553,553,553,553,553,553,553,553,553,553,553,553,553,553,553,553,553,553,553,553,553,553,549,547,539,516,499,474,445,418,372,339,317,296,279,246,229,216,203,193,168,157,146,136,126,104,90],"timestamp_mouse":[8,35,47,66,87,107,127,147,167,187,206,226,246,267,286,306,327,347,366,388,407,427,448,466,487,506,528,546,566,587,606,628,646,668,688,707,726,747,767,786,806,826,847,867,888,906,927,946,966,986,1006,1027,1047,1066,1086,1107,1126],"xSR":741.5,"ySR":469.95,"xT1":424.9,"yT1":0,"xT2":1058.1,"yT2":0,"toosoon":0,"cond_shown":"randomdotsizeEA","ratio_trial":500,"smaller_num":"9","larger_num":"18","correct_side":2,"subjID":"IsabellaPabónDíaz8","gender":"1","age":"11","school":"2019"},{"start_time":1551887649025,"click_time":1551887650263,"finger_time":1551887649803,"fix_duration":539.1553796398468,"trial":32,"RT":778,"MT":460,"sideResp":2,"stimulus":"img/250/randomdotsizeEA/R/12_Ratio_250_L_5_R_20.png","xmouse":[809,809,809,809,809,809,809,809,809,809,809,809,809,809,809,809,809,809,809,809,809,809,809,809,809,809,809,809,809,809,809,809,809,810,812,815,818,825,840,850,876,888,900,910,930,939,946,950,954,969,978,988,999,1008,1031,1042,1050,1057,1061,1075,1083,1091,1097],"ymouse":[528,528,528,528,528,528,528,528,528,528,528,528,528,528,528,528,528,528,528,528,528,528,528,528,528,528,528,528,528,528,528,528,528,527,523,519,514,505,482,463,421,399,378,356,309,288,270,258,252,229,217,206,193,184,167,158,152,147,143,128,118,106,95],"timestamp_mouse":[1,19,39,58,78,100,119,139,158,178,198,220,238,258,280,298,319,338,359,379,400,418,438,460,478,500,519,539,560,579,599,619,640,658,679,699,719,738,760,778,798,818,839,860,878,898,918,939,959,978,998,1018,1039,1060,1078,1098,1118,1139,1160,1179,1198,1219,1238],"xSR":741.5,"ySR":469.95,"xT1":424.9,"yT1":0,"xT2":1058.1,"yT2":0,"toosoon":0,"cond_shown":"randomdotsizeEA","ratio_trial":250,"smaller_num":"5","larger_num":"20","correct_side":2,"subjID":"IsabellaPabónDíaz8","gender":"1","age":"11","school":"2019"},{"start_time":1551887651779,"click_time":1551887653105,"finger_time":1551887652584,"fix_duration":474.7542517635632,"trial":33,"RT":805,"MT":521,"sideResp":2,"stimulus":"img/500/randomdotsizeEA/R/6_Ratio_500_L_9_R_18.png","xmouse":[799,799,799,799,799,799,799,799,799,799,799,799,799,799,799,799,799,799,799,799,799,799,799,799,799,800,801,802,803,805,806,808,812,815,820,823,827,828,830,834,837,847,854,864,873,881,898,905,914,930,940,948,964,974,983,992,1001,1017,1025,1032,1044,1056,1062,1069,1076,1083,1092],"ymouse":[527,527,527,527,527,527,527,527,527,527,527,527,527,527,527,527,527,527,527,527,527,527,527,526,525,524,523,522,521,519,517,515,508,504,497,491,485,483,479,473,467,448,433,416,402,387,357,345,329,305,290,279,254,242,228,215,204,185,173,163,149,134,126,118,111,103,90],"timestamp_mouse":[10,36,44,64,86,104,126,145,165,185,204,224,244,264,284,304,325,345,365,385,405,425,444,464,485,505,524,544,565,586,605,624,646,666,686,704,725,745,764,786,805,826,845,864,884,906,926,944,965,984,1005,1024,1046,1065,1086,1106,1126,1145,1164,1184,1205,1225,1244,1265,1285,1306,1326],"xSR":741.5,"ySR":469.95,"xT1":424.9,"yT1":0,"xT2":1058.1,"yT2":0,"toosoon":0,"cond_shown":"randomdotsizeEA","ratio_trial":500,"smaller_num":"9","larger_num":"18","correct_side":2,"subjID":"IsabellaPabónDíaz8","gender":"1","age":"11","school":"2019"},{"start_time":1551887655521,"click_time":1551887656704,"finger_time":1551887656283,"fix_duration":1396.3168659003022,"trial":34,"RT":762,"MT":421,"sideResp":2,"stimulus":"img/250/equaldotsize/R/13_Ratio_250_L_2_R_8.png","xmouse":[790,790,790,790,790,790,790,790,790,790,790,790,790,790,790,790,790,790,790,790,790,790,790,790,790,790,790,790,790,790,790,790,790,790,790,801,819,836,858,877,911,920,935,955,977,1005,1018,1024,1029,1034,1040,1042,1042,1044,1049,1055,1057,1058,1058,1060],"ymouse":[511,511,511,511,511,511,511,511,511,511,511,511,511,511,511,511,511,511,511,511,511,511,511,511,511,511,511,511,511,511,511,511,511,511,512,507,497,485,469,449,391,367,330,284,232,172,148,131,117,104,90,86,86,86,86,86,86,86,86,85],"timestamp_mouse":[9,28,43,62,83,103,122,143,162,182,204,223,243,262,282,302,323,342,363,382,402,422,443,463,483,502,522,542,563,582,604,623,643,664,682,702,723,744,762,782,803,823,843,862,882,902,922,942,963,983,1002,1022,1042,1062,1082,1102,1122,1142,1163,1182],"xSR":741.5,"ySR":469.95,"xT1":424.9,"yT1":0,"xT2":1058.1,"yT2":0,"toosoon":0,"cond_shown":"equaldotsize","ratio_trial":250,"smaller_num":"2","larger_num":"8","correct_side":2,"subjID":"IsabellaPabónDíaz8","gender":"1","age":"11","school":"2019"},{"start_time":1551887658420,"click_time":1551887659405,"finger_time":1551887659023,"fix_duration":695.2625135030348,"trial":35,"RT":603,"MT":382,"sideResp":2,"stimulus":"img/250/equaldotsize/R/4_Ratio_250_L_3_R_12.png","xmouse":[808,808,808,808,808,808,808,808,808,808,808,808,808,808,808,808,808,808,808,808,808,808,808,808,808,808,810,816,826,837,857,869,882,893,906,940,954,968,977,984,997,1005,1013,1020,1035,1061,1075,1082,1085,1087],"ymouse":[529,529,529,529,529,529,529,529,529,529,529,529,529,529,529,529,529,529,529,529,529,529,529,529,529,530,528,522,512,500,469,448,423,396,366,290,265,243,227,215,196,188,177,168,152,127,116,108,103,99],"timestamp_mouse":[8,34,43,63,83,104,125,145,164,185,203,223,244,264,283,303,323,343,363,385,404,424,443,463,483,503,523,545,564,583,603,625,644,663,684,703,724,744,763,783,804,824,843,864,885,904,923,944,964,985],"xSR":741.5,"ySR":469.95,"xT1":424.9,"yT1":0,"xT2":1058.1,"yT2":0,"toosoon":0,"cond_shown":"equaldotsize","ratio_trial":250,"smaller_num":"3","larger_num":"12","correct_side":2,"subjID":"IsabellaPabónDíaz8","gender":"1","age":"11","school":"2019"},{"start_time":1551887661063,"click_time":1551887662444,"finger_time":1551887661463,"fix_duration":598.0877272948293,"trial":36,"RT":400,"MT":981,"sideResp":1,"stimulus":"img/750/equaldotsize/R/15_Ratio_750_L_9_R_12.png","xmouse":[793,793,793,793,793,793,793,793,793,793,793,793,793,793,793,793,793,794,808,818,833,855,864,874,892,899,905,910,916,919,921,924,926,929,938,944,947,951,956,959,962,967,970,970,971,971,972,973,975,975,976,978,978,979,980,980,980,979,956,840,765,660,618,581,569,560,548,538,525,521],"ymouse":[508,508,508,508,508,508,508,508,508,508,508,508,508,508,508,508,509,509,492,481,464,439,428,417,394,384,375,368,359,354,352,346,343,337,321,311,303,295,283,276,269,257,252,251,249,248,248,247,242,240,238,235,234,231,229,228,227,223,214,178,158,130,117,105,99,95,90,85,78,76],"timestamp_mouse":[5,20,40,61,81,100,121,142,160,181,200,221,241,260,281,300,322,341,361,381,400,421,442,462,480,501,521,542,561,580,601,620,642,660,680,701,722,740,761,780,801,822,840,860,880,900,921,940,961,980,1001,1021,1041,1062,1080,1102,1120,1141,1161,1180,1201,1220,1242,1262,1280,1301,1321,1342,1362,1380],"xSR":741.5,"ySR":469.95,"xT1":424.9,"yT1":0,"xT2":1058.1,"yT2":0,"toosoon":0,"cond_shown":"equaldotsize","ratio_trial":750,"smaller_num":"9","larger_num":"12","correct_side":2,"subjID":"IsabellaPabónDíaz8","gender":"1","age":"11","school":"2019"},{"start_time":1551887664731,"click_time":1551887666544,"finger_time":1551887666043,"fix_duration":1446.0730970203585,"trial":37,"RT":1312,"MT":501,"sideResp":2,"stimulus":"img/900/equaldotanddens/L/2_Ratio_900_L_20_R_18.png","xmouse":[773,773,773,773,773,773,773,773,773,774,775,775,775,775,775,775,775,775,775,775,775,775,775,775,775,775,775,775,775,775,775,775,775,775,776,781,782,784,786,788,791,793,795,796,796,797,797,797,797,797,797,797,797,797,797,797,797,797,797,797,797,797,798,798,800,806,811,813,815,816,817,819,821,823,825,835,847,865,883,906,960,981,997,1009,1020,1044,1046,1049,1052,1055,1059],"ymouse":[515,515,515,515,515,515,515,515,515,516,517,517,518,518,518,518,518,518,518,518,518,518,518,518,518,518,518,518,518,518,518,518,518,518,519,517,516,514,512,509,501,497,493,490,488,486,483,483,483,483,483,483,483,483,483,483,483,483,483,483,483,483,480,479,476,462,451,445,437,431,419,414,405,399,390,366,348,324,303,282,235,216,197,180,162,104,79,59,48,40,34],"timestamp_mouse":[13,32,52,73,93,113,132,152,174,192,213,233,253,272,292,313,333,354,372,392,412,432,453,473,492,512,534,552,572,592,612,632,652,672,694,713,733,754,773,792,812,833,853,874,893,912,933,952,974,992,1012,1033,1053,1072,1092,1112,1133,1153,1173,1193,1212,1234,1252,1272,1293,1312,1332,1352,1374,1393,1412,1434,1453,1484,1492,1512,1532,1553,1573,1594,1612,1632,1654,1672,1692,1712,1734,1753,1773,1792,1813],"xSR":741.5,"ySR":469.95,"xT1":424.9,"yT1":0,"xT2":1058.1,"yT2":0,"toosoon":0,"cond_shown":"equaldotanddens","ratio_trial":900,"smaller_num":"18","larger_num":"20","correct_side":1,"subjID":"IsabellaPabónDíaz8","gender":"1","age":"11","school":"2019"},{"start_time":1551887669632,"click_time":1551887670924,"finger_time":1551887670545,"fix_duration":607.9354565881725,"trial":38,"RT":913,"MT":379,"sideResp":2,"stimulus":"img/750/equaldotsize/R/15_Ratio_750_L_9_R_12.png","xmouse":[814,814,814,814,814,814,814,814,814,814,814,814,814,814,814,814,814,814,814,814,814,814,814,814,814,814,814,814,814,814,814,814,814,814,814,814,814,814,814,814,814,814,815,818,831,864,885,914,933,955,964,994,1009,1020,1028,1036,1044,1048,1054,1058,1068,1074,1081,1087,1093],"ymouse":[502,502,502,502,502,502,502,502,502,502,502,502,502,502,502,502,502,502,502,502,502,502,502,502,502,502,502,502,502,502,502,502,502,502,502,502,502,502,502,502,502,502,501,499,485,457,439,415,397,374,357,304,280,260,243,227,202,189,172,159,137,125,114,104,93],"timestamp_mouse":[11,32,51,71,92,112,131,153,172,192,211,232,252,273,291,312,333,352,372,393,412,431,451,471,493,511,531,552,573,592,612,631,652,671,691,712,731,752,772,791,812,833,851,872,891,913,932,951,971,991,1011,1033,1051,1071,1092,1112,1132,1151,1171,1191,1213,1231,1252,1271,1291],"xSR":741.5,"ySR":469.95,"xT1":424.9,"yT1":0,"xT2":1058.1,"yT2":0,"toosoon":0,"cond_shown":"equaldotsize","ratio_trial":750,"smaller_num":"9","larger_num":"12","correct_side":2,"subjID":"IsabellaPabónDíaz8","gender":"1","age":"11","school":"2019"},{"start_time":1551887672071,"click_time":1551887673684,"finger_time":1551887673344,"fix_duration":264.6270365278394,"trial":39,"RT":1273,"MT":340,"sideResp":2,"stimulus":"img/500/equaldotsize/R/9_Ratio_500_L_2_R_4.png","xmouse":[775,775,775,775,775,775,775,775,775,775,775,775,775,775,775,775,775,775,775,775,775,775,775,775,775,775,775,775,775,775,775,775,775,775,775,775,775,775,775,775,775,775,775,775,775,775,775,775,775,775,775,775,775,775,775,775,775,775,777,784,791,804,819,841,887,919,937,949,960,978,986,995,1002,1011,1027,1038,1045,1049,1053,1058,1061],"ymouse":[535,535,535,535,535,535,535,535,535,535,535,535,535,535,535,535,535,535,535,535,535,535,535,535,535,535,535,535,535,535,535,535,535,535,535,535,535,535,535,535,535,535,535,535,535,535,535,535,535,535,535,535,535,535,535,535,535,535,531,524,517,501,480,449,374,323,293,271,251,221,207,192,181,168,145,131,120,114,109,100,96],"timestamp_mouse":[12,34,52,72,93,114,132,152,173,194,212,233,253,273,293,313,332,353,372,393,413,433,452,472,492,513,532,553,573,592,612,632,652,674,694,713,733,753,774,794,812,832,853,872,894,913,934,952,972,993,1013,1032,1052,1072,1093,1113,1134,1152,1174,1192,1213,1233,1254,1273,1292,1312,1333,1352,1372,1393,1412,1432,1452,1473,1492,1512,1532,1553,1574,1592,1612],"xSR":741.5,"ySR":469.95,"xT1":424.9,"yT1":0,"xT2":1058.1,"yT2":0,"toosoon":0,"cond_shown":"equaldotsize","ratio_trial":500,"smaller_num":"2","larger_num":"4","correct_side":2,"subjID":"IsabellaPabónDíaz8","gender":"1","age":"11","school":"2019"},{"start_time":1551887675614,"click_time":1551887677765,"finger_time":1551887677265,"fix_duration":849.2853376774093,"trial":40,"RT":1651,"MT":500,"sideResp":1,"stimulus":"img/900/equaldotsize/R/3_Ratio_900_L_9_R_10.png","xmouse":[792,792,792,792,792,792,792,792,792,792,792,792,792,792,792,792,792,792,792,792,792,792,792,792,792,792,792,792,792,792,792,792,792,792,792,792,792,792,792,792,792,792,792,792,792,792,792,792,792,792,792,792,792,792,792,792,792,792,792,792,792,792,792,792,792,792,792,792,792,792,792,792,792,792,792,792,792,792,792,792,792,787,785,765,756,746,737,714,704,689,670,649,630,604,597,588,570,559,540,533,529,526,518,515,512,506,503,498],"ymouse":[483,483,483,483,483,483,483,483,483,483,483,483,483,483,483,483,483,483,483,483,483,483,483,483,483,483,483,483,483,483,483,483,483,483,483,483,483,483,483,483,483,483,483,483,483,483,483,483,483,483,483,483,483,483,483,483,483,483,483,483,483,483,483,483,483,483,483,483,483,483,483,483,483,483,483,483,483,483,483,483,483,470,460,421,404,388,373,337,321,305,287,271,256,234,226,216,196,183,163,153,148,142,130,125,117,108,100,93],"timestamp_mouse":[11,29,50,69,89,109,129,150,171,189,209,229,249,269,289,310,330,352,370,391,412,431,450,471,490,510,530,550,572,591,611,631,651,670,690,711,730,750,771,792,811,830,851,871,892,912,931,950,972,991,1012,1031,1051,1071,1092,1111,1130,1150,1170,1190,1211,1232,1250,1271,1290,1310,1330,1350,1371,1391,1411,1430,1451,1470,1492,1510,1530,1550,1571,1591,1610,1632,1650,1671,1690,1710,1731,1751,1770,1792,1810,1831,1851,1872,1890,1911,1932,1950,1970,1991,2012,2032,2051,2070,2090,2110,2131,2151],"xSR":741.5,"ySR":469.95,"xT1":424.9,"yT1":0,"xT2":1058.1,"yT2":0,"toosoon":0,"cond_shown":"equaldotsize","ratio_trial":900,"smaller_num":"9","larger_num":"10","correct_side":2,"subjID":"IsabellaPabónDíaz8","gender":"1","age":"11","school":"2019"},{"start_time":1551887679097,"click_time":1551887680505,"finger_time":1551887680025,"fix_duration":250,"trial":41,"RT":928,"MT":480,"sideResp":1,"stimulus":"img/900/equaldotsize/L/1_Ratio_900_L_10_R_9.png","xmouse":[815,815,815,815,815,815,815,815,815,815,815,815,815,815,815,815,815,815,815,815,815,815,815,815,815,815,815,815,815,815,815,815,815,815,815,815,815,815,815,815,815,815,815,808,796,773,748,721,684,669,648,633,629,625,623,620,618,616,612,607,601,593,582,571,554,549,546,541,536,523,512],"ymouse":[529,529,529,529,529,529,529,529,529,529,529,529,529,529,529,529,529,529,529,529,529,529,529,529,529,529,529,529,529,529,529,529,529,529,529,529,529,529,529,529,529,529,529,522,507,474,434,395,339,315,288,269,261,253,250,246,244,241,235,226,220,209,194,180,154,145,137,129,121,105,94],"timestamp_mouse":[9,30,48,67,88,107,128,148,169,187,207,229,248,267,288,308,329,348,367,387,409,427,447,468,488,509,527,547,569,587,609,627,647,669,688,708,729,747,768,788,807,828,849,869,888,909,928,949,969,987,1008,1027,1048,1068,1087,1109,1127,1149,1169,1188,1207,1228,1248,1268,1288,1308,1327,1348,1367,1387,1408],"xSR":741.5,"ySR":469.95,"xT1":424.9,"yT1":0,"xT2":1058.1,"yT2":0,"toosoon":0,"cond_shown":"equaldotsize","ratio_trial":900,"smaller_num":"9","larger_num":"10","correct_side":1,"subjID":"IsabellaPabónDíaz8","gender":"1","age":"11","school":"2019"},{"start_time":1551887681775,"click_time":1551887682946,"finger_time":1551887682546,"fix_duration":250,"trial":42,"RT":771,"MT":400,"sideResp":2,"stimulus":"img/250/equaldotsize/R/11_Ratio_250_L_3_R_12.png","xmouse":[776,776,776,776,776,776,776,776,776,776,776,776,776,776,776,776,776,776,776,776,776,776,776,776,776,776,776,776,776,776,776,776,776,776,776,779,786,796,805,819,864,888,910,923,932,950,961,968,973,976,982,987,992,1001,1012,1038,1050,1060,1072],"ymouse":[504,504,504,504,504,504,504,504,504,504,504,504,504,504,504,504,504,504,504,504,504,504,504,504,504,504,504,504,504,504,504,504,504,504,504,502,489,471,453,432,371,338,309,291,278,249,229,215,207,201,190,182,173,165,154,131,121,111,99],"timestamp_mouse":[14,34,51,69,90,109,130,149,170,189,211,230,249,271,290,310,330,350,370,389,411,429,450,471,489,511,530,550,570,589,609,631,650,670,690,709,730,750,771,790,811,829,850,870,889,909,931,950,971,991,1010,1030,1050,1069,1089,1110,1131,1149,1171],"xSR":741.5,"ySR":469.95,"xT1":424.9,"yT1":0,"xT2":1058.1,"yT2":0,"toosoon":0,"cond_shown":"equaldotsize","ratio_trial":250,"smaller_num":"3","larger_num":"12","correct_side":2,"subjID":"IsabellaPabónDíaz8","gender":"1","age":"11","school":"2019"},{"start_time":1551887684965,"click_time":1551887687324,"finger_time":1551887686685,"fix_duration":897.782311177427,"trial":43,"RT":1720,"MT":639,"sideResp":1,"stimulus":"img/900/equaldotsize/R/12_Ratio_900_L_18_R_20.png","xmouse":[778,778,778,778,778,778,778,778,778,778,778,778,778,778,778,778,778,778,778,778,778,778,778,778,778,778,778,778,778,778,778,778,778,778,778,778,778,778,778,778,777,772,767,764,762,760,759,758,757,757,756,755,755,755,754,754,753,753,753,753,752,752,751,751,751,750,750,750,750,750,750,749,749,749,749,749,749,749,749,749,749,749,749,749,749,742,729,695,676,660,650,632,620,606,584,568,550,517,506,494,483,471,442,424,407,403,401,401,401,401,401,405,405,407,410,413,416,422,426],"ymouse":[552,552,552,552,552,552,552,552,552,552,552,552,552,552,552,552,552,552,552,552,552,552,552,552,552,552,552,552,552,552,552,552,552,552,552,552,552,552,552,552,552,544,537,532,529,526,525,523,523,521,519,519,519,518,517,517,516,515,515,515,514,514,513,513,512,512,511,511,511,511,511,511,511,511,511,511,511,511,511,511,511,511,511,511,510,504,494,468,452,436,421,394,376,357,332,313,296,264,251,235,219,201,161,140,114,104,92,90,88,86,84,81,80,79,78,77,76,74,73],"timestamp_mouse":[1,20,39,60,80,99,119,140,159,181,201,219,240,259,280,300,320,339,360,379,401,420,440,459,479,501,519,539,560,579,600,620,639,660,680,700,720,739,759,781,799,820,839,859,881,900,920,941,959,980,999,1020,1040,1059,1080,1101,1120,1141,1160,1181,1200,1219,1240,1259,1279,1300,1319,1340,1360,1379,1400,1419,1441,1460,1480,1500,1520,1540,1559,1579,1599,1621,1639,1659,1680,1700,1720,1741,1760,1781,1800,1820,1840,1859,1881,1900,1919,1941,1959,1980,1999,2020,2040,2061,2081,2100,2120,2140,2159,2179,2200,2222,2240,2259,2279,2299,2321,2340,2359],"xSR":741.5,"ySR":469.95,"xT1":424.9,"yT1":0,"xT2":1058.1,"yT2":0,"toosoon":0,"cond_shown":"equaldotsize","ratio_trial":900,"smaller_num":"18","larger_num":"20","correct_side":2,"subjID":"IsabellaPabónDíaz8","gender":"1","age":"11","school":"2019"},{"start_time":1551887690180,"click_time":1551887691306,"finger_time":1551887690945,"fix_duration":392.86892401827447,"trial":44,"RT":765,"MT":361,"sideResp":2,"stimulus":"img/900/randomdotsizeEA/L/8_Ratio_900_L_20_R_18.png","xmouse":[813,813,813,813,813,813,813,813,813,813,813,813,813,813,813,813,813,813,813,813,813,813,813,813,813,813,813,813,813,813,813,813,814,815,818,823,835,841,852,867,890,928,943,955,971,989,1030,1050,1066,1079,1097,1110,1113,1114,1116,1119,1131],"ymouse":[531,531,531,531,531,531,531,531,531,531,531,531,531,531,531,531,531,531,531,531,531,531,531,531,531,531,531,531,531,531,531,531,530,526,521,514,492,480,464,438,403,349,322,302,281,254,196,172,155,143,130,120,117,115,111,105,85],"timestamp_mouse":[10,34,44,64,84,104,124,144,166,185,204,224,245,264,284,305,324,345,365,384,405,424,445,466,484,505,526,545,564,586,604,626,644,665,685,704,725,744,765,784,805,824,844,864,886,906,924,944,964,984,1006,1024,1045,1064,1085,1106,1126],"xSR":741.5,"ySR":469.95,"xT1":424.9,"yT1":0,"xT2":1058.1,"yT2":0,"toosoon":0,"cond_shown":"randomdotsizeEA","ratio_trial":900,"smaller_num":"18","larger_num":"20","correct_side":1,"subjID":"IsabellaPabónDíaz8","gender":"1","age":"11","school":"2019"},{"start_time":1551887693475,"click_time":1551887695365,"finger_time":1551887694805,"fix_duration":1367.658770835239,"trial":45,"RT":1330,"MT":560,"sideResp":2,"stimulus":"img/750/randomdotsizeEA/R/12_Ratio_750_L_3_R_4.png","xmouse":[771,771,771,771,771,771,771,771,771,771,771,771,771,771,771,771,771,771,771,771,771,771,771,771,771,771,771,771,771,771,771,771,771,771,771,771,771,771,769,768,768,768,768,768,768,768,768,768,768,768,768,768,768,768,768,768,768,768,768,768,768,768,772,777,791,821,852,860,868,878,888,918,934,950,967,987,1003,1010,1014,1020,1027,1041,1047,1052,1058,1072,1085,1086,1089,1089,1090,1095,1096,1098,1102],"ymouse":[542,541,541,541,541,541,541,541,541,541,541,540,540,540,540,540,538,538,538,538,538,538,537,537,537,537,537,537,537,537,537,537,537,537,537,537,537,536,536,535,535,535,535,535,535,535,535,535,535,535,535,535,535,535,535,535,535,535,535,535,535,535,533,530,520,492,451,430,413,395,375,342,330,318,307,293,281,277,274,271,265,251,244,238,230,216,199,194,187,178,168,147,137,124,99],"timestamp_mouse":[9,39,50,69,89,111,131,150,170,191,211,229,249,271,291,310,329,349,370,391,411,429,450,471,489,511,530,550,570,590,609,629,650,669,689,711,729,750,770,789,811,830,850,869,890,909,930,950,969,990,1011,1029,1050,1070,1090,1110,1130,1150,1171,1189,1210,1231,1249,1269,1291,1311,1330,1349,1369,1389,1411,1430,1450,1469,1489,1511,1530,1549,1569,1589,1611,1630,1649,1669,1689,1710,1730,1749,1769,1789,1810,1830,1850,1869,1890],"xSR":741.5,"ySR":469.95,"xT1":424.9,"yT1":0,"xT2":1058.1,"yT2":0,"toosoon":0,"cond_shown":"randomdotsizeEA","ratio_trial":750,"smaller_num":"3","larger_num":"4","correct_side":2,"subjID":"IsabellaPabónDíaz8","gender":"1","age":"11","school":"2019"},{"start_time":1551887697225,"click_time":1551887698665,"finger_time":1551887698144,"fix_duration":938.8158989798821,"trial":46,"RT":919,"MT":521,"sideResp":1,"stimulus":"img/900/equaldotsize/L/1_Ratio_900_L_10_R_9.png","xmouse":[806,806,806,806,806,806,806,806,806,806,806,806,806,806,806,806,806,806,806,806,806,806,806,806,806,806,806,806,806,806,806,806,806,806,806,806,806,806,806,806,806,805,802,791,780,769,758,747,734,722,710,708,705,702,697,667,634,619,612,610,587,571,559,548,540,521,510,501,493,486,481,481,481],"ymouse":[552,552,552,552,552,552,552,552,552,552,552,552,552,552,552,552,552,552,552,552,552,552,552,552,552,552,552,552,552,552,552,552,552,552,552,552,552,552,552,552,552,551,542,519,504,474,443,421,401,386,370,365,360,354,346,319,302,296,292,291,276,266,256,249,242,224,208,194,173,151,119,107,99],"timestamp_mouse":[1,27,39,59,79,100,121,140,159,179,199,220,239,259,280,300,320,339,361,379,400,420,440,459,480,500,520,539,559,580,599,620,639,660,680,700,720,741,760,781,800,820,839,859,880,899,919,939,961,979,999,1019,1039,1060,1080,1100,1121,1140,1159,1180,1200,1220,1240,1259,1279,1299,1320,1340,1359,1379,1399,1420,1440],"xSR":741.5,"ySR":469.95,"xT1":424.9,"yT1":0,"xT2":1058.1,"yT2":0,"toosoon":0,"cond_shown":"equaldotsize","ratio_trial":900,"smaller_num":"9","larger_num":"10","correct_side":1,"subjID":"IsabellaPabónDíaz8","gender":"1","age":"11","school":"2019"},{"start_time":1551887700657,"click_time":1551887703805,"finger_time":1551887703086,"fix_duration":931.7537851137201,"trial":47,"RT":2429,"MT":719,"sideResp":1,"stimulus":"img/900/equaldotanddens/L/10_Ratio_900_L_20_R_18.png","xmouse":[783,783,783,783,783,783,783,783,783,783,783,783,783,783,783,783,783,783,783,783,783,783,783,783,783,783,783,783,783,783,783,783,783,783,783,783,783,783,783,783,783,783,783,783,783,783,783,783,783,783,783,783,783,783,783,783,783,783,783,783,783,783,783,783,784,784,784,785,785,785,785,785,785,785,785,785,785,785,785,785,785,785,785,785,785,785,785,785,785,785,785,785,785,785,785,785,785,785,785,785,785,785,785,785,785,785,785,785,785,785,785,785,785,785,785,785,785,785,785,782,775,747,728,701,692,686,681,674,655,643,623,600,580,535,528,526,525,524,522,521,520,519,519,519,519,519,519,519,517,516,510,505,498,497,496,495,494,494],"ymouse":[500,500,500,500,500,500,500,500,500,500,500,500,500,500,500,500,500,500,500,500,500,500,500,500,500,500,500,500,500,500,500,500,500,500,500,500,500,500,500,500,500,500,500,500,500,500,500,500,500,500,500,500,500,500,500,500,500,500,500,500,500,500,500,500,500,500,500,500,500,500,500,500,500,500,500,500,500,500,500,500,500,500,500,500,500,500,500,500,500,500,500,500,500,500,500,500,500,500,500,500,500,500,500,500,500,500,500,500,500,500,500,500,500,500,500,500,500,500,500,495,485,440,412,381,370,362,355,347,325,313,296,279,263,232,224,222,219,216,212,202,196,191,186,177,173,168,163,159,151,145,137,128,117,109,106,103,100,99],"timestamp_mouse":[10,37,48,67,88,109,127,148,167,187,209,228,248,269,287,307,328,348,367,389,407,429,447,467,487,508,528,548,569,588,608,629,648,668,689,707,727,748,768,787,807,827,847,867,889,908,928,947,968,987,1008,1028,1047,1068,1089,1107,1127,1149,1167,1188,1207,1228,1248,1267,1288,1309,1329,1348,1368,1387,1408,1429,1449,1467,1488,1507,1528,1549,1568,1587,1607,1628,1649,1668,1687,1707,1729,1748,1768,1788,1807,1828,1848,1867,1888,1908,1929,1948,1968,1987,2007,2029,2048,2067,2088,2108,2127,2149,2167,2187,2208,2229,2248,2268,2287,2309,2327,2347,2368,2387,2407,2429,2448,2468,2487,2507,2529,2547,2568,2587,2608,2628,2647,2668,2687,2707,2727,2747,2768,2787,2808,2829,2849,2868,2887,2907,2927,2948,2968,2987,3007,3029,3048,3067,3087,3107,3127,3148],"xSR":741.5,"ySR":469.95,"xT1":424.9,"yT1":0,"xT2":1058.1,"yT2":0,"toosoon":0,"cond_shown":"equaldotanddens","ratio_trial":900,"smaller_num":"18","larger_num":"20","correct_side":1,"subjID":"IsabellaPabónDíaz8","gender":"1","age":"11","school":"2019"},{"start_time":1551887705797,"click_time":1551887706885,"finger_time":1551887706424,"fix_duration":470.74081335654415,"trial":48,"RT":627,"MT":461,"sideResp":2,"stimulus":"img/250/equaldotanddens/R/9_Ratio_250_L_3_R_12.png","xmouse":[787,787,787,787,787,787,787,787,787,787,787,787,787,787,787,787,787,787,787,787,787,787,787,787,787,787,787,787,793,801,830,884,959,977,991,1001,1022,1028,1033,1034,1034,1037,1045,1058,1063,1067,1069,1073,1075,1077,1079,1082,1094,1109,1117],"ymouse":[515,515,515,515,515,515,515,515,515,515,515,515,515,515,515,515,515,515,515,515,515,515,515,515,515,515,515,515,515,515,515,500,467,446,411,389,339,315,294,277,263,239,220,194,183,175,170,160,157,154,148,142,126,108,99],"timestamp_mouse":[10,30,48,68,87,108,128,147,168,187,208,227,247,267,288,307,329,347,367,388,407,428,447,467,487,507,527,547,567,588,607,627,648,668,688,709,729,747,768,787,809,829,847,867,887,908,927,947,967,993,1009,1028,1048,1067,1088],"xSR":741.5,"ySR":469.95,"xT1":424.9,"yT1":0,"xT2":1058.1,"yT2":0,"toosoon":0,"cond_shown":"equaldotanddens","ratio_trial":250,"smaller_num":"3","larger_num":"12","correct_side":2,"subjID":"IsabellaPabónDíaz8","gender":"1","age":"11","school":"2019"},{"start_time":1551887708276,"click_time":1551887709345,"finger_time":1551887709045,"fix_duration":250,"trial":49,"RT":769,"MT":300,"sideResp":1,"stimulus":"img/500/equaldotanddens/L/4_Ratio_500_L_18_R_9.png","xmouse":[803,803,803,803,803,803,803,803,803,803,803,803,803,803,803,803,803,803,803,803,803,803,803,803,803,803,803,803,803,803,803,803,803,803,803,803,803,804,787,771,743,710,683,658,650,641,630,619,570,559,549,540,529,517],"ymouse":[518,518,518,518,518,518,518,518,518,518,518,518,518,518,518,518,518,518,518,518,518,518,518,518,518,518,518,518,518,518,518,518,518,518,518,518,518,516,454,397,335,276,229,170,153,140,127,114,74,65,56,49,43,37],"timestamp_mouse":[10,28,49,70,90,108,129,149,168,189,208,230,248,270,289,308,330,348,369,390,409,428,449,468,488,509,528,549,569,589,609,630,649,668,689,709,730,749,769,790,809,828,849,868,890,909,928,950,968,990,1009,1029,1049,1069],"xSR":741.5,"ySR":469.95,"xT1":424.9,"yT1":0,"xT2":1058.1,"yT2":0,"toosoon":0,"cond_shown":"equaldotanddens","ratio_trial":500,"smaller_num":"9","larger_num":"18","correct_side":1,"subjID":"IsabellaPabónDíaz8","gender":"1","age":"11","school":"2019"},{"start_time":1551887711548,"click_time":1551887713206,"finger_time":1551887712004,"fix_duration":1241.529226250367,"trial":50,"RT":456,"MT":1202,"sideResp":1,"stimulus":"img/750/equaldotanddens/L/8_Ratio_750_L_4_R_3.png","xmouse":[819,819,819,819,819,819,819,819,819,819,819,819,820,820,820,821,822,822,824,825,832,835,842,845,862,869,878,884,890,898,915,924,945,963,993,1001,1007,1015,1023,1035,1044,1048,1061,1070,1080,1082,1084,1085,1085,1086,1087,1087,1087,1087,1087,1087,1087,1087,1087,1087,1077,1067,1059,1051,1039,981,916,830,738,608,587,582,582,582,578,573,568,562,560,559,554,546,524],"ymouse":[518,518,518,518,518,518,518,518,518,518,516,516,516,515,515,514,513,512,510,509,499,494,480,475,440,425,411,400,388,375,353,343,328,316,291,284,278,267,259,240,224,217,198,187,170,163,158,153,149,143,140,137,134,134,134,134,134,134,133,133,134,137,139,140,141,141,134,115,88,51,44,43,43,43,42,40,39,37,37,37,37,37,37],"timestamp_mouse":[31,37,57,76,97,117,136,157,177,197,216,236,256,277,297,317,336,358,376,397,418,437,456,477,497,516,536,557,576,597,617,636,656,676,696,717,737,757,778,797,816,837,856,877,896,917,937,957,977,997,1016,1037,1057,1076,1097,1118,1136,1156,1176,1198,1217,1237,1258,1276,1296,1316,1338,1357,1377,1397,1417,1437,1457,1478,1497,1517,1537,1557,1577,1596,1616,1637,1657],"xSR":741.5,"ySR":469.95,"xT1":424.9,"yT1":0,"xT2":1058.1,"yT2":0,"toosoon":0,"cond_shown":"equaldotanddens","ratio_trial":750,"smaller_num":"3","larger_num":"4","correct_side":1,"subjID":"IsabellaPabónDíaz8","gender":"1","age":"11","school":"2019"},{"start_time":1551887717101,"click_time":1551887718304,"finger_time":1551887717785,"fix_duration":1354.5671850055624,"trial":51,"RT":684,"MT":519,"sideResp":2,"stimulus":"img/900/randomdotsizeEA/R/7_Ratio_900_L_9_R_10.png","xmouse":[799,799,799,799,799,799,799,799,799,799,799,799,799,799,799,799,799,799,799,799,799,799,799,799,799,799,799,799,799,803,804,809,816,839,852,867,882,906,962,993,1031,1058,1077,1096,1100,1103,1106,1108,1116,1118,1119,1119,1119,1119,1119,1118,1118,1116,1112,1106,1095],"ymouse":[521,521,521,521,521,521,520,520,520,520,520,520,520,520,520,520,520,520,520,520,520,520,520,520,520,520,520,520,520,518,517,515,512,493,480,463,441,408,339,308,275,251,237,209,202,195,188,183,161,150,142,137,131,117,114,112,110,109,105,101,96],"timestamp_mouse":[10,27,44,63,85,105,125,144,164,185,204,225,243,263,284,303,323,343,365,383,403,423,444,464,484,503,523,544,564,583,603,624,644,663,684,704,724,743,763,784,804,824,845,864,884,904,924,943,963,984,1004,1024,1043,1063,1084,1105,1124,1145,1164,1183,1203],"xSR":741.5,"ySR":469.95,"xT1":424.9,"yT1":0,"xT2":1058.1,"yT2":0,"toosoon":0,"cond_shown":"randomdotsizeEA","ratio_trial":900,"smaller_num":"9","larger_num":"10","correct_side":2,"subjID":"IsabellaPabónDíaz8","gender":"1","age":"11","school":"2019"},{"start_time":1551887721132,"click_time":1551887723365,"finger_time":1551887722145,"fix_duration":1385.1056996250363,"trial":52,"RT":1013,"MT":1220,"sideResp":2,"stimulus":"img/750/randomdotsizeEA/L/14_Ratio_750_L_8_R_6.png","xmouse":[797,797,797,797,797,797,797,797,797,797,797,797,797,797,797,797,797,797,797,797,797,797,797,797,797,797,797,797,797,797,797,797,797,797,797,797,797,797,797,797,797,797,797,797,797,797,798,802,804,811,829,855,869,888,923,975,1095,1172,1280,1332,1359,1367,1375,1378,1380,1380,1381,1381,1380,1378,1375,1366,1360,1350,1340,1334,1334,1334,1334,1334,1334,1334,1334,1334,1334,1334,1334,1334,1334,1334,1334,1334,1334,1334,1334,1334,1334,1017,1020,1023,1024,1025,1028,1029,1031,1032,1034,1034,1035,1036,1044,1061],"ymouse":[523,523,523,523,523,523,523,523,523,523,523,523,523,523,523,523,523,523,523,523,523,523,523,523,523,523,523,523,523,523,523,523,523,523,523,523,523,523,523,523,523,523,523,523,523,521,519,505,495,480,452,414,398,379,356,328,280,255,198,163,142,129,104,92,77,68,59,44,36,27,21,10,7,3,1,0,0,0,0,0,0,0,0,0,0,0,0,0,0,0,0,0,0,0,0,0,0,1,5,8,11,12,14,16,17,18,19,19,20,21,23,25],"timestamp_mouse":[13,35,53,72,93,112,133,154,174,192,214,234,253,273,294,312,333,352,373,392,413,433,453,472,494,512,532,553,573,592,613,634,654,673,692,713,732,753,773,792,813,833,852,873,893,912,933,952,974,992,1013,1033,1052,1074,1093,1113,1134,1152,1173,1192,1213,1234,1252,1273,1293,1314,1332,1352,1373,1393,1413,1434,1452,1474,1493,1512,1534,1553,1573,1593,1612,1637,1652,1673,1694,1712,1733,1754,1773,1793,1812,1834,1852,1872,1894,1913,1932,1952,1972,1993,2013,2033,2052,2072,2092,2114,2134,2153,2172,2194,2212,2233],"xSR":741.5,"ySR":469.95,"xT1":424.9,"yT1":0,"xT2":1058.1,"yT2":0,"toosoon":0,"cond_shown":"randomdotsizeEA","ratio_trial":750,"smaller_num":"6","larger_num":"8","correct_side":1,"subjID":"IsabellaPabónDíaz8","gender":"1","age":"11","school":"2019"},{"start_time":1551887727440,"click_time":1551887728985,"finger_time":1551887728305,"fix_duration":653.8241002515763,"trial":53,"RT":865,"MT":680,"sideResp":1,"stimulus":"img/900/equaldotsize/R/6_Ratio_900_L_9_R_10.png","xmouse":[791,791,791,791,791,791,791,791,791,791,791,791,791,791,791,791,791,791,791,791,791,791,791,791,791,791,791,791,791,791,791,791,791,791,791,791,791,791,791,791,791,791,788,768,745,714,681,628,612,601,594,594,594,594,594,594,594,594,594,594,594,594,594,594,594,540,537,533,533,533,533,533,533,533,533,533,533,523],"ymouse":[508,508,508,508,508,508,508,508,508,508,508,508,508,508,508,508,508,508,508,508,508,508,508,508,508,508,508,508,508,508,508,508,508,508,508,508,508,508,508,508,508,508,497,461,399,327,254,115,63,25,1,1,1,1,1,1,1,1,1,1,1,1,1,1,1,1,33,74,81,84,84,84,84,84,84,84,84,78],"timestamp_mouse":[9,27,45,64,86,104,126,144,166,185,205,224,245,265,284,304,325,345,366,384,406,424,445,464,486,505,525,545,564,585,604,624,645,664,684,704,724,744,764,786,805,826,844,865,884,905,925,946,966,985,1005,1025,1045,1064,1085,1104,1124,1146,1165,1185,1205,1225,1246,1265,1284,1304,1324,1345,1364,1384,1405,1424,1444,1465,1484,1504,1525,1545],"xSR":741.5,"ySR":469.95,"xT1":424.9,"yT1":0,"xT2":1058.1,"yT2":0,"toosoon":0,"cond_shown":"equaldotsize","ratio_trial":900,"smaller_num":"9","larger_num":"10","correct_side":2,"subjID":"IsabellaPabónDíaz8","gender":"1","age":"11","school":"2019"},{"start_time":1551887731966,"click_time":1551887733406,"finger_time":1551887732744,"fix_duration":1459.1906311513849,"trial":54,"RT":778,"MT":662,"sideResp":2,"stimulus":"img/900/equaldotanddens/L/4_Ratio_900_L_20_R_18.png","xmouse":[784,785,785,787,788,788,788,788,788,788,789,789,789,789,789,789,789,789,789,789,790,790,790,790,791,791,791,792,792,792,792,793,793,795,796,799,807,809,815,825,832,847,854,862,871,884,915,924,930,935,939,955,971,984,994,1005,1020,1026,1030,1038,1049,1069,1073,1073,1074,1074,1075,1076,1076,1076,1076,1077],"ymouse":[508,508,508,508,508,508,508,508,508,508,508,508,508,508,508,508,508,508,508,508,508,508,508,508,508,508,508,508,508,508,508,508,508,508,508,506,493,475,456,438,425,399,388,376,362,349,319,309,302,296,291,272,256,243,229,214,192,185,175,162,146,118,111,109,108,106,103,102,101,100,100,98],"timestamp_mouse":[21,48,59,78,99,120,140,158,179,199,219,239,260,279,300,318,339,359,380,398,419,438,459,478,499,518,540,558,578,600,618,638,659,678,700,719,739,759,778,798,820,838,859,880,898,919,939,959,978,1000,1019,1039,1058,1079,1100,1118,1138,1159,1179,1200,1219,1239,1258,1278,1299,1320,1339,1358,1378,1398,1419,1440],"xSR":741.5,"ySR":469.95,"xT1":424.9,"yT1":0,"xT2":1058.1,"yT2":0,"toosoon":0,"cond_shown":"equaldotanddens","ratio_trial":900,"smaller_num":"18","larger_num":"20","correct_side":1,"subjID":"IsabellaPabónDíaz8","gender":"1","age":"11","school":"2019"},{"start_time":1551887738262,"click_time":1551887739585,"finger_time":1551887739246,"fix_duration":295.6890825643156,"trial":55,"RT":984,"MT":339,"sideResp":1,"stimulus":"img/500/equaldotsize/L/13_Ratio_500_L_12_R_6.png","xmouse":[803,803,803,803,803,803,803,803,803,803,803,803,803,803,803,803,803,803,803,803,803,803,803,803,802,802,802,800,797,797,797,797,797,797,797,797,797,797,797,797,797,797,797,797,797,797,796,775,752,723,687,658,637,616,608,605,600,596,590,588,585,581,570,559,545,515,483],"ymouse":[556,556,556,556,556,556,556,556,556,556,556,556,556,556,556,556,556,556,556,556,556,556,556,556,556,556,556,556,557,557,557,557,557,557,557,557,557,557,557,557,557,557,557,557,557,557,558,527,487,448,400,363,333,295,274,268,254,245,230,222,212,198,163,146,130,109,92],"timestamp_mouse":[10,24,44,62,83,104,122,144,163,183,203,222,243,262,283,302,323,343,362,383,402,424,442,463,483,502,523,543,563,583,604,624,643,664,682,703,724,743,763,783,804,822,843,864,883,904,922,944,963,984,1004,1024,1043,1063,1084,1102,1123,1144,1163,1183,1204,1224,1243,1263,1283,1303,1323],"xSR":741.5,"ySR":469.95,"xT1":424.9,"yT1":0,"xT2":1058.1,"yT2":0,"toosoon":0,"cond_shown":"equaldotsize","ratio_trial":500,"smaller_num":"6","larger_num":"12","correct_side":1,"subjID":"IsabellaPabónDíaz8","gender":"1","age":"11","school":"2019"},{"start_time":1551887741369,"click_time":1551887742624,"finger_time":1551887742186,"fix_duration":723.8905063491118,"trial":56,"RT":817,"MT":438,"sideResp":1,"stimulus":"img/750/equaldotsize/L/1_Ratio_750_L_20_R_15.png","xmouse":[782,782,782,782,782,782,782,782,782,782,782,782,782,782,782,782,782,782,782,782,782,782,782,782,782,782,782,782,782,782,782,782,782,782,782,782,782,782,782,782,778,769,725,695,670,647,632,617,612,609,606,602,596,595,593,590,587,576,559,548,536,528,516],"ymouse":[512,512,512,512,512,512,512,512,512,512,512,512,512,512,512,512,512,512,512,512,512,512,512,512,512,512,512,512,512,512,512,512,512,512,512,512,512,511,503,489,469,445,368,328,294,264,242,216,200,187,177,166,152,149,146,143,139,129,116,107,98,90,80],"timestamp_mouse":[16,36,56,77,95,117,136,156,176,196,217,236,256,275,296,316,337,356,376,396,417,436,456,476,495,517,535,557,576,596,617,636,656,676,696,715,736,756,777,796,817,835,855,875,896,916,937,955,976,996,1016,1037,1056,1076,1096,1116,1136,1155,1175,1196,1216,1236,1255],"xSR":741.5,"ySR":469.95,"xT1":424.9,"yT1":0,"xT2":1058.1,"yT2":0,"toosoon":0,"cond_shown":"equaldotsize","ratio_trial":750,"smaller_num":"15","larger_num":"20","correct_side":1,"subjID":"IsabellaPabónDíaz8","gender":"1","age":"11","school":"2019"},{"start_time":1551887744624,"click_time":1551887745905,"finger_time":1551887745405,"fix_duration":958.4718195818994,"trial":57,"RT":781,"MT":500,"sideResp":2,"stimulus":"img/750/equaldotanddens/R/3_Ratio_750_L_15_R_20.png","xmouse":[777,777,777,777,777,777,777,777,777,777,777,777,777,777,777,777,777,777,777,777,777,777,777,777,777,777,777,777,777,777,777,777,777,777,777,777,781,787,803,829,857,864,869,877,885,901,909,914,920,925,939,951,963,973,987,998,1001,1006,1011,1015,1030,1039,1053,1062,1078],"ymouse":[505,505,505,505,505,505,505,505,505,505,505,505,505,505,505,505,505,505,505,505,505,505,505,505,505,505,505,505,505,505,505,505,505,505,505,505,505,499,486,469,452,446,441,433,422,401,392,383,375,367,348,324,297,272,242,221,213,203,191,181,152,136,118,106,97],"timestamp_mouse":[8,21,42,62,80,101,122,141,162,180,200,222,241,260,281,300,321,342,361,381,400,422,441,461,482,500,521,540,562,580,600,621,642,661,680,701,722,741,761,781,801,822,840,860,882,901,921,941,962,982,1002,1021,1040,1061,1081,1101,1120,1140,1162,1181,1201,1222,1240,1261,1281],"xSR":741.5,"ySR":469.95,"xT1":424.9,"yT1":0,"xT2":1058.1,"yT2":0,"toosoon":0,"cond_shown":"equaldotanddens","ratio_trial":750,"smaller_num":"15","larger_num":"20","correct_side":2,"subjID":"IsabellaPabónDíaz8","gender":"1","age":"11","school":"2019"},{"start_time":1551887748003,"click_time":1551887749126,"finger_time":1551887748686,"fix_duration":997.8553259232681,"trial":58,"RT":683,"MT":440,"sideResp":1,"stimulus":"img/500/equaldotsize/L/8_Ratio_500_L_8_R_4.png","xmouse":[803,803,803,803,803,803,803,803,803,803,803,803,803,803,803,803,803,803,803,803,803,803,803,803,803,803,803,803,803,803,803,803,799,796,788,777,764,733,718,701,684,647,629,615,605,599,593,582,576,569,563,557,546,537,532,527,502],"ymouse":[507,507,507,507,507,507,507,507,507,507,507,507,507,507,507,507,507,507,507,507,507,507,507,507,507,507,507,507,507,507,504,503,492,482,466,446,422,378,359,343,330,299,283,270,254,245,236,219,209,197,185,176,155,141,131,122,97],"timestamp_mouse":[8,22,42,62,83,103,121,142,162,181,202,223,242,262,283,302,323,342,363,381,402,422,442,462,482,502,523,542,563,582,603,622,642,662,683,702,723,742,762,783,802,823,842,861,882,902,922,942,962,982,1003,1021,1041,1061,1082,1103,1123],"xSR":741.5,"ySR":469.95,"xT1":424.9,"yT1":0,"xT2":1058.1,"yT2":0,"toosoon":0,"cond_shown":"equaldotsize","ratio_trial":500,"smaller_num":"4","larger_num":"8","correct_side":1,"subjID":"IsabellaPabónDíaz8","gender":"1","age":"11","school":"2019"},{"start_time":1551887750824,"click_time":1551887752105,"finger_time":1551887751645,"fix_duration":617.5275524634201,"trial":59,"RT":821,"MT":460,"sideResp":1,"stimulus":"img/500/equaldotsize/L/5_Ratio_500_L_4_R_2.png","xmouse":[786,786,786,786,786,786,786,786,786,786,786,786,786,786,786,786,786,786,786,786,786,786,786,786,786,786,786,786,786,786,786,786,786,786,786,785,783,781,778,776,772,744,724,712,697,683,655,647,640,636,634,621,615,608,598,589,570,556,545,536,524,509,504,501,497],"ymouse":[510,510,510,510,510,510,510,510,510,510,510,510,510,510,510,510,510,510,510,510,510,510,510,510,510,510,510,510,509,509,509,509,509,509,509,508,504,502,499,493,488,446,418,396,374,352,313,300,288,279,269,242,233,222,209,197,172,157,146,136,123,110,105,101,97],"timestamp_mouse":[8,20,40,60,81,101,120,140,162,180,202,220,241,260,281,302,321,341,361,380,400,421,442,461,482,502,522,542,560,580,601,620,642,661,682,700,721,742,760,782,801,821,841,861,882,901,921,940,960,981,1002,1021,1041,1062,1081,1101,1121,1141,1161,1182,1202,1221,1240,1260,1281],"xSR":741.5,"ySR":469.95,"xT1":424.9,"yT1":0,"xT2":1058.1,"yT2":0,"toosoon":0,"cond_shown":"equaldotsize","ratio_trial":500,"smaller_num":"2","larger_num":"4","correct_side":1,"subjID":"IsabellaPabónDíaz8","gender":"1","age":"11","school":"2019"},{"start_time":1551887753681,"click_time":1551887754464,"finger_time":1551887754125,"fix_duration":473.7583240124778,"trial":60,"RT":444,"MT":339,"sideResp":1,"stimulus":"img/250/equaldotsize/L/15_Ratio_250_L_12_R_3.png","xmouse":[802,802,802,802,802,802,802,802,802,802,802,802,802,802,802,802,803,804,808,808,809,810,811,812,812,812,812,812,806,801,794,783,772,725,685,639,594,545,525,523],"ymouse":[485,485,485,485,485,485,485,485,485,485,485,485,485,485,485,485,484,483,478,476,474,470,466,457,454,451,449,447,439,434,427,418,406,352,294,226,166,99,64,57],"timestamp_mouse":[8,24,45,65,84,105,123,144,164,185,203,224,245,265,284,303,325,343,364,385,404,424,444,464,485,503,525,544,564,583,603,625,645,664,684,703,724,744,764,783],"xSR":741.5,"ySR":469.95,"xT1":424.9,"yT1":0,"xT2":1058.1,"yT2":0,"toosoon":0,"cond_shown":"equaldotsize","ratio_trial":250,"smaller_num":"3","larger_num":"12","correct_side":1,"subjID":"IsabellaPabónDíaz8","gender":"1","age":"11","school":"2019"},{"start_time":1551887756906,"click_time":1551887758085,"finger_time":1551887757346,"fix_duration":1279.7439497684404,"trial":61,"RT":440,"MT":739,"sideResp":1,"stimulus":"img/900/randomdotsizeEA/L/2_Ratio_900_L_20_R_18.png","xmouse":[775,775,775,775,775,775,775,775,775,775,775,775,775,775,775,775,775,775,775,775,775,775,772,769,765,757,751,745,729,721,709,699,685,679,675,668,662,656,643,637,630,622,612,589,577,560,551,541,535,534,534,534,534,534,534,533,533,529,526,521],"ymouse":[496,496,496,496,496,496,496,496,496,496,496,496,496,496,496,496,496,496,495,491,484,474,448,437,425,406,393,379,353,338,322,307,288,280,272,261,253,242,221,210,198,184,168,128,111,85,68,52,40,38,38,37,37,37,37,37,37,37,37,37],"timestamp_mouse":[1,20,40,59,78,100,119,138,160,180,200,218,239,260,280,300,318,339,360,379,399,420,440,458,479,499,519,540,559,578,599,619,640,659,678,699,719,739,759,779,800,819,839,860,879,899,919,939,959,980,1000,1020,1040,1059,1078,1099,1119,1140,1158,1179],"xSR":741.5,"ySR":469.95,"xT1":424.9,"yT1":0,"xT2":1058.1,"yT2":0,"toosoon":0,"cond_shown":"randomdotsizeEA","ratio_trial":900,"smaller_num":"18","larger_num":"20","correct_side":1,"subjID":"IsabellaPabónDíaz8","gender":"1","age":"11","school":"2019"},{"start_time":1551887762219,"click_time":1551887763164,"finger_time":1551887763086,"fix_duration":1152.7263983565024,"trial":62,"RT":867,"MT":78,"sideResp":1,"stimulus":"img/250/randomdotsizeEA/L/14_Ratio_250_L_12_R_3.png","xmouse":[809,809,809,809,809,809,809,809,809,809,809,809,809,809,809,809,809,809,809,809,809,809,809,809,809,809,809,809,809,809,809,809,809,809,809,809,809,809,809,806,804,798,781,772,734,681,615,492],"ymouse":[525,525,525,525,525,525,525,525,525,525,525,525,525,525,525,525,525,525,525,525,525,525,525,525,525,525,525,525,525,525,525,525,525,525,525,525,525,525,525,521,518,511,486,466,413,325,235,84],"timestamp_mouse":[10,27,46,66,85,105,126,145,166,185,207,225,246,267,285,306,325,346,371,387,406,426,446,466,485,506,526,546,566,586,605,627,646,666,686,707,727,745,767,786,806,826,846,867,886,906,927,945],"xSR":741.5,"ySR":469.95,"xT1":424.9,"yT1":0,"xT2":1058.1,"yT2":0,"toosoon":0,"cond_shown":"randomdotsizeEA","ratio_trial":250,"smaller_num":"3","larger_num":"12","correct_side":1,"subjID":"IsabellaPabónDíaz8","gender":"1","age":"11","school":"2019"},{"start_time":1551887765152,"click_time":1551887766345,"finger_time":1551887765906,"fix_duration":964.6363086821806,"trial":63,"RT":754,"MT":439,"sideResp":1,"stimulus":"img/900/equaldotsize/L/4_Ratio_900_L_20_R_18.png","xmouse":[788,788,788,788,788,788,788,788,788,788,788,788,788,788,788,788,788,788,788,788,788,788,788,788,788,788,788,788,788,788,788,788,788,788,785,782,761,736,718,704,684,676,665,655,643,631,607,599,592,588,576,570,563,554,547,539,519,501,487,475],"ymouse":[548,548,548,548,548,548,548,548,548,548,548,548,548,548,548,548,548,548,548,548,548,548,548,548,548,548,548,548,548,548,548,548,548,548,545,541,514,484,462,443,411,399,385,370,354,337,303,291,278,271,252,242,230,215,202,188,156,130,112,95],"timestamp_mouse":[14,33,52,73,94,113,133,153,173,194,213,232,254,273,293,314,334,354,372,394,412,434,454,473,494,514,533,554,573,594,613,632,654,673,693,713,733,754,773,792,814,833,853,873,894,913,933,954,972,993,1014,1032,1054,1073,1093,1113,1133,1153,1173,1193],"xSR":741.5,"ySR":469.95,"xT1":424.9,"yT1":0,"xT2":1058.1,"yT2":0,"toosoon":0,"cond_show