[{"start_time":1551886998813,"click_time":1551887001815,"finger_time":1551887001374,"fix_duration":1093.0561475691825,"trial":0,"RT":2561,"MT":441,"sideResp":1,"stimulus":[],"xmouse":[787,787,787,787,787,787,787,787,787,787,787,787,787,787,787,787,787,787,787,787,787,787,787,787,787,787,787,787,787,787,787,787,787,787,787,787,787,787,787,787,787,787,787,787,787,787,787,787,787,787,787,787,787,787,787,787,787,787,787,787,787,787,787,787,787,787,787,787,787,787,787,787,787,787,787,787,787,787,787,787,787,787,787,787,787,787,787,787,787,787,787,787,787,787,787,787,787,787,787,787,787,787,787,787,787,787,787,787,787,787,787,787,787,787,787,787,787,787,787,787,787,787,787,787,787,786,782,770,731,710,691,686,679,662,652,636,621,604,570,545,532,527,524,519,518,517,517,517,517,517,518],"ymouse":[503,503,503,503,503,503,503,503,503,503,503,503,503,503,503,503,503,503,503,503,503,503,503,503,503,503,503,503,503,503,503,503,503,503,503,503,503,503,503,503,503,503,503,503,503,503,503,503,503,503,503,503,503,503,503,503,503,503,503,503,503,503,503,503,503,503,503,503,503,503,503,503,503,503,503,503,503,503,503,503,503,503,503,503,503,503,503,503,503,503,503,503,503,503,503,503,503,503,503,503,503,503,503,503,503,503,503,503,503,503,503,503,503,503,503,503,503,503,503,503,503,503,503,503,499,499,494,485,456,438,418,408,391,349,327,306,286,267,229,199,183,173,161,131,120,113,112,111,110,104,98],"timestamp_mouse":[9,21,45,63,82,102,122,141,162,183,202,221,241,262,282,303,323,341,361,382,402,423,442,462,482,502,522,542,562,583,601,622,642,662,682,702,721,741,762,782,803,821,843,862,883,901,923,941,963,981,1003,1022,1042,1061,1082,1101,1123,1142,1162,1182,1203,1223,1243,1262,1282,1301,1323,1341,1361,1382,1401,1421,1441,1462,1482,1502,1522,1543,1562,1583,1603,1622,1642,1662,1683,1703,1721,1743,1762,1782,1803,1822,1842,1862,1883,1901,1922,1942,1961,1983,2003,2022,2043,2062,2081,2103,2123,2142,2163,2183,2203,2222,2242,2263,2282,2302,2322,2343,2362,2382,2402,2422,2443,2463,2481,2502,2522,2543,2561,2583,2602,2622,2641,2662,2681,2702,2722,2743,2762,2781,2801,2822,2842,2861,2882,2902,2922,2942,2961,2981,3001],"xSR":741.5,"ySR":469.95,"xT1":424.9,"yT1":0,"xT2":1058.1,"yT2":0,"toosoon":0,"cond_shown":"Incongruent","ratio_trial":100,"L_num":3,"L_den":9,"R_num":7,"R_den":30,"correct_side":1,"subjID":"IsabellaPabónDíaz8","gender":"1","age":"11","school":"2019","test":{"fix_dur":[250,1500],"timestim":1000,"targets_dim":[100,100],"targets_relative_coord":[0.3,0.7],"size_stim":[880,420],"start_dim":[100,100],"size_start":[300,300],"size_fix":60,"samplingrate":20,"img_types":["Congruent","Incongruent"],"ratios":[100,200,300],"rep_conds":19,"nTrials":120,"trials_to_rest":500,"Trials_order":[55,66,20,38,101,107,15,84,52,104,53,81,91,7,14,43,2,73,26,40,82,63,32,23,3,114,115,92,59,54,110,116,35,65,83,60,45,103,48,72,89,1,58,36,102,100,33,105,109,117,17,85,37,67,93,64,90,18,39,49,94,57,44,68,71,27,34,9,112,51,78,28,42,97,12,0,47,25,41,106,74,77,118,11,8,30,98,13,4,111,95,19,21,69,113,5,6,119,10,99,96,108,86,50,76,75,24,29,80,46,61,88,56,16,62,87,22,70,31,79],"cond_shown":["Incongruent","Congruent","Congruent","Congruent","Incongruent","Incongruent","Incongruent","Congruent","Congruent","Congruent","Incongruent","Incongruent","Incongruent","Incongruent","Congruent","Incongruent","Congruent","Incongruent","Congruent","Congruent","Congruent","Incongruent","Congruent","Incongruent","Incongruent","Congruent","Incongruent","Congruent","Incongruent","Congruent","Congruent","Congruent","Incongruent","Incongruent","Incongruent","Congruent","Incongruent","Incongruent","Congruent","Congruent","Incongruent","Incongruent","Congruent","Congruent","Congruent","Congruent","Incongruent","Incongruent","Incongruent","Incongruent","Incongruent","Incongruent","Incongruent","Incongruent","Incongruent","Congruent","Congruent","Congruent","Incongruent","Incongruent","Congruent","Incongruent","Congruent","Congruent","Incongruent","Incongruent","Congruent","Incongruent","Congruent","Incongruent","Congruent","Congruent","Congruent","Incongruent","Congruent","Congruent","Incongruent","Incongruent","Incongruent","Congruent","Congruent","Incongruent","Congruent","Incongruent","Congruent","Congruent","Congruent","Incongruent","Congruent","Incongruent","Incongruent","Incongruent","Incongruent","Incongruent","Incongruent","Incongruent","Congruent","Incongruent","Congruent","Incongruent","Congruent","Congruent","Congruent","Congruent","Congruent","Incongruent","Congruent","Incongruent","Congruent","Congruent","Incongruent","Congruent","Congruent","Congruent","Congruent","Incongruent","Congruent","Congruent","Incongruent","Incongruent"],"ratio_trial":[100,100,200,200,300,300,200,100,300,200,300,200,100,100,200,100,200,100,200,300,300,200,200,300,200,100,100,200,300,100,200,200,300,300,300,100,200,100,100,100,300,100,300,100,100,300,200,200,100,200,300,100,100,100,200,300,100,100,200,100,300,200,200,200,300,200,300,200,300,200,100,300,100,100,100,100,300,100,300,300,200,300,300,300,200,100,200,100,300,200,300,100,200,200,300,300,100,300,300,200,100,100,200,200,300,200,100,300,200,300,100,300,200,300,200,200,300,300,100,100],"left_num":[3,2,15,13,13,13,3,8,1,6,1,11,11,13,3,12,7,6,3,1,1,6,13,8,14,4,3,21,2,4,16,3,4,4,4,3,4,12,7,15,2,8,11,11,9,1,4,7,13,7,3,12,13,13,14,20,3,3,7,8,4,7,3,8,8,6,1,4,2,4,2,1,3,3,11,11,4,2,3,1,14,2,20,13,3,3,6,11,12,4,1,3,14,6,4,13,2,13,7,3,11,7,3,21,8,6,15,1,3,24,10,1,9,4,4,6,9,1,3,12],"right_num":[7,11,4,14,12,12,11,2,7,3,3,3,9,12,7,2,2,11,14,8,11,3,14,9,12,6,8,2,6,6,12,14,2,2,2,2,6,9,9,13,6,1,1,6,8,8,6,8,12,8,4,9,12,12,12,5,4,2,12,1,1,14,7,3,14,3,8,14,10,1,11,8,2,4,6,4,2,8,4,11,6,6,5,12,14,2,3,9,2,14,3,4,12,3,2,12,6,12,20,1,6,9,7,2,1,3,13,2,9,2,9,8,13,2,3,3,3,11,4,2],"left_den":[9,5,25,26,26,26,4,16,20,15,2,20,22,26,10,30,21,10,6,30,5,20,26,10,30,8,5,30,4,8,20,6,20,20,20,6,5,24,14,25,4,20,22,22,15,30,5,10,26,10,6,24,26,26,30,25,20,6,10,20,10,10,10,15,10,20,30,6,20,30,5,30,6,6,22,22,20,4,6,5,28,4,25,26,10,6,15,22,24,6,2,6,30,20,20,26,5,26,14,10,22,14,10,30,16,20,25,2,12,30,25,30,30,5,8,20,10,5,6,30],"right_den":[30,22,10,20,15,15,20,5,20,15,15,4,15,20,14,4,15,22,20,24,22,6,20,18,18,10,16,4,30,10,20,20,4,4,4,5,10,15,15,26,30,2,5,15,16,24,10,16,20,16,20,15,20,20,18,10,16,5,24,2,10,28,14,9,28,6,24,30,25,3,22,24,5,10,15,10,4,20,20,22,20,30,10,15,28,5,15,15,10,30,15,10,18,6,4,15,12,15,25,2,15,15,14,4,5,6,26,10,20,4,18,24,26,4,10,6,5,22,10,4],"correct_side":[1,2,1,2,2,2,1,1,2,1,1,2,2,2,2,2,1,1,2,2,2,2,2,1,2,2,1,1,1,2,1,2,2,2,2,1,1,2,2,1,1,2,1,1,1,2,1,1,2,1,1,2,2,2,2,1,2,1,1,2,1,1,2,1,1,2,2,1,2,2,2,2,1,1,1,1,2,1,1,2,1,1,1,2,2,1,1,2,1,1,1,1,2,2,2,2,2,2,2,2,1,2,2,1,1,2,1,1,2,1,2,2,2,1,1,2,1,2,1,2],"img_shown":["img2/100/Incongruent/L/I_Dist_100_LN_3_LD_9_RN_7_RD_30_0.png","img2/100/Congruent/R/C_Dist_100_LN_2_LD_5_RN_11_RD_22_1.png","img2/200/Congruent/L/C_Dist_200_LN_15_LD_25_RN_4_RD_10_0.png","img2/200/Congruent/R/C_Dist_200_LN_13_LD_26_RN_14_RD_20_1.png","img2/300/Incongruent/R/I_Dist_300_LN_13_LD_26_RN_12_RD_15_1.png","img2/300/Incongruent/R/I_Dist_300_LN_13_LD_26_RN_12_RD_15_1.png","img2/200/Incongruent/L/I_Dist_200_LN_3_LD_4_RN_11_RD_20_0.png","img2/100/Congruent/L/C_Dist_100_LN_8_LD_16_RN_2_RD_5_0.png","img2/300/Congruent/R/C_Dist_300_LN_1_LD_20_RN_7_RD_20_1.png","img2/200/Congruent/L/C_Dist_200_LN_6_LD_15_RN_3_RD_15_0.png","img2/300/Incongruent/L/I_Dist_300_LN_1_LD_2_RN_3_RD_15_0.png","img2/200/Incongruent/R/I_Dist_200_LN_11_LD_20_RN_3_RD_4_1.png","img2/100/Incongruent/R/I_Dist_100_LN_11_LD_22_RN_9_RD_15_1.png","img2/100/Incongruent/R/I_Dist_100_LN_13_LD_26_RN_12_RD_20_1.png","img2/200/Congruent/R/C_Dist_200_LN_3_LD_10_RN_7_RD_14_1.png","img2/100/Incongruent/R/I_Dist_100_LN_12_LD_30_RN_2_RD_4_1.png","img2/200/Congruent/L/C_Dist_200_LN_7_LD_21_RN_2_RD_15_0.png","img2/100/Incongruent/L/I_Dist_100_LN_6_LD_10_RN_11_RD_22_0.png","img2/200/Congruent/R/C_Dist_200_LN_3_LD_6_RN_14_RD_20_1.png","img2/300/Congruent/R/C_Dist_300_LN_1_LD_30_RN_8_RD_24_1.png","img2/300/Congruent/R/C_Dist_300_LN_1_LD_5_RN_11_RD_22_1.png","img2/200/Incongruent/R/I_Dist_200_LN_6_LD_20_RN_3_RD_6_1.png","img2/200/Congruent/R/C_Dist_200_LN_13_LD_26_RN_14_RD_20_1.png","img2/300/Incongruent/L/I_Dist_300_LN_8_LD_10_RN_9_RD_18_0.png","img2/200/Incongruent/R/I_Dist_200_LN_14_LD_30_RN_12_RD_18_1.png","img2/100/Congruent/R/C_Dist_100_LN_4_LD_8_RN_6_RD_10_1.png","img2/100/Incongruent/L/I_Dist_100_LN_3_LD_5_RN_8_RD_16_0.png","img2/200/Congruent/L/C_Dist_200_LN_21_LD_30_RN_2_RD_4_0.png","img2/300/Incongruent/L/I_Dist_300_LN_2_LD_4_RN_6_RD_30_0.png","img2/100/Congruent/R/C_Dist_100_LN_4_LD_8_RN_6_RD_10_1.png","img2/200/Congruent/L/C_Dist_200_LN_16_LD_20_RN_12_RD_20_0.png","img2/200/Congruent/R/C_Dist_200_LN_3_LD_6_RN_14_RD_20_1.png","img2/300/Incongruent/R/I_Dist_300_LN_4_LD_20_RN_2_RD_4_1.png","img2/300/Incongruent/R/I_Dist_300_LN_4_LD_20_RN_2_RD_4_1.png","img2/300/Incongruent/R/I_Dist_300_LN_4_LD_20_RN_2_RD_4_1.png","img2/100/Congruent/L/C_Dist_100_LN_3_LD_6_RN_2_RD_5_0.png","img2/200/Incongruent/L/I_Dist_200_LN_4_LD_5_RN_6_RD_10_0.png","img2/100/Incongruent/R/I_Dist_100_LN_12_LD_24_RN_9_RD_15_1.png","img2/100/Congruent/R/C_Dist_100_LN_7_LD_14_RN_9_RD_15_1.png","img2/100/Congruent/L/C_Dist_100_LN_15_LD_25_RN_13_RD_26_0.png","img2/300/Incongruent/L/I_Dist_300_LN_2_LD_4_RN_6_RD_30_0.png","img2/100/Incongruent/R/I_Dist_100_LN_8_LD_20_RN_1_RD_2_1.png","img2/300/Congruent/L/C_Dist_300_LN_11_LD_22_RN_1_RD_5_0.png","img2/100/Congruent/L/C_Dist_100_LN_11_LD_22_RN_6_RD_15_0.png","img2/100/Congruent/L/C_Dist_100_LN_9_LD_15_RN_8_RD_16_0.png","img2/300/Congruent/R/C_Dist_300_LN_1_LD_30_RN_8_RD_24_1.png","img2/200/Incongruent/L/I_Dist_200_LN_4_LD_5_RN_6_RD_10_0.png","img2/200/Incongruent/L/I_Dist_200_LN_7_LD_10_RN_8_RD_16_0.png","img2/100/Incongruent/R/I_Dist_100_LN_13_LD_26_RN_12_RD_20_1.png","img2/200/Incongruent/L/I_Dist_200_LN_7_LD_10_RN_8_RD_16_0.png","img2/300/Incongruent/L/I_Dist_300_LN_3_LD_6_RN_4_RD_20_0.png","img2/100/Incongruent/R/I_Dist_100_LN_12_LD_24_RN_9_RD_15_1.png","img2/100/Incongruent/R/I_Dist_100_LN_13_LD_26_RN_12_RD_20_1.png","img2/100/Incongruent/R/I_Dist_100_LN_13_LD_26_RN_12_RD_20_1.png","img2/200/Incongruent/R/I_Dist_200_LN_14_LD_30_RN_12_RD_18_1.png","img2/300/Congruent/L/C_Dist_300_LN_20_LD_25_RN_5_RD_10_0.png","img2/100/Congruent/R/C_Dist_100_LN_3_LD_20_RN_4_RD_16_1.png","img2/100/Congruent/L/C_Dist_100_LN_3_LD_6_RN_2_RD_5_0.png","img2/200/Incongruent/L/I_Dist_200_LN_7_LD_10_RN_12_RD_24_0.png","img2/100/Incongruent/R/I_Dist_100_LN_8_LD_20_RN_1_RD_2_1.png","img2/300/Congruent/L/C_Dist_300_LN_4_LD_10_RN_1_RD_10_0.png","img2/200/Incongruent/L/I_Dist_200_LN_7_LD_10_RN_14_RD_28_0.png","img2/200/Congruent/R/C_Dist_200_LN_3_LD_10_RN_7_RD_14_1.png","img2/200/Congruent/L/C_Dist_200_LN_8_LD_15_RN_3_RD_9_0.png","img2/300/Incongruent/L/I_Dist_300_LN_8_LD_10_RN_14_RD_28_0.png","img2/200/Incongruent/R/I_Dist_200_LN_6_LD_20_RN_3_RD_6_1.png","img2/300/Congruent/R/C_Dist_300_LN_1_LD_30_RN_8_RD_24_1.png","img2/200/Incongruent/L/I_Dist_200_LN_4_LD_6_RN_14_RD_30_0.png","img2/300/Congruent/R/C_Dist_300_LN_2_LD_20_RN_10_RD_25_1.png","img2/200/Incongruent/R/I_Dist_200_LN_4_LD_30_RN_1_RD_3_1.png","img2/100/Congruent/R/C_Dist_100_LN_2_LD_5_RN_11_RD_22_1.png","img2/300/Congruent/R/C_Dist_300_LN_1_LD_30_RN_8_RD_24_1.png","img2/100/Congruent/L/C_Dist_100_LN_3_LD_6_RN_2_RD_5_0.png","img2/100/Incongruent/L/I_Dist_100_LN_3_LD_6_RN_4_RD_10_0.png","img2/100/Congruent/L/C_Dist_100_LN_11_LD_22_RN_6_RD_15_0.png","img2/100/Congruent/L/C_Dist_100_LN_11_LD_22_RN_4_RD_10_0.png","img2/300/Incongruent/R/I_Dist_300_LN_4_LD_20_RN_2_RD_4_1.png","img2/100/Incongruent/L/I_Dist_100_LN_2_LD_4_RN_8_RD_20_0.png","img2/300/Incongruent/L/I_Dist_300_LN_3_LD_6_RN_4_RD_20_0.png","img2/300/Congruent/R/C_Dist_300_LN_1_LD_5_RN_11_RD_22_1.png","img2/200/Congruent/L/C_Dist_200_LN_14_LD_28_RN_6_RD_20_0.png","img2/300/Incongruent/L/I_Dist_300_LN_2_LD_4_RN_6_RD_30_0.png","img2/300/Congruent/L/C_Dist_300_LN_20_LD_25_RN_5_RD_10_0.png","img2/300/Incongruent/R/I_Dist_300_LN_13_LD_26_RN_12_RD_15_1.png","img2/200/Congruent/R/C_Dist_200_LN_3_LD_10_RN_14_RD_28_1.png","img2/100/Congruent/L/C_Dist_100_LN_3_LD_6_RN_2_RD_5_0.png","img2/200/Congruent/L/C_Dist_200_LN_6_LD_15_RN_3_RD_15_0.png","img2/100/Incongruent/R/I_Dist_100_LN_11_LD_22_RN_9_RD_15_1.png","img2/300/Congruent/L/C_Dist_300_LN_12_LD_24_RN_2_RD_10_0.png","img2/200/Incongruent/L/I_Dist_200_LN_4_LD_6_RN_14_RD_30_0.png","img2/300/Incongruent/L/I_Dist_300_LN_1_LD_2_RN_3_RD_15_0.png","img2/100/Incongruent/L/I_Dist_100_LN_3_LD_6_RN_4_RD_10_0.png","img2/200/Incongruent/R/I_Dist_200_LN_14_LD_30_RN_12_RD_18_1.png","img2/200/Incongruent/R/I_Dist_200_LN_6_LD_20_RN_3_RD_6_1.png","img2/300/Incongruent/R/I_Dist_300_LN_4_LD_20_RN_2_RD_4_1.png","img2/300/Incongruent/R/I_Dist_300_LN_13_LD_26_RN_12_RD_15_1.png","img2/100/Congruent/R/C_Dist_100_LN_2_LD_5_RN_6_RD_12_1.png","img2/300/Incongruent/R/I_Dist_300_LN_13_LD_26_RN_12_RD_15_1.png","img2/300/Congruent/R/C_Dist_300_LN_7_LD_14_RN_20_RD_25_1.png","img2/200/Incongruent/R/I_Dist_200_LN_3_LD_10_RN_1_RD_2_1.png","img2/100/Congruent/L/C_Dist_100_LN_11_LD_22_RN_6_RD_15_0.png","img2/100/Congruent/R/C_Dist_100_LN_7_LD_14_RN_9_RD_15_1.png","img2/200/Congruent/R/C_Dist_200_LN_3_LD_10_RN_7_RD_14_1.png","img2/200/Congruent/L/C_Dist_200_LN_21_LD_30_RN_2_RD_4_0.png","img2/300/Congruent/L/C_Dist_300_LN_8_LD_16_RN_1_RD_5_0.png","img2/200/Incongruent/R/I_Dist_200_LN_6_LD_20_RN_3_RD_6_1.png","img2/100/Congruent/L/C_Dist_100_LN_15_LD_25_RN_13_RD_26_0.png","img2/300/Incongruent/L/I_Dist_300_LN_1_LD_2_RN_2_RD_10_0.png","img2/200/Congruent/R/C_Dist_200_LN_3_LD_12_RN_9_RD_20_1.png","img2/300/Congruent/L/C_Dist_300_LN_24_LD_30_RN_2_RD_4_0.png","img2/100/Incongruent/R/I_Dist_100_LN_10_LD_25_RN_9_RD_18_1.png","img2/300/Congruent/R/C_Dist_300_LN_1_LD_30_RN_8_RD_24_1.png","img2/200/Congruent/R/C_Dist_200_LN_9_LD_30_RN_13_RD_26_1.png","img2/300/Congruent/L/C_Dist_300_LN_4_LD_5_RN_2_RD_4_0.png","img2/200/Congruent/L/C_Dist_200_LN_4_LD_8_RN_3_RD_10_0.png","img2/200/Incongruent/R/I_Dist_200_LN_6_LD_20_RN_3_RD_6_1.png","img2/300/Congruent/L/C_Dist_300_LN_9_LD_10_RN_3_RD_5_0.png","img2/300/Congruent/R/C_Dist_300_LN_1_LD_5_RN_11_RD_22_1.png","img2/100/Incongruent/L/I_Dist_100_LN_3_LD_6_RN_4_RD_10_0.png","img2/100/Incongruent/R/I_Dist_100_LN_12_LD_30_RN_2_RD_4_1.png"],"dist100_C":[["C_Dist_100_LN_10_LD_25_RN_3_RD_10_0.png","C_Dist_100_LN_11_LD_22_RN_4_RD_10_0.png","C_Dist_100_LN_11_LD_22_RN_6_RD_15_0.png","C_Dist_100_LN_15_LD_25_RN_13_RD_26_0.png","C_Dist_100_LN_3_LD_6_RN_2_RD_5_0.png","C_Dist_100_LN_6_LD_20_RN_5_RD_25_0.png","C_Dist_100_LN_8_LD_16_RN_2_RD_5_0.png","C_Dist_100_LN_9_LD_15_RN_8_RD_16_0.png"],["C_Dist_100_LN_1_LD_2_RN_18_RD_30_1.png","C_Dist_100_LN_1_LD_2_RN_3_RD_5_1.png","C_Dist_100_LN_12_LD_30_RN_13_RD_26_1.png","C_Dist_100_LN_2_LD_5_RN_11_RD_22_1.png","C_Dist_100_LN_2_LD_5_RN_6_RD_12_1.png","C_Dist_100_LN_3_LD_20_RN_4_RD_16_1.png","C_Dist_100_LN_4_LD_10_RN_15_RD_30_1.png","C_Dist_100_LN_4_LD_8_RN_6_RD_10_1.png","C_Dist_100_LN_6_LD_12_RN_15_RD_25_1.png","C_Dist_100_LN_7_LD_14_RN_15_RD_25_1.png","C_Dist_100_LN_7_LD_14_RN_9_RD_15_1.png"]],"dist100_I":[["I_Dist_100_LN_1_LD_2_RN_8_RD_20_0.png","I_Dist_100_LN_2_LD_4_RN_6_RD_15_0.png","I_Dist_100_LN_2_LD_4_RN_8_RD_20_0.png","I_Dist_100_LN_3_LD_5_RN_11_RD_22_0.png","I_Dist_100_LN_3_LD_5_RN_8_RD_16_0.png","I_Dist_100_LN_3_LD_6_RN_4_RD_10_0.png","I_Dist_100_LN_3_LD_9_RN_7_RD_30_0.png","I_Dist_100_LN_4_LD_8_RN_8_RD_20_0.png","I_Dist_100_LN_6_LD_10_RN_11_RD_22_0.png","I_Dist_100_LN_6_LD_10_RN_13_RD_26_0.png","I_Dist_100_LN_6_LD_10_RN_7_RD_14_0.png","I_Dist_100_LN_9_LD_10_RN_20_RD_25_0.png","I_Dist_100_LN_9_LD_15_RN_13_RD_26_0.png","I_Dist_100_LN_9_LD_15_RN_14_RD_28_0.png"],["I_Dist_100_LN_10_LD_25_RN_8_RD_16_1.png","I_Dist_100_LN_10_LD_25_RN_9_RD_18_1.png","I_Dist_100_LN_11_LD_22_RN_9_RD_15_1.png","I_Dist_100_LN_12_LD_24_RN_9_RD_15_1.png","I_Dist_100_LN_12_LD_30_RN_2_RD_4_1.png","I_Dist_100_LN_13_LD_26_RN_12_RD_20_1.png","I_Dist_100_LN_13_LD_26_RN_6_RD_10_1.png","I_Dist_100_LN_17_LD_30_RN_10_RD_15_1.png","I_Dist_100_LN_6_LD_12_RN_3_RD_5_1.png","I_Dist_100_LN_8_LD_16_RN_6_RD_10_1.png","I_Dist_100_LN_8_LD_20_RN_1_RD_2_1.png","I_Dist_100_LN_9_LD_18_RN_6_RD_10_1.png"]],"dist100_S":[["E_Dist_100_LN_2_LD_12_RN_2_RD_30_0.png","E_Dist_100_LN_6_LD_10_RN_6_RD_12_0.png"],["E_Dist_100_LN_6_LD_12_RN_6_RD_10_1.png"]],"dist200_C":[["C_Dist_200_LN_11_LD_22_RN_3_RD_10_0.png","C_Dist_200_LN_12_LD_15_RN_6_RD_10_0.png","C_Dist_200_LN_12_LD_20_RN_6_RD_15_0.png","C_Dist_200_LN_14_LD_28_RN_6_RD_20_0.png","C_Dist_200_LN_15_LD_25_RN_4_RD_10_0.png","C_Dist_200_LN_16_LD_20_RN_12_RD_20_0.png","C_Dist_200_LN_16_LD_30_RN_9_RD_27_0.png","C_Dist_200_LN_20_LD_25_RN_9_RD_15_0.png","C_Dist_200_LN_21_LD_30_RN_2_RD_4_0.png","C_Dist_200_LN_4_LD_10_RN_3_RD_15_0.png","C_Dist_200_LN_4_LD_8_RN_3_RD_10_0.png","C_Dist_200_LN_6_LD_15_RN_3_RD_15_0.png","C_Dist_200_LN_7_LD_21_RN_2_RD_15_0.png","C_Dist_200_LN_8_LD_15_RN_2_RD_6_0.png","C_Dist_200_LN_8_LD_15_RN_3_RD_9_0.png","C_Dist_200_LN_8_LD_15_RN_7_RD_21_0.png","C_Dist_200_LN_9_LD_20_RN_4_RD_16_0.png"],["C_Dist_200_LN_1_LD_2_RN_21_RD_30_1.png","C_Dist_200_LN_13_LD_26_RN_14_RD_20_1.png","C_Dist_200_LN_3_LD_10_RN_11_RD_22_1.png","C_Dist_200_LN_3_LD_10_RN_14_RD_28_1.png","C_Dist_200_LN_3_LD_10_RN_7_RD_14_1.png","C_Dist_200_LN_3_LD_12_RN_9_RD_20_1.png","C_Dist_200_LN_3_LD_6_RN_14_RD_20_1.png","C_Dist_200_LN_5_LD_10_RN_14_RD_20_1.png","C_Dist_200_LN_6_LD_12_RN_7_RD_10_1.png","C_Dist_200_LN_6_LD_20_RN_11_RD_22_1.png","C_Dist_200_LN_7_LD_15_RN_18_RD_27_1.png","C_Dist_200_LN_9_LD_30_RN_13_RD_26_1.png"]],"dist200_I":[["I_Dist_200_LN_1_LD_2_RN_3_RD_10_0.png","I_Dist_200_LN_1_LD_3_RN_2_RD_15_0.png","I_Dist_200_LN_3_LD_4_RN_11_RD_20_0.png","I_Dist_200_LN_4_LD_5_RN_6_RD_10_0.png","I_Dist_200_LN_4_LD_6_RN_14_RD_30_0.png","I_Dist_200_LN_7_LD_10_RN_12_RD_24_0.png","I_Dist_200_LN_7_LD_10_RN_14_RD_28_0.png","I_Dist_200_LN_7_LD_10_RN_8_RD_16_0.png"],["I_Dist_200_LN_11_LD_20_RN_3_RD_4_1.png","I_Dist_200_LN_14_LD_30_RN_12_RD_18_1.png","I_Dist_200_LN_14_LD_30_RN_6_RD_9_1.png","I_Dist_200_LN_3_LD_10_RN_1_RD_2_1.png","I_Dist_200_LN_4_LD_30_RN_1_RD_3_1.png","I_Dist_200_LN_6_LD_20_RN_3_RD_6_1.png","I_Dist_200_LN_7_LD_15_RN_4_RD_6_1.png","I_Dist_200_LN_7_LD_15_RN_6_RD_9_1.png","I_Dist_200_LN_9_LD_15_RN_8_RD_10_1.png"]],"dist200_S":[["E_Dist_200_LN_3_LD_6_RN_3_RD_10_0.png"],["E_Dist_200_LN_3_LD_10_RN_3_RD_6_1.png"]],"dist300_C":[["C_Dist_300_LN_11_LD_22_RN_1_RD_5_0.png","C_Dist_300_LN_11_LD_22_RN_2_RD_10_0.png","C_Dist_300_LN_11_LD_22_RN_4_RD_20_0.png","C_Dist_300_LN_12_LD_24_RN_2_RD_10_0.png","C_Dist_300_LN_18_LD_20_RN_9_RD_15_0.png","C_Dist_300_LN_20_LD_25_RN_13_RD_26_0.png","C_Dist_300_LN_20_LD_25_RN_14_RD_28_0.png","C_Dist_300_LN_20_LD_25_RN_5_RD_10_0.png","C_Dist_300_LN_20_LD_25_RN_8_RD_16_0.png","C_Dist_300_LN_20_LD_25_RN_9_RD_18_0.png","C_Dist_300_LN_24_LD_30_RN_2_RD_4_0.png","C_Dist_300_LN_24_LD_30_RN_8_RD_16_0.png","C_Dist_300_LN_3_LD_6_RN_2_RD_10_0.png","C_Dist_300_LN_4_LD_10_RN_1_RD_10_0.png","C_Dist_300_LN_4_LD_5_RN_2_RD_4_0.png","C_Dist_300_LN_8_LD_16_RN_1_RD_5_0.png","C_Dist_300_LN_9_LD_10_RN_3_RD_5_0.png"],["C_Dist_300_LN_1_LD_20_RN_7_RD_20_1.png","C_Dist_300_LN_1_LD_3_RN_19_RD_30_1.png","C_Dist_300_LN_1_LD_30_RN_8_RD_24_1.png","C_Dist_300_LN_1_LD_5_RN_11_RD_22_1.png","C_Dist_300_LN_1_LD_5_RN_3_RD_6_1.png","C_Dist_300_LN_1_LD_5_RN_6_RD_12_1.png","C_Dist_300_LN_2_LD_10_RN_12_RD_24_1.png","C_Dist_300_LN_2_LD_20_RN_10_RD_25_1.png","C_Dist_300_LN_3_LD_12_RN_11_RD_20_1.png","C_Dist_300_LN_3_LD_6_RN_4_RD_5_1.png","C_Dist_300_LN_4_LD_20_RN_13_RD_26_1.png","C_Dist_300_LN_5_LD_25_RN_6_RD_12_1.png","C_Dist_300_LN_5_LD_25_RN_7_RD_14_1.png","C_Dist_300_LN_7_LD_14_RN_20_RD_25_1.png","C_Dist_300_LN_8_LD_15_RN_10_RD_12_1.png"]],"dist300_I":[["I_Dist_300_LN_1_LD_2_RN_2_RD_10_0.png","I_Dist_300_LN_1_LD_2_RN_3_RD_15_0.png","I_Dist_300_LN_2_LD_4_RN_6_RD_30_0.png","I_Dist_300_LN_3_LD_6_RN_4_RD_20_0.png","I_Dist_300_LN_4_LD_5_RN_6_RD_12_0.png","I_Dist_300_LN_4_LD_5_RN_8_RD_16_0.png","I_Dist_300_LN_7_LD_10_RN_8_RD_20_0.png","I_Dist_300_LN_8_LD_10_RN_14_RD_28_0.png","I_Dist_300_LN_8_LD_10_RN_9_RD_18_0.png"],["I_Dist_300_LN_13_LD_26_RN_12_RD_15_1.png","I_Dist_300_LN_4_LD_20_RN_2_RD_4_1.png"]],"dist300_S":[["E_Dist_300_LN_9_LD_12_RN_9_RD_20_0.png"],["E_Dist_300_LN_18_LD_30_RN_18_RD_20_1.png","E_Dist_300_LN_3_LD_10_RN_3_RD_5_1.png","E_Dist_300_LN_9_LD_20_RN_9_RD_12_1.png"]],"dist500_C":[["C_Dist_500_LN_10_LD_13_RN_7_RD_26_0.png","C_Dist_500_LN_10_LD_15_RN_4_RD_24_0.png","C_Dist_500_LN_12_LD_16_RN_3_RD_12_0.png","C_Dist_500_LN_12_LD_18_RN_4_RD_24_0.png","C_Dist_500_LN_15_LD_18_RN_5_RD_15_0.png","C_Dist_500_LN_15_LD_20_RN_1_RD_4_0.png","C_Dist_500_LN_18_LD_27_RN_1_RD_6_0.png","C_Dist_500_LN_20_LD_24_RN_1_RD_3_0.png","C_Dist_500_LN_20_LD_24_RN_3_RD_9_0.png","C_Dist_500_LN_20_LD_24_RN_7_RD_21_0.png","C_Dist_500_LN_20_LD_28_RN_3_RD_14_0.png","C_Dist_500_LN_21_LD_28_RN_6_RD_24_0.png","C_Dist_500_LN_22_LD_28_RN_2_RD_7_0.png","C_Dist_500_LN_25_LD_30_RN_9_RD_27_0.png","C_Dist_500_LN_4_LD_6_RN_1_RD_6_0.png","C_Dist_500_LN_5_LD_6_RN_2_RD_6_0.png","C_Dist_500_LN_6_LD_9_RN_1_RD_6_0.png","C_Dist_500_LN_7_LD_10_RN_1_RD_5_0.png","C_Dist_500_LN_8_LD_12_RN_1_RD_6_0.png","C_Dist_500_LN_8_LD_12_RN_4_RD_24_0.png"],["C_Dist_500_LN_1_LD_4_RN_12_RD_16_1.png","C_Dist_500_LN_1_LD_4_RN_9_RD_12_1.png","C_Dist_500_LN_1_LD_9_RN_11_RD_18_1.png","C_Dist_500_LN_10_LD_24_RN_22_RD_24_1.png","C_Dist_500_LN_2_LD_12_RN_10_RD_15_1.png","C_Dist_500_LN_2_LD_12_RN_12_RD_18_1.png","C_Dist_500_LN_2_LD_12_RN_4_RD_6_1.png","C_Dist_500_LN_2_LD_24_RN_7_RD_12_1.png","C_Dist_500_LN_2_LD_5_RN_18_RD_20_1.png","C_Dist_500_LN_2_LD_5_RN_9_RD_10_1.png","C_Dist_500_LN_2_LD_8_RN_12_RD_16_1.png","C_Dist_500_LN_2_LD_8_RN_21_RD_28_1.png","C_Dist_500_LN_3_LD_10_RN_4_RD_5_1.png","C_Dist_500_LN_3_LD_12_RN_15_RD_20_1.png","C_Dist_500_LN_3_LD_30_RN_6_RD_10_1.png","C_Dist_500_LN_3_LD_8_RN_14_RD_16_1.png","C_Dist_500_LN_4_LD_16_RN_15_RD_20_1.png","C_Dist_500_LN_4_LD_24_RN_12_RD_18_1.png","C_Dist_500_LN_5_LD_14_RN_6_RD_7_1.png","C_Dist_500_LN_7_LD_21_RN_20_RD_24_1.png","C_Dist_500_LN_7_LD_28_RN_12_RD_16_1.png","C_Dist_500_LN_7_LD_28_RN_9_RD_12_1.png","C_Dist_500_LN_9_LD_27_RN_20_RD_24_1.png"]],"dist500_I":[["I_Dist_500_LN_2_LD_3_RN_4_RD_24_0.png","I_Dist_500_LN_5_LD_6_RN_6_RD_18_0.png","I_Dist_500_LN_7_LD_8_RN_9_RD_24_0.png"],["I_Dist_500_LN_7_LD_21_RN_5_RD_6_1.png"]],"dist500_S":[["E_Dist_500_LN_6_LD_8_RN_6_RD_24_0.png"],["E_Dist_500_LN_2_LD_12_RN_2_RD_3_1.png","E_Dist_500_LN_6_LD_24_RN_6_RD_8_1.png"]]}},{"start_time":1551887004112,"click_time":1551887005656,"finger_time":1551887005274,"fix_duration":535.322085269785,"trial":1,"RT":1162,"MT":382,"sideResp":2,"stimulus":[],"xmouse":[788,788,788,788,788,788,788,788,788,788,788,788,788,788,788,788,788,788,788,788,788,788,788,788,788,788,788,788,788,788,788,788,788,788,788,788,788,788,788,788,788,788,788,788,788,788,788,788,788,789,790,791,793,795,797,801,808,821,853,869,886,907,914,936,942,950,956,965,982,993,1004,1015,1029,1040,1046,1051,1056,1060],"ymouse":[518,518,518,518,518,518,518,518,518,518,518,518,518,518,518,518,518,518,518,518,518,518,518,518,518,518,518,518,518,518,518,518,518,518,518,518,518,518,518,518,518,518,518,518,518,518,518,518,518,518,518,518,518,516,513,509,500,483,439,419,398,368,357,306,287,268,250,231,193,176,156,140,118,98,92,87,82,79],"timestamp_mouse":[12,32,42,63,84,103,124,142,163,183,204,223,244,263,283,303,324,343,363,382,403,423,443,463,484,502,522,542,562,582,602,622,642,662,683,704,724,742,763,783,803,823,843,863,884,902,922,943,963,983,1002,1022,1043,1063,1083,1103,1123,1142,1162,1183,1203,1223,1242,1263,1282,1304,1323,1343,1364,1384,1402,1423,1443,1463,1482,1503,1523,1544],"xSR":741.5,"ySR":469.95,"xT1":424.9,"yT1":0,"xT2":1058.1,"yT2":0,"toosoon":0,"cond_shown":"Congruent","ratio_trial":100,"L_num":2,"L_den":5,"R_num":11,"R_den":22,"correct_side":2,"subjID":"IsabellaPabónDíaz8","gender":"1","school":"2019","age":"11"},{"start_time":1551887008264,"click_time":1551887009935,"finger_time":1551887009335,"fix_duration":1248.5570680190608,"trial":2,"RT":1071,"MT":600,"sideResp":1,"stimulus":[],"xmouse":[816,816,816,816,816,816,816,816,816,816,816,816,816,816,816,816,816,816,816,816,816,816,816,816,816,816,816,816,816,816,816,816,816,816,816,816,816,816,816,816,816,816,816,816,816,816,816,816,816,816,815,809,801,786,780,778,778,778,778,778,777,772,765,755,739,716,645,604,569,544,524,501,493,479,469,458,449,448,448,448,448,448,448,448],"ymouse":[513,513,513,513,513,513,513,513,513,513,513,513,513,513,513,513,513,513,513,513,513,513,513,513,513,513,513,513,513,513,513,513,513,513,513,513,513,513,513,513,513,513,513,513,513,513,513,513,513,513,513,502,489,469,459,457,456,456,455,454,453,448,440,431,417,398,345,318,296,278,261,230,216,193,175,161,144,140,136,131,126,111,100,95],"timestamp_mouse":[26,47,51,70,92,110,130,151,172,190,212,231,250,271,290,312,330,351,370,391,410,431,452,470,492,512,530,551,570,591,611,631,650,672,692,712,731,751,772,791,810,831,851,872,891,911,932,950,970,992,1010,1031,1052,1071,1092,1111,1131,1151,1170,1190,1211,1231,1251,1271,1290,1310,1332,1351,1371,1390,1411,1430,1451,1471,1492,1510,1530,1551,1571,1591,1611,1632,1651,1671],"xSR":741.5,"ySR":469.95,"xT1":424.9,"yT1":0,"xT2":1058.1,"yT2":0,"toosoon":0,"cond_shown":"Congruent","ratio_trial":200,"L_num":15,"L_den":25,"R_num":4,"R_den":10,"correct_side":1,"subjID":"IsabellaPabónDíaz8","gender":"1","school":"2019","age":"11"},{"start_time":1551887012710,"click_time":1551887014875,"finger_time":1551887014495,"fix_duration":1393.089185147995,"trial":3,"RT":1785,"MT":380,"sideResp":1,"stimulus":[],"xmouse":[788,788,788,788,788,788,788,788,788,788,788,788,788,788,788,788,788,788,788,788,788,788,788,788,788,788,788,788,788,788,788,788,788,788,788,788,788,788,788,788,788,788,788,788,788,788,788,788,788,788,788,788,788,788,788,788,788,788,788,788,788,788,788,788,788,788,788,788,788,788,788,788,788,788,788,788,788,788,788,788,788,788,788,788,789,792,799,807,816,823,825,826,828,829,830,830,830,830,831,831,831,831,831,828,810,716,634,550,441],"ymouse":[516,516,516,516,516,516,516,516,516,516,516,516,516,516,516,516,516,516,516,516,516,516,516,516,516,516,516,516,516,516,516,516,516,516,516,516,516,516,516,516,516,516,516,516,516,516,516,516,516,516,516,516,516,516,516,516,516,516,516,516,516,516,516,516,516,516,516,516,516,516,516,516,516,516,516,516,516,516,516,516,516,516,516,516,516,512,501,490,477,465,463,460,457,456,454,454,453,453,451,450,448,444,437,423,392,293,232,171,94],"timestamp_mouse":[10,32,46,64,86,105,124,146,165,184,206,225,246,266,284,305,324,344,366,384,406,425,445,465,485,505,526,546,566,584,605,625,646,665,685,706,725,745,766,784,806,826,844,865,884,905,924,946,966,985,1005,1026,1046,1065,1085,1105,1125,1146,1164,1185,1205,1225,1246,1266,1285,1304,1326,1346,1364,1385,1406,1425,1445,1466,1486,1505,1526,1545,1565,1585,1606,1626,1646,1665,1686,1705,1726,1745,1764,1785,1805,1824,1845,1865,1886,1905,1925,1945,1966,1984,2004,2024,2045,2066,2084,2105,2125,2144,2164],"xSR":741.5,"ySR":469.95,"xT1":424.9,"yT1":0,"xT2":1058.1,"yT2":0,"toosoon":0,"cond_shown":"Congruent","ratio_trial":200,"L_num":13,"L_den":26,"R_num":14,"R_den":20,"correct_side":2,"subjID":"IsabellaPabónDíaz8","gender":"1","school":"2019","age":"11"},{"start_time":1551887017538,"click_time":1551887019354,"finger_time":1551887018855,"fix_duration":1401.1083560452346,"trial":4,"RT":1317,"MT":499,"sideResp":2,"stimulus":[],"xmouse":[781,781,781,781,781,782,782,783,783,783,783,784,784,786,786,786,786,787,787,787,787,787,787,787,788,789,790,790,790,790,790,790,790,790,790,790,790,790,790,790,790,790,790,790,790,790,790,790,790,790,790,790,790,790,790,790,790,790,790,790,790,790,790,796,806,818,833,847,862,869,875,883,891,910,917,926,930,935,943,947,951,955,959,973,982,1003,1020,1032,1051,1057,1062],"ymouse":[486,486,486,486,486,486,486,486,486,486,486,485,485,484,484,484,484,483,483,483,483,483,483,483,482,482,482,481,481,481,481,481,481,481,481,481,481,481,481,481,481,481,481,481,481,481,481,481,481,481,481,481,481,481,481,481,481,481,481,481,481,481,481,476,471,463,451,438,419,411,399,385,368,330,312,291,280,267,244,236,229,222,216,197,185,159,139,124,104,98,94],"timestamp_mouse":[17,42,58,77,97,117,138,157,177,196,217,237,256,277,296,318,338,356,377,397,417,438,456,476,497,517,537,556,577,598,616,636,658,677,696,717,736,757,777,797,817,838,858,877,897,916,937,957,978,997,1017,1036,1056,1077,1098,1117,1137,1157,1177,1198,1216,1238,1257,1276,1297,1316,1336,1357,1377,1397,1416,1436,1458,1477,1497,1516,1536,1557,1577,1598,1618,1636,1656,1676,1697,1718,1737,1758,1776,1796,1816],"xSR":741.5,"ySR":469.95,"xT1":424.9,"yT1":0,"xT2":1058.1,"yT2":0,"toosoon":0,"cond_shown":"Incongruent","ratio_trial":300,"L_num":13,"L_den":26,"R_num":12,"R_den":15,"correct_side":2,"subjID":"IsabellaPabónDíaz8","gender":"1","school":"2019","age":"11"},{"start_time":1551887021162,"click_time":1551887023316,"finger_time":1551887022515,"fix_duration":505.4473275875526,"trial":5,"RT":1353,"MT":801,"sideResp":2,"stimulus":[],"xmouse":[815,815,815,815,815,815,815,815,815,815,815,815,815,815,815,815,815,815,815,815,815,815,815,815,815,815,815,815,815,815,815,815,815,815,815,815,815,815,815,815,815,815,815,815,815,815,815,815,815,815,815,815,815,815,815,815,815,815,815,815,815,815,815,815,814,815,821,842,854,864,878,890,916,927,940,953,968,991,998,1005,1012,1019,1039,1049,1056,1061,1063,1068,1070,1071,1073,1074,1077,1078,1078,1080,1080,1083,1085,1085,1086,1086,1086,1087,1087,1087,1089,1090],"ymouse":[539,539,539,539,539,539,539,539,539,539,539,539,539,539,539,539,539,539,539,539,539,539,539,539,539,539,539,539,539,539,539,539,539,539,539,539,539,539,539,539,539,539,539,539,539,539,539,539,539,539,539,539,539,539,539,539,539,539,539,539,539,539,539,539,537,534,523,487,463,444,410,379,317,297,276,259,241,215,206,197,190,183,160,150,143,139,137,132,130,129,128,127,122,121,119,118,116,112,110,109,108,108,107,106,105,104,102,99],"timestamp_mouse":[12,33,53,72,93,113,134,152,174,194,213,233,253,273,293,313,334,354,373,394,414,434,454,474,494,513,533,553,572,593,614,633,652,673,694,713,734,753,772,792,813,834,853,873,894,913,933,954,973,992,1012,1032,1053,1074,1092,1113,1133,1154,1174,1194,1212,1234,1252,1273,1293,1313,1332,1353,1374,1392,1412,1433,1453,1472,1492,1513,1532,1552,1572,1594,1613,1632,1652,1672,1693,1713,1733,1754,1773,1792,1813,1833,1853,1873,1892,1913,1932,1952,1973,1993,2014,2033,2052,2072,2092,2112,2132,2153],"xSR":741.5,"ySR":469.95,"xT1":424.9,"yT1":0,"xT2":1058.1,"yT2":0,"toosoon":0,"cond_shown":"Incongruent","ratio_trial":300,"L_num":13,"L_den":26,"R_num":12,"R_den":15,"correct_side":2,"subjID":"IsabellaPabónDíaz8","gender":"1","school":"2019","age":"11"},{"start_time":1551887025437,"click_time":1551887026855,"finger_time":1551887026516,"fix_duration":640.9855179188717,"trial":6,"RT":1079,"MT":339,"sideResp":1,"stimulus":[],"xmouse":[794,794,794,794,794,794,794,794,794,794,794,794,794,794,794,794,794,794,794,794,794,794,794,794,794,794,794,794,794,794,794,794,794,794,794,794,794,794,794,794,794,794,794,794,794,794,794,794,791,778,770,764,762,761,761,761,761,761,761,761,761,759,757,748,701,665,615,590,574,524,475],"ymouse":[502,502,502,502,502,502,502,502,502,502,502,502,502,502,502,502,502,502,502,502,502,502,502,502,502,502,502,502,502,502,502,502,502,502,502,502,502,502,502,502,502,502,502,502,502,502,502,502,502,485,478,472,470,469,469,469,469,469,469,469,469,467,465,451,397,356,298,267,240,136,73],"timestamp_mouse":[19,42,58,78,98,118,139,158,179,197,219,239,257,278,299,317,339,358,378,399,418,438,458,477,499,519,539,558,578,599,619,638,658,678,698,719,739,757,779,799,817,838,859,879,898,917,939,959,978,998,1019,1038,1058,1079,1098,1118,1137,1157,1178,1198,1219,1238,1257,1279,1297,1317,1338,1358,1377,1397,1417],"xSR":741.5,"ySR":469.95,"xT1":424.9,"yT1":0,"xT2":1058.1,"yT2":0,"toosoon":0,"cond_shown":"Incongruent","ratio_trial":200,"L_num":3,"L_den":4,"R_num":11,"R_den":20,"correct_side":1,"subjID":"IsabellaPabónDíaz8","gender":"1","school":"2019","age":"11"},{"start_time":1551887028728,"click_time":1551887030635,"finger_time":1551887030255,"fix_duration":391.6549938347892,"trial":7,"RT":1527,"MT":380,"sideResp":1,"stimulus":[],"xmouse":[783,783,783,783,783,783,783,783,783,783,783,783,783,783,783,783,783,783,783,783,783,783,783,783,783,783,783,783,783,783,783,783,783,783,783,783,783,783,783,783,783,783,783,783,783,783,783,783,783,783,783,783,784,785,787,787,787,787,787,787,787,787,787,787,787,787,787,787,787,787,787,787,787,787,787,787,780,765,751,739,723,720,714,707,697,655,632,620,614,606,594,587,578,565,550,515],"ymouse":[487,487,487,487,487,487,487,487,487,487,487,487,487,487,487,487,487,487,487,487,487,487,487,487,487,487,487,487,487,487,487,487,487,487,487,487,487,487,487,487,487,487,487,487,487,487,487,487,487,487,487,487,487,487,485,484,484,484,484,484,484,484,484,484,484,484,484,484,484,484,484,484,484,484,484,480,466,446,431,419,397,390,377,362,339,264,233,216,202,180,153,140,125,110,97,74],"timestamp_mouse":[8,39,47,67,87,107,128,147,167,188,206,227,246,268,288,308,327,348,366,388,407,427,447,467,487,507,528,548,566,588,606,627,647,668,686,708,727,748,768,786,807,827,847,868,887,908,926,947,967,987,1006,1028,1047,1067,1087,1107,1127,1147,1167,1186,1207,1227,1246,1268,1287,1306,1328,1347,1367,1386,1407,1427,1446,1467,1487,1506,1527,1547,1568,1586,1607,1627,1648,1667,1687,1707,1726,1746,1767,1787,1806,1827,1846,1867,1886,1906],"xSR":741.5,"ySR":469.95,"xT1":424.9,"yT1":0,"xT2":1058.1,"yT2":0,"toosoon":0,"cond_shown":"Congruent","ratio_trial":100,"L_num":8,"L_den":16,"R_num":2,"R_den":5,"correct_side":1,"subjID":"IsabellaPabónDíaz8","gender":"1","school":"2019","age":"11"},{"start_time":1551887032730,"click_time":1551887034095,"finger_time":1551887033555,"fix_duration":1033.8944120479887,"trial":8,"RT":825,"MT":540,"sideResp":2,"stimulus":[],"xmouse":[798,798,798,798,798,798,798,798,798,798,798,798,798,798,798,798,798,798,798,798,798,798,798,798,798,798,798,798,798,798,798,798,798,798,798,798,798,799,804,815,820,830,835,838,843,848,864,874,882,892,898,910,915,921,926,939,947,955,972,985,995,1014,1021,1024,1027,1033,1049,1057,1065],"ymouse":[513,513,513,513,513,513,513,513,513,513,513,513,513,513,513,513,513,513,513,513,513,513,513,513,513,513,513,513,513,513,513,513,513,513,513,513,513,513,508,490,479,459,449,440,430,419,385,361,344,322,308,282,273,264,255,237,225,214,192,177,165,143,134,128,121,112,94,86,80],"timestamp_mouse":[9,25,45,66,85,104,126,146,164,186,205,226,246,265,285,306,326,344,366,384,405,426,446,464,486,505,525,544,565,585,606,626,644,664,686,704,726,745,764,785,805,824,846,865,884,904,924,945,965,985,1005,1025,1044,1064,1085,1106,1125,1145,1164,1184,1204,1225,1245,1265,1284,1305,1326,1346,1365],"xSR":741.5,"ySR":469.95,"xT1":424.9,"yT1":0,"xT2":1058.1,"yT2":0,"toosoon":0,"cond_shown":"Congruent","ratio_trial":300,"L_num":1,"L_den":20,"R_num":7,"R_den":20,"correct_side":2,"subjID":"IsabellaPabónDíaz8","gender":"1","school":"2019","age":"11"},{"start_time":1551887037611,"click_time":1551887039834,"finger_time":1551887039054,"fix_duration":853.9221381205426,"trial":9,"RT":1443,"MT":780,"sideResp":1,"stimulus":[],"xmouse":[775,775,775,775,775,775,775,775,775,775,775,775,775,775,775,775,775,775,775,775,775,775,775,775,775,775,775,775,775,775,775,775,775,775,775,775,775,775,775,775,775,775,775,775,775,775,775,775,775,775,775,775,775,775,775,775,775,775,775,775,775,775,775,775,774,773,770,766,762,759,756,753,739,724,697,662,603,480,423,373,344,333,331,331,331,331,331,333,334,336,337,340,359,368,377,382,388,395,398,402,405,409,419,420,420,420,420,420,421,422,424,427],"ymouse":[531,531,530,530,530,530,530,530,530,530,530,530,530,530,530,530,530,530,530,530,530,530,530,530,530,530,530,530,530,530,530,530,530,530,530,530,530,530,530,530,530,530,530,530,530,530,530,530,530,530,530,530,530,530,530,530,530,530,530,530,530,530,530,530,529,522,515,505,498,493,489,483,469,461,441,417,383,283,225,169,134,116,101,100,100,100,98,96,95,94,93,92,82,79,75,73,73,71,71,70,70,69,68,68,68,68,68,68,68,68,68,68],"timestamp_mouse":[8,23,60,65,84,104,123,145,165,183,204,225,244,265,284,303,323,345,365,384,404,424,443,463,484,503,525,545,563,585,604,624,643,664,683,705,724,744,764,783,804,824,843,864,884,904,925,945,963,985,1004,1024,1043,1063,1084,1103,1125,1143,1164,1183,1205,1223,1243,1265,1284,1303,1324,1344,1364,1383,1404,1425,1443,1463,1484,1504,1523,1544,1564,1584,1603,1623,1643,1664,1683,1704,1723,1744,1765,1783,1804,1825,1844,1865,1883,1904,1923,1943,1963,1984,2003,2025,2043,2063,2084,2104,2123,2144,2164,2184,2205,2223],"xSR":741.5,"ySR":469.95,"xT1":424.9,"yT1":0,"xT2":1058.1,"yT2":0,"toosoon":0,"cond_shown":"Congruent","ratio_trial":200,"L_num":6,"L_den":15,"R_num":3,"R_den":15,"correct_side":1,"subjID":"IsabellaPabónDíaz8","gender":"1","school":"2019","age":"11"},{"start_time":1551887041727,"click_time":1551887043016,"finger_time":1551887042474,"fix_duration":870.5167673541812,"trial":10,"RT":747,"MT":542,"sideResp":1,"stimulus":[],"xmouse":[827,827,827,827,827,827,827,827,827,827,827,827,827,827,827,827,827,827,827,827,827,827,827,827,827,827,827,827,827,827,827,827,827,827,827,819,774,734,701,662,632,597,585,577,568,556,554,552,552,552,552,552,549,548,542,527,513,482,477,475,475,475,473,473,472],"ymouse":[525,525,525,525,525,525,525,525,525,525,525,525,525,525,525,525,525,525,525,525,525,525,525,525,525,525,525,525,525,525,525,525,525,525,525,519,488,462,439,410,385,333,310,290,271,252,248,246,245,244,241,235,223,213,198,172,150,118,113,109,107,105,101,100,97],"timestamp_mouse":[10,31,47,68,88,107,128,148,167,189,209,227,249,268,288,308,329,348,367,388,407,429,448,467,489,508,528,548,567,589,609,627,649,667,688,707,728,747,768,789,808,829,847,867,888,909,928,948,968,987,1007,1027,1047,1067,1087,1109,1127,1147,1168,1188,1209,1228,1247,1267,1288],"xSR":741.5,"ySR":469.95,"xT1":424.9,"yT1":0,"xT2":1058.1,"yT2":0,"toosoon":0,"cond_shown":"Incongruent","ratio_trial":300,"L_num":1,"L_den":2,"R_num":3,"R_den":15,"correct_side":1,"subjID":"IsabellaPabónDíaz8","gender":"1","school":"2019","age":"11"},{"start_time":1551887045427,"click_time":1551887046595,"finger_time":1551887046075,"fix_duration":250,"trial":11,"RT":648,"MT":520,"sideResp":2,"stimulus":[],"xmouse":[783,783,783,783,783,783,783,783,783,783,783,783,783,783,783,783,783,783,783,783,783,783,783,783,783,783,783,783,783,783,783,791,822,840,869,896,919,957,965,973,978,981,988,990,993,994,996,1000,1007,1018,1026,1030,1037,1042,1046,1050,1053,1058,1061],"ymouse":[497,497,497,497,497,497,497,497,497,497,497,497,497,497,497,497,497,497,497,497,497,497,497,497,497,497,497,497,497,497,497,494,468,446,411,377,350,283,261,246,233,224,206,197,190,185,179,171,162,148,138,132,118,109,102,97,94,87,84],"timestamp_mouse":[10,33,48,68,88,108,128,149,167,188,208,228,248,268,288,309,327,349,367,388,409,427,448,468,489,508,529,549,569,589,607,627,648,667,688,708,729,748,768,788,808,828,848,868,887,908,928,947,968,988,1007,1027,1048,1068,1088,1107,1127,1147,1168],"xSR":741.5,"ySR":469.95,"xT1":424.9,"yT1":0,"xT2":1058.1,"yT2":0,"toosoon":0,"cond_shown":"Incongruent","ratio_trial":200,"L_num":11,"L_den":20,"R_num":3,"R_den":4,"correct_side":2,"subjID":"IsabellaPabónDíaz8","gender":"1","school":"2019","age":"11"},{"start_time":1551887052991,"click_time":1551887054616,"finger_time":1551887054135,"fix_duration":693.7094932648833,"trial":12,"RT":1144,"MT":481,"sideResp":2,"stimulus":[],"xmouse":[785,785,785,785,785,785,785,785,785,785,785,785,785,785,785,785,785,785,785,785,785,785,785,785,785,785,785,785,785,785,785,785,785,785,785,785,785,785,785,785,785,785,785,785,785,785,785,785,785,785,785,786,788,789,793,818,840,857,871,884,919,934,948,958,968,989,1006,1015,1021,1027,1036,1038,1039,1040,1040,1040,1040,1040,1041,1042,1055,1062],"ymouse":[541,541,541,541,541,541,541,541,541,541,541,541,541,541,541,541,541,541,541,541,541,541,541,541,541,541,541,541,541,541,541,541,541,541,541,541,541,541,541,541,541,541,541,541,541,541,541,541,541,541,541,541,540,539,537,523,505,487,467,447,381,343,311,286,264,216,175,156,139,127,106,100,97,97,97,97,97,96,95,94,87,84],"timestamp_mouse":[10,33,44,65,84,105,123,145,163,184,205,224,244,265,283,304,324,345,365,384,405,424,443,464,483,505,524,544,565,584,605,624,644,664,684,703,724,744,763,784,803,824,845,863,884,905,923,945,964,984,1005,1024,1043,1063,1084,1104,1123,1144,1163,1183,1205,1223,1244,1265,1283,1303,1324,1343,1364,1383,1403,1424,1444,1464,1484,1504,1525,1543,1563,1583,1603,1625],"xSR":741.5,"ySR":469.95,"xT1":424.9,"yT1":0,"xT2":1058.1,"yT2":0,"toosoon":0,"cond_shown":"Incongruent","ratio_trial":100,"L_num":11,"L_den":22,"R_num":9,"R_den":15,"correct_side":2,"subjID":"IsabellaPabónDíaz8","gender":"1","school":"2019","age":"11"},{"start_time":1551887056210,"click_time":1551887057694,"finger_time":1551887056875,"fix_duration":515.3585528656732,"trial":13,"RT":665,"MT":819,"sideResp":1,"stimulus":[],"xmouse":[805,805,805,805,805,805,805,805,805,805,805,805,805,805,805,805,805,805,805,805,805,805,805,804,798,793,790,788,784,777,774,771,767,758,747,742,737,733,730,726,725,725,725,724,724,724,724,724,724,724,720,713,700,681,596,560,535,517,503,479,465,450,438,427,414,414,414,416,419,422,423,423,423,423,425],"ymouse":[536,536,536,536,536,536,536,536,536,536,536,536,536,536,536,536,536,536,536,536,536,536,536,535,522,514,509,503,498,487,483,479,474,463,451,447,441,436,433,430,430,430,430,429,429,429,429,429,429,429,427,417,402,384,313,285,263,242,218,172,150,129,113,101,89,89,88,88,85,81,80,79,79,79,76],"timestamp_mouse":[8,24,43,64,84,103,125,145,164,184,203,224,244,263,284,303,325,344,364,384,404,424,443,464,484,503,523,545,563,583,604,625,643,665,684,703,724,743,763,784,805,824,843,865,885,904,925,944,964,984,1003,1023,1043,1065,1084,1105,1123,1144,1163,1183,1203,1224,1244,1265,1283,1303,1324,1343,1365,1384,1403,1424,1444,1464,1483],"xSR":741.5,"ySR":469.95,"xT1":424.9,"yT1":0,"xT2":1058.1,"yT2":0,"toosoon":0,"cond_shown":"Incongruent","ratio_trial":100,"L_num":13,"L_den":26,"R_num":12,"R_den":20,"correct_side":2,"subjID":"IsabellaPabónDíaz8","gender":"1","school":"2019","age":"11"},{"start_time":1551887064680,"click_time":1551887066034,"finger_time":1551887065555,"fix_duration":1065.7282624318232,"trial":14,"RT":875,"MT":479,"sideResp":1,"stimulus":[],"xmouse":[793,793,793,793,793,793,793,793,793,793,793,793,793,793,793,793,793,793,793,793,793,793,793,793,793,793,793,793,793,793,793,793,793,793,793,793,793,793,793,793,793,793,793,783,752,669,573,554,549,546,545,544,544,543,542,542,542,542,542,542,542,542,542,541,540,538,528,516],"ymouse":[525,525,525,525,525,525,525,525,525,525,525,525,525,525,525,525,525,525,525,525,525,525,525,525,525,525,525,525,525,525,525,525,525,525,525,525,525,525,525,525,525,523,503,450,377,243,129,108,96,87,77,63,58,55,51,51,51,51,51,51,51,51,51,51,51,52,52,52],"timestamp_mouse":[13,35,53,74,94,115,133,154,174,194,213,235,254,274,294,314,334,354,374,395,414,434,455,474,495,513,534,553,575,593,614,634,655,675,694,715,733,753,775,794,814,833,853,875,893,914,934,954,974,993,1013,1033,1053,1074,1094,1113,1134,1153,1175,1194,1214,1233,1254,1274,1293,1314,1333,1354],"xSR":741.5,"ySR":469.95,"xT1":424.9,"yT1":0,"xT2":1058.1,"yT2":0,"toosoon":0,"cond_shown":"Congruent","ratio_trial":200,"L_num":3,"L_den":10,"R_num":7,"R_den":14,"correct_side":2,"subjID":"IsabellaPabónDíaz8","gender":"1","school":"2019","age":"11"},{"start_time":1551887068879,"click_time":1551887069954,"finger_time":1551887069554,"fix_duration":1243.7730267438392,"trial":15,"RT":675,"MT":400,"sideResp":2,"stimulus":[],"xmouse":[819,819,819,819,819,819,819,819,819,819,819,819,819,819,819,819,819,819,819,819,819,819,819,819,819,819,819,819,819,819,819,821,840,874,891,925,946,966,974,981,989,1000,1004,1008,1013,1017,1029,1032,1034,1037,1039,1043,1063,1072],"ymouse":[533,533,533,533,533,533,533,533,533,533,533,533,533,533,533,533,533,533,533,533,533,533,533,533,533,533,533,533,533,533,530,528,501,452,425,355,314,268,250,234,220,199,190,180,171,164,145,141,135,132,127,121,101,93],"timestamp_mouse":[14,41,55,75,95,115,134,155,175,195,215,236,254,274,296,314,336,354,375,396,416,435,456,475,495,515,536,555,575,596,616,635,655,675,695,714,734,754,775,795,815,836,854,875,894,915,936,954,976,994,1014,1034,1056,1075],"xSR":741.5,"ySR":469.95,"xT1":424.9,"yT1":0,"xT2":1058.1,"yT2":0,"toosoon":0,"cond_shown":"Incongruent","ratio_trial":100,"L_num":12,"L_den":30,"R_num":2,"R_den":4,"correct_side":2,"subjID":"IsabellaPabónDíaz8","gender":"1","school":"2019","age":"11"},{"start_time":1551887071886,"click_time":1551887073693,"finger_time":1551887073274,"fix_duration":670.9880366533954,"trial":16,"RT":1388,"MT":419,"sideResp":1,"stimulus":[],"xmouse":[799,799,799,799,799,799,799,799,799,799,799,799,799,799,799,799,799,799,799,799,799,799,799,799,799,799,799,799,799,799,799,799,799,799,799,799,799,799,799,799,799,799,799,799,799,799,799,799,797,796,794,790,783,781,780,780,780,779,778,777,775,774,774,773,773,771,770,766,750,732,711,687,594,551,515,484,462,448,432,428,424,423,420,420,420,420,420,420,421,423,425],"ymouse":[522,522,522,522,522,522,522,522,522,522,522,522,522,522,522,522,522,522,522,522,522,522,522,522,522,522,522,522,522,522,522,522,522,522,522,522,522,522,522,522,522,522,522,522,522,522,522,522,522,521,520,517,512,510,510,510,510,509,508,507,505,504,503,503,502,502,500,498,484,471,455,437,355,309,266,231,204,183,145,130,116,106,86,81,76,71,66,62,58,54,50],"timestamp_mouse":[8,29,62,69,89,108,128,149,168,189,207,228,248,267,289,307,328,347,369,388,408,427,448,469,487,507,527,549,567,589,609,627,647,669,687,707,728,748,769,787,808,828,848,867,888,907,928,947,967,987,1008,1028,1048,1068,1088,1107,1127,1148,1167,1188,1208,1227,1248,1268,1287,1309,1327,1347,1368,1388,1408,1428,1447,1467,1487,1507,1528,1548,1568,1588,1607,1628,1648,1669,1687,1707,1727,1748,1767,1788,1807],"xSR":741.5,"ySR":469.95,"xT1":424.9,"yT1":0,"xT2":1058.1,"yT2":0,"toosoon":0,"cond_shown":"Congruent","ratio_trial":200,"L_num":7,"L_den":21,"R_num":2,"R_den":15,"correct_side":1,"subjID":"IsabellaPabónDíaz8","gender":"1","school":"2019","age":"11"},{"start_time":1551887076084,"click_time":1551887076794,"finger_time":1551887076415,"fix_duration":1108.5688071021955,"trial":17,"RT":331,"MT":379,"sideResp":1,"stimulus":[],"xmouse":[819,819,819,819,819,819,819,819,819,819,819,818,812,806,799,795,793,793,792,792,792,792,788,786,784,778,768,731,705,674,640,599,574,533,516,503],"ymouse":[506,506,506,506,506,506,506,506,506,505,503,502,493,485,475,471,468,466,465,465,465,464,456,454,449,441,429,384,352,317,277,232,200,138,112,95],"timestamp_mouse":[14,38,50,71,91,110,130,150,170,190,209,230,250,269,289,310,331,350,370,389,410,430,450,470,489,510,530,550,569,589,609,630,649,669,689,710],"xSR":741.5,"ySR":469.95,"xT1":424.9,"yT1":0,"xT2":1058.1,"yT2":0,"toosoon":0,"cond_shown":"Incongruent","ratio_trial":100,"L_num":6,"L_den":10,"R_num":11,"R_den":22,"correct_side":1,"subjID":"IsabellaPabónDíaz8","gender":"1","school":"2019","age":"11"},{"start_time":1551887078326,"click_time":1551887080135,"finger_time":1551887079413,"fix_duration":250,"trial":18,"RT":1087,"MT":722,"sideResp":2,"stimulus":[],"xmouse":[785,785,785,785,785,785,785,785,785,785,785,785,785,785,785,785,785,785,785,785,785,785,785,785,785,785,785,785,785,785,785,785,785,785,785,785,785,785,785,785,785,785,785,785,785,785,785,785,785,785,785,781,769,753,740,734,733,733,733,733,733,733,733,733,733,733,737,753,771,791,812,855,871,891,910,930,983,995,1000,1002,1002,995,991,990,989,989,1002,1020,1038,1056,1074],"ymouse":[536,536,536,536,536,536,536,536,536,536,536,536,536,536,536,536,536,536,536,536,536,536,536,536,536,536,536,536,536,536,536,536,536,536,536,536,536,536,536,536,536,536,536,536,536,536,536,536,536,536,536,532,521,506,488,479,476,476,476,476,476,476,474,473,470,468,459,444,433,422,409,383,370,355,342,326,261,237,221,208,196,168,158,152,148,141,123,107,95,84,74],"timestamp_mouse":[10,40,48,67,88,107,128,148,167,189,208,228,249,267,287,309,329,348,367,389,407,429,448,467,487,508,529,549,569,588,609,627,647,667,688,707,729,747,767,788,807,829,847,868,888,908,929,949,967,988,1009,1027,1048,1069,1087,1109,1127,1149,1168,1188,1207,1228,1247,1268,1287,1307,1328,1348,1368,1387,1407,1427,1447,1467,1487,1508,1528,1548,1567,1587,1607,1629,1648,1667,1687,1708,1728,1747,1768,1787,1808],"xSR":741.5,"ySR":469.95,"xT1":424.9,"yT1":0,"xT2":1058.1,"yT2":0,"toosoon":0,"cond_shown":"Congruent","ratio_trial":200,"L_num":3,"L_den":6,"R_num":14,"R_den":20,"correct_side":2,"subjID":"IsabellaPabónDíaz8","gender":"1","school":"2019","age":"11"},{"start_time":1551887082226,"click_time":1551887083654,"finger_time":1551887083114,"fix_duration":1152.0178461875562,"trial":19,"RT":888,"MT":540,"sideResp":2,"stimulus":[],"xmouse":[806,806,806,806,806,806,806,806,806,806,806,806,806,806,806,806,806,806,806,806,806,806,806,806,806,806,806,806,806,806,806,806,806,806,806,806,806,806,806,806,806,812,822,835,849,867,898,914,926,939,951,962,975,984,989,996,1006,1009,1010,1012,1017,1026,1032,1033,1034,1035,1035,1035,1037,1044,1055,1082],"ymouse":[511,511,511,511,511,511,511,511,511,511,511,511,511,511,511,511,511,511,511,511,511,511,511,511,511,511,511,511,511,511,511,511,511,511,511,511,511,511,511,511,512,508,501,489,478,461,425,404,384,360,317,259,227,205,190,174,151,144,138,133,122,110,103,102,101,100,100,98,97,94,90,83],"timestamp_mouse":[10,28,47,68,87,109,129,147,169,188,207,228,248,268,289,307,327,349,367,388,409,427,448,467,487,509,528,547,568,588,608,627,647,669,688,707,729,748,768,787,808,827,849,868,888,909,929,947,968,988,1008,1028,1049,1068,1087,1107,1127,1147,1168,1189,1208,1227,1248,1267,1288,1308,1327,1348,1367,1387,1409,1428],"xSR":741.5,"ySR":469.95,"xT1":424.9,"yT1":0,"xT2":1058.1,"yT2":0,"toosoon":0,"cond_shown":"Congruent","ratio_trial":300,"L_num":1,"L_den":30,"R_num":8,"R_den":24,"correct_side":2,"subjID":"IsabellaPabónDíaz8","gender":"1","school":"2019","age":"11"},{"start_time":1551887085455,"click_time":1551887086953,"finger_time":1551887086555,"fix_duration":640.100731698478,"trial":20,"RT":1100,"MT":398,"sideResp":2,"stimulus":[],"xmouse":[812,812,812,812,812,812,812,812,812,812,812,812,812,812,812,812,812,812,812,812,812,812,812,812,812,812,812,812,812,812,812,812,812,812,812,812,812,809,803,791,761,751,747,747,746,746,746,745,745,744,743,743,743,743,746,754,766,789,807,824,853,866,880,896,929,944,957,977,990,1001,1025,1034,1044,1054,1061],"ymouse":[519,519,519,519,519,519,519,519,519,519,519,519,519,519,519,519,519,519,519,519,519,519,519,519,519,519,519,519,519,519,519,519,519,519,519,519,519,519,518,511,493,488,485,484,483,483,482,481,480,479,477,476,474,472,461,446,425,394,373,352,319,299,280,257,218,201,186,162,147,135,108,98,88,80,74],"timestamp_mouse":[31,38,59,79,99,120,140,160,179,198,218,239,259,280,298,318,339,359,379,399,419,440,458,478,499,518,538,560,580,600,618,639,660,679,699,719,739,758,779,799,819,839,858,879,899,918,939,958,979,998,1019,1038,1058,1078,1100,1119,1139,1158,1178,1199,1219,1240,1258,1278,1299,1319,1339,1359,1378,1398,1418,1439,1458,1478,1498],"xSR":741.5,"ySR":469.95,"xT1":424.9,"yT1":0,"xT2":1058.1,"yT2":0,"toosoon":0,"cond_shown":"Congruent","ratio_trial":300,"L_num":1,"L_den":5,"R_num":11,"R_den":22,"correct_side":2,"subjID":"IsabellaPabónDíaz8","gender":"1","school":"2019","age":"11"},{"start_time":1551887090724,"click_time":1551887092834,"finger_time":1551887092173,"fix_duration":1328.2468814699014,"trial":21,"RT":1449,"MT":661,"sideResp":1,"stimulus":[],"xmouse":[778,778,778,778,778,778,778,778,778,778,778,778,778,778,778,778,778,778,778,778,778,778,778,778,778,778,778,778,778,778,778,778,778,778,778,778,778,778,778,778,778,778,778,778,778,778,778,778,778,778,778,778,778,778,778,778,778,778,779,779,779,779,779,779,779,779,779,779,779,779,778,776,759,702,674,648,630,599,586,577,568,566,559,559,558,556,553,542,535,530,524,518,502,498,496,494,492,489,489,489,489,489,489,489,489,489],"ymouse":[492,492,491,491,491,491,491,491,491,491,491,491,491,491,491,491,491,491,491,491,491,491,491,491,491,491,491,491,491,491,491,491,491,491,491,491,491,491,491,491,491,491,491,491,491,491,491,491,491,491,491,491,491,491,491,491,491,491,491,491,491,491,491,491,491,491,491,491,487,486,477,471,440,355,318,282,253,206,189,175,163,160,151,149,148,146,143,134,128,123,118,115,108,107,106,105,103,101,101,100,100,100,100,100,100,99],"timestamp_mouse":[9,42,49,70,90,110,129,150,171,189,210,230,249,269,291,309,330,351,370,390,411,429,451,470,490,511,530,550,571,589,611,630,650,669,689,709,729,750,769,791,810,830,850,871,889,909,931,950,970,989,1010,1029,1052,1070,1091,1109,1131,1150,1169,1191,1209,1231,1249,1270,1291,1310,1331,1350,1370,1390,1409,1430,1449,1471,1490,1510,1529,1551,1569,1590,1610,1631,1650,1669,1691,1709,1729,1750,1769,1789,1809,1830,1850,1869,1889,1909,1929,1949,1969,1991,2011,2029,2050,2070,2090,2110],"xSR":741.5,"ySR":469.95,"xT1":424.9,"yT1":0,"xT2":1058.1,"yT2":0,"toosoon":0,"cond_shown":"Incongruent","ratio_trial":200,"L_num":6,"L_den":20,"R_num":3,"R_den":6,"correct_side":2,"subjID":"IsabellaPabónDíaz8","gender":"1","school":"2019","age":"11"},{"start_time":1551887095054,"click_time":1551887096335,"finger_time":1551887095853,"fix_duration":777.8522542359528,"trial":22,"RT":799,"MT":482,"sideResp":2,"stimulus":[],"xmouse":[785,785,785,785,785,785,785,785,785,785,785,785,785,785,785,785,785,785,785,785,785,785,785,785,785,785,785,785,785,785,785,785,785,785,785,785,787,792,801,811,822,862,892,928,973,995,1010,1030,1034,1038,1044,1047,1047,1047,1041,1038,1036,1036,1036,1037,1040,1045,1053,1056,1060],"ymouse":[495,495,495,495,495,495,495,495,495,495,495,495,495,495,495,495,495,495,495,495,495,495,495,495,495,495,495,495,495,495,495,495,495,495,495,496,496,493,487,478,463,426,405,379,346,329,314,283,267,250,232,198,181,157,140,124,106,82,75,69,60,55,49,47,45],"timestamp_mouse":[1,19,39,59,80,100,120,140,161,180,199,220,241,261,280,300,319,341,360,381,399,420,441,461,479,499,521,541,559,580,599,620,641,660,680,700,720,739,760,780,799,821,840,859,879,900,919,939,959,979,999,1021,1039,1060,1079,1099,1121,1140,1160,1180,1200,1220,1239,1260,1281],"xSR":741.5,"ySR":469.95,"xT1":424.9,"yT1":0,"xT2":1058.1,"yT2":0,"toosoon":0,"cond_shown":"Congruent","ratio_trial":200,"L_num":13,"L_den":26,"R_num":14,"R_den":20,"correct_side":2,"subjID":"IsabellaPabónDíaz8","gender":"1","school":"2019","age":"11"},{"start_time":1551887098894,"click_time":1551887099974,"finger_time":1551887099514,"fix_duration":1300.1126168907756,"trial":23,"RT":620,"MT":460,"sideResp":1,"stimulus":[],"xmouse":[810,810,810,810,810,810,810,810,810,810,810,810,810,810,810,810,810,810,810,810,810,810,810,810,810,810,810,810,810,808,754,707,657,616,571,557,547,538,529,515,514,513,513,513,513,513,513,513,512,509,506,502,496,491],"ymouse":[540,540,540,540,540,540,540,540,540,540,540,540,540,540,540,540,540,540,540,540,540,540,540,540,540,540,540,540,539,534,455,414,373,337,282,258,234,214,197,176,173,170,165,162,155,151,146,141,138,125,117,109,101,94],"timestamp_mouse":[35,40,60,79,101,119,139,159,179,200,220,240,260,279,299,320,341,359,379,401,420,439,460,480,499,520,541,559,579,599,620,639,660,681,699,720,739,760,781,799,820,839,860,880,900,919,939,960,980,1000,1019,1039,1059,1080],"xSR":741.5,"ySR":469.95,"xT1":424.9,"yT1":0,"xT2":1058.1,"yT2":0,"toosoon":0,"cond_shown":"Incongruent","ratio_trial":300,"L_num":8,"L_den":10,"R_num":9,"R_den":18,"correct_side":1,"subjID":"IsabellaPabónDíaz8","gender":"1","school":"2019","age":"11"},{"start_time":1551887102369,"click_time":1551887103653,"finger_time":1551887103133,"fix_duration":1274.7000758639992,"trial":24,"RT":764,"MT":520,"sideResp":2,"stimulus":[],"xmouse":[820,820,820,820,820,820,820,820,820,820,820,820,820,820,820,820,820,820,820,820,820,820,820,820,820,820,820,820,821,822,822,823,826,828,830,832,839,841,844,855,870,889,936,959,976,990,997,1003,1004,1004,1004,1005,1011,1014,1020,1023,1025,1027,1029,1031,1034,1038,1049,1057,1067],"ymouse":[526,526,526,526,526,526,526,526,526,526,526,526,526,526,526,526,526,526,526,526,526,526,526,526,526,526,526,526,527,527,527,526,524,521,517,513,497,489,480,467,452,434,387,364,341,314,298,261,245,233,222,210,185,170,150,140,135,129,125,122,119,114,106,100,92],"timestamp_mouse":[10,25,44,66,85,104,125,146,166,184,204,224,246,264,284,305,325,345,364,385,405,424,445,464,486,504,526,545,565,584,604,625,646,665,684,704,726,745,764,784,804,825,845,864,884,904,925,944,964,984,1004,1024,1044,1065,1085,1105,1126,1145,1164,1185,1206,1225,1245,1265,1284],"xSR":741.5,"ySR":469.95,"xT1":424.9,"yT1":0,"xT2":1058.1,"yT2":0,"toosoon":0,"cond_shown":"Incongruent","ratio_trial":200,"L_num":14,"L_den":30,"R_num":12,"R_den":18,"correct_side":2,"subjID":"IsabellaPabónDíaz8","gender":"1","school":"2019","age":"11"},{"start_time":1551887105541,"click_time":1551887106833,"finger_time":1551887106214,"fix_duration":805.0055893042377,"trial":25,"RT":673,"MT":619,"sideResp":1,"stimulus":[],"xmouse":[820,820,820,820,820,820,820,820,820,820,820,820,820,820,820,820,820,820,820,820,820,820,820,820,820,820,820,820,820,819,818,808,786,701,673,652,635,621,583,555,534,525,524,521,518,515,514,512,509,507,503,501,499,491,489,486,484,482,478,477,474,473,471,469,469],"ymouse":[509,509,509,509,509,509,509,509,509,509,509,509,509,509,509,509,509,509,509,509,509,509,509,509,509,509,509,509,509,509,509,506,498,464,448,432,417,400,358,335,325,320,315,301,288,280,275,268,248,239,230,223,214,188,178,169,159,152,141,135,128,122,114,100,96],"timestamp_mouse":[12,39,53,73,92,113,134,153,174,192,212,234,254,273,294,312,334,354,373,392,413,433,454,473,492,514,532,553,574,593,613,632,653,673,693,713,732,752,773,792,813,834,854,873,893,912,932,952,972,993,1013,1033,1054,1073,1092,1113,1132,1154,1172,1192,1212,1233,1254,1274,1292],"xSR":741.5,"ySR":469.95,"xT1":424.9,"yT1":0,"xT2":1058.1,"yT2":0,"toosoon":0,"cond_shown":"Congruent","ratio_trial":100,"L_num":4,"L_den":8,"R_num":6,"R_den":10,"correct_side":2,"subjID":"IsabellaPabónDíaz8","gender":"1","school":"2019","age":"11"},{"start_time":1551887110846,"click_time":1551887112534,"finger_time":1551887111793,"fix_duration":1311.9105421615711,"trial":26,"RT":947,"MT":741,"sideResp":1,"stimulus":[],"xmouse":[793,793,793,793,793,793,793,793,793,793,793,793,793,793,793,793,793,793,793,793,793,793,793,793,793,793,793,793,793,793,793,793,793,793,793,793,793,793,793,793,791,791,790,789,776,762,750,737,729,705,693,677,659,624,604,583,553,500,456,446,440,434,429,427,424,424,423,423,421,410,396,386,384,392,409,412,412,412,412,412,412,413,417,423,440],"ymouse":[518,518,518,518,518,518,518,518,518,518,518,518,518,518,518,518,518,518,518,518,518,518,518,518,518,518,518,518,518,518,518,518,518,518,518,518,518,518,518,518,516,515,515,514,499,490,483,474,467,451,446,441,435,422,411,399,382,361,341,334,331,327,323,321,318,317,315,310,302,269,251,221,179,143,109,103,103,102,102,102,100,98,92,85,73],"timestamp_mouse":[10,32,49,69,87,109,127,147,167,189,208,229,247,268,289,308,328,348,368,388,408,428,449,467,488,508,527,548,569,587,609,627,648,668,687,709,727,748,768,788,808,828,849,867,887,908,929,947,967,987,1009,1027,1047,1069,1087,1107,1128,1147,1168,1187,1207,1227,1247,1267,1287,1308,1328,1348,1368,1387,1407,1429,1448,1467,1487,1508,1529,1548,1569,1588,1607,1629,1649,1668,1688],"xSR":741.5,"ySR":469.95,"xT1":424.9,"yT1":0,"xT2":1058.1,"yT2":0,"toosoon":0,"cond_shown":"Incongruent","ratio_trial":100,"L_num":3,"L_den":5,"R_num":8,"R_den":16,"correct_side":1,"subjID":"IsabellaPabónDíaz8","gender":"1","school":"2019","age":"11"},{"start_time":1551887114903,"click_time":1551887117013,"finger_time":1551887116433,"fix_duration":1088.5018771072014,"trial":27,"RT":1530,"MT":580,"sideResp":1,"stimulus":[],"xmouse":[812,812,812,812,812,812,812,812,812,812,812,812,812,812,812,812,812,812,812,812,812,812,812,812,812,812,812,812,812,812,812,812,812,812,812,812,812,812,812,812,812,812,812,812,812,812,812,812,812,812,812,812,812,812,812,812,812,812,812,812,812,812,812,812,812,812,812,810,809,807,805,798,792,784,775,760,711,676,649,620,598,568,556,547,537,528,505,490,473,459,452,446,434,431,430,427,424,418,417,417,417,416,415,415,416,427],"ymouse":[502,502,502,502,502,502,502,502,502,502,502,502,502,502,502,502,502,502,502,502,502,502,502,502,502,502,502,502,502,502,502,502,502,502,502,502,502,502,502,502,502,502,502,502,502,502,502,502,502,502,502,502,502,502,502,502,502,502,502,502,502,502,502,502,502,502,502,503,502,502,501,498,498,496,492,484,447,418,395,371,353,321,308,297,289,280,256,244,231,220,213,206,191,186,179,173,165,144,133,122,114,102,97,92,81,68],"timestamp_mouse":[11,34,51,71,91,112,131,150,172,191,210,230,251,272,292,311,330,351,372,391,411,432,451,470,492,510,532,550,570,592,612,630,650,672,692,711,732,752,771,791,811,832,850,871,892,910,932,951,972,992,1010,1034,1051,1072,1091,1111,1131,1150,1172,1190,1210,1231,1250,1270,1290,1310,1330,1351,1370,1390,1411,1430,1450,1470,1491,1510,1530,1552,1570,1590,1612,1630,1650,1671,1690,1710,1731,1752,1771,1791,1810,1830,1850,1871,1890,1910,1930,1950,1971,1990,2010,2030,2050,2071,2091,2110],"xSR":741.5,"ySR":469.95,"xT1":424.9,"yT1":0,"xT2":1058.1,"yT2":0,"toosoon":0,"cond_shown":"Congruent","ratio_trial":200,"L_num":21,"L_den":30,"R_num":2,"R_den":4,"correct_side":1,"subjID":"IsabellaPabónDíaz8","gender":"1","school":"2019","age":"11"},{"start_time":1551887119071,"click_time":1551887121254,"finger_time":1551887120834,"fix_duration":676.4974743199243,"trial":28,"RT":1763,"MT":420,"sideResp":1,"stimulus":[],"xmouse":[809,809,809,809,809,809,809,809,809,809,809,809,809,809,809,809,809,809,809,809,809,809,809,809,809,809,809,809,809,809,809,809,809,809,809,809,809,809,809,809,809,809,809,809,809,809,809,809,809,809,809,809,809,809,809,809,809,809,809,809,809,809,809,809,809,809,809,809,809,809,809,809,809,809,809,807,806,805,801,799,797,794,792,786,772,765,760,752,724,707,687,662,622,606,575,559,543,528,517,509,499,492,485,479,476,476,478,479,478,467],"ymouse":[522,522,522,522,522,522,522,522,522,522,522,522,522,522,522,522,522,522,522,522,522,522,522,522,522,522,522,522,522,522,522,522,522,522,522,522,522,522,522,522,522,522,522,522,522,522,522,522,522,522,522,522,522,522,522,522,522,522,522,522,522,522,522,522,522,522,522,522,522,522,522,522,522,522,522,522,522,520,516,514,512,511,510,508,502,500,498,492,472,460,444,425,390,371,334,315,300,286,275,257,231,216,204,193,172,151,134,119,108,83],"timestamp_mouse":[10,31,43,63,82,103,124,143,162,182,203,222,244,262,282,302,323,343,364,382,404,422,443,462,482,503,522,543,562,582,602,622,644,662,683,704,722,743,763,782,803,824,843,863,884,903,923,942,962,984,1002,1022,1043,1062,1083,1104,1123,1144,1162,1182,1203,1222,1242,1262,1282,1302,1323,1343,1362,1382,1404,1422,1444,1463,1482,1503,1522,1542,1563,1583,1602,1622,1643,1662,1682,1702,1722,1743,1763,1782,1802,1822,1844,1862,1882,1902,1922,1943,1962,1982,2003,2023,2043,2064,2083,2102,2123,2144,2163,2183],"xSR":741.5,"ySR":469.95,"xT1":424.9,"yT1":0,"xT2":1058.1,"yT2":0,"toosoon":0,"cond_shown":"Incongruent","ratio_trial":300,"L_num":2,"L_den":4,"R_num":6,"R_den":30,"correct_side":1,"subjID":"IsabellaPabónDíaz8","gender":"1","school":"2019","age":"11"},{"start_time":1551887123055,"click_time":1551887124694,"finger_time":1551887123713,"fix_duration":740.5119013154082,"trial":29,"RT":658,"MT":981,"sideResp":2,"stimulus":[],"xmouse":[795,795,795,795,795,795,795,795,795,795,795,795,795,795,795,795,795,795,795,795,795,795,795,795,795,795,795,795,796,800,804,805,808,810,814,816,818,820,821,821,821,821,821,821,820,820,820,819,818,809,798,785,771,754,727,713,696,670,632,533,512,501,495,494,486,476,463,457,456,456,457,468,489,517,570,591,636,715,807,1008,1051,1077],"ymouse":[499,499,499,499,499,499,499,499,499,499,499,499,499,499,499,499,499,499,499,499,499,499,499,499,499,499,499,499,498,490,483,477,467,457,441,432,424,419,416,408,405,401,399,396,394,393,393,391,390,382,377,371,363,356,347,343,339,331,320,283,278,274,272,272,269,265,261,260,260,260,260,260,260,260,250,242,220,180,143,53,28,12],"timestamp_mouse":[34,39,58,79,98,119,139,158,178,199,220,239,260,278,299,320,338,358,378,399,418,439,458,478,498,519,538,559,578,598,620,639,658,678,699,719,738,758,779,799,819,839,859,880,898,918,938,958,978,998,1020,1038,1059,1078,1098,1119,1139,1159,1178,1198,1219,1238,1260,1279,1298,1318,1338,1359,1378,1399,1419,1439,1459,1478,1498,1520,1539,1558,1579,1599,1619,1639],"xSR":741.5,"ySR":469.95,"xT1":424.9,"yT1":0,"xT2":1058.1,"yT2":0,"toosoon":0,"cond_shown":"Congruent","ratio_trial":100,"L_num":4,"L_den":8,"R_num":6,"R_den":10,"correct_side":2,"subjID":"IsabellaPabónDíaz8","gender":"1","school":"2019","age":"11"},{"start_time":1551887126302,"click_time":1551887128594,"finger_time":1551887128094,"fix_duration":686.9392042236391,"trial":30,"RT":1792,"MT":500,"sideResp":1,"stimulus":[],"xmouse":[787,787,787,787,787,787,787,787,787,787,787,787,787,787,787,787,787,787,787,787,787,787,787,787,787,787,787,787,787,787,787,787,787,787,787,787,787,787,787,787,787,787,787,787,787,787,787,787,787,787,787,787,787,787,787,787,787,787,787,787,787,787,787,787,787,787,787,787,787,787,787,787,787,787,787,787,787,788,792,796,799,800,801,801,801,801,801,801,784,767,747,729,708,700,690,674,642,594,583,580,578,577,576,575,575,575,575,575,574,572,567,561,553,532,518],"ymouse":[531,531,531,531,531,531,531,531,531,531,531,531,531,531,531,531,531,531,531,531,531,531,531,531,531,531,531,531,531,531,531,531,531,531,531,531,531,531,531,531,531,531,531,531,531,531,531,531,531,531,531,531,531,531,531,531,531,531,531,531,531,531,531,531,531,531,531,531,531,531,531,531,531,531,531,531,531,531,525,520,514,512,508,506,506,506,505,504,482,465,449,434,412,397,379,355,315,253,238,229,223,220,216,211,208,206,197,174,162,152,141,128,117,101,94],"timestamp_mouse":[13,33,52,71,92,112,132,151,171,192,213,232,251,272,291,311,332,351,372,391,412,432,452,472,492,512,533,551,572,592,613,631,652,672,691,711,732,753,773,792,812,832,853,872,891,912,932,952,973,992,1011,1032,1052,1071,1091,1111,1131,1151,1172,1191,1211,1231,1251,1271,1291,1311,1332,1352,1373,1391,1412,1432,1452,1472,1492,1512,1531,1551,1571,1591,1611,1631,1652,1671,1691,1712,1732,1751,1772,1792,1812,1831,1853,1871,1891,1911,1931,1952,1972,1991,2011,2032,2052,2071,2091,2111,2131,2152,2171,2192,2212,2231,2251,2271,2292],"xSR":741.5,"ySR":469.95,"xT1":424.9,"yT1":0,"xT2":1058.1,"yT2":0,"toosoon":0,"cond_shown":"Congruent","ratio_trial":200,"L_num":16,"L_den":20,"R_num":12,"R_den":20,"correct_side":1,"subjID":"IsabellaPabónDíaz8","gender":"1","school":"2019","age":"11"},{"start_time":1551887130048,"click_time":1551887132375,"finger_time":1551887131793,"fix_duration":373.71507981098074,"trial":31,"RT":1745,"MT":582,"sideResp":1,"stimulus":[],"xmouse":[808,808,808,808,808,808,808,808,808,808,808,808,808,808,808,808,808,808,808,808,808,808,808,808,808,808,808,808,808,808,808,808,808,808,808,808,808,808,808,808,808,808,808,808,808,808,808,808,808,808,808,808,808,808,808,808,808,808,808,808,808,808,808,808,808,808,808,808,808,808,808,808,808,808,808,808,808,808,808,808,808,808,808,808,808,807,799,775,750,717,688,662,655,646,640,633,627,620,615,609,598,564,546,530,515,502,483,475,471,465,462,456,453,449,447,445,443],"ymouse":[517,517,517,517,517,517,517,517,517,517,517,517,517,517,517,517,517,517,517,517,517,517,517,517,517,517,517,517,517,517,517,517,517,517,517,517,517,517,517,517,517,517,517,517,517,517,517,517,517,517,517,517,517,517,517,517,517,517,517,517,517,517,517,517,517,517,517,517,517,517,517,517,517,517,517,517,517,517,517,517,517,517,517,517,517,514,493,443,402,360,325,288,271,257,247,238,230,222,218,213,207,193,187,180,176,171,163,159,156,150,144,129,122,113,107,102,94],"timestamp_mouse":[5,40,45,66,86,105,125,146,167,185,206,226,245,266,285,306,325,345,366,385,405,425,447,466,485,505,525,545,566,586,605,625,647,665,685,705,726,745,765,785,806,826,847,865,887,905,925,947,965,985,1005,1025,1045,1065,1085,1106,1125,1146,1167,1185,1205,1227,1245,1266,1287,1306,1327,1346,1366,1386,1405,1425,1446,1466,1486,1505,1527,1545,1566,1586,1607,1625,1646,1666,1686,1706,1726,1745,1766,1786,1806,1826,1847,1865,1886,1905,1926,1946,1965,1985,2005,2026,2046,2065,2086,2107,2127,2146,2166,2187,2206,2225,2246,2266,2286,2306,2327],"xSR":741.5,"ySR":469.95,"xT1":424.9,"yT1":0,"xT2":1058.1,"yT2":0,"toosoon":0,"cond_shown":"Congruent","ratio_trial":200,"L_num":3,"L_den":6,"R_num":14,"R_den":20,"correct_side":2,"subjID":"IsabellaPabónDíaz8","gender":"1","school":"2019","age":"11"},{"start_time":1551887134519,"click_time":1551887136494,"finger_time":1551887135235,"fix_duration":1004.4439818666236,"trial":32,"RT":716,"MT":1259,"sideResp":1,"stimulus":[],"xmouse":[797,797,797,797,797,797,797,797,797,797,797,797,797,797,797,797,797,797,797,797,797,797,797,797,797,797,797,797,797,797,797,797,798,809,816,823,831,836,842,846,849,850,863,869,876,892,906,930,938,940,942,945,951,955,963,976,990,1005,1007,1007,1007,1007,1007,1007,1007,1007,1007,1007,1006,1004,1001,997,984,982,982,982,981,973,963,940,904,860,764,693,656,636,634,634,631,630,628,626,626,616,612,602,590,538,507],"ymouse":[536,536,536,536,536,536,536,536,536,536,536,536,536,536,536,536,536,536,536,536,536,536,536,536,536,536,536,536,536,536,536,536,535,508,488,461,433,408,358,319,282,251,200,182,168,147,130,114,109,107,104,101,95,93,89,85,81,78,78,78,78,78,78,78,78,78,78,78,79,80,83,85,92,94,94,94,95,101,102,104,108,114,121,121,123,125,125,125,125,125,125,125,123,114,110,103,93,74,67],"timestamp_mouse":[14,34,55,76,94,114,135,154,175,194,216,234,255,276,295,314,334,354,374,394,415,434,454,475,495,515,534,555,575,594,615,634,654,675,696,716,734,755,776,794,814,834,854,874,895,915,934,954,974,994,1015,1034,1054,1074,1095,1114,1134,1154,1174,1195,1214,1234,1255,1274,1294,1315,1335,1355,1376,1395,1415,1434,1455,1474,1495,1514,1534,1554,1574,1595,1615,1635,1655,1674,1694,1715,1736,1755,1775,1795,1816,1836,1855,1874,1895,1914,1936,1955,1974],"xSR":741.5,"ySR":469.95,"xT1":424.9,"yT1":0,"xT2":1058.1,"yT2":0,"toosoon":0,"cond_shown":"Incongruent","ratio_trial":300,"L_num":4,"L_den":20,"R_num":2,"R_den":4,"correct_side":2,"subjID":"IsabellaPabónDíaz8","gender":"1","school":"2019","age":"11"},{"start_time":1551887139582,"click_time":1551887140675,"finger_time":1551887140313,"fix_duration":1287.7961951705709,"trial":33,"RT":731,"MT":362,"sideResp":2,"stimulus":[],"xmouse":[787,787,787,787,787,787,787,787,787,787,787,787,787,787,787,787,787,787,787,787,787,787,787,787,787,787,787,787,787,787,787,789,791,800,810,826,847,857,864,883,893,901,912,926,941,971,988,1008,1018,1022,1027,1031,1042,1058,1071],"ymouse":[537,537,537,537,537,537,537,537,537,537,537,537,537,537,537,537,537,537,537,537,537,537,537,537,537,537,537,537,537,535,532,528,521,510,498,471,411,375,360,329,314,302,291,273,253,217,198,172,158,146,126,115,99,85,73],"timestamp_mouse":[13,32,51,73,93,113,131,152,171,191,212,232,252,272,291,312,332,353,372,391,412,431,451,472,491,511,531,551,571,591,611,632,651,671,692,713,731,752,772,793,811,831,851,872,891,912,932,951,973,993,1012,1031,1051,1073,1093],"xSR":741.5,"ySR":469.95,"xT1":424.9,"yT1":0,"xT2":1058.1,"yT2":0,"toosoon":0,"cond_shown":"Incongruent","ratio_trial":300,"L_num":4,"L_den":20,"R_num":2,"R_den":4,"correct_side":2,"subjID":"IsabellaPabónDíaz8","gender":"1","school":"2019","age":"11"},{"start_time":1551887142744,"click_time":1551887144073,"finger_time":1551887143433,"fix_duration":1049.6130759294365,"trial":34,"RT":689,"MT":640,"sideResp":2,"stimulus":[],"xmouse":[791,791,791,791,791,791,791,791,791,791,791,791,791,791,791,791,791,791,791,791,791,791,791,791,791,791,791,791,791,792,793,796,821,836,846,852,857,868,871,874,881,889,914,933,952,971,990,1033,1044,1053,1060,1071,1089,1094,1097,1099,1100,1100,1101,1102,1103,1104,1105,1105,1106,1106,1106],"ymouse":[540,540,540,540,540,540,540,540,540,540,540,540,540,540,540,540,540,540,540,540,540,540,540,540,540,540,540,540,540,540,540,540,532,523,516,506,495,442,412,385,370,356,318,298,282,268,255,230,224,218,213,202,184,179,176,173,171,166,164,159,153,144,135,119,112,102,95],"timestamp_mouse":[9,30,50,70,90,109,129,150,169,191,210,230,249,270,289,311,329,349,371,391,410,430,449,469,489,509,529,549,571,591,610,629,650,669,689,709,729,750,769,790,809,829,850,870,889,911,931,949,969,989,1010,1029,1050,1071,1090,1109,1129,1150,1169,1190,1210,1230,1249,1271,1289,1310,1329],"xSR":741.5,"ySR":469.95,"xT1":424.9,"yT1":0,"xT2":1058.1,"yT2":0,"toosoon":0,"cond_shown":"Incongruent","ratio_trial":300,"L_num":4,"L_den":20,"R_num":2,"R_den":4,"correct_side":2,"subjID":"IsabellaPabónDíaz8","gender":"1","school":"2019","age":"11"},{"start_time":1551887145886,"click_time":1551887148054,"finger_time":1551887147233,"fix_duration":792.3016435169849,"trial":35,"RT":1347,"MT":821,"sideResp":1,"stimulus":[],"xmouse":[807,807,807,807,807,807,807,807,807,807,807,807,807,807,807,807,807,807,807,807,807,807,807,807,807,807,807,807,807,807,807,807,806,806,805,805,804,803,803,802,802,801,801,800,800,800,800,800,800,800,800,800,800,800,800,800,801,801,801,802,802,804,805,806,807,810,815,830,848,878,899,926,941,952,962,964,964,964,964,964,964,964,964,964,962,957,935,919,881,849,807,723,687,669,658,648,625,608,570,535,512,505,505,505,505,504,495,488,486],"ymouse":[521,521,521,521,521,521,521,521,521,521,521,521,521,521,521,521,521,521,521,521,521,521,521,521,521,521,521,521,521,521,521,521,519,519,518,518,518,517,516,515,514,514,514,513,513,513,513,513,513,513,513,513,513,513,511,511,510,510,508,507,506,503,500,499,496,487,479,460,443,416,397,368,356,347,341,339,339,339,338,337,337,336,335,335,334,332,328,325,314,301,277,224,198,185,175,166,147,137,127,122,116,113,113,112,111,110,105,100,97],"timestamp_mouse":[10,40,47,68,89,108,127,149,168,187,207,228,247,267,287,309,328,347,367,387,407,429,448,467,487,508,527,548,569,587,607,629,648,667,688,707,728,747,769,787,808,828,848,868,887,908,928,948,969,987,1008,1028,1048,1067,1089,1107,1127,1148,1167,1188,1207,1227,1248,1268,1288,1309,1327,1347,1367,1387,1407,1427,1449,1467,1487,1508,1528,1549,1567,1587,1607,1627,1648,1667,1688,1707,1727,1749,1768,1787,1807,1828,1847,1867,1888,1908,1929,1948,1968,1988,2007,2028,2047,2067,2088,2107,2128,2148,2168],"xSR":741.5,"ySR":469.95,"xT1":424.9,"yT1":0,"xT2":1058.1,"yT2":0,"toosoon":0,"cond_shown":"Congruent","ratio_trial":100,"L_num":3,"L_den":6,"R_num":2,"R_den":5,"correct_side":1,"subjID":"IsabellaPabónDíaz8","gender":"1","school":"2019","age":"11"},{"start_time":1551887149726,"click_time":1551887151034,"finger_time":1551887150614,"fix_duration":610.361223243879,"trial":36,"RT":888,"MT":420,"sideResp":1,"stimulus":[],"xmouse":[798,798,798,798,798,798,798,798,798,798,798,798,798,798,798,798,798,798,798,798,798,798,798,798,798,798,798,798,798,798,798,798,798,798,798,798,797,795,793,789,784,777,771,765,747,735,722,708,691,659,641,623,606,590,557,550,546,543,537,523,513,502,491,480,460,452],"ymouse":[496,496,496,496,496,496,496,496,496,496,496,496,496,496,496,496,496,496,496,496,496,496,496,496,496,496,496,496,496,496,496,496,496,496,496,496,495,495,494,491,488,484,479,475,459,447,437,426,409,373,351,331,311,290,251,242,231,221,210,185,172,159,144,132,106,97],"timestamp_mouse":[8,35,48,68,87,107,127,148,167,188,207,229,248,268,288,307,327,348,368,388,407,428,447,467,487,509,529,548,567,589,607,628,648,667,687,707,727,748,768,788,807,827,848,868,888,907,927,949,969,987,1007,1027,1049,1067,1087,1109,1128,1153,1167,1187,1207,1227,1247,1268,1287,1308],"xSR":741.5,"ySR":469.95,"xT1":424.9,"yT1":0,"xT2":1058.1,"yT2":0,"toosoon":0,"cond_shown":"Incongruent","ratio_trial":200,"L_num":4,"L_den":5,"R_num":6,"R_den":10,"correct_side":1,"subjID":"IsabellaPabónDíaz8","gender":"1","school":"2019","age":"11"},{"start_time":1551887152742,"click_time":1551887154273,"finger_time":1551887153555,"fix_duration":527.5330616433492,"trial":37,"RT":813,"MT":718,"sideResp":2,"stimulus":[],"xmouse":[790,790,790,790,790,790,790,790,790,790,790,790,790,790,790,790,790,790,790,790,790,790,790,790,790,790,790,790,790,790,790,790,790,792,794,794,796,796,798,799,803,806,811,816,821,836,848,854,871,873,879,881,883,895,901,907,914,920,925,938,947,958,975,990,995,1001,1004,1007,1016,1020,1026,1034,1042,1057,1059,1061,1061],"ymouse":[493,493,493,493,493,493,493,493,493,493,493,493,493,493,493,493,493,493,493,493,493,493,493,493,493,493,493,493,493,493,493,493,493,490,487,485,482,481,476,474,467,461,452,439,433,419,411,405,392,389,383,382,378,364,359,354,347,341,334,313,296,275,252,220,200,181,167,156,140,136,130,123,118,106,104,102,99],"timestamp_mouse":[11,38,51,71,91,112,131,152,171,191,211,231,251,271,291,311,331,352,371,393,411,432,452,471,491,511,532,552,572,593,611,632,653,672,691,711,731,752,772,791,813,831,851,872,891,912,931,951,972,991,1012,1031,1051,1072,1091,1111,1131,1152,1172,1193,1212,1231,1252,1271,1291,1312,1332,1351,1372,1391,1411,1431,1451,1472,1491,1511,1531],"xSR":741.5,"ySR":469.95,"xT1":424.9,"yT1":0,"xT2":1058.1,"yT2":0,"toosoon":0,"cond_shown":"Incongruent","ratio_trial":100,"L_num":12,"L_den":24,"R_num":9,"R_den":15,"correct_side":2,"subjID":"IsabellaPabónDíaz8","gender":"1","school":"2019","age":"11"},{"start_time":1551887158098,"click_time":1551887159835,"finger_time":1551887159614,"fix_duration":502.9025720178736,"trial":38,"RT":1516,"MT":221,"sideResp":2,"stimulus":[],"xmouse":[803,803,803,803,803,803,803,803,803,803,803,803,803,803,803,803,803,803,803,803,803,803,803,803,803,803,803,803,803,803,803,803,803,803,803,803,803,803,803,803,803,803,803,803,803,803,803,803,803,803,803,803,803,803,803,803,803,803,803,803,803,803,803,803,803,803,803,803,803,803,803,807,814,819,826,844,884,901,928,965,999,1055,1069,1079,1085,1089,1096],"ymouse":[541,541,541,541,541,541,541,541,541,541,541,541,541,541,541,541,541,541,541,541,541,541,541,541,541,541,541,541,541,541,541,541,541,542,542,542,542,542,542,542,542,542,542,542,542,542,542,542,542,542,542,542,542,542,542,542,542,542,542,542,542,542,542,542,542,542,542,542,542,542,542,542,531,521,502,462,396,371,330,278,229,159,142,128,116,102,69],"timestamp_mouse":[16,37,55,75,96,116,135,156,175,195,215,237,255,276,295,316,337,356,376,397,416,435,455,475,495,517,536,555,576,596,615,635,655,675,697,715,735,756,776,797,816,835,855,875,896,915,936,955,976,997,1016,1035,1055,1076,1095,1115,1137,1155,1176,1195,1215,1237,1256,1275,1295,1315,1337,1355,1376,1396,1415,1435,1456,1475,1495,1516,1535,1557,1575,1596,1615,1635,1655,1675,1696,1716,1737],"xSR":741.5,"ySR":469.95,"xT1":424.9,"yT1":0,"xT2":1058.1,"yT2":0,"toosoon":0,"cond_shown":"Congruent","ratio_trial":100,"L_num":7,"L_den":14,"R_num":9,"R_den":15,"correct_side":2,"subjID":"IsabellaPabónDíaz8","gender":"1","school":"2019","age":"11"},{"start_time":1551887161524,"click_time":1551887163034,"finger_time":1551887162434,"fix_duration":589.9449382142125,"trial":39,"RT":910,"MT":600,"sideResp":2,"stimulus":[],"xmouse":[765,765,765,765,765,765,765,765,765,765,765,765,765,765,765,765,765,765,765,765,765,765,765,765,765,765,765,765,765,765,765,769,774,779,780,782,788,790,791,792,795,799,801,805,810,838,856,874,903,955,988,1008,1010,1015,1027,1052,1065,1080,1095,1098,1108,1113,1115,1115,1115,1105,1098,1088,1086,1082,1082,1082,1082,1082,1086,1107],"ymouse":[536,536,536,536,536,536,536,536,536,536,536,536,536,536,536,536,536,536,536,536,536,536,536,536,536,536,536,536,536,536,535,531,530,528,527,525,518,515,510,508,505,501,498,492,487,465,451,435,412,353,306,271,266,261,252,233,223,212,199,195,181,171,164,153,144,133,129,123,123,121,120,120,119,116,110,95],"timestamp_mouse":[10,43,50,70,90,110,131,151,169,191,209,230,249,270,289,311,330,349,370,390,411,430,450,471,490,509,529,549,570,590,609,629,650,669,689,710,730,750,769,789,809,829,849,870,891,910,929,949,970,990,1010,1030,1050,1070,1091,1110,1129,1149,1169,1189,1210,1229,1250,1269,1289,1310,1330,1350,1370,1391,1409,1430,1449,1469,1490,1510],"xSR":741.5,"ySR":469.95,"xT1":424.9,"yT1":0,"xT2":1058.1,"yT2":0,"toosoon":0,"cond_shown":"Congruent","ratio_trial":100,"L_num":15,"L_den":25,"R_num":13,"R_den":26,"correct_side":1,"subjID":"IsabellaPabónDíaz8","gender":"1","school":"2019","age":"11"},{"start_time":1551887164761,"click_time":1551887167034,"finger_time":1551887165733,"fix_duration":686.7006302015885,"trial":40,"RT":972,"MT":1301,"sideResp":1,"stimulus":[],"xmouse":[800,800,800,800,800,800,800,800,800,800,800,800,800,800,800,800,800,800,800,800,800,800,800,800,800,800,800,800,800,800,800,800,800,800,800,800,800,800,800,800,800,800,800,800,796,792,774,751,724,692,680,672,663,646,638,630,621,620,618,616,616,615,615,615,614,614,614,614,614,614,614,614,614,614,614,614,614,614,614,614,614,614,614,614,614,614,614,614,614,614,614,614,614,614,612,605,600,593,586,565,554,544,533,520,509,503,498,497,494,490,487,486,485,483],"ymouse":[531,531,531,531,531,531,531,531,531,531,531,531,531,531,531,531,531,531,531,531,531,531,531,531,531,531,531,531,531,531,531,531,531,531,531,531,531,531,531,531,531,531,531,531,526,523,505,492,476,449,436,424,410,386,375,367,360,358,357,355,354,353,353,352,351,351,351,351,351,351,351,351,351,351,351,351,351,351,351,351,351,351,351,351,351,351,351,351,351,351,351,351,351,351,346,333,327,317,306,274,253,230,208,191,168,155,144,138,131,120,115,110,104,96],"timestamp_mouse":[13,38,52,74,92,112,132,152,173,192,213,232,252,274,292,312,332,354,372,392,413,432,454,474,492,513,532,552,572,594,614,632,652,674,692,712,732,754,772,792,812,833,853,874,893,913,934,954,972,993,1013,1032,1053,1074,1092,1112,1133,1152,1172,1192,1213,1234,1253,1273,1293,1312,1333,1352,1373,1393,1413,1432,1454,1474,1493,1512,1532,1552,1572,1593,1612,1633,1653,1673,1693,1712,1733,1753,1772,1792,1814,1833,1853,1873,1894,1912,1933,1954,1973,1992,2012,2033,2054,2074,2092,2113,2133,2153,2172,2193,2213,2233,2253,2273],"xSR":741.5,"ySR":469.95,"xT1":424.9,"yT1":0,"xT2":1058.1,"yT2":0,"toosoon":0,"cond_shown":"Incongruent","ratio_trial":300,"L_num":2,"L_den":4,"R_num":6,"R_den":30,"correct_side":1,"subjID":"IsabellaPabónDíaz8","gender":"1","school":"2019","age":"11"},{"start_time":1551887170487,"click_time":1551887172914,"finger_time":1551887172255,"fix_duration":513.9026297412134,"trial":41,"RT":1768,"MT":659,"sideResp":2,"stimulus":[],"xmouse":[756,757,757,760,760,760,761,762,765,769,769,770,770,770,770,770,770,770,770,770,770,770,770,770,770,770,770,770,770,770,770,770,770,770,770,770,770,770,770,770,770,770,770,770,770,770,770,770,770,770,770,768,763,760,760,760,760,760,760,760,760,760,760,760,760,760,760,760,760,760,760,760,760,760,760,760,760,759,758,758,757,756,755,754,752,750,749,745,741,732,726,719,710,700,674,659,649,638,630,614,605,600,594,591,585,584,583,588,593,611,623,638,661,748,792,847,920,953,981,1034,1056,1064],"ymouse":[553,553,553,553,553,553,553,553,551,548,546,545,545,545,545,545,545,545,545,545,545,545,545,545,545,545,545,545,545,545,545,545,545,545,545,545,545,545,545,545,545,545,545,545,545,545,545,545,545,545,545,545,545,545,545,545,545,545,545,545,545,545,545,545,545,545,545,545,545,545,545,545,545,545,545,545,545,544,543,543,542,541,541,540,537,533,532,525,520,510,504,498,490,479,452,439,428,412,401,376,361,350,343,335,321,316,305,289,277,259,249,239,225,175,145,118,82,66,50,19,5,1],"timestamp_mouse":[9,36,47,66,87,108,126,147,166,186,207,226,247,267,286,307,326,346,366,386,407,427,446,466,486,506,527,546,567,586,606,626,648,667,686,707,727,747,766,788,806,826,846,867,886,906,927,946,967,986,1007,1027,1047,1067,1086,1106,1127,1147,1167,1186,1206,1226,1247,1266,1288,1306,1326,1347,1367,1386,1407,1427,1447,1467,1486,1506,1528,1546,1566,1588,1606,1627,1646,1666,1687,1707,1726,1746,1768,1787,1807,1826,1846,1867,1886,1907,1927,1947,1967,1987,2006,2028,2047,2066,2087,2106,2126,2146,2166,2188,2207,2227,2246,2267,2286,2307,2326,2347,2367,2387,2406,2427],"xSR":741.5,"ySR":469.95,"xT1":424.9,"yT1":0,"xT2":1058.1,"yT2":0,"toosoon":0,"cond_shown":"Incongruent","ratio_trial":100,"L_num":8,"L_den":20,"R_num":1,"R_den":2,"correct_side":2,"subjID":"IsabellaPabónDíaz8","gender":"1","school":"2019","age":"11"},{"start_time":1551887174324,"click_time":1551887175995,"finger_time":1551887175574,"fix_duration":250,"trial":42,"RT":1250,"MT":421,"sideResp":1,"stimulus":[],"xmouse":[797,797,797,797,797,797,797,797,799,800,801,801,801,801,801,801,801,801,801,801,801,801,801,801,801,801,801,801,801,801,801,801,801,801,801,801,801,801,801,801,801,801,801,801,801,801,801,801,801,801,801,801,801,801,801,801,801,801,798,788,770,758,728,713,703,693,681,649,634,623,616,611,594,584,577,569,560,542,533,523,513,499,481,468],"ymouse":[559,559,559,559,559,559,559,559,559,559,559,559,559,559,559,559,559,559,559,559,559,559,559,559,559,559,559,559,559,559,559,559,559,559,559,559,559,559,559,559,559,559,559,559,559,559,559,559,559,559,559,559,559,559,559,559,559,559,556,549,539,527,504,492,485,476,468,448,440,432,425,418,386,358,337,317,293,245,221,197,174,143,108,89],"timestamp_mouse":[11,31,50,70,89,110,130,149,169,190,209,230,249,269,289,310,330,350,369,390,410,429,450,470,490,509,529,549,571,589,609,629,651,670,690,709,729,749,769,789,811,829,849,869,889,910,929,949,969,989,1009,1030,1049,1070,1089,1111,1129,1149,1169,1189,1210,1229,1250,1269,1290,1309,1329,1350,1370,1389,1409,1429,1449,1470,1490,1511,1529,1549,1569,1590,1609,1630,1649,1671],"xSR":741.5,"ySR":469.95,"xT1":424.9,"yT1":0,"xT2":1058.1,"yT2":0,"toosoon":0,"cond_shown":"Congruent","ratio_trial":300,"L_num":11,"L_den":22,"R_num":1,"R_den":5,"correct_side":1,"subjID":"IsabellaPabónDíaz8","gender":"1","school":"2019","age":"11"},{"start_time":1551887177484,"click_time":1551887181491,"finger_time":1551887180872,"fix_duration":250,"trial":43,"RT":3388,"MT":619,"sideResp":1,"stimulus":[],"xmouse":[827,827,827,827,827,827,827,827,827,827,827,827,827,827,827,827,827,827,827,827,827,827,827,827,827,827,827,827,827,827,827,827,827,827,827,827,827,827,827,827,827,827,827,827,827,827,827,827,827,827,827,827,827,827,827,827,827,827,827,827,827,827,827,827,827,827,827,827,827,827,827,827,827,827,827,827,827,827,827,827,827,827,827,827,827,827,827,827,827,827,827,827,827,827,827,827,827,827,827,827,827,827,827,827,827,827,827,827,827,827,827,827,827,827,827,827,827,827,827,827,827,827,827,827,827,827,827,827,827,827,827,827,827,827,827,827,827,827,827,827,827,827,827,827,827,827,827,827,827,827,827,827,827,824,818,815,814,814,814,806,793,783,772,769,765,764,760,755,748,735,721,709,701,684,673,666,655,641,630,613,612,602,584,567,550,523,509,499,490,466,455,446,442,441,440,440,441,445,449,451,453],"ymouse":[487,487,487,487,487,487,487,487,487,487,487,487,487,487,487,487,487,487,488,489,489,489,489,489,489,489,489,489,489,489,489,489,489,489,489,489,489,489,489,489,489,489,489,489,489,489,489,489,489,489,489,489,489,489,489,489,489,489,489,489,489,489,489,489,489,489,489,489,489,489,489,489,489,489,489,489,489,489,489,489,489,489,489,489,489,489,489,489,489,489,489,489,489,489,489,489,489,489,489,489,489,489,489,489,489,489,489,489,489,489,489,489,489,489,489,489,489,489,489,489,489,489,489,489,489,489,489,489,489,489,489,489,489,489,489,489,489,489,489,489,489,489,489,489,489,489,489,489,489,489,489,489,489,490,491,491,491,491,491,492,496,499,502,503,504,504,504,504,504,503,498,492,485,473,458,449,431,415,399,371,364,348,322,302,287,260,246,236,223,197,186,177,172,168,164,150,138,125,112,101,97],"timestamp_mouse":[10,43,48,69,88,108,127,148,169,188,208,227,247,268,288,309,327,347,369,388,407,428,448,469,487,508,529,549,567,588,608,627,648,667,687,707,729,748,767,787,808,828,847,868,888,907,927,949,967,988,1008,1028,1048,1068,1088,1108,1128,1149,1169,1187,1208,1228,1247,1269,1288,1308,1329,1347,1369,1387,1408,1428,1448,1468,1488,1508,1528,1547,1567,1588,1608,1629,1648,1669,1687,1709,1727,1749,1768,1788,1809,1828,1847,1869,1888,1908,1929,1947,1967,1989,2009,2028,2049,2067,2089,2107,2129,2148,2167,2189,2209,2227,2249,2267,2288,2309,2328,2348,2368,2388,2408,2428,2449,2469,2489,2508,2527,2549,2568,2587,2609,2628,2647,2668,2689,2709,2727,2749,2768,2787,2809,2828,2848,2868,2888,2907,2928,2948,2969,2987,3008,3028,3049,3068,3088,3107,3127,3149,3168,3188,3207,3228,3247,3268,3288,3307,3328,3348,3369,3388,3407,3428,3449,3467,3489,3507,3528,3549,3568,3588,3608,3628,3648,3668,3689,3708,3729,3747,3769,3788,3807,3828,3848,3869,3887,3907,3929,3949,3969,3989,4007],"xSR":741.5,"ySR":469.95,"xT1":424.9,"yT1":0,"xT2":1058.1,"yT2":0,"toosoon":0,"cond_shown":"Congruent","ratio_trial":100,"L_num":11,"L_den":22,"R_num":6,"R_den":15,"correct_side":1,"subjID":"IsabellaPabónDíaz8","gender":"1","school":"2019","age":"11"},{"start_time":1551887183201,"click_time":1551887188613,"finger_time":1551887183214,"fix_duration":308.7596635317295,"trial":44,"RT":13,"MT":5399,"sideResp":1,"stimulus":[],"xmouse":[781,782,782,782,782,782,782,782,782,782,782,782,782,782,782,782,782,782,782,782,782,782,782,782,782,782,782,782,782,782,783,783,784,784,784,784,784,784,785,786,788,788,788,788,788,788,788,788,788,788,788,788,788,788,790,790,790,790,790,790,790,790,790,790,790,790,790,790,790,790,790,790,790,790,790,790,790,790,790,790,790,790,790,790,790,790,790,790,790,790,790,790,790,790,790,790,790,790,790,790,790,790,782,781,775,773,773,773,773,773,769,769,769,769,769,769,769,769,769,769,769,769,769,769,769,769,769,769,769,769,769,769,769,769,769,769,769,769,769,769,769,769,769,769,769,769,769,769,769,769,769,769,769,769,769,769,769,769,769,769,769,769,769,769,769,769,769,769,769,769,769,769,769,769,769,769,769,769,769,769,769,769,769,769,769,769,769,769,769,769,769,769,769,769,769,769,769,769,769,769,769,769,769,769,769,769,769,769,769,769,786,845,906,907,907,907,907,907,907,907,907,907,907,907,907,922,922,922,922,922,922,922,922,922,922,922,922,922,812,774,748,717,695,665,602,564,524,492,467,440,429,419,411,406,403,401,401,401,401,396,390,385,383,383,383,392,403,409,415,419,427],"ymouse":[463,460,460,460,460,460,460,460,460,460,460,460,460,460,460,460,460,460,460,460,460,460,460,460,460,460,460,460,460,460,461,462,465,467,468,468,468,468,470,476,482,483,483,483,483,483,483,483,483,483,484,489,501,514,527,527,527,527,527,527,527,527,527,527,527,527,527,527,527,527,527,527,527,527,527,527,527,527,527,527,527,527,527,527,527,527,527,527,527,527,527,527,527,527,527,527,527,527,527,527,527,527,528,528,529,529,529,529,529,529,529,529,529,529,529,529,529,529,529,529,529,529,529,529,529,529,529,529,529,529,529,529,529,529,529,529,529,529,529,529,529,529,529,529,529,529,529,529,529,529,529,529,529,529,529,529,529,529,529,529,529,529,529,529,529,529,529,529,529,529,529,529,529,529,529,529,529,529,529,529,529,529,529,529,529,529,529,529,529,529,529,529,529,529,529,529,529,529,529,529,529,529,529,529,529,529,529,529,529,529,548,626,687,688,688,688,688,688,688,688,688,688,688,688,688,706,706,706,706,706,706,706,706,706,706,706,706,706,718,695,673,645,619,575,485,430,375,326,279,217,189,164,151,144,140,137,137,136,136,131,125,120,118,118,117,106,97,91,86,82,76],"timestamp_mouse":[13,32,51,71,92,111,131,151,171,191,211,231,252,272,291,310,331,350,372,392,411,432,450,470,490,510,532,552,572,592,611,631,651,671,691,710,730,750,770,791,812,832,851,872,891,910,932,950,970,992,1011,1031,1050,1071,1091,1111,1131,1151,1170,1191,1212,1231,1251,1271,1291,1311,1332,1351,1371,1390,1412,1430,1451,1471,1491,1511,1532,1552,1571,1591,1612,1632,1651,1672,1692,1712,1730,1751,1772,1791,1812,1830,1852,1872,1890,1911,1931,1951,1971,1992,2011,2030,2051,2071,2091,2111,2130,2151,2171,2191,2211,2232,2250,2270,2292,2311,2332,2351,2372,2391,2412,2431,2452,2471,2490,2512,2532,2551,2570,2591,2612,2632,2652,2670,2692,2711,2731,2751,2771,2792,2812,2831,2851,2870,2891,2911,2931,2950,2971,2991,3010,3031,3052,3072,3091,3112,3132,3150,3170,3191,3210,3232,3252,3270,3291,3311,3332,3352,3371,3391,3411,3431,3452,3470,3490,3511,3530,3550,3572,3590,3611,3630,3651,3671,3691,3712,3732,3750,3771,3791,3810,3831,3850,3872,3890,3912,3931,3952,3970,3991,4011,4030,4050,4072,4090,4111,4130,4152,4171,4191,4211,4231,4251,4272,4290,4310,4332,4351,4370,4392,4411,4430,4451,4470,4491,4511,4530,4551,4571,4591,4611,4630,4651,4670,4691,4711,4731,4752,4771,4791,4810,4832,4851,4871,4891,4910,4932,4951,4972,4991,5011,5031,5051,5070,5091,5110,5130,5150,5172,5191,5211,5231,5250,5270,5291,5312,5331,5350,5371,5390,5412],"xSR":741.5,"ySR":469.95,"xT1":424.9,"yT1":0,"xT2":1058.1,"yT2":0,"toosoon":0,"cond_shown":"Congruent","ratio_trial":100,"L_num":9,"L_den":15,"R_num":8,"R_den":16,"correct_side":1,"subjID":"IsabellaPabónDíaz8","gender":"1","school":"2019","age":"11"},{"start_time":1551887190518,"click_time":1551887191972,"finger_time":1551887191813,"fix_duration":884.895559447145,"trial":45,"RT":1295,"MT":159,"sideResp":2,"stimulus":[],"xmouse":[779,779,779,779,779,779,779,779,779,779,779,779,779,779,779,779,779,779,779,779,779,779,779,779,779,779,779,779,779,779,779,779,779,779,779,779,779,779,779,779,779,779,779,779,779,779,779,779,779,779,779,779,778,773,768,767,766,766,766,766,766,766,768,775,797,819,836,854,887,958,1002,1046,1094],"ymouse":[511,511,511,511,511,511,511,511,511,511,511,511,511,511,511,511,511,511,511,511,511,511,511,511,511,511,511,511,511,511,511,511,511,511,511,511,511,511,511,511,511,511,511,511,511,511,511,511,511,511,511,511,513,511,506,506,505,505,505,504,501,496,488,475,442,411,387,361,326,233,185,136,94],"timestamp_mouse":[14,39,53,73,94,114,133,153,175,193,213,234,253,274,294,313,334,353,375,393,413,433,454,474,494,513,535,553,573,594,613,634,655,673,693,715,733,753,775,793,814,835,854,874,893,914,933,955,973,995,1015,1034,1054,1075,1094,1114,1135,1155,1174,1195,1214,1233,1253,1275,1295,1314,1333,1354,1374,1394,1415,1435,1454],"xSR":741.5,"ySR":469.95,"xT1":424.9,"yT1":0,"xT2":1058.1,"yT2":0,"toosoon":0,"cond_shown":"Congruent","ratio_trial":300,"L_num":1,"L_den":30,"R_num":8,"R_den":24,"correct_side":2,"subjID":"IsabellaPabónDíaz8","gender":"1","school":"2019","age":"11"},{"start_time":1551887195330,"click_time":1551887196712,"finger_time":1551887196293,"fix_duration":457.71159937242044,"trial":46,"RT":963,"MT":419,"sideResp":1,"stimulus":[],"xmouse":[796,796,796,796,796,796,796,796,796,796,796,796,796,796,796,796,796,796,796,796,796,796,796,796,796,796,796,796,796,796,796,796,796,796,796,796,796,796,796,796,796,796,796,796,796,796,793,783,741,599,558,541,531,525,509,509,509,509,509,509,509,509,509,509,507,503,496,487,477,462],"ymouse":[545,545,545,545,545,545,545,545,545,545,545,545,545,545,545,545,545,545,545,545,545,545,545,545,545,545,545,545,545,545,545,545,545,545,545,545,545,545,545,545,545,545,545,545,545,545,545,539,490,370,345,332,318,310,232,207,183,162,145,126,121,118,117,116,113,111,108,105,102,96],"timestamp_mouse":[10,36,42,61,83,102,122,143,162,181,201,222,241,263,283,303,322,341,361,381,403,421,441,463,481,502,521,542,562,582,602,623,641,662,681,703,723,742,761,781,801,822,843,861,882,902,921,942,963,982,1003,1022,1042,1061,1082,1103,1122,1142,1162,1181,1203,1222,1242,1261,1282,1302,1322,1341,1362,1382],"xSR":741.5,"ySR":469.95,"xT1":424.9,"yT1":0,"xT2":1058.1,"yT2":0,"toosoon":0,"cond_shown":"Incongruent","ratio_trial":200,"L_num":4,"L_den":5,"R_num":6,"R_den":10,"correct_side":1,"subjID":"IsabellaPabónDíaz8","gender":"1","school":"2019","age":"11"},{"start_time":1551887199271,"click_time":1551887200351,"finger_time":1551887199913,"fix_duration":1398.4813753213782,"trial":47,"RT":642,"MT":438,"sideResp":1,"stimulus":[],"xmouse":[764,764,764,764,764,764,764,764,764,764,764,764,764,764,764,764,764,764,764,764,764,764,764,764,764,764,764,764,764,764,764,754,716,661,579,461,406,370,348,343,339,334,333,333,333,334,339,350,380,396,408,417,418,419,425],"ymouse":[508,508,508,508,508,508,508,508,508,508,508,508,508,508,508,508,508,508,508,508,508,508,508,508,508,508,508,508,508,508,508,498,454,401,342,270,229,188,133,112,97,88,84,83,81,80,79,77,67,64,63,62,62,62,62],"timestamp_mouse":[8,20,40,60,81,101,120,142,162,180,202,220,240,261,282,300,320,341,361,381,400,420,441,461,480,500,521,541,561,581,601,621,642,660,681,701,722,740,760,782,801,822,840,860,881,901,922,940,961,982,1001,1020,1042,1060,1080],"xSR":741.5,"ySR":469.95,"xT1":424.9,"yT1":0,"xT2":1058.1,"yT2":0,"toosoon":0,"cond_shown":"Incongruent","ratio_trial":200,"L_num":7,"L_den":10,"R_num":8,"R_den":16,"correct_side":1,"subjID":"IsabellaPabónDíaz8","gender":"1","school":"2019","age":"11"},{"start_time":1551887202945,"click_time":1551887204077,"finger_time":1551887203651,"fix_duration":1391.4040274270508,"trial":48,"RT":706,"MT":426,"sideResp":2,"stimulus":[],"xmouse":[762,762,762,762,762,762,762,762,762,762,762,762,762,762,762,762,762,762,762,762,762,762,762,762,762,762,762,762,762,762,762,764,768,773,789,798,804,811,817,839,852,868,882,897,924,937,951,963,979,992,999,1005,1012,1017,1045,1058,1067],"ymouse":[498,498,498,498,498,498,498,498,498,498,498,498,498,498,498,498,498,498,498,498,498,498,498,498,498,498,498,498,498,498,496,491,486,482,470,463,459,454,449,430,419,406,392,376,338,300,263,231,197,157,141,127,113,101,77,69,63],"timestamp_mouse":[11,37,48,68,87,107,127,146,168,186,208,227,248,267,287,308,326,346,367,388,406,428,446,466,487,516,527,548,566,587,608,628,646,667,686,706,726,748,767,787,807,827,847,867,887,906,926,947,967,987,1007,1026,1047,1067,1086,1107,1132],"xSR":741.5,"ySR":469.95,"xT1":424.9,"yT1":0,"xT2":1058.1,"yT2":0,"toosoon":0,"cond_shown":"Incongruent","ratio_trial":100,"L_num":13,"L_den":26,"R_num":12,"R_den":20,"correct_side":2,"subjID":"IsabellaPabónDíaz8","gender":"1","school":"2019","age":"11"},{"start_time":1551887205380,"click_time":1551887206532,"finger_time":1551887206051,"fix_duration":326.8179065412751,"trial":49,"RT":671,"MT":481,"sideResp":1,"stimulus":[],"xmouse":[767,767,767,767,767,767,767,767,767,767,767,767,767,767,767,767,767,767,767,767,767,767,767,767,767,767,767,767,767,767,767,767,752,708,660,608,562,545,545,545,545,545,545,545,545,547,550,560,564,566,566,563,544,533,516,501,476,449],"ymouse":[514,514,514,514,514,514,514,514,514,514,514,514,514,514,514,514,514,514,514,514,514,514,514,514,514,514,514,514,514,514,514,514,505,462,424,396,370,353,347,341,335,328,315,309,303,292,287,261,251,239,230,217,183,167,148,131,107,84],"timestamp_mouse":[13,32,52,72,93,112,131,152,173,192,211,233,252,272,293,312,333,353,371,393,411,433,451,472,493,513,532,553,571,593,612,632,652,671,691,713,733,752,771,792,813,831,853,872,891,911,932,952,972,992,1011,1032,1053,1072,1093,1112,1132,1152],"xSR":741.5,"ySR":469.95,"xT1":424.9,"yT1":0,"xT2":1058.1,"yT2":0,"toosoon":0,"cond_shown":"Incongruent","ratio_trial":200,"L_num":7,"L_den":10,"R_num":8,"R_den":16,"correct_side":1,"subjID":"IsabellaPabónDíaz8","gender":"1","school":"2019","age":"11"},{"start_time":1551887208708,"click_time":1551887209533,"finger_time":1551887209091,"fix_duration":1114.5671712273931,"trial":50,"RT":383,"MT":442,"sideResp":1,"stimulus":[],"xmouse":[825,825,825,825,825,825,825,825,825,825,825,825,825,825,825,825,824,827,838,847,853,858,864,866,866,857,838,750,672,640,622,613,600,592,583,572,559,539,532,528,525,520],"ymouse":[547,547,547,547,547,547,547,547,547,547,547,547,547,547,547,547,545,539,526,516,509,502,487,475,462,444,422,366,320,298,284,270,240,222,203,183,164,135,123,114,108,97],"timestamp_mouse":[8,40,44,65,85,103,124,145,164,185,205,224,244,264,283,305,323,344,365,383,404,424,444,464,485,503,523,543,563,584,604,623,644,664,685,704,723,743,764,784,804,825],"xSR":741.5,"ySR":469.95,"xT1":424.9,"yT1":0,"xT2":1058.1,"yT2":0,"toosoon":0,"cond_shown":"Incongruent","ratio_trial":300,"L_num":3,"L_den":6,"R_num":4,"R_den":20,"correct_side":1,"subjID":"IsabellaPabónDíaz8","gender":"1","school":"2019","age":"11"},{"start_time":1551887212002,"click_time":1551887213172,"finger_time":1551887212711,"fix_duration":1449.5602538376445,"trial":51,"RT":709,"MT":461,"sideResp":2,"stimulus":[],"xmouse":[802,802,802,802,802,802,802,802,802,802,802,802,802,802,802,802,802,802,802,802,802,802,802,802,802,802,802,802,802,802,802,802,802,811,825,845,862,926,952,968,984,995,1008,1010,1012,1014,1016,1019,1022,1023,1026,1030,1033,1036,1038,1040,1043,1056,1063],"ymouse":[508,508,508,508,508,508,508,508,508,508,508,508,508,508,508,508,508,508,508,508,508,508,508,508,508,508,508,508,508,508,508,508,507,501,492,475,453,363,327,