[{"start_time":1551892382066,"click_time":1551892383017,"finger_time":1551892382656,"fix_duration":523.2746079410309,"trial":0,"RT":590,"MT":361,"sideResp":2,"stimulus":[],"xmouse":[827,823,823,823,821,814,804,801,801,801,801,801,801,801,801,801,801,801,801,801,801,801,801,801,801,801,801,800,807,822,829,834,839,865,877,885,887,888,899,909,923,942,960,1013,1044,1072,1109],"ymouse":[585,583,583,583,582,580,576,576,576,576,576,576,576,576,576,576,576,576,576,576,576,576,576,576,576,576,576,576,556,522,496,468,437,384,364,351,344,337,313,299,284,270,256,197,162,129,98],"timestamp_mouse":[32,50,70,91,111,131,150,170,191,210,230,250,270,290,310,331,351,370,391,411,430,450,470,490,511,531,550,571,590,610,630,650,670,690,711,730,750,770,790,810,831,850,871,890,910,931,950],"xSR":741.5,"ySR":501.8,"xT1":424.9,"yT1":0,"xT2":1058.1,"yT2":0,"toosoon":0,"cond_shown":"Incongruent","ratio_trial":200,"L_num":7,"L_den":15,"R_num":4,"R_den":6,"correct_side":2,"subjID":"isabellarosero28","gender":"1","age":"13 ","school":"6","test":{"fix_dur":[250,1500],"timestim":1000,"targets_dim":[100,100],"targets_relative_coord":[0.3,0.7],"size_stim":[880,420],"start_dim":[100,100],"size_start":[300,300],"size_fix":60,"samplingrate":20,"img_types":["Congruent","Incongruent"],"ratios":[100,200,300],"rep_conds":19,"nTrials":120,"trials_to_rest":500,"Trials_order":[9,77,20,38,39,109,35,32,16,104,94,64,56,62,60,106,79,50,65,99,96,3,74,57,85,72,66,30,21,47,61,93,59,15,51,18,14,28,82,67,23,78,70,19,17,27,95,107,115,91,34,117,48,40,46,80,52,102,118,86,90,44,53,116,103,24,33,54,25,49,71,68,81,98,13,111,45,37,63,11,31,41,4,100,92,29,58,2,119,8,69,43,0,1,84,73,36,101,12,114,83,75,113,42,112,76,105,89,97,88,55,87,26,7,6,10,5,108,110,22],"cond_shown":["Incongruent","Incongruent","Congruent","Congruent","Incongruent","Incongruent","Incongruent","Congruent","Congruent","Congruent","Congruent","Congruent","Congruent","Congruent","Congruent","Congruent","Incongruent","Congruent","Incongruent","Incongruent","Congruent","Incongruent","Congruent","Incongruent","Incongruent","Congruent","Congruent","Congruent","Incongruent","Incongruent","Incongruent","Incongruent","Incongruent","Incongruent","Incongruent","Congruent","Congruent","Congruent","Congruent","Incongruent","Incongruent","Congruent","Congruent","Incongruent","Incongruent","Incongruent","Incongruent","Incongruent","Incongruent","Incongruent","Congruent","Incongruent","Congruent","Congruent","Congruent","Congruent","Congruent","Congruent","Congruent","Congruent","Congruent","Congruent","Incongruent","Congruent","Incongruent","Congruent","Incongruent","Congruent","Incongruent","Incongruent","Incongruent","Congruent","Incongruent","Congruent","Incongruent","Incongruent","Incongruent","Incongruent","Incongruent","Incongruent","Incongruent","Incongruent","Congruent","Congruent","Congruent","Incongruent","Congruent","Congruent","Incongruent","Congruent","Incongruent","Incongruent","Congruent","Incongruent","Congruent","Incongruent","Congruent","Incongruent","Congruent","Congruent","Incongruent","Incongruent","Incongruent","Congruent","Congruent","Congruent","Incongruent","Incongruent","Incongruent","Congruent","Incongruent","Incongruent","Congruent","Incongruent","Congruent","Congruent","Incongruent","Congruent","Congruent","Congruent"],"ratio_trial":[200,300,200,200,200,100,300,200,300,200,300,300,200,200,100,300,100,200,300,200,100,200,200,200,100,100,100,100,200,300,100,200,300,200,200,100,200,300,300,100,300,100,300,100,300,200,300,300,100,100,300,200,100,300,300,200,300,100,300,200,100,200,300,200,100,100,200,100,100,100,300,200,200,200,100,200,200,100,200,300,100,300,300,300,200,300,300,200,300,200,200,100,100,100,100,100,100,300,100,100,300,200,300,100,300,300,200,300,100,300,100,200,200,100,100,300,300,100,200,300],"left_num":[7,4,6,5,4,9,13,9,5,8,2,9,7,8,3,3,3,20,13,7,1,1,3,3,10,3,10,7,7,3,3,4,13,7,4,10,5,11,20,8,4,15,2,13,8,6,4,4,2,4,24,11,3,1,4,13,20,2,1,14,2,3,13,9,2,2,1,7,9,8,8,16,3,1,3,7,7,17,1,13,13,4,8,24,7,13,20,3,4,9,3,2,15,10,12,3,6,1,10,15,8,1,3,3,8,12,6,2,8,4,8,7,3,12,4,11,13,7,6,1],"right_num":[4,2,7,14,6,20,12,13,6,2,12,3,2,2,2,11,7,9,12,6,18,2,11,11,9,2,3,9,8,4,7,6,12,6,6,3,14,4,8,1,2,13,12,12,9,3,2,2,8,8,8,3,2,8,2,14,14,6,6,6,6,11,12,13,8,6,3,15,13,1,14,12,11,21,8,14,6,10,2,12,6,2,1,8,18,12,9,14,2,13,11,8,13,9,13,4,5,2,3,13,9,3,4,4,10,2,3,6,6,1,6,14,11,2,6,1,12,9,7,3],"left_den":[15,20,12,10,5,10,26,30,25,15,10,10,21,15,6,12,9,25,26,15,2,3,10,4,25,6,25,14,10,6,9,5,26,15,5,25,10,22,25,20,20,25,10,26,10,20,20,20,4,8,30,20,6,30,5,26,25,5,5,28,5,10,26,30,4,5,2,14,15,20,10,20,4,2,5,10,15,30,3,26,26,20,16,30,15,26,25,6,20,30,4,4,25,25,30,6,20,2,25,25,10,2,6,20,15,24,20,4,16,10,16,10,10,30,8,22,26,14,12,5],"right_den":[6,4,10,20,10,25,15,26,12,6,24,5,15,6,5,20,30,15,15,9,30,15,22,20,18,5,10,15,16,20,30,10,15,9,10,10,20,20,16,2,4,26,24,20,18,6,4,4,20,20,16,4,5,24,4,20,28,12,12,20,12,22,15,26,20,12,10,25,26,2,28,20,20,30,16,28,9,15,15,15,10,4,5,16,27,15,18,20,4,26,20,20,26,18,26,10,25,10,10,26,18,10,20,16,12,10,6,30,10,10,10,28,22,4,10,5,15,15,10,6],"correct_side":[2,2,2,2,1,1,2,2,2,1,2,1,1,1,1,2,1,1,2,2,2,1,2,1,2,1,1,2,1,1,1,1,2,2,1,1,2,1,1,2,2,1,2,2,1,2,2,2,1,1,1,2,1,2,1,2,1,2,2,1,2,2,2,2,1,2,1,2,1,2,1,1,1,2,1,1,2,2,1,2,2,2,1,1,2,2,1,2,2,2,1,1,1,2,2,1,1,1,1,1,1,1,1,2,2,1,2,1,2,1,2,1,2,2,2,1,2,2,2,2],"img_shown":["img2/200/Incongruent/R/I_Dist_200_LN_7_LD_15_RN_4_RD_6_1.png","img2/300/Incongruent/R/I_Dist_300_LN_4_LD_20_RN_2_RD_4_1.png","img2/200/Congruent/R/C_Dist_200_LN_6_LD_12_RN_7_RD_10_1.png","img2/200/Congruent/R/C_Dist_200_LN_5_LD_10_RN_14_RD_20_1.png","img2/200/Incongruent/L/I_Dist_200_LN_4_LD_5_RN_6_RD_10_0.png","img2/100/Incongruent/L/I_Dist_100_LN_9_LD_10_RN_20_RD_25_0.png","img2/300/Incongruent/R/I_Dist_300_LN_13_LD_26_RN_12_RD_15_1.png","img2/200/Congruent/R/C_Dist_200_LN_9_LD_30_RN_13_RD_26_1.png","img2/300/Congruent/R/C_Dist_300_LN_5_LD_25_RN_6_RD_12_1.png","img2/200/Congruent/L/C_Dist_200_LN_8_LD_15_RN_2_RD_6_0.png","img2/300/Congruent/R/C_Dist_300_LN_2_LD_10_RN_12_RD_24_1.png","img2/300/Congruent/L/C_Dist_300_LN_9_LD_10_RN_3_RD_5_0.png","img2/200/Congruent/L/C_Dist_200_LN_7_LD_21_RN_2_RD_15_0.png","img2/200/Congruent/L/C_Dist_200_LN_8_LD_15_RN_2_RD_6_0.png","img2/100/Congruent/L/C_Dist_100_LN_3_LD_6_RN_2_RD_5_0.png","img2/300/Congruent/R/C_Dist_300_LN_3_LD_12_RN_11_RD_20_1.png","img2/100/Incongruent/L/I_Dist_100_LN_3_LD_9_RN_7_RD_30_0.png","img2/200/Congruent/L/C_Dist_200_LN_20_LD_25_RN_9_RD_15_0.png","img2/300/Incongruent/R/I_Dist_300_LN_13_LD_26_RN_12_RD_15_1.png","img2/200/Incongruent/R/I_Dist_200_LN_7_LD_15_RN_6_RD_9_1.png","img2/100/Congruent/R/C_Dist_100_LN_1_LD_2_RN_18_RD_30_1.png","img2/200/Incongruent/L/I_Dist_200_LN_1_LD_3_RN_2_RD_15_0.png","img2/200/Congruent/R/C_Dist_200_LN_3_LD_10_RN_11_RD_22_1.png","img2/200/Incongruent/L/I_Dist_200_LN_3_LD_4_RN_11_RD_20_0.png","img2/100/Incongruent/R/I_Dist_100_LN_10_LD_25_RN_9_RD_18_1.png","img2/100/Congruent/L/C_Dist_100_LN_3_LD_6_RN_2_RD_5_0.png","img2/100/Congruent/L/C_Dist_100_LN_10_LD_25_RN_3_RD_10_0.png","img2/100/Congruent/R/C_Dist_100_LN_7_LD_14_RN_9_RD_15_1.png","img2/200/Incongruent/L/I_Dist_200_LN_7_LD_10_RN_8_RD_16_0.png","img2/300/Incongruent/L/I_Dist_300_LN_3_LD_6_RN_4_RD_20_0.png","img2/100/Incongruent/L/I_Dist_100_LN_3_LD_9_RN_7_RD_30_0.png","img2/200/Incongruent/L/I_Dist_200_LN_4_LD_5_RN_6_RD_10_0.png","img2/300/Incongruent/R/I_Dist_300_LN_13_LD_26_RN_12_RD_15_1.png","img2/200/Incongruent/R/I_Dist_200_LN_7_LD_15_RN_6_RD_9_1.png","img2/200/Incongruent/L/I_Dist_200_LN_4_LD_5_RN_6_RD_10_0.png","img2/100/Congruent/L/C_Dist_100_LN_10_LD_25_RN_3_RD_10_0.png","img2/200/Congruent/R/C_Dist_200_LN_5_LD_10_RN_14_RD_20_1.png","img2/300/Congruent/L/C_Dist_300_LN_11_LD_22_RN_4_RD_20_0.png","img2/300/Congruent/L/C_Dist_300_LN_20_LD_25_RN_8_RD_16_0.png","img2/100/Incongruent/R/I_Dist_100_LN_8_LD_20_RN_1_RD_2_1.png","img2/300/Incongruent/R/I_Dist_300_LN_4_LD_20_RN_2_RD_4_1.png","img2/100/Congruent/L/C_Dist_100_LN_15_LD_25_RN_13_RD_26_0.png","img2/300/Congruent/R/C_Dist_300_LN_2_LD_10_RN_12_RD_24_1.png","img2/100/Incongruent/R/I_Dist_100_LN_13_LD_26_RN_12_RD_20_1.png","img2/300/Incongruent/L/I_Dist_300_LN_8_LD_10_RN_9_RD_18_0.png","img2/200/Incongruent/R/I_Dist_200_LN_6_LD_20_RN_3_RD_6_1.png","img2/300/Incongruent/R/I_Dist_300_LN_4_LD_20_RN_2_RD_4_1.png","img2/300/Incongruent/R/I_Dist_300_LN_4_LD_20_RN_2_RD_4_1.png","img2/100/Incongruent/L/I_Dist_100_LN_2_LD_4_RN_8_RD_20_0.png","img2/100/Incongruent/L/I_Dist_100_LN_4_LD_8_RN_8_RD_20_0.png","img2/300/Congruent/L/C_Dist_300_LN_24_LD_30_RN_8_RD_16_0.png","img2/200/Incongruent/R/I_Dist_200_LN_11_LD_20_RN_3_RD_4_1.png","img2/100/Congruent/L/C_Dist_100_LN_3_LD_6_RN_2_RD_5_0.png","img2/300/Congruent/R/C_Dist_300_LN_1_LD_30_RN_8_RD_24_1.png","img2/300/Congruent/L/C_Dist_300_LN_4_LD_5_RN_2_RD_4_0.png","img2/200/Congruent/R/C_Dist_200_LN_13_LD_26_RN_14_RD_20_1.png","img2/300/Congruent/L/C_Dist_300_LN_20_LD_25_RN_14_RD_28_0.png","img2/100/Congruent/R/C_Dist_100_LN_2_LD_5_RN_6_RD_12_1.png","img2/300/Congruent/R/C_Dist_300_LN_1_LD_5_RN_6_RD_12_1.png","img2/200/Congruent/L/C_Dist_200_LN_14_LD_28_RN_6_RD_20_0.png","img2/100/Congruent/R/C_Dist_100_LN_2_LD_5_RN_6_RD_12_1.png","img2/200/Congruent/R/C_Dist_200_LN_3_LD_10_RN_11_RD_22_1.png","img2/300/Incongruent/R/I_Dist_300_LN_13_LD_26_RN_12_RD_15_1.png","img2/200/Congruent/R/C_Dist_200_LN_9_LD_30_RN_13_RD_26_1.png","img2/100/Incongruent/L/I_Dist_100_LN_2_LD_4_RN_8_RD_20_0.png","img2/100/Congruent/R/C_Dist_100_LN_2_LD_5_RN_6_RD_12_1.png","img2/200/Incongruent/L/I_Dist_200_LN_1_LD_2_RN_3_RD_10_0.png","img2/100/Congruent/R/C_Dist_100_LN_7_LD_14_RN_15_RD_25_1.png","img2/100/Incongruent/L/I_Dist_100_LN_9_LD_15_RN_13_RD_26_0.png","img2/100/Incongruent/R/I_Dist_100_LN_8_LD_20_RN_1_RD_2_1.png","img2/300/Incongruent/L/I_Dist_300_LN_8_LD_10_RN_14_RD_28_0.png","img2/200/Congruent/L/C_Dist_200_LN_16_LD_20_RN_12_RD_20_0.png","img2/200/Incongruent/L/I_Dist_200_LN_3_LD_4_RN_11_RD_20_0.png","img2/200/Congruent/R/C_Dist_200_LN_1_LD_2_RN_21_RD_30_1.png","img2/100/Incongruent/L/I_Dist_100_LN_3_LD_5_RN_8_RD_16_0.png","img2/200/Incongruent/L/I_Dist_200_LN_7_LD_10_RN_14_RD_28_0.png","img2/200/Incongruent/R/I_Dist_200_LN_7_LD_15_RN_6_RD_9_1.png","img2/100/Incongruent/R/I_Dist_100_LN_17_LD_30_RN_10_RD_15_1.png","img2/200/Incongruent/L/I_Dist_200_LN_1_LD_3_RN_2_RD_15_0.png","img2/300/Incongruent/R/I_Dist_300_LN_13_LD_26_RN_12_RD_15_1.png","img2/100/Incongruent/R/I_Dist_100_LN_13_LD_26_RN_6_RD_10_1.png","img2/300/Incongruent/R/I_Dist_300_LN_4_LD_20_RN_2_RD_4_1.png","img2/300/Congruent/L/C_Dist_300_LN_8_LD_16_RN_1_RD_5_0.png","img2/300/Congruent/L/C_Dist_300_LN_24_LD_30_RN_8_RD_16_0.png","img2/200/Congruent/R/C_Dist_200_LN_7_LD_15_RN_18_RD_27_1.png","img2/300/Incongruent/R/I_Dist_300_LN_13_LD_26_RN_12_RD_15_1.png","img2/300/Congruent/L/C_Dist_300_LN_20_LD_25_RN_9_RD_18_0.png","img2/200/Congruent/R/C_Dist_200_LN_3_LD_6_RN_14_RD_20_1.png","img2/300/Incongruent/R/I_Dist_300_LN_4_LD_20_RN_2_RD_4_1.png","img2/200/Congruent/R/C_Dist_200_LN_9_LD_30_RN_13_RD_26_1.png","img2/200/Incongruent/L/I_Dist_200_LN_3_LD_4_RN_11_RD_20_0.png","img2/100/Incongruent/L/I_Dist_100_LN_2_LD_4_RN_8_RD_20_0.png","img2/100/Congruent/L/C_Dist_100_LN_15_LD_25_RN_13_RD_26_0.png","img2/100/Incongruent/R/I_Dist_100_LN_10_LD_25_RN_9_RD_18_1.png","img2/100/Congruent/R/C_Dist_100_LN_12_LD_30_RN_13_RD_26_1.png","img2/100/Incongruent/L/I_Dist_100_LN_3_LD_6_RN_4_RD_10_0.png","img2/100/Congruent/L/C_Dist_100_LN_6_LD_20_RN_5_RD_25_0.png","img2/300/Incongruent/L/I_Dist_300_LN_1_LD_2_RN_2_RD_10_0.png","img2/100/Congruent/L/C_Dist_100_LN_10_LD_25_RN_3_RD_10_0.png","img2/100/Congruent/L/C_Dist_100_LN_15_LD_25_RN_13_RD_26_0.png","img2/300/Incongruent/L/I_Dist_300_LN_8_LD_10_RN_9_RD_18_0.png","img2/200/Incongruent/L/I_Dist_200_LN_1_LD_2_RN_3_RD_10_0.png","img2/300/Incongruent/L/I_Dist_300_LN_3_LD_6_RN_4_RD_20_0.png","img2/100/Congruent/R/C_Dist_100_LN_3_LD_20_RN_4_RD_16_1.png","img2/300/Congruent/R/C_Dist_300_LN_8_LD_15_RN_10_RD_12_1.png","img2/300/Congruent/L/C_Dist_300_LN_12_LD_24_RN_2_RD_10_0.png","img2/200/Incongruent/R/I_Dist_200_LN_6_LD_20_RN_3_RD_6_1.png","img2/300/Incongruent/L/I_Dist_300_LN_2_LD_4_RN_6_RD_30_0.png","img2/100/Incongruent/R/I_Dist_100_LN_8_LD_16_RN_6_RD_10_1.png","img2/300/Congruent/L/C_Dist_300_LN_4_LD_10_RN_1_RD_10_0.png","img2/100/Incongruent/R/I_Dist_100_LN_8_LD_16_RN_6_RD_10_1.png","img2/200/Incongruent/L/I_Dist_200_LN_7_LD_10_RN_14_RD_28_0.png","img2/200/Congruent/R/C_Dist_200_LN_3_LD_10_RN_11_RD_22_1.png","img2/100/Incongruent/R/I_Dist_100_LN_12_LD_30_RN_2_RD_4_1.png","img2/100/Congruent/R/C_Dist_100_LN_4_LD_8_RN_6_RD_10_1.png","img2/300/Congruent/L/C_Dist_300_LN_11_LD_22_RN_1_RD_5_0.png","img2/300/Incongruent/R/I_Dist_300_LN_13_LD_26_RN_12_RD_15_1.png","img2/100/Congruent/R/C_Dist_100_LN_7_LD_14_RN_9_RD_15_1.png","img2/200/Congruent/R/C_Dist_200_LN_6_LD_12_RN_7_RD_10_1.png","img2/300/Congruent/R/C_Dist_300_LN_1_LD_5_RN_3_RD_6_1.png"],"dist100_C":[["C_Dist_100_LN_10_LD_25_RN_3_RD_10_0.png","C_Dist_100_LN_11_LD_22_RN_4_RD_10_0.png","C_Dist_100_LN_11_LD_22_RN_6_RD_15_0.png","C_Dist_100_LN_15_LD_25_RN_13_RD_26_0.png","C_Dist_100_LN_3_LD_6_RN_2_RD_5_0.png","C_Dist_100_LN_6_LD_20_RN_5_RD_25_0.png","C_Dist_100_LN_8_LD_16_RN_2_RD_5_0.png","C_Dist_100_LN_9_LD_15_RN_8_RD_16_0.png"],["C_Dist_100_LN_1_LD_2_RN_18_RD_30_1.png","C_Dist_100_LN_1_LD_2_RN_3_RD_5_1.png","C_Dist_100_LN_12_LD_30_RN_13_RD_26_1.png","C_Dist_100_LN_2_LD_5_RN_11_RD_22_1.png","C_Dist_100_LN_2_LD_5_RN_6_RD_12_1.png","C_Dist_100_LN_3_LD_20_RN_4_RD_16_1.png","C_Dist_100_LN_4_LD_10_RN_15_RD_30_1.png","C_Dist_100_LN_4_LD_8_RN_6_RD_10_1.png","C_Dist_100_LN_6_LD_12_RN_15_RD_25_1.png","C_Dist_100_LN_7_LD_14_RN_15_RD_25_1.png","C_Dist_100_LN_7_LD_14_RN_9_RD_15_1.png"]],"dist100_I":[["I_Dist_100_LN_1_LD_2_RN_8_RD_20_0.png","I_Dist_100_LN_2_LD_4_RN_6_RD_15_0.png","I_Dist_100_LN_2_LD_4_RN_8_RD_20_0.png","I_Dist_100_LN_3_LD_5_RN_11_RD_22_0.png","I_Dist_100_LN_3_LD_5_RN_8_RD_16_0.png","I_Dist_100_LN_3_LD_6_RN_4_RD_10_0.png","I_Dist_100_LN_3_LD_9_RN_7_RD_30_0.png","I_Dist_100_LN_4_LD_8_RN_8_RD_20_0.png","I_Dist_100_LN_6_LD_10_RN_11_RD_22_0.png","I_Dist_100_LN_6_LD_10_RN_13_RD_26_0.png","I_Dist_100_LN_6_LD_10_RN_7_RD_14_0.png","I_Dist_100_LN_9_LD_10_RN_20_RD_25_0.png","I_Dist_100_LN_9_LD_15_RN_13_RD_26_0.png","I_Dist_100_LN_9_LD_15_RN_14_RD_28_0.png"],["I_Dist_100_LN_10_LD_25_RN_8_RD_16_1.png","I_Dist_100_LN_10_LD_25_RN_9_RD_18_1.png","I_Dist_100_LN_11_LD_22_RN_9_RD_15_1.png","I_Dist_100_LN_12_LD_24_RN_9_RD_15_1.png","I_Dist_100_LN_12_LD_30_RN_2_RD_4_1.png","I_Dist_100_LN_13_LD_26_RN_12_RD_20_1.png","I_Dist_100_LN_13_LD_26_RN_6_RD_10_1.png","I_Dist_100_LN_17_LD_30_RN_10_RD_15_1.png","I_Dist_100_LN_6_LD_12_RN_3_RD_5_1.png","I_Dist_100_LN_8_LD_16_RN_6_RD_10_1.png","I_Dist_100_LN_8_LD_20_RN_1_RD_2_1.png","I_Dist_100_LN_9_LD_18_RN_6_RD_10_1.png"]],"dist100_S":[["E_Dist_100_LN_2_LD_12_RN_2_RD_30_0.png","E_Dist_100_LN_6_LD_10_RN_6_RD_12_0.png"],["E_Dist_100_LN_6_LD_12_RN_6_RD_10_1.png"]],"dist200_C":[["C_Dist_200_LN_11_LD_22_RN_3_RD_10_0.png","C_Dist_200_LN_12_LD_15_RN_6_RD_10_0.png","C_Dist_200_LN_12_LD_20_RN_6_RD_15_0.png","C_Dist_200_LN_14_LD_28_RN_6_RD_20_0.png","C_Dist_200_LN_15_LD_25_RN_4_RD_10_0.png","C_Dist_200_LN_16_LD_20_RN_12_RD_20_0.png","C_Dist_200_LN_16_LD_30_RN_9_RD_27_0.png","C_Dist_200_LN_20_LD_25_RN_9_RD_15_0.png","C_Dist_200_LN_21_LD_30_RN_2_RD_4_0.png","C_Dist_200_LN_4_LD_10_RN_3_RD_15_0.png","C_Dist_200_LN_4_LD_8_RN_3_RD_10_0.png","C_Dist_200_LN_6_LD_15_RN_3_RD_15_0.png","C_Dist_200_LN_7_LD_21_RN_2_RD_15_0.png","C_Dist_200_LN_8_LD_15_RN_2_RD_6_0.png","C_Dist_200_LN_8_LD_15_RN_3_RD_9_0.png","C_Dist_200_LN_8_LD_15_RN_7_RD_21_0.png","C_Dist_200_LN_9_LD_20_RN_4_RD_16_0.png"],["C_Dist_200_LN_1_LD_2_RN_21_RD_30_1.png","C_Dist_200_LN_13_LD_26_RN_14_RD_20_1.png","C_Dist_200_LN_3_LD_10_RN_11_RD_22_1.png","C_Dist_200_LN_3_LD_10_RN_14_RD_28_1.png","C_Dist_200_LN_3_LD_10_RN_7_RD_14_1.png","C_Dist_200_LN_3_LD_12_RN_9_RD_20_1.png","C_Dist_200_LN_3_LD_6_RN_14_RD_20_1.png","C_Dist_200_LN_5_LD_10_RN_14_RD_20_1.png","C_Dist_200_LN_6_LD_12_RN_7_RD_10_1.png","C_Dist_200_LN_6_LD_20_RN_11_RD_22_1.png","C_Dist_200_LN_7_LD_15_RN_18_RD_27_1.png","C_Dist_200_LN_9_LD_30_RN_13_RD_26_1.png"]],"dist200_I":[["I_Dist_200_LN_1_LD_2_RN_3_RD_10_0.png","I_Dist_200_LN_1_LD_3_RN_2_RD_15_0.png","I_Dist_200_LN_3_LD_4_RN_11_RD_20_0.png","I_Dist_200_LN_4_LD_5_RN_6_RD_10_0.png","I_Dist_200_LN_4_LD_6_RN_14_RD_30_0.png","I_Dist_200_LN_7_LD_10_RN_12_RD_24_0.png","I_Dist_200_LN_7_LD_10_RN_14_RD_28_0.png","I_Dist_200_LN_7_LD_10_RN_8_RD_16_0.png"],["I_Dist_200_LN_11_LD_20_RN_3_RD_4_1.png","I_Dist_200_LN_14_LD_30_RN_12_RD_18_1.png","I_Dist_200_LN_14_LD_30_RN_6_RD_9_1.png","I_Dist_200_LN_3_LD_10_RN_1_RD_2_1.png","I_Dist_200_LN_4_LD_30_RN_1_RD_3_1.png","I_Dist_200_LN_6_LD_20_RN_3_RD_6_1.png","I_Dist_200_LN_7_LD_15_RN_4_RD_6_1.png","I_Dist_200_LN_7_LD_15_RN_6_RD_9_1.png","I_Dist_200_LN_9_LD_15_RN_8_RD_10_1.png"]],"dist200_S":[["E_Dist_200_LN_3_LD_6_RN_3_RD_10_0.png"],["E_Dist_200_LN_3_LD_10_RN_3_RD_6_1.png"]],"dist300_C":[["C_Dist_300_LN_11_LD_22_RN_1_RD_5_0.png","C_Dist_300_LN_11_LD_22_RN_2_RD_10_0.png","C_Dist_300_LN_11_LD_22_RN_4_RD_20_0.png","C_Dist_300_LN_12_LD_24_RN_2_RD_10_0.png","C_Dist_300_LN_18_LD_20_RN_9_RD_15_0.png","C_Dist_300_LN_20_LD_25_RN_13_RD_26_0.png","C_Dist_300_LN_20_LD_25_RN_14_RD_28_0.png","C_Dist_300_LN_20_LD_25_RN_5_RD_10_0.png","C_Dist_300_LN_20_LD_25_RN_8_RD_16_0.png","C_Dist_300_LN_20_LD_25_RN_9_RD_18_0.png","C_Dist_300_LN_24_LD_30_RN_2_RD_4_0.png","C_Dist_300_LN_24_LD_30_RN_8_RD_16_0.png","C_Dist_300_LN_3_LD_6_RN_2_RD_10_0.png","C_Dist_300_LN_4_LD_10_RN_1_RD_10_0.png","C_Dist_300_LN_4_LD_5_RN_2_RD_4_0.png","C_Dist_300_LN_8_LD_16_RN_1_RD_5_0.png","C_Dist_300_LN_9_LD_10_RN_3_RD_5_0.png"],["C_Dist_300_LN_1_LD_20_RN_7_RD_20_1.png","C_Dist_300_LN_1_LD_3_RN_19_RD_30_1.png","C_Dist_300_LN_1_LD_30_RN_8_RD_24_1.png","C_Dist_300_LN_1_LD_5_RN_11_RD_22_1.png","C_Dist_300_LN_1_LD_5_RN_3_RD_6_1.png","C_Dist_300_LN_1_LD_5_RN_6_RD_12_1.png","C_Dist_300_LN_2_LD_10_RN_12_RD_24_1.png","C_Dist_300_LN_2_LD_20_RN_10_RD_25_1.png","C_Dist_300_LN_3_LD_12_RN_11_RD_20_1.png","C_Dist_300_LN_3_LD_6_RN_4_RD_5_1.png","C_Dist_300_LN_4_LD_20_RN_13_RD_26_1.png","C_Dist_300_LN_5_LD_25_RN_6_RD_12_1.png","C_Dist_300_LN_5_LD_25_RN_7_RD_14_1.png","C_Dist_300_LN_7_LD_14_RN_20_RD_25_1.png","C_Dist_300_LN_8_LD_15_RN_10_RD_12_1.png"]],"dist300_I":[["I_Dist_300_LN_1_LD_2_RN_2_RD_10_0.png","I_Dist_300_LN_1_LD_2_RN_3_RD_15_0.png","I_Dist_300_LN_2_LD_4_RN_6_RD_30_0.png","I_Dist_300_LN_3_LD_6_RN_4_RD_20_0.png","I_Dist_300_LN_4_LD_5_RN_6_RD_12_0.png","I_Dist_300_LN_4_LD_5_RN_8_RD_16_0.png","I_Dist_300_LN_7_LD_10_RN_8_RD_20_0.png","I_Dist_300_LN_8_LD_10_RN_14_RD_28_0.png","I_Dist_300_LN_8_LD_10_RN_9_RD_18_0.png"],["I_Dist_300_LN_13_LD_26_RN_12_RD_15_1.png","I_Dist_300_LN_4_LD_20_RN_2_RD_4_1.png"]],"dist300_S":[["E_Dist_300_LN_9_LD_12_RN_9_RD_20_0.png"],["E_Dist_300_LN_18_LD_30_RN_18_RD_20_1.png","E_Dist_300_LN_3_LD_10_RN_3_RD_5_1.png","E_Dist_300_LN_9_LD_20_RN_9_RD_12_1.png"]],"dist500_C":[["C_Dist_500_LN_10_LD_13_RN_7_RD_26_0.png","C_Dist_500_LN_10_LD_15_RN_4_RD_24_0.png","C_Dist_500_LN_12_LD_16_RN_3_RD_12_0.png","C_Dist_500_LN_12_LD_18_RN_4_RD_24_0.png","C_Dist_500_LN_15_LD_18_RN_5_RD_15_0.png","C_Dist_500_LN_15_LD_20_RN_1_RD_4_0.png","C_Dist_500_LN_18_LD_27_RN_1_RD_6_0.png","C_Dist_500_LN_20_LD_24_RN_1_RD_3_0.png","C_Dist_500_LN_20_LD_24_RN_3_RD_9_0.png","C_Dist_500_LN_20_LD_24_RN_7_RD_21_0.png","C_Dist_500_LN_20_LD_28_RN_3_RD_14_0.png","C_Dist_500_LN_21_LD_28_RN_6_RD_24_0.png","C_Dist_500_LN_22_LD_28_RN_2_RD_7_0.png","C_Dist_500_LN_25_LD_30_RN_9_RD_27_0.png","C_Dist_500_LN_4_LD_6_RN_1_RD_6_0.png","C_Dist_500_LN_5_LD_6_RN_2_RD_6_0.png","C_Dist_500_LN_6_LD_9_RN_1_RD_6_0.png","C_Dist_500_LN_7_LD_10_RN_1_RD_5_0.png","C_Dist_500_LN_8_LD_12_RN_1_RD_6_0.png","C_Dist_500_LN_8_LD_12_RN_4_RD_24_0.png"],["C_Dist_500_LN_1_LD_4_RN_12_RD_16_1.png","C_Dist_500_LN_1_LD_4_RN_9_RD_12_1.png","C_Dist_500_LN_1_LD_9_RN_11_RD_18_1.png","C_Dist_500_LN_10_LD_24_RN_22_RD_24_1.png","C_Dist_500_LN_2_LD_12_RN_10_RD_15_1.png","C_Dist_500_LN_2_LD_12_RN_12_RD_18_1.png","C_Dist_500_LN_2_LD_12_RN_4_RD_6_1.png","C_Dist_500_LN_2_LD_24_RN_7_RD_12_1.png","C_Dist_500_LN_2_LD_5_RN_18_RD_20_1.png","C_Dist_500_LN_2_LD_5_RN_9_RD_10_1.png","C_Dist_500_LN_2_LD_8_RN_12_RD_16_1.png","C_Dist_500_LN_2_LD_8_RN_21_RD_28_1.png","C_Dist_500_LN_3_LD_10_RN_4_RD_5_1.png","C_Dist_500_LN_3_LD_12_RN_15_RD_20_1.png","C_Dist_500_LN_3_LD_30_RN_6_RD_10_1.png","C_Dist_500_LN_3_LD_8_RN_14_RD_16_1.png","C_Dist_500_LN_4_LD_16_RN_15_RD_20_1.png","C_Dist_500_LN_4_LD_24_RN_12_RD_18_1.png","C_Dist_500_LN_5_LD_14_RN_6_RD_7_1.png","C_Dist_500_LN_7_LD_21_RN_20_RD_24_1.png","C_Dist_500_LN_7_LD_28_RN_12_RD_16_1.png","C_Dist_500_LN_7_LD_28_RN_9_RD_12_1.png","C_Dist_500_LN_9_LD_27_RN_20_RD_24_1.png"]],"dist500_I":[["I_Dist_500_LN_2_LD_3_RN_4_RD_24_0.png","I_Dist_500_LN_5_LD_6_RN_6_RD_18_0.png","I_Dist_500_LN_7_LD_8_RN_9_RD_24_0.png"],["I_Dist_500_LN_7_LD_21_RN_5_RD_6_1.png"]],"dist500_S":[["E_Dist_500_LN_6_LD_8_RN_6_RD_24_0.png"],["E_Dist_500_LN_2_LD_12_RN_2_RD_3_1.png","E_Dist_500_LN_6_LD_24_RN_6_RD_8_1.png"]]}},{"start_time":1551892402730,"click_time":1551892403357,"finger_time":1551892403036,"fix_duration":250,"trial":1,"RT":306,"MT":321,"sideResp":2,"stimulus":[],"xmouse":[795,795,795,795,795,795,795,795,795,795,795,795,795,795,797,808,843,861,872,890,907,927,936,941,945,949,956,960,967,977,999,1091],"ymouse":[605,605,605,605,605,605,605,605,605,605,605,605,602,594,582,553,470,424,374,331,288,248,231,215,200,186,156,139,122,105,81,14],"timestamp_mouse":[11,29,46,66,87,107,126,147,167,187,206,226,247,266,287,306,326,346,366,386,407,426,446,466,487,507,526,546,567,587,606,626],"xSR":741.5,"ySR":573.95,"xT1":424.9,"yT1":0,"xT2":1058.1,"yT2":0,"toosoon":0,"cond_shown":"Incongruent","ratio_trial":300,"L_num":4,"L_den":20,"R_num":2,"R_den":4,"correct_side":2,"subjID":"isabellarosero28","gender":"1","school":"6","age":"13 "},{"start_time":1551892409048,"click_time":1551892410036,"finger_time":1551892409756,"fix_duration":1470.7869414387224,"trial":2,"RT":708,"MT":280,"sideResp":1,"stimulus":[],"xmouse":[808,808,808,808,808,808,808,808,808,808,808,808,808,808,808,808,808,808,808,808,808,808,808,808,808,808,808,808,808,808,808,808,808,805,795,678,610,555,530,506,519,524,517,489,483,469,469,469,469,469],"ymouse":[631,631,631,631,631,631,631,631,631,631,631,631,631,631,631,631,631,631,631,631,631,631,631,631,631,631,631,631,631,631,631,631,629,622,600,423,300,168,45,0,0,0,0,0,0,0,0,0,0,4],"timestamp_mouse":[10,39,49,68,88,109,128,148,168,188,209,228,248,268,288,308,328,349,368,389,410,429,448,469,489,508,529,548,570,588,609,629,648,669,688,708,728,748,768,789,808,828,848,868,888,908,928,949,968,988],"xSR":741.5,"ySR":573.95,"xT1":424.9,"yT1":0,"xT2":1058.1,"yT2":0,"toosoon":0,"cond_shown":"Congruent","ratio_trial":200,"L_num":6,"L_den":12,"R_num":7,"R_den":10,"correct_side":2,"subjID":"isabellarosero28","gender":"1","school":"6","age":"13 "},{"start_time":1551892412930,"click_time":1551892413736,"finger_time":1551892413396,"fix_duration":250,"trial":3,"RT":466,"MT":340,"sideResp":2,"stimulus":[],"xmouse":[796,797,797,797,797,797,797,797,797,797,797,797,797,797,797,797,797,797,797,797,797,799,824,867,925,1060,1124,1182,1238,1270,1291,1291,1287,1282,1276,1247,1222,1198,1173,1140],"ymouse":[605,600,600,600,600,600,600,600,600,600,600,600,600,600,600,600,600,600,600,600,600,597,551,479,388,198,110,29,0,0,0,0,0,0,0,0,8,16,27,44],"timestamp_mouse":[30,46,66,86,106,126,146,166,186,207,226,246,266,286,306,327,346,367,386,406,426,446,466,486,506,526,546,566,586,607,626,646,666,687,706,726,747,767,786,806],"xSR":741.5,"ySR":573.95,"xT1":424.9,"yT1":0,"xT2":1058.1,"yT2":0,"toosoon":0,"cond_shown":"Congruent","ratio_trial":200,"L_num":5,"L_den":10,"R_num":14,"R_den":20,"correct_side":2,"subjID":"isabellarosero28","gender":"1","school":"6","age":"13 "},{"start_time":1551892416068,"click_time":1551892416616,"finger_time":1551892416157,"fix_duration":250,"trial":4,"RT":89,"MT":459,"sideResp":2,"stimulus":[],"xmouse":[766,766,766,777,806,822,837,849,859,871,890,902,921,974,1014,1020,1026,1030,1030,1031,1034,1041,1054,1068,1083,1089,1098,1109],"ymouse":[640,640,640,620,567,529,487,441,396,357,302,282,261,222,189,178,167,159,154,147,144,138,130,123,113,108,102,95],"timestamp_mouse":[10,38,48,68,89,109,128,149,169,188,209,228,248,268,288,309,328,348,370,388,408,428,448,469,487,508,528,548],"xSR":741.5,"ySR":573.95,"xT1":424.9,"yT1":0,"xT2":1058.1,"yT2":0,"toosoon":0,"cond_shown":"Incongruent","ratio_trial":200,"L_num":4,"L_den":5,"R_num":6,"R_den":10,"correct_side":1,"subjID":"isabellarosero28","gender":"1","school":"6","age":"13 "},{"start_time":1551892451485,"click_time":1551892453456,"finger_time":1551892452256,"fix_duration":327.19732452928565,"trial":5,"RT":771,"MT":1200,"sideResp":1,"stimulus":[],"xmouse":[797,798,798,799,799,799,799,799,800,800,800,800,800,801,802,802,802,802,802,802,802,804,804,804,804,804,804,804,804,804,804,804,804,804,804,804,806,808,808,798,787,787,791,802,809,823,837,850,860,860,872,874,874,874,875,875,875,875,876,876,876,877,877,878,878,878,878,878,878,878,878,878,884,897,897,897,897,897,897,897,897,892,892,845,771,738,653,534,419,416,414,403,393,388,387,386,386,391,437],"ymouse":[608,610,610,614,616,616,617,620,621,621,621,621,621,622,622,622,622,622,622,622,622,624,624,624,624,624,624,624,624,624,624,624,624,624,624,624,618,609,516,443,369,299,237,133,112,90,71,53,44,44,43,43,43,43,43,43,43,43,43,43,43,43,43,43,43,43,43,43,43,43,43,43,43,41,41,41,41,41,41,41,41,41,41,52,74,84,98,114,123,123,123,117,113,110,109,108,106,96,69],"timestamp_mouse":[12,36,52,72,92,111,131,151,171,191,211,231,252,271,292,310,332,352,370,392,412,431,451,471,492,511,532,551,571,591,610,632,652,671,692,712,731,751,771,791,810,832,851,871,892,911,931,952,971,991,1013,1031,1052,1071,1091,1111,1130,1151,1171,1191,1212,1231,1252,1271,1290,1310,1332,1352,1372,1391,1411,1431,1451,1471,1490,1510,1532,1551,1572,1591,1611,1632,1652,1670,1691,1711,1730,1751,1771,1792,1812,1831,1851,1871,1891,1912,1931,1950,1971],"xSR":741.5,"ySR":573.95,"xT1":424.9,"yT1":0,"xT2":1058.1,"yT2":0,"toosoon":0,"cond_shown":"Incongruent","ratio_trial":100,"L_num":9,"L_den":10,"R_num":20,"R_den":25,"correct_side":1,"subjID":"isabellarosero28","gender":"1","school":"6","age":"13 "},{"start_time":1551892471426,"click_time":1551892471937,"finger_time":1551892471856,"fix_duration":1067.8372886074926,"trial":6,"RT":430,"MT":81,"sideResp":2,"stimulus":[],"xmouse":[768,768,768,768,768,768,768,768,768,768,768,768,769,770,771,771,773,774,779,790,811,887,944,1015,1066,1135],"ymouse":[635,635,635,635,635,635,635,635,635,635,635,635,636,636,636,636,636,636,632,621,594,482,405,315,226,87],"timestamp_mouse":[10,33,50,70,90,110,130,151,170,189,210,231,250,269,290,310,330,350,370,390,410,430,450,470,490,511],"xSR":741.5,"ySR":573.95,"xT1":424.9,"yT1":0,"xT2":1058.1,"yT2":0,"toosoon":0,"cond_shown":"Incongruent","ratio_trial":300,"L_num":13,"L_den":26,"R_num":12,"R_den":15,"correct_side":2,"subjID":"isabellarosero28","gender":"1","school":"6","age":"13 "},{"start_time":1551892476420,"click_time":1551892477496,"finger_time":1551892476796,"fix_duration":1280.987235107353,"trial":7,"RT":376,"MT":700,"sideResp":2,"stimulus":[],"xmouse":[791,793,793,793,793,793,793,793,793,793,793,793,793,794,795,796,812,840,909,1007,1117,1233,1259,1284,1327,1386,1417,1422,1423,1423,1420,1407,1397,1378,1350,1312,1258,1255,1253,1253,1253,1244,1230,1216,1207,1207,1202,1191,1177,1167,1165,1163,1161,1158],"ymouse":[615,615,615,615,615,615,615,615,615,615,615,615,615,615,615,615,613,601,563,493,403,252,190,133,80,24,0,0,0,0,0,0,0,0,0,0,1,2,4,4,4,4,5,6,7,7,9,12,15,19,20,25,27,30],"timestamp_mouse":[16,36,57,77,96,116,137,157,177,195,217,237,257,277,296,317,336,357,376,395,416,435,456,476,496,516,536,556,576,595,617,636,656,676,697,716,736,756,776,797,816,837,856,876,895,916,936,956,977,997,1016,1036,1056,1076],"xSR":741.5,"ySR":573.95,"xT1":424.9,"yT1":0,"xT2":1058.1,"yT2":0,"toosoon":0,"cond_shown":"Congruent","ratio_trial":200,"L_num":9,"L_den":30,"R_num":13,"R_den":26,"correct_side":2,"subjID":"isabellarosero28","gender":"1","school":"6","age":"13 "},{"start_time":1551892481954,"click_time":1551892482756,"finger_time":1551892482317,"fix_duration":1036.6878872626855,"trial":8,"RT":363,"MT":439,"sideResp":2,"stimulus":[],"xmouse":[785,785,785,785,785,782,781,781,780,779,779,779,779,778,778,777,777,786,825,939,1157,1163,1159,1149,1141,1136,1136,1136,1135,1135,1121,1115,1112,1111,1111,1111,1110,1109,1108,1108,1108],"ymouse":[638,638,638,638,638,639,639,640,641,641,641,641,641,641,641,637,628,608,558,443,235,209,196,185,173,166,166,166,166,166,157,153,150,144,137,120,114,108,104,101,97],"timestamp_mouse":[10,35,42,62,81,102,123,142,162,182,203,221,242,263,282,302,321,341,363,382,402,422,442,463,483,502,523,542,562,582,602,623,642,662,683,702,723,742,762,783,802],"xSR":741.5,"ySR":573.95,"xT1":424.9,"yT1":0,"xT2":1058.1,"yT2":0,"toosoon":0,"cond_shown":"Congruent","ratio_trial":300,"L_num":5,"L_den":25,"R_num":6,"R_den":12,"correct_side":2,"subjID":"isabellarosero28","gender":"1","school":"6","age":"13 "},{"start_time":1551892489146,"click_time":1551892489937,"finger_time":1551892489397,"fix_duration":1026.7493910773442,"trial":9,"RT":251,"MT":540,"sideResp":2,"stimulus":[],"xmouse":[798,798,798,798,798,799,799,799,800,801,809,823,847,884,933,1046,1082,1118,1163,1210,1294,1298,1296,1276,1245,1177,1152,1131,1118,1090,1035,1020,1019,1019,1020,1023,1024,1026,1036,1062],"ymouse":[608,603,597,593,591,588,588,588,588,587,584,577,563,541,507,412,362,308,255,208,95,57,15,0,0,0,0,0,0,0,7,12,13,15,15,17,17,18,19,19],"timestamp_mouse":[10,30,56,71,91,110,130,151,170,189,210,231,251,270,291,310,331,350,370,391,410,430,451,470,491,510,529,550,570,591,610,631,651,669,691,710,731,750,770,791],"xSR":741.5,"ySR":573.95,"xT1":424.9,"yT1":0,"xT2":1058.1,"yT2":0,"toosoon":0,"cond_shown":"Congruent","ratio_trial":200,"L_num":8,"L_den":15,"R_num":2,"R_den":6,"correct_side":1,"subjID":"isabellarosero28","gender":"1","school":"6","age":"13 "},{"start_time":1551892494381,"click_time":1551892495456,"finger_time":1551892494756,"fix_duration":1304.8865953904258,"trial":10,"RT":375,"MT":700,"sideResp":2,"stimulus":[],"xmouse":[787,787,787,787,787,787,787,787,787,787,787,787,787,787,786,785,782,771,765,765,765,751,723,642,612,593,592,592,592,592,592,592,592,592,590,579,573,573,656,775,943,1113,1233,1304,1304,1304,1302,1298,1293,1285,1261,1220,1179,1126],"ymouse":[639,639,639,639,639,639,639,639,639,639,639,639,639,639,636,628,614,589,548,502,410,292,145,0,0,0,0,0,0,0,0,0,0,0,0,5,12,32,88,104,104,104,95,77,77,76,71,68,59,51,41,30,18,14],"timestamp_mouse":[16,41,55,75,95,116,134,156,175,195,214,235,255,276,295,315,336,355,375,395,415,436,456,476,496,515,535,556,575,596,615,635,655,675,695,715,735,755,776,794,816,835,855,876,895,916,934,956,975,995,1015,1035,1055,1075],"xSR":741.5,"ySR":573.95,"xT1":424.9,"yT1":0,"xT2":1058.1,"yT2":0,"toosoon":0,"cond_shown":"Congruent","ratio_trial":300,"L_num":2,"L_den":10,"R_num":12,"R_den":24,"correct_side":2,"subjID":"isabellarosero28","gender":"1","school":"6","age":"13 "},{"start_time":1551892514802,"click_time":1551892515656,"finger_time":1551892515156,"fix_duration":1344.4207107175623,"trial":11,"RT":354,"MT":500,"sideResp":2,"stimulus":[],"xmouse":[808,808,808,808,808,808,808,808,808,808,808,808,808,806,804,803,799,804,823,848,871,888,911,929,962,1009,1048,1075,1075,1076,1076,1078,1097,1102,1102,1102,1102,1102,1102,1102,1102,1102,1102],"ymouse":[624,624,624,624,624,624,624,624,624,624,624,624,624,624,624,624,617,571,521,483,456,433,374,311,238,184,155,127,126,122,121,120,107,103,103,103,103,103,103,103,103,102,99],"timestamp_mouse":[14,39,54,74,94,115,134,155,175,194,214,233,254,275,295,314,334,354,374,394,414,435,454,473,494,515,534,553,574,594,615,634,654,674,695,714,734,754,774,794,813,834,853],"xSR":741.5,"ySR":573.95,"xT1":424.9,"yT1":0,"xT2":1058.1,"yT2":0,"toosoon":0,"cond_shown":"Congruent","ratio_trial":300,"L_num":9,"L_den":10,"R_num":3,"R_den":5,"correct_side":1,"subjID":"isabellarosero28","gender":"1","school":"6","age":"13 "},{"start_time":1551892533267,"click_time":1551892533997,"finger_time":1551892533556,"fix_duration":889.3985896987984,"trial":12,"RT":289,"MT":441,"sideResp":1,"stimulus":[],"xmouse":[795,795,795,795,795,795,795,795,795,795,795,795,795,794,794,780,745,701,651,552,504,467,449,436,433,433,433,433,433,432,424,412,402,396,410,419,426],"ymouse":[626,626,626,626,626,626,626,626,626,626,626,626,626,624,521,421,291,163,42,0,0,0,0,0,0,0,0,0,0,0,0,4,9,19,78,91,99],"timestamp_mouse":[10,30,49,69,88,108,129,158,169,188,209,229,248,270,289,309,329,350,369,390,409,429,449,470,489,510,529,550,569,589,609,628,648,668,688,710,730],"xSR":741.5,"ySR":573.95,"xT1":424.9,"yT1":0,"xT2":1058.1,"yT2":0,"toosoon":0,"cond_shown":"Congruent","ratio_trial":200,"L_num":7,"L_den":21,"R_num":2,"R_den":15,"correct_side":1,"subjID":"isabellarosero28","gender":"1","school":"6","age":"13 "},{"start_time":1551892536709,"click_time":1551892537236,"finger_time":1551892537036,"fix_duration":992.3326047448807,"trial":13,"RT":327,"MT":200,"sideResp":2,"stimulus":[],"xmouse":[770,770,770,770,770,770,770,771,771,773,774,774,774,779,788,802,826,895,923,953,996,1046,1069,1073,1075,1078,1081],"ymouse":[610,610,610,610,610,610,610,610,610,610,610,610,610,609,604,593,568,438,374,306,234,179,145,135,123,106,92],"timestamp_mouse":[10,31,47,66,88,108,127,148,166,187,206,227,248,268,288,307,327,347,368,387,408,427,447,467,487,508,527],"xSR":741.5,"ySR":573.95,"xT1":424.9,"yT1":0,"xT2":1058.1,"yT2":0,"toosoon":0,"cond_shown":"Congruent","ratio_trial":200,"L_num":8,"L_den":15,"R_num":2,"R_den":6,"correct_side":1,"subjID":"isabellarosero28","gender":"1","school":"6","age":"13 "},{"start_time":1551892571013,"click_time":1551892571796,"finger_time":1551892571476,"fix_duration":716.9761052997452,"trial":14,"RT":463,"MT":320,"sideResp":2,"stimulus":[],"xmouse":[795,791,789,784,783,783,783,783,783,783,783,783,783,783,783,783,783,783,783,783,783,782,810,855,902,913,884,807,807,775,775,775,843,851,858,873,901,985,1035,1075],"ymouse":[611,611,611,611,611,611,611,611,611,611,611,611,611,611,611,611,611,611,611,611,611,610,575,507,397,250,100,0,0,0,0,0,0,0,0,0,6,42,57,67],"timestamp_mouse":[3,22,43,63,84,103,123,144,163,183,203,223,244,264,284,303,323,344,364,383,404,424,444,463,484,504,524,543,564,582,604,623,643,662,683,703,723,743,763,783],"xSR":741.5,"ySR":573.95,"xT1":424.9,"yT1":0,"xT2":1058.1,"yT2":0,"toosoon":0,"cond_shown":"Congruent","ratio_trial":100,"L_num":3,"L_den":6,"R_num":2,"R_den":5,"correct_side":1,"subjID":"isabellarosero28","gender":"1","school":"6","age":"13 "},{"start_time":1551892574625,"click_time":1551892575196,"finger_time":1551892574915,"fix_duration":1247.0118440434283,"trial":15,"RT":290,"MT":281,"sideResp":1,"stimulus":[],"xmouse":[791,791,791,791,791,791,791,791,791,791,791,791,791,786,758,667,533,499,489,488,488,488,487,481,480,480,480,477,474],"ymouse":[603,603,603,603,603,603,603,603,603,603,603,603,604,597,513,297,13,0,0,0,0,0,0,0,0,0,0,0,5],"timestamp_mouse":[11,34,52,71,91,111,131,150,171,191,210,231,250,271,290,311,330,351,371,391,411,430,450,471,491,511,530,551,570],"xSR":741.5,"ySR":573.95,"xT1":424.9,"yT1":0,"xT2":1058.1,"yT2":0,"toosoon":0,"cond_shown":"Congruent","ratio_trial":300,"L_num":3,"L_den":12,"R_num":11,"R_den":20,"correct_side":2,"subjID":"isabellarosero28","gender":"1","school":"6","age":"13 "},{"start_time":1551892577209,"click_time":1551892577696,"finger_time":1551892577436,"fix_duration":250,"trial":16,"RT":227,"MT":260,"sideResp":2,"stimulus":[],"xmouse":[824,824,824,824,824,824,824,824,824,824,824,834,857,885,920,958,1008,1051,1061,1070,1074,1076,1077,1077,1077],"ymouse":[583,583,583,583,583,583,583,583,583,583,583,571,534,479,388,251,7,0,0,0,0,0,0,0,1],"timestamp_mouse":[9,28,46,66,86,106,127,146,168,186,206,227,246,266,287,308,328,347,366,386,407,426,446,467,486],"xSR":741.5,"ySR":573.95,"xT1":424.9,"yT1":0,"xT2":1058.1,"yT2":0,"toosoon":0,"cond_shown":"Incongruent","ratio_trial":100,"L_num":3,"L_den":9,"R_num":7,"R_den":30,"correct_side":1,"subjID":"isabellarosero28","gender":"1","school":"6","age":"13 "},{"start_time":1551892579421,"click_time":1551892579816,"finger_time":1551892579656,"fix_duration":544.7501291266999,"trial":17,"RT":235,"MT":160,"sideResp":1,"stimulus":[],"xmouse":[817,817,817,817,817,817,817,817,818,818,818,818,810,768,695,557,451,445,444,443],"ymouse":[598,598,598,598,598,598,598,598,598,596,584,485,359,169,0,0,0,0,0,5],"timestamp_mouse":[14,34,55,74,95,115,134,155,176,195,216,235,255,276,295,315,334,354,375,395],"xSR":741.5,"ySR":573.95,"xT1":424.9,"yT1":0,"xT2":1058.1,"yT2":0,"toosoon":0,"cond_shown":"Congruent","ratio_trial":200,"L_num":20,"L_den":25,"R_num":9,"R_den":15,"correct_side":1,"subjID":"isabellarosero28","gender":"1","school":"6","age":"13 "},{"start_time":1551892586836,"click_time":1551892587475,"finger_time":1551892587155,"fix_duration":1040.1025733955496,"trial":18,"RT":319,"MT":320,"sideResp":2,"stimulus":[],"xmouse":[763,763,763,763,763,763,763,763,763,763,763,763,763,763,763,773,789,804,818,839,854,854,858,861,877,930,951,964,980,997,1044,1071],"ymouse":[584,584,584,584,584,584,584,584,584,584,584,584,584,584,584,566,529,479,433,387,325,298,271,245,211,172,161,153,142,132,105,91],"timestamp_mouse":[34,40,59,81,101,120,139,160,179,200,221,240,259,281,301,319,339,360,379,399,419,439,460,481,500,519,539,560,579,599,619,639],"xSR":741.5,"ySR":573.95,"xT1":424.9,"yT1":0,"xT2":1058.1,"yT2":0,"toosoon":0,"cond_shown":"Incongruent","ratio_trial":300,"L_num":13,"L_den":26,"R_num":12,"R_den":15,"correct_side":2,"subjID":"isabellarosero28","gender":"1","school":"6","age":"13 "},{"start_time":1551892593793,"click_time":1551892594436,"finger_time":1551892594215,"fix_duration":1315.3463628127483,"trial":19,"RT":422,"MT":221,"sideResp":2,"stimulus":[],"xmouse":[795,795,795,795,795,795,795,795,795,795,795,795,795,795,795,795,795,796,802,804,808,813,819,832,840,848,858,870,890,923,965,1018,1082],"ymouse":[610,610,610,610,610,610,610,610,610,610,610,610,610,610,610,610,607,603,596,594,586,573,562,541,531,519,498,454,332,266,187,101,6],"timestamp_mouse":[11,23,42,62,82,103,124,142,162,183,202,222,243,263,282,303,323,342,362,383,402,422,442,462,482,502,522,543,563,582,603,623,643],"xSR":741.5,"ySR":573.95,"xT1":424.9,"yT1":0,"xT2":1058.1,"yT2":0,"toosoon":0,"cond_shown":"Incongruent","ratio_trial":200,"L_num":7,"L_den":15,"R_num":6,"R_den":9,"correct_side":2,"subjID":"isabellarosero28","gender":"1","school":"6","age":"13 "},{"start_time":1551892597031,"click_time":1551892597757,"finger_time":1551892597277,"fix_duration":1173.8306372875059,"trial":20,"RT":246,"MT":480,"sideResp":1,"stimulus":[],"xmouse":[767,770,770,770,770,770,770,770,770,770,770,764,752,726,684,618,577,567,561,555,544,526,522,520,520,520,520,519,511,498,488,481,478,476,473,471,470],"ymouse":[582,586,586,587,587,587,587,587,587,587,587,575,548,481,377,224,128,102,79,57,34,0,0,0,0,0,0,0,0,0,0,0,0,0,0,0,1],"timestamp_mouse":[4,40,44,65,86,105,125,144,164,186,205,225,246,266,284,305,324,345,365,384,405,425,444,465,485,504,524,544,564,586,605,626,646,665,685,705,726],"xSR":741.5,"ySR":573.95,"xT1":424.9,"yT1":0,"xT2":1058.1,"yT2":0,"toosoon":0,"cond_shown":"Congruent","ratio_trial":100,"L_num":1,"L_den":2,"R_num":18,"R_den":30,"correct_side":2,"subjID":"isabellarosero28","gender":"1","school":"6","age":"13 "},{"start_time":1551892600751,"click_time":1551892602397,"finger_time":1551892601155,"fix_duration":1435.4077331831577,"trial":21,"RT":404,"MT":1242,"sideResp":1,"stimulus":[],"xmouse":[805,805,805,805,805,805,805,805,805,805,805,805,804,804,804,805,806,808,814,827,865,874,882,892,898,916,923,929,936,942,957,962,968,977,984,991,991,993,994,997,997,997,992,977,959,740,650,591,550,512,438,340,323,323,323,323,323,323,326,332,360,362,362,363,365,384,389,389,389,389,389,389,390,392,392,394,395,397,402,406,417,423,433],"ymouse":[649,649,649,649,649,649,649,649,649,649,649,649,648,648,646,646,645,642,633,614,533,493,454,413,379,287,243,197,145,105,50,40,33,25,20,15,15,14,13,11,11,11,9,7,4,0,0,0,0,0,0,0,0,0,0,0,0,0,1,3,8,8,8,8,8,8,8,8,8,8,8,8,8,8,8,8,9,10,11,12,16,19,24],"timestamp_mouse":[11,34,44,64,86,105,124,144,166,184,204,225,245,265,285,306,324,346,365,384,404,425,446,465,484,504,524,544,565,586,604,624,644,665,684,705,725,746,765,785,804,825,846,865,885,905,924,944,964,984,1004,1024,1046,1064,1085,1105,1124,1144,1164,1184,1204,1224,1245,1265,1285,1305,1324,1345,1364,1384,1404,1424,1446,1465,1485,1504,1524,1544,1565,1586,1606,1624,1646],"xSR":741.5,"ySR":573.95,"xT1":424.9,"yT1":0,"xT2":1058.1,"yT2":0,"toosoon":0,"cond_shown":"Incongruent","ratio_trial":200,"L_num":1,"L_den":3,"R_num":2,"R_den":15,"correct_side":1,"subjID":"isabellarosero28","gender":"1","school":"6","age":"13 "},{"start_time":1551892604667,"click_time":1551892605715,"finger_time":1551892605016,"fix_duration":250,"trial":22,"RT":349,"MT":699,"sideResp":2,"stimulus":[],"xmouse":[771,771,771,771,771,771,771,771,771,771,771,771,771,771,772,772,768,750,719,649,628,617,609,604,600,601,615,634,664,845,980,1112,1241,1336,1473,1489,1502,1507,1510,1510,1508,1508,1505,1499,1442,1389,1330,1268,1200,1181,1168,1161,1158],"ymouse":[625,625,625,625,625,625,625,625,625,625,625,625,625,625,625,611,588,551,500,405,375,354,340,327,306,301,293,284,275,225,189,154,121,91,31,20,7,0,0,0,0,0,0,0,0,2,10,16,27,30,35,38,41],"timestamp_mouse":[10,37,48,68,89,108,128,149,169,188,210,228,250,268,288,309,328,349,370,389,409,430,449,469,488,508,528,549,568,589,609,629,649,670,688,709,728,748,768,788,808,829,849,869,889,909,929,949,970,988,1009,1029,1048],"xSR":741.5,"ySR":573.95,"xT1":424.9,"yT1":0,"xT2":1058.1,"yT2":0,"toosoon":0,"cond_shown":"Congruent","ratio_trial":200,"L_num":3,"L_den":10,"R_num":11,"R_den":22,"correct_side":2,"subjID":"isabellarosero28","gender":"1","school":"6","age":"13 "},{"start_time":1551892611427,"click_time":1551892612356,"finger_time":1551892611715,"fix_duration":889.2154612560958,"trial":23,"RT":288,"MT":641,"sideResp":2,"stimulus":[],"xmouse":[808,808,808,808,808,808,808,808,808,808,808,808,808,812,838,838,926,957,975,987,988,992,994,997,998,999,1005,1014,1022,1027,1027,1027,1027,1027,1030,1032,1032,1032,1032,1037,1040,1042,1042,1042,1044,1053,1066],"ymouse":[604,604,604,604,604,604,604,604,604,604,604,604,604,581,494,494,204,129,83,46,37,23,18,14,11,8,1,0,0,0,0,0,0,0,0,0,0,0,0,4,6,7,7,7,8,10,11],"timestamp_mouse":[9,29,48,68,88,109,128,148,170,188,208,228,248,268,288,309,328,348,369,389,409,428,448,469,489,508,529,549,569,588,608,628,649,668,688,708,730,748,769,789,808,829,848,868,889,908,929],"xSR":741.5,"ySR":573.95,"xT1":424.9,"yT1":0,"xT2":1058.1,"yT2":0,"toosoon":0,"cond_shown":"Incongruent","ratio_trial":200,"L_num":3,"L_den":4,"R_num":11,"R_den":20,"correct_side":1,"subjID":"isabellarosero28","gender":"1","school":"6","age":"13 "},{"start_time":1551892615268,"click_time":1551892616155,"finger_time":1551892615615,"fix_duration":1492.3046760541943,"trial":24,"RT":347,"MT":540,"sideResp":1,"stimulus":[],"xmouse":[783,783,783,783,783,783,783,783,783,783,783,783,783,783,783,782,770,760,742,696,673,668,654,646,636,634,634,633,611,587,563,552,552,553,557,558,558,558,558,558,558,558,553,531,510],"ymouse":[647,647,647,647,647,647,647,647,647,647,647,647,647,647,647,631,590,512,411,176,80,63,33,24,14,13,13,12,12,12,12,12,12,14,19,19,19,19,19,19,19,19,24,33,42],"timestamp_mouse":[7,27,47,69,88,107,127,148,167,189,207,228,248,269,289,307,328,347,368,387,408,427,449,467,487,507,528,548,568,588,607,628,647,668,687,707,727,747,768,788,807,827,847,867,887],"xSR":741.5,"ySR":573.95,"xT1":424.9,"yT1":0,"xT2":1058.1,"yT2":0,"toosoon":0,"cond_shown":"Incongruent","ratio_trial":100,"L_num":10,"L_den":25,"R_num":9,"R_den":18,"correct_side":2,"subjID":"isabellarosero28","gender":"1","school":"6","age":"13 "},{"start_time":1551892618573,"click_time":1551892619216,"finger_time":1551892618816,"fix_duration":975.2930061330795,"trial":25,"RT":243,"MT":400,"sideResp":1,"stimulus":[],"xmouse":[781,781,781,781,781,781,781,781,781,781,781,764,714,678,490,424,392,389,389,391,391,392,395,408,426,438,448,459,464,471,474,475,476],"ymouse":[641,641,641,641,641,641,641,641,641,641,641,630,590,563,399,327,273,251,249,245,245,244,238,225,213,203,193,169,155,126,114,102,73],"timestamp_mouse":[3,23,42,63,82,102,123,142,162,184,203,222,243,262,282,302,322,343,362,382,402,422,442,463,483,504,522,542,564,583,602,622,643],"xSR":741.5,"ySR":573.95,"xT1":424.9,"yT1":0,"xT2":1058.1,"yT2":0,"toosoon":0,"cond_shown":"Congruent","ratio_trial":100,"L_num":3,"L_den":6,"R_num":2,"R_den":5,"correct_side":1,"subjID":"isabellarosero28","gender":"1","school":"6","age":"13 "},{"start_time":1551892620667,"click_time":1551892621355,"finger_time":1551892620975,"fix_duration":250,"trial":26,"RT":308,"MT":380,"sideResp":2,"stimulus":[],"xmouse":[753,753,753,753,757,758,758,758,758,758,759,762,767,772,786,797,811,814,814,811,811,820,824,843,878,897,919,941,962,1002,1016,1026,1036,1043,1064],"ymouse":[659,659,659,659,659,658,658,658,658,658,657,653,643,633,597,548,456,376,292,248,230,202,193,166,125,103,79,62,50,32,28,23,18,14,7],"timestamp_mouse":[8,28,49,69,89,108,128,149,168,190,209,228,249,270,288,308,328,348,368,388,409,428,448,468,488,508,528,548,568,588,608,629,649,669,688],"xSR":741.5,"ySR":573.95,"xT1":424.9,"yT1":0,"xT2":1058.1,"yT2":0,"toosoon":0,"cond_shown":"Congruent","ratio_trial":100,"L_num":10,"L_den":25,"R_num":3,"R_den":10,"correct_side":1,"subjID":"isabellarosero28","gender":"1","school":"6","age":"13 "},{"start_time":1551892625688,"click_time":1551892626556,"finger_time":1551892626157,"fix_duration":1050.136670416026,"trial":27,"RT":469,"MT":399,"sideResp":2,"stimulus":[],"xmouse":[786,786,786,786,786,786,786,786,786,786,786,786,786,786,786,786,786,786,786,786,786,786,789,891,951,984,1002,1003,991,991,994,1004,1011,1013,1013,1013,1013,1013,1013,1015,1019,1027,1050,1131],"ymouse":[629,629,629,629,629,629,629,629,629,629,629,629,629,629,629,629,629,629,629,629,629,629,621,419,305,217,144,89,11,0,0,0,0,0,0,0,0,0,0,2,3,3,4,4],"timestamp_mouse":[13,33,48,68,88,109,127,148,169,187,208,227,247,268,287,307,328,348,368,387,407,427,449,469,488,507,527,547,567,587,608,627,648,667,687,707,728,748,768,788,807,828,848,868],"xSR":741.5,"ySR":573.95,"xT1":424.9,"yT1":0,"xT2":1058.1,"yT2":0,"toosoon":0,"cond_shown":"Congruent","ratio_trial":100,"L_num":7,"L_den":14,"R_num":9,"R_den":15,"correct_side":2,"subjID":"isabellarosero28","gender":"1","school":"6","age":"13 "},{"start_time":1551892628648,"click_time":1551892629876,"finger_time":1551892628936,"fix_duration":409.51799797393005,"trial":28,"RT":288,"MT":940,"sideResp":2,"stimulus":[],"xmouse":[799,799,799,799,799,799,799,799,799,799,799,799,799,799,793,811,832,854,863,865,866,872,882,901,915,916,918,927,944,968,1018,1043,1059,1063,1063,1063,1063,1063,1063,1064,1078,1079,1079,1079,1079,1079,1079,1079,1079,1079,1079,1079,1079,1079,1079,1079,1079,1079,1079,1079,1079,1080],"ymouse":[629,629,629,629,629,629,629,629,629,629,629,629,625,610,525,356,247,176,143,134,124,109,92,57,35,33,31,27,19,10,0,0,0,0,0,0,0,0,0,0,0,0,0,0,0,0,0,0,0,0,0,0,0,0,0,0,0,0,0,0,0,7],"timestamp_mouse":[10,39,47,68,87,107,128,147,167,188,208,227,248,268,288,307,328,348,368,388,407,428,448,468,488,507,527,548,568,588,608,628,648,669,688,708,728,748,768,789,808,828,849,868,888,909,929,948,967,988,1007,1027,1047,1067,1088,1107,1128,1148,1168,1188,1208,1228],"xSR":741.5,"ySR":573.95,"xT1":424.9,"yT1":0,"xT2":1058.1,"yT2":0,"toosoon":0,"cond_shown":"Incongruent","ratio_trial":200,"L_num":7,"L_den":10,"R_num":8,"R_den":16,"correct_side":1,"subjID":"isabellarosero28","gender":"1","school":"6","age":"13 "},{"start_time":1551892631329,"click_time":1551892631816,"finger_time":1551892631396,"fix_duration":672.6287333917704,"trial":29,"RT":67,"MT":420,"sideResp":1,"stimulus":[],"xmouse":[780,774,757,730,688,645,559,528,502,481,475,470,470,470,470,478,488,492,493,494,494,494,494,494,494],"ymouse":[661,659,657,654,645,635,606,585,565,539,522,483,462,438,404,364,304,278,249,202,185,123,111,101,92],"timestamp_mouse":[14,36,46,67,88,106,126,146,166,186,207,226,246,266,287,306,327,347,367,387,406,426,447,466,487],"xSR":741.5,"ySR":573.95,"xT1":424.9,"yT1":0,"xT2":1058.1,"yT2":0,"toosoon":0,"cond_shown":"Incongruent","ratio_trial":300,"L_num":3,"L_den":6,"R_num":4,"R_den":20,"correct_side":1,"subjID":"isabellarosero28","gender":"1","school":"6","age":"13 "},{"start_time":1551892633739,"click_time":1551892634355,"finger_time":1551892634055,"fix_duration":782.8654106973682,"trial":30,"RT":316,"MT":300,"sideResp":1,"stimulus":[],"xmouse":[776,776,776,776,776,776,776,776,776,776,776,776,777,775,766,674,587,497,443,429,429,430,424,412,399,390,389,389,401,436,486],"ymouse":[624,624,624,624,624,624,624,624,624,624,624,624,620,613,588,480,419,368,336,323,314,302,283,263,243,216,200,180,154,107,58],"timestamp_mouse":[34,36,56,76,97,116,136,157,176,196,216,238,257,278,298,316,337,356,377,397,416,436,457,477,496,516,536,556,577,596,616],"xSR":741.5,"ySR":573.95,"xT1":424.9,"yT1":0,"xT2":1058.1,"yT2":0,"toosoon":0,"cond_shown":"Incongruent","ratio_trial":100,"L_num":3,"L_den":9,"R_num":7,"R_den":30,"correct_side":1,"subjID":"isabellarosero28","gender":"1","school":"6","age":"13 "},{"start_time":1551892635870,"click_time":1551892636874,"finger_time":1551892635975,"fix_duration":314.57354337881014,"trial":31,"RT":105,"MT":899,"sideResp":2,"stimulus":[],"xmouse":[756,755,755,750,747,741,732,721,711,703,703,703,703,703,703,703,710,714,716,719,719,719,723,726,727,727,730,731,734,761,788,831,894,909,917,920,921,923,926,942,951,963,968,970,975,981,991,1001,1016,1053,1067],"ymouse":[613,613,613,615,616,619,620,622,623,625,625,625,625,625,625,624,616,611,609,607,607,606,603,601,600,600,598,598,594,581,571,551,519,508,498,490,482,469,451,397,368,327,286,203,186,170,153,136,115,70,54],"timestamp_mouse":[11,38,44,64,86,105,125,144,164,184,204,226,246,265,284,304,325,345,365,384,404,425,444,466,484,505,525,545,564,584,605,625,646,665,685,704,724,745,765,785,804,825,845,866,884,905,925,944,964,985,1004],"xSR":741.5,"ySR":573.95,"xT1":424.9,"yT1":0,"xT2":1058.1,"yT2":0,"toosoon":0,"cond_shown":"Incongruent","ratio_trial":200,"L_num":4,"L_den":5,"R_num":6,"R_den":10,"correct_side":1,"subjID":"isabellarosero28","gender":"1","school":"6","age":"13 "},{"start_time":1551892638658,"click_time":1551892639254,"finger_time":1551892638735,"fix_duration":802.1976152871897,"trial":32,"RT":77,"MT":519,"sideResp":1,"stimulus":[],"xmouse":[743,743,742,741,737,734,729,722,708,676,653,629,603,584,537,530,528,527,528,528,528,527,527,527,541,543,543,543,532,502],"ymouse":[627,627,627,626,624,621,617,610,598,555,518,468,421,375,292,276,270,260,250,225,214,201,186,180,140,124,105,83,54,11],"timestamp_mouse":[16,36,57,77,96,116,138,157,176,197,218,236,257,278,297,316,337,357,376,397,417,436,457,476,496,516,536,556,576,596],"xSR":741.5,"ySR":573.95,"xT1":424.9,"yT1":0,"xT2":1058.1,"yT2":0,"toosoon":0,"cond_shown":"Incongruent","ratio_trial":300,"L_num":13,"L_den":26,"R_num":12,"R_den":15,"correct_side":2,"subjID":"isabellarosero28","gender":"1","school":"6","age":"13 "},{"start_time":1551892640607,"click_time":1551892641514,"finger_time":1551892640974,"fix_duration":250,"trial":33,"RT":367,"MT":540,"sideResp":2,"stimulus":[],"xmouse":[802,802,802,802,802,801,801,801,801,801,801,799,795,791,789,789,789,788,796,808,834,845,879,890,901,918,979,986,988,989,992,997,1014,1031,1047,1050,1050,1050,1050,1050,1050,1051,1051,1052,1058,1065],"ymouse":[597,597,597,597,597,598,598,598,598,598,598,598,599,600,600,600,600,594,564,510,406,368,241,190,159,134,74,66,62,57,50,44,29,18,10,8,8,8,8,8,8,8,8,8,8,10],"timestamp_mouse":[7,27,48,68,87,107,128,148,167,187,208,228,247,268,287,307,327,347,367,388,408,427,447,467,489,508,528,548,567,587,608,629,647,667,687,707,727,747,768,787,807,827,848,869,887,907],"xSR":741.5,"ySR":573.95,"xT1":424.9,"yT1":0,"xT2":1058.1,"yT2":0,"toosoon":0,"cond_shown":"Incongruent","ratio_trial":200,"L_num":7,"L_den":15,"R_num":6,"R_den":9,"correct_side":2,"subjID":"isabellarosero28","gender":"1","school":"6","age":"13 "},{"start_time":1551892647399,"click_time":1551892648334,"finger_time":1551892647635,"fix_duration":1183.1972912307706,"trial":34,"RT":236,"MT":699,"sideResp":1,"stimulus":[],"xmouse":[800,800,800,800,800,800,800,800,800,800,799,798,784,765,727,686,643,558,544,515,496,461,455,455,455,455,455,455,455,455,455,455,455,455,455,455,455,455,455,455,455,455,455,455,455,455,455],"ymouse":[586,586,586,586,586,586,586,586,586,585,581,570,515,452,361,277,199,38,17,0,0,0,0,0,0,0,0,0,0,0,0,0,0,0,0,0,0,0,0,0,0,0,0,0,0,0,14],"timestamp_mouse":[16,37,57,77,96,116,136,157,176,197,215,236,255,276,296,315,335,355,376,397,416,437,457,475,496,517,536,556,576,596,615,636,655,675,695,717,736,757,775,795,815,835,855,875,896,916,935],"xSR":741.5,"ySR":573.95,"xT1":424.9,"yT1":0,"xT2":1058.1,"yT2":0,"toosoon":0,"cond_shown":"Incongruent","ratio_trial":200,"L_num":4,"L_den":5,"R_num":6,"R_den":10,"correct_side":1,"subjID":"isabellarosero28","gender":"1","school":"6","age":"13 "},{"start_time":1551892649726,"click_time":1551892651854,"finger_time":1551892651634,"fix_duration":250,"trial":35,"RT":1908,"MT":220,"sideResp":2,"stimulus":[],"xmouse":[772,772,772,772,772,772,772,772,772,772,772,772,772,772,772,772,772,772,772,772,772,772,772,772,772,772,772,772,772,772,772,772,772,772,772,772,772,772,772,772,772,772,772,772,772,772,772,772,772,772,772,772,772,772,772,772,772,772,772,772,772,772,772,772,772,772,772,772,772,772,772,772,772,772,772,772,772,772,772,772,772,772,772,772,772,772,772,772,772,772,772,772,772,779,789,795,823,859,871,939,1002,1091,1108,1112,1112,1114,1118],"ymouse":[605,605,605,605,605,605,605,605,605,605,605,605,605,605,605,605,605,605,605,605,605,605,605,605,605,605,605,605,605,605,605,605,605,605,605,605,605,605,605,605,605,605,605,605,605,605,605,605,605,605,605,605,605,605,605,605,605,605,605,605,605,605,605,605,605,605,605,605,605,605,605,605,605,605,605,605,605,605,605,605,605,605,605,605,605,605,605,605,605,605,605,605,605,599,582,569,501,416,388,283,212,131,116,113,113,109,94],"timestamp_mouse":[9,28,49,69,88,108,130,148,168,188,208,229,249,268,289,310,329,348,368,389,408,429,449,469,489,510,528,548,569,589,608,629,648,668,688,709,729,748,769,788,808,829,848,869,889,909,929,948,970,988,1008,1029,1048,1068,1089,1110,1128,1149,1170,1189,1209,1229,1248,1269,1290,1309,1329,1349,1369,1389,1408,1430,1449,1468,1488,1509,1530,1548,1568,1590,1609,1628,1648,1668,1690,1709,1728,1750,1769,1788,1808,1829,1849,1868,1888,1908,1928,1948,1969,1988,2009,2029,2048,2070,2088,2108,2128],"xSR":741.5,"ySR":573.95,"xT1":424.9,"yT1":0,"xT2":1058.1,"yT2":0,"toosoon":0,"cond_shown":"Congruent","ratio_trial":100,"L_num":10,"L_den":25,"R_num":3,"R_den":10,"correct_side":1,"subjID":"isabellarosero28","gender":"1","school":"6","age":"13 "},{"start_time":1551892653406,"click_time":1551892654154,"finger_time":1551892653694,"fix_duration":250,"trial":36,"RT":288,"MT":460,"sideResp":1,"stimulus":[],"xmouse":[795,795,795,795,795,795,795,795,795,795,795,790,773,752,709,695,662,636,634,633,633,633,633,629,621,608,598,580,576,575,575,575,575,575,574,548,530,448],"ymouse":[646,646,646,646,646,646,646,646,646,646,646,642,626,597,491,448,324,233,216,208,207,207,205,197,183,166,154,137,134,134,134,134,134,134,133,115,103,47],"timestamp_mouse":[8,28,49,68,90,108,129,149,168,189,210,230,248,269,288,309,329,349,368,388,408,430,448,469,488,509,529,548,568,589,609,629,648,670,688,710,729,748],"xSR":741.5,"ySR":573.95,"xT1":424.9,"yT1":0,"xT2":1058.1,"yT2":0,"toosoon":0,"cond_shown":"Congruent","ratio_trial":200,"L_num":5,"L_den":10,"R_num":14,"R_den":20,"correct_side":2,"subjID":"isabellarosero28","gender":"1","school":"6","age":"13 "},{"start_time":1551892656659,"click_time":1551892657394,"finger_time":1551892656954,"fix_duration":1042.0447601774665,"trial":37,"RT":295,"MT":440,"sideResp":2,"stimulus":[],"xmouse":[830,830,830,830,830,830,825,821,820,819,819,819,819,819,824,830,835,835,851,956,1067,1166,1200,1208,1215,1224,1236,1246,1250,1250,1245,1239,1236,1227,1203,1176,1148],"ymouse":[607,607,607,607,607,607,607,607,607,607,607,607,607,598,563,511,447,374,302,182,135,110,95,89,69,54,41,28,22,13,8,4,2,0,0,8,16],"timestamp_mouse":[15,35,56,75,95,115,135,155,175,195,215,235,255,276,295,315,336,355,375,395,416,436,456,477,495,515,536,556,576,595,616,636,657,676,696,715,735],"xSR":741.5,"ySR":573.95,"xT1":424.9,"yT1":0,"xT2":1058.1,"yT2":0,"toosoon":0,"cond_shown":"Congruent","ratio_trial":300,"L_num":11,"L_den":22,"R_num":4,"R_den":20,"correct_side":1,"subjID":"isabellarosero28","gender":"1","school":"6","age":"13 "},{"start_time":1551892661318,"click_time":1551892662074,"finger_time":1551892661654,"fix_duration":462.81366047854635,"trial":38,"RT":336,"MT":420,"sideResp":1,"stimulus":[],"xmouse":[780,780,780,780,780,780,780,780,780,780,780,780,780,780,780,780,751,716,700,659,630,589,583,582,579,573,551,547,547,547,547,545,544,536,531,529,527,521],"ymouse":[617,617,617,617,617,617,617,617,617,617,617,617,617,617,616,608,524,402,348,220,150,80,70,67,60,48,16,10,10,10,10,8,7,7,9,11,13,22],"timestamp_mouse":[17,37,57,76,96,117,138,156,176,196,217,236,258,276,296,318,336,357,376,396,416,436,456,476,497,516,536,556,578,596,616,636,656,677,697,716,736,756],"xSR":741.5,"ySR":573.95,"xT1":424.9,"yT1":0,"xT2":1058.1,"yT2":0,"toosoon":0,"cond_shown":"Congruent","ratio_trial":300,"L_num":20,"L_den":25,"R_num":8,"R_den":16,"correct_side":1,"subjID":"isabellarosero28","gender":"1","school":"6","age":"13 "},{"start_time":1551892668861,"click_time":1551892669416,"finger_time":1551892669154,"fix_duration":525.7332469244582,"trial":39,"RT":293,"MT":262,"sideResp":1,"stimulus":[],"xmouse":[797,797,797,797,797,797,797,797,797,797,797,795,794,787,748,715,686,659,638,599,589,580,579,572,553,541,530,520],"ymouse":[604,604,604,604,604,604,604,604,604,604,604,604,602,599,571,533,483,426,382,304,279,239,227,192,147,124,106,87],"timestamp_mouse":[16,35,55,74,94,114,134,153,173,194,215,233,254,274,293,313,334,354,374,393,414,433,455,474,493,513,533,555],"xSR":741.5,"ySR":573.95,"xT1":424.9,"yT1":0,"xT2":1058.1,"yT2":0,"toosoon":0,"cond_shown":"Incongruent","ratio_trial":100,"L_num":8,"L_den":20,"R_num":1,"R_den":2,"correct_side":2,"subjID":"isabellarosero28","gender":"1","school":"6","age":"13 "},{"start_time":1551892675688,"click_time":1551892677235,"finger_time":1551892676295,"fix_duration":951.2740458022115,"trial":40,"RT":607,"MT":940,"sideResp":2,"stimulus":[],"xmouse":[753,753,753,753,753,753,753,753,753,753,753,753,753,753,753,753,753,753,753,753,753,753,753,753,753,753,753,753,753,754,754,756,756,741,721,696,675,646,639,637,639,651,680,738,763,802,852,975,1027,1056,1069,1070,1070,1070,1070,1070,1070,1070,1070,1070,1072,1076,1079,1079,1079,1079,1079,1079,1079,1079,1079,1079,1079,1079,1079,1079,1079,1079],"ymouse":[574,574,574,574,574,574,574,574,574,574,574,574,574,574,574,574,574,574,574,574,574,574,574,574,574,575,575,575,575,574,573,553,527,439,381,329,285,222,199,179,164,144,110,61,44,22,5,0,0,0,0,0,0,0,0,0,0,0,0,0,0,0,0,0,0,0,0,0,0,0,0,0,0,0,0,0,0,1],"timestamp_mouse":[7,27,47,66,86,106,127,147,166,187,207,227,247,266,286,306,326,347,366,386,406,427,447,467,486,507,527,547,566,586,607,627,647,666,686,707,727,747,766,787,806,827,847,866,886,908,927,947,966,986,1008,1028,1048,1067,1088,1107,1127,1146,1167,1187,1206,1226,1246,1268,1287,1307,1326,1346,1366,1386,1406,1427,1448,1467,1486,1506,1527,1547],"xSR":741.5,"ySR":573.95,"xT1":424.9,"yT1":0,"xT2":1058.1,"yT2":0,"toosoon":0,"cond_shown":"Incongruent","ratio_trial":300,"L_num":4,"L_den":20,"R_num":2,"R_den":4,"correct_side":2,"subjID":"isabellarosero28","gender":"1","school":"6","age":"13 "},{"start_time":1551892682165,"click_time":1551892684555,"finger_time":1551892684155,"fix_duration":250,"trial":41,"RT":1990,"MT":400,"sideResp":2,"stimulus":[],"xmouse":[795,795,795,795,795,795,795,795,795,795,795,795,795,795,795,795,795,795,795,795,795,795,795,795,795,795,795,795,795,795,795,795,795,795,795,795,795,795,795,795,795,795,795,795,795,795,795,795,795,795,795,795,795,795,795,795,795,795,795,795,795,795,795,795,795,795,795,795,795,795,795,795,795,795,795,795,795,795,795,795,795,795,795,795,795,795,795,795,795,792,790,790,790,790,790,790,790,790,790,790,790,790,790,790,790,790,790,790,790,790,790,790,792,796,818,841,882,928,982,1078],"ymouse":[599,599,599,599,599,599,599,599,599,599,599,599,599,599,599,599,599,599,599,599,599,599,599,599,599,599,599,599,599,599,599,599,599,599,599,599,599,599,599,599,599,599,599,599,599,599,599,599,599,599,599,599,599,599,599,599,599,599,599,599,599,599,599,599,599,599,599,599,599,599,599,599,599,599,599,599,599,599,599,599,599,599,599,599,599,599,599,599,599,593,591,591,591,591,591,591,586,582,578,569,566,565,565,565,565,565,565,565,565,565,565,554,545,533,487,447,377,307,228,31],"timestamp_mouse":[9,29,50,70,89,110,131,149,169,190,210,231,249,269,290,310,330,349,370,391,409,429,450,469,489,510,529,550,569,590,610,629,649,670,691,709,729,749,771,790,809,829,849,870,891,910,930,949,970,989,1009,1029,1049,1070,1090,1110,1129,1149,1171,1190,1209,1229,1250,1269,1291,1309,1329,1349,1370,1391,1411,1429,1449,1469,1490,1510,1529,1550,1569,1590,1610,1629,1649,1670,1691,1710,1730,1749,1770,1789,1809,1830,1850,1869,1889,1910,1930,1950,1970,1990,2010,2029,2049,2070,2090,2110,2129,2149,2169,2190,2210,2231,2249,2269,2290,2310,2330,2349,2370,2389],"xSR":741.5,"ySR":573.95,"xT1":424.9,"yT1":0,"xT2":1058.1,"yT2":0,"toosoon":0,"cond_shown":"Congruent","ratio_trial":100,"L_num":15,"L_den":25,"R_num":13,"R_den":26,"correct_side":1,"subjID":"isabellarosero28","gender":"1","school":"6","age":"13 "},{"start_time":1551892687071,"click_time":1551892689335,"finger_time":1551892688934,"fix_duration":434.0991457994602,"trial":42,"RT":1863,"MT":401,"sideResp":1,"stimulus":[],"xmouse":[806,805,805,804,804,804,804,804,804,804,804,804,804,804,804,804,804,804,804,804,804,804,804,804,804,804,804,804,804,804,804,804,804,804,804,804,804,804,804,804,804,804,804,804,804,804,804,804,804,804,804,804,804,804,804,804,804,804,804,804,804,804,804,804,804,804,804,804,804,804,804,804,804,804,804,804,804,804,804,804,804,804,804,804,804,804,804,804,804,804,804,802,786,731,650,606,582,573,570,560,552,541,533,522,520,520,520,520,520,520,519,519,519,514],"ymouse":[618,618,618,618,618,618,618,618,618,618,618,618,618,618,618,618,618,618,618,618,618,618,618,618,618,618,618,618,618,618,618,618,618,618,618,618,618,618,618,618,618,618,618,618,618,618,618,618,618,618,618,618,618,618,618,618,618,618,618,618,618,618,618,618,618,618,618,618,618,618,618,618,618,618,618,618,618,618,618,618,618,618,618,618,618,618,618,618,618,618,618,615,598,561,494,445,398,363,324,254,192,121,64,0,0,0,0,0,0,0,0,0,0,19],"timestamp_mouse":[11,33,44,64,84,103,123,143,163,183,204,223,243,263,285,303,323,345,363,383,403,424,443,463,484,504,523,545,563,583,603,623,643,665,683,703,724,743,764,785,804,824,844,864,883,904,923,945,963,984,1003,1024,1044,1065,1084,1103,1123,1143,1164,1185,1203,1224,1245,1265,1284,1303,1324,1343,1365,1383,1403,1423,1443,1464,1484,1504,1523,1544,1563,1584,1604,1624,1643,1664,1684,1705,1723,1743,1763,1785,1805,1824,1843,1863,1883,1903,1923,1943,1963,1984,2004,2025,2044,2065,2084,2104,2124,2144,2164,2184,2204,2223,2244,2264],"xSR":741.5,"ySR":573.95,"xT1":424.9,"yT1":0,"xT2":1058.1,"yT2":0,"toosoon":0,"cond_shown":"Congruent","ratio_trial":300,"L_num":2,"L_den":10,"R_num":12,"R_den":24,"correct_side":2,"subjID":"isabellarosero28","gender":"1","school":"6","age":"13 "},{"start_time":1551892691863,"click_time":1551892694296,"finger_time":1551892693635,"fix_duration":865.604790194006,"trial":43,"RT":1772,"MT":661,"sideResp":2,"stimulus":[],"xmouse":[781,781,781,781,781,781,781,781,781,781,781,781,781,781,781,781,781,781,781,781,781,781,781,781,781,781,781,781,781,781,781,781,781,781,781,781,781,781,781,781,781,781,781,781,781,781,781,781,781,781,781,781,781,781,781,781,781,781,781,781,781,781,781,781,781,781,781,781,781,781,780,780,780,780,780,780,780,780,780,780,780,780,781,781,782,784,788,797,810,859,896,923,939,948,948,948,949,952,952,957,963,970,982,1005,1011,1011,1011,1011,1012,1013,1013,1013,1016,1018,1022,1022,1022,1022,1025,1036,1050,1063],"ymouse":[598,598,598,598,598,599,599,599,599,599,599,599,599,599,599,599,599,599,599,599,599,599,599,599,599,599,599,599,599,599,599,599,599,599,599,599,599,599,599,599,599,599,599,599,599,599,599,599,599,599,599,599,599,599,599,599,599,599,599,599,600,600,600,600,600,600,600,600,600,600,601,601,601,601,601,601,601,601,601,601,601,600,599,599,596,594,590,579,564,509,448,376,296,220,110,97,89,80,80,48,30,12,0,0,0,0,0,0,0,0,0,0,3,5,7,7,7,8,10,14,19,25],"timestamp_mouse":[11,36,51,71,91,112,131,151,171,192,211,232,251,271,292,311,333,351,373,391,412,433,453,471,493,511,531,551,573,591,611,632,651,671,692,712,731,752,772,792,811,831,852,872,891,911,932,953,971,991,1012,1032,1051,1072,1091,1112,1132,1151,1172,1191,1211,1232,1251,1271,1293,1313,1331,1351,1371,1392,1412,1431,1451,1472,1491,1513,1531,1552,1571,1592,1612,1632,1651,1672,1691,1712,1732,1751,1772,1792,1813,1832,1851,1871,1891,1912,1931,1953,1972,1992,2012,2032,2051,2071,2091,2111,2131,2151,2173,2192,2212,2231,2251,2273,2292,2312,2331,2352,2373,2391,2412,2433],"xSR":741.5,"ySR":573.95,"xT1":424.9,"yT1":0,"xT2":1058.1,"yT2":0,"toosoon":0,"cond_shown":"Incongruent","ratio_trial":100,"L_num":13,"L_den":26,"R_num":12,"R_den":20,"correct_side":2,"subjID":"isabellarosero28","gender":"1","school":"6","age":"13 "},{"start_time":1551892698809,"click_time":1551892700775,"finger_time":1551892700395,"fix_duration":572.1678948257984,"trial":44,"RT":1586,"MT":380,"sideResp":1,"stimulus":[],"xmouse":[795,795,795,794,793,792,792,791,791,790,790,790,790,790,789,789,788,788,788,788,788,788,788,788,788,788,788,788,788,787,787,787,787,786,786,786,786,786,786,786,786,786,786,786,786,786,786,786,786,786,786,786,786,786,786,786,786,786,786,786,786,786,786,786,786,786,786,786,786,786,786,786,786,786,787,787,787,786,780,772,760,735,723,701,673,638,603,547,546,548,552,549,502,478,467,465,465,465,465],"ymouse":[635,635,635,634,632,632,631,630,630,629,629,629,629,629,628,628,627,627,627,627,627,627,627,627,627,627,627,627,627,625,625,625,625,625,625,625,625,625,625,625,625,625,625,625,625,625,625,625,625,625,625,625,625,625,625,625,625,625,625,625,625,625,625,625,625,625,625,625,625,625,625,625,621,615,611,605,599,588,577,565,547,499,470,423,371,310,236,89,50,5,0,0,0,0,0,0,0,0,4],"timestamp_mouse":[9,33,46,66,86,107,127,147,166,186,206,227,247,266,287,306,326,346,367,386,407,427,445,465,487,507,527,547,566,586,607,626,646,666,685,707,725,746,766,786,805,827,846,866,886,906,926,947,967,986,1006,1026,1046,1066,1086,1107,1125,1147,1166,1186,1207,1225,1247,1266,1286,1306,1325,1346,1366,1387,1405,1427,1446,1465,1487,1507,1526,1546,1566,1586,1606,1627,1646,1666,1685,1707,1727,1746,1767,1786,1805,1825,1846,1866,1886,1907,1926,1946,1966],"xSR":741.5,"ySR":573.95,"xT1":424.9,"yT1":0,"xT2":1058.1,"yT2":0,"toosoon":0,"cond_shown":"Incongruent","ratio_trial":300,"L_num":8,"L_den":10,"R_num":9,"R_den":18,"correct_side":1,"subjID":"isabellarosero28","gender":"1","school":"6","age":"13 "},{"start_time":1551892705805,"click_time":1551892707515,"finger_time":1551892707195,"fix_duration":848.5872896437066,"trial":45,"RT":1390,"MT":320,"sideResp":2,"stimulus":[],"xmouse":[770,770,770,770,770,770,770,770,770,770,770,770,770,770,770,770,770,770,770,771,771,771,771,771,771,771,771,771,772,773,773,776,777,777,777,777,777,778,780,783,785,786,786,786,786,786,786,786,786,786,786,786,786,786,786,786,786,786,786,786,786,786,786,786,786,786,786,802,819,845,869,889,927,946,960,974,1012,1023,1032,1041,1048,1069,1082,1097,1110,1124],"ymouse":[638,638,638,638,638,638,638,638,638,638,638,638,638,638,638,638,638,638,636,634,634,634,634,634,633,633,633,633,632,630,629,626,625,624,624,624,624,623,622,620,620,619,619,619,619,619,619,619,619,619,619,619,619,619,619,619,619,619,619,619,619,619,619,619,619,619,619,601,577,535,499,473,420,392,368,342,285,268,249,234,218,180,158,132,109,78],"timestamp_mouse":[10,32,50,71,90,110,130,151,169,190,211,231,250,270,290,310,330,351,371,390,411,431,450,471,491,510,530,550,569,590,611,631,649,671,690,711,729,749,770,790,810,829,850,869,891,910,929,951,971,991,1010,1030,1049,1071,1089,1111,1130,1150,1170,1190,1211,1230,1250,1271,1290,1311,1330,1351,1369,1390,1411,1430,1450,1471,1491,1510,1531,1550,1570,1590,1610,1631,1649,1670,1691,1710],"xSR":741.5,"ySR":573.95,"xT1":424.9,"yT1":0,"xT2":1058.1,"yT2":0,"toosoon":0,"cond_shown":"Incongruent","ratio_trial":200,"L_num":6,"L_den":20,"R_num":3,"R_den":6,"correct_side":2,"subjID":"isabellarosero28","gender":"1","school":"6","age":"13 "},{"start_time":1551892712673,"click_time":1551892713595,"finger_time":1551892713276,"fix_duration":935.3535110125972,"trial":46,"RT":603,"MT":319,"sideResp":2,"stimulus":[],"xmouse":[794,794,794,794,794,794,794,794,794,794,794,794,794,794,794,794,794,794,794,793,792,792,792,791,791,791,792,793,796,809,822,841,861,876,895,900,902,904,906,914,920,928,952,976,1030,1065,1105],"ymouse":[628,627,627,627,627,627,627,627,627,627,627,627,626,625,624,624,624,623,623,621,620,619,618,617,617,616,614,609,604,586,573,557,540,528,494,480,466,454,440,410,390,368,320,278,182,131,76],"timestamp_mouse":[11,39,41,62,82,103,121,143,162,181,201,223,243,263,282,302,323,343,362,382,402,422,442,461,483,502,522,543,563,582,603,622,643,662,681,703,723,743,762,782,802,822,843,862,883,901,922],"xSR":741.5,"ySR":573.95,"xT1":424.9,"yT1":0,"xT2":1058.1,"yT2":0,"toosoon":0,"cond_shown":"Incongruent","ratio_trial":300,"L_num":4,"L_den":20,"R_num":2,"R_den":4,"correct_side":2,"subjID":"isabellarosero28","gender":"1","school":"6","age":"13 "},{"start_time":1551892715588,"click_time":1551892716215,"finger_time":1551892715936,"fix_duration":531.5090842547032,"trial":47,"RT":348,"MT":279,"sideResp":1,"stimulus":[],"xmouse":[783,783,783,783,783,783,783,783,783,783,783,783,783,783,783,783,786,790,791,791,791,790,785,758,737,710,679,637,590,560,519,489],"ymouse":[602,602,602,602,602,602,602,602,602,602,602,602,602,602,600,597,585,562,523,507,492,481,462,406,376,344,306,261,194,159,123,94],"timestamp_mouse":[8,28,46,67,86,108,128,147,167,187,208,227,247,266,288,308,326,348,367,387,407,427,447,468,487,507,527,548,567,587,607,627],"xSR":741.5,"ySR":573.95,"xT1":424.9,"yT1":0,"xT2":1058.1,"yT2":0,"toosoon":0,"cond_shown":"Incongruent","ratio_trial":300,"L_num":4,"L_den":20,"R_num":2,"R_den":4,"correct_side":2,"subjID":"isabellarosero28","gender":"1","school":"6","age":"13 "},{"start_time":1551892720539,"click_time":1551892721215,"finger_time":1551892720795,"fix_duration":1141.0510211983901,"trial":48,"RT":256,"MT":420,"sideResp":2,"stimulus":[],"xmouse":[776,776,776,776,776,776,776,776,776,776,776,776,790,802,866,914,956,990,1029,1066,1102,1106,1107,1110,1111,1112,1112,1112,1110,1109,1109,1109,1109,1109],"ymouse":[576,576,576,576,576,576,576,576,576,576,576,576,564,555,504,462,414,364,312,260,186,172,161,152,146,127,117,111,106,104,104,104,104,98],"timestamp_mouse":[16,36,56,76,97,115,136,157,176,197,216,236,256,277,297,316,336,356,377,396,417,437,455,477,496,516,537,556,575,597,616,637,656,676],"xSR":741.5,"ySR":573.95,"xT1":424.9,"yT1":0,"xT2":1058.1,"yT2":0,"toosoon":0,"cond_shown":"Incongruent","ratio_trial":100,"L_num":2,"L_den":4,"R_num":8,"R_den":20,"correct_side":1,"subjID":"isabellarosero28","gender":"1","school":"6","age":"13 "},{"start_time":1551892723052,"click_time":1551892723936,"finger_time":1551892723516,"fix_duration":396.5795841576929,"trial":49,"RT":464,"MT":420,"sideResp":1,"stimulus":[],"xmouse":[784,784,784,784,784,784,784,784,784,784,784,784,784,784,785,785,785,784,784,784,783,781,779,775,760,740,711,673,641,624,612,611,610,607,593,566,557,555,554,554,554,552,544,536,518],"ymouse":[620,620,620,620,620,620,620,620,620,620,620,620,620,620,619,616,616,615,615,614,610,602,589,558,492,437,374,305,261,234,213,211,210,205,187,157,146,142,141,141,141,138,126,115,80],"timestamp_mouse":[10,35,43,64,83,103,123,143,163,183,202,222,244,264,283,303,323,344,364,383,403,424,444,464,484,503,523,544,564,583,603,623,644,664,683,703,723,743,764,783,803,823,844,863,884],"xSR":741.5,"ySR":573.95,"xT1":424.9,"yT1":0,"xT2":1058.1,"yT2":0,"toosoon":0,"cond_shown":"Incongruent","ratio_trial":100,"L_num":4,"L_den":8,"R_num":8,"R_den":20,"correct_side":1,"subjID":"isabellarosero28","gender":"1","school":"6","age":"13 "},{"start_time":1551892726559,"click_time":1551892728895,"finger_time":1551892728415,"fix_duration":262.11691175579654,"trial":50,"RT":1856,"MT":480,"sideResp":1,"stimulus":[],"xmouse":[784,784,784,784,784,784,784,784,784,784,784,784,784,784,784,784,784,784,784,784,784,784,784,784,784,784,784,784,784,784,784,784,784,784,784,784,784,784,784,784,784,784,784,784,784,784,784,784,784,784,784,784,784,784,784,784,784,784,784,784,784,784,784,784,784,784,784,784,784,784,784,784,784,784,784,784,784,784,784,784,784,784,784,784,784,784,784,784,784,784,784,782,730,599,393,275,175,110,49,32,13,0,0,0,9,20,31,50,139,316,344,349,350,357,372,394,425],"ymouse":[576,576,576,576,576,576,576,576,576,576,576,576,576,576,576,576,576,576,576,576,576,576,576,576,576,576,576,576,576,576,576,576,576,576,576,576,576,576,576,576,576,576,576,576,576,576,576,576,576,576,576,576,576,576,576,576,576,576,576,576,576,576,576,576,576,576,576,576,576,576,576,576,576,576,576,576,576,576,576,576,576,576,576,576,576,576,576,576,576,576,576,574,522,368,71,0,0,0,0,0,0,0,0,0,0,0,3,17,65,142,151,151,151,141,125,112,93],"timestamp_mouse":[15,42,56,76,96,115,135,155,176,197,215,235,255,276,295,317,336,356,376,397,416,436,456,476,496,516,536,556,576,596,616,635,656,677,697,715,736,757,775,795,816,836,856,875,896,917,935,957,977,997,1016,1037,1055,1076,1097,1115,1136,1155,1176,1196,1217,1236,1257,1277,1295,1315,1337,1356,1377,1396,1416,1436,1456,1477,1497,1516,1535,1557,1575,1595,1617,1636,1657,1677,1695,1717,1736,1756,1775,1797,1816,1837,1856,1875,1896,1916,1936,1955,1977,1995,2016,2037,2056,2076,2095,2116,2135,2156,2175,2195,2216,2236,2257,2277,2295,2316,2336],"xSR":741.5,"ySR":573.95,"xT1":424.9,"yT1":0,"xT2":1058.1,"yT2":0,"toosoon":0,"cond_shown":"Congruent","ratio_trial":300,"L_num":24,"L_den":30,"R_num":8,"R_den":16,"correct_side":1,"subjID":"isabellarosero28","gender":"1","school":"6","age":"13 "},{"start_time":1551892731424,"click_time":1551892732075,"finger_time":1551892731894,"fix_duration":1208.8181468103214,"trial":51,"RT":470,"MT":181,"sideResp":2,"stimulus":[],"xmouse":[769,769,769,769,769,769,769,770,770,770,770,770,770,770,770,770,770,770,770,770,771,772,772,769,766,751,749,756,801,837,973,1100,1155],"ymouse":[630,630,630,630,630,630,628,628,628,628,628,628,628,628,628,628,628,628,628,628,619,604,591,566,555,496,453,427,371,343,245,144,82],"timestamp_mouse":[12,31,52,70,90,110,130,151,172,192,210,232,251,272,292,311,330,351,371,390,412,430,450,470,491,511,532,551,570,591,611,630,651],"xSR":741.5,"ySR":573.95,"xT1":424.9,"yT1":0,"xT2":1058.1,"yT2":0,"toosoon":0,"cond_shown":"Incongruent","ratio_trial":200,"L_num":11,"L_den":20,"R_num":3,"R_den":4,"correct_side":2,"subjID":"isabellarosero28","gender":"1","school":"6","age":"13 "},{"start_time":1551892737336,"click_time":1551892738035,"finger_time":1551892737654,"fix_duration":380.28488156552976,"trial":52,"RT":318,"MT":381,"sideResp":2,"stimulus":[],"xmouse":[824,824,824,824,824,824,824,824,824,824,826,829,830,832,834,851,918,963,1044,1055,1064,1073,1087,1100,1104,1104,1104,1103,1102,1098,1098,1095,1091,1086,1083],"ymouse":[638,638,638,638,638,638,638,638,638,638,634,628,625,621,616,591,511,466,373,351,327,315,296,277,250,245,238,230,218,176,153,131,112,101,94],"timestamp_mouse":[21,39,58,79,100,119,138,160,179,198,218,238,259,280,299,318,339,359,379,399,419,439,460,479,500,518,538,559,579,599,619,639,659,679,699],"xSR":741.5,"ySR":573.95,"xT1":424.9,"yT1":0,"xT2":1058.1,"yT2":0,"toosoon":0,"cond_shown":"Congruent","ratio_trial":100,"L_num":3,"L_den":6,"R_num":2,"R_den":5,"correct_side":1,"subjID":"isabellarosero28","gender":"1","school":"6","age":"13 "},{"start_time":1551892754365,"click_time":1551892755295,"finger_time":1551892754695,"fix_duration":629.8413093935225,"trial":53,"RT":330,"MT":600,"sideResp":2,"stimulus":[],"xmouse":[806,806,806,806,806,806,806,806,806,806,806,806,806,806,806,806,811,823,875,924,969,997,1016,1027,1029,1035,1037,1040,1054,1073,1078,1083,1084,1084,1084,1084,1084,1084,1084,1084,1085,1085,1085,1085,1085,1085,1086],"ymouse":[618,617,616,615,615,615,615,615,615,615,615,615,615,611,601,582,549,505,395,319,254,201,160,116,94,71,56,40,0,0,0,0,0,0,0,0,0,0,0,0,0,0,0,0,0,0,1],"timestamp_mouse":[13,30,50,69,90,110,129,150,170,191,209,230,250,269,290,311,330,350,370,390,410,430,450,470,490,510,530,551,571,590,610,630,651,669,691,709,729,750,769,789,810,829,850,869,890,910,930],"xSR":741.5,"ySR":573.95,"xT1":424.9,"yT1":0,"xT2":1058.1,"yT2":0,"toosoon":0,"cond_shown":"Congruent","ratio_trial":300,"L_num":1,"L_den":30,"R_num":8,"R_den":24,"correct_side":2,"subjID":"isabellarosero28","gender":"1","school":"6","age":"13 "},{"start_time":1551892759113,"click_time":1551892759993,"finger_time":1551892759494,"fix_duration":436.6874995723489,"trial":54,"RT":381,"MT":499,"sideResp":2,"stimulus":[],"xmouse":[788,788,788,788,788,788,788,788,788,788,788,788,788,788,788,788,788,788,799,820,876,965,996,1023,1046,1063,1095,1108,1111,1111,1111,1111,1111,1111,1111,1111,1110,1109,1108,1106,1104,1101,1093,1091,1088],"ymouse":[616,616,616,616,616,616,616,616,616,616,616,616,616,616,616,616,616,616,598,567,495,390,342,294,257,225,175,152,146,143,142,141,141,139,137,134,133,128,126,124,120,117,107,103,98],"timestamp_mouse":[11,21,42,62,81,101,121,142,161,181,201,221,240,261,281,301,320,341,362,381,402,422,441,461,481,501,521,541,561,580,600,621,641,661,682,701,721,741,761,781,801,820,841,861,880],"xSR":741.5,"ySR":573.95,"xT1":424.9,"yT1":0,"xT2":1058.1,"yT2":0,"toosoon":0,"cond_shown":"Congruent","ratio_trial":300,"L_num":4,"L_den":5,"R_num":2,"R_den":4,"correct_side":1,"subjID":"isabellarosero28","gender":"1","school":"6","age":"13 "},{"start_time":1551892763444,"click_time":1551892764054,"finger_time":1551892763814,"fix_duration":748.1040178699039,"trial":55,"RT":370,"MT":240,"sideResp":1,"stimulus":[],"xmouse":[782,782,782,782,782,782,782,782,782,782,782,782,782,782,782,782,782,782,782,763,683,642,618,602,592,580,573,564,555,534,523],"ymouse":[591,591,591,591,591,591,591,591,591,591,591,591,591,591,591,591,591,578,551,475,304,254,227,214,205,182,166,150,133,105,90],"timestamp_mouse":[11,42,50,69,91,110,131,150,170,190,211,229,250,269,290,310,330,350,370,389,410,431,451,470,489,510,530,549,571,591,610],"xSR":741.5,"ySR":573.95,"xT1":424.9,"yT1":0,"xT2":1058.1,"yT2":0,"toosoon":0,"cond_shown":"Congruent","ratio_trial":200,"L_num":13,"L_den":26,"R_num":14,"R_den":20,"correct_side":2,"subjID":"isabellarosero28","gender":"1","school":"6","age":"13 "},{"start_time":1551892765307,"click_time":1551892766214,"finger_time":1551892765754,"fix_duration":250,"trial":56,"RT":447,"MT":460,"sideResp":2,"stimulus":[],"xmouse":[788,788,788,788,788,788,788,788,788,788,788,788,788,788,788,788,788,788,788,788,799,809,897,929,943,957,957,962,965,969,969,970,970,970,971,974,977,980,985,992,1028,1038,1073,1081,1088,1099],"ymouse":[605,605,605,605,605,605,605,605,605,605,605,605,605,605,605,605,605,605,605,605,593,584,509,463,426,367,367,317,293,272,234,224,195,183,170,157,150,147,143,139,126,123,110,106,100,91],"timestamp_mouse":[6,26,47,67,86,106,128,147,168,186,206,227,247,266,288,307,328,347,366,387,407,427,447,467,486,506,526,547,566,587,606,626,648,666,686,706,727,746,767,786,807,827,846,866,887,907],"xSR":741.5,"ySR":573.95,"xT1":424.9,"yT1":0,"xT2":1058.1,"yT2":0,"toosoon":0,"cond_shown":"Congruent","ratio_trial":300,"L_num":20,"L_den":25,"R_num":14,"R_den":28,"correct_side":1,"subjID":"isabellarosero28","gender":"1","school":"6","age":"13 "},{"start_time":1551892768348,"click_time":1551892770054,"finger_time":1551892769753,"fix_duration":1152.3323594297417,"trial":57,"RT":1405,"MT":301,"sideResp":1,"stimulus":[],"xmouse":[794,794,794,794,794,794,794,794,794,794,794,794,794,794,794,794,794,794,794,794,794,794,794,794,794,794,794,794,794,794,794,794,794,794,794,794,794,794,794,794,794,794,794,794,794,794,794,794,794,794,794,794,794,794,794,794,794,794,794,794,794,794,794,794,794,794,794,793,790,780,742,702,689,651,621,603,576,571,555,549,528,520,515,514,514,512],"ymouse":[615,615,615,615,615,615,615,615,615,615,615,615,615,615,615,615,615,615,615,615,615,615,615,615,615,615,615,615,615,615,615,615,615,615,615,615,615,615,615,615,615,615,615,615,615,615,615,615,615,615,615,615,615,615,615,615,615,615,615,615,615,615,615,615,615,615,615,614,609,586,514,421,381,271,183,137,71,59,23,7,0,0,0,0,0,2],"timestamp_mouse":[6,25,45,66,87,105,127,145,167,186,206,226,246,267,286,305,325,346,366,387,405,427,447,465,486,505,526,546,566,586,605,626,645,665,687,705,725,746,766,786,806,826,845,865,887,905,925,947,966,985,1005,1025,1046,1065,1085,1105,1126,1147,1165,1185,1205,1227,1247,1265,1286,1306,1325,1345,1366,1386,1405,1425,1446,1466,1486,1506,1526,1545,1566,1585,1605,1625,1646,1665,1685,1706],"xSR":741.5,"ySR":573.95,"xT1":424.9,"yT1":0,"xT2":1058.1,"yT2":0,"toosoon":0,"cond_shown":"Congruent","ratio_trial":100,"L_num":2,"L_den":5,"R_num":6,"R_den":12,"correct_side":2,"subjID":"isabellarosero28","gender":"1","school":"6","age":"13 "},{"start_time":1551892771928,"click_time":1551892773073,"finger_time":1551892773013,"fix_duration":474.1045041200723,"trial":58,"RT":1085,"MT":60,"sideResp":2,"stimulus":[],"xmouse":[774,774,774,774,774,774,774,774,774,774,774,774,774,774,774,774,774,774,774,774,774,774,774,774,774,774,774,774,774,774,774,774,774,774,774,774,774,774,774,774,774,774,774,774,774,774,774,774,774,774,774,774,775,789,852,885,1035,1142],"ymouse":[620,620,620,620,620,620,620,620,620,620,620,620,620,620,620,620,620,620,620,620,620,620,620,620,620,620,620,620,620,620,620,620,620,620,620,620,620,620,620,620,620,620,620,620,620,620,620,620,620,620,620,620,617,598,493,442,185,73],"timestamp_mouse":[6,26,47,65,86,106,125,145,167,186,206,226,245,265,286,306,325,345,366,386,406,425,446,466,485,505,525,545,566,586,606,625,647,666,687,707,725,747,766,785,805,826,845,865,887,906,926,946,966,987,1005,1025,1045,1066,1085,1105,1125,1145],"xSR":741.5,"ySR":573.95,"xT1":424.9,"yT1":0,"xT2":1058.1,"yT2":0,"toosoon":0,"cond_shown":"Congruent","ratio_trial":300,"L_num":1,"L_den":5,"R_num":6,"R_den":12,"correct_side":2,"subjID":"isabellarosero28","gender":"1","school":"6","age":"13 "},{"start_time":1551892775238,"click_time":1551892775813,"finger_time":1551892775533,"fix_duration":642.6474409621675,"trial":59,"RT":295,"MT":280,"sideResp":2,"stimulus":[],"xmouse":[827,827,827,827,827,827,827,827,827,827,827,827,830,839,896,1151,1264,1315,1324,1324,1324,1324,1324,1315,1309,1268,1224,1179,1132],"ymouse":[616,616,616,616,616,616,616,616,616,616,616,616,612,602,542,326,235,191,180,179,178,178,177,166,161,134,115,95,78],"timestamp_mouse":[19,35,56,76,95,115,135,157,177,197,216,237,255,275,295,315,335,356,376,397,415,435,455,476,495,516,536,555,575],"xSR":741.5,"ySR":573.95,"xT1":424.9,"yT1":0,"xT2":1058.1,"yT2":0,"toosoon":0,"cond_shown":"Congruent","ratio_trial":200,"L_num":14,"L_den":28,"R_num":6,"R_den":20,"correct_side":1,"subjID":"isabellarosero28","gender":"1","school":"6","age":"13 "},{"start_time":1551892777120,"click_time":1551892777693,"finger_time":1551892777514,"fix_duration":265.4848806871304,"trial":60,"RT":394,"MT":179,"sideResp":1,"stimulus":[],"xmouse":[782,782,782,782,782,782,782,782,782,782,782,782,782,782,782,782,782,779,773,747,667,614,594,583,579,572,562,547,516],"ymouse":[605,605,605,605,605,605,605,605,605,605,605,605,605,605,605,605,605,602,586,522,321,213,181,161,154,139,123,102,68],"timestamp_mouse":[13,34,54,75,93,114,133,153,174,195,213,233,254,274,293,313,333,354,373,394,414,433,453,473,494,514,533,554,573],"xSR":741.5,"ySR":573.95,"xT1":424.9,"yT1":0,"xT2":1058.1,"yT2":0,"toosoon":0,"cond_shown":"Congruent","ratio_trial":100,"L_num":2,"L_den":5,"R_num":6,"R_den":12,"correct_side":2,"subjID":"isabellarosero28","gender":"1","school":"6","age":"13 "},{"start_time":1551892779089,"click_time":1551892780674,"finger_time":1551892780434,"fix_duration":333.67850822111234,"trial":61,"RT":1345,"MT":240,"sideResp":2,"stimulus":[],"xmouse":[806,806,806,806,806,806,806,806,806,806,806,806,806,806,806,806,806,806,806,806,806,806,806,806,806,806,806,806,806,806,806,806,806,806,806,806,806,806,806,806,806,806,806,806,806,806,806,806,806,806,806,806,806,806,806,806,806,806,806,806,806,806,806,806,806,806,806,819,866,926,976,1006,1019,1025,1030,1038,1052,1074,1078,1078],"ymouse":[598,598,598,598,598,598,598,598,598,598,598,598,598,598,598,598,598,598,598,598,598,598,598,598,598,598,598,598,598,598,598,598,598,598,598,598,598,598,598,598,598,598,598,598,598,598,598,598,598,598,598,598,598,598,598,598,598,598,598,598,598,598,598,598,598,598,598,566,471,362,281,235,198,177,165,154,142,118,109,99],"timestamp_mouse":[7,25,45,64,84,105,126,146,165,184,204,225,245,265,285,304,324,346,365,386,404,424,446,465,484,505,526,546,564,584,606,626,644,666,684,705,725,744,766,784,804,825,844,865,885,905,924,945,964,986,1005,1025,1045,1066,1085,1106,1124,1144,1165,1184,1205,1225,1244,1264,1285,1304,1324,1345,1365,1385,1405,1424,1445,1464,1484,1505,1525,1545,1565,1585],"xSR":741.5,"ySR":573.95,"xT1":424.9,"yT1":0,"xT2":1058.1,"yT2":0,"toosoon":0,"cond_shown":"Congruent","ratio_trial":200,"L_num":3,"L_den":10,"R_num":11,"R_den":22,"correct_side":2,"subjID":"isabellarosero28","gender":"1","school":"6","age":"13 "},{"start_time":1551892782958,"click_time":1551892784034,"finger_time":1551892783493,"fix_duration":1063.131027484288,"trial":62,"RT":535,"MT":541,"sideResp":1,"stimulus":[],"xmouse":[777,777,777,777,777,777,777,777,777,777,777,777,777,777,777,777,777,777,776,774,773,773,773,773,771,766,754,713,672,579,566,563,563,563,572,575,578,581,588,591,593,594,594,594,594,590,583,576,566,559,554,548,534,506],"ymouse":[607,607,607,607,607,607,607,607,607,607,607,607,607,607,607,607,607,607,604,595,593,592,591,591,586,575,551,482,429,340,323,315,307,295,271,260,252,246,233,225,218,214,209,193,177,157,133,115,87,72,65,57,49,41],"timestamp_mouse":[15,36,56,77,96,115,136,156,175,197,215,236,255,275,295,315,336,356,375,396,415,435,457,475,495,515,535,556,576,597,617,635,655,675,695,716,735,756,775,797,816,836,856,876,896,915,935,956,976,996,1015,1035,1055,1075],"xSR":741.5,"ySR":573.95,"xT1":424.9,"yT1":0,"xT2":1058.1,"yT2":0,"toosoon":0,"cond_shown":"Incongruent","ratio_trial":300,"L_num":13,"L_den":26,"R_num":12,"R_den":15,"correct_side":2,"subjID":"isabellarosero28","gender":"1","school":"6","age":"13 "},{"start_time":1551892786835,"click_time":1551892788074,"finger_time":1551892787893,"fix_duration":1358.6301354447648,"trial":63,"RT":1058,"MT":181,"sideResp":2,"stimulus":[],"xmouse":[768,768,768,768,768,768,768,768,768,768,769,769,769,769,769,769,769,769,769,769,769,769,769,769,769,769,769,769,769,769,769,769,769,769,769,769,769,769,769,769,769,769,769,769,769,769,769,769,769,771,780,801,879,916,1021,1089,1102,1115,1117,1128,1134,1140],"ymouse":[607,607,607,607,607,607,607,607,608,609,610,610,610,610,610,610,610,610,610,610,610,610,610,610,610,610,610,610,610,610,610,610,610,610,610,610,610,610,610,610,610,610,610,610,610,610,610,610,610,610,603,583,497,460,364,279,249,200,187,137,116,95],"timestamp_mouse":[21,39,59,78,98,119,138,158,178,198,219,239,258,279,299,319,338,359,379,400,418,439,459,479,498,519,539,559,578,599,619,639,659,680,698,719,739,758,778,798,820,839,859,879,900,918,939,959,979,998,1018,1038,1058,1078,1099,1118,1139,1160,1178,1199,1218,1239],"xSR":741.5,"ySR":573.95,"xT1":424.9,"yT1":0,"xT2":1058.1,"yT2":0,"toosoon":0,"cond_shown":"Congruent","ratio_trial":200,"L_num":9,"L_den":30,"R_num":13,"R_den":26,"correct_side":2,"subjID":"isabellarosero28","gender":"1","school":"6","age":"13 "},{"start_time":1551892789858,"click_time":1551892790613,"finger_time":1551892790333,"fix_duration":604.7948973219792,"trial":64,"RT":475,"MT":280,"sideResp":2,"stimulus":[],"xmouse":[780,780,780,780,780,780,780,780,780,780,780,780,780,780,780,780,780,780,780,786,790,793,794,798,811,831,871,928,1031,1045,1051,1054,1055,1055,1060,1072,1098,1123],"ymouse":[637,637,637,637,637,637,637,637,637,637,637,637,637,637,637,637,637,637,634,624,615,604,593,562,531,502,466,428,366,353,342,330,318,264,226,183,130,86],"timestamp_mouse":[15,36,55,75,95,116,136,155,175,195,217,235,255,275,296,316,337,356,376,395,415,436,455,475,496,516,535,555,575,595,615,636,656,675,696,715,735,755],"xSR":741.5,"ySR":573.95,"xT1":424.9,"yT1":0,"xT2":1058.1,"yT2":0,"toosoon":0,"cond_shown":"Incongruent","ratio_trial":100,"L_num":2,"L_den":4,"R_num":8,"R_den":20,"correct_side":1,"subjID":"isabellarosero28","gender":"1","school":"6","age":"13 "},{"start_time":1551892795952,"click_time":1551892796614,"finger_time":1551892796294,"fix_duration":597.8323642176637,"trial":65,"RT":342,"MT":320,"sideResp":2,"stimulus":[],"xmouse":[789,789,789,789,789,789,789,789,789,789,789,789,789,789,789,799,826,871,922,998,1025,1065,1115,1178,1222,1255,1264,1270,1271,1271,1256,1227,1177,1129],"ymouse":[613,613,613,613,613,613,613,613,613,613,613,613,613,613,612,598,575,540,496,402,354,297,228,156,113,76,61,50,48,48,44,42,40,35],"timestamp_mouse":[11,35,42,63,82,102,121,142,163,182,201,222,242,263,281,302,322,342,361,383,401,422,443,462,481,501,522,543,562,582,601,621,641,661],"xSR":741.5,"ySR":573.95,"xT1":424.9,"yT1":0,"xT2":1058.1,"yT2":0,"toosoon":0,"cond_shown":"Congruent","ratio_trial":100,"L_num":2,"L_den":5,"R_num":6,"R_den":12,"correct_side":2,"subjID":"isabellarosero28","gender":"1","school":"6","age":"13 "},{"start_time":1551892803480,"click_time":1551892804895,"finger_time":1551892804395,"fix_duration":943.601600986089,"trial":66,"RT":915,"MT":500,"sideResp":2,"stimulus":[],"xmouse":[793,793,793,793,793,793,793,793,793,793,793,793,793,793,793,793,793,793,793,793,793,793,793,793,793,793,793,793,793,793,793,793,793,793,793,793,793,793,793,793,793,793,793,793,781,760,733,714,697,696,696,696,707,718,734,757,783,828,968,1031,1065,1082,1094,1100,1104,1108,1113,1120,1137,1141,1143],"ymouse":[647,647,647,647,647,647,647,647,647,647,647,647,647,647,647,647,647,647,647,647,647,647,647,647,647,647,647,647,647,647,647,647,647,647,647,647,647,647,647,647,647,647,647,621,576,523,473,438,406,399,391,385,364,350,338,325,315,300,272,264,258,250,238,227,218,207,191,171,118,103,94],"timestamp_mouse":[14,34,55,74,94,114,133,153,175,194,214,235,254,273,294,315,334,353,374,395,413,434,453,474,494,514,535,555,573,593,614,633,655,673,695,715,733,755,774,794,814,835,853,874,894,915,934,954,974,994,1014,1033,1054,1073,1094,1115,1134,1153,1173,1193,1214,1233,1253,1273,1293,1314,1334,1354,1373,1394,1415],"xSR":741.5,"ySR":573.95,"xT1":424.9,"yT1":0,"xT2":1058.1,"yT2":0,"toosoon":0,"cond_shown":"Incongruent","ratio_trial":200,"L_num":1,"L_den":2,"R_num":3,"R_den":10,"correct_side":1,"subjID":"isabellarosero28","gender":"1","school":"6","age":"13 "},{"start_time":1551892807646,"click_time":1551892808535,"finger_time":1551892808095,"fix_duration":250,"trial":67,"RT":449,"MT":440,"sideResp":1,"stimulus":[],"xmouse":[805,805,805,805,805,805,805,805,805,805,805,805,805,805,805,805,805,805,805,805,805,801,778,741,654,639,634,632,630,624,619,615,612,609,608,596,586,579,571,564,560,554,543,531,518],"ymouse":[629,629,629,629,629,629,629,629,629,629,629,629,629,629,629,629,629,629,629,629,629,599,528,442,273,246,232,219,204,175,161,148,136,127,121,89,74,65,56,49,46,44,40,35,32],"timestamp_mouse":[11,27,51,68,88,107,128,148,168,187,208,228,248,267,288,307,328,348,368,389,408,427,449,469,488,508,528,548,568,588,608,629,648,667,688,709,728,748,768,789,808,828,847,869,888],"xSR":741.5,"ySR":573.95,"xT1":424.9,"yT1":0,"xT2":1058.1,"yT2":0,"toosoon":0,"cond_shown":"Congruent","ratio_trial":100,"L_num":7,"L_den":14,"R_num":15,"R_den":25,"correct_side":2,"subjID":"isabellarosero28","gender":"1","school":"6","age":"13 "},{"start_time":1551892810190,"click_time":1551892811814,"finger_time":1551892811474,"fix_duration":676.3886531450248,"trial":68,"RT":1284,"MT":340,"sideResp":2,"stimulus":[],"xmouse":[779,779,779,779,779,779,779,779,779,779,779,779,779,779,779,779,779,779,779,779,779,779,779,779,779,779,779,779,779,779,779,779,779,779,779,779,779,779,779,779,779,779,779,779,779,779,779,779,779,779,779,779,779,779,779,779,779,779,779,779,779,788,798,807,820,834,854,927,958,979,1002,1019,1041,1047,1054,1063,1073,1106,1120,1132,1146,1156],"ymouse":[596,596,596,596,596,596,596,596,596,596,596,596,596,596,596,596,596,596,596,596,596,596,596,596,596,596,596,596,596,596,596,596,596,596,596,596,596,596,596,596,596,596,596,596,596,596,596,596,596,596,596,596,596,596,596,596,596,596,596,596,596,590,581,574,565,555,543,501,478,456,423,392,337,314,292,269,244,182,158,135,110,86],"timestamp_mouse":[11,23,43,64,84,104,125,143,163,183,205,224,245,263,283,304,324,343,365,383,404,424,445,463,483,504,524,543,564,583,605,624,643,664,684,705,724,744,765,785,805,824,845,864,884,905,924,943,965,984,1003,1024,1044,1064,1083,1105,1125,1144,1164,1184,1205,1224,1244,1263,1284,1304,1325,1344,1363,1384,1404,1423,1444,1463,1484,1504,1524,1544,1564,1583,1604,1624],"xSR":741.5,"ySR":573.95,"xT1":424.9,"yT1":0,"xT2":1058.1,"yT2":0,"toosoon":0,"cond_shown":"Incongruent","ratio_trial":100,"L_num":9,"L_den":15,"R_num":13,"R_den":26,"correct_side":1,"subjID":"isabellarosero28","gender":"1","school":"6","age":"13 "},{"start_time":1551892813923,"click_time":1551892815354,"finger_time":1551892814353,"fix_duration":1226.676377627939,"trial":69,"RT":430,"MT":1001,"sideResp":2,"stimulus":[],"xmouse":[801,801,801,801,801,801,801,801,801,801,801,801,801,801,801,801,801,801,801,797,785,743,713,689,673,667,667,667,667,667,666,662,660,657,649,634,601,586,571,557,548,543,543,543,543,543,543,543,543,543,551,580,658,768,896,987,1059,1064,1064,1064,1064,1064,1064,1064,1064,1064,1064,1064,1064,1067,1082,1101],"ymouse":[627,627,627,627,627,627,627,627,627,627,627,627,627,627,627,627,627,627,627,620,596,464,366,282,228,198,197,194,189,182,176,168,164,161,153,143,119,109,101,92,88,86,86,86,86,86,86,86,86,86,89,93,102,113,120,138,159,160,160,160,160,160,160,160,160,158,155,152,148,137,109,75],"timestamp_mouse":[14,38,50,70,90,112,131,150,170,192,210,232,251,270,291,311,330,350,370,390,410,430,451,470,491,512,530,551,571,592,611,630,650,671,691,710,730,752,772,791,810,830,852,871,891,911,930,950,971,990,1012,1030,1051,1072,1091,1111,1131,1151,1170,1190,1211,1231,1250,1270,1291,1311,1331,1351,1370,1391,1410,1431],"xSR":741.5,"ySR":573.95,"xT1":424.9,"yT1":0,"xT2":1058.1,"yT2":0,"toosoon":0,"cond_shown":"Incongruent","ratio_trial":100,"L_num":8,"L_den":20,"R_num":1,"R_den":2,"correct_side":2,"subjID":"isabellarosero28","gender":"1","school":"6","age":"13 "},{"start_time":1551892817385,"click_time":1551892819175,"finger_time":1551892818834,"fix_duration":250,"trial":70,"RT":1449,"MT":341,"sideResp":1,"stimulus":[],"xmouse":[779,779,779,779,779,779,779,779,779,779,779,779,779,779,779,779,779,779,779,779,779,779,779,779,779,779,779,779,779,779,779,779,779,779,779,779,779,779,779,779,779,779,779,779,779,779,779,779,779,779,779,779,779,779,779,779,779,779,779,779,779,779,779,779,779,779,779,779,779,779,779,768,710,670,646,629,618,590,589,589,589,589,589,587,584,580,575,543,529,514],"ymouse":[584,584,584,584,584,584,584,584,584,584,584,584,584,584,584,584,584,584,584,584,584,584,584,584,584,584,584,584,584,584,584,584,584,584,584,584,584,584,584,584,584,585,585,585,585,585,585,585,585,585,585,585,585,585,585,585,585,585,585,585,585,585,585,585,585,585,585,585,585,585,585,576,493,426,352,280,209,108,102,102,102,102,102,101,98,94,90,74,69,65],"timestamp_mouse":[10,32,48,68,90,109,129,149,170,190,209,229,250,268,288,309,330,348,368,389,408,429,450,469,489,509,529,548,568,589,608,628,650,669,689,710,730,749,769,788,810,828,849,869,889,908,930,949,969,990,1009,1029,1049,1069,1089,1110,1128,1149,1168,1190,1209,1228,1249,1270,1290,1308,1328,1349,1369,1390,1410,1428,1449,1468,1488,1509,1530,1549,1568,1588,1609,1629,1650,1669,1688,1708,1729,1750,1769,1789],"xSR":741.5,"ySR":573.95,"xT1":424.9,"yT1":0,"xT2":1058.1,"yT2":0,"toosoon":0,"cond_shown":"Incongruent","ratio_trial":300,"L_num":8,"L_den":10,"R_num":14,"R_den":28,"correct_side":1,"subjID":"isabellarosero28","gender":"1","school":"6","age":"13 "},{"start_time":1551892820508,"click_time":1551892822434,"finger_time":1551892821914,"fix_duration":511.4474598944837,"trial":71,"RT":1406,"MT":520,"sideResp":2,"stimulus":[],"xmouse":[798,798,798,798,798,798,798,798,798,798,798,798,798,798,798,798,798,798,798,798,798,798,798,798,798,798,798,798,798,798,798,798,798,798,798,798,798,798,798,798,798,798,798,798,798,798,798,798,798,798,798,798,798,798,798,798,798,798,798,798,798,798,798,798,798,798,798,798,797,799,804,806,806,806,806,806,804,798,789,773,747,658,632,618,617,617,617,616,625,640,662,726,824,889,965,1040,1100],"ymouse":[598,598,598,598,598,598,598,598,598,598,598,598,598,598,598,598,598,598,598,598,598,598,598,598,598,598,598,598,598,598,598,598,598,598,598,598,598,598,598,598,598,598,598,598,598,598,598,598,598,598,598,598,598,598,598,598,598,598,598,598,598,598,598,598,598,598,598,598,598,591,572,556,553,550,547,544,517,498,475,437,387,286,264,254,252,252,252,250,238,220,197,158,129,110,88,70,61],"timestamp_mouse":[9,26,47,67,85,106,127,145,166,186,206,226,246,267,286,306,326,347,366,387,407,427,447,467,487,506,527,547,567,587,607,626,646,667,687,706,725,747,766,786,806,827,846,866,887,907,927,947,967,987,1006,1026,1047,1066,1086,1106,1127,1146,1166,1186,1206,1227,1246,1266,1286,1306,1326,1346,1366,1387,1406,1426,1446,1466,1487,1506,1526,1546,1566,1586,1606,1626,1646,1667,1687,1706,1726,1745,1766,1787,1807,1827,1846,1866,1887,1907,1926],"xSR":741.5,"ySR":573.95,"xT1":424.9,"yT1":0,"xT2":1058.1,"yT2":0,"toosoon":0,"cond_shown":"Congruent","ratio_trial":200,"L_num":16,"L_den":20,"R_num":12,"R_den":20,"correct_side":1,"subjID":"isabellarosero28","gender":"1","school":"6","age":"13 "},{"start_time":1551892824242,"click_time":1551892825214,"finger_time":1551892824834,"fix_duration":345.50114013027843,"trial":72,"RT":592,"MT":380,"sideResp":1,"stimulus":[],"xmouse":[792,792,792,792,792,792,792,792,792,792,792,792,792,792,792,792,792,792,792,792,792,793,793,795,795,795,795,795,795,781,751,707,651,605,579,543,539,538,538,538,538,538,538,538,538,537,533,525,517],"ymouse":[581,581,581,581,581,581,581,581,581,581,581,581,581,581,581,581,581,581,581,581,581,581,584,588,588,588,588,588,588,567,501,394,255,88,0,0,0,0,0,0,0,0,0,0,0,0,11,29,47],"timestamp_mouse":[12,39,53,73,92,112,132,152,172,193,212,233,253,273,293,312,333,352,373,393,412,433,452,471,492,513,532,553,573,592,612,631,653,673,693,711,731,752,772,792,813,833,852,873,892,912,932,952,972],"xSR":741.5,"ySR":573.95,"xT1":424.9,"yT1":0,"xT2":1058.1,"yT2":0,"toosoon":0,"cond_shown":"Incongruent","ratio_trial":200,"L_num":3,"L_den":4,"R_num":11,"R_den":20,"correct_side":1,"subjID":"isabellarosero28","gender":"1","school":"6","age":"13 "},{"start_time":1551892827032,"click_time":1551892828674,"finger_time":1551892828155,"fix_duration":895.0000328512101,"trial":73,"RT":1123,"MT":519,"sideResp":1,"stimulus":[],"xmouse":[786,786,786,786,786,786,786,786,786,786,786,786,786,786,786,786,786,786,786,786,786,786,786,786,786,786,786,786,786,786,786,786,786,786,786,786,786,786,786,786,786,786,786,786,786,786,786,786,786,786,786,786,786,786,786,774,695,654,611,579,551,524,510,503,493,483,459,447,441,440,439,439,439,439,439,439,439,439,439,439,439,439,439],"ymouse":[628,628,628,628,628,628,628,628,628,628,628,628,628,628,628,628,628,628,628,628,628,628,628,628,628,628,628,628,628,628,628,628,628,628,628,628,628,628,628,628,628,628,628,628,628,628,628,628,628,628,6