[{"start_time":1551899639768,"click_time":1551899645194,"finger_time":1551899644373,"fix_duration":250,"trial":0,"RT":4605,"MT":821,"sideResp":1,"stimulus":[],"xmouse":[779,780,780,780,780,780,780,780,780,780,780,780,780,780,780,780,780,780,780,780,780,780,780,780,780,780,780,780,780,780,780,780,780,780,780,780,780,780,780,780,780,780,780,780,780,780,780,780,780,780,780,780,780,780,780,780,780,780,780,780,780,780,780,780,780,780,780,780,780,780,780,780,780,780,780,780,780,780,780,780,780,780,780,780,780,780,780,780,780,780,780,780,780,780,780,780,780,780,780,780,780,780,780,780,780,780,780,780,780,780,780,780,780,780,780,780,780,780,780,780,780,780,780,780,780,780,780,780,780,780,780,780,780,780,780,780,780,780,780,780,780,780,780,780,780,780,780,780,780,780,780,780,780,780,780,780,780,780,780,780,780,780,780,780,780,780,780,780,780,780,780,780,780,780,780,780,780,780,780,780,780,780,780,780,780,780,780,780,780,780,780,780,780,780,780,780,780,780,780,780,780,780,780,780,780,780,780,780,780,780,780,780,780,780,780,780,780,780,780,780,780,780,780,780,780,780,781,781,784,787,787,784,781,781,778,769,762,750,734,717,675,665,657,654,652,648,647,647,647,647,647,647,647,647,645,637,622,605,598,597,597,596,587,569,545,525,525,525,525,525,519],"ymouse":[519,519,519,519,519,519,519,519,519,519,519,519,519,519,519,519,519,519,519,519,519,519,519,519,519,519,519,519,519,519,519,519,519,519,519,519,519,519,519,519,519,519,519,519,519,519,519,519,519,519,519,519,519,519,519,519,519,519,519,519,519,519,519,519,519,519,519,519,519,519,519,519,519,519,519,519,519,519,519,519,519,519,519,519,519,519,519,519,519,519,519,519,519,519,519,519,519,519,519,519,519,519,519,519,519,519,519,519,519,519,519,519,519,517,516,511,509,509,509,509,509,509,509,509,509,509,509,509,509,509,509,509,509,509,509,509,509,509,509,509,509,509,509,509,509,509,509,509,509,509,509,509,509,509,509,509,509,509,509,509,509,509,509,509,509,509,509,509,509,509,508,508,508,508,508,508,505,505,505,505,505,505,505,505,505,505,505,505,505,505,505,505,505,505,505,505,505,505,505,505,505,505,505,505,505,505,505,505,505,505,505,505,505,505,505,505,505,505,505,505,505,505,505,505,505,505,497,491,471,454,385,366,348,328,311,285,274,257,231,191,124,115,112,111,111,111,111,111,111,111,111,111,111,111,112,116,116,112,111,110,110,110,110,111,110,101,101,101,101,101,95],"timestamp_mouse":[31,46,66,85,105,126,145,166,185,205,225,246,265,286,305,326,345,365,386,405,426,445,465,486,505,526,546,565,585,605,625,645,665,685,705,726,745,765,786,805,825,845,865,885,906,925,945,965,985,1005,1025,1045,1066,1085,1105,1125,1145,1165,1185,1205,1225,1246,1265,1285,1305,1325,1345,1365,1385,1406,1425,1445,1465,1485,1505,1525,1545,1565,1585,1605,1625,1645,1665,1685,1706,1725,1745,1765,1785,1805,1825,1845,1865,1885,1905,1925,1945,1966,1985,2006,2026,2045,2065,2085,2105,2125,2145,2165,2185,2206,2225,2245,2265,2285,2305,2325,2345,2365,2385,2405,2426,2445,2465,2485,2505,2525,2545,2565,2585,2606,2625,2645,2665,2685,2705,2725,2745,2765,2785,2805,2825,2845,2865,2885,2905,2925,2945,2965,2985,3006,3025,3045,3065,3085,3105,3125,3146,3165,3185,3205,3226,3245,3265,3285,3305,3326,3346,3365,3385,3405,3425,3445,3465,3485,3506,3525,3546,3565,3585,3605,3625,3646,3665,3685,3706,3726,3745,3765,3785,3805,3826,3845,3865,3885,3905,3926,3945,3965,3985,4005,4026,4045,4065,4085,4106,4126,4145,4165,4185,4205,4226,4245,4265,4285,4305,4326,4345,4365,4385,4406,4425,4445,4465,4486,4505,4526,4545,4565,4585,4605,4625,4645,4665,4686,4705,4726,4745,4765,4786,4806,4825,4846,4866,4886,4905,4926,4945,4965,4986,5005,5026,5045,5064,5085,5104,5125,5145,5165,5185,5205,5225,5245,5265,5285,5305,5325,5345,5365,5385,5405,5425],"xSR":741.5,"ySR":501.8,"xT1":424.9,"yT1":0,"xT2":1058.1,"yT2":0,"toosoon":0,"cond_shown":"Incongruent","ratio_trial":300,"L_num":4,"L_den":20,"R_num":2,"R_den":4,"correct_side":2,"subjID":"isabellaseguracardozo9","gender":"1","age":"11","school":"6","test":{"fix_dur":[250,1500],"timestim":1000,"targets_dim":[100,100],"targets_relative_coord":[0.3,0.7],"size_stim":[880,420],"start_dim":[100,100],"size_start":[300,300],"size_fix":60,"samplingrate":20,"img_types":["Congruent","Incongruent"],"ratios":[100,200,300],"rep_conds":19,"nTrials":120,"trials_to_rest":500,"Trials_order":[47,102,4,23,109,107,94,89,45,114,33,44,2,87,55,98,16,74,62,50,92,13,52,15,41,82,1,90,117,101,7,36,104,21,48,11,42,119,97,67,77,38,8,57,18,54,40,66,95,76,20,115,86,70,118,61,60,88,46,108,6,83,113,73,53,32,5,14,106,49,72,69,78,12,71,111,17,85,34,112,64,75,116,22,24,105,96,65,84,10,80,79,37,28,63,56,9,26,3,59,19,25,68,91,0,43,103,110,31,58,35,100,99,51,39,93,81,27,29,30],"cond_shown":["Incongruent","Congruent","Congruent","Incongruent","Incongruent","Incongruent","Congruent","Incongruent","Incongruent","Congruent","Incongruent","Congruent","Congruent","Incongruent","Incongruent","Congruent","Congruent","Congruent","Congruent","Congruent","Congruent","Incongruent","Congruent","Incongruent","Incongruent","Congruent","Incongruent","Congruent","Incongruent","Incongruent","Incongruent","Congruent","Congruent","Incongruent","Congruent","Incongruent","Congruent","Incongruent","Incongruent","Incongruent","Incongruent","Congruent","Congruent","Incongruent","Congruent","Congruent","Congruent","Congruent","Incongruent","Congruent","Congruent","Incongruent","Congruent","Congruent","Congruent","Incongruent","Congruent","Congruent","Congruent","Congruent","Congruent","Incongruent","Incongruent","Incongruent","Incongruent","Congruent","Incongruent","Congruent","Congruent","Incongruent","Congruent","Incongruent","Congruent","Congruent","Incongruent","Incongruent","Incongruent","Incongruent","Congruent","Congruent","Congruent","Incongruent","Congruent","Congruent","Congruent","Incongruent","Congruent","Incongruent","Congruent","Congruent","Congruent","Incongruent","Incongruent","Congruent","Incongruent","Congruent","Incongruent","Congruent","Incongruent","Incongruent","Incongruent","Incongruent","Congruent","Incongruent","Congruent","Incongruent","Incongruent","Congruent","Incongruent","Congruent","Incongruent","Congruent","Incongruent","Incongruent","Incongruent","Incongruent","Incongruent","Incongruent","Incongruent","Congruent"],"ratio_trial":[300,100,300,300,100,300,300,300,200,100,200,200,200,200,100,200,300,200,200,200,200,100,300,200,300,300,100,100,200,300,100,100,200,200,100,300,100,300,100,100,300,200,200,200,100,100,300,100,300,300,200,100,200,300,300,100,100,300,300,100,100,300,300,100,300,200,300,200,300,100,100,200,100,100,300,200,300,100,300,300,300,200,200,300,100,200,100,300,100,300,200,100,100,300,200,200,200,200,200,300,100,100,200,100,100,100,100,200,100,300,300,300,200,200,200,200,200,200,300,100],"left_num":[4,10,20,7,10,4,4,1,3,3,3,8,5,1,6,3,2,9,8,3,9,9,20,6,13,2,8,15,4,4,9,10,8,4,11,4,4,1,2,9,3,16,20,7,3,7,3,2,1,1,16,12,12,4,4,3,4,1,3,3,9,13,8,3,1,3,4,7,20,9,9,4,8,6,7,7,4,13,11,4,11,1,3,4,11,7,7,13,11,24,9,2,6,20,7,6,4,9,4,7,3,3,3,3,3,3,6,8,3,24,13,4,7,4,7,14,14,3,4,3],"right_num":[2,3,13,8,8,2,2,2,11,2,1,3,14,2,11,7,12,13,7,14,13,20,8,3,12,10,6,13,1,2,20,3,7,14,6,8,15,3,6,20,4,9,9,14,2,9,4,6,2,8,9,9,6,2,1,7,15,6,2,4,8,12,14,8,2,9,2,2,13,20,8,6,2,5,8,12,2,6,1,1,4,3,7,13,6,8,15,12,4,8,13,8,13,14,14,11,14,13,6,8,11,8,9,11,2,4,13,7,7,8,12,13,12,14,4,6,12,1,2,2],"left_den":[20,25,25,10,25,20,5,2,4,6,10,15,10,3,10,10,10,30,15,10,30,10,25,20,26,20,16,25,30,20,10,25,15,6,22,5,10,2,4,10,6,30,25,10,6,14,6,5,2,30,30,24,15,5,10,9,10,5,6,20,15,26,10,5,2,12,20,21,25,10,15,5,16,20,10,10,20,26,22,10,22,2,10,20,22,10,14,26,22,30,30,4,10,25,10,20,6,30,5,10,5,5,12,5,6,6,10,15,9,30,26,20,10,6,15,30,30,10,20,6],"right_den":[4,10,26,20,16,4,4,10,20,5,2,9,20,15,22,14,24,26,21,28,26,25,16,6,15,25,10,26,3,4,25,10,21,30,15,16,30,15,15,25,20,27,15,28,5,15,5,12,10,24,27,15,10,4,10,30,30,12,10,16,16,15,28,16,10,20,4,15,26,25,16,10,5,25,20,24,4,10,5,10,20,10,14,26,15,16,25,15,10,16,26,20,26,28,28,22,30,26,10,20,22,16,20,22,5,10,26,21,30,16,15,26,24,30,6,9,18,2,4,5],"correct_side":[2,1,1,1,2,2,1,1,1,1,2,1,2,1,1,2,2,2,1,2,2,1,1,2,2,2,2,1,2,2,1,1,1,1,1,1,2,1,1,1,1,1,1,1,1,2,2,2,1,2,1,2,1,1,1,1,2,2,1,2,1,2,1,1,1,2,2,1,1,1,1,1,1,1,1,1,2,2,1,1,1,1,2,2,1,1,2,2,1,1,2,1,1,1,1,2,1,2,1,1,1,1,2,1,1,1,1,1,1,1,2,2,1,1,2,2,2,2,2,1],"img_shown":["img2/300/Incongruent/R/I_Dist_300_LN_4_LD_20_RN_2_RD_4_1.png","img2/100/Congruent/L/C_Dist_100_LN_10_LD_25_RN_3_RD_10_0.png","img2/300/Congruent/L/C_Dist_300_LN_20_LD_25_RN_13_RD_26_0.png","img2/300/Incongruent/L/I_Dist_300_LN_7_LD_10_RN_8_RD_20_0.png","img2/100/Incongruent/R/I_Dist_100_LN_10_LD_25_RN_8_RD_16_1.png","img2/300/Incongruent/R/I_Dist_300_LN_4_LD_20_RN_2_RD_4_1.png","img2/300/Congruent/L/C_Dist_300_LN_4_LD_5_RN_2_RD_4_0.png","img2/300/Incongruent/L/I_Dist_300_LN_1_LD_2_RN_2_RD_10_0.png","img2/200/Incongruent/L/I_Dist_200_LN_3_LD_4_RN_11_RD_20_0.png","img2/100/Congruent/L/C_Dist_100_LN_3_LD_6_RN_2_RD_5_0.png","img2/200/Incongruent/R/I_Dist_200_LN_3_LD_10_RN_1_RD_2_1.png","img2/200/Congruent/L/C_Dist_200_LN_8_LD_15_RN_3_RD_9_0.png","img2/200/Congruent/R/C_Dist_200_LN_5_LD_10_RN_14_RD_20_1.png","img2/200/Incongruent/L/I_Dist_200_LN_1_LD_3_RN_2_RD_15_0.png","img2/100/Incongruent/L/I_Dist_100_LN_6_LD_10_RN_11_RD_22_0.png","img2/200/Congruent/R/C_Dist_200_LN_3_LD_10_RN_7_RD_14_1.png","img2/300/Congruent/R/C_Dist_300_LN_2_LD_10_RN_12_RD_24_1.png","img2/200/Congruent/R/C_Dist_200_LN_9_LD_30_RN_13_RD_26_1.png","img2/200/Congruent/L/C_Dist_200_LN_8_LD_15_RN_7_RD_21_0.png","img2/200/Congruent/R/C_Dist_200_LN_3_LD_10_RN_14_RD_28_1.png","img2/200/Congruent/R/C_Dist_200_LN_9_LD_30_RN_13_RD_26_1.png","img2/100/Incongruent/L/I_Dist_100_LN_9_LD_10_RN_20_RD_25_0.png","img2/300/Congruent/L/C_Dist_300_LN_20_LD_25_RN_8_RD_16_0.png","img2/200/Incongruent/R/I_Dist_200_LN_6_LD_20_RN_3_RD_6_1.png","img2/300/Incongruent/R/I_Dist_300_LN_13_LD_26_RN_12_RD_15_1.png","img2/300/Congruent/R/C_Dist_300_LN_2_LD_20_RN_10_RD_25_1.png","img2/100/Incongruent/R/I_Dist_100_LN_8_LD_16_RN_6_RD_10_1.png","img2/100/Congruent/L/C_Dist_100_LN_15_LD_25_RN_13_RD_26_0.png","img2/200/Incongruent/R/I_Dist_200_LN_4_LD_30_RN_1_RD_3_1.png","img2/300/Incongruent/R/I_Dist_300_LN_4_LD_20_RN_2_RD_4_1.png","img2/100/Incongruent/L/I_Dist_100_LN_9_LD_10_RN_20_RD_25_0.png","img2/100/Congruent/L/C_Dist_100_LN_10_LD_25_RN_3_RD_10_0.png","img2/200/Congruent/L/C_Dist_200_LN_8_LD_15_RN_7_RD_21_0.png","img2/200/Incongruent/L/I_Dist_200_LN_4_LD_6_RN_14_RD_30_0.png","img2/100/Congruent/L/C_Dist_100_LN_11_LD_22_RN_6_RD_15_0.png","img2/300/Incongruent/L/I_Dist_300_LN_4_LD_5_RN_8_RD_16_0.png","img2/100/Congruent/R/C_Dist_100_LN_4_LD_10_RN_15_RD_30_1.png","img2/300/Incongruent/L/I_Dist_300_LN_1_LD_2_RN_3_RD_15_0.png","img2/100/Incongruent/L/I_Dist_100_LN_2_LD_4_RN_6_RD_15_0.png","img2/100/Incongruent/L/I_Dist_100_LN_9_LD_10_RN_20_RD_25_0.png","img2/300/Incongruent/L/I_Dist_300_LN_3_LD_6_RN_4_RD_20_0.png","img2/200/Congruent/L/C_Dist_200_LN_16_LD_30_RN_9_RD_27_0.png","img2/200/Congruent/L/C_Dist_200_LN_20_LD_25_RN_9_RD_15_0.png","img2/200/Incongruent/L/I_Dist_200_LN_7_LD_10_RN_14_RD_28_0.png","img2/100/Congruent/L/C_Dist_100_LN_3_LD_6_RN_2_RD_5_0.png","img2/100/Congruent/R/C_Dist_100_LN_7_LD_14_RN_9_RD_15_1.png","img2/300/Congruent/R/C_Dist_300_LN_3_LD_6_RN_4_RD_5_1.png","img2/100/Congruent/R/C_Dist_100_LN_2_LD_5_RN_6_RD_12_1.png","img2/300/Incongruent/L/I_Dist_300_LN_1_LD_2_RN_2_RD_10_0.png","img2/300/Congruent/R/C_Dist_300_LN_1_LD_30_RN_8_RD_24_1.png","img2/200/Congruent/L/C_Dist_200_LN_16_LD_30_RN_9_RD_27_0.png","img2/100/Incongruent/R/I_Dist_100_LN_12_LD_24_RN_9_RD_15_1.png","img2/200/Congruent/L/C_Dist_200_LN_12_LD_15_RN_6_RD_10_0.png","img2/300/Congruent/L/C_Dist_300_LN_4_LD_5_RN_2_RD_4_0.png","img2/300/Congruent/L/C_Dist_300_LN_4_LD_10_RN_1_RD_10_0.png","img2/100/Incongruent/L/I_Dist_100_LN_3_LD_9_RN_7_RD_30_0.png","img2/100/Congruent/R/C_Dist_100_LN_4_LD_10_RN_15_RD_30_1.png","img2/300/Congruent/R/C_Dist_300_LN_1_LD_5_RN_6_RD_12_1.png","img2/300/Congruent/L/C_Dist_300_LN_3_LD_6_RN_2_RD_10_0.png","img2/100/Congruent/R/C_Dist_100_LN_3_LD_20_RN_4_RD_16_1.png","img2/100/Congruent/L/C_Dist_100_LN_9_LD_15_RN_8_RD_16_0.png","img2/300/Incongruent/R/I_Dist_300_LN_13_LD_26_RN_12_RD_15_1.png","img2/300/Incongruent/L/I_Dist_300_LN_8_LD_10_RN_14_RD_28_0.png","img2/100/Incongruent/L/I_Dist_100_LN_3_LD_5_RN_8_RD_16_0.png","img2/300/Incongruent/L/I_Dist_300_LN_1_LD_2_RN_2_RD_10_0.png","img2/200/Congruent/R/C_Dist_200_LN_3_LD_12_RN_9_RD_20_1.png","img2/300/Incongruent/R/I_Dist_300_LN_4_LD_20_RN_2_RD_4_1.png","img2/200/Congruent/L/C_Dist_200_LN_7_LD_21_RN_2_RD_15_0.png","img2/300/Congruent/L/C_Dist_300_LN_20_LD_25_RN_13_RD_26_0.png","img2/100/Incongruent/L/I_Dist_100_LN_9_LD_10_RN_20_RD_25_0.png","img2/100/Congruent/L/C_Dist_100_LN_9_LD_15_RN_8_RD_16_0.png","img2/200/Incongruent/L/I_Dist_200_LN_4_LD_5_RN_6_RD_10_0.png","img2/100/Congruent/L/C_Dist_100_LN_8_LD_16_RN_2_RD_5_0.png","img2/100/Congruent/L/C_Dist_100_LN_6_LD_20_RN_5_RD_25_0.png","img2/300/Incongruent/L/I_Dist_300_LN_7_LD_10_RN_8_RD_20_0.png","img2/200/Incongruent/L/I_Dist_200_LN_7_LD_10_RN_12_RD_24_0.png","img2/300/Incongruent/R/I_Dist_300_LN_4_LD_20_RN_2_RD_4_1.png","img2/100/Incongruent/R/I_Dist_100_LN_13_LD_26_RN_6_RD_10_1.png","img2/300/Congruent/L/C_Dist_300_LN_11_LD_22_RN_1_RD_5_0.png","img2/300/Congruent/L/C_Dist_300_LN_4_LD_10_RN_1_RD_10_0.png","img2/300/Congruent/L/C_Dist_300_LN_11_LD_22_RN_4_RD_20_0.png","img2/200/Incongruent/L/I_Dist_200_LN_1_LD_2_RN_3_RD_10_0.png","img2/200/Congruent/R/C_Dist_200_LN_3_LD_10_RN_7_RD_14_1.png","img2/300/Congruent/R/C_Dist_300_LN_4_LD_20_RN_13_RD_26_1.png","img2/100/Congruent/L/C_Dist_100_LN_11_LD_22_RN_6_RD_15_0.png","img2/200/Incongruent/L/I_Dist_200_LN_7_LD_10_RN_8_RD_16_0.png","img2/100/Congruent/R/C_Dist_100_LN_7_LD_14_RN_15_RD_25_1.png","img2/300/Incongruent/R/I_Dist_300_LN_13_LD_26_RN_12_RD_15_1.png","img2/100/Congruent/L/C_Dist_100_LN_11_LD_22_RN_4_RD_10_0.png","img2/300/Congruent/L/C_Dist_300_LN_24_LD_30_RN_8_RD_16_0.png","img2/200/Congruent/R/C_Dist_200_LN_9_LD_30_RN_13_RD_26_1.png","img2/100/Incongruent/L/I_Dist_100_LN_2_LD_4_RN_8_RD_20_0.png","img2/100/Incongruent/L/I_Dist_100_LN_6_LD_10_RN_13_RD_26_0.png","img2/300/Congruent/L/C_Dist_300_LN_20_LD_25_RN_14_RD_28_0.png","img2/200/Incongruent/L/I_Dist_200_LN_7_LD_10_RN_14_RD_28_0.png","img2/200/Congruent/R/C_Dist_200_LN_6_LD_20_RN_11_RD_22_1.png","img2/200/Incongruent/L/I_Dist_200_LN_4_LD_6_RN_14_RD_30_0.png","img2/200/Congruent/R/C_Dist_200_LN_9_LD_30_RN_13_RD_26_1.png","img2/200/Incongruent/L/I_Dist_200_LN_4_LD_5_RN_6_RD_10_0.png","img2/300/Incongruent/L/I_Dist_300_LN_7_LD_10_RN_8_RD_20_0.png","img2/100/Incongruent/L/I_Dist_100_LN_3_LD_5_RN_11_RD_22_0.png","img2/100/Incongruent/L/I_Dist_100_LN_3_LD_5_RN_8_RD_16_0.png","img2/200/Congruent/R/C_Dist_200_LN_3_LD_12_RN_9_RD_20_1.png","img2/100/Incongruent/L/I_Dist_100_LN_3_LD_5_RN_11_RD_22_0.png","img2/100/Congruent/L/C_Dist_100_LN_3_LD_6_RN_2_RD_5_0.png","img2/100/Incongruent/L/I_Dist_100_LN_3_LD_6_RN_4_RD_10_0.png","img2/100/Incongruent/L/I_Dist_100_LN_6_LD_10_RN_13_RD_26_0.png","img2/200/Congruent/L/C_Dist_200_LN_8_LD_15_RN_7_RD_21_0.png","img2/100/Incongruent/L/I_Dist_100_LN_3_LD_9_RN_7_RD_30_0.png","img2/300/Congruent/L/C_Dist_300_LN_24_LD_30_RN_8_RD_16_0.png","img2/300/Incongruent/R/I_Dist_300_LN_13_LD_26_RN_12_RD_15_1.png","img2/300/Congruent/R/C_Dist_300_LN_4_LD_20_RN_13_RD_26_1.png","img2/200/Incongruent/L/I_Dist_200_LN_7_LD_10_RN_12_RD_24_0.png","img2/200/Incongruent/L/I_Dist_200_LN_4_LD_6_RN_14_RD_30_0.png","img2/200/Incongruent/R/I_Dist_200_LN_7_LD_15_RN_4_RD_6_1.png","img2/200/Incongruent/R/I_Dist_200_LN_14_LD_30_RN_6_RD_9_1.png","img2/200/Incongruent/R/I_Dist_200_LN_14_LD_30_RN_12_RD_18_1.png","img2/200/Incongruent/R/I_Dist_200_LN_3_LD_10_RN_1_RD_2_1.png","img2/300/Incongruent/R/I_Dist_300_LN_4_LD_20_RN_2_RD_4_1.png","img2/100/Congruent/L/C_Dist_100_LN_3_LD_6_RN_2_RD_5_0.png"],"dist100_C":[["C_Dist_100_LN_10_LD_25_RN_3_RD_10_0.png","C_Dist_100_LN_11_LD_22_RN_4_RD_10_0.png","C_Dist_100_LN_11_LD_22_RN_6_RD_15_0.png","C_Dist_100_LN_15_LD_25_RN_13_RD_26_0.png","C_Dist_100_LN_3_LD_6_RN_2_RD_5_0.png","C_Dist_100_LN_6_LD_20_RN_5_RD_25_0.png","C_Dist_100_LN_8_LD_16_RN_2_RD_5_0.png","C_Dist_100_LN_9_LD_15_RN_8_RD_16_0.png"],["C_Dist_100_LN_1_LD_2_RN_18_RD_30_1.png","C_Dist_100_LN_1_LD_2_RN_3_RD_5_1.png","C_Dist_100_LN_12_LD_30_RN_13_RD_26_1.png","C_Dist_100_LN_2_LD_5_RN_11_RD_22_1.png","C_Dist_100_LN_2_LD_5_RN_6_RD_12_1.png","C_Dist_100_LN_3_LD_20_RN_4_RD_16_1.png","C_Dist_100_LN_4_LD_10_RN_15_RD_30_1.png","C_Dist_100_LN_4_LD_8_RN_6_RD_10_1.png","C_Dist_100_LN_6_LD_12_RN_15_RD_25_1.png","C_Dist_100_LN_7_LD_14_RN_15_RD_25_1.png","C_Dist_100_LN_7_LD_14_RN_9_RD_15_1.png"]],"dist100_I":[["I_Dist_100_LN_1_LD_2_RN_8_RD_20_0.png","I_Dist_100_LN_2_LD_4_RN_6_RD_15_0.png","I_Dist_100_LN_2_LD_4_RN_8_RD_20_0.png","I_Dist_100_LN_3_LD_5_RN_11_RD_22_0.png","I_Dist_100_LN_3_LD_5_RN_8_RD_16_0.png","I_Dist_100_LN_3_LD_6_RN_4_RD_10_0.png","I_Dist_100_LN_3_LD_9_RN_7_RD_30_0.png","I_Dist_100_LN_4_LD_8_RN_8_RD_20_0.png","I_Dist_100_LN_6_LD_10_RN_11_RD_22_0.png","I_Dist_100_LN_6_LD_10_RN_13_RD_26_0.png","I_Dist_100_LN_6_LD_10_RN_7_RD_14_0.png","I_Dist_100_LN_9_LD_10_RN_20_RD_25_0.png","I_Dist_100_LN_9_LD_15_RN_13_RD_26_0.png","I_Dist_100_LN_9_LD_15_RN_14_RD_28_0.png"],["I_Dist_100_LN_10_LD_25_RN_8_RD_16_1.png","I_Dist_100_LN_10_LD_25_RN_9_RD_18_1.png","I_Dist_100_LN_11_LD_22_RN_9_RD_15_1.png","I_Dist_100_LN_12_LD_24_RN_9_RD_15_1.png","I_Dist_100_LN_12_LD_30_RN_2_RD_4_1.png","I_Dist_100_LN_13_LD_26_RN_12_RD_20_1.png","I_Dist_100_LN_13_LD_26_RN_6_RD_10_1.png","I_Dist_100_LN_17_LD_30_RN_10_RD_15_1.png","I_Dist_100_LN_6_LD_12_RN_3_RD_5_1.png","I_Dist_100_LN_8_LD_16_RN_6_RD_10_1.png","I_Dist_100_LN_8_LD_20_RN_1_RD_2_1.png","I_Dist_100_LN_9_LD_18_RN_6_RD_10_1.png"]],"dist100_S":[["E_Dist_100_LN_2_LD_12_RN_2_RD_30_0.png","E_Dist_100_LN_6_LD_10_RN_6_RD_12_0.png"],["E_Dist_100_LN_6_LD_12_RN_6_RD_10_1.png"]],"dist200_C":[["C_Dist_200_LN_11_LD_22_RN_3_RD_10_0.png","C_Dist_200_LN_12_LD_15_RN_6_RD_10_0.png","C_Dist_200_LN_12_LD_20_RN_6_RD_15_0.png","C_Dist_200_LN_14_LD_28_RN_6_RD_20_0.png","C_Dist_200_LN_15_LD_25_RN_4_RD_10_0.png","C_Dist_200_LN_16_LD_20_RN_12_RD_20_0.png","C_Dist_200_LN_16_LD_30_RN_9_RD_27_0.png","C_Dist_200_LN_20_LD_25_RN_9_RD_15_0.png","C_Dist_200_LN_21_LD_30_RN_2_RD_4_0.png","C_Dist_200_LN_4_LD_10_RN_3_RD_15_0.png","C_Dist_200_LN_4_LD_8_RN_3_RD_10_0.png","C_Dist_200_LN_6_LD_15_RN_3_RD_15_0.png","C_Dist_200_LN_7_LD_21_RN_2_RD_15_0.png","C_Dist_200_LN_8_LD_15_RN_2_RD_6_0.png","C_Dist_200_LN_8_LD_15_RN_3_RD_9_0.png","C_Dist_200_LN_8_LD_15_RN_7_RD_21_0.png","C_Dist_200_LN_9_LD_20_RN_4_RD_16_0.png"],["C_Dist_200_LN_1_LD_2_RN_21_RD_30_1.png","C_Dist_200_LN_13_LD_26_RN_14_RD_20_1.png","C_Dist_200_LN_3_LD_10_RN_11_RD_22_1.png","C_Dist_200_LN_3_LD_10_RN_14_RD_28_1.png","C_Dist_200_LN_3_LD_10_RN_7_RD_14_1.png","C_Dist_200_LN_3_LD_12_RN_9_RD_20_1.png","C_Dist_200_LN_3_LD_6_RN_14_RD_20_1.png","C_Dist_200_LN_5_LD_10_RN_14_RD_20_1.png","C_Dist_200_LN_6_LD_12_RN_7_RD_10_1.png","C_Dist_200_LN_6_LD_20_RN_11_RD_22_1.png","C_Dist_200_LN_7_LD_15_RN_18_RD_27_1.png","C_Dist_200_LN_9_LD_30_RN_13_RD_26_1.png"]],"dist200_I":[["I_Dist_200_LN_1_LD_2_RN_3_RD_10_0.png","I_Dist_200_LN_1_LD_3_RN_2_RD_15_0.png","I_Dist_200_LN_3_LD_4_RN_11_RD_20_0.png","I_Dist_200_LN_4_LD_5_RN_6_RD_10_0.png","I_Dist_200_LN_4_LD_6_RN_14_RD_30_0.png","I_Dist_200_LN_7_LD_10_RN_12_RD_24_0.png","I_Dist_200_LN_7_LD_10_RN_14_RD_28_0.png","I_Dist_200_LN_7_LD_10_RN_8_RD_16_0.png"],["I_Dist_200_LN_11_LD_20_RN_3_RD_4_1.png","I_Dist_200_LN_14_LD_30_RN_12_RD_18_1.png","I_Dist_200_LN_14_LD_30_RN_6_RD_9_1.png","I_Dist_200_LN_3_LD_10_RN_1_RD_2_1.png","I_Dist_200_LN_4_LD_30_RN_1_RD_3_1.png","I_Dist_200_LN_6_LD_20_RN_3_RD_6_1.png","I_Dist_200_LN_7_LD_15_RN_4_RD_6_1.png","I_Dist_200_LN_7_LD_15_RN_6_RD_9_1.png","I_Dist_200_LN_9_LD_15_RN_8_RD_10_1.png"]],"dist200_S":[["E_Dist_200_LN_3_LD_6_RN_3_RD_10_0.png"],["E_Dist_200_LN_3_LD_10_RN_3_RD_6_1.png"]],"dist300_C":[["C_Dist_300_LN_11_LD_22_RN_1_RD_5_0.png","C_Dist_300_LN_11_LD_22_RN_2_RD_10_0.png","C_Dist_300_LN_11_LD_22_RN_4_RD_20_0.png","C_Dist_300_LN_12_LD_24_RN_2_RD_10_0.png","C_Dist_300_LN_18_LD_20_RN_9_RD_15_0.png","C_Dist_300_LN_20_LD_25_RN_13_RD_26_0.png","C_Dist_300_LN_20_LD_25_RN_14_RD_28_0.png","C_Dist_300_LN_20_LD_25_RN_5_RD_10_0.png","C_Dist_300_LN_20_LD_25_RN_8_RD_16_0.png","C_Dist_300_LN_20_LD_25_RN_9_RD_18_0.png","C_Dist_300_LN_24_LD_30_RN_2_RD_4_0.png","C_Dist_300_LN_24_LD_30_RN_8_RD_16_0.png","C_Dist_300_LN_3_LD_6_RN_2_RD_10_0.png","C_Dist_300_LN_4_LD_10_RN_1_RD_10_0.png","C_Dist_300_LN_4_LD_5_RN_2_RD_4_0.png","C_Dist_300_LN_8_LD_16_RN_1_RD_5_0.png","C_Dist_300_LN_9_LD_10_RN_3_RD_5_0.png"],["C_Dist_300_LN_1_LD_20_RN_7_RD_20_1.png","C_Dist_300_LN_1_LD_3_RN_19_RD_30_1.png","C_Dist_300_LN_1_LD_30_RN_8_RD_24_1.png","C_Dist_300_LN_1_LD_5_RN_11_RD_22_1.png","C_Dist_300_LN_1_LD_5_RN_3_RD_6_1.png","C_Dist_300_LN_1_LD_5_RN_6_RD_12_1.png","C_Dist_300_LN_2_LD_10_RN_12_RD_24_1.png","C_Dist_300_LN_2_LD_20_RN_10_RD_25_1.png","C_Dist_300_LN_3_LD_12_RN_11_RD_20_1.png","C_Dist_300_LN_3_LD_6_RN_4_RD_5_1.png","C_Dist_300_LN_4_LD_20_RN_13_RD_26_1.png","C_Dist_300_LN_5_LD_25_RN_6_RD_12_1.png","C_Dist_300_LN_5_LD_25_RN_7_RD_14_1.png","C_Dist_300_LN_7_LD_14_RN_20_RD_25_1.png","C_Dist_300_LN_8_LD_15_RN_10_RD_12_1.png"]],"dist300_I":[["I_Dist_300_LN_1_LD_2_RN_2_RD_10_0.png","I_Dist_300_LN_1_LD_2_RN_3_RD_15_0.png","I_Dist_300_LN_2_LD_4_RN_6_RD_30_0.png","I_Dist_300_LN_3_LD_6_RN_4_RD_20_0.png","I_Dist_300_LN_4_LD_5_RN_6_RD_12_0.png","I_Dist_300_LN_4_LD_5_RN_8_RD_16_0.png","I_Dist_300_LN_7_LD_10_RN_8_RD_20_0.png","I_Dist_300_LN_8_LD_10_RN_14_RD_28_0.png","I_Dist_300_LN_8_LD_10_RN_9_RD_18_0.png"],["I_Dist_300_LN_13_LD_26_RN_12_RD_15_1.png","I_Dist_300_LN_4_LD_20_RN_2_RD_4_1.png"]],"dist300_S":[["E_Dist_300_LN_9_LD_12_RN_9_RD_20_0.png"],["E_Dist_300_LN_18_LD_30_RN_18_RD_20_1.png","E_Dist_300_LN_3_LD_10_RN_3_RD_5_1.png","E_Dist_300_LN_9_LD_20_RN_9_RD_12_1.png"]],"dist500_C":[["C_Dist_500_LN_10_LD_13_RN_7_RD_26_0.png","C_Dist_500_LN_10_LD_15_RN_4_RD_24_0.png","C_Dist_500_LN_12_LD_16_RN_3_RD_12_0.png","C_Dist_500_LN_12_LD_18_RN_4_RD_24_0.png","C_Dist_500_LN_15_LD_18_RN_5_RD_15_0.png","C_Dist_500_LN_15_LD_20_RN_1_RD_4_0.png","C_Dist_500_LN_18_LD_27_RN_1_RD_6_0.png","C_Dist_500_LN_20_LD_24_RN_1_RD_3_0.png","C_Dist_500_LN_20_LD_24_RN_3_RD_9_0.png","C_Dist_500_LN_20_LD_24_RN_7_RD_21_0.png","C_Dist_500_LN_20_LD_28_RN_3_RD_14_0.png","C_Dist_500_LN_21_LD_28_RN_6_RD_24_0.png","C_Dist_500_LN_22_LD_28_RN_2_RD_7_0.png","C_Dist_500_LN_25_LD_30_RN_9_RD_27_0.png","C_Dist_500_LN_4_LD_6_RN_1_RD_6_0.png","C_Dist_500_LN_5_LD_6_RN_2_RD_6_0.png","C_Dist_500_LN_6_LD_9_RN_1_RD_6_0.png","C_Dist_500_LN_7_LD_10_RN_1_RD_5_0.png","C_Dist_500_LN_8_LD_12_RN_1_RD_6_0.png","C_Dist_500_LN_8_LD_12_RN_4_RD_24_0.png"],["C_Dist_500_LN_1_LD_4_RN_12_RD_16_1.png","C_Dist_500_LN_1_LD_4_RN_9_RD_12_1.png","C_Dist_500_LN_1_LD_9_RN_11_RD_18_1.png","C_Dist_500_LN_10_LD_24_RN_22_RD_24_1.png","C_Dist_500_LN_2_LD_12_RN_10_RD_15_1.png","C_Dist_500_LN_2_LD_12_RN_12_RD_18_1.png","C_Dist_500_LN_2_LD_12_RN_4_RD_6_1.png","C_Dist_500_LN_2_LD_24_RN_7_RD_12_1.png","C_Dist_500_LN_2_LD_5_RN_18_RD_20_1.png","C_Dist_500_LN_2_LD_5_RN_9_RD_10_1.png","C_Dist_500_LN_2_LD_8_RN_12_RD_16_1.png","C_Dist_500_LN_2_LD_8_RN_21_RD_28_1.png","C_Dist_500_LN_3_LD_10_RN_4_RD_5_1.png","C_Dist_500_LN_3_LD_12_RN_15_RD_20_1.png","C_Dist_500_LN_3_LD_30_RN_6_RD_10_1.png","C_Dist_500_LN_3_LD_8_RN_14_RD_16_1.png","C_Dist_500_LN_4_LD_16_RN_15_RD_20_1.png","C_Dist_500_LN_4_LD_24_RN_12_RD_18_1.png","C_Dist_500_LN_5_LD_14_RN_6_RD_7_1.png","C_Dist_500_LN_7_LD_21_RN_20_RD_24_1.png","C_Dist_500_LN_7_LD_28_RN_12_RD_16_1.png","C_Dist_500_LN_7_LD_28_RN_9_RD_12_1.png","C_Dist_500_LN_9_LD_27_RN_20_RD_24_1.png"]],"dist500_I":[["I_Dist_500_LN_2_LD_3_RN_4_RD_24_0.png","I_Dist_500_LN_5_LD_6_RN_6_RD_18_0.png","I_Dist_500_LN_7_LD_8_RN_9_RD_24_0.png"],["I_Dist_500_LN_7_LD_21_RN_5_RD_6_1.png"]],"dist500_S":[["E_Dist_500_LN_6_LD_8_RN_6_RD_24_0.png"],["E_Dist_500_LN_2_LD_12_RN_2_RD_3_1.png","E_Dist_500_LN_6_LD_24_RN_6_RD_8_1.png"]]}},{"start_time":1551899648454,"click_time":1551899652193,"finger_time":1551899650474,"fix_duration":460.4438656650892,"trial":1,"RT":2020,"MT":1719,"sideResp":1,"stimulus":[],"xmouse":[808,808,808,808,808,808,808,808,808,808,808,808,808,808,808,808,808,808,808,808,808,808,808,808,808,808,808,808,808,808,808,808,808,808,808,808,808,808,808,808,808,808,808,808,808,808,808,808,808,808,808,808,808,808,808,808,808,808,808,808,808,808,808,808,808,808,808,808,808,808,808,808,808,808,808,808,808,808,808,808,808,808,808,808,808,808,808,808,808,808,808,808,808,808,808,808,808,808,803,798,790,784,784,784,784,784,784,784,783,783,783,783,774,766,759,753,747,745,745,744,744,744,744,744,744,744,744,740,736,732,729,727,727,727,727,727,727,727,727,727,727,727,727,727,727,727,727,727,727,727,721,716,714,714,714,714,714,714,714,714,714,714,713,710,700,686,660,649,643,643,642,638,625,623,623,623,615,606,590,577,564,541,537,535,527,512,499],"ymouse":[498,498,498,498,498,498,498,498,498,498,498,498,498,498,498,498,498,498,498,498,498,498,498,498,498,498,498,498,498,498,498,498,498,498,498,498,498,498,498,498,498,498,498,498,498,498,498,498,498,498,498,498,498,498,498,498,498,498,498,498,498,498,498,498,498,498,498,498,498,498,498,498,498,498,498,498,498,498,498,498,498,498,498,498,498,498,498,498,498,498,498,498,498,498,498,498,498,498,488,476,465,456,456,456,456,456,456,456,455,455,455,455,435,419,403,386,362,351,345,340,339,338,338,338,338,338,337,324,312,303,296,293,293,293,293,293,292,292,292,292,292,291,281,274,272,271,271,271,267,260,250,235,230,229,228,228,228,228,220,215,211,206,204,200,190,180,162,156,153,153,152,149,140,139,138,138,134,130,124,119,115,108,106,106,104,101,96],"timestamp_mouse":[19,39,68,79,99,119,139,159,179,199,219,239,259,280,299,319,339,359,379,399,421,440,459,479,499,519,539,559,579,599,619,640,659,679,699,719,739,759,779,799,819,839,859,879,899,919,940,958,979,999,1019,1040,1059,1079,1099,1119,1139,1159,1179,1199,1219,1239,1259,1279,1299,1319,1339,1359,1379,1399,1419,1439,1460,1479,1499,1519,1539,1559,1579,1599,1620,1639,1659,1679,1699,1719,1739,1759,1779,1799,1819,1840,1860,1879,1899,1919,1939,1959,1979,2000,2020,2040,2059,2079,2099,2119,2139,2159,2179,2199,2219,2239,2260,2279,2299,2319,2340,2359,2379,2399,2420,2440,2459,2480,2499,2519,2540,2559,2579,2599,2619,2640,2659,2679,2699,2719,2739,2759,2779,2799,2819,2840,2860,2879,2899,2920,2939,2960,2979,3000,3019,3041,3059,3080,3100,3120,3139,3159,3179,3199,3219,3240,3259,3280,3299,3320,3341,3359,3380,3399,3419,3439,3460,3479,3499,3519,3540,3559,3579,3599,3620,3641,3659,3680,3700,3719,3739],"xSR":741.5,"ySR":469.95,"xT1":424.9,"yT1":0,"xT2":1058.1,"yT2":0,"toosoon":0,"cond_shown":"Congruent","ratio_trial":100,"L_num":10,"L_den":25,"R_num":3,"R_den":10,"correct_side":1,"subjID":"isabellaseguracardozo9","gender":"1","school":"6","age":"11"},{"start_time":1551899655446,"click_time":1551899657593,"finger_time":1551899656913,"fix_duration":851.4833200294897,"trial":2,"RT":1467,"MT":680,"sideResp":1,"stimulus":[],"xmouse":[796,796,796,796,796,796,796,796,796,796,796,796,796,796,796,796,796,796,796,796,796,796,796,796,796,796,796,796,796,796,796,796,796,796,796,796,796,796,796,796,796,796,796,796,796,796,796,796,796,796,796,796,796,796,796,796,796,796,796,796,796,796,796,796,796,796,796,796,796,796,793,787,782,775,768,759,746,725,669,648,631,626,622,618,618,617,616,616,614,605,582,562,545,529,524,524,524,523,523,529,531,531,531,531,531,532,528,521],"ymouse":[517,517,517,517,517,517,517,517,517,517,517,517,517,517,517,517,517,517,517,517,517,517,517,517,517,517,517,517,517,517,517,517,517,517,517,517,517,517,517,517,517,517,517,517,517,517,517,517,517,517,517,517,517,517,517,517,517,517,517,517,517,517,517,517,517,517,517,517,517,517,509,496,484,465,451,440,417,382,296,265,239,233,230,225,225,225,223,222,218,203,180,162,149,142,140,140,140,140,140,134,133,133,133,133,133,119,101,85],"timestamp_mouse":[11,28,47,68,87,107,127,147,167,187,207,227,247,267,288,307,327,347,367,387,407,427,447,467,487,507,527,547,567,587,607,627,648,667,687,708,728,747,767,787,807,827,847,867,888,907,927,947,967,987,1007,1027,1047,1067,1087,1107,1127,1147,1167,1187,1207,1227,1247,1267,1287,1307,1327,1347,1367,1387,1407,1427,1448,1467,1487,1507,1527,1547,1567,1587,1608,1627,1647,1668,1687,1708,1728,1747,1768,1787,1807,1827,1847,1867,1887,1907,1927,1947,1967,1987,2007,2027,2047,2067,2087,2107,2127,2147],"xSR":741.5,"ySR":469.95,"xT1":424.9,"yT1":0,"xT2":1058.1,"yT2":0,"toosoon":0,"cond_shown":"Congruent","ratio_trial":300,"L_num":20,"L_den":25,"R_num":13,"R_den":26,"correct_side":1,"subjID":"isabellaseguracardozo9","gender":"1","school":"6","age":"11"},{"start_time":1551899660841,"click_time":1551899662714,"finger_time":1551899662294,"fix_duration":1446.5854455380766,"trial":3,"RT":1453,"MT":420,"sideResp":1,"stimulus":[],"xmouse":[807,807,807,807,807,807,807,807,807,807,807,807,807,807,807,807,807,807,807,807,807,807,807,807,807,807,807,807,807,807,807,807,807,807,807,807,807,807,807,807,807,807,807,807,807,807,807,807,807,807,807,807,807,807,807,807,807,807,807,807,807,807,807,807,807,807,807,807,807,807,791,760,734,715,689,680,676,669,655,637,629,623,620,619,610,600,589,582,576,569,560,547,533,522],"ymouse":[507,507,507,507,507,507,507,507,507,507,507,507,507,507,507,507,507,507,507,507,507,507,507,507,507,507,507,507,507,507,507,507,507,507,507,507,507,507,507,507,507,507,507,507,507,507,507,507,507,507,507,507,507,507,507,507,507,507,507,507,507,507,507,507,507,507,507,507,507,507,498,477,458,442,390,353,325,300,267,230,217,208,204,202,191,180,169,159,150,138,126,111,96,88],"timestamp_mouse":[12,32,54,73,92,112,132,152,172,192,212,232,252,272,292,312,332,352,373,392,412,432,452,473,492,512,532,552,573,592,612,632,652,672,692,712,732,751,773,791,811,831,851,871,892,911,932,952,973,992,1012,1032,1053,1072,1093,1112,1132,1152,1172,1192,1213,1232,1253,1272,1292,1312,1332,1352,1372,1392,1413,1432,1453,1472,1493,1512,1532,1553,1572,1592,1612,1632,1653,1673,1692,1712,1732,1752,1772,1792,1813,1832,1853,1872],"xSR":741.5,"ySR":469.95,"xT1":424.9,"yT1":0,"xT2":1058.1,"yT2":0,"toosoon":0,"cond_shown":"Incongruent","ratio_trial":300,"L_num":7,"L_den":10,"R_num":8,"R_den":20,"correct_side":1,"subjID":"isabellaseguracardozo9","gender":"1","school":"6","age":"11"},{"start_time":1551899664854,"click_time":1551899671134,"finger_time":1551899666414,"fix_duration":919.1404549160321,"trial":4,"RT":1560,"MT":4720,"sideResp":2,"stimulus":[],"xmouse":[776,776,776,776,776,776,776,776,776,776,776,776,776,776,776,776,776,776,776,776,776,776,776,776,776,776,776,776,776,776,776,776,776,776,776,776,776,776,776,776,776,776,776,776,776,776,776,776,776,776,776,776,776,776,776,776,776,776,776,776,776,776,776,776,776,776,776,776,776,776,776,782,791,793,793,794,810,835,859,880,880,880,880,880,886,906,922,936,943,947,951,954,962,963,963,967,968,972,985,992,992,992,992,992,992,992,992,992,992,992,994,1006,1010,1014,1015,1017,1028,1035,1045,1045,1045,1045,1045,1044,1019,995,981,972,969,957,938,925,914,908,902,899,896,889,881,877,875,874,874,874,871,859,838,826,817,814,814,814,814,814,814,814,814,814,814,814,814,814,814,813,804,801,801,801,802,803,804,804,805,805,805,805,805,805,805,805,805,805,805,805,805,805,805,805,805,805,805,805,805,805,806,806,806,806,806,806,806,806,807,810,810,811,811,812,813,814,816,822,831,844,853,854,855,856,858,860,862,863,863,864,865,866,867,869,872,872,872,868,866,862,860,859,859,858,858,857,855,849,840,829,792,779,768,760,754,725,687,645,624,604,592,583,574,563,556,556,556,556,556,556,556,556,556,556,556,556,556,556,556,556,556,556,555,559,568,594,617,645,678,715,733,738,748,770,803,886,916,924,930,930,930,930,933,949,958,976,976,976,978,982,995,995,995,995,995,998,1015,1038,1056,1074],"ymouse":[494,494,494,494,494,494,494,494,494,494,494,494,494,494,494,494,494,494,494,494,494,494,494,494,494,494,494,494,494,494,494,494,494,494,494,494,494,494,494,494,494,494,494,494,494,494,494,494,494,494,494,494,494,494,494,494,494,494,494,494,494,494,494,494,494,494,494,494,494,494,493,492,489,489,489,489,480,467,453,438,438,438,438,438,426,402,382,369,359,353,346,339,330,327,326,324,323,323,322,322,322,322,322,322,322,322,322,322,322,322,318,304,296,287,281,274,259,250,237,237,237,237,236,236,236,239,244,252,255,285,317,340,359,375,386,395,404,414,423,430,433,433,434,434,436,442,448,452,455,456,456,456,456,456,456,456,456,456,456,456,456,456,456,456,466,475,482,486,488,494,497,498,499,499,499,499,501,502,505,505,505,505,505,505,505,505,505,505,505,505,505,504,503,503,502,502,502,502,502,502,502,501,499,496,494,493,493,490,489,487,482,476,466,451,441,440,440,438,435,428,424,419,417,415,407,405,402,391,363,355,344,334,325,309,305,303,303,302,302,302,300,296,287,280,250,236,225,220,214,188,171,148,135,119,106,103,100,98,97,97,97,97,97,97,97,97,97,97,97,97,97,97,97,97,97,97,97,93,87,80,82,85,88,88,88,86,86,86,86,91,95,96,97,97,97,97,97,94,93,91,91,91,90,88,86,86,86,86,86,86,86,86,86,88],"timestamp_mouse":[19,39,63,79,99,119,139,159,179,199,219,239,259,279,299,319,339,359,379,399,419,439,459,480,500,519,539,559,579,600,619,639,659,679,699,719,739,759,779,799,819,839,859,879,899,919,940,959,979,999,1019,1039,1059,1079,1099,1119,1139,1159,1179,1199,1219,1239,1259,1279,1299,1319,1339,1359,1380,1400,1419,1439,1459,1479,1499,1520,1540,1560,1580,1599,1621,1639,1660,1680,1699,1719,1739,1760,1780,1799,1819,1839,1859,1880,1899,1920,1940,1959,1980,1999,2020,2040,2060,2079,2099,2119,2139,2159,2179,2199,2219,2239,2260,2281,2299,2319,2339,2359,2380,2399,2419,2440,2460,2480,2499,2519,2539,2559,2581,2600,2620,2639,2660,2679,2699,2720,2739,2759,2781,2799,2819,2839,2859,2880,2899,2920,2940,2959,2980,2999,3020,3039,3059,3080,3098,3119,3139,3159,3179,3199,3219,3240,3259,3279,3299,3319,3339,3359,3379,3399,3419,3439,3459,3479,3499,3519,3539,3559,3580,3599,3619,3639,3659,3679,3699,3719,3739,3759,3779,3799,3820,3840,3859,3879,3900,3919,3939,3959,3979,3999,4019,4039,4060,4079,4099,4119,4139,4159,4179,4200,4219,4240,4259,4280,4299,4320,4339,4359,4379,4399,4419,4440,4459,4480,4499,4519,4539,4560,4581,4599,4619,4640,4659,4681,4699,4719,4739,4759,4780,4800,4819,4840,4859,4880,4898,4919,4939,4960,4979,5000,5019,5040,5060,5079,5100,5119,5139,5160,5180,5199,5219,5239,5260,5279,5299,5319,5339,5358,5379,5400,5419,5439,5459,5479,5500,5519,5539,5560,5579,5600,5619,5639,5659,5679,5698,5719,5739,5760,5779,5799,5819,5840,5859,5879,5900,5920,5939,5960,5979,5999,6020,6039,6059,6080,6100,6120,6139,6159,6179,6199,6220,6240,6259,6279],"xSR":741.5,"ySR":469.95,"xT1":424.9,"yT1":0,"xT2":1058.1,"yT2":0,"toosoon":0,"cond_shown":"Incongruent","ratio_trial":100,"L_num":10,"L_den":25,"R_num":8,"R_den":16,"correct_side":2,"subjID":"isabellaseguracardozo9","gender":"1","school":"6","age":"11"},{"start_time":1551899673963,"click_time":1551899677353,"finger_time":1551899676853,"fix_duration":407.02954257201986,"trial":5,"RT":2890,"MT":500,"sideResp":1,"stimulus":[],"xmouse":[759,759,759,759,759,759,759,759,759,759,759,759,759,759,759,759,759,759,759,759,759,759,759,759,759,759,759,759,759,759,759,759,759,759,759,759,759,759,759,759,759,759,759,759,759,759,759,759,759,759,759,759,759,759,759,759,759,759,759,759,759,759,759,759,759,759,759,759,759,759,759,759,759,759,759,759,759,759,759,759,759,759,759,759,759,759,759,759,759,759,759,759,759,759,759,759,759,759,759,759,759,759,759,759,759,759,759,759,759,759,759,759,759,759,759,759,759,759,759,759,759,759,759,759,759,759,759,759,759,759,759,759,759,759,759,759,759,759,759,759,759,759,757,751,733,697,683,668,659,645,626,608,600,595,593,593,593,593,593,593,582,581,581,581,581,577,561,546,530,518],"ymouse":[511,511,511,511,511,511,511,511,511,511,511,511,511,511,511,511,511,511,511,511,511,511,511,511,511,511,511,511,511,511,511,511,511,511,511,511,511,511,511,511,511,511,511,511,511,511,511,511,511,511,511,511,511,511,511,511,511,511,511,511,511,511,511,511,511,511,511,511,511,511,511,511,511,511,511,511,511,511,511,511,511,511,511,511,511,511,511,511,511,511,511,511,511,511,511,511,511,511,511,511,511,511,511,511,511,511,511,511,511,511,511,511,511,511,511,511,511,511,511,511,511,511,511,511,511,511,511,511,511,511,511,511,511,511,511,511,511,511,511,511,511,511,507,487,435,365,349,340,337,305,255,216,197,179,166,164,164,164,164,163,139,137,137,137,137,132,122,111,103,96],"timestamp_mouse":[12,35,51,70,90,110,131,150,171,190,210,230,250,270,290,310,330,350,370,390,410,430,451,470,490,510,530,550,570,590,610,630,650,670,690,711,730,750,771,791,810,829,851,869,889,909,930,951,970,990,1010,1030,1050,1070,1090,1110,1130,1151,1170,1190,1210,1230,1250,1270,1290,1311,1330,1350,1370,1390,1410,1430,1450,1470,1490,1511,1530,1550,1570,1590,1610,1630,1650,1670,1691,1710,1730,1751,1771,1790,1810,1830,1850,1870,1890,1910,1930,1950,1970,1990,2010,2030,2050,2070,2090,2110,2130,2150,2170,2190,2210,2231,2250,2270,2290,2310,2330,2350,2370,2390,2410,2430,2450,2470,2490,2510,2531,2550,2571,2590,2610,2630,2650,2670,2691,2711,2730,2750,2770,2790,2810,2830,2851,2871,2890,2910,2930,2950,2971,2992,3010,3030,3050,3070,3091,3110,3130,3151,3170,3190,3210,3231,3250,3270,3292,3309,3330,3351,3370,3390],"xSR":741.5,"ySR":469.95,"xT1":424.9,"yT1":0,"xT2":1058.1,"yT2":0,"toosoon":0,"cond_shown":"Incongruent","ratio_trial":300,"L_num":4,"L_den":20,"R_num":2,"R_den":4,"correct_side":2,"subjID":"isabellaseguracardozo9","gender":"1","school":"6","age":"11"},{"start_time":1551899679884,"click_time":1551899681633,"finger_time":1551899681253,"fix_duration":330.4790643488785,"trial":6,"RT":1369,"MT":380,"sideResp":1,"stimulus":[],"xmouse":[809,809,809,809,809,809,809,809,809,809,809,809,809,809,809,809,809,809,809,809,809,809,809,809,809,809,809,809,809,809,809,809,809,809,809,809,809,809,809,809,809,809,809,809,809,809,809,809,809,809,809,809,809,809,809,809,809,808,808,807,807,807,807,801,782,776,772,768,764,754,747,739,728,719,702,687,670,644,632,623,619,611,600,587,558,545,527,513],"ymouse":[506,506,506,506,506,506,506,506,506,506,506,506,506,506,506,506,506,506,506,506,506,506,506,506,506,506,506,506,506,506,506,506,506,506,506,506,506,506,506,506,506,506,506,506,506,506,506,506,506,506,506,506,506,506,506,506,506,505,504,504,504,504,504,501,489,484,480,474,467,452,444,435,423,410,367,328,285,235,214,197,188,179,162,142,101,87,73,63],"timestamp_mouse":[12,30,49,69,90,109,129,149,169,189,209,229,249,269,289,309,329,349,369,389,409,429,449,469,489,509,529,550,569,589,609,629,649,669,690,709,729,749,769,790,810,830,850,869,890,909,930,950,969,991,1009,1029,1049,1069,1089,1109,1129,1149,1170,1189,1209,1229,1249,1269,1289,1309,1330,1350,1369,1389,1410,1429,1450,1469,1489,1509,1530,1549,1569,1589,1609,1629,1650,1670,1690,1709,1729,1749],"xSR":741.5,"ySR":469.95,"xT1":424.9,"yT1":0,"xT2":1058.1,"yT2":0,"toosoon":0,"cond_shown":"Congruent","ratio_trial":300,"L_num":4,"L_den":5,"R_num":2,"R_den":4,"correct_side":1,"subjID":"isabellaseguracardozo9","gender":"1","school":"6","age":"11"},{"start_time":1551899683906,"click_time":1551899687494,"finger_time":1551899686593,"fix_duration":250,"trial":7,"RT":2687,"MT":901,"sideResp":1,"stimulus":[],"xmouse":[807,807,807,807,807,807,807,807,807,807,807,807,807,807,807,807,807,807,807,807,807,807,807,807,807,807,807,807,807,807,807,807,807,807,807,807,807,807,807,807,807,807,807,807,807,807,807,807,807,807,807,807,807,807,807,807,807,807,808,808,808,808,808,808,808,808,808,808,808,808,808,808,808,808,808,808,808,808,808,808,808,808,808,808,808,808,807,807,807,807,807,806,806,806,806,806,806,806,806,806,806,806,806,806,806,806,806,806,806,806,806,806,806,806,806,806,806,806,806,806,806,806,806,806,806,806,806,806,806,806,806,806,803,800,775,760,740,704,675,564,564,564,564,564,564,564,564,564,564,564,564,564,564,564,374,388,398,403,406,406,406,406,406,406,406,406,407,407,408,408,408,408,408,408,408,409,409,409,409,425],"ymouse":[500,500,500,500,500,500,500,500,500,500,500,500,500,500,500,500,500,500,500,500,500,500,500,500,500,500,500,500,500,500,500,500,500,500,500,500,500,500,500,500,500,500,500,500,500,500,500,500,500,500,500,500,500,500,500,500,500,500,500,500,500,500,500,500,500,500,500,500,500,500,500,500,499,498,498,498,498,498,498,498,498,498,498,498,498,497,496,494,493,491,489,488,488,488,488,488,488,488,488,488,488,488,488,488,488,488,488,488,488,488,488,488,488,488,488,488,488,488,488,488,487,487,487,487,487,487,487,487,487,487,487,487,481,476,436,401,341,260,185,20,20,20,20,20,20,20,20,20,20,20,20,20,20,20,10,24,32,33,33,33,33,33,33,33,33,33,33,33,33,33,33,33,33,33,33,33,33,33,33,35],"timestamp_mouse":[9,32,47,67,87,107,127,147,168,187,208,227,248,267,287,308,327,348,367,387,408,427,447,467,487,507,527,547,567,588,607,627,647,667,687,707,727,749,767,788,807,827,847,867,887,907,927,947,968,987,1007,1027,1047,1068,1087,1107,1127,1147,1168,1187,1207,1227,1247,1267,1287,1307,1327,1347,1368,1387,1407,1427,1447,1467,1487,1507,1527,1547,1568,1587,1607,1627,1647,1668,1688,1708,1727,1748,1767,1788,1807,1827,1848,1867,1888,1907,1928,1947,1967,1988,2007,2028,2047,2068,2087,2107,2128,2147,2167,2187,2207,2227,2247,2267,2287,2307,2327,2347,2368,2387,2407,2427,2447,2467,2487,2507,2528,2547,2567,2587,2607,2628,2647,2667,2687,2707,2727,2747,2767,2788,2807,2828,2847,2867,2887,2907,2928,2947,2968,2987,3007,3027,3047,3067,3087,3107,3127,3148,3169,3187,3208,3227,3247,3267,3286,3306,3328,3347,3367,3388,3408,3428,3447,3467,3488,3507,3527,3547,3568,3588],"xSR":741.5,"ySR":469.95,"xT1":424.9,"yT1":0,"xT2":1058.1,"yT2":0,"toosoon":0,"cond_shown":"Incongruent","ratio_trial":300,"L_num":1,"L_den":2,"R_num":2,"R_den":10,"correct_side":1,"subjID":"isabellaseguracardozo9","gender":"1","school":"6","age":"11"},{"start_time":1551899689785,"click_time":1551899694013,"finger_time":1551899692593,"fix_duration":710.4013644905193,"trial":8,"RT":2808,"MT":1420,"sideResp":1,"stimulus":[],"xmouse":[773,776,777,778,778,778,778,778,778,778,778,778,778,778,778,778,778,778,778,778,778,778,778,778,778,778,778,778,778,778,778,778,778,778,778,778,778,778,778,778,778,778,778,778,778,778,778,778,778,778,778,778,778,778,778,778,778,778,778,778,778,778,778,778,778,778,778,778,778,778,778,778,778,778,778,778,778,778,778,778,778,778,778,778,778,778,778,778,778,778,778,778,778,778,778,778,778,778,778,778,778,778,778,778,778,778,778,778,778,778,778,778,778,778,778,778,778,778,778,778,778,778,778,778,778,778,778,778,778,778,778,778,778,778,778,778,778,775,771,769,767,767,767,767,765,763,763,763,763,763,756,755,748,741,736,730,717,692,668,640,592,590,590,590,590,588,584,581,580,579,578,578,578,578,578,578,578,581,595,613,632,632,632,632,632,632,625,618,613,609,607,607,607,607,607,603,600,597,590,584,577,577,577,574,568,559,541,536,533,531,526,524],"ymouse":[519,519,519,519,519,519,519,519,519,519,519,519,519,519,519,519,519,519,519,519,519,519,519,519,519,519,519,519,519,519,519,519,519,519,519,519,519,519,519,519,519,519,519,519,519,519,519,519,519,519,519,519,519,519,519,519,519,519,519,519,519,519,519,519,519,519,519,519,519,519,519,519,519,519,519,519,519,519,519,519,519,519,519,519,519,519,519,519,519,519,519,519,519,519,519,519,519,519,519,519,519,519,519,519,519,519,519,519,519,519,519,519,519,519,519,519,519,519,519,519,519,519,519,519,519,519,519,519,519,519,519,519,519,519,519,511,496,484,475,470,455,439,419,398,384,357,349,345,345,342,327,324,312,300,292,283,263,243,231,223,216,215,215,215,215,214,209,207,205,205,204,204,204,204,204,204,204,202,195,188,179,179,179,179,179,179,181,181,176,172,170,170,170,170,169,162,157,157,157,156,155,155,155,152,145,136,121,118,115,111,101,97],"timestamp_mouse":[9,28,48,72,88,109,129,149,168,188,208,228,248,269,288,308,329,348,368,388,408,428,448,468,488,508,528,548,568,588,609,628,648,668,688,708,728,749,768,788,808,828,848,868,888,908,928,948,968,988,1008,1028,1048,1068,1088,1108,1128,1148,1168,1188,1208,1228,1248,1268,1288,1309,1328,1348,1368,1388,1408,1428,1448,1468,1488,1508,1528,1548,1568,1588,1608,1629,1648,1668,1689,1708,1728,1749,1768,1788,1809,1828,1848,1869,1888,1908,1928,1948,1969,1988,2008,2028,2048,2068,2088,2109,2128,2148,2168,2188,2208,2228,2249,2269,2288,2309,2328,2348,2369,2388,2408,2429,2448,2468,2489,2508,2529,2548,2568,2588,2608,2628,2648,2668,2688,2708,2728,2748,2768,2789,2808,2828,2848,2869,2888,2909,2928,2948,2968,2989,3009,3028,3048,3069,3088,3109,3128,3148,3168,3189,3210,3227,3248,3268,3289,3309,3328,3348,3369,3389,3408,3428,3449,3468,3488,3509,3528,3548,3569,3589,3609,3628,3648,3668,3688,3708,3728,3748,3768,3789,3809,3828,3849,3868,3889,3909,3928,3948,3968,3989,4010,4028,4048,4068,4088,4109,4128,4148,4169,4189,4210,4228],"xSR":741.5,"ySR":469.95,"xT1":424.9,"yT1":0,"xT2":1058.1,"yT2":0,"toosoon":0,"cond_shown":"Incongruent","ratio_trial":200,"L_num":3,"L_den":4,"R_num":11,"R_den":20,"correct_side":1,"subjID":"isabellaseguracardozo9","gender":"1","school":"6","age":"11"},{"start_time":1551899697488,"click_time":1551899699613,"finger_time":1551899699073,"fix_duration":1193.410022347378,"trial":9,"RT":1585,"MT":540,"sideResp":1,"stimulus":[],"xmouse":[825,825,825,825,825,825,825,825,825,825,825,825,825,825,825,825,825,825,825,825,825,825,825,825,825,825,825,825,825,825,825,825,825,825,825,825,825,825,825,825,825,825,825,825,825,825,825,825,825,825,825,825,825,825,825,825,825,825,825,825,825,825,825,825,825,825,825,825,825,824,821,818,818,818,818,816,813,810,806,798,788,723,687,670,655,642,617,608,598,584,576,553,540,528,524,524,524,524,524,524,524,524,523,521,517,516,515],"ymouse":[499,499,499,499,499,499,499,499,499,499,499,499,499,499,499,499,499,499,499,499,499,499,499,499,499,499,499,499,499,499,499,499,499,499,499,499,499,499,499,499,499,499,499,499,499,499,499,499,499,499,499,499,499,499,499,499,499,499,499,499,499,499,499,499,499,499,499,499,499,497,494,492,492,492,491,489,485,482,478,469,454,377,334,309,292,277,244,231,218,205,198,185,177,168,164,164,164,164,164,163,162,148,137,129,119,110,97],"timestamp_mouse":[10,41,45,65,85,105,125,145,165,185,204,224,245,265,285,305,325,345,364,385,405,425,445,466,484,506,525,545,565,585,606,624,645,666,685,705,726,745,766,786,805,824,845,865,885,905,925,945,965,984,1004,1025,1045,1065,1086,1105,1125,1145,1165,1186,1205,1225,1244,1265,1285,1305,1324,1345,1365,1385,1405,1424,1445,1465,1485,1505,1524,1545,1566,1585,1606,1625,1645,1664,1685,1706,1726,1745,1764,1785,1806,1825,1845,1865,1885,1906,1926,1945,1965,1985,2005,2026,2044,2066,2085,2105,2124],"xSR":741.5,"ySR":469.95,"xT1":424.9,"yT1":0,"xT2":1058.1,"yT2":0,"toosoon":0,"cond_shown":"Congruent","ratio_trial":100,"L_num":3,"L_den":6,"R_num":2,"R_den":5,"correct_side":1,"subjID":"isabellaseguracardozo9","gender":"1","school":"6","age":"11"},{"start_time":1551899701650,"click_time":1551899703633,"finger_time":1551899702873,"fix_duration":715.0657982080343,"trial":10,"RT":1223,"MT":760,"sideResp":1,"stimulus":[],"xmouse":[782,782,782,782,782,782,782,782,782,782,782,782,782,782,782,782,782,782,782,782,782,782,782,782,782,782,782,782,782,782,782,782,782,782,782,782,782,782,784,784,784,787,789,790,791,791,791,791,791,791,791,791,791,791,791,791,791,791,792,793,791,781,759,713,699,689,681,677,671,666,663,661,660,651,645,640,633,628,622,610,605,601,599,599,599,596,589,582,567,559,558,555,549,541,533,529,527,527,527,518],"ymouse":[507,507,507,507,507,507,507,507,507,507,507,507,507,507,507,507,507,507,507,507,507,507,507,507,507,507,507,507,507,507,507,507,507,507,507,507,507,507,508,508,508,508,508,508,508,508,508,508,508,508,508,508,508,508,508,508,508,508,508,500,484,454,408,312,282,253,232,214,184,172,167,164,162,159,158,155,152,150,146,140,137,133,132,129,124,118,105,93,72,63,62,61,58,57,57,57,57,57,57,58],"timestamp_mouse":[11,23,43,64,84,103,123,143,163,183,203,222,242,263,283,302,323,343,363,382,403,423,443,463,483,503,523,543,563,583,603,623,642,662,684,703,723,743,764,783,803,823,843,863,883,904,923,943,963,983,1002,1023,1043,1062,1082,1103,1123,1143,1163,1183,1204,1223,1243,1265,1282,1303,1323,1342,1364,1383,1404,1422,1443,1464,1483,1504,1524,1544,1562,1583,1604,1623,1644,1664,1683,1703,1724,1742,1762,1783,1803,1822,1843,1863,1884,1903,1923,1943,1963,1982],"xSR":741.5,"ySR":469.95,"xT1":424.9,"yT1":0,"xT2":1058.1,"yT2":0,"toosoon":0,"cond_shown":"Incongruent","ratio_trial":200,"L_num":3,"L_den":10,"R_num":1,"R_den":2,"correct_side":2,"subjID":"isabellaseguracardozo9","gender":"1","school":"6","age":"11"},{"start_time":1551899706920,"click_time":1551899708653,"finger_time":1551899708313,"fix_duration":1305.7639781529028,"trial":11,"RT":1393,"MT":340,"sideResp":1,"stimulus":[],"xmouse":[814,814,814,814,814,814,814,814,814,814,814,814,814,814,814,814,814,814,814,814,814,814,814,814,814,814,814,814,814,814,814,814,814,814,814,814,814,814,814,814,814,814,814,814,814,814,814,814,814,814,814,814,814,814,814,814,814,814,814,814,814,814,814,814,814,814,814,808,797,760,684,663,650,650,650,648,636,626,618,611,605,602,596,584,571,538,522],"ymouse":[502,502,502,502,502,502,502,502,502,502,502,502,502,502,502,502,502,502,502,502,502,502,502,502,502,502,502,502,502,502,502,502,502,502,502,502,502,502,502,502,502,502,502,502,502,502,502,502,502,502,502,502,502,502,502,502,502,502,502,502,502,502,502,502,502,502,502,498,485,442,335,300,273,262,252,239,211,195,184,171,159,154,146,123,103,69,58],"timestamp_mouse":[13,33,56,72,93,113,134,152,174,194,212,232,254,272,293,313,333,353,373,393,413,432,452,472,492,512,532,552,572,592,614,633,652,674,693,713,733,753,772,793,813,833,853,873,892,913,933,953,973,993,1012,1033,1053,1073,1093,1113,1133,1153,1173,1192,1212,1232,1253,1273,1293,1313,1333,1353,1374,1393,1414,1433,1454,1474,1494,1513,1534,1553,1574,1593,1613,1633,1653,1672,1693,1713,1733],"xSR":741.5,"ySR":469.95,"xT1":424.9,"yT1":0,"xT2":1058.1,"yT2":0,"toosoon":0,"cond_shown":"Congruent","ratio_trial":200,"L_num":8,"L_den":15,"R_num":3,"R_den":9,"correct_side":1,"subjID":"isabellaseguracardozo9","gender":"1","school":"6","age":"11"},{"start_time":1551899717398,"click_time":1551899720393,"finger_time":1551899718453,"fix_duration":1304.0080329137625,"trial":12,"RT":1055,"MT":1940,"sideResp":2,"stimulus":[],"xmouse":[784,784,784,784,784,784,784,784,784,784,784,784,784,784,784,784,784,784,784,784,784,784,784,784,784,784,784,784,784,784,784,784,784,784,784,784,784,784,784,784,784,784,784,784,784,784,784,784,785,801,816,830,839,839,839,839,839,839,839,839,839,839,839,839,839,839,839,839,839,839,839,839,839,839,839,834,828,824,824,824,824,825,837,848,850,851,851,852,852,852,852,856,893,973,1013,1022,1023,1031,1033,1033,1037,1037,1041,1042,1042,1042,1042,1042,1042,1043,1043,1048,1053,1062,1069,1070,1074,1077,1081,1083,1084,1084,1084,1089,1094,1096,1098,1098,1098,1098,1098,1098,1098,1098,1098,1099,1099,1099,1099,1099,1099,1099,1099,1099,1099,1099,1099,1099,1099,1099],"ymouse":[518,518,518,518,518,518,518,518,518,518,518,518,518,518,518,518,518,518,518,518,518,518,518,518,518,518,518,518,518,518,518,518,518,518,518,518,518,518,518,518,518,518,518,518,518,518,518,518,518,504,487,474,469,469,469,469,469,469,469,469,469,469,469,469,469,469,469,469,469,469,469,469,469,469,469,466,462,459,459,459,459,457,450,443,442,441,439,439,437,435,434,426,388,340,308,297,294,281,276,276,262,261,247,239,237,231,225,225,211,206,202,194,187,178,170,168,164,159,147,140,139,139,138,127,121,118,117,115,115,115,115,115,115,115,112,109,109,106,105,105,105,104,103,103,103,103,103,102,102,98],"timestamp_mouse":[15,35,55,75,95,115,135,155,175,195,215,235,255,275,294,315,335,356,375,395,415,435,455,474,495,516,535,555,575,595,616,635,655,675,695,715,735,755,775,795,815,835,854,875,895,914,936,956,976,995,1016,1036,1055,1074,1096,1116,1136,1155,1175,1195,1216,1236,1256,1275,1295,1315,1335,1355,1376,1395,1415,1436,1455,1474,1495,1515,1534,1555,1574,1595,1615,1635,1656,1674,1695,1715,1736,1756,1774,1795,1815,1835,1855,1874,1895,1914,1936,1956,1975,1995,2015,2035,2055,2075,2095,2116,2161,2161,2175,2195,2216,2235,2255,2275,2294,2314,2334,2356,2375,2396,2416,2435,2454,2474,2495,2515,2536,2556,2575,2595,2615,2634,2654,2676,2696,2715,2735,2755,2774,2795,2815,2835,2855,2874,2895,2915,2935,2955,2975,2995],"xSR":741.5,"ySR":469.95,"xT1":424.9,"yT1":0,"xT2":1058.1,"yT2":0,"toosoon":0,"cond_shown":"Congruent","ratio_trial":200,"L_num":5,"L_den":10,"R_num":14,"R_den":20,"correct_side":2,"subjID":"isabellaseguracardozo9","gender":"1","school":"6","age":"11"},{"start_time":1551899725099,"click_time":1551899729853,"finger_time":1551899727393,"fix_duration":1483.4071380271728,"trial":13,"RT":2294,"MT":2460,"sideResp":2,"stimulus":[],"xmouse":[783,783,783,783,783,783,783,783,783,783,783,783,783,783,783,783,783,783,783,783,783,783,783,783,783,783,783,783,783,783,783,783,783,783,783,783,783,783,783,783,783,783,783,783,783,783,783,783,783,783,783,783,783,783,783,783,783,783,783,783,783,783,783,783,783,783,783,783,783,783,783,783,783,783,783,783,783,783,783,783,783,783,783,783,783,783,783,783,783,783,783,783,783,783,783,783,783,783,783,783,783,783,783,783,783,783,783,783,783,783,783,783,782,782,770,748,722,694,670,638,628,619,610,590,575,563,551,546,544,544,544,544,544,541,540,540,540,540,540,540,540,540,540,540,540,540,540,540,540,540,540,540,540,540,540,540,540,540,540,540,538,536,533,531,529,529,529,529,529,529,529,527,527,527,527,527,527,527,527,527,529,540,551,578,594,618,629,642,653,673,680,692,706,745,775,795,808,818,828,833,838,850,867,886,925,934,940,943,946,956,962,968,977,987,990,992,994,999,1008,1038,1046,1047,1047,1047,1048,1054,1057,1057,1057,1057,1057,1057,1057,1057,1057,1057,1058,1059],"ymouse":[513,513,513,513,513,513,513,513,513,513,513,513,513,513,513,513,513,513,513,513,513,513,513,513,513,513,513,513,513,513,513,513,513,513,513,513,513,513,513,513,513,513,513,513,513,513,513,513,513,513,513,513,513,513,513,513,513,513,513,513,513,513,513,513,513,513,513,513,513,513,513,513,513,513,513,513,513,513,513,513,513,513,513,513,513,513,513,513,513,513,513,513,513,513,513,513,513,513,513,513,513,513,513,513,513,513,513,513,513,513,513,513,506,493,457,417,381,349,316,251,225,199,180,152,140,134,129,127,126,126,126,126,126,128,133,135,137,138,138,138,138,138,138,138,138,138,138,138,138,138,138,138,138,138,138,138,138,138,138,138,136,133,128,126,124,124,124,124,124,125,126,127,127,129,129,129,129,129,129,129,130,133,135,145,153,163,168,174,179,187,190,192,196,203,209,214,217,218,218,218,216,212,203,194,178,171,168,165,163,155,152,148,141,129,125,123,119,113,106,88,84,82,82,82,82,81,80,80,80,80,80,80,80,80,80,80,80,78],"timestamp_mouse":[15,34,55,74,95,114,134,154,174,194,214,234,254,273,293,315,334,354,375,394,414,433,454,475,493,514,533,554,573,594,614,634,654,674,694,714,734,753,773,794,814,835,854,873,893,914,934,954,974,994,1015,1033,1054,1073,1094,1114,1134,1154,1173,1193,1214,1234,1254,1274,1294,1313,1333,1354,1374,1394,1414,1433,1454,1474,1494,1514,1535,1554,1574,1595,1614,1634,1654,1675,1694,1714,1734,1754,1774,1794,1815,1834,1854,1874,1894,1913,1934,1954,1974,1994,2014,2034,2054,2075,2094,2114,2134,2155,2174,2194,2214,2234,2254,2273,2294,2314,2334,2354,2374,2394,2414,2433,2454,2475,2493,2514,2534,2554,2575,2595,2614,2634,2654,2676,2694,2715,2733,2754,2774,2794,2814,2834,2854,2874,2894,2914,2934,2954,2974,2995,3014,3034,3054,3075,3095,3114,3134,3154,3175,3194,3213,3234,3254,3275,3294,3315,3334,3354,3375,3393,3414,3433,3454,3475,3494,3514,3534,3555,3575,3594,3614,3635,3654,3675,3693,3714,3734,3754,3773,3795,3814,3834,3855,3875,3893,3915,3933,3954,3975,3993,4014,4034,4054,4074,4094,4114,4134,4154,4174,4194,4214,4234,4254,4275,4294,4315,4335,4354,4373,4394,4415,4434,4454,4474,4494,4514,4534,4554,4574,4593,4614,4634,4653,4674,4694,4714,4733,4754],"xSR":741.5,"ySR":469.95,"xT1":424.9,"yT1":0,"xT2":1058.1,"yT2":0,"toosoon":0,"cond_shown":"Incongruent","ratio_trial":200,"L_num":1,"L_den":3,"R_num":2,"R_den":15,"correct_side":1,"subjID":"isabellaseguracardozo9","gender":"1","school":"6","age":"11"},{"start_time":1551899732787,"click_time":1551899735094,"finger_time":1551899734292,"fix_duration":973.7909177232343,"trial":14,"RT":1505,"MT":802,"sideResp":1,"stimulus":[],"xmouse":[801,801,801,801,801,801,801,801,801,801,801,801,801,801,801,801,801,801,801,801,801,801,801,801,801,801,801,801,801,801,801,801,801,801,801,801,801,801,801,801,801,801,801,801,801,801,801,801,801,801,801,801,801,801,801,801,801,801,801,801,801,801,801,801,801,801,801,801,801,801,801,801,801,804,814,896,959,1010,1012,1012,1012,1012,1012,1012,1012,1012,1012,1012,1012,1012,1012,1013,1015,1016,1016,1016,1016,1015,1009,1002,948,890,827,752,714,695,671,645,619,594,556,542,535,530,526,518],"ymouse":[493,493,493,493,493,493,493,493,493,493,493,493,493,493,493,494,494,494,494,494,494,494,494,494,494,494,494,494,494,494,494,494,494,494,494,494,494,494,494,494,494,494,494,494,494,494,494,494,494,494,494,494,494,494,494,494,494,494,494,494,494,494,494,494,494,494,494,494,494,494,494,494,494,494,486,409,366,334,332,332,332,332,332,332,332,332,332,332,332,332,332,327,320,313,313,306,303,297,286,276,238,208,176,147,130,121,108,95,84,72,58,55,54,54,54,54],"timestamp_mouse":[9,26,46,70,85,106,126,146,166,186,206,226,245,266,286,306,326,346,366,385,406,425,446,466,486,506,526,545,566,587,606,625,646,666,686,706,725,746,766,787,806,825,847,866,885,906,926,946,966,986,1006,1026,1045,1067,1086,1105,1126,1146,1166,1185,1206,1226,1246,1265,1287,1306,1326,1346,1365,1386,1406,1426,1446,1466,1486,1505,1526,1546,1567,1586,1606,1626,1646,1665,1685,1706,1726,1746,1767,1786,1806,1826,1846,1866,1886,1906,1925,1947,1966,1985,2006,2026,2046,2067,2086,2106,2126,2146,2165,2187,2206,2226,2246,2267,2287,2306],"xSR":741.5,"ySR":469.95,"xT1":424.9,"yT1":0,"xT2":1058.1,"yT2":0,"toosoon":0,"cond_shown":"Incongruent","ratio_trial":100,"L_num":6,"L_den":10,"R_num":11,"R_den":22,"correct_side":1,"subjID":"isabellaseguracardozo9","gender":"1","school":"6","age":"11"},{"start_time":1551899737975,"click_time":1551899739893,"finger_time":1551899739133,"fix_duration":678.4717725686455,"trial":15,"RT":1158,"MT":760,"sideResp":2,"stimulus":[],"xmouse":[839,839,839,839,839,839,839,839,839,839,839,839,839,839,839,839,839,839,839,839,839,839,839,839,839,839,839,839,839,839,839,839,839,839,839,839,839,839,839,839,839,839,839,839,839,839,839,839,839,839,839,839,839,839,839,839,839,840,842,842,842,842,842,842,842,842,842,858,880,903,928,951,953,966,978,991,1000,1010,1013,1014,1019,1021,1030,1037,1043,1049,1049,1053,1053,1055,1055,1055,1056,1056,1056,1057,1059],"ymouse":[518,518,518,518,518,518,518,518,518,518,518,518,518,518,518,518,518,518,518,518,518,518,518,518,518,518,518,518,518,518,518,518,518,518,518,518,518,518,518,518,518,518,518,518,518,518,518,518,518,518,518,518,518,518,518,518,518,514,510,509,507,503,498,493,489,482,469,405,356,314,267,229,223,209,191,176,168,157,153,149,141,136,125,116,108,102,102,97,96,96,96,96,94,94,94,93,92],"timestamp_mouse":[1,17,39,58,78,97,119,138,159,178,198,218,238,258,278,297,318,338,357,379,398,417,437,458,478,497,517,538,558,578,598,617,638,658,678,697,719,738,757,779,798,817,839,859,878,899,918,939,958,978,998,1018,1038,1058,1078,1097,1119,1139,1158,1179,1199,1219,1237,1259,1279,1299,1318,1337,1358,1378,1398,1419,1438,1458,1479,1498,1518,1538,1558,1579,1598,1618,1638,1659,1678,1697,1719,1738,1758,1778,1798,1819,1838,1858,1878,1898,1918],"xSR":741.5,"ySR":469.95,"xT1":424.9,"yT1":0,"xT2":1058.1,"yT2":0,"toosoon":0,"cond_shown":"Congruent","ratio_trial":200,"L_num":3,"L_den":10,"R_num":7,"R_den":14,"correct_side":2,"subjID":"isabellaseguracardozo9","gender":"1","school":"6","age":"11"},{"start_time":1551899741965,"click_time":1551899743813,"finger_time":1551899742972,"fix_duration":250,"trial":16,"RT":1007,"MT":841,"sideResp":2,"stimulus":[],"xmouse":[773,773,773,773,773,773,773,773,773,773,773,773,773,773,773,773,773,773,773,773,773,773,773,773,773,773,773,773,773,773,773,773,773,773,772,761,752,744,743,742,742,742,742,742,742,742,742,742,742,749,759,763,763,764,768,785,809,847,850,850,850,853,867,883,890,903,910,912,931,946,951,966,986,987,990,996,1003,1019,1030,1035,1040,1041,1041,1042,1044,1046,1047,1051,1052,1053,1054,1055,1065],"ymouse":[500,500,500,500,500,500,500,500,500,500,500,500,500,500,500,500,500,500,500,500,500,500,500,500,500,500,500,500,500,500,500,500,500,500,502,504,505,496,490,484,483,483,483,483,483,483,483,483,482,476,465,461,461,461,456,442,427,403,401,401,400,398,377,353,340,317,303,297,250,217,198,175,142,140,138,137,133,125,118,113,109,107,106,106,104,102,100,95,94,91,90,86,77],"timestamp_mouse":[9,28,48,69,87,108,128,148,168,187,207,227,247,267,287,308,328,348,368,389,408,427,448,468,489,508,527,548,568,588,608,628,648,668,688,708,728,747,768,788,808,829,848,868,888,908,927,948,968,988,1007,1027,1048,1068,1088,1107,1127,1148,1168,1188,1207,1228,1248,1267,1288,1308,1328,1348,1368,1387,1408,1428,1448,1468,1489,1508,1529,1548,1568,1587,1609,1628,1649,1668,1688,1708,1728,1748,1768,1789,1809,1828,1848],"xSR":741.5,"ySR":469.95,"xT1":424.9,"yT1":0,"xT2":1058.1,"yT2":0,"toosoon":0,"cond_shown":"Congruent","ratio_trial":300,"L_num":2,"L_den":10,"R_num":12,"R_den":24,"correct_side":2,"subjID":"isabellaseguracardozo9","gender":"1","school":"6","age":"11"},{"start_time":1551899746826,"click_time":1551899749073,"finger_time":1551899748372,"fix_duration":1112.4647714787209,"trial":17,"RT":1546,"MT":701,"sideResp":2,"stimulus":[],"xmouse":[810,810,810,810,810,810,810,810,810,810,810,810,810,810,810,810,810,810,810,810,810,810,810,810,810,810,810,810,810,810,810,810,810,810,810,810,810,810,810,810,810,810,810,810,810,810,810,810,810,810,810,810,810,810,810,810,810,810,810,810,810,810,810,810,810,810,811,813,815,815,816,816,816,816,816,816,816,820,828,863,967,1017,1051,1074,1106,1147,1156,1156,1159,1160,1173,1173,1173,1173,1173,1173,1173,1173,1173,1173,1170,1169,1169,1169,1169,1169,1169,1169,1169,1169,1169,1165,1157],"ymouse":[490,490,490,490,490,490,490,490,490,490,490,490,490,490,490,490,490,490,490,490,490,490,490,490,490,490,490,490,490,490,490,490,490,490,490,490,490,490,490,490,490,490,490,490,490,490,490,490,490,490,490,490,490,490,490,490,490,490,490,490,490,490,490,490,490,490,491,488,477,474,472,472,472,472,472,472,472,458,442,402,296,244,203,181,153,116,108,108,98,96,70,68,68,68,68,68,68,67,67,67,67,67,67,67,67,67,67,67,67,67,67,67,67],"timestamp_mouse":[9,27,47,67,88,107,127,146,167,187,207,227,247,267,287,307,328,347,367,387,407,427,446,467,487,507,528,547,567,587,607,626,647,667,687,707,726,747,767,787,808,827,847,866,888,906,926,948,967,987,1008,1026,1047,1067,1087,1107,1127,1146,1166,1187,1207,1227,1247,1267,1287,1307,1327,1347,1367,1387,1407,1428,1447,1466,1488,1507,1527,1546,1566,1588,1607,1627,1647,1666,1687,1707,1727,1748,1767,1788,1807,1827,1848,1867,1887,1907,1927,1948,1967,1988,2006,2027,2046,2067,2086,2107,2126,2146,2167,2188,2206,2228,2247],"xSR":741.5,"ySR":469.95,"xT1":424.9,"yT1":0,"xT2":1058.1,"yT2":0,"toosoon":0,"cond_shown":"Congruent","ratio_trial":200,"L_num":9,"L_den":30,"R_num":13,"R_den":26,"correct_side":2,"subjID":"isabellaseguracardozo9","gender":"1","school":"6","age":"11"},{"start_time":1551899751862,"click_time":1551899753653,"finger_time":1551899753152,"fix_duration":928.0153558201301,"trial":18,"RT":1290,"MT":501,"sideResp":1,"stimulus":[],"xmouse":[826,826,826,826,826,826,826,826,826,826,826,826,826,826,826,826,826,826,826,826,826,826,826,826,826,826,826,826,826,826,826,826,826,826,826,826,826,826,826,826,826,826,826,826,826,826,826,826,826,826,826,826,823,819,818,818,818,818,818,818,818,818,818,817,807,788,776,769,758,755,750,743,734,714,702,694,686,678,667,661,655,651,647,645,635,617,595,573,533,521],"ymouse":[484,484,484,484,484,484,484,484,484,484,484,484,484,484,484,484,484,484,484,484,484,484,484,484,484,484,484,484,484,484,484,484,484,484,484,484,484,484,484,484,484,484,484,484,484,484,484,484,484,484,484,484,480,475,474,474,474,474,474,474,474,474,474,471,459,438,427,417,401,394,380,364,348,309,278,255,229,204,174,156,142,135,130,130,130,129,121,109,84,75],"timestamp_mouse":[10,38,52,71,91,111,131,151,171,191,210,231,251,271,291,311,332,350,371,392,411,431,450,472,491,512,531,551,571,592,612,631,651,671,691,711,731,752,771,791,811,831,851,870,892,911,931,951,971,991,1010,1030,1050,1071,1090,1110,1131,1151,1171,1191,1211,1231,1251,1271,1290,1311,1331,1352,1371,1391,1411,1432,1450,1472,1491,1511,1531,1551,1571,1590,1611,1632,1651,1671,1692,1711,1731,1751,1772,1791],"xSR":741.5,"ySR":469.95,"xT1":424.9,"yT1":0,"xT2":1058.1,"yT2":0,"toosoon":0,"cond_shown":"Congruent","ratio_trial":200,"L_num":8,"L_den":15,"R_num":7,"R_den":21,"correct_side":1,"subjID":"isabellaseguracardozo9","gender":"1","school":"6","age":"11"},{"start_time":1551899760356,"click_time":1551899761472,"finger_time":1551899761133,"fix_duration":1021.4560467675844,"trial":19,"RT":777,"MT":339,"sideResp":2,"stimulus":[],"xmouse":[823,823,823,823,823,823,823,823,823,823,823,823,823,823,823,823,823,823,823,823,823,823,823,823,823,823,823,823,823,824,824,824,825,825,826,829,832,837,843,866,878,892,904,921,941,969,977,989,999,1021,1035,1045,1052,1062,1087,1100],"ymouse":[503,503,503,503,503,503,503,503,503,503,503,503,503,503,503,503,503,503,503,503,503,503,503,503,503,503,503,503,503,503,502,500,498,496,490,484,480,470,455,414,398,383,371,360,348,327,318,297,280,239,215,194,175,152,106,82],"timestamp_mouse":[20,36,55,75,95,116,135,156,176,195,216,236,256,276,295,316,336,355,376,395,416,436,456,476,495,516,537,556,576,596,616,635,655,675,695,715,735,756,777,795,816,835,857,876,896,917,937,956,977,997,1016,1036,1056,1076,1096,1116],"xSR":741.5,"ySR":469.95,"xT1":424.9,"yT1":0,"xT2":1058.1,"yT2":0,"toosoon":0,"cond_shown":"Congruent","ratio_trial":200,"L_num":3,"L_den":10,"R_num":14,"R_den":28,"correct_side":2,"subjID":"isabellaseguracardozo9","gender":"1","school":"6","age":"11"},{"start_time":1551899763457,"click_time":1551899765492,"finger_time":1551899764912,"fix_duration":522.140916539515,"trial":20,"RT":1455,"MT":580,"sideResp":2,"stimulus":[],"xmouse":[794,794,794,794,794,794,794,794,794,794,794,794,794,794,794,794,794,794,794,794,794,794,794,794,794,794,794,794,794,794,794,794,794,794,794,794,794,794,794,794,794,794,794,794,794,794,794,794,794,794,794,794,794,794,794,794,794,794,794,794,794,794,794,794,794,794,797,799,802,802,802,805,815,823,838,849,866,907,969,1008,1013,1020,1028,1067,1148,1170,1187,1194,1195,1195,1195,1195,1195,1195,1195,1193,1193,1193,1193,1193,1162,1138],"ymouse":[487,487,487,487,487,487,487,487,487,487,487,487,487,487,487,487,487,487,487,487,487,487,487,487,487,487,487,487,487,487,487,487,487,487,487,487,487,487,487,487,487,487,487,487,487,487,487,487,487,487,487,487,487,487,487,487,487,487,487,487,487,487,487,487,487,487,487,486,484,483,483,475,459,450,434,423,411,381,344,310,292,268,241,195,144,129,115,103,98,94,90,90,90,84,82,76,75,75,75,75,74,74],"timestamp_mouse":[15,36,56,75,95,115,135,155,175,196,214,235,255,276,295,314,336,355,375,395,414,435,456,475,495,515,535,555,575,595,615,635,655,675,695,716,736,755,775,795,815,834,856,875,895,915,935,954,975,995,1015,1035,1055,1074,1095,1115,1135,1155,1175,1195,1216,1236,1255,1274,1295,1316,1335,1355,1374,1395,1415,1435,1455,1475,1497,1515,1535,1556,1575,1596,1615,1636,1655,1676,1696,1714,1735,1756,1775,1796,1815,1836,1855,1875,1895,1915,1934,1954,1975,1995,2015,2035],"xSR":741.5,"ySR":469.95,"xT1":424.9,"yT1":0,"xT2":1058.1,"yT2":0,"toosoon":0,"cond_shown":"Congruent","ratio_trial":200,"L_num":9,"L_den":30,"R_num":13,"R_den":26,"correct_side":2,"subjID":"isabellaseguracardozo9","gender":"1","school":"6","age":"11"},{"start_time":1551899767366,"click_time":1551899769352,"finger_time":1551899768572,"fix_duration":492.45927084245744,"trial":21,"RT":1206,"MT":780,"sideResp":1,"stimulus":[],"xmouse":[813,813,813,813,813,813,813,813,813,813,813,813,813,813,813,813,813,813,813,813,813,813,813,813,813,813,813,813,813,813,813,813,813,813,813,813,813,813,813,813,813,813,813,813,813,813,813,813,813,813,813,813,813,813,813,813,813,813,813,812,808,806,805,802,800,789,779,774,767,761,756,750,746,742,732,700,693,687,684,683,673,664,651,646,640,634,630,625,619,613,607,605,603,595,580,553,541,533,527,523],"ymouse":[482,482,482,482,482,482,482,482,482,482,482,482,482,482,482,482,482,482,482,482,482,482,482,482,482,482,482,482,482,482,482,482,482,482,482,482,482,482,482,482,482,482,482,481,480,479,479,479,479,479,479,479,479,479,479,479,479,476,475,472,465,464,462,459,455,435,421,410,399,388,381,368,356,331,268,169,147,134,127,125,113,103,91,84,78,74,74,74,74,74,73,72,72,72,72,72,72,71,71,71],"timestamp_mouse":[8,26,48,66,86,107,126,146,165,186,207,225,246,265,285,305,326,346,366,386,405,426,446,466,485,506,526,547,566,585,606,626,646,665,686,706,726,745,767,786,806,825,846,866,886,906,925,947,965,986,1006,1025,1045,1066,1086,1106,1126,1145,1166,1187,1206,1227,1246,1266,1286,1306,1325,1346,1367,1387,1406,1426,1446,1467,1486,1506,1526,1546,1566,1585,1607,1627,1646,1666,1686,1706,1726,1745,1766,1786,1806,1826,1846,1866,1885,1906,1926,1946,1965,1986],"xSR":741.5,"ySR":469.95,"xT1":424.9,"yT1":0,"xT2":1058.1,"yT2":0,"toosoon":0,"cond_shown":"Incongruent","ratio_trial":100,"L_num":9,"L_den":10,"R_num":20,"R_den":25,"correct_side":1,"subjID":"isabellaseguracardozo9","gender":"1","school":"6","age":"11"},{"start_time":1551899771423,"click_time":1551899772673,"finger_time":1551899771792,"fix_duration":250,"trial":22,"RT":369,"MT":881,"sideResp":1,"stimulus":[],"xmouse":[770,770,770,770,770,770,770,770,770,770,770,770,770,770,770,770,770,768,763,761,761,760,760,760,760,760,760,760,760,760,760,760,760,760,760,759,756,754,745,740,735,727,716,680,677,677,675,674,673,671,668,664,652,622,610,604,599,595,582,570,561,552,524],"ymouse":[478,478,478,478,478,478,478,478,478,478,478,478,478,478,478,478,478,471,465,463,462,460,460,460,460,460,460,460,460,460,460,460,460,460,460,460,457,454,444,436,427,418,404,339,288,247,223,211,208,204,200,191,178,147,136,129,125,123,118,111,105,98,84],"timestamp_mouse":[9,42,50,69,89,109,128,150,169,189,209,229,250,270,289,308,328,350,369,389,410,429,450,468,488,508,528,550,568,588,609,629,649,669,689,708,729,748,769,789,810,829,849,869,889,909,930,950,969,989,1009,1029,1050,1069,1089,1110,1129,1150,1169,1189,1209,1229,1250],"xSR":741.5,"ySR":469.95,"xT1":424.9,"yT1":0,"xT2":1058.1,"yT2":0,"toosoon":0,"cond_shown":"Congruent","ratio_trial":300,"L_num":20,"L_den":25,"R_num":8,"R_den":16,"correct_side":1,"subjID":"isabellaseguracardozo9","gender":"1","school":"6","age":"11"},{"start_time":1551899776555,"click_time":1551899779373,"finger_time":1551899777972,"fix_duration":501.59939517833396,"trial":23,"RT":1417,"MT":1401,"sideResp":1,"stimulus":[],"xmouse":[799,799,799,799,799,799,799,799,799,799,799,799,799,799,799,799,799,799,799,799,799,799,799,799,799,799,799,799,799,799,799,799,799,799,799,799,799,799,799,799,798,797,797,797,797,797,797,797,797,797,797,797,797,797,797,797,797,797,797,797,797,797,797,797,797,797,796,794,793,786,783,777,773,767,755,745,728,717,704,696,691,688,688,687,685,683,680,662,655,648,644,639,635,631,621,609,585,583,582,582,582,582,582,582,582,582,582,582,582,582,582,582,582,582,582,582,582,582,582,582,582,582,582,582,582,582,582,582,582,582,582,568,564,560,557,556,548,538,532,527,522],"ymouse":[526,526,526,526,526,526,526,526,526,526,526,526,526,526,526,526,526,526,526,526,526,526,526,526,526,526,525,525,525,525,525,525,525,525,525,525,525,525,523,520,517,514,514,514,514,514,514,514,514,514,514,514,514,514,514,514,514,514,514,514,514,514,514,514,514,514,511,507,501,481,467,431,410,384,351,330,291,273,255,245,238,233,233,232,231,228,224,200,191,181,175,167,162,157,147,139,121,121,120,120,120,120,120,120,120,120,120,120,120,120,120,120,120,120,120,120,120,120,120,119,119,119,119,119,119,119,119,119,119,119,119,111,108,105,103,102,99,97,96,96,95],"timestamp_mouse":[16,41,56,78,97,117,136,156,177,196,217,237,257,277,296,317,336,357,377,397,417,436,456,477,497,517,537,557,577,598,617,636,658,676,696,716,738,757,777,797,818,837,857,877,897,917,937,957,977,997,1017,1037,1056,1077,1097,1117,1136,1156,1177,1197,1217,1237,1257,1277,1297,1317,1336,1356,1378,1397,1417,1437,1457,1477,1497,1518,1538,1558,1577,1597,1617,1637,1658,1677,1697,1717,1737,1757,1777,1796,1817,1837,1857,1878,1897,1917,1938,1956,1976,1997,2017,2037,2057,2077,2097,2117,2137,2157,2177,2196,2216,2237,2256,2276,2297,2317,2337,2358,2377,2396,2416,2437,2457,2477,2497,2517,2538,2557,2577,2597,2618,2638,2656,2677,2697,2718,2737,2757,2777,2797,2818],"xSR":741.5,"ySR":469.95,"xT1":424.9,"yT1":0,"xT2":1058.1,"yT2":0,"toosoon":0,"cond_shown":"Incongruent","ratio_trial":200,"L_num":6,"L_den":20,"R_num":3,"R_den":6,"correct_side":2,"subjID":"isabellaseguracardozo9","gender":"1","school":"6","age":"11"},{"start_time":1551899782313,"click_time":1551899783932,"finger_time":1551899783171,"fix_duration":599.4594234973521,"trial":24,"RT":858,"MT":761,"sideResp":1,"stimulus":[],"xmouse":[836,836,836,836,836,836,836,836,836,836,836,836,836,836,836,836,836,836,836,836,836,836,836,836,836,836,836,836,836,836,836,836,836,836,836,836,836,836,836,836,837,838,838,836,830,814,807,803,802,801,801,801,801,800,799,795,793,787,783,774,763,756,749,744,726,716,702,686,672,655,644,642,642,641,641,635,624,612,586,566,531,516],"ymouse":[498,498,498,498,498,498,498,498,498,498,498,498,498,498,498,498,498,498,498,498,498,498,498,498,498,498,498,498,498,498,498,498,498,498,498,498,498,498,498,498,498,486,471,453,435,400,388,380,377,372,368,366,363,359,354,338,330,318,306,290,270,262,252,245,225,211,194,174,154,125,105,101,100,99,99,92,83,75,58,47,32,27],"timestamp_mouse":[1,20,39,60,80,100,119,139,159,179,199,219,239,259,279,299,319,339,359,379,400,420,439,459,478,499,519,539,558,579,599,619,639,659,679,699,719,738,759,780,799,819,838,858,879,899,918,939,959,979,998,1019,1040,1060,1080,1098,1119,1140,1158,1179,1200,1219,1239,1259,1280,1299,1319,1340,1359,1379,1399,1419,1440,1459,1479,1498,1519,1539,1558,1578,1598,1619],"xSR":741.5,"ySR":469.95,"xT1":424.9,"yT1":0,"xT2":1058.1,"yT2":0,"toosoon":0,"cond_shown":"Incongruent","ratio_trial":300,"L_num":13,"L_den":26,"R_num":12,"R_den":15,"correct_side":2,"subjID":"isabellaseguracardozo9","gender":"1","school":"6","age":"11"},{"start_time":1551899786823,"click_time":1551899788772,"finger_time":1551899788171,"fix_duration":250,"trial":25,"RT":1348,"MT":601,"sideResp":2,"stimulus":[],"xmouse":[784,784,784,784,784,784,784,784,784,784,784,784,784,784,784,784,784,784,784,784,784,784,784,784,784,784,784,784,784,784,784,784,784,784,784,784,784,784,784,784,784,784,784,784,784,784,784,784,784,784,784,784,784,784,784,784,784,784,784,784,784,784,784,784,784,784,786,790,796,807,814,819,826,837,872,888,897,900,901,908,916,925,932,938,942,957,969,976,980,988,999,1005,1013,1016,1024,1035,1047,1059],"ymouse":[489,489,489,489,489,489,489,489,489,489,489,489,489,489,489,489,489,489,489,489,489,489,489,489,489,489,489,489,489,489,489,489,489,489,489,489,489,489,489,489,489,489,489,489,489,489,489,489,489,489,489,489,489,489,489,489,489,489,489,489,489,489,489,489,489,489,484,468,452,417,394,378,361,338,273,247,227,212,203,185,175,160,151,142,131,113,106,104,101,96,92,91,88,88,85,84,82,78],"timestamp_mouse":[9,28,48,68,88,109,129,149,169,188,209,229,250,268,288,308,328,349,369,388,408,429,449,469,489,508,530,550,569,589,609,628,648,669,689,709,730,749,768,789,809,828,848,869,889,909,928,948,969,989,1009,1030,1049,1068,1089,1108,1129,1149,1169,1189,1208,1228,1248,1269,1289,1309,1328,1348,1368,1389,1409,1429,1449,1469,1490,1509,1529,1549,1570,1590,1608,1629,1649,1669,1690,1708,1728,1748,1770,1789,1808,1829,1849,1870,1889,1909,1929,1949],"xSR":741.5,"ySR":469.95,"xT1":424.9,"yT1":0,"xT2":1058.1,"yT2":0,"toosoon":0,"cond_shown":"Congruent","ratio_trial":300,"L_num":2,"L_den":20,"R_num":10,"R_den":25,"correct_side":2,"subjID":"isabellaseguracardozo9","gender":"1","school":"6","age":"11"},{"start_time":1551899792037,"click_time":1551899793952,"finger_time":1551899793392,"fix_duration":1323.9517164138908,"trial":26,"RT":1355,"MT":560,"sideResp":2,"stimulus":[],"xmouse":[781,781,781,781,781,781,781,781,781,781,781,781,781,781,781,781,781,781,781,781,781,781,781,781,781,781,781,781,781,781,781,781,781,781,781,781,781,781,781,781,781,781,781,781,781,781,781,781,781,781,781,781,781,781,781,781,781,781,781,781,781,781,781,781,781,781,785,792,796,800,802,809,819,838,926,986,1036,1046,1066,1070,1076,1084,1091,1097,1117,1120,1121,1117,1107,1092,1089,1088,1087,1087,1087,1087],"ymouse":[483,483,483,483,483,483,483,483,483,483,483,483,483,483,483,483,483,483,483,483,483,483,483,483,483,483,483,483,483,483,483,483,483,483,483,483,483,483,483,483,483,483,483,483,483,483,483,483,483,483,483,483,483,483,483,483,483,483,483,483,483,483,483,483,483,479,471,457,450,440,436,427,415,395,312,274,236,229,215,211,207,199,193,186,164,150,143,137,132,121,118,113,107,103,100,99],"timestamp_mouse":[15,38,55,76,94,115,136,155,174,195,214,235,255,276,296,314,335,356,374,394,415,436,455,475,494,514,535,555,574,596,615,635,654,674,695,715,735,756,774,795,815,835,854,875,895,914,935,954,974,995,1015,1034,1054,1074,1094,1114,1135,1154,1174,1195,1214,1234,1255,1275,1295,1315,1334,1355,1375,1396,1415,1435,1455,1475,1495,1514,1535,1555,1574,1594,1615,1635,1655,1675,1695,1715,1735,1755,1776,1794,1815,1835,1855,1875,1896,1915],"xSR":741.5,"ySR":469.95,"xT1":424.9,"yT1":0,"xT2":1058.1,"yT2":0,"toosoon":0,"cond_shown":"Incongruent","ratio_trial":100,"L_num":8,"L_den":16,"R_num":6,"R_den":10,"correct_side":2,"subjID":"isabellaseguracardozo9","gender":"1","school":"6","age":"11"},{"start_time":1551899797507,"click_time":1551899800533,"finger_time":1551899800073,"fix_duration":655.4386612889557,"trial":27,"RT":2566,"MT":460,"sideResp":2,"stimulus":[],"xmouse":[787,787,787,787,787,787,787,787,787,787,787,787,787,787,787,787,787,787,787,787,787,787,787,787,787,787,787,787,787,787,787,787,787,787,787,787,787,787,787,787,787,787,787,787,787,787,787,787,787,787,787,787,787,787,787,787,787,787,787,787,787,787,787,787,787,787,787,787,787,787,787,787,787,787,787,787,787,787,787,787,787,787,787,787,787,787,787,787,787,787,787,787,787,787,787,787,787,787,787,787,787,787,787,787,787,787,787,787,787,787,787,787,787,787,787,787,787,787,787,787,787,787,787,787,787,788,789,792,794,795,797,800,835,869,920,976,1026,1064,1066,1066,1067,1068,1074,1074,1078,1082,1083,1083,1083,1083,1087,1098],"ymouse":[516,516,516,516,516,516,516,516,516,516,516,516,516,516,516,516,516,516,516,516,516,516,516,516,516,516,516,516,516,516,516,516,516,516,516,516,516,516,516,516,516,516,516,516,516,516,516,516,516,516,516,516,516,516,516,516,516,516,516,516,516,516,516,516,516,516,516,516,516,516,516,516,516,516,516,516,516,516,516,516,516,516,516,516,516,516,516,516,516,516,516,516,516,516,516,516,516,516,516,516,516,516,516,516,516,516,516,516,516,516,516,516,516,516,516,516,516,516,516,516,516,516,516,515,510,505,497,475,461,451,441,423,362,315,269,223,187,154,149,148,147,146,131,125,115,109,107,107,107,105,101,90],"timestamp_mouse":[9,25,46,65,85,105,125,145,165,185,205,224,244,264,285,304,324,344,364,384,404,425,445,465,485,505,525,545,565,586,605,625,645,666,686,705,734,746,765,785,804,825,845,866,885,905,925,945,965,985,1005,1026,1044,1064,1085,1105,1125,1145,1165,1185,1205,1226,1245,1265,1286,1305,1326,1345,1364,1385,1405,1425,1445,1465,1484,1505,1525,1545,1565,1585,1605,1625,1644,1665,1685,1706,1725,1745,1765,1785,1805,1825,1845,1866,1885,1904,1924,1945,1965,1984,2004,2025,2045,2065,2085,2105,2125,2145,2165,2186,2205,2225,2245,2265,2285,2305,2324,2345,2364,2385,2404,2425,2445,2465,2485,2506,2524,2545,2566,2586,2605,2625,2645,2665,2685,2706,2724,2744,2765,2785,2805,2824,2845,2864,2885,2905,2924,2945,2964,2986,3006,3026],"xSR":741.5,"ySR":469.95,"xT1":424.9,"yT1":0,"xT2":1058.1,"yT2":0,"toosoon":0,"cond_shown":"Congruent","ratio_trial":100,"L_num":15,"L_den":25,"R_num":13,"R_den":26,"correct_side":1,"subjID":"isabellaseguracardozo9","gender":"1","school":"6","age":"11"},{"start_time":1551899804804,"click_time":1551899808432,"finger_time":1551899806511,"fix_duration":250,"trial":28,"RT":1707,"MT":1921,"sideResp":2,"stimulus":[],"xmouse":[764,764,764,764,764,764,764,764,764,764,764,764,764,764,764,764,764,764,764,764,764,764,764,764,764,764,764,764,764,764,764,764,764,764,764,764,764,764,764,764,764,764,764,764,764,764,764,764,764,764,764,764,764,764,764,764,764,764,764,764,764,764,764,764,764,764,764,764,764,764,764,765,765,766,767,767,767,767,767,767,767,767,767,767,771,773,779,788,812,824,834,847,866,892,909,922,936,952,980,988,994,1003,1007,1011,1012,1013,1014,1015,1017,1018,1019,1019,1019,1009,998,991,990,990,990,988,978,963,943,889,860,830,808,792,767,750,728,706,687,664,663,662,662,661,644,635,633,633,633,633,633,633,633,633,633,632,629,624,621,620,618,613,599,579,547,541,540,540,540,540,540,540,540,540,540,540,543,549,583,597,616,632,646,662,746,846,977,1109],"ymouse":[493,493,493,493,493,493,493,493,493,493,493,493,493,493,493,493,493,493,493,493,493,493,493,493,493,493,493,493,493,493,493,493,493,493,493,493,493,493,493,493,493,493,493,493,493,493,493,493,493,493,493,493,493,493,493,493,493,493,493,493,493,493,493,493,493,493,493,493,493,493,493,493,492,482,480,479,479,479,479,479,479,479,479,478,473,469,459,447,419,405,394,380,364,341,326,317,308,296,267,248,231,214,201,187,183,180,179,176,172,168,167,166,165,157,150,147,146,146,146,146,144,140,138,128,123,118,115,112,109,106,102,100,100,99,99,99,99,99,97,95,95,95,95,95,95,95,95,95,95,95,95,95,95,95,94,93,91,89,84,83,83,83,83,83,83,83,83,83,83,83,82,78,63,57,48,41,35,30,22,22,27,44],"timestamp_mouse":[9,29,60,68,89,108,128,147,168,188,208,229,248,268,288,308,328,349,368,388,407,428,448,468,488,508,528,547,568,588,608,628,648,668,688,708,728,747,768,789,808,829,848,869,888,909,928,948,969,989,1008,1028,1048,1068,1088,1107,1128,1147,1168,1188,1209,1227,1248,1267,1288,1307,1328,1348,1369,1388,1408,1427,1449,1468,1488,1508,1528,1548,1568,1587,1607,1628,1648,1667,1688,1707,1728,1749,1768,1787,1808,1828,1849,1868,1888,1908,1928,1948,1968,1989,2008,2028,2049,2068,2088,2108,2129,2149,2168,2188,2208,2228,2248,2268,2288,2309,2327,2349,2368,2389,2408,2428,2449,2468,2488,2507,2529,2548,2568,2588,2608,2628,2648,2668,2688,2708,2728,2749,2768,2787,2808,2828,2849,2869,2888,2907,2927,2948,2968,2988,3008,3028,3049,3067,3087,3108,3128,3148,3168,3187,3208,3227,3247,3267,3288,3308,3328,3348,3367,3388,3407,3427,3448,3468,3488,3508,3528,3549,3568,3588,3609,3628],"xSR":741.5,"ySR":469.95,"xT1":424.9,"yT1":0,"xT2":1058.1,"yT2":0,"toosoon":0,"cond_shown":"Incongruent","ratio_trial":200,"L_num":4,"L_den":30,"R_num":1,"R_den":3,"correct_side":2,"subjID":"isabellaseguracardozo9","gender":"1","school":"6","age":"11"},{"start_time":1551899812498,"click_time":1551899814533,"finger_time":1551899813052,"fix_duration":1443.5759005902419,"trial":29,"RT":554,"MT":1481,"sideResp":2,"stimulus":[],"xmouse":[833,833,833,833,833,833,833,833,833,833,833,833,833,833,833,833,833,833,835,836,837,837,837,839,839,840,841,842,844,845,846,846,846,846,846,847,847,847,847,847,847,847,847,847,847,847,847,847,847,847,847,847,847,847,847,848,848,848,848,849,849,851,852,853,853,853,853,851,843,841,840,840,840,839,841,853,866,887,930,940,945,949,958,994,1038,1066,1083,1101,1127,1134,1140,1146,1151,1160,1170,1171,1172,1172,1171,1166,1160,1153],"ymouse":[486,486,486,486,486,486,486,486,486,485,485,485,485,485,485,485,485,484,482,481,481,481,480,479,479,478,477,477,475,474,473,472,472,472,472,472,472,472,472,472,472,472,472,472,472,472,472,472,472,472,472,472,472,472,472,472,472,472,472,470,467,464,462,461,461,460,454,447,430,423,420,416,413,410,406,394,384,368,338,331,327,324,318,286,251,229,212,190,157,141,128,116,104,87,72,62,56,53,49,47,45,43],"timestamp_mouse":[14,35,53,73,94,115,133,153,174,194,214,233,254,274,294,315,334,354,375,394,415,434,454,474,493,514,534,554,574,595,614,635,655,674,695,713,734,754,774,795,814,835,854,874,894,914,934,954,974,993,1015,1034,1054,1074,1094,1113,1134,1153,1174,1194,1214,1234,1254,1274,1294,1313,1333,1354,1375,1394,1413,1434,1454,1474,1494,1513,1533,1554,1574,1594,1615,1634,1654,1675,1694,1714,1734,1754,1774,1794,1815,1834,1853,1874,1894,1914,1934,1955,1974,1994,2015,2035],"xSR":741.5,"ySR":469.95,"xT1":424.9,"yT1":0,"xT2":1058.1,"yT2":0,"toosoon":0,"cond_shown":"Incongruent","ratio_trial":300,"L_num":4,"L_den":20,"R_num":2,"R_den":4,"correct_side":2,"subjID":"isabellaseguracardozo9","gender":"1","school":"6","age":"11"},{"start_time":1551899816424,"click_time":1551899819012,"finger_time":1551899817372,"fix_duration":650.1602357736763,"trial":30,"RT":948,"MT":1640,"sideResp":2,"stimulus":[],"xmouse":[819,819,819,819,819,819,819,819,819,819,819,819,819,819,819,819,819,819,819,819,819,819,819,819,819,819,819,819,820,820,820,820,820,820,820,820,820,820,821,821,822,823,824,827,828,834,840,842,846,847,847,847,847,847,847,848,849,850,850,850,850,851,867,996,1050,1094,1113,1115,1116,1116,1120,1138,1173,1232,1237,1237,1237,1237,1237,1237,1235,1234,1230,1215,1192,1178,1176,1176,1176,1176,1176,1176,1176,1176,1176,1176,1176,1176,1176,1176,1176,1176,1176,1176,1176,1176,1176,1176,1176,1176,1176,1176,1176,1176,1176,1176,1176,1176,1176,1176,1176,1176,1176,1176,1176,1176,1176,1176,1168,1152],"ymouse":[544,544,544,544,544,544,544,543,542,540,539,538,536,534,533,532,532,532,532,532,531,531,531,530,530,530,530,529,529,528,527,527,525,525,525,524,524,523,522,522,521,520,518,514,513,509,505,500,496,495,494,493,492,492,492,489,486,483,481,481,481,480,467,384,339,306,279,272,262,262,257,236,187,86,63,54,52,51,51,51,51,51,52,55,58,60,60,60,60,60,60,60,60,60,60,60,60,60,60,60,60,60,60,60,60,60,60,60,60,60,60,60,60,60,60,60,60,60,60,60,60,60,60,60,60,60,60,60,64,70],"timestamp_mouse":[18,28,47,68,87,108,128,149,168,188,208,228,249,268,287,307,327,348,368,387,408,427,448,468,487,509,528,547,568,588,608,628,648,669,689,708,728,748,768,788,808,828,848,868,888,909,928,948,969,988,1009,1028,1049,1068,1088,1108,1129,1148,1168,1188,1208,1227,1247,1268,1288,1308,1327,1349,1368,1388,1408,1428,1449,1467,1488,1508,1528,1549,1567,1589,1608,1628,1649,1668,1689,1708,1728,1748,1767,1788,1808,1828,1848,1867,1888,1908,1928,1947,1969,1988,2008,2027,2047,2068,2088,2108,2127,2148,2169,2188,2208,2228,2248,2269,2288,2308,2328,2348,2368,2387,2408,2428,2449,2468,2488,2507,2528,2548,2567,2588],"xSR":741.5,"ySR":469.95,"xT1":424.9,"yT1":0,"xT2":1058.1,"yT2":0,"toosoon":0,"cond_shown":"Incongruent","ratio_trial":100,"L_num":9,"L_den":10,"R_num":20,"R_den":25,"correct_side":1,"subjID":"isabellaseguracardozo9","gender":"1","school":"6","age":"11"},{"start_time":1551899822340,"click_time":1551899824572,"finger_time":1551899823811,"fix_duration":768.0566504700487,"trial":31,"RT":1471,"MT":761,"sideResp":1,"stimulus":[],"xmouse":[819,819,819,819,819,819,819,819,819,819,819,819,819,819,819,819,819,819,819,819,819,819,819,819,819,819,819,819,819,819,819,819,819,819,819,819,819,819,819,819,820,821,821,821,821,821,821,821,821,821,821,821,821,821,821,821,822,823,823,823,823,823,823,823,823,825,826,827,827,829,829,830,832,834,834,832,822,797,790,787,785,783,765,750,730,711,701,692,685,679,672,664,656,652,645,637,626,582,543,525,515,512,509,500,490,479,471,467,467,471,481,493],"ymouse":[499,499,499,499,499,499,499,499,499,499,499,499,499,499,499,499,499,499,499,498,497,497,497,497,497,497,497,497,497,497,497,497,497,497,497,497,497,497,497,497,496,495,495,495,495,495,495,495,495,495,495,494,494,494,494,494,493,493,493,493,493,493,493,493,492,491,489,488,488,485,483,481,473,445,428,397,349,260,236,216,207,198,165,149,135,124,120,119,119,120,123,126,128,128,129,129,129,129,125,122,121,120,119,118,116,114,113,113,113,110,106,99],"timestamp_mouse":[12,31,51,72,92,111,131,151,171,191,211,231,251,271,292,311,332,351,371,391,411,431,451,471,491,511,531,551,571,591,611,631,651,671,691,711,731,751,771,791,811,831,851,871,892,911,931,951,972,992,1011,1031,1051,1071,1091,1111,1131,1151,1172,1191,1211,1231,1251,1271,1291,1311,1332,1351,1371,1391,1411,1431,1451,1471,1492,1512,1531,1552,1571,1591,1611,1631,1652,1671,1691,1711,1731,1751,1771,1792,1811,1831,1851,1871,1891,1912,1930,1952,1971,1991,2011,2032,2051,2071,2092,2111,2131,2151,2171,2191,2211,2232],"xSR":741.5,"ySR":469.95,"xT1":424.9,"yT1":0,"xT2":1058.1,"yT2":0,"toosoon":0,"cond_shown":"Congruent","ratio_trial":100,"L_num":10,"L_den":25,"R_num":3,"R_den":10,"correct_side":1,"subjID":"isabellaseguracardozo9","gender":"1","school":"6","age":"11"},{"start_time":1551899826557,"click_time":1551899828611,"finger_time":1551899828051,"fix_duration":684.1744062116206,"trial":32,"RT":1494,"MT":560,"sideResp":1,"stimulus":[],"xmouse":[800,800,800,800,800,800,800,800,800,800,800,800,800,800,800,800,800,800,800,800,800,800,800,800,800,800,800,800,800,800,800,800,800,800,800,800,800,800,800,800,800,800,800,800,800,800,800,800,800,800,800,800,800,800,800,800,800,800,800,801,801,801,802,802,802,802,802,802,802,802,802,802,805,808,813,814,815,802,762,714,656,601,566,566,566,566,566,566,566,566,566,566,566,566,566,566,566,566,566,566,566,566,483],"ymouse":[514,514,513,513,513,513,513,513,513,513,513,513,513,513,513,513,513,511,511,511,510,510,509,509,509,509,509,509,509,508,508,508,508,508,508,507,507,506,506,506,505,505,505,504,504,504,504,504,503,502,501,501,501,500,499,499,498,498,497,496,496,496,495,495,495,495,495,495,495,494,494,492,486,479,464,456,421,300,219,150,83,30,2,2,2,2,2,2,2,2,2,2,2,2,2,2,2,2,2,2,2,2,8],"timestamp_mouse":[14,34,54,74,94,114,134,155,174,194,214,234,255,274,294,313,334,354,374,394,414,433,454,475,494,514,534,555,575,594,614,635,654,675,694,714,734,755,773,794,814,834,854,874,894,914,934,954,975,994,1014,1035,1054,1074,1094,1114,1134,1154,1174,1194,1214,1234,1254,1274,1295,1314,1334,1355,1374,1394,1414,1434,1453,1475,1494,1514,1534,1554,1574,1594,1614,1634,1654,1674,1695,1714,1735,1755,1774,1794,1815,1834,1855,1875,1894,1914,1934,1954,1975,1995,2014,2034,2054],"xSR":741.5,"ySR":469.95,"xT1":424.9,"yT1":0,"xT2":1058.1,"yT2":0,"toosoon":0,"cond_shown":"Congruent","ratio_trial":200,"L_num":8,"L_den":15,"R_num":7,"R_den":21,"correct_side":1,"subjID":"isabellaseguracardozo9","gender":"1","school":"6","age":"11"},{"start_time":1551899830940,"click_time":1551899834331,"finger_time":1551899831672,"fix_duration":487.61266067737506,"trial":33,"RT":732,"MT":2659,"sideResp":1,"stimulus":[],"xmouse":[813,813,813,813,813,813,813,813,813,813,813,813,813,813,813,813,813,813,813,813,813,813,813,813,813,813,813,813,813,813,814,816,820,822,827,828,829,830,831,831,832,833,833,833,834,834,834,834,834,834,834,834,834,834,834,834,834,834,836,837,839,841,843,858,871,879,887,894,907,917,932,952,969,992,1001,1006,1006,1008,1012,1035,1048,1056,1060,1065,1065,1065,1065,1065,1065,1066,1067,1069,1070,1071,1071,1071,1071,1071,1071,1071,1071,1071,1071,1071,1072,1072,1072,1073,1074,1075,1075,1075,1075,1077,1079,1079,1079,1079,1079,1079,1079,1079,1079,1079,1079,1079,1079,1079,1079,1079,1079,1079,1079,1079,1079,1079,1079,1079,1079,1079,1079,1069,1060,1052,1034,1021,1000,975,944,882,856,834,815,784,777,771,763,757,751,739,727,709,690,665,645,635,618,593,550,465],"ymouse":[493,493,493,493,493,493,493,493,493,493,493,493,493,493,493,493,493,493,493,493,493,493,493,493,493,493,493,493,493,493,489,486,480,478,472,470,469,467,464,462,460,459,458,456,454,453,453,453,452,452,452,452,452,452,452,451,448,446,443,438,436,432,428,408,390,378,367,355,338,324,307,283,263,227,208,200,198,194,188,163,150,140,135,129,129,129,129,129,129,127,125,123,121,119,119,119,119,119,119,119,119,119,119,119,118,118,118,117,116,115,115,114,114,113,111,111,111,111,111,111,111,111,111,111,111,111,111,111,111,111,111,111,111,111,111,111,111,111,111,111,111,113,115,118,122,122,122,122,122,122,122,122,123,128,130,132,133,133,133,133,133,129,124,117,108,103,96,85,67,28],"timestamp_mouse":[11,31,51,72,91,111,131,151,171,191,211,231,250,271,291,311,331,351,371,391,411,431,451,471,491,511,531,551,571,591,612,631,651,671,691,711,732,751,772,791,812,831,851,871,891,912,931,951,971,991,1011,1031,1052,1072,1092,1111,1131,1152,1171,1191,1212,1231,1251,1272,1291,1311,1331,1351,1372,1391,1411,1432,1451,1471,1491,1511,1531,1550,1571,1591,1612,1631,1651,1671,1692,1711,1731,1751,1771,1791,1812,1832,1851,1872,1890,1911,1931,1951,1971,1991,2011,2031,2050,2072,2091,2111,2131,2151,2171,2191,2211,2231,2251,2272,2291,2310,2331,2351,2371,2391,2411,2430,2451,2472,2492,2511,2530,2551,2571,2591,2611,2631,2651,2671,2691,2711,2731,2751,2771,2791,2812,2831,2851,2871,2891,2911,2931,2951,2972,2991,3011,3031,3051,3071,3091,3111,3131,3151,3173,3191,3212,3231,3251,3272,3292,3311,3331,3351,3372,3391],"xSR":741.5,"ySR":469.95,"xT1":424.9,"yT1":0,"xT2":1058.1,"yT2":0,"toosoon":0,"cond_shown":"Incongruent","ratio_trial":200,"L_num":4,"L_den":6,"R_num":14,"R_den":30,"correct_side":1,"subjID":"isabellaseguracardozo9","gender":"1","school":"6","age":"11"},{"start_time":1551899836735,"click_time":1551899838911,"finger_time":1551899838231,"fix_duration":882.8401016140248,"trial":34,"RT":1496,"MT":680,"sideResp":1,"stimulus":[],"xmouse":[785,785,785,785,785,785,785,785,785,785,785,785,785,785,785,785,785,785,785,785,785,785,785,785,785,785,785,785,785,785,785,785,785,785,785,785,785,785,785,785,785,785,785,785,785,785,785,785,785,785,785,785,785,785,785,785,785,785,785,785,785,785,785,785,785,785,785,785,785,787,788,791,791,792,792,789,784,775,768,754,751,743,737,728,715,711,708,705,700,679,667,650,635,621,573,537,509,487,474,471,471,471,471,472,487,496,502,506,507],"ymouse":[519,519,519,519,519,519,519,519,519,519,519,519,519,519,519,519,519,519,519,519,519,519,519,519,519,519,519,519,519,519,519,519,519,519,519,519,519,519,519,519,519,519,519,519,519,519,519,519,519,519,519,519,519,519,519,519,519,519,519,519,519,519,519,519,519,519,516,515,512,500,496,488,483,476,458,447,437,424,414,390,383,359,337,316,285,274,264,253,238,204,188,177,170,166,159,150,145,140,136,136,136,136,135,132,119,111,105,101,98],"timestamp_mouse":[16,40,56,76,96,116,136,156,176,196,216,236,256,276,297,316,336,356,376,396,416,436,456,476,496,516,536,556,576,596,616,636,656,676,697,716,736,756,775,796,816,836,856,876,896,916,936,956,976,996,1016,1037,1056,1076,1097,1116,1137,1156,1176,1197,1216,1236,1256,1276,1296,1316,1336,1356,1376,1396,1417,1436,1457,1477,1496,1516,1536,1556,1575,1597,1617,1636,1657,1676,1696,1716,1737,1756,1776,1796,1816,1836,1856,1876,1896,1917,1936,1956,1976,1996,2016,2036,2056,2077,2096,2116,2136,2156,2176],"xSR":741.5,"ySR":469.95,"xT1":424.9,"yT1":0,"xT2":1058.1,"yT2":0,"toosoon":0,"cond_shown":"Congruent","ratio_trial":100,"L_num":11,"L_den":22,"R_num":6,"R_den":15,"correct_side":1,"subjID":"isabellaseguracardozo9","gender":"1","school":"6","age":"11"},{"start_time":1551899840942,"click_time":1551899842492,"finger_time":1551899842272,"fix_duration":250,"trial":35,"RT":1330,"MT":220,"sideResp":1,"stimulus":[],"xmouse":[777,777,777,777,777,777,777,777,777,777,777,777,777,777,777,777,777,777,777,777,777,777,777,777,777,777,777,777,777,777,777,777,777,777,777,777,777,777,777,777,777,777,777,777,777,777,777,777,777,777,777,777,777,777,777,777,777,777,777,777,777,777,777,777,777,777,777,777,771,766,735,719,699,664,633,561,528,499],"ymouse":[506,506,507,507,507,507,507,507,507,507,507,507,507,507,507,507,507,507,507,507,507,507,507,507,507,507,507,507,507,507,507,507,507,507,507,507,507,507,507,507,507,507,507,507,507,507,507,507,507,507,507,507,507,507,507,507,507,507,507,507,507,507,507,507,498,480,465,449,431,413,361,340,313,275,237,149,111,77],"timestamp_mouse":[9,34,49,69,89,109,130,149,169,189,209,229,249,269,288,309,329,349,369,389,409,429,449,469,489,509,529,549,569,589,609,629,649,669,689,708,729,749,769,789,809,829,849,870,889,909,930,949,969,989,1009,1029,1049,1069,1089,1109,1129,1149,1169,1189,1209,1229,1249,1269,1289,1309,1330,1349,1370,1389,1410,1429,1449,1470,1490,1509,1529,1549],"xSR":741.5,"ySR":469.95,"xT1":424.9,"yT1":0,"xT2":1058.1,"yT2":0,"toosoon":0,"cond_shown":"Incongruent","ratio_trial":300,"L_num":4,"L_den":5,"R_num":8,"R_den":16,"correct_side":1,"subjID":"isabellaseguracardozo9","gender":"1","school":"6","age":"11"},{"start_time":1551899844060,"click_time":1551899846872,"finger_time":1551899845411,"fix_duration":307.7575058060534,"trial":36,"RT":1351,"MT":1461,"sideResp":1,"stimulus":[],"xmouse":[790,790,790,790,790,790,790,790,790,790,790,790,790,790,790,790,790,790,790,790,790,790,790,790,790,790,790,790,790,790,790,792,794,795,795,795,795,795,795,795,795,795,795,795,795,795,795,795,795,795,795,795,795,795,795,795,795,795,795,795,795,795,793,789,779,773,770,769,769,769,769,769,768,768,767,764,760,754,748,744,743,743,743,743,743,743,743,743,743,743,744,746,748,749,751,751,751,751,751,751,751,751,751,751,751,751,751,751,751,751,751,751,751,750,750,750,750,750,750,750,750,750,750,749,745,743,740,735,729,722,720,718,716,713,704,694,679,658,623,550,519],"ymouse":[507,507,507,507,507,507,507,507,507,507,507,507,507,507,507,507,507,507,507,507,507,507,507,507,507,507,507,507,507,507,507,502,499,497,497,497,497,497,497,497,497,497,497,497,497,497,497,497,497,497,497,497,497,497,497,497,497,497,497,497,497,497,493,488,478,473,471,469,469,469,469,469,469,469,468,466,463,458,453,448,447,447,447,447,447,447,447,447,446,445,442,440,437,435,429,429,427,426,424,414,408,403,398,395,391,390,389,387,387,384,383,380,378,377,376,376,376,376,376,376,376,374,372,368,359,354,350,343,336,326,323,321,316,312,295,282,262,238,199,120,75],"timestamp_mouse":[11,31,51,72,91,111,131,151,172,192,212,231,251,271,292,311,330,351,371,391,411,431,451,471,491,511,531,551,571,591,611,631,651,671,691,711,731,751,771,791,811,831,851,872,890,911,931,951,971,991,1011,1031,1051,1071,1091,1110,1131,1151,1171,1191,1211,1231,1251,1271,1291,1311,1331,1351,1371,1392,1411,1431,1451,1471,1491,1511,1531,1550,1571,1591,1611,1631,1651,1671,1691,1711,1731,1751,1771,1792,1812,1831,1851,1872,1891,1911,1931,1952,1971,1991,2011,2031,2051,2071,2091,2111,2131,2151,2171,2191,2212,2231,2251,2270,2291,2311,2331,2351,2372,2391,2412,2431,2451,2472,2491,2511,2531,2551,2571,2592,2611,2631,2651,2672,2692,2711,2731,2751,2772,2791,2812],"xSR":741.5,"ySR":469.95,"xT1":424.9,"yT1":0,"xT2":1058.1,"yT2":0,"toosoon":0,"cond_shown":"Congruent","ratio_trial":100,"L_num":4,"L_den":10,"R_num":15,"R_den":30,"correct_side":2,"subjID":"isabellaseguracardozo9","gender":"1","school":"6","age":"11"},{"start_time":1551899860388,"click_time":1551899862972,"finger_time":1551899862091,"fix_duration":1415.9015004451544,"trial":37,"RT":1703,"MT":881,"sideResp":1,"stimulus":[],"xmouse":[807,807,807,807,807,807,807,807,807,807,807,807,807,807,807,807,807,807,807,807,807,807,807,807,807,807,807,807,807,807,807,807,807,807,807,807,807,807,807,807,807,807,807,807,807,807,807,807,807,807,807,807,807,807,807,807,807,807,807,807,807,807,807,807,807,807,807,807,807,807,807,807,807,807,807,807,807,807,807,807,807,807,805,804,800,786,779,771,761,756,739,730,719,705,693,670,658,643,629,605,574,557,534,505,474,407,382,357,349,345,343,343,343,343,343,347,351,366,372,387,402,404,404,404,404,406,410,415,421,428],"ymouse":[504,504,504,504,504,504,504,504,504,504,504,504,504,504,504,504,504,504,504,504,504,504,504,504,504,504,504,504,504,504,504,504,504,504,504,504,504,504,504,504,504,504,504,504,504,504,504,504,504,504,504,504,504,504,504,504,504,504,504,504,504,504,504,504,504,504,504,504,504,504,504,504,504,504,504,504,504,504,504,504,504,504,500,497,487,459,444,430,409,398,370,358,346,334,325,308,299,288,277,260,233,218,201,177,154,97,75,54,46,36,23,19,17,15,13,12,13,17,18,22,26,26,26,26,26,27,27,28,29,29],"timestamp_mouse":[8,24,43,63,84,103,123,143,163,184,203,223,243,263,284,303,324,343,363,383,402,422,444,463,483,503,523,543,563,583,603,623,643,663,683,704,723,743,763,783,804,824,843,863,883,903,923,943,963,983,1003,1024,1044,1063,1084,1103,1123,1143,1163,1183,1204,1223,1243,1263,1284,1304,1323,1344,1363,1383,1403,1423,1444,1464,1483,1503,1523,1543,1563,1583,1603,1623,1644,1663,1684,1703,1723,1744,1763,1783,1804,1823,1843,1864,1883,1903,1923,1943,1963,1983,2004,2023,2043,2064,2084,2104,2123,2143,2163,2183,2203,2223,2243,2263,2283,2303,2323,2343,2363,2383,2403,2423,2443,2463,2483,2503,2524,2542,2564,2584],"xSR":741.5,"ySR":469.95,"xT1":424.9,"yT1":0,"xT2":1058.1,"yT2":0,"toosoon":0,"cond_shown":"Incongruent","ratio_trial":300,"L_num":1,"L