[{"start_time":1551900445470,"click_time":1551900447791,"finger_time":1551900446631,"fix_duration":1333.1821667299328,"trial":0,"RT":1161,"MT":1160,"sideResp":1,"stimulus":"img/250/equaldotanddens/L/7_Ratio_250_L_8_R_2.png","xmouse":[805,805,805,805,805,805,805,805,805,805,805,805,805,805,805,805,805,805,805,805,805,805,805,805,805,805,805,805,805,805,805,805,805,805,805,805,805,805,805,805,805,805,805,805,805,805,805,805,805,805,805,805,805,805,803,801,791,773,738,720,713,711,711,711,710,709,694,677,658,644,636,631,631,630,630,630,625,621,614,603,594,576,572,567,562,557,546,540,532,527,520,511,508,504,500,497,494,491,489,487,483,476,471,467,466,465,465,465,465,465,465,465,465,465,465,465,467],"ymouse":[553,553,553,553,553,553,553,553,553,553,553,553,553,553,553,553,553,553,553,553,553,553,553,553,553,553,553,553,553,553,553,553,553,553,553,553,553,553,553,553,553,553,553,553,553,553,553,553,553,553,553,553,553,553,553,552,539,518,495,483,478,477,477,475,474,472,454,435,416,403,393,384,379,368,361,355,341,333,319,302,287,267,262,256,250,245,231,224,215,206,197,182,176,169,160,156,150,144,141,137,131,118,111,106,104,104,104,104,104,104,104,104,104,104,104,103,96],"timestamp_mouse":[11,37,41,61,81,101,121,141,161,181,201,222,242,261,281,300,321,341,361,381,401,421,441,461,481,501,522,541,561,581,601,622,641,661,681,701,722,741,761,781,801,822,841,860,882,901,922,941,961,981,1001,1021,1041,1061,1081,1102,1121,1141,1161,1181,1201,1222,1241,1261,1281,1302,1321,1341,1361,1382,1401,1421,1442,1461,1481,1501,1522,1541,1561,1581,1601,1622,1642,1661,1680,1701,1721,1741,1761,1782,1801,1821,1842,1861,1881,1902,1921,1941,1961,1981,2001,2021,2041,2061,2081,2101,2121,2141,2161,2181,2201,2221,2242,2261,2281,2302,2321],"xSR":741.5,"ySR":501.8,"xT1":424.9,"yT1":0,"xT2":1058.1,"yT2":0,"toosoon":0,"cond_shown":"equaldotanddens","ratio_trial":250,"smaller_num":"2","larger_num":"8","correct_side":1,"subjID":"isabellaseguracardozo9","gender":null,"age":"6","school":null,"test":{"fix_dur":[250,1500],"timestim":300,"targets_dim":[100,100],"targets_relative_coord":[0.3,0.7],"size_stim":[880,420],"start_dim":[100,100],"size_start":[300,300],"size_fix":60,"samplingrate":20,"img_types":["equaldotsize","equaldotanddens","randomdotsizeEA"],"ratios":[250,500,750,900],"rep_conds":9,"nTrials":120,"trials_to_rest":500,"Trials_order":[1,96,69,53,18,44,101,49,13,48,58,56,107,39,68,12,41,67,109,117,89,62,38,60,102,106,108,43,80,35,81,93,111,24,37,98,82,65,84,70,22,112,8,114,7,36,29,6,94,33,57,9,32,26,85,88,23,51,27,11,20,110,28,61,16,52,73,118,75,3,54,31,42,40,63,2,83,97,74,99,45,25,78,19,77,90,116,103,10,0,115,119,95,64,92,4,17,87,50,15,79,105,30,55,21,5,14,71,113,47,66,86,91,100,76,72,59,46,104,34],"cond_shown":["equaldotanddens","equaldotsize","equaldotsize","randomdotsizeEA","equaldotsize","randomdotsizeEA","randomdotsizeEA","equaldotanddens","equaldotanddens","equaldotsize","equaldotanddens","randomdotsizeEA","randomdotsizeEA","equaldotsize","randomdotsizeEA","equaldotsize","randomdotsizeEA","equaldotanddens","equaldotanddens","equaldotsize","randomdotsizeEA","randomdotsizeEA","randomdotsizeEA","equaldotsize","equaldotsize","equaldotanddens","equaldotsize","equaldotanddens","randomdotsizeEA","randomdotsizeEA","equaldotsize","equaldotsize","equaldotsize","equaldotsize","equaldotanddens","randomdotsizeEA","equaldotanddens","randomdotsizeEA","equaldotsize","equaldotanddens","equaldotanddens","equaldotanddens","randomdotsizeEA","equaldotsize","equaldotanddens","equaldotsize","randomdotsizeEA","equaldotsize","equaldotanddens","equaldotsize","equaldotsize","equaldotsize","randomdotsizeEA","randomdotsizeEA","equaldotanddens","equaldotanddens","randomdotsizeEA","equaldotsize","equaldotsize","randomdotsizeEA","randomdotsizeEA","randomdotsizeEA","equaldotanddens","equaldotanddens","equaldotanddens","equaldotanddens","equaldotanddens","equaldotanddens","equaldotsize","equaldotsize","equaldotsize","equaldotanddens","equaldotsize","equaldotanddens","equaldotsize","randomdotsizeEA","randomdotsizeEA","equaldotanddens","randomdotsizeEA","equaldotsize","equaldotsize","equaldotanddens","equaldotsize","equaldotanddens","randomdotsizeEA","equaldotsize","randomdotsizeEA","equaldotanddens","equaldotanddens","equaldotsize","equaldotanddens","randomdotsizeEA","randomdotsizeEA","equaldotanddens","randomdotsizeEA","equaldotanddens","randomdotsizeEA","equaldotsize","randomdotsizeEA","equaldotsize","equaldotanddens","equaldotsize","equaldotsize","equaldotanddens","equaldotsize","randomdotsizeEA","randomdotsizeEA","randomdotsizeEA","randomdotsizeEA","randomdotsizeEA","equaldotsize","randomdotsizeEA","equaldotanddens","equaldotanddens","equaldotanddens","equaldotsize","randomdotsizeEA","equaldotanddens","randomdotsizeEA","equaldotanddens"],"ratio_trial":[250,250,900,500,750,750,500,250,250,250,900,750,900,500,750,250,500,750,250,900,500,250,250,250,750,900,250,750,750,900,900,900,500,250,250,250,900,500,250,900,900,500,750,750,750,250,500,750,900,900,900,900,750,250,250,500,900,500,500,900,750,250,500,250,500,500,250,900,500,500,750,750,750,500,500,250,900,250,250,500,900,250,750,750,500,750,750,750,900,250,750,900,900,500,750,500,500,500,250,500,750,900,750,750,900,500,250,900,500,900,750,250,750,500,500,250,900,900,750,900],"smaller_num":["2","4","18","3","3","3","5","4","2","5","9","3","18","1","3","2","1","6","4","9","6","2","2","4","18","18","1","15","3","9","18","18","2","4","2","4","18","5","3","18","18","9","9","3","3","3","5","15","18","18","18","18","15","5","3","2","18","2","6","18","12","3","9","2","1","4","2","9","2","9","15","6","6","2","2","3","18","2","2","2","9","3","15","9","2","3","6","12","18","3","6","18","9","3","3","4","9","9","4","10","15","9","9","6","18","2","2","9","10","9","6","3","15","10","2","3","9","18","6","18"],"larger_num":["8","16","20","6","4","4","10","16","8","20","10","4","20","2","4","8","2","8","16","10","12","8","8","16","24","20","4","20","4","10","20","20","4","16","8","16","20","10","12","20","20","18","12","4","4","12","10","20","20","20","20","20","20","20","12","4","20","4","12","20","16","12","18","8","2","8","8","10","4","18","20","8","8","4","4","12","20","8","8","4","10","12","20","12","4","4","8","16","20","12","8","20","10","6","4","8","18","18","16","20","20","10","12","8","20","4","8","10","20","10","8","12","20","20","4","12","10","20","8","20"],"correct_side":[1,2,1,2,2,1,2,1,1,2,2,2,2,2,1,2,2,1,2,2,1,1,2,1,1,2,2,1,1,1,1,1,1,2,1,2,1,2,1,1,1,1,2,2,2,1,1,2,1,2,1,1,1,2,1,2,2,1,1,2,2,2,1,1,2,1,1,2,1,1,1,1,2,1,1,2,1,1,2,1,1,2,2,2,2,1,1,2,1,2,1,1,2,2,1,1,2,2,2,2,1,2,2,1,1,1,2,2,2,2,1,1,2,2,2,2,1,2,1,1],"img_shown":["img/250/equaldotanddens/L/7_Ratio_250_L_8_R_2.png","img/250/equaldotsize/R/10_Ratio_250_L_4_R_16.png","img/900/equaldotsize/L/4_Ratio_900_L_20_R_18.png","img/500/randomdotsizeEA/R/2_Ratio_500_L_3_R_6.png","img/750/equaldotsize/R/12_Ratio_750_L_3_R_4.png","img/750/randomdotsizeEA/L/10_Ratio_750_L_4_R_3.png","img/500/randomdotsizeEA/R/14_Ratio_500_L_5_R_10.png","img/250/equaldotanddens/L/2_Ratio_250_L_16_R_4.png","img/250/equaldotanddens/L/1_Ratio_250_L_8_R_2.png","img/250/equaldotsize/R/12_Ratio_250_L_5_R_20.png","img/900/equaldotanddens/R/5_Ratio_900_L_9_R_10.png","img/750/randomdotsizeEA/R/12_Ratio_750_L_3_R_4.png","img/900/randomdotsizeEA/R/12_Ratio_900_L_18_R_20.png","img/500/equaldotsize/R/15_Ratio_500_L_1_R_2.png","img/750/randomdotsizeEA/L/9_Ratio_750_L_4_R_3.png","img/250/equaldotsize/R/13_Ratio_250_L_2_R_8.png","img/500/randomdotsizeEA/R/12_Ratio_500_L_1_R_2.png","img/750/equaldotanddens/L/13_Ratio_750_L_8_R_6.png","img/250/equaldotanddens/R/10_Ratio_250_L_4_R_16.png","img/900/equaldotsize/R/7_Ratio_900_L_9_R_10.png","img/500/randomdotsizeEA/L/11_Ratio_500_L_12_R_6.png","img/250/randomdotsizeEA/L/7_Ratio_250_L_8_R_2.png","img/250/randomdotsizeEA/R/13_Ratio_250_L_2_R_8.png","img/250/equaldotsize/L/2_Ratio_250_L_16_R_4.png","img/750/equaldotsize/L/6_Ratio_750_L_24_R_18.png","img/900/equaldotanddens/R/12_Ratio_900_L_18_R_20.png","img/250/equaldotsize/R/8_Ratio_250_L_1_R_4.png","img/750/equaldotanddens/L/1_Ratio_750_L_20_R_15.png","img/750/randomdotsizeEA/L/9_Ratio_750_L_4_R_3.png","img/900/randomdotsizeEA/L/1_Ratio_900_L_10_R_9.png","img/900/equaldotsize/L/8_Ratio_900_L_20_R_18.png","img/900/equaldotsize/L/4_Ratio_900_L_20_R_18.png","img/500/equaldotsize/L/5_Ratio_500_L_4_R_2.png","img/250/equaldotsize/R/10_Ratio_250_L_4_R_16.png","img/250/equaldotanddens/L/7_Ratio_250_L_8_R_2.png","img/250/randomdotsizeEA/R/10_Ratio_250_L_4_R_16.png","img/900/equaldotanddens/L/10_Ratio_900_L_20_R_18.png","img/500/randomdotsizeEA/R/14_Ratio_500_L_5_R_10.png","img/250/equaldotsize/L/14_Ratio_250_L_12_R_3.png","img/900/equaldotanddens/L/10_Ratio_900_L_20_R_18.png","img/900/equaldotanddens/L/2_Ratio_900_L_20_R_18.png","img/500/equaldotanddens/L/4_Ratio_500_L_18_R_9.png","img/750/randomdotsizeEA/R/15_Ratio_750_L_9_R_12.png","img/750/equaldotsize/R/7_Ratio_750_L_3_R_4.png","img/750/equaldotanddens/R/12_Ratio_750_L_3_R_4.png","img/250/equaldotsize/L/14_Ratio_250_L_12_R_3.png","img/500/randomdotsizeEA/L/7_Ratio_500_L_10_R_5.png","img/750/equaldotsize/R/3_Ratio_750_L_15_R_20.png","img/900/equaldotanddens/L/8_Ratio_900_L_20_R_18.png","img/900/equaldotsize/R/13_Ratio_900_L_18_R_20.png","img/900/equaldotsize/L/2_Ratio_900_L_20_R_18.png","img/900/equaldotsize/L/10_Ratio_900_L_20_R_18.png","img/750/randomdotsizeEA/L/1_Ratio_750_L_20_R_15.png","img/250/randomdotsizeEA/R/12_Ratio_250_L_5_R_20.png","img/250/equaldotanddens/L/15_Ratio_250_L_12_R_3.png","img/500/equaldotanddens/R/9_Ratio_500_L_2_R_4.png","img/900/randomdotsizeEA/R/9_Ratio_900_L_18_R_20.png","img/500/equaldotsize/L/10_Ratio_500_L_4_R_2.png","img/500/equaldotsize/L/11_Ratio_500_L_12_R_6.png","img/900/randomdotsizeEA/R/9_Ratio_900_L_18_R_20.png","img/750/randomdotsizeEA/R/11_Ratio_750_L_12_R_16.png","img/250/randomdotsizeEA/R/4_Ratio_250_L_3_R_12.png","img/500/equaldotanddens/L/4_Ratio_500_L_18_R_9.png","img/250/equaldotanddens/L/3_Ratio_250_L_8_R_2.png","img/500/equaldotanddens/R/15_Ratio_500_L_1_R_2.png","img/500/equaldotanddens/L/8_Ratio_500_L_8_R_4.png","img/250/equaldotanddens/L/7_Ratio_250_L_8_R_2.png","img/900/equaldotanddens/R/5_Ratio_900_L_9_R_10.png","img/500/equaldotsize/L/10_Ratio_500_L_4_R_2.png","img/500/equaldotsize/L/4_Ratio_500_L_18_R_9.png","img/750/equaldotsize/L/1_Ratio_750_L_20_R_15.png","img/750/equaldotanddens/L/14_Ratio_750_L_8_R_6.png","img/750/equaldotsize/R/2_Ratio_750_L_6_R_8.png","img/500/equaldotanddens/L/10_Ratio_500_L_4_R_2.png","img/500/equaldotsize/L/10_Ratio_500_L_4_R_2.png","img/250/randomdotsizeEA/R/4_Ratio_250_L_3_R_12.png","img/900/randomdotsizeEA/L/2_Ratio_900_L_20_R_18.png","img/250/equaldotanddens/L/1_Ratio_250_L_8_R_2.png","img/250/randomdotsizeEA/R/13_Ratio_250_L_2_R_8.png","img/500/equaldotsize/L/5_Ratio_500_L_4_R_2.png","img/900/equaldotsize/L/1_Ratio_900_L_10_R_9.png","img/250/equaldotanddens/R/4_Ratio_250_L_3_R_12.png","img/750/equaldotsize/R/4_Ratio_750_L_15_R_20.png","img/750/equaldotanddens/R/15_Ratio_750_L_9_R_12.png","img/500/randomdotsizeEA/R/9_Ratio_500_L_2_R_4.png","img/750/equaldotsize/L/8_Ratio_750_L_4_R_3.png","img/750/randomdotsizeEA/L/13_Ratio_750_L_8_R_6.png","img/750/equaldotanddens/R/11_Ratio_750_L_12_R_16.png","img/900/equaldotanddens/L/8_Ratio_900_L_20_R_18.png","img/250/equaldotsize/R/4_Ratio_250_L_3_R_12.png","img/750/equaldotanddens/L/14_Ratio_750_L_8_R_6.png","img/900/randomdotsizeEA/L/2_Ratio_900_L_20_R_18.png","img/900/randomdotsizeEA/R/15_Ratio_900_L_9_R_10.png","img/500/equaldotanddens/R/2_Ratio_500_L_3_R_6.png","img/750/randomdotsizeEA/L/8_Ratio_750_L_4_R_3.png","img/500/equaldotanddens/L/8_Ratio_500_L_8_R_4.png","img/500/randomdotsizeEA/R/6_Ratio_500_L_9_R_18.png","img/500/equaldotsize/R/6_Ratio_500_L_9_R_18.png","img/250/randomdotsizeEA/R/10_Ratio_250_L_4_R_16.png","img/500/equaldotsize/R/3_Ratio_500_L_10_R_20.png","img/750/equaldotanddens/L/1_Ratio_750_L_20_R_15.png","img/900/equaldotsize/R/7_Ratio_900_L_9_R_10.png","img/750/equaldotsize/R/15_Ratio_750_L_9_R_12.png","img/750/equaldotanddens/L/13_Ratio_750_L_8_R_6.png","img/900/equaldotsize/L/4_Ratio_900_L_20_R_18.png","img/500/randomdotsizeEA/L/5_Ratio_500_L_4_R_2.png","img/250/randomdotsizeEA/R/13_Ratio_250_L_2_R_8.png","img/900/randomdotsizeEA/R/7_Ratio_900_L_9_R_10.png","img/500/randomdotsizeEA/R/3_Ratio_500_L_10_R_20.png","img/900/randomdotsizeEA/R/5_Ratio_900_L_9_R_10.png","img/750/equaldotsize/L/13_Ratio_750_L_8_R_6.png","img/250/randomdotsizeEA/L/15_Ratio_250_L_12_R_3.png","img/750/equaldotanddens/R/5_Ratio_750_L_15_R_20.png","img/500/equaldotanddens/R/3_Ratio_500_L_10_R_20.png","img/500/equaldotanddens/R/9_Ratio_500_L_2_R_4.png","img/250/equaldotsize/R/4_Ratio_250_L_3_R_12.png","img/900/randomdotsizeEA/L/1_Ratio_900_L_10_R_9.png","img/900/equaldotanddens/R/13_Ratio_900_L_18_R_20.png","img/750/randomdotsizeEA/L/14_Ratio_750_L_8_R_6.png","img/900/equaldotanddens/L/2_Ratio_900_L_20_R_18.png"],"Rat0":[["12_Ratio_0_L_9_R_0.png","13_Ratio_0_L_6_R_0.png","5_Ratio_0_L_2_R_0.png","6_Ratio_0_L_4_R_0.png","8_Ratio_0_L_6_R_0.png"],["1_Ratio_0_L_0_R_17.png","10_Ratio_0_L_0_R_22.png","11_Ratio_0_L_0_R_1.png","14_Ratio_0_L_0_R_24.png","15_Ratio_0_L_0_R_4.png","2_Ratio_0_L_0_R_5.png","3_Ratio_0_L_0_R_17.png","4_Ratio_0_L_0_R_7.png","7_Ratio_0_L_0_R_19.png","9_Ratio_0_L_0_R_15.png"]],"Rat250":[["1_Ratio_250_L_8_R_2.png","14_Ratio_250_L_12_R_3.png","15_Ratio_250_L_12_R_3.png","2_Ratio_250_L_16_R_4.png","3_Ratio_250_L_8_R_2.png","5_Ratio_250_L_24_R_6.png","7_Ratio_250_L_8_R_2.png"],["10_Ratio_250_L_4_R_16.png","11_Ratio_250_L_3_R_12.png","12_Ratio_250_L_5_R_20.png","13_Ratio_250_L_2_R_8.png","4_Ratio_250_L_3_R_12.png","6_Ratio_250_L_6_R_24.png","8_Ratio_250_L_1_R_4.png","9_Ratio_250_L_3_R_12.png"]],"Rat500":[["10_Ratio_500_L_4_R_2.png","11_Ratio_500_L_12_R_6.png","13_Ratio_500_L_12_R_6.png","4_Ratio_500_L_18_R_9.png","5_Ratio_500_L_4_R_2.png","7_Ratio_500_L_10_R_5.png","8_Ratio_500_L_8_R_4.png"],["1_Ratio_500_L_9_R_18.png","12_Ratio_500_L_1_R_2.png","14_Ratio_500_L_5_R_10.png","15_Ratio_500_L_1_R_2.png","2_Ratio_500_L_3_R_6.png","3_Ratio_500_L_10_R_20.png","6_Ratio_500_L_9_R_18.png","9_Ratio_500_L_2_R_4.png"]],"Rat750":[["1_Ratio_750_L_20_R_15.png","10_Ratio_750_L_4_R_3.png","13_Ratio_750_L_8_R_6.png","14_Ratio_750_L_8_R_6.png","6_Ratio_750_L_24_R_18.png","8_Ratio_750_L_4_R_3.png","9_Ratio_750_L_4_R_3.png"],["11_Ratio_750_L_12_R_16.png","12_Ratio_750_L_3_R_4.png","15_Ratio_750_L_9_R_12.png","2_Ratio_750_L_6_R_8.png","3_Ratio_750_L_15_R_20.png","4_Ratio_750_L_15_R_20.png","5_Ratio_750_L_15_R_20.png","7_Ratio_750_L_3_R_4.png"]],"Rat900":[["1_Ratio_900_L_10_R_9.png","10_Ratio_900_L_20_R_18.png","2_Ratio_900_L_20_R_18.png","4_Ratio_900_L_20_R_18.png","8_Ratio_900_L_20_R_18.png"],["11_Ratio_900_L_18_R_20.png","12_Ratio_900_L_18_R_20.png","13_Ratio_900_L_18_R_20.png","14_Ratio_900_L_18_R_20.png","15_Ratio_900_L_9_R_10.png","3_Ratio_900_L_9_R_10.png","5_Ratio_900_L_9_R_10.png","6_Ratio_900_L_9_R_10.png","7_Ratio_900_L_9_R_10.png","9_Ratio_900_L_18_R_20.png"]],"Rat1000":[["10_Ratio_1000_L_16_R_16.png","11_Ratio_1000_L_6_R_6.png","12_Ratio_1000_L_14_R_14.png","13_Ratio_1000_L_20_R_20.png","15_Ratio_1000_L_15_R_15.png","2_Ratio_1000_L_17_R_17.png","4_Ratio_1000_L_9_R_9.png","5_Ratio_1000_L_6_R_6.png","6_Ratio_1000_L_19_R_19.png","8_Ratio_1000_L_14_R_14.png","9_Ratio_1000_L_25_R_25.png"],["1_Ratio_1000_L_1_R_1.png","14_Ratio_1000_L_17_R_17.png","3_Ratio_1000_L_17_R_17.png","7_Ratio_1000_L_6_R_6.png"]]}},{"start_time":1551900455675,"click_time":1551900457293,"finger_time":1551900456412,"fix_duration":942.5728274162647,"trial":1,"RT":737,"MT":881,"sideResp":2,"stimulus":"img/250/equaldotsize/R/10_Ratio_250_L_4_R_16.png","xmouse":[785,785,785,785,785,785,785,785,785,785,785,785,785,785,785,785,785,785,785,785,785,785,785,785,785,785,785,785,785,785,785,785,790,800,816,829,875,907,933,950,952,952,955,957,961,964,967,968,971,976,984,1008,1018,1032,1043,1046,1045,1037,1037,1037,1037,1037,1037,1037,1037,1037,1037,1037,1037,1037,1037,1037,1037,1042,1064,1081,1099,1126,1134,1135,1138],"ymouse":[544,544,544,544,544,544,544,544,544,544,544,544,544,544,544,544,544,544,544,544,544,544,544,544,544,544,544,544,544,544,544,544,537,519,498,482,438,412,389,375,371,367,347,335,325,316,310,302,296,284,269,237,226,220,214,213,212,209,209,209,209,209,209,209,209,209,209,209,209,209,209,209,209,205,192,181,168,128,109,103,97],"timestamp_mouse":[18,37,63,76,97,117,136,158,176,197,217,236,257,277,297,318,338,357,377,397,417,436,457,477,497,516,538,556,576,596,617,637,657,678,697,718,737,758,777,797,816,837,857,877,897,916,937,958,977,997,1017,1037,1057,1077,1097,1117,1137,1157,1177,1197,1217,1237,1257,1277,1297,1317,1337,1357,1378,1397,1418,1438,1456,1478,1496,1517,1537,1557,1577,1596,1617],"xSR":741.5,"ySR":469.95,"xT1":424.9,"yT1":0,"xT2":1058.1,"yT2":0,"toosoon":0,"cond_shown":"equaldotsize","ratio_trial":250,"smaller_num":"4","larger_num":"16","correct_side":2,"subjID":"isabellaseguracardozo9","gender":null,"age":"6","school":null},{"start_time":1551900458834,"click_time":1551900460432,"finger_time":1551900459972,"fix_duration":499.153511324218,"trial":2,"RT":1138,"MT":460,"sideResp":2,"stimulus":"img/900/equaldotsize/L/4_Ratio_900_L_20_R_18.png","xmouse":[796,796,796,796,796,796,796,796,796,796,796,796,796,796,796,796,796,796,796,796,796,796,796,796,796,796,796,796,796,796,796,796,796,796,796,797,797,798,799,799,799,799,799,799,800,800,803,803,805,807,807,808,809,812,820,827,836,844,855,875,891,899,906,915,921,934,942,952,968,977,993,1002,1011,1020,1028,1036,1036,1037,1039,1044,1060],"ymouse":[514,514,514,514,514,514,514,514,514,514,514,514,514,514,514,514,514,514,514,514,514,514,514,514,514,514,514,514,514,514,514,514,514,514,513,511,510,509,508,507,507,507,507,507,507,506,505,504,504,502,502,501,500,498,491,486,477,467,454,427,402,388,371,352,332,299,282,258,226,204,170,156,140,126,115,106,105,104,102,98,82],"timestamp_mouse":[1,18,38,65,79,98,118,138,157,178,197,217,237,257,277,298,317,338,358,378,399,417,439,458,478,498,517,537,557,578,598,619,638,658,679,698,717,739,758,778,797,818,839,858,878,897,918,938,958,978,997,1017,1038,1057,1078,1098,1118,1138,1158,1179,1197,1217,1237,1258,1278,1298,1317,1338,1357,1377,1398,1417,1437,1457,1477,1497,1518,1537,1557,1578,1598],"xSR":741.5,"ySR":469.95,"xT1":424.9,"yT1":0,"xT2":1058.1,"yT2":0,"toosoon":0,"cond_shown":"equaldotsize","ratio_trial":900,"smaller_num":"18","larger_num":"20","correct_side":1,"subjID":"isabellaseguracardozo9","gender":null,"age":"6","school":null},{"start_time":1551900462803,"click_time":1551900464232,"finger_time":1551900463751,"fix_duration":1050.929774562044,"trial":3,"RT":948,"MT":481,"sideResp":2,"stimulus":"img/500/randomdotsizeEA/R/2_Ratio_500_L_3_R_6.png","xmouse":[794,794,794,794,794,794,794,794,794,794,794,794,794,794,794,794,794,794,794,794,794,794,794,794,794,794,794,794,794,794,794,794,794,794,794,794,794,794,794,794,794,794,794,797,803,814,833,843,852,867,877,898,906,914,922,931,952,963,971,983,1000,1016,1020,1025,1030,1037,1046,1048,1048,1051,1055,1068],"ymouse":[519,519,519,519,519,519,519,519,519,519,519,519,519,519,519,519,519,519,519,519,519,519,519,519,519,519,519,519,519,519,519,519,519,519,519,519,519,519,519,519,519,519,519,518,514,507,492,481,468,446,429,381,355,328,299,275,240,219,205,189,170,160,157,153,148,140,126,124,123,118,112,91],"timestamp_mouse":[9,29,48,71,89,109,129,149,169,189,209,229,248,269,289,310,330,349,369,389,408,428,448,469,489,509,529,549,568,590,608,629,649,669,689,709,730,748,769,790,809,828,848,868,888,908,929,948,968,989,1009,1028,1049,1069,1089,1109,1128,1149,1170,1189,1209,1229,1249,1268,1290,1309,1330,1349,1369,1389,1410,1429],"xSR":741.5,"ySR":469.95,"xT1":424.9,"yT1":0,"xT2":1058.1,"yT2":0,"toosoon":0,"cond_shown":"randomdotsizeEA","ratio_trial":500,"smaller_num":"3","larger_num":"6","correct_side":2,"subjID":"isabellaseguracardozo9","gender":null,"age":"6","school":null},{"start_time":1551900467429,"click_time":1551900468752,"finger_time":1551900468212,"fix_duration":775.339943275884,"trial":4,"RT":783,"MT":540,"sideResp":2,"stimulus":"img/750/equaldotsize/R/12_Ratio_750_L_3_R_4.png","xmouse":[784,784,784,784,784,784,784,784,784,784,784,784,784,784,781,775,771,770,769,769,769,769,769,769,769,769,769,769,769,769,769,769,769,769,769,769,777,803,838,869,887,923,941,966,986,1008,1018,1018,1018,1018,1018,1017,1017,1017,1017,1017,1019,1020,1022,1028,1044,1053,1063,1073,1081,1083,1081],"ymouse":[509,509,509,509,509,509,509,509,509,509,509,509,509,509,510,513,516,516,517,517,517,517,517,517,517,517,517,517,517,517,517,517,517,517,517,517,512,496,475,454,441,408,384,362,334,292,265,258,251,244,241,234,229,222,217,209,206,203,199,193,180,173,164,154,140,118,98],"timestamp_mouse":[9,22,43,71,84,102,122,142,162,182,203,223,243,262,282,304,323,343,362,383,403,423,443,463,483,503,522,543,563,582,603,623,643,663,683,703,723,743,762,783,803,823,844,863,882,903,923,943,962,983,1004,1022,1043,1063,1082,1104,1123,1143,1163,1183,1203,1222,1243,1263,1283,1303,1322],"xSR":741.5,"ySR":469.95,"xT1":424.9,"yT1":0,"xT2":1058.1,"yT2":0,"toosoon":0,"cond_shown":"equaldotsize","ratio_trial":750,"smaller_num":"3","larger_num":"4","correct_side":2,"subjID":"isabellaseguracardozo9","gender":null,"age":"6","school":null},{"start_time":1551900471224,"click_time":1551900473112,"finger_time":1551900472131,"fix_duration":1470.946392766328,"trial":5,"RT":907,"MT":981,"sideResp":1,"stimulus":"img/750/randomdotsizeEA/L/10_Ratio_750_L_4_R_3.png","xmouse":[783,783,783,783,783,783,783,783,783,783,783,783,783,783,783,783,783,783,783,783,783,783,783,783,783,783,783,783,783,783,783,783,783,783,783,783,783,783,783,782,784,798,806,827,832,851,865,868,869,869,869,874,882,905,926,946,958,958,959,959,959,939,917,876,860,803,742,720,701,684,671,650,644,638,626,618,598,585,571,563,558,553,551,549,546,542,533,529,527,525,523,518,512,510,507],"ymouse":[531,531,531,531,531,531,531,531,531,531,531,531,531,531,531,531,531,531,531,531,531,531,531,531,531,531,531,531,531,531,531,531,531,531,531,531,531,531,531,531,529,516,508,491,486,460,430,423,421,421,421,418,415,402,388,370,357,355,354,353,351,341,332,315,310,289,268,258,251,241,234,221,218,215,211,206,195,186,177,170,164,157,156,152,149,144,135,131,128,125,123,114,106,104,99],"timestamp_mouse":[9,37,48,68,89,108,128,147,167,187,207,227,248,268,288,308,328,348,368,388,408,428,447,467,488,508,529,548,568,588,609,628,648,668,689,709,729,747,767,788,808,828,848,868,887,907,927,948,968,988,1008,1028,1048,1068,1088,1108,1127,1148,1168,1188,1209,1228,1248,1268,1288,1308,1327,1348,1368,1389,1408,1427,1449,1468,1487,1508,1528,1548,1568,1588,1608,1628,1647,1668,1687,1707,1727,1749,1769,1789,1807,1828,1847,1868,1888],"xSR":741.5,"ySR":469.95,"xT1":424.9,"yT1":0,"xT2":1058.1,"yT2":0,"toosoon":0,"cond_shown":"randomdotsizeEA","ratio_trial":750,"smaller_num":"3","larger_num":"4","correct_side":1,"subjID":"isabellaseguracardozo9","gender":null,"age":"6","school":null},{"start_time":1551900474561,"click_time":1551900475872,"finger_time":1551900475372,"fix_duration":388.35494019164827,"trial":6,"RT":811,"MT":500,"sideResp":2,"stimulus":"img/500/randomdotsizeEA/R/14_Ratio_500_L_5_R_10.png","xmouse":[767,767,767,767,767,767,767,767,767,767,767,767,767,767,767,767,767,767,767,767,767,767,767,767,767,767,767,767,767,767,767,767,767,767,767,767,767,767,767,829,924,1009,1063,1093,1130,1146,1152,1153,1153,1153,1153,1155,1158,1159,1159,1159,1159,1158,1156,1155,1153,1153,1153,1153,1153,1151],"ymouse":[521,521,521,521,521,521,521,521,521,521,521,521,521,521,521,521,521,521,521,521,521,521,521,521,521,521,521,521,521,521,521,521,521,521,521,521,521,521,521,480,414,353,319,292,258,226,207,194,192,190,180,170,159,151,149,147,144,139,134,128,122,119,114,109,104,78],"timestamp_mouse":[11,30,52,71,90,111,131,151,172,190,210,232,251,271,290,312,331,351,372,391,411,430,451,471,491,511,531,551,570,591,611,632,651,671,690,711,731,751,771,790,811,832,851,871,891,910,931,952,971,991,1010,1031,1051,1070,1091,1112,1131,1151,1171,1191,1211,1231,1251,1271,1291,1311],"xSR":741.5,"ySR":469.95,"xT1":424.9,"yT1":0,"xT2":1058.1,"yT2":0,"toosoon":0,"cond_shown":"randomdotsizeEA","ratio_trial":500,"smaller_num":"5","larger_num":"10","correct_side":2,"subjID":"isabellaseguracardozo9","gender":null,"age":"6","school":null},{"start_time":1551900477403,"click_time":1551900478492,"finger_time":1551900477972,"fix_duration":250,"trial":7,"RT":569,"MT":520,"sideResp":1,"stimulus":"img/250/equaldotanddens/L/2_Ratio_250_L_16_R_4.png","xmouse":[794,794,794,794,794,794,794,794,794,794,794,794,794,794,794,794,794,794,794,793,792,785,780,768,764,763,762,761,755,748,741,721,714,682,673,664,655,650,644,641,639,636,622,611,600,591,583,564,558,555,551,546,533,525,514],"ymouse":[502,502,502,502,502,502,502,502,502,502,502,502,502,502,502,502,502,502,502,502,502,497,494,489,486,485,484,481,461,443,422,383,370,310,289,271,251,235,198,184,175,167,148,139,132,126,122,113,111,110,108,107,103,100,97],"timestamp_mouse":[9,36,50,69,89,108,129,148,169,189,209,228,248,269,288,309,329,349,369,389,410,430,449,469,489,508,529,549,569,588,610,629,649,669,689,709,730,750,768,789,809,829,850,868,889,910,930,950,969,989,1009,1029,1050,1069,1089],"xSR":741.5,"ySR":469.95,"xT1":424.9,"yT1":0,"xT2":1058.1,"yT2":0,"toosoon":0,"cond_shown":"equaldotanddens","ratio_trial":250,"smaller_num":"4","larger_num":"16","correct_side":1,"subjID":"isabellaseguracardozo9","gender":null,"age":"6","school":null},{"start_time":1551900480093,"click_time":1551900480992,"finger_time":1551900480571,"fix_duration":320.0196092096435,"trial":8,"RT":478,"MT":421,"sideResp":1,"stimulus":"img/250/equaldotanddens/L/1_Ratio_250_L_8_R_2.png","xmouse":[786,786,786,786,786,786,786,786,786,786,786,786,786,786,785,785,783,782,780,778,776,769,762,716,686,664,648,643,634,631,622,608,595,575,573,572,572,572,570,568,565,559,551,528,517],"ymouse":[514,514,514,514,514,514,514,514,514,514,514,514,514,514,514,512,510,509,507,505,503,498,491,456,427,400,371,350,308,284,259,234,209,171,161,156,155,154,149,145,140,134,125,100,90],"timestamp_mouse":[20,40,60,79,98,118,139,159,179,199,219,239,259,279,299,320,339,360,379,399,419,438,459,478,498,518,540,559,579,599,619,639,659,679,700,719,738,758,780,799,819,838,859,879,899],"xSR":741.5,"ySR":469.95,"xT1":424.9,"yT1":0,"xT2":1058.1,"yT2":0,"toosoon":0,"cond_shown":"equaldotanddens","ratio_trial":250,"smaller_num":"2","larger_num":"8","correct_side":1,"subjID":"isabellaseguracardozo9","gender":null,"age":"6","school":null},{"start_time":1551900482985,"click_time":1551900483891,"finger_time":1551900483491,"fix_duration":632.4726579980055,"trial":9,"RT":506,"MT":400,"sideResp":2,"stimulus":"img/250/equaldotsize/R/12_Ratio_250_L_5_R_20.png","xmouse":[782,782,782,782,782,782,782,782,782,782,782,782,782,782,782,782,782,782,782,782,782,783,787,795,815,827,838,851,873,924,956,967,972,978,991,998,1005,1015,1024,1037,1046,1051,1054,1059,1062,1074],"ymouse":[501,501,501,501,501,501,501,501,501,501,501,501,501,501,501,501,501,501,501,501,501,502,501,497,480,461,439,412,373,285,240,228,222,217,204,193,183,170,161,148,140,132,125,119,110,93],"timestamp_mouse":[9,27,47,67,87,106,128,147,167,186,207,227,248,267,286,307,327,347,367,386,407,427,447,467,486,506,526,546,566,587,606,627,647,666,687,706,728,747,766,787,808,827,847,868,887,906],"xSR":741.5,"ySR":469.95,"xT1":424.9,"yT1":0,"xT2":1058.1,"yT2":0,"toosoon":0,"cond_shown":"equaldotsize","ratio_trial":250,"smaller_num":"5","larger_num":"20","correct_side":2,"subjID":"isabellaseguracardozo9","gender":null,"age":"6","school":null},{"start_time":1551900486089,"click_time":1551900486992,"finger_time":1551900486892,"fix_duration":1195.7742991898624,"trial":10,"RT":803,"MT":100,"sideResp":2,"stimulus":"img/900/equaldotanddens/R/5_Ratio_900_L_9_R_10.png","xmouse":[766,766,766,766,766,766,766,766,766,766,766,766,766,766,766,766,766,764,762,761,759,759,759,759,759,759,759,759,759,759,759,759,759,759,759,762,763,769,776,787,847,905,954,1004,1037,1079],"ymouse":[522,522,522,522,522,522,522,522,522,522,522,522,522,522,522,522,522,523,524,524,524,524,524,524,524,524,524,524,524,524,524,524,524,524,523,521,520,517,512,503,449,380,304,224,153,57],"timestamp_mouse":[9,22,43,63,91,103,123,142,162,182,203,223,243,262,283,304,323,343,363,383,402,422,443,463,482,502,523,543,563,583,602,623,643,663,683,703,722,743,763,783,803,823,843,864,883,903],"xSR":741.5,"ySR":469.95,"xT1":424.9,"yT1":0,"xT2":1058.1,"yT2":0,"toosoon":0,"cond_shown":"equaldotanddens","ratio_trial":900,"smaller_num":"9","larger_num":"10","correct_side":2,"subjID":"isabellaseguracardozo9","gender":null,"age":"6","school":null},{"start_time":1551900488925,"click_time":1551900490272,"finger_time":1551900489732,"fix_duration":1071.9326853836878,"trial":11,"RT":807,"MT":540,"sideResp":2,"stimulus":"img/750/randomdotsizeEA/R/12_Ratio_750_L_3_R_4.png","xmouse":[791,791,791,791,791,791,791,791,791,791,791,791,791,791,791,791,791,791,791,791,791,791,791,791,791,791,791,791,791,791,791,791,791,791,793,795,795,796,799,801,807,824,845,899,923,942,959,971,987,997,1000,1011,1021,1021,1021,1021,1021,1021,1021,1021,1021,1021,1021,1021,1021,1047,1053,1063],"ymouse":[498,498,498,498,498,498,498,498,498,498,498,498,498,498,498,498,498,498,498,498,498,498,498,498,498,498,498,498,498,498,498,498,498,498,498,498,497,496,485,476,462,425,388,295,253,219,187,161,122,91,79,40,3,3,3,3,3,3,3,3,3,3,3,3,3,6,17,37],"timestamp_mouse":[8,27,59,67,87,106,128,147,167,187,207,227,247,267,287,307,327,347,367,387,406,427,448,467,487,507,527,547,566,586,607,627,647,668,686,707,727,747,766,786,807,827,847,866,887,907,927,946,966,986,1007,1027,1047,1067,1086,1106,1128,1147,1168,1187,1207,1226,1246,1268,1287,1307,1327,1347],"xSR":741.5,"ySR":469.95,"xT1":424.9,"yT1":0,"xT2":1058.1,"yT2":0,"toosoon":0,"cond_shown":"randomdotsizeEA","ratio_trial":750,"smaller_num":"3","larger_num":"4","correct_side":2,"subjID":"isabellaseguracardozo9","gender":null,"age":"6","school":null},{"start_time":1551900491404,"click_time":1551900492633,"finger_time":1551900492192,"fix_duration":250,"trial":12,"RT":788,"MT":441,"sideResp":2,"stimulus":"img/900/randomdotsizeEA/R/12_Ratio_900_L_18_R_20.png","xmouse":[810,810,810,810,810,810,810,810,810,810,810,810,810,810,810,810,810,810,810,810,810,810,810,810,810,815,817,818,819,822,827,832,835,836,836,836,836,836,838,867,903,941,980,1005,1030,1040,1043,1043,1044,1044,1044,1044,1044,1044,1044,1044,1045,1048,1051,1053,1063,1071],"ymouse":[513,513,513,513,513,513,513,513,513,513,513,513,513,513,513,513,513,513,513,513,513,513,513,513,513,511,510,510,509,506,502,499,495,494,493,493,493,492,489,451,411,363,320,286,249,229,221,217,215,203,195,184,173,161,141,132,126,121,117,114,104,97],"timestamp_mouse":[12,28,47,68,87,108,129,147,167,188,208,228,247,268,288,308,328,347,368,388,408,428,448,468,488,508,528,548,568,588,607,627,647,668,688,708,728,747,768,788,808,829,848,869,888,908,927,948,968,988,1008,1028,1047,1067,1088,1108,1127,1147,1168,1188,1208,1229],"xSR":741.5,"ySR":469.95,"xT1":424.9,"yT1":0,"xT2":1058.1,"yT2":0,"toosoon":0,"cond_shown":"randomdotsizeEA","ratio_trial":900,"smaller_num":"18","larger_num":"20","correct_side":2,"subjID":"isabellaseguracardozo9","gender":null,"age":"6","school":null},{"start_time":1551900494404,"click_time":1551900495472,"finger_time":1551900495072,"fix_duration":1009.9051695947517,"trial":13,"RT":668,"MT":400,"sideResp":2,"stimulus":"img/500/equaldotsize/R/15_Ratio_500_L_1_R_2.png","xmouse":[781,781,781,781,781,781,781,781,781,781,781,781,781,781,781,781,781,781,781,781,781,781,781,781,781,781,781,787,791,798,818,829,840,853,891,918,931,945,959,974,998,1005,1010,1014,1022,1024,1027,1033,1042,1051,1051,1051,1056,1069],"ymouse":[537,537,537,537,537,537,537,537,537,537,537,537,537,537,537,537,537,537,537,537,537,537,537,537,537,537,537,532,528,522,504,491,472,448,382,333,301,266,235,203,160,147,136,120,98,95,91,86,79,75,75,74,73,68],"timestamp_mouse":[10,28,49,68,87,107,128,147,169,188,207,228,248,268,287,307,328,348,367,387,408,429,448,468,488,508,529,547,568,588,607,628,648,668,688,707,727,747,768,788,807,828,848,867,888,907,928,947,968,989,1008,1028,1048,1067],"xSR":741.5,"ySR":469.95,"xT1":424.9,"yT1":0,"xT2":1058.1,"yT2":0,"toosoon":0,"cond_shown":"equaldotsize","ratio_trial":500,"smaller_num":"1","larger_num":"2","correct_side":2,"subjID":"isabellaseguracardozo9","gender":null,"age":"6","school":null},{"start_time":1551900498391,"click_time":1551900499952,"finger_time":1551900499111,"fix_duration":559.0099052552077,"trial":14,"RT":720,"MT":841,"sideResp":1,"stimulus":"img/750/randomdotsizeEA/L/9_Ratio_750_L_4_R_3.png","xmouse":[802,801,801,801,801,801,801,801,801,801,801,801,801,801,801,801,801,801,801,801,801,801,801,801,801,802,807,808,808,808,808,808,808,808,808,808,808,805,795,783,764,710,680,652,640,632,627,626,625,624,622,620,608,601,593,585,571,566,561,555,541,523,496,489,489,489,489,489,489,489,489,489,489,489,489,490,491,492,493],"ymouse":[507,508,508,508,508,508,508,508,508,508,508,508,508,508,508,508,508,508,508,508,508,508,508,508,507,506,500,499,499,499,498,496,494,493,486,481,464,453,441,428,416,382,361,336,316,299,272,265,261,259,256,251,225,208,191,177,154,148,144,141,134,128,112,107,106,106,106,106,106,106,106,106,106,106,106,105,104,103,98],"timestamp_mouse":[4,25,44,62,81,101,121,141,161,180,200,222,241,260,280,301,322,340,360,381,401,421,440,460,481,501,520,541,561,581,600,620,641,661,682,701,720,741,761,781,801,822,840,861,881,902,921,941,962,981,1001,1021,1042,1061,1081,1101,1121,1141,1160,1180,1201,1221,1240,1260,1280,1300,1321,1341,1360,1381,1401,1421,1440,1460,1480,1501,1522,1541,1561],"xSR":741.5,"ySR":469.95,"xT1":424.9,"yT1":0,"xT2":1058.1,"yT2":0,"toosoon":0,"cond_shown":"randomdotsizeEA","ratio_trial":750,"smaller_num":"3","larger_num":"4","correct_side":1,"subjID":"isabellaseguracardozo9","gender":null,"age":"6","school":null},{"start_time":1551900501144,"click_time":1551900502031,"finger_time":1551900501612,"fix_duration":250,"trial":15,"RT":468,"MT":419,"sideResp":2,"stimulus":"img/250/equaldotsize/R/13_Ratio_250_L_2_R_8.png","xmouse":[777,777,777,777,777,777,777,777,777,777,777,777,777,777,777,777,777,777,777,777,777,784,789,821,836,853,874,890,906,910,912,916,926,955,963,963,963,964,968,978,993,1010,1026,1041,1063],"ymouse":[521,521,521,521,521,521,521,521,521,521,521,521,521,521,521,521,521,521,521,521,521,512,505,466,444,409,346,284,217,207,202,194,182,147,138,133,129,126,116,109,104,100,99,99,99],"timestamp_mouse":[9,33,48,68,89,107,127,148,182,188,208,228,248,267,287,308,328,348,367,388,408,427,448,468,488,507,529,549,568,588,607,628,648,669,688,708,728,748,768,787,809,828,849,868,887],"xSR":741.5,"ySR":469.95,"xT1":424.9,"yT1":0,"xT2":1058.1,"yT2":0,"toosoon":0,"cond_shown":"equaldotsize","ratio_trial":250,"smaller_num":"2","larger_num":"8","correct_side":2,"subjID":"isabellaseguracardozo9","gender":null,"age":"6","school":null},{"start_time":1551900503203,"click_time":1551900503913,"finger_time":1551900503731,"fix_duration":250,"trial":16,"RT":528,"MT":182,"sideResp":2,"stimulus":"img/500/randomdotsizeEA/R/12_Ratio_500_L_1_R_2.png","xmouse":[776,776,776,776,776,776,776,776,776,776,776,776,776,776,776,776,776,776,776,779,781,790,795,803,811,826,873,901,932,958,983,1007,1023,1042,1064,1128],"ymouse":[519,519,519,519,519,519,519,519,519,519,519,519,519,519,519,519,519,519,519,518,517,512,509,503,497,483,417,372,326,283,240,203,183,158,133,75],"timestamp_mouse":[9,39,48,69,89,109,129,149,169,190,209,229,249,269,289,309,328,349,368,388,409,428,448,469,489,508,528,549,569,589,609,629,649,668,689,710],"xSR":741.5,"ySR":469.95,"xT1":424.9,"yT1":0,"xT2":1058.1,"yT2":0,"toosoon":0,"cond_shown":"randomdotsizeEA","ratio_trial":500,"smaller_num":"1","larger_num":"2","correct_side":2,"subjID":"isabellaseguracardozo9","gender":null,"age":"6","school":null},{"start_time":1551900505712,"click_time":1551900506832,"finger_time":1551900506131,"fix_duration":1079.978141772808,"trial":17,"RT":419,"MT":701,"sideResp":1,"stimulus":"img/750/equaldotanddens/L/13_Ratio_750_L_8_R_6.png","xmouse":[745,745,745,745,745,746,750,751,752,752,752,756,760,765,769,770,773,775,780,785,795,813,818,820,820,803,740,706,670,638,618,589,581,575,567,565,556,551,547,545,542,535,529,523,516,512,512,512,512,512,512,512,512,512,512,512,511],"ymouse":[531,531,531,531,531,530,528,528,527,527,527,525,523,520,518,517,515,513,511,506,492,459,446,432,416,382,323,303,286,272,263,248,241,235,228,224,214,209,205,201,195,180,165,146,116,108,107,107,106,106,105,102,102,102,102,102,99],"timestamp_mouse":[1,19,40,62,80,100,120,139,159,179,199,219,241,260,280,300,320,339,360,380,400,419,440,460,480,500,520,540,560,580,600,620,640,659,680,700,720,740,760,780,800,820,840,860,880,899,919,939,960,979,1000,1021,1040,1059,1079,1100,1120],"xSR":741.5,"ySR":469.95,"xT1":424.9,"yT1":0,"xT2":1058.1,"yT2":0,"toosoon":0,"cond_shown":"equaldotanddens","ratio_trial":750,"smaller_num":"6","larger_num":"8","correct_side":1,"subjID":"isabellaseguracardozo9","gender":null,"age":"6","school":null},{"start_time":1551900507965,"click_time":1551900508672,"finger_time":1551900508432,"fix_duration":250,"trial":18,"RT":467,"MT":240,"sideResp":2,"stimulus":"img/250/equaldotanddens/R/10_Ratio_250_L_4_R_16.png","xmouse":[768,768,768,768,768,769,770,770,771,771,771,771,771,771,771,771,771,771,775,779,783,787,798,833,856,890,924,960,1002,1020,1030,1039,1049,1057,1077,1090],"ymouse":[503,503,503,503,503,503,503,503,503,503,503,503,503,503,503,503,503,503,501,499,495,490,479,445,419,378,331,282,218,196,184,172,160,146,108,78],"timestamp_mouse":[8,27,48,66,86,106,127,147,167,188,206,226,247,266,287,307,327,346,366,386,406,426,448,467,487,507,527,546,567,587,607,626,646,667,686,706],"xSR":741.5,"ySR":469.95,"xT1":424.9,"yT1":0,"xT2":1058.1,"yT2":0,"toosoon":0,"cond_shown":"equaldotanddens","ratio_trial":250,"smaller_num":"4","larger_num":"16","correct_side":2,"subjID":"isabellaseguracardozo9","gender":null,"age":"6","school":null},{"start_time":1551900510618,"click_time":1551900511872,"finger_time":1551900511293,"fix_duration":1263.4072273905917,"trial":19,"RT":675,"MT":579,"sideResp":2,"stimulus":"img/900/equaldotsize/R/7_Ratio_900_L_9_R_10.png","xmouse":[770,770,770,770,770,770,770,770,770,770,770,770,770,770,770,770,770,770,770,770,768,766,765,765,765,765,765,765,770,774,787,796,816,843,879,935,964,980,990,1002,1016,1018,1022,1026,1033,1045,1053,1055,1055,1055,1055,1065,1078,1094,1106,1113,1116,1116,1116,1116,1116,1118,1121],"ymouse":[510,510,510,510,510,510,510,510,510,510,510,510,510,510,510,510,510,510,510,510,509,507,506,506,506,506,505,503,501,498,490,483,470,451,425,370,340,321,302,285,255,248,237,221,200,159,141,139,139,139,139,136,130,123,117,113,110,110,110,110,109,104,99],"timestamp_mouse":[14,34,57,74,94,114,134,154,173,194,214,234,254,274,294,313,334,354,373,393,413,433,454,473,494,514,533,553,574,593,614,633,653,675,694,714,734,753,774,794,814,833,854,874,894,914,933,953,974,995,1013,1033,1055,1074,1093,1115,1133,1154,1174,1193,1214,1233,1254],"xSR":741.5,"ySR":469.95,"xT1":424.9,"yT1":0,"xT2":1058.1,"yT2":0,"toosoon":0,"cond_shown":"equaldotsize","ratio_trial":900,"smaller_num":"9","larger_num":"10","correct_side":2,"subjID":"isabellaseguracardozo9","gender":null,"age":"6","school":null},{"start_time":1551900515311,"click_time":1551900516736,"finger_time":1551900516094,"fix_duration":1014.8262069210957,"trial":20,"RT":783,"MT":642,"sideResp":1,"stimulus":"img/500/randomdotsizeEA/L/11_Ratio_500_L_12_R_6.png","xmouse":[789,789,789,789,789,789,789,789,789,789,789,789,789,789,789,789,789,789,789,789,789,789,789,789,789,789,789,789,786,770,762,755,751,751,751,751,751,750,749,739,728,706,656,646,644,644,644,643,640,629,622,617,613,612,610,606,600,576,568,562,560,560,559,556,551,538,526,516,516,513,505,498],"ymouse":[506,506,506,506,506,506,506,506,506,506,506,506,506,506,506,506,506,506,506,506,506,506,506,506,506,506,506,506,505,500,495,490,486,486,486,486,486,486,479,450,423,383,314,299,297,295,295,288,277,249,236,225,220,217,213,202,187,146,136,131,130,130,129,126,124,119,113,108,108,107,102,96],"timestamp_mouse":[9,24,54,64,83,104,125,143,163,185,205,224,244,263,284,305,323,343,364,384,404,423,444,464,483,503,523,543,564,583,604,624,644,663,683,704,724,743,764,783,804,824,843,864,884,904,924,944,963,983,1004,1025,1044,1064,1084,1104,1124,1144,1164,1184,1204,1224,1244,1264,1284,1304,1323,1344,1364,1384,1403,1424],"xSR":741.5,"ySR":469.95,"xT1":424.9,"yT1":0,"xT2":1058.1,"yT2":0,"toosoon":0,"cond_shown":"randomdotsizeEA","ratio_trial":500,"smaller_num":"6","larger_num":"12","correct_side":1,"subjID":"isabellaseguracardozo9","gender":null,"age":"6","school":null},{"start_time":1551900518205,"click_time":1551900519255,"finger_time":1551900518754,"fix_duration":628.6226668006991,"trial":21,"RT":549,"MT":501,"sideResp":1,"stimulus":"img/250/randomdotsizeEA/L/7_Ratio_250_L_8_R_2.png","xmouse":[781,781,781,781,781,781,781,781,781,781,781,781,781,781,781,781,781,781,781,781,781,781,781,781,781,781,775,751,734,705,684,669,650,647,642,639,636,630,613,604,594,587,582,560,549,536,527,518,518,518,517,516,511],"ymouse":[522,522,522,522,522,522,522,522,522,522,522,522,522,522,522,522,522,522,522,522,522,522,522,522,522,522,507,469,438,396,366,343,304,294,284,276,267,254,229,216,204,195,185,159,145,129,118,107,105,105,105,103,97],"timestamp_mouse":[12,37,51,69,90,110,130,150,169,189,210,230,251,269,289,310,330,350,370,390,409,429,449,470,490,510,529,549,569,589,610,630,650,670,690,710,730,750,769,789,810,830,850,870,890,910,930,949,969,990,1010,1029,1050],"xSR":741.5,"ySR":469.95,"xT1":424.9,"yT1":0,"xT2":1058.1,"yT2":0,"toosoon":0,"cond_shown":"randomdotsizeEA","ratio_trial":250,"smaller_num":"2","larger_num":"8","correct_side":1,"subjID":"isabellaseguracardozo9","gender":null,"age":"6","school":null},{"start_time":1551900520527,"click_time":1551900521375,"finger_time":1551900521094,"fix_duration":250,"trial":22,"RT":567,"MT":281,"sideResp":2,"stimulus":"img/250/randomdotsizeEA/R/13_Ratio_250_L_2_R_8.png","xmouse":[774,774,774,774,774,774,774,774,774,774,774,774,774,774,771,768,760,755,755,754,754,754,754,754,754,756,763,780,788,800,815,870,908,948,977,996,1009,1034,1044,1057,1075,1090,1118],"ymouse":[513,513,513,513,513,513,513,513,513,513,513,513,513,513,512,509,504,501,500,500,498,494,490,489,487,486,482,472,467,458,444,380,332,284,249,232,222,199,188,175,161,143,88],"timestamp_mouse":[9,29,47,74,89,108,128,148,167,188,208,229,248,267,287,308,328,347,368,388,408,428,447,468,487,508,528,548,567,588,608,629,648,668,688,707,729,747,767,788,807,829,848],"xSR":741.5,"ySR":469.95,"xT1":424.9,"yT1":0,"xT2":1058.1,"yT2":0,"toosoon":0,"cond_shown":"randomdotsizeEA","ratio_trial":250,"smaller_num":"2","larger_num":"8","correct_side":2,"subjID":"isabellaseguracardozo9","gender":null,"age":"6","school":null},{"start_time":1551900524121,"click_time":1551900525596,"finger_time":1551900524675,"fix_duration":324.08340640840584,"trial":23,"RT":554,"MT":921,"sideResp":1,"stimulus":"img/250/equaldotsize/L/2_Ratio_250_L_16_R_4.png","xmouse":[806,806,806,806,806,806,806,806,806,806,806,806,806,806,807,810,811,811,811,811,811,811,811,811,807,789,754,680,662,655,650,648,647,646,643,640,638,638,637,635,629,622,604,601,599,597,593,574,564,559,559,557,556,554,548,544,541,539,539,537,535,530,522,519,517,516,516,514,513,512,511,511,509,506],"ymouse":[512,512,512,512,512,512,512,512,512,512,512,512,512,512,513,516,517,517,517,517,517,517,517,517,516,509,487,426,412,404,396,388,370,360,348,334,328,317,312,306,293,277,248,242,239,235,229,206,194,187,185,183,176,166,149,140,135,133,133,131,128,120,110,106,103,103,103,102,101,101,100,100,100,98],"timestamp_mouse":[13,34,54,73,93,113,133,153,173,193,213,233,254,273,294,314,335,354,374,394,413,434,454,473,493,514,534,554,574,594,614,633,654,674,694,714,734,754,774,793,814,834,854,874,894,913,933,954,974,994,1014,1035,1054,1074,1093,1113,1134,1153,1173,1194,1213,1235,1253,1275,1293,1313,1333,1354,1374,1394,1414,1434,1453,1475],"xSR":741.5,"ySR":469.95,"xT1":424.9,"yT1":0,"xT2":1058.1,"yT2":0,"toosoon":0,"cond_shown":"equaldotsize","ratio_trial":250,"smaller_num":"4","larger_num":"16","correct_side":1,"subjID":"isabellaseguracardozo9","gender":null,"age":"6","school":null},{"start_time":1551900528110,"click_time":1551900529376,"finger_time":1551900528675,"fix_duration":1473.0075234036576,"trial":24,"RT":565,"MT":701,"sideResp":1,"stimulus":"img/750/equaldotsize/L/6_Ratio_750_L_24_R_18.png","xmouse":[783,783,783,783,783,783,783,783,783,783,783,783,783,783,783,783,783,783,783,783,783,783,783,783,783,772,757,742,696,678,666,658,654,651,649,646,642,637,633,619,614,610,600,594,592,590,586,579,570,557,555,553,551,543,537,532,523,517,514,507,497,482,471,457],"ymouse":[522,522,522,522,522,522,522,522,522,522,522,522,522,522,522,522,522,522,522,522,522,522,522,522,522,513,497,478,425,405,389,376,365,344,329,320,307,292,276,235,216,203,186,179,175,173,170,166,162,155,154,153,152,147,144,141,137,133,131,125,117,107,101,95],"timestamp_mouse":[8,25,44,65,84,105,125,145,164,185,205,225,244,265,285,306,324,345,365,385,405,425,444,465,485,504,524,545,565,584,605,625,645,665,686,705,725,745,765,784,805,825,844,865,885,905,924,944,966,984,1005,1024,1045,1066,1084,1104,1124,1145,1165,1184,1206,1225,1245,1265],"xSR":741.5,"ySR":469.95,"xT1":424.9,"yT1":0,"xT2":1058.1,"yT2":0,"toosoon":0,"cond_shown":"equaldotsize","ratio_trial":750,"smaller_num":"18","larger_num":"24","correct_side":1,"subjID":"isabellaseguracardozo9","gender":null,"age":"6","school":null},{"start_time":1551900530933,"click_time":1551900532135,"finger_time":1551900531695,"fix_duration":477.3008134458171,"trial":25,"RT":762,"MT":440,"sideResp":2,"stimulus":"img/900/equaldotanddens/R/12_Ratio_900_L_18_R_20.png","xmouse":[777,777,777,777,777,777,777,777,777,777,777,777,777,777,777,777,777,777,777,777,777,777,777,777,777,777,777,777,777,777,777,777,777,777,777,777,782,797,854,905,917,954,976,1018,1036,1050,1060,1067,1080,1086,1091,1092,1094,1095,1095,1096,1097,1099,1099,1101,1101],"ymouse":[519,519,519,519,519,519,519,519,519,519,519,519,519,519,519,519,519,519,519,519,519,519,519,519,519,519,519,519,519,519,519,519,519,519,519,518,515,507,449,378,361,320,300,256,234,215,198,187,167,157,148,143,138,130,123,117,112,106,106,103,99],"timestamp_mouse":[9,21,44,61,82,102,122,142,161,181,201,222,242,263,283,301,321,343,362,383,401,422,442,462,482,502,521,542,563,583,602,621,643,662,682,702,721,742,762,782,801,822,842,862,882,902,921,941,961,982,1001,1021,1042,1062,1081,1101,1121,1143,1161,1183,1202],"xSR":741.5,"ySR":469.95,"xT1":424.9,"yT1":0,"xT2":1058.1,"yT2":0,"toosoon":0,"cond_shown":"equaldotanddens","ratio_trial":900,"smaller_num":"18","larger_num":"20","correct_side":2,"subjID":"isabellaseguracardozo9","gender":null,"age":"6","school":null},{"start_time":1551900534496,"click_time":1551900535775,"finger_time":1551900535274,"fix_duration":1400.7667189025906,"trial":26,"RT":778,"MT":501,"sideResp":1,"stimulus":"img/250/equaldotsize/R/8_Ratio_250_L_1_R_4.png","xmouse":[788,788,788,788,788,788,788,788,788,788,788,788,788,788,788,788,788,788,788,788,788,788,788,788,788,788,788,792,803,822,828,833,834,836,838,839,841,841,843,843,843,843,844,844,830,816,801,785,766,731,708,699,685,673,658,633,624,613,603,582,570,546,528,513],"ymouse":[515,515,515,515,515,515,515,515,515,515,515,515,515,515,515,515,515,515,515,515,515,515,515,515,515,515,514,513,506,492,489,486,485,484,482,482,481,480,480,479,479,479,479,478,463,455,447,433,412,358,316,294,270,245,224,187,174,162,153,141,133,115,104,98],"timestamp_mouse":[19,39,58,78,99,119,139,158,179,200,218,238,259,280,299,319,338,359,378,398,420,439,459,479,498,518,538,558,579,599,620,639,659,678,698,718,739,758,778,799,819,839,859,879,899,919,940,959,979,999,1019,1039,1060,1079,1099,1118,1139,1159,1178,1199,1220,1239,1260,1279],"xSR":741.5,"ySR":469.95,"xT1":424.9,"yT1":0,"xT2":1058.1,"yT2":0,"toosoon":0,"cond_shown":"equaldotsize","ratio_trial":250,"smaller_num":"1","larger_num":"4","correct_side":2,"subjID":"isabellaseguracardozo9","gender":null,"age":"6","school":null},{"start_time":1551900538877,"click_time":1551900540535,"finger_time":1551900539514,"fix_duration":561.2655720762953,"trial":27,"RT":637,"MT":1021,"sideResp":1,"stimulus":"img/750/equaldotanddens/L/1_Ratio_750_L_20_R_15.png","xmouse":[788,788,788,788,788,788,788,788,788,788,788,788,788,788,788,788,788,788,788,788,788,779,773,768,761,758,757,757,755,751,743,720,710,700,693,684,653,630,604,577,534,520,520,521,524,524,524,524,524,523,520,513,507,500,495,488,485,482,477,475,471,470,469,467,466,465,458,454,452,451,451,451,451,452,453,453,453,451,449,448,448,448,448],"ymouse":[521,521,521,521,521,521,521,521,521,521,521,521,521,521,521,521,521,521,521,521,521,522,523,524,525,525,526,526,526,526,524,500,488,476,466,453,408,377,345,315,261,213,194,181,168,157,153,149,144,139,133,128,125,123,123,120,118,117,114,113,110,110,109,109,108,108,108,108,108,108,107,106,105,105,105,104,103,102,101,100,100,100,99],"timestamp_mouse":[19,38,63,78,98,117,138,158,178,198,218,238,257,279,298,319,337,357,377,398,417,438,457,478,498,517,538,558,578,597,618,637,658,677,697,717,737,757,777,798,818,838,857,878,898,920,937,958,978,999,1018,1038,1057,1077,1097,1119,1138,1158,1177,1197,1219,1238,1258,1277,1297,1319,1337,1357,1382,1398,1419,1437,1459,1478,1497,1517,1537,1558,1578,1597,1617,1638,1657],"xSR":741.5,"ySR":469.95,"xT1":424.9,"yT1":0,"xT2":1058.1,"yT2":0,"toosoon":0,"cond_shown":"equaldotanddens","ratio_trial":750,"smaller_num":"15","larger_num":"20","correct_side":1,"subjID":"isabellaseguracardozo9","gender":null,"age":"6","school":null},{"start_time":1551900542837,"click_time":1551900544416,"finger_time":1551900543454,"fix_duration":1261.7630970547123,"trial":28,"RT":617,"MT":962,"sideResp":1,"stimulus":"img/750/randomdotsizeEA/L/9_Ratio_750_L_4_R_3.png","xmouse":[798,798,798,798,798,798,798,798,798,798,798,798,798,798,798,798,798,798,798,798,797,796,794,791,786,782,779,776,775,775,782,794,809,846,866,886,912,935,952,952,951,951,951,948,939,927,909,886,817,760,712,673,632,577,556,538,523,511,491,470,458,448,437,423,419,417,416,413,411,411,414,417,422,426,427,429,430,432,436],"ymouse":[542,542,542,542,542,542,542,542,542,542,542,542,542,542,542,542,542,542,542,539,535,532,529,522,513,506,498,491,488,476,454,438,424,400,386,367,341,319,291,281,279,279,279,277,276,274,271,264,243,234,228,228,228,228,225,219,215,209,201,193,190,186,182,170,160,149,141,136,131,127,122,119,114,108,105,104,102,101,97],"timestamp_mouse":[18,39,57,79,98,117,137,158,179,199,217,238,258,279,298,318,338,358,378,398,417,438,458,477,497,518,538,557,577,597,617,637,657,678,698,717,737,758,778,797,817,837,857,878,898,917,937,957,978,998,1017,1037,1057,1078,1098,1118,1138,1158,1178,1199,1219,1238,1258,1279,1299,1318,1338,1358,1379,1398,1418,1438,1458,1479,1497,1518,1538,1558,1579],"xSR":741.5,"ySR":469.95,"xT1":424.9,"yT1":0,"xT2":1058.1,"yT2":0,"toosoon":0,"cond_shown":"randomdotsizeEA","ratio_trial":750,"smaller_num":"3","larger_num":"4","correct_side":1,"subjID":"isabellaseguracardozo9","gender":null,"age":"6","school":null},{"start_time":1551900546085,"click_time":1551900548055,"finger_time":1551900546635,"fix_duration":668.3987937135993,"trial":29,"RT":550,"MT":1420,"sideResp":1,"stimulus":"img/900/randomdotsizeEA/L/1_Ratio_900_L_10_R_9.png","xmouse":[784,784,784,784,784,784,784,784,784,784,784,784,784,784,784,784,784,784,784,784,784,784,784,784,784,783,761,744,727,710,699,692,682,680,679,679,690,703,724,750,777,820,838,856,858,858,858,858,858,858,858,858,858,858,858,863,873,881,881,880,879,877,838,764,680,547,452,410,386,378,377,375,371,368,363,362,361,359,359,363,372,390,400,413,426,444,448,449,449,449,449,449,449,449,449,449,449,451,455],"ymouse":[496,496,496,496,496,496,496,496,496,496,496,496,496,496,496,496,496,496,496,496,496,496,496,496,496,496,473,453,435,419,406,396,372,365,361,361,354,346,333,317,300,270,257,240,231,228,228,227,227,227,227,227,227,227,225,213,188,163,158,156,155,155,154,166,190,228,241,241,241,240,239,238,236,235,235,234,233,220,212,195,180,159,150,141,132,121,117,115,115,115,115,115,115,114,113,111,107,105,99],"timestamp_mouse":[10,36,50,70,90,110,130,150,170,190,210,230,250,270,291,310,330,349,371,391,410,430,451,470,490,510,530,550,570,590,610,631,649,671,690,709,731,749,770,790,810,831,850,870,890,910,929,949,969,989,1010,1031,1049,1069,1090,1110,1130,1150,1169,1189,1209,1231,1250,1271,1290,1309,1331,1350,1370,1389,1409,1431,1450,1470,1489,1509,1530,1550,1569,1589,1609,1630,1649,1669,1690,1710,1730,1750,1771,1790,1810,1830,1850,1870,1889,1909,1931,1949,1969],"xSR":741.5,"ySR":469.95,"xT1":424.9,"yT1":0,"xT2":1058.1,"yT2":0,"toosoon":0,"cond_shown":"randomdotsizeEA","ratio_trial":900,"smaller_num":"9","larger_num":"10","correct_side":1,"subjID":"isabellaseguracardozo9","gender":null,"age":"6","school":null},{"start_time":1551900550442,"click_time":1551900551375,"finger_time":1551900551234,"fix_duration":1305.8796792332594,"trial":30,"RT":792,"MT":141,"sideResp":2,"stimulus":"img/900/equaldotsize/L/8_Ratio_900_L_20_R_18.png","xmouse":[785,785,785,785,785,785,785,785,785,785,785,785,785,785,785,785,785,785,785,785,785,785,785,785,785,785,785,785,785,785,785,785,785,785,785,785,790,797,806,818,834,854,885,919,979,1014,1072],"ymouse":[523,523,523,523,523,523,523,523,523,523,523,523,523,523,523,523,523,523,523,523,523,523,523,523,523,523,523,523,523,523,523,523,523,523,523,523,518,510,491,441,404,353,297,238,149,104,33],"timestamp_mouse":[13,32,53,74,93,113,133,154,173,192,213,233,253,273,292,313,333,354,373,393,413,433,453,473,493,512,534,553,573,592,613,633,653,674,694,713,732,754,773,792,812,833,853,872,893,913,933],"xSR":741.5,"ySR":469.95,"xT1":424.9,"yT1":0,"xT2":1058.1,"yT2":0,"toosoon":0,"cond_shown":"equaldotsize","ratio_trial":900,"smaller_num":"18","larger_num":"20","correct_side":1,"subjID":"isabellaseguracardozo9","gender":null,"age":"6","school":null},{"start_time":1551900553790,"click_time":1551900555635,"finger_time":1551900554515,"fix_duration":1414.6804272205732,"trial":31,"RT":725,"MT":1120,"sideResp":1,"stimulus":"img/900/equaldotsize/L/4_Ratio_900_L_20_R_18.png","xmouse":[759,759,759,759,759,759,759,759,759,759,759,759,759,759,759,759,759,759,759,759,759,759,759,759,759,759,759,759,759,759,759,759,759,759,756,749,740,730,726,722,719,709,674,658,645,635,629,626,624,621,612,597,557,538,521,506,490,454,443,435,429,424,420,420,420,420,420,420,420,421,422,423,425,426,427,428,429,431,431,433,435,438,441,441,443,445,445,447,447,448,448,449,452],"ymouse":[544,544,544,544,544,544,544,544,544,544,544,544,544,544,544,544,544,544,544,544,544,544,544,544,544,544,544,544,544,544,544,544,544,536,506,480,447,424,413,407,399,382,331,311,296,280,273,271,270,269,264,256,234,223,214,208,201,189,186,183,181,178,171,165,158,153,150,149,145,142,138,134,127,124,123,121,120,118,117,116,113,110,106,106,104,103,103,102,101,101,101,100,96],"timestamp_mouse":[11,30,45,66,86,105,125,144,164,186,205,225,245,265,284,305,326,345,365,386,405,425,445,464,485,505,525,545,564,585,605,625,645,664,684,705,725,745,764,785,806,824,845,864,884,905,926,946,964,985,1005,1025,1045,1064,1085,1105,1125,1145,1166,1184,1205,1224,1245,1265,1285,1304,1324,1344,1365,1384,1405,1425,1445,1465,1486,1504,1524,1546,1564,1585,1605,1625,1645,1665,1685,1704,1724,1745,1765,1785,1804,1824,1845],"xSR":741.5,"ySR":469.95,"xT1":424.9,"yT1":0,"xT2":1058.1,"yT2":0,"toosoon":0,"cond_shown":"equaldotsize","ratio_trial":900,"smaller_num":"18","larger_num":"20","correct_side":1,"subjID":"isabellaseguracardozo9","gender":null,"age":"6","school":null},{"start_time":1551900558065,"click_time":1551900559356,"finger_time":1551900558735,"fix_duration":1288.5752238331734,"trial":32,"RT":670,"MT":621,"sideResp":1,"stimulus":"img/500/equaldotsize/L/5_Ratio_500_L_4_R_2.png","xmouse":[786,786,786,786,786,786,786,786,786,786,786,786,786,786,786,786,786,786,786,786,786,786,786,786,786,786,786,786,786,786,786,786,787,787,778,767,750,729,710,681,668,648,629,608,561,542,524,501,480,457,453,446,443,440,435,435,438,443,449,462,468,469,471,471,471],"ymouse":[489,489,489,489,489,489,489,489,489,489,489,489,489,489,489,489,489,489,489,489,489,489,489,489,489,489,489,489,489,487,482,477,471,462,438,420,397,373,356,323,309,285,266,251,233,228,224,217,212,202,199,191,186,179,167,162,153,144,135,118,108,104,102,100,98],"timestamp_mouse":[10,31,49,71,90,109,129,151,171,190,209,230,250,270,289,310,329,350,370,389,410,430,449,470,489,510,530,550,569,589,611,629,651,670,690,709,730,749,770,790,809,829,850,870,891,909,930,950,970,989,1009,1030,1050,1070,1090,1111,1130,1150,1170,1189,1211,1229,1249,1270,1291],"xSR":741.5,"ySR":469.95,"xT1":424.9,"yT1":0,"xT2":1058.1,"yT2":0,"toosoon":0,"cond_shown":"equaldotsize","ratio_trial":500,"smaller_num":"2","larger_num":"4","correct_side":1,"subjID":"isabellaseguracardozo9","gender":null,"age":"6","school":null},{"start_time":1551900561408,"click_time":1551900562115,"finger_time":1551900561994,"fix_duration":1111.7095810813105,"trial":33,"RT":586,"MT":121,"sideResp":2,"stimulus":"img/250/equaldotsize/R/10_Ratio_250_L_4_R_16.png","xmouse":[763,763,763,763,763,763,763,763,763,763,763,763,763,763,763,763,763,763,763,763,763,763,763,763,763,763,763,770,791,827,877,926,964,1030,1061,1086],"ymouse":[500,500,500,500,500,500,500,500,500,500,500,500,500,500,500,500,500,500,500,500,500,500,500,500,500,500,500,497,483,450,394,330,280,169,118,73],"timestamp_mouse":[11,30,47,67,87,107,126,146,167,187,207,227,246,267,287,307,327,347,367,388,406,426,447,467,487,507,527,547,566,586,606,627,647,667,686,707],"xSR":741.5,"ySR":469.95,"xT1":424.9,"yT1":0,"xT2":1058.1,"yT2":0,"toosoon":0,"cond_shown":"equaldotsize","ratio_trial":250,"smaller_num":"4","larger_num":"16","correct_side":2,"subjID":"isabellaseguracardozo9","gender":null,"age":"6","school":null},{"start_time":1551900563760,"click_time":1551900564856,"finger_time":1551900564255,"fix_duration":523.7873638106164,"trial":34,"RT":495,"MT":601,"sideResp":1,"stimulus":"img/250/equaldotanddens/L/7_Ratio_250_L_8_R_2.png","xmouse":[823,823,823,823,823,823,823,823,823,823,823,823,823,823,823,823,823,823,823,823,823,823,823,822,776,724,684,652,638,623,614,602,591,576,572,538,526,517,511,504,489,483,478,475,475,474,474,473,473,473,473,473,473,475,475],"ymouse":[540,540,540,540,540,540,540,540,540,540,540,540,540,540,540,540,540,540,540,540,540,540,540,538,468,411,373,346,333,306,287,260,235,212,207,182,178,172,168,162,147,143,139,137,137,134,130,124,117,113,107,107,106,104,99],"timestamp_mouse":[14,35,55,75,95,115,135,155,175,195,214,234,255,274,295,315,335,355,374,395,415,435,454,474,495,515,535,556,575,595,614,635,655,675,695,716,735,755,775,794,815,835,854,874,894,914,934,955,975,995,1015,1035,1055,1076,1096],"xSR":741.5,"ySR":469.95,"xT1":424.9,"yT1":0,"xT2":1058.1,"yT2":0,"toosoon":0,"cond_shown":"equaldotanddens","ratio_trial":250,"smaller_num":"2","larger_num":"8","correct_side":1,"subjID":"isabellaseguracardozo9","gender":null,"age":"6","school":null},{"start_time":1551900567450,"click_time":1551900568355,"finger_time":1551900568055,"fix_duration":1493.6095659271562,"trial":35,"RT":605,"MT":300,"sideResp":2,"stimulus":"img/250/randomdotsizeEA/R/10_Ratio_250_L_4_R_16.png","xmouse":[761,761,761,761,761,761,761,761,761,761,761,761,761,761,761,761,761,761,761,761,761,761,761,761,761,761,767,773,795,808,819,831,835,839,846,855,884,891,925,950,971,995,1007,1021,1046,1075],"ymouse":[514,514,514,514,514,514,514,514,514,514,514,514,514,514,514,514,514,514,514,514,514,514,514,514,514,514,510,506,493,479,465,445,432,418,397,378,323,312,265,225,197,154,135,111,80,38],"timestamp_mouse":[9,25,45,67,85,104,124,144,165,185,204,225,245,265,285,306,325,345,365,384,404,425,445,464,485,505,525,545,564,584,605,625,645,666,685,705,725,745,764,785,805,824,844,866,885,905],"xSR":741.5,"ySR":469.95,"xT1":424.9,"yT1":0,"xT2":1058.1,"yT2":0,"toosoon":0,"cond_shown":"randomdotsizeEA","ratio_trial":250,"smaller_num":"4","larger_num":"16","correct_side":2,"subjID":"isabellaseguracardozo9","gender":null,"age":"6","school":null},{"start_time":1551900570978,"click_time":1551900572295,"finger_time":1551900571675,"fix_duration":321.0842597044956,"trial":36,"RT":697,"MT":620,"sideResp":1,"stimulus":"img/900/equaldotanddens/L/10_Ratio_900_L_20_R_18.png","xmouse":[800,800,800,800,800,800,800,800,800,800,800,800,800,800,800,800,800,800,800,800,800,800,800,800,800,800,800,800,800,800,800,800,792,778,722,702,687,676,668,653,634,619,607,597,591,580,572,559,542,504,490,484,481,479,477,475,475,474,474,473,473,473,473,473,476,477],"ymouse":[524,524,524,524,524,524,524,524,524,524,524,524,524,524,524,524,524,524,524,524,524,524,524,524,524,524,524,524,524,524,524,524,512,495,438,424,412,401,390,355,318,295,278,266,256,235,226,212,200,177,169,165,162,156,150,137,134,131,127,117,114,112,111,110,102,99],"timestamp_mouse":[18,37,60,77,96,117,137,157,177,198,216,237,257,278,296,316,337,357,376,397,417,437,458,477,496,517,537,557,577,597,617,637,656,676,697,716,737,757,776,797,816,837,858,877,898,916,936,956,978,998,1016,1037,1056,1077,1098,1116,1136,1156,1176,1197,1218,1237,1257,1277,1298,1317],"xSR":741.5,"ySR":469.95,"xT1":424.9,"yT1":0,"xT2":1058.1,"yT2":0,"toosoon":0,"cond_shown":"equaldotanddens","ratio_trial":900,"smaller_num":"18","larger_num":"20","correct_side":1,"subjID":"isabellaseguracardozo9","gender":null,"age":"6","school":null},{"start_time":1551900574353,"click_time":1551900575236,"finger_time":1551900574816,"fix_duration":1075.3142426195802,"trial":37,"RT":463,"MT":420,"sideResp":2,"stimulus":"img/500/randomdotsizeEA/R/14_Ratio_500_L_5_R_10.png","xmouse":[803,803,803,803,803,803,803,803,803,803,803,803,803,803,803,803,803,803,803,803,803,803,807,812,815,818,819,822,824,828,844,858,880,884,893,910,926,948,960,972,998,1022,1057,1069,1075],"ymouse":[511,511,511,511,511,511,511,511,511,511,511,511,511,511,511,511,511,511,511,511,511,511,485,469,459,450,446,436,427,415,386,365,337,328,311,288,261,227,215,205,183,161,120,104,93],"timestamp_mouse":[11,34,44,63,84,103,123,144,163,183,203,223,243,263,283,303,324,344,364,384,403,423,443,463,483,503,523,543,563,584,603,624,643,663,683,703,725,743,763,783,803,823,844,864,883],"xSR":741.5,"ySR":469.95,"xT1":424.9,"yT1":0,"xT2":1058.1,"yT2":0,"toosoon":0,"cond_shown":"randomdotsizeEA","ratio_trial":500,"smaller_num":"5","larger_num":"10","correct_side":2,"subjID":"isabellaseguracardozo9","gender":null,"age":"6","school":null},{"start_time":1551900577237,"click_time":1551900578397,"finger_time":1551900577696,"fix_duration":1159.1987493135878,"trial":38,"RT":459,"MT":701,"sideResp":1,"stimulus":"img/250/equaldotsize/L/14_Ratio_250_L_12_R_3.png","xmouse":[778,778,778,778,778,778,778,778,778,778,778,778,778,778,778,778,778,778,778,778,778,778,772,734,694,639,611,598,575,561,541,526,513,492,490,484,479,474,468,466,464,462,459,453,451,448,445,442,442,442,442,442,442,455,471,478,487,494,503],"ymouse":[523,523,523,523,523,523,523,523,523,523,523,523,523,523,523,523,523,523,523,523,523,523,513,446,402,354,336,323,285,259,232,221,214,209,209,208,207,204,199,195,189,184,180,174,171,168,166,161,157,155,153,152,151,137,121,116,110,104,98],"timestamp_mouse":[1,20,39,60,79,100,121,139,159,179,199,219,239,259,279,300,319,340,360,380,401,419,439,459,479,499,519,539,559,579,599,620,640,660,680,699,719,739,759,779,799,819,839,859,880,899,919,940,959,979,999,1019,1039,1059,1079,1099,1119,1140,1160],"xSR":741.5,"ySR":469.95,"xT1":424.9,"yT1":0,"xT2":1058.1,"yT2":0,"toosoon":0,"cond_shown":"equaldotsize","ratio_trial":250,"smaller_num":"3","larger_num":"12","correct_side":1,"subjID":"isabellaseguracardozo9","gender":null,"age":"6","school":null},{"start_time":1551900581038,"click_time":1551900585517,"finger_time":1551900581636,"fix_duration":1360.553491657888,"trial":39,"RT":598,"MT":3881,"sideResp":1,"stimulus":"img/900/equaldotanddens/L/10_Ratio_900_L_20_R_18.png","xmouse":[756,756,756,756,756,756,756,756,756,756,756,756,756,756,756,755,753,752,752,751,751,751,751,751,751,751,751,751,748,741,726,709,670,654,634,616,598,581,544,531,524,518,505,499,495,492,490,488,488,488,488,488,486,476,469,459,455,455,454,454,454,454,455,459,466,482,505,528,543,546,547,547,546,541,537,530,520,492,472,459,458,458,458,458,458,458,458,458,458,458,458,458,458,458,458,458,458,458,458,458,458,460,460,461,462,462,462,462,462,462,463,463,463,463,463,463,462,438,425,418,412,407,404,404,404,403,403,403,403,403,403,403,405,428,439,444,443,440,436,436,446,456,478,495,513,529,544,551,551,551,551,551,551,551,551,551,551,551,551,551,551,551,551,551,551,551,586,567,559,548,542,539,512,507,505,504,504,501,500,500,500,500,500,500,502,502,502,502,502,502,502,502,502,502,502,502,502,502,502,502,504,505,506,515,520,520,520,517,512,508,505,501,501,496,494,493,492,492,492,492,491,491,492,498],"ymouse":[518,518,518,518,518,518,518,518,518,518,518,518,518,518,518,517,515,514,514,513,513,513,513,513,513,513,513,513,512,510,506,502,490,485,479,471,463,453,431,424,420,417,401,386,369,350,330,313,308,302,296,286,278,253,237,222,214,212,210,209,207,202,200,194,186,176,159,140,120,113,110,108,106,104,103,103,103,115,130,139,139,139,139,139,139,139,139,139,139,139,139,139,139,140,140,140,139,137,134,132,131,126,122,118,117,116,116,116,116,116,116,116,116,116,116,116,116,116,118,119,121,123,124,124,124,124,124,124,124,124,124,124,127,138,145,153,162,168,189,201,234,265,349,391,430,459,491,533,669,712,712,712,712,712,712,712,712,712,712,712,712,712,712,712,712,712,716,594,521,438,411,399,346,331,317,316,316,315,315,315,315,315,315,320,323,323,323,323,323,323,323,323,323,323,323,323,323,323,323,323,324,324,323,291,267,238,205,183,161,155,147,139,138,127,126,125,125,125,125,125,124,117,105,79],"timestamp_mouse":[20,38,59,78,99,118,138,158,178,198,218,238,258,279,298,319,338,358,379,398,419,438,458,478,498,519,538,558,578,598,618,638,658,678,698,718,738,759,778,798,818,838,859,878,898,918,938,959,979,998,1019,1038,1058,1078,1099,1118,1139,1159,1178,1198,1218,1238,1258,1279,1299,1319,1339,1359,1379,1399,1418,1438,1459,1478,1498,1519,1538,1559,1578,1598,1618,1638,1659,1678,1699,1719,1738,1759,1780,1799,1818,1839,1859,1878,1900,1919,1939,1958,1978,1999,2018,2040,2058,2078,2100,2118,2139,2159,2178,2198,2218,2238,2258,2279,2298,2318,2338,2359,2378,2399,2418,2438,2458,2478,2498,2518,2538,2559,2578,2598,2619,2639,2658,2678,2699,2718,2739,2760,2778,2799,2818,2839,2860,2878,2898,2919,2938,2958,2978,2998,3018,3039,3058,3078,3098,3118,3139,3160,3178,3198,3218,3238,3258,3278,3298,3318,3339,3360,3378,3399,3419,3439,3460,3478,3498,3519,3538,3559,3578,3599,3618,3638,3658,3679,3698,3718,3739,3760,3779,3798,3818,3839,3858,3879,3898,3918,3938,3959,3978,3999,4018,4038,4058,4078,4098,4118,4139,4158,4178,4199,4218,4238,4258,4279,4299,4319,4338,4359,4378,4398,4418,4438,4458,4479],"xSR":741.5,"ySR":469.95,"xT1":424.9,"yT1":0,"xT2":1058.1,"yT2":0,"toosoon":0,"cond_shown":"equaldotanddens","ratio_trial":900,"smaller_num":"18","larger_num":"20","correct_side":1,"subjID":"isabellaseguracardozo9","gender":null,"age":"6","school":null},{"start_time":1551900587919,"click_time":1551900589217,"finger_time":1551900588676,"fix_duration":1402.6584791890812,"trial":40,"RT":757,"MT":541,"sideResp":1,"stimulus":"img/900/equaldotanddens/L/2_Ratio_900_L_20_R_18.png","xmouse":[777,777,777,777,777,777,777,777,777,777,777,777,777,777,777,777,777,777,777,777,777,777,777,777,777,777,777,777,776,776,776,776,776,776,776,776,776,777,777,778,778,778,777,774,754,732,707,678,648,624,581,566,554,547,542,526,519,513,507,501,500,498,495,492,486],"ymouse":[482,482,482,482,482,482,482,482,482,482,482,482,482,482,482,482,482,482,482,482,482,482,482,482,482,482,482,482,481,481,481,481,481,481,481,480,472,467,462,453,445,431,417,395,356,328,309,293,274,260,230,214,198,187,178,149,141,136,130,123,120,115,109,103,83],"timestamp_mouse":[17,42,58,79,97,117,137,158,177,197,217,237,257,277,298,317,337,357,377,398,417,437,457,477,497,517,537,558,578,597,617,637,657,677,697,717,737,757,777,797,817,838,857,878,898,917,937,957,977,998,1017,1037,1057,1077,1098,1117,1138,1157,1177,1197,1217,1238,1257,1277,1297],"xSR":741.5,"ySR":469.95,"xT1":424.9,"yT1":0,"xT2":1058.1,"yT2":0,"toosoon":0,"cond_shown":"equaldotanddens","ratio_trial":900,"smaller_num":"18","larger_num":"20","correct_side":1,"subjID":"isabellaseguracardozo9","gender":null,"age":"6","school":null},{"start_time":1551900591331,"click_time":1551900592396,"finger_time":1551900591996,"fix_duration":1092.2135244251444,"trial":41,"RT":665,"MT":400,"sideResp":1,"stimulus":"img/500/equaldotanddens/L/4_Ratio_500_L_18_R_9.png","xmouse":[764,764,764,764,764,764,764,764,764,764,764,764,764,764,764,764,764,764,764,764,764,764,764,764,764,764,764,764,764,764,760,758,749,741,732,697,675,658,640,628,599,587,577,570,569,568,565,561,552,543,527,522,514,508],"ymouse":[514,514,514,514,514,514,514,514,514,514,514,514,514,514,514,514,514,514,514,514,514,514,514,514,514,514,514,514,514,514,512,511,507,498,485,414,365,332,302,275,208,187,176,171,170,170,165,159,148,138,118,112,103,98],"timestamp_mouse":[11,26,45,65,86,105,125,145,165,185,205,225,245,265,286,306,325,345,365,385,405,425,445,465,485,505,525,545,565,586,605,626,645,665,685,706,725,746,765,785,805,826,845,865,887,905,927,945,965,987,1005,1026,1045,1065],"xSR":741.5,"ySR":469.95,"xT1":424.9,"yT1":0,"xT2":1058.1,"yT2":0,"toosoon":0,"cond_shown":"equaldotanddens","ratio_trial":500,"smaller_num":"9","larger_num":"18","correct_side":1,"subjID":"isabellaseguracardozo9","gender":null,"age":"6","school":null},{"start_time":1551900596007,"click_time":1551900597137,"finger_time":1551900596756,"fix_duration":1249.85730210361,"trial":42,"RT":749,"MT":381,"sideResp":2,"stimulus":"img/750/randomdotsizeEA/R/15_Ratio_750_L_9_R_12.png","xmouse":[768,768,768,768,768,768,768,768,768,768,768,768,768,768,768,768,768,768,768,768,768,768,768,768,768,768,768,768,768,768,768,768,772,777,794,808,826,876,900,924,950,1001,1017,1032,1046,1046,1034,1023,1018,1017,1017,1017,1017,1022,1029,1041,1061],"ymouse":[525,525,525,525,525,525,525,525,525,525,525,525,525,525,525,525,525,525,525,525,525,525,525,525,525,525,525,525,525,525,525,525,525,524,517,513,503,467,452,439,423,392,376,353,299,250,190,169,161,160,159,155,148,134,121,104,82],"timestamp_mouse":[9,36,49,70,90,109,129,149,170,189,209,230,249,269,289,310,329,349,370,391,409,429,449,469,489,509,529,550,570,589,609,629,649,669,689,710,729,749,769,790,810,829,849,870,890,910,929,951,969,989,1009,1029,1049,1069,1089,1110,1130],"xSR":741.5,"ySR":469.95,"xT1":424.9,"yT1":0,"xT2":1058.1,"yT2":0,"toosoon":0,"cond_shown":"randomdotsizeEA","ratio_trial":750,"smaller_num":"9","larger_num":"12","correct_side":2,"subjID":"isabellaseguracardozo9","gender":null,"age":"6","school":null},{"start_time":1551900599141,"click_time":1551900600416,"finger_time":1551900599816,"fix_duration":723.6985081215458,"trial":43,"RT":675,"MT":600,"sideResp":2,"stimulus":"img/750/equaldotsize/R/7_Ratio_750_L_3_R_4.png","xmouse":[788,788,788,788,788,788,788,788,788,788,788,788,788,788,788,788,788,788,788,788,788,788,788,788,788,788,788,788,788,788,791,801,815,835,859,941,976,1002,1015,1027,1038,1042,1048,1053,1057,1057,1057,1057,1054,1052,1052,1057,1065,1073,1080,1083,1083,1083,1083,1083,1085,1089,1094,1098],"ymouse":[486,486,486,486,486,486,486,486,486,486,486,486,486,486,486,486,486,486,486,486,486,486,486,486,486,486,486,486,486,486,485,480,473,464,454,410,389,368,352,331,311,303,294,286,278,271,259,244,218,200,173,163,152,141,133,130,130,130,130,130,127,118,102,92],"timestamp_mouse":[21,36,55,75,96,116,135,155,176,197,215,235,255,276,295,315,335,355,375,395,415,435,455,475,497,515,535,555,575,596,616,635,656,675,695,715,735,755,776,795,815,835,856,875,896,917,935,955,975,995,1015,1035,1056,1076,1096,1115,1135,1155,1175,1195,1215,1236,1256,1275],"xSR":741.5,"ySR":469.95,"xT1":424.9,"yT1":0,"xT2":1058.1,"yT2":0,"toosoon":0,"cond_shown":"equaldotsize","ratio_trial":750,"smaller_num":"3","larger_num":"4","correct_side":2,"subjID":"isabellaseguracardozo9","gender":null,"age":"6","school":null},{"start_time":1551900606600,"click_time":1551900608276,"finger_time":1551900607276,"fix_duration":483.772334898557,"trial":44,"RT":676,"MT":1000,"sideResp":1,"stimulus":"img/750/equaldotanddens/R/12_Ratio_750_L_3_R_4.png","xmouse":[763,763,763,763,763,763,763,763,763,763,763,763,763,763,763,763,763,763,763,763,763,763,763,763,763,763,763,763,763,763,764,771,774,802,818,836,857,905,919,921,924,927,930,941,946,949,952,953,953,953,953,953,953,950,933,905,864,808,659,561,480,430,396,394,394,394,394,394,394,394,394,394,396,401,410,418,428,439,443,448,453,458,469,496],"ymouse":[513,513,513,513,513,513,513,513,513,513,513,513,513,513,513,513,513,513,513,513,513,513,513,513,513,513,513,513,513,501,494,482,478,450,434,417,395,342,324,322,318,311,302,260,242,229,217,208,207,206,204,203,203,201,199,198,198,191,174,159,148,140,131,130,130,130,130,130,130,130,130,130,130,129,127,124,120,115,113,110,108,105,103,99],"timestamp_mouse":[17,41,57,77,96,116,136,156,176,196,216,236,257,276,296,317,336,358,376,396,416,436,457,476,496,517,536,557,576,596,616,636,656,676,696,716,736,756,776,797,816,836,856,876,896,917,936,957,978,997,1016,1037,1057,1076,1096,1116,1137,1157,1176,1196,1216,1236,1257,1277,1296,1316,1338,1357,1376,1396,1416,1436,1457,1476,1496,1516,1536,1558,1576,1596,1616,1637,1656,1676],"xSR":741.5,"ySR":469.95,"xT1":424.9,"yT1":0,"xT2":1058.1,"yT2":0,"toosoon":0,"cond_shown":"equaldotanddens","ratio_trial":750,"smaller_num":"3","larger_num":"4","correct_side":2,"subjID":"isabellaseguracardozo9","gender":null,"age":"6","school":null},{"start_time":1551900611652,"click_time":1551900612897,"finger_time":1551900612177,"fix_duration":514.9149597874241,"trial":45,"RT":525,"MT":720,"sideResp":1,"stimulus":"img/250/equaldotsize/L/14_Ratio_250_L_12_R_3.png","xmouse":[777,776,774,774,774,774,774,774,774,774,774,774,774,774,774,774,774,774,774,774,774,774,774,770,764,750,732,728,728,728,727,727,722,708,690,657,589,578,575,574,572,570,568,564,557,554,552,551,548,544,537,520,516,514,513,510,506,496,491,488,487,487,487],"ymouse":[478,479,481,481,481,481,481,481,481,481,481,481,481,481,481,481,481,481,481,481,481,481,481,482,482,479,477,476,476,476,476,476,471,451,426,383,303,286,275,264,255,239,224,204,184,180,177,174,172,168,164,151,147,146,146,143,138,126,121,117,112,101,94],"timestamp_mouse":[4,25,44,64,84,104,125,145,164,185,205,224,245,265,284,304,324,344,364,384,404,424,445,464,485,505,525,544,564,585,604,625,645,664,684,704,725,744,764,784,805,826,845,865,884,904,924,946,964,985,1005,1025,1046,1066,1084,1104,1124,1145,1164,1184,1204,1224,1245],"xSR":741.5,"ySR":469.95,"xT1":424.9,"yT1":0,"xT2":1058.1,"yT2":0,"toosoon":0,"cond_shown":"equaldotsize","ratio_trial":250,"smaller_num":"3","larger_num":"12","correct_side":1,"subjID":"isabellaseguracardozo9","gender":null,"age":"6","school":null},{"start_time":1551900616701,"click_time":1551900618516,"finger_time":1551900617356,"fix_duration":1103.703357345546,"trial":46,"RT":655,"MT":1160,"sideResp":1,"stimulus":"img/500/randomdotsizeEA/L/7_Ratio_500_L_10_R_5.png","xmouse":[780,780,780,780,780,780,780,780,780,780,780,780,780,780,780,780,780,780,780,780,780,780,780,780,780,779,779,779,780,781,782,782,782,777,770,758,746,733,704,685,657,579,528,497,477,475,474,474,474,472,472,472,472,472,472,472,472,472,472,472,472,472,472,472,472,476,497,522,539,544,542,531,524,507,494,492,491,491,491,491,491,491,491,491,491,491,491,491,491,491,490],"ymouse":[497,497,497,497,497,497,497,497,497,497,497,497,497,497,497,497,497,497,497,497,497,497,497,497,497,494,492,489,483,479,477,472,464,452,445,435,427,418,399,385,368,322,287,266,251,250,249,249,249,230,224,222,222,221,221,221,221,221,221,221,221,221,221,221,221,219,206,190,177,155,149,133,126,111,102,101,100,100,100,100,100,100,100,100,100,100,100,100,100,100,99],"timestamp_mouse":[16,42,56,75,95,115,135,156,175,196,215,235,255,275,296,317,336,355,375,396,416,435,455,476,495,515,535,556,576,596,616,635,655,675,695,715,735,755,777,795,815,835,855,875,896,915,936,955,975,995,1016,1035,1055,1076,1096,1117,1135,1155,1177,1195,1216,1235,1255,1276,1296,1315,1335,1355,1376,1395,1415,1435,1456,1476,1495,1515,1535,1556,1577,1595,1615,1635,1655,1675,1695,1717,1735,1755,1776,1796,1815],"xSR":741.5,"ySR":469.95,"xT1":424.9,"yT1":0,"xT2":1058.1,"yT2":0,"toosoon":0,"cond_shown":"randomdotsizeEA","ratio_trial":500,"smaller_num":"5","larger_num":"10","correct_side":1,"subjID":"isabellaseguracardozo9","gender":null,"age":"6","school":null},{"start_time":1551900620592,"click_time":1551900621416,"finger_time":1551900621256,"fix_duration":793.9870394575815,"trial":47,"RT":664,"MT":160,"sideResp":2,"stimulus":"img/750/equaldotsize/R/3_Ratio_750_L_15_R_20.png","xmouse":[779,779,779,779,779,779,779,779,779,779,779,779,779,779,779,779,779,779,779,779,779,779,779,779,779,779,779,779,779,779,787,800,817,842,876,958,1001,1023,1041,1057,1082,1089],"ymouse":[504,504,504,504,504,504,504,504,504,504,504,504,504,504,504,504,504,504,504,504,504,504,504,504,504,504,504,504,504,504,504,495,483,457,410,286,229,202,185,167,124,99],"timestamp_mouse":[9,24,48,64,84,105,124,146,164,184,204,224,245,264,284,304,324,344,364,384,405,424,444,464,485,504,525,544,564,584,604,624,644,664,685,704,724,744,764,784,806,824],"xSR":741.5,"ySR":469.95,"xT1":424.9,"yT1":0,"xT2":1058.1,"yT2":0,"toosoon":0,"cond_shown":"equaldotsize","ratio_trial":750,"smaller_num":"15","larger_num":"20","correct_side":2,"subjID":"isabellaseguracardozo9","gender":null,"age":"6","school":null},{"start_time":1551900624594,"click_time":1551900625737,"finger_time":1551900625297,"fix_duration":396.417165513376,"trial":48,"RT":703,"MT":440,"sideResp":1,"stimulus":"img/900/equaldotanddens/L/8_Ratio_900_L_20_R_18.png","xmouse":[761,761,761,761,761,761,761,761,761,761,761,761,761,761,761,761,761,761,761,761,761,761,761,761,761,759,756,756,755,754,753,752,752,750,748,731,719,692,655,609,570,536,530,528,527,527,527,527,526,525,525,525,525,525,525,525,525,524],"ymouse":[515,515,515,515,515,515,515,515,515,515,515,515,515,515,515,515,515,515,515,515,515,515,515,515,516,512,508,507,505,503,501,500,498,497,493,469,446,403,351,300,261,224,212,200,176,158,120,105,96,92,92,92,92,92,92,92,92,90],"timestamp_mouse":[9,22,50,62,82,102,123,143,163,182,202,222,243,262,282,302,323,343,363,382,403,422,442,462,482,502,522,543,563,582,602,622,643,662,682,703,722,742,762,782,803,822,842,862,882,902,922,942,962,982,1003,1022,1042,1063,1083,1103,1123,1143],"xSR":741.5,"ySR":469.95,"xT1":424.9,"yT1":0,"xT2":1058.1,"yT2":0,"toosoon":0,"cond_shown":"equaldotanddens","ratio_trial":900,"smaller_num":"18","larger_num":"20","correct_side":1,"subjID":"isabellaseguracardozo9","gender":null,"age":"6","school":null},{"start_time":1551900627246,"click_time":1551900628337,"finger_time":1551900627696,"fix_duration":528.7513049137275,"trial":49,"RT":450,"MT":641,"sideResp":1,"stimulus":"img/900/equaldotsize/R/13_Ratio_900_L_18_R_20.png","xmouse":[760,760,760,760,760,760,760,760,760,760,760,760,760,760,760,760,760,760,760,760,756,750,737,727,724,722,721,717,714,714,708,695,685,652,626,600,580,557,551,550,550,549,547,545,545,545,545,545,545,545,545,545,541,534,524],"ymouse":[509,509,509,509,509,509,509,509,509,509,509,509,509,509,509,509,509,509,509,509,504,497,483,474,471,469,467,456,451,448,439,416,394,303,239,180,134,69,51,41,33,24,18,14,14,14,14,14,14,14,14,14,19,27,37],"timestamp_mouse":[10,31,50,70,90,110,130,151,170,190,210,231,251,271,290,311,332,350,370,390,410,430,450,470,491,510,530,552,570,591,610,630,650,670,691,710,730,752,770,790,810,830,850,871,890,910,930,950,971,991,1010,1031,1052,1070,1091],"xSR":741.5,"ySR":469.95,"xT1":424.9,"yT1":0,"xT2":1058.1,"yT2":0,"toosoon":0,"cond_shown":"equaldotsize","ratio_trial":900,"smaller_num":"18","larger_num":"20","correct_side":2,"subjID":"isabellaseguracardozo9","gender":null,"age":"6","school":null},{"start_time":1551900630010,"click_time":1551900630856,"finger_time":1551900630416,"fix_duration":693.4757417201756,"trial":50,"RT":406,"MT":440,"sideResp":1,"stimulus":"img/900/equaldotsize/L/2_Ratio_900_L_20_R_18.png","xmouse":[768,768,768,768,768,768,768,768,767,766,765,765,765,765,765,766,766,766,767,767,759,739,698,665,624,547,523,503,487,474,459,457,456,456,456,456,456,455,455,455,459,466,472],"ymouse":[513,513,513,513,513,512,512,511,510,509,508,508,508,507,507,505,503,499,489,474,424,385,316,280,249,206,191,176,161,148,126,121,120,120,119,117,117,117,116,116,111,103,93],"timestamp_mouse":[13,34,46,66,87,107,126,146,166,187,206,226,246,267,286,306,326,348,366,386,406,427,447,466,486,507,526,546,566,586,606,627,646,666,686,706,727,747,766,786,806,827,846],"xSR":741.5,"ySR":469.95,"xT1":424.9,"yT1":0,"xT2":1058.1,"yT2":0,"toosoon":0,"cond_shown":"equaldotsize","ratio_trial":900,"smaller_num":"18","larger_num":"20","correct_side":1,"subjID":"isabellaseguracardozo9","gender":null,"age":"6","school":null},{"start_time":1551900635944,"click_time":1551900637298,"finger_time":1551900636637,"fix_duration":1345.3710260469302,"trial":51,"RT":693,"MT":661,"sideResp":1,"stimulus":"img/900/equaldotsize/L/10_Ratio_900_L_20_R_18.png","xmouse":[760,760,760,760,760,760,760,760,760,760,760,760,760,760,760,760,760,760,760,760,760,760,760,760,760,760,760,760,760,760,760,760,760,760,734,722,709,696,667,657,647,639,629,625,620,620,619,619,619,616,615,613,609,604,599,592,584,574,565,555,554,553,553,552,543,538,531,524],"ymouse":[489,489,489,489,489,489,489,489,489,489,489,489,489,489,489,489,489,489,489,489,489,489,489,489,489,489,489,489,489,489,489,489,489,483,438,419,397,376,324,301,280,259,235,226,217,216,214,214,214,212,211,210,206,191,177,158,138,118,105,94,94,94,94,94,91,90,89,88],"timestamp_mouse":[14,32,54,73,93,113,133,154,174,193,213,233,253,273,293,314,332,352,374,393,412,433,453,473,493,513,533,553,574,593,613,633,653,672,693,712,733,753,774,792,813,833,853,873,893,913,934,953,973,993,1013,1033,1054,1075,1093,1113,1133,1153,1173,1193,1213,1234,1253,1273,1294,1313,1333,1354],"xSR":741.5,"ySR":469.95,"xT1":424.9,"yT1":0,"xT2":1058.1,"yT2":0,"toosoon":0,"cond_shown":"equaldotsize","ratio_trial":900,"smaller_num":"18","larger_num":"20","correct_side":1,"subjID":"isabellaseguracardozo9","gender":null,"age":"6","school":null},{"start_time":1551900638865,"click_time":1551900640017,"finger_time":1551900639577,"fix_duration":587.5377142259434,"trial":52,"RT":712,"MT":440,"sideResp":2,"stimulus":"img/750/randomdotsizeEA/L/1_Ratio_750_L_20_R_15.png","xmouse":[801,801,801,801,801,801,801,801,801,801,801,801,801,801,801,801,801,801,801,801,801,801,801,801,801,801,801,801,801,801,801,801,801,810,831,850,869,885,920,938,957,969,976,991,1000,1005,1006,1008,1008,1009,1011,1016,1018,1026,1034,1044,1057,1068],"ymouse":[539,539,539,539,539,539,539,539,539,539,539,539,539,539,539,539,539,539,539,539,539,539,539,539,539,539,539,539,539,539,539,539,538,529,491,460,425,389,308,260,209,173,149,127,115,108,104,100,100,99,97,95,94,91,88,83,76,69],"timestamp_mouse":[13,38,52,72,92,113,132,152,172,192,212,232,252,273,292,312,333,352,372,392,412,432,452,473,492,512,532,552,573,592,612,631,651,672,692,712,732,752,772,792,812,831,852,872,893,911,932,952,972,992,1011,1032,1052,1073,1092,1112,1132,1152],"xSR":741.5,"ySR":469.95,"xT1":424.9,"yT1":0,"xT2":1058.1,"yT2":0,"toosoon":0,"cond_shown":"randomdotsizeEA","ratio_trial":750,"smaller_num":"15","larger_num":"20","correct_side":1,"subjID":"isabellaseguracardozo9","gender":null,"age":"6","school":null},{"start_time":1551900642632,"click_time":1551900643957,"finger_time":1551900643477,"fix_duration":1394.35984296415,"trial":53,"RT":845,"MT":480,"sideResp":2,"stimulus":"img/250/randomdotsizeEA/R/12_Ratio_250_L_5_R_20.png","xmouse":[805,805,805,805,805,805,805,805,805,805,805,805,805,805,805,805,805,805,805,805,805,805,805,805,805,805,805,805,805,805,805,805,805,805,805,805,805,805,805,805,805,811,822,831,844,895,918,942,962,980,1010,1016,1018,1019,1020,1021,1024,1025,1029,1033,1049,1052,1053,1053,1054,1054,1063],"ymouse":[510,510,510,510,510,510,510,510,510,510,510,510,510,510,510,510,510,510,510,510,510,510,510,510,510,510,510,510,510,510,510,510,510,510,510,510,510,510,510,510,508,482,451,418,388,301,274,254,234,216,179,160,146,140,139,138,133,127,116,101,71,66,65,65,64,62,57],"timestamp_mouse":[8,25,45,66,85,104,125,144,165,186,205,225,245,265,285,305,325,345,365,385,405,425,445,465,485,505,525,545,564,584,606,624,645,665,685,705,725,745,765,785,805,825,845,865,885,907,924,944,965,985,1005,1024,1045,1065,1085,1106,1124,1144,1165,1185,1206,1225,1245,1265,1285,1305,1324],"xSR":741.5,"ySR":469.95,"xT1":424.9,"yT1":0,"xT2":1058.1,"yT2":0,"toosoon":0,"cond_shown":"randomdotsizeEA","ratio_trial":250,"smaller_num":"5","larger_num":"20","correct_side":2,"subjID":"isabellaseguracardozo9","gender":null,"age":"6","school":null},{"start_time":1551900651703,"click_time":1551900652477,"finger_time":1551900652337,"fix_duration":1084.4514709859143,"trial":54,"RT":634,"MT":140,"sideResp":1,"stimulus":"img/250/equaldotanddens/L/15_Ratio_250_L_12_R_3.png","xmouse":[795,795,795,795,795,795,795,795,795,795,795,795,795,795,795,795,795,795,795,795,795,795,795,795,795,795,795,795,795,791,775,721,600,553,527,518,517,516,515],"ymouse":[538,538,538,538,538,538,538,538,538,538,538,538,538,538,538,538,538,538,538,538,538,538,538,538,538,538,538,538,538,526,487,408,256,193,157,138,135,118,81],"timestamp_mouse":[14,35,55,74,93,115,135,154,173,194,214,234,254,274,294,314,334,354,374,394,414,434,454,474,494,514,534,554,574,594,614,634,655,674,694,714,734,754,774],"xSR":741.5,"ySR":469.95,"xT1":424.9,"yT1":0,"xT2":1058.1,"yT2":0,"toosoon":0,"cond_shown":"equaldotanddens","ratio_trial":250,"smaller_num":"3","larger_num":"12","correct_side":1,"subjID":"isabellaseguracardozo9","gender":null,"age":"6","school":null},{"start_time":1551900656051,"click_time":1551900656997,"finger_time":1551900656617,"fix_duration":1233.2646504283437,"trial":55,"RT":566,"MT":380,"sideResp":2,"stimulus":"img/500/equaldotanddens/R/9_Ratio_500_L_2_R_4.png","xmouse":[781,781,781,781,781,781,781,781,781,781,781,781,781,781,781,781,781,781,781,781,781,781,781,781,781,781,783,787,815,839,864,917,935,962,978,992,1024,1041,1060,1077,1093,1109,1111,1113,1114,1114,1114,1114],"ymouse":[496,496,496,496,496,496,496,496,496,496,496,496,496,496,496,496,496,496,496,496,496,496,496,496,496,496,493,490,455,428,401,352,330,291,262,237,200,189,178,168,158,143,136,130,128,125,110,95],"timestamp_mouse":[9,26,48,65,86,106,126,146,166,187,206,226,246,267,286,306,326,346,365,385,406,426,446,466,486,506,526,546,566,586,606,626,645,666,686,707,727,747,766,786,806,827,846,867,887,906,926,946],"xSR":741.5,"ySR":469.95,"xT1":424.9,"yT1":0,"xT2":1058.1,"yT2":0,"toosoon":0,"cond_shown":"equaldotanddens","ratio_trial":500,"smaller_num":"2","larger_num":"4","correct_side":2,"subjID":"isabellaseguracardozo9","gender":null,"age":"6","school":null},{"start_time":1551900660452,"click_time":1551900661237,"finger_time":1551900661017,"fix_duration":1193.3101851355977,"trial":56,"RT":565,"MT":220,"sideResp":2,"stimulus":"img/900/randomdotsizeEA/R/9_Ratio_900_L_18_R_20.png","xmouse":[791,791,791,791,791,791,791,791,791,791,791,791,791,791,791,791,791,791,791,791,791,791,797,801,802,803,805,807,813,820,828,838,855,863,894,907,958,1030,1052,1065],"ymouse":[499,499,499,499,499,499,499,499,499,499,499,499,499,499,499,499,499,499,499,499,499,499,494,486,479,475,471,470,463,450,436,424,398,382,327,301,206,92,64,49],"timestamp_mouse":[11,25,45,65,86,105,125,145,165,185,205,225,245,265,285,305,326,345,365,385,405,424,445,465,485,505,525,546,565,584,605,625,645,665,685,705,726,745,765,785],"xSR":741.5,"ySR":469.95,"xT1":424.9,"yT1":0,"xT2":1058.1,"yT2":0,"toosoon":0,"cond_shown":"randomdotsizeEA","ratio_trial":900,"smaller_num":"18","larger_num":"20","correct_side":2,"subjID":"isabellaseguracardozo9","gender":null,"age":"6","school":null},{"start_time":1551900663373,"click_time":1551900664577,"finger_time":1551900664097,"fix_duration":1354.4690687200173,"trial":57,"RT":724,"MT":480,"sideResp":1,"stimulus":"img/500/equaldotsize/L/10_Ratio_500_L_4_R_2.png","xmouse":[799,799,799,799,799,799,799,799,799,799,799,799,799,799,799,799,799,799,799,799,799,799,799,799,799,799,799,799,799,799,799,799,799,799,793,777,691,637,560,528,512,502,499,496,494,492,490,489,488,487,486,483,483,483,483,483,483,483,485,485,487],"ymouse":[534,534,534,534,534,534,534,534,534,534,534,534,534,534,534,534,534,534,534,534,534,534,534,534,534,534,534,534,534,534,534,534,534,534,529,508,437,404,361,343,331,310,300,287,272,258,242,232,220,202,182,155,153,153,150,144,129,121,110,105,96],"timestamp_mouse":[9,24,44,64,83,104,124,144,164,184,204,224,244,264,284,305,325,344,364,384,404,424,444,464,484,505,524,544,564,585,604,625,644,664,684,704,724,744,764,784,804,824,844,864,885,905,924,944,965,983,1004,1025,1044,1065,1084,1104,1124,1144,1164,1184,1204],"xSR":741.5,"ySR":469.95,"xT1":424.9,"yT1":0,"xT2":1058.1,"yT2":0,"toosoon":0,"cond_shown":"equaldotsize","ratio_trial":500,"smaller_num":"2","larger_num":"4","correct_side":1,"subjID":"isabellaseguracardozo9","gender":null,"age":"6","school":null},{"start_time":1551900667676,"click_time":1551900668977,"finger_time":1551900667727,"fix_duration":697.2206270998806,"trial":58,"RT":51,"MT":1250,"sideResp":1,"stimulus":"img/500/equaldotsize/L/11_Ratio_500_L_12_R_6.png","xmouse":[755,745,741,740,740,740,740,740,740,740,740,740,740,740,740,740,740,740,740,740,740,740,740,740,740,740,740,739,733,723,704,673,648,642,637,634,627,615,610,605,600,598,598,597,596,596,592,590,587,585,581,576,570,567,564,562,553,547,541,538,538,537,535,531,526,522],"ymouse":[516,513,512,511,511,511,511,511,511,511,511,511,511,511,511,511,511,511,511,511,511,511,511,511,511,511,511,508,493,471,442,400,363,346,329,310,288,247,233,224,211,206,204,202,200,198,193,190,186,184,180,174,164,159,156,151,137,128,118,116,115,113,111,106,101,98],"timestamp_mouse":[1,21,51,61,81,101,121,141,161,181,200,221,242,262,281,301,322,341,361,380,400,420,442,461,481,501,521,541,561,581,600,621,640,661,681,701,722,741,762,781,801,822,841,861,881,901,922,941,961,981,1001,1021,1042,1061,1080,1100,1122,1141,1162,1181,1201,1223,1241,1261,1281,1301],"xSR":741.5,"ySR":469.95,"xT1":424.9,"yT1":0,"xT2":1058.1,"yT2":0,"toosoon":0,"cond_shown":"equaldotsize","ratio_trial":500,"smaller_num":"6","larger_num":"12","correct_side":1,"subjID":"isabellaseguracardozo9","gender":null,"age":"6","school":null},{"start_time":1551900670711,"click_time":1551900672797,"finger_time":1551900671437,"fix_duration":772.3919875144792,"trial":59,"RT":726,"MT":1360,"sideResp":2,"stimulus":"img/900/randomdotsizeEA/R/9_Ratio_900_L_18_R_20.png","xmouse":[768,768,768,768,768,768,768,768,768,768,768,768,768,768,768,768,768,768,768,768,768,768,768,768,768,768,768,768,768,769,780,786,792,796,797,799,799,799,803,804,808,810,811,811,812,812,812,812,801,787,760,748,738,730,726,718,712,702,692,681,677,670,660,647,632,603,601,597,595,593,591,590,590,590,590,600,615,664,724,855,944,1047,1155,1244,1304,1326,1323,1297,1277,1251,1225,1225,1225,1225,1224,1223,1219,1217,1215,1215,1211,1205,1193,1171,1149],"ymouse":[497,497,497,497,497,497,497,497,497,497,497,497,497,497,497,497,497,497,497,497,497,497,497,497,497,497,497,497,497,497,489,484,479,476,475,470,466,464,459,458,455,453,452,451,448,445,439,428,403,380,332,311,294,280,269,250,239,226,213,200,194,186,176,166,156,135,133,130,129,126,125,124,124,124,124,127,131,141,152,171,178,180,180,180,175,152,145,122,105,90,77,77,77,77,77,77,77,77,77,77,77,77,76,74,74],"timestamp_mouse":[12,32,46,66,87,106,126,146,166,186,207,226,246,266,287,306,326,346,366,387,407,426,446,467,487,506,526,546,566,586,606,626,646,666,686,706,726,746,765,786,806,826,846,866,888,905,927,946,966,986,1006,1026,1046,1066,1086,1106,1125,1146,1166,1188,1206,1227,1246,1266,1288,1306,1326,1346,1366,1388,1406,1426,1446,1466,1486,1506,1526,1546,1566,1587,1606,1626,1646,1666,1686,1706,1726,1746,1766,1786,1806,1826,1847,1867,1887,1906,1926,1946,1966,1985,2006,2026,2046,2065,2086],"xSR":741.5,"ySR":469.95,"xT1":424.9,"yT1":0,"xT2":1058.1,"yT2":0,"toosoon":0,"cond_shown":"randomdotsizeEA","ratio_trial":900,"smaller_num":"18","larger_num":"20","correct_side":2,"subjID":"isabellaseguracardozo9","gender":null,"age":"6","school":null},{"start_time":1551900674380,"click_time":1551900675517,"finger_time":1551900675117,"fix_duration":642.978715172039,"trial":60,"RT":737,"MT":400,"sideResp":2,"stimulus":"img/750/randomdotsizeEA/R/11_Ratio_750_L_12_R_16.png","xmouse":[754,754,754,754,754,754,754,754,754,754,754,754,754,754,754,754,754,754,754,754,754,754,754,754,754,754,754,754,754,754,754,754,754,754,753,762,898,989,1062,1101,1113,1130,1133,1135,1137,1138,1140,1142,1141,1138,1135,1124,1124,1124,1124,1123,1119],"ymouse":[540,540,540,540,540,540,540,540,540,540,540,540,540,540,540,540,540,540,540,540,540,540,540,540,540,540,540,540,540,540,540,540,540,540,539,525,441,383,341,319,311,271,247,227,204,187,173,150,142,138,131,115,115,114,114,112,94],"timestamp_mouse":[17,38,57,78,97,119,137,158,178,197,217,237,258,277,297,317,337,357,377,398,417,437,457,477,497,517,536,557,577,597,617,637,657,677,697,717,737,757,777,797,817,837,858,877,897,917,937,957,977,998,1016,1037,1057,1077,1097,1117,1137],"xSR":741.5,"ySR":469.95,"xT1":424.9,"yT1":0,"xT2":1058.1,"yT2":0,"toosoon":0,"cond_shown":"randomdotsizeEA","ratio_trial":750,"smaller_num":"12","larger_num":"16","correct_side":2,"subjID":"isabellaseguracardozo9","gender":null,"age":"6","school":null},{"start_time":1551900677696,"click_time":1551900679037,"finger_time":1551900678237,"fix_duration":1278.9563304917767,"trial":61,"RT":541,"MT":800,"sideResp":2,"stimulus":"img/250/randomdotsizeEA/R/4_Ratio_250_L_3_R_12.png","xmouse":[793,793,793,793,793,793,793,793,793,793,793,793,793,793,793,793,793,793,793,793,793,793,793,794,795,803,817,839,851,862,877,895,956,991,1025,1056,1068,1076,1077,1077,1077,1077,1076,1076,1076,1076,1081,1093,1097,1099,1101,1102,1103,1104,1105,1107,1108,1108,1108,1108,1108,1108,1108,1108,1108,1107,1107,1107],"ymouse":[502,502,502,502,502,502,502,502,502,502,502,502,502,502,502,502,502,502,502,502,502,502,502,502,502,500,488,469,461,453,444,434,408,393,367,333,315,291,283,277,274,269,258,258,255,245,226,184,169,161,155,153,150,145,138,127,121,117,117,117,117,117,116,112,106,104,101,98],"timestamp_mouse":[9,22,41,61,81,101,121,141,161,182,200,221,242,261,280,302,322,341,361,381,401,420,441,461,481,501,521,541,561,581,601,621,641,661,681,701,721,741,761,781,801,821,841,862,881,901,920,941,960,981,1001,1021,1041,1061,1081,1101,1121,1141,1161,1181,1201,1222,1241,1262,1281,1301,1321,1341],"xSR":741.5,"ySR":469.95,"xT1":424.9,"yT1":0,"xT2":1058.1,"yT2":0,"toosoon":0,"cond_shown":"randomdotsizeEA","ratio_trial":250,"smaller_num":"3","larger_num":"12","correct_side":2,"subjID":"isabellaseguracardozo9","gender":null,"age":"6","school":null},{"start_time":1551900680597,"click_time":1551900682317,"finger_time":1551900681137,"fix_duration":418.7936674662265,"trial":62,"RT":540,"MT":1180,"sideResp":1,"stimulus":"img/500/equaldotanddens/L/4_Ratio_500_L_18_R_9.png","xmouse":[775,775,775,775,775,775,775,775,775,775,775,775,775,775,775,775,775,775,775,775,775,775,775,775,775,773,765,757,755,750,745,740,733,727,721,716,703,688,678,669,664,660,658,657,655,649,624,611,603,600,597,582,570,556,542,535,527,521,516,510,504,495,492,492,492,492,494,495,495,495,495,495,495,495,495,495,495,495,495,495,495,495,494,489,486,482],"ymouse":[503,503,503,503,503,503,503,503,503,503,503,503,503,503,503,503,503,503,503,503,503,503,503,499,494,481,449,427,423,405,371,352,334,318,306,298,279,258,247,236,232,229,227,226,225,220,203,194,188,186,183,173,168,162,155,152,148,142,138,132,123,114,113,113,113,111,109,108,108,107,107,107,107,107,107,107,107,107,107,107,107,107,103,101,100,99],"timestamp_mouse":[20,41,60,80,100,120,140,159,180,200,220,241,260,280,300,319,340,360,380,399,421,440,459,480,500,521,540,560,580,601,622,640,660,680,700,720,739,760,780,800,820,840,860,880,900,920,940,960,980,1000,1019,1039,1061,1080,1100,1121,1140,1160,1180,1201,1220,1240,1261,1280,1300,1320,1340,1361,1380,1401,1420,1441,1460,1480,1500,1520,1541,1560,1580,1600,1620,1641,1660,1679,1700,1720],"xSR":741.5,"ySR":469.95,"xT1":424.9,"yT1":0,"xT2":1058.1,"yT2":0,"toosoon":0,"cond_shown":"equaldotanddens","ratio_trial":500,"smaller_num":"9","larger_num":"18","correct_side":1,"subjID":"isabellaseguracardozo9","gender":null,"age":"6","school":null},{"start_time":1551900684280,"click_time":1551900686077,"finger_time":1551900684736,"fix_duration":882.4694834023645,"trial":63,"RT":456,"MT":1341,"sideResp":1,"stimulus":"img/250/equaldotanddens/L/3_Ratio_250_L_8_R_2.png","xmouse":[801,801,801,801,801,801,801,801,801,801,801,801,801,801,801,801,798,790,783,776,772,765,741,728,712,694,678,644,629,615,600,585,555,549,546,545,544,541,541,541,541,539,533,530,524,514,506,489,481,478,475,474,474,474,474,474,475,475,475,475,475,475,475,475,475,475,475,475,475,475,476,476,446,430,413,395,377,346,340,338,337,345,370,384,404,423,443,465,475,486],"ymouse":[557,557,557,557,557,557,557,557,557,557,557,557,557,557,557,557,556,552,548,545,542,539,527,515,501,488,477,453,439,422,400,379,326,309,292,281,272,258,251,237,220,205,179,174,168,160,154,145,139,137,134,133,130,129,128,126,124,124,124,124,124,124,124,124,124,124,124,124,124,124,123,123,125,125,125,125,125,123,122,122,121,117,110,110,110,110,110,108,104,97],"timestamp_mouse":[18,36,58,77,97,116,137,157,178,198,217,237,256,277,298,317,337,357,377,397,417,437,456,477,497,517,538,557,577,597,617,637,657,677,698,717,737,758,776,797,817,837,858,877,897,917,937,957,976,996,1017,1037,1057,1077,1096,1117,1137,1158,1177,1196,1217,1237,1257,1278,1298,1317,1337,1357,1377,1398,1417,1437,1458,1477,1497,1517,1537,1558,1576,1597,1617,1637,1658,1678,1697,1718,1737,1758,1777,1797],"xSR":741.5,"ySR":469.95,"xT1":424.9,"yT1":0,"xT2":1058.1,"yT2":0,"toosoon":0,"cond_shown":"equaldotanddens","ratio_trial":250,"smaller_num":"2","larger_num":"8","correct_side":1,"subjID":"isabellaseguracardozo9","gender":null,"age":"6","school":null},{"start_time":1551900690092,"click_time":1551900690838,"finger_time":1551900690577,"fix_duration":1474.6691576941541,"trial":64,"RT":485,"MT":261,"sideResp":2,"stimulus":"img/500/equaldotanddens/R/15_Ratio_500_L_1_R_2.png","xmouse":[779,779,779,779,779,779,779,779,779,779,779,779,779,779,779,779,779,779,779,779,779,779,779,780,782,782,785,790,819,842,870,901,934,997,1028,1045,1057,1065],"ymouse":[510,510,510,510,510,510,510,510,510,510,510,510,510,510,510,510,510,510,510,510,508,503,494,472,457,438,416,391,307,270,233,196,158,83,48,28,13,3],"timestamp_mouse":[9,33,45,65,86,105,126,145,166,185,205,225,245,265,285,305,325,345,365,385,405,425,446,464,485,505,525,546,565,586,605,625,645,665,686,705,725,745],"xSR":741.5,"ySR":469.95,"xT1":424.9,"yT1":0,"xT2":1058.1,"yT2":0,"toosoon":0,"cond_shown":"equaldotanddens","ratio_trial":500,"smaller_num":"1","larger_num":"2","correct_side":2,"subjID":"isabellaseguracardozo9","gender":null,"age":"6","school":null},{"start_time":1551900693320,"click_time":1551900695537,"finger_time":1551900693777,"fix_duration":1461.488981539801,"trial":65,"RT":457,"MT":1760,"sideResp":1,"stimulus":"img/500/equaldotanddens/L/8_Ratio_500_L_8_R_4.png","xmouse":[789,785,782,781,781,781,781,781,781,781,781,781,781,781,781,781,781,781,781,781,779,756,732,706,690,679,648,635,623,614,605,599,597,594,588,582,573,555,545,536,526,502,488,479,466,450,444,433,431,435,451,467,508,533,574,632,690,690,690,690,690,690,690,690,690,690,648,641,633,624,617,598,589,581,575,565,539,529,515,504,495,489,489,489,488,485,477,474,469,466,461,455,450,448,446,444,442,441,441,441,441,441,441,441,441,441,441,441,446,462,481],"ymouse":[549,541,538,536,535,535,535,535,535,535,535,535,535,535,535,535,535,535,535,535,533,505,478,464,457,450,430,422,416,411,406,402,399,393,382,371,356,324,308,292,276,246,239,234,229,223,222,221,218,208,191,1