[{"start_time":1551892702524,"click_time":1551892705739,"finger_time":1551892702538,"fix_duration":1081.8176178419767,"trial":0,"RT":14,"MT":3201,"sideResp":2,"stimulus":"img/900/equaldotanddens/R/5_Ratio_900_L_9_R_10.png","xmouse":[798,798,798,798,798,798,798,798,798,798,798,798,798,798,798,798,798,798,798,798,798,798,798,798,798,798,798,798,798,798,798,798,798,798,798,798,798,798,798,798,798,798,798,798,798,798,798,798,798,798,798,798,798,798,798,798,798,798,798,798,798,798,798,798,798,798,798,798,798,798,798,798,798,798,798,798,798,798,798,798,798,798,798,798,798,798,799,801,803,805,807,807,807,807,807,807,807,807,807,807,807,807,807,807,807,807,807,807,807,807,807,807,817,831,850,894,912,925,937,948,981,994,1009,1014,1026,1047,1056,1063,1064,1066,1072,1078,1086,1089,1093,1101,1103,1105,1105,1105,1106,1106,1106,1107,1107,1107,1107,1107,1107,1107,1107,1107,1107,1107,1107,1107,1107,1107,1107,1106,1097],"ymouse":[496,496,496,496,496,496,496,496,496,496,496,496,496,496,496,496,496,496,496,496,496,496,496,496,496,496,496,496,496,496,496,496,496,496,496,496,496,496,496,496,496,496,496,496,496,496,496,496,496,496,496,496,496,496,496,496,496,496,496,496,496,496,496,496,496,496,496,496,496,496,496,496,496,496,496,496,496,496,496,496,496,496,496,496,496,496,504,521,535,553,585,588,594,600,604,605,605,605,605,605,605,605,605,605,605,605,605,605,605,605,605,605,595,573,548,470,427,395,368,346,292,272,253,245,229,202,191,183,182,179,170,166,156,152,146,131,122,115,112,112,110,110,110,108,107,107,107,107,107,107,107,107,107,107,107,107,107,107,107,105,94],"timestamp_mouse":[14,35,54,75,95,116,134,154,175,196,214,234,254,275,295,314,334,354,375,394,415,435,455,474,494,515,535,555,576,596,615,634,654,674,695,715,734,754,775,795,814,834,856,875,895,915,934,955,974,994,1014,1035,1054,1075,1094,1115,1134,1155,1175,1195,1215,1235,1255,1275,1295,1315,1334,1355,1374,1394,1414,1434,1455,1475,1496,1515,1535,1554,1575,1594,1615,1634,1654,1676,1696,1714,1735,1755,1774,1795,1814,1835,1855,1875,1894,1915,1934,1954,1974,1994,2014,2034,2056,2075,2094,2115,2135,2155,2175,2195,2214,2234,2254,2275,2294,2315,2334,2354,2374,2395,2414,2434,2454,2475,2494,2514,2534,2556,2575,2595,2614,2634,2655,2674,2694,2715,2734,2754,2775,2795,2814,2834,2854,2874,2894,2914,2934,2954,2975,2994,3015,3035,3055,3075,3095,3115,3135,3154,3174,3195,3214],"xSR":741.5,"ySR":449.15000000000003,"xT1":424.9,"yT1":0,"xT2":1058.1,"yT2":0,"toosoon":0,"cond_shown":"equaldotanddens","ratio_trial":900,"smaller_num":"9","larger_num":"10","correct_side":2,"subjID":"isabellsophiaosmagarcia","gender":"1","age":"10","school":"6","test":{"fix_dur":[250,1500],"timestim":300,"targets_dim":[100,100],"targets_relative_coord":[0.3,0.7],"size_stim":[880,420],"start_dim":[100,100],"size_start":[300,300],"size_fix":60,"samplingrate":20,"img_types":["equaldotsize","equaldotanddens","randomdotsizeEA"],"ratios":[250,500,750,900],"rep_conds":9,"nTrials":120,"trials_to_rest":500,"Trials_order":[70,99,44,17,97,26,38,80,73,31,25,56,0,114,2,29,65,51,55,63,67,84,95,115,105,50,40,110,66,20,108,116,58,89,39,6,64,35,24,82,96,83,22,77,47,104,71,111,87,68,3,19,54,113,16,43,112,100,57,36,37,109,62,10,14,15,98,93,103,75,33,60,4,7,91,9,13,11,59,92,49,8,79,119,21,90,94,53,30,41,52,46,12,72,117,23,106,18,85,61,42,118,107,102,88,5,74,76,28,81,101,78,48,86,27,1,45,34,69,32],"cond_shown":["equaldotanddens","equaldotsize","randomdotsizeEA","randomdotsizeEA","equaldotanddens","randomdotsizeEA","randomdotsizeEA","randomdotsizeEA","equaldotanddens","equaldotanddens","equaldotanddens","randomdotsizeEA","equaldotsize","equaldotsize","randomdotsizeEA","randomdotsizeEA","randomdotsizeEA","equaldotsize","equaldotanddens","equaldotsize","equaldotanddens","equaldotsize","randomdotsizeEA","equaldotanddens","equaldotsize","randomdotsizeEA","equaldotanddens","randomdotsizeEA","equaldotsize","randomdotsizeEA","equaldotsize","randomdotsizeEA","equaldotanddens","randomdotsizeEA","equaldotsize","equaldotsize","equaldotanddens","randomdotsizeEA","equaldotsize","equaldotanddens","equaldotsize","randomdotsizeEA","equaldotanddens","randomdotsizeEA","randomdotsizeEA","randomdotsizeEA","randomdotsizeEA","equaldotsize","equaldotsize","randomdotsizeEA","equaldotsize","equaldotanddens","equaldotsize","randomdotsizeEA","equaldotanddens","equaldotanddens","equaldotanddens","equaldotanddens","equaldotsize","equaldotsize","equaldotanddens","equaldotanddens","randomdotsizeEA","equaldotanddens","randomdotsizeEA","equaldotsize","randomdotsizeEA","equaldotsize","equaldotanddens","equaldotsize","equaldotsize","equaldotsize","equaldotanddens","equaldotanddens","equaldotanddens","equaldotsize","equaldotanddens","randomdotsizeEA","randomdotsizeEA","randomdotsizeEA","equaldotanddens","randomdotsizeEA","equaldotanddens","randomdotsizeEA","equaldotsize","equaldotsize","equaldotanddens","randomdotsizeEA","equaldotsize","randomdotsizeEA","equaldotanddens","equaldotanddens","equaldotsize","equaldotsize","equaldotsize","randomdotsizeEA","equaldotanddens","equaldotsize","equaldotanddens","equaldotanddens","equaldotsize","equaldotanddens","randomdotsizeEA","equaldotsize","equaldotanddens","randomdotsizeEA","randomdotsizeEA","equaldotanddens","equaldotanddens","equaldotsize","randomdotsizeEA","equaldotsize","equaldotsize","randomdotsizeEA","equaldotsize","equaldotanddens","equaldotsize","equaldotanddens","equaldotsize","randomdotsizeEA"],"ratio_trial":[900,500,750,500,250,250,250,750,250,750,250,750,250,750,250,500,500,500,750,500,750,250,900,750,900,250,500,250,750,750,250,750,900,500,500,750,500,900,250,900,250,900,900,500,900,750,900,500,500,750,500,750,750,500,500,750,500,500,900,250,250,250,250,900,250,500,250,900,750,500,900,250,500,750,750,900,250,900,900,750,250,750,750,900,900,750,900,500,750,500,500,900,250,250,900,900,900,750,250,250,750,900,900,750,500,500,250,500,500,900,500,750,250,250,500,250,900,900,900,750],"smaller_num":["9","1","3","9","3","3","2","3","6","3","3","15","3","3","4","9","2","2","3","2","18","2","18","3","18","2","5","2","15","6","3","3","18","9","6","6","9","18","3","18","3","18","18","2","9","15","18","2","1","3","5","3","15","1","5","15","4","6","18","3","2","3","4","18","3","5","2","18","6","10","18","2","9","15","15","18","2","18","18","6","5","3","3","9","18","3","18","6","18","1","1","18","3","2","9","9","18","15","6","4","18","18","9","3","6","1","5","3","9","18","1","3","4","4","9","2","9","18","18","6"],"larger_num":["10","2","4","18","12","12","8","4","24","4","12","20","12","4","16","18","4","4","4","4","24","8","20","4","20","8","10","8","20","8","12","4","20","18","12","8","18","20","12","20","12","20","20","4","10","20","20","4","2","4","10","4","20","2","10","20","8","12","20","12","8","12","16","20","12","10","8","20","8","20","20","8","18","20","20","20","8","20","20","8","20","4","4","10","20","4","20","12","24","2","2","20","12","8","10","10","20","20","24","16","24","20","10","4","12","2","20","6","18","20","2","4","16","16","18","8","10","20","20","8"],"correct_side":[2,2,1,1,2,2,1,1,2,2,1,1,2,2,1,2,1,2,1,2,1,1,2,2,2,1,2,1,2,2,1,2,2,2,1,2,2,1,2,1,2,1,2,1,1,2,2,2,2,1,1,2,1,2,1,1,1,1,1,1,2,2,1,1,2,2,1,1,2,2,1,1,2,2,2,2,1,1,1,1,2,2,1,2,2,1,1,1,1,2,2,1,1,1,2,1,2,1,1,1,1,2,1,1,1,2,2,2,2,1,2,1,1,2,2,1,2,2,1,1],"img_shown":["img/900/equaldotanddens/R/5_Ratio_900_L_9_R_10.png","img/500/equaldotsize/R/12_Ratio_500_L_1_R_2.png","img/750/randomdotsizeEA/L/9_Ratio_750_L_4_R_3.png","img/500/randomdotsizeEA/L/4_Ratio_500_L_18_R_9.png","img/250/equaldotanddens/R/11_Ratio_250_L_3_R_12.png","img/250/randomdotsizeEA/R/9_Ratio_250_L_3_R_12.png","img/250/randomdotsizeEA/L/3_Ratio_250_L_8_R_2.png","img/750/randomdotsizeEA/L/9_Ratio_750_L_4_R_3.png","img/250/equaldotanddens/R/6_Ratio_250_L_6_R_24.png","img/750/equaldotanddens/R/7_Ratio_750_L_3_R_4.png","img/250/equaldotanddens/L/15_Ratio_250_L_12_R_3.png","img/750/randomdotsizeEA/L/1_Ratio_750_L_20_R_15.png","img/250/equaldotsize/R/4_Ratio_250_L_3_R_12.png","img/750/equaldotsize/R/12_Ratio_750_L_3_R_4.png","img/250/randomdotsizeEA/L/2_Ratio_250_L_16_R_4.png","img/500/randomdotsizeEA/R/6_Ratio_500_L_9_R_18.png","img/500/randomdotsizeEA/L/5_Ratio_500_L_4_R_2.png","img/500/equaldotsize/R/9_Ratio_500_L_2_R_4.png","img/750/equaldotanddens/L/9_Ratio_750_L_4_R_3.png","img/500/equaldotsize/R/9_Ratio_500_L_2_R_4.png","img/750/equaldotanddens/L/6_Ratio_750_L_24_R_18.png","img/250/equaldotsize/L/3_Ratio_250_L_8_R_2.png","img/900/randomdotsizeEA/R/13_Ratio_900_L_18_R_20.png","img/750/equaldotanddens/R/12_Ratio_750_L_3_R_4.png","img/900/equaldotsize/R/14_Ratio_900_L_18_R_20.png","img/250/randomdotsizeEA/L/1_Ratio_250_L_8_R_2.png","img/500/equaldotanddens/R/14_Ratio_500_L_5_R_10.png","img/250/randomdotsizeEA/L/3_Ratio_250_L_8_R_2.png","img/750/equaldotsize/R/4_Ratio_750_L_15_R_20.png","img/750/randomdotsizeEA/R/2_Ratio_750_L_6_R_8.png","img/250/equaldotsize/L/14_Ratio_250_L_12_R_3.png","img/750/randomdotsizeEA/R/12_Ratio_750_L_3_R_4.png","img/900/equaldotanddens/R/13_Ratio_900_L_18_R_20.png","img/500/randomdotsizeEA/R/6_Ratio_500_L_9_R_18.png","img/500/equaldotsize/L/13_Ratio_500_L_12_R_6.png","img/750/equaldotsize/R/2_Ratio_750_L_6_R_8.png","img/500/equaldotanddens/R/1_Ratio_500_L_9_R_18.png","img/900/randomdotsizeEA/L/8_Ratio_900_L_20_R_18.png","img/250/equaldotsize/R/4_Ratio_250_L_3_R_12.png","img/900/equaldotanddens/L/4_Ratio_900_L_20_R_18.png","img/250/equaldotsize/R/11_Ratio_250_L_3_R_12.png","img/900/randomdotsizeEA/L/4_Ratio_900_L_20_R_18.png","img/900/equaldotanddens/R/13_Ratio_900_L_18_R_20.png","img/500/randomdotsizeEA/L/10_Ratio_500_L_4_R_2.png","img/900/randomdotsizeEA/L/1_Ratio_900_L_10_R_9.png","img/750/randomdotsizeEA/R/4_Ratio_750_L_15_R_20.png","img/900/randomdotsizeEA/R/12_Ratio_900_L_18_R_20.png","img/500/equaldotsize/R/9_Ratio_500_L_2_R_4.png","img/500/equaldotsize/R/15_Ratio_500_L_1_R_2.png","img/750/randomdotsizeEA/L/8_Ratio_750_L_4_R_3.png","img/500/equaldotsize/L/7_Ratio_500_L_10_R_5.png","img/750/equaldotanddens/R/7_Ratio_750_L_3_R_4.png","img/750/equaldotsize/L/1_Ratio_750_L_20_R_15.png","img/500/randomdotsizeEA/R/15_Ratio_500_L_1_R_2.png","img/500/equaldotanddens/L/7_Ratio_500_L_10_R_5.png","img/750/equaldotanddens/L/1_Ratio_750_L_20_R_15.png","img/500/equaldotanddens/L/8_Ratio_500_L_8_R_4.png","img/500/equaldotanddens/L/11_Ratio_500_L_12_R_6.png","img/900/equaldotsize/L/10_Ratio_900_L_20_R_18.png","img/250/equaldotsize/L/15_Ratio_250_L_12_R_3.png","img/250/equaldotanddens/R/13_Ratio_250_L_2_R_8.png","img/250/equaldotanddens/R/9_Ratio_250_L_3_R_12.png","img/250/randomdotsizeEA/L/2_Ratio_250_L_16_R_4.png","img/900/equaldotanddens/L/4_Ratio_900_L_20_R_18.png","img/250/randomdotsizeEA/R/4_Ratio_250_L_3_R_12.png","img/500/equaldotsize/R/14_Ratio_500_L_5_R_10.png","img/250/randomdotsizeEA/L/7_Ratio_250_L_8_R_2.png","img/900/equaldotsize/L/8_Ratio_900_L_20_R_18.png","img/750/equaldotanddens/R/2_Ratio_750_L_6_R_8.png","img/500/equaldotsize/R/3_Ratio_500_L_10_R_20.png","img/900/equaldotsize/L/8_Ratio_900_L_20_R_18.png","img/250/equaldotsize/L/3_Ratio_250_L_8_R_2.png","img/500/equaldotanddens/R/6_Ratio_500_L_9_R_18.png","img/750/equaldotanddens/R/3_Ratio_750_L_15_R_20.png","img/750/equaldotanddens/R/5_Ratio_750_L_15_R_20.png","img/900/equaldotsize/R/9_Ratio_900_L_18_R_20.png","img/250/equaldotanddens/L/7_Ratio_250_L_8_R_2.png","img/900/randomdotsizeEA/L/10_Ratio_900_L_20_R_18.png","img/900/randomdotsizeEA/L/8_Ratio_900_L_20_R_18.png","img/750/randomdotsizeEA/L/14_Ratio_750_L_8_R_6.png","img/250/equaldotanddens/R/12_Ratio_250_L_5_R_20.png","img/750/randomdotsizeEA/R/7_Ratio_750_L_3_R_4.png","img/750/equaldotanddens/L/9_Ratio_750_L_4_R_3.png","img/900/randomdotsizeEA/R/3_Ratio_900_L_9_R_10.png","img/900/equaldotsize/R/11_Ratio_900_L_18_R_20.png","img/750/equaldotsize/L/10_Ratio_750_L_4_R_3.png","img/900/equaldotanddens/L/4_Ratio_900_L_20_R_18.png","img/500/randomdotsizeEA/L/13_Ratio_500_L_12_R_6.png","img/750/equaldotsize/L/6_Ratio_750_L_24_R_18.png","img/500/randomdotsizeEA/R/12_Ratio_500_L_1_R_2.png","img/500/equaldotanddens/R/15_Ratio_500_L_1_R_2.png","img/900/equaldotanddens/L/10_Ratio_900_L_20_R_18.png","img/250/equaldotsize/L/15_Ratio_250_L_12_R_3.png","img/250/equaldotsize/L/3_Ratio_250_L_8_R_2.png","img/900/equaldotsize/R/6_Ratio_900_L_9_R_10.png","img/900/randomdotsizeEA/L/1_Ratio_900_L_10_R_9.png","img/900/equaldotanddens/R/11_Ratio_900_L_18_R_20.png","img/750/equaldotsize/L/1_Ratio_750_L_20_R_15.png","img/250/equaldotanddens/L/5_Ratio_250_L_24_R_6.png","img/250/equaldotanddens/L/2_Ratio_250_L_16_R_4.png","img/750/equaldotsize/L/6_Ratio_750_L_24_R_18.png","img/900/equaldotanddens/R/11_Ratio_900_L_18_R_20.png","img/900/randomdotsizeEA/L/1_Ratio_900_L_10_R_9.png","img/750/equaldotsize/L/10_Ratio_750_L_4_R_3.png","img/500/equaldotanddens/L/13_Ratio_500_L_12_R_6.png","img/500/randomdotsizeEA/R/12_Ratio_500_L_1_R_2.png","img/250/randomdotsizeEA/R/12_Ratio_250_L_5_R_20.png","img/500/equaldotanddens/R/2_Ratio_500_L_3_R_6.png","img/500/equaldotanddens/R/6_Ratio_500_L_9_R_18.png","img/900/equaldotsize/L/8_Ratio_900_L_20_R_18.png","img/500/randomdotsizeEA/R/12_Ratio_500_L_1_R_2.png","img/750/equaldotsize/L/10_Ratio_750_L_4_R_3.png","img/250/equaldotsize/L/2_Ratio_250_L_16_R_4.png","img/250/randomdotsizeEA/R/10_Ratio_250_L_4_R_16.png","img/500/equaldotsize/R/6_Ratio_500_L_9_R_18.png","img/250/equaldotanddens/L/3_Ratio_250_L_8_R_2.png","img/900/equaldotsize/R/3_Ratio_900_L_9_R_10.png","img/900/equaldotanddens/R/12_Ratio_900_L_18_R_20.png","img/900/equaldotsize/L/10_Ratio_900_L_20_R_18.png","img/750/randomdotsizeEA/L/13_Ratio_750_L_8_R_6.png"],"Rat0":[["12_Ratio_0_L_9_R_0.png","13_Ratio_0_L_6_R_0.png","5_Ratio_0_L_2_R_0.png","6_Ratio_0_L_4_R_0.png","8_Ratio_0_L_6_R_0.png"],["1_Ratio_0_L_0_R_17.png","10_Ratio_0_L_0_R_22.png","11_Ratio_0_L_0_R_1.png","14_Ratio_0_L_0_R_24.png","15_Ratio_0_L_0_R_4.png","2_Ratio_0_L_0_R_5.png","3_Ratio_0_L_0_R_17.png","4_Ratio_0_L_0_R_7.png","7_Ratio_0_L_0_R_19.png","9_Ratio_0_L_0_R_15.png"]],"Rat250":[["1_Ratio_250_L_8_R_2.png","14_Ratio_250_L_12_R_3.png","15_Ratio_250_L_12_R_3.png","2_Ratio_250_L_16_R_4.png","3_Ratio_250_L_8_R_2.png","5_Ratio_250_L_24_R_6.png","7_Ratio_250_L_8_R_2.png"],["10_Ratio_250_L_4_R_16.png","11_Ratio_250_L_3_R_12.png","12_Ratio_250_L_5_R_20.png","13_Ratio_250_L_2_R_8.png","4_Ratio_250_L_3_R_12.png","6_Ratio_250_L_6_R_24.png","8_Ratio_250_L_1_R_4.png","9_Ratio_250_L_3_R_12.png"]],"Rat500":[["10_Ratio_500_L_4_R_2.png","11_Ratio_500_L_12_R_6.png","13_Ratio_500_L_12_R_6.png","4_Ratio_500_L_18_R_9.png","5_Ratio_500_L_4_R_2.png","7_Ratio_500_L_10_R_5.png","8_Ratio_500_L_8_R_4.png"],["1_Ratio_500_L_9_R_18.png","12_Ratio_500_L_1_R_2.png","14_Ratio_500_L_5_R_10.png","15_Ratio_500_L_1_R_2.png","2_Ratio_500_L_3_R_6.png","3_Ratio_500_L_10_R_20.png","6_Ratio_500_L_9_R_18.png","9_Ratio_500_L_2_R_4.png"]],"Rat750":[["1_Ratio_750_L_20_R_15.png","10_Ratio_750_L_4_R_3.png","13_Ratio_750_L_8_R_6.png","14_Ratio_750_L_8_R_6.png","6_Ratio_750_L_24_R_18.png","8_Ratio_750_L_4_R_3.png","9_Ratio_750_L_4_R_3.png"],["11_Ratio_750_L_12_R_16.png","12_Ratio_750_L_3_R_4.png","15_Ratio_750_L_9_R_12.png","2_Ratio_750_L_6_R_8.png","3_Ratio_750_L_15_R_20.png","4_Ratio_750_L_15_R_20.png","5_Ratio_750_L_15_R_20.png","7_Ratio_750_L_3_R_4.png"]],"Rat900":[["1_Ratio_900_L_10_R_9.png","10_Ratio_900_L_20_R_18.png","2_Ratio_900_L_20_R_18.png","4_Ratio_900_L_20_R_18.png","8_Ratio_900_L_20_R_18.png"],["11_Ratio_900_L_18_R_20.png","12_Ratio_900_L_18_R_20.png","13_Ratio_900_L_18_R_20.png","14_Ratio_900_L_18_R_20.png","15_Ratio_900_L_9_R_10.png","3_Ratio_900_L_9_R_10.png","5_Ratio_900_L_9_R_10.png","6_Ratio_900_L_9_R_10.png","7_Ratio_900_L_9_R_10.png","9_Ratio_900_L_18_R_20.png"]],"Rat1000":[["10_Ratio_1000_L_16_R_16.png","11_Ratio_1000_L_6_R_6.png","12_Ratio_1000_L_14_R_14.png","13_Ratio_1000_L_20_R_20.png","15_Ratio_1000_L_15_R_15.png","2_Ratio_1000_L_17_R_17.png","4_Ratio_1000_L_9_R_9.png","5_Ratio_1000_L_6_R_6.png","6_Ratio_1000_L_19_R_19.png","8_Ratio_1000_L_14_R_14.png","9_Ratio_1000_L_25_R_25.png"],["1_Ratio_1000_L_1_R_1.png","14_Ratio_1000_L_17_R_17.png","3_Ratio_1000_L_17_R_17.png","7_Ratio_1000_L_6_R_6.png"]]}},{"start_time":1551892707806,"click_time":1551892709899,"finger_time":1551892709079,"fix_duration":864.606928246361,"trial":1,"RT":1273,"MT":820,"sideResp":2,"stimulus":"img/500/equaldotsize/R/12_Ratio_500_L_1_R_2.png","xmouse":[754,754,754,754,754,754,754,754,754,754,754,754,754,754,754,754,754,754,754,754,754,754,754,754,754,754,754,754,754,754,754,754,754,754,754,754,754,754,754,754,754,754,754,754,754,754,754,754,754,754,754,754,754,754,754,754,754,754,754,760,775,811,839,861,879,895,912,921,924,933,938,938,938,945,949,956,968,983,1001,1001,1008,1015,1018,1024,1034,1046,1053,1058,1068,1072,1080,1098,1100,1100,1101,1103,1104,1104,1106,1106,1108,1110,1115,1122,1124],"ymouse":[660,660,660,660,660,660,660,660,660,660,660,660,660,660,660,660,660,660,660,660,660,660,660,660,660,660,660,660,660,660,660,660,660,660,660,660,660,660,660,660,660,660,660,660,660,660,660,660,660,660,660,660,660,660,660,660,660,660,660,656,650,636,623,607,588,564,532,513,505,484,474,473,472,464,458,448,427,407,377,376,361,340,328,316,299,284,274,270,254,248,238,215,210,210,209,207,200,198,189,180,168,149,129,109,83],"timestamp_mouse":[13,33,52,73,92,112,132,154,173,193,212,234,252,273,293,313,332,352,373,392,412,432,452,473,493,512,533,552,572,593,612,632,652,674,694,714,732,753,773,793,812,832,852,872,892,913,932,953,973,993,1012,1034,1052,1072,1092,1113,1133,1153,1172,1193,1213,1232,1252,1273,1293,1313,1332,1353,1372,1392,1413,1433,1452,1472,1492,1513,1532,1553,1572,1593,1612,1632,1652,1672,1692,1714,1732,1752,1772,1792,1812,1832,1852,1873,1892,1913,1932,1952,1972,1993,2012,2033,2052,2073,2093],"xSR":741.5,"ySR":573.95,"xT1":424.9,"yT1":0,"xT2":1058.1,"yT2":0,"toosoon":0,"cond_shown":"equaldotsize","ratio_trial":500,"smaller_num":"1","larger_num":"2","correct_side":2,"subjID":"isabellsophiaosmagarcia","gender":"1","age":"10","school":"6"},{"start_time":1551892712277,"click_time":1551892713738,"finger_time":1551892713319,"fix_duration":1256.1133485099033,"trial":2,"RT":1042,"MT":419,"sideResp":1,"stimulus":"img/750/randomdotsizeEA/L/9_Ratio_750_L_4_R_3.png","xmouse":[809,809,809,809,809,809,809,809,809,809,809,809,809,809,809,809,809,809,809,809,809,809,809,809,809,809,809,809,809,809,809,809,809,809,809,809,809,808,820,822,822,822,822,822,822,822,822,822,822,822,819,814,802,775,753,731,693,679,564,555,544,528,525,528,534,547,557,564,569,564,555,546,535,507],"ymouse":[608,608,608,608,608,608,608,608,608,608,608,608,608,608,608,608,608,608,608,608,608,608,608,608,608,608,608,608,608,608,608,608,608,608,608,608,608,608,596,595,595,595,595,595,595,595,595,595,595,595,584,577,560,534,516,497,468,457,362,348,329,289,269,212,192,165,144,122,85,67,50,36,25,8],"timestamp_mouse":[9,22,42,61,82,102,122,143,161,182,201,223,241,261,282,302,321,341,362,382,401,422,441,461,481,501,521,541,562,581,602,621,641,662,681,703,722,742,761,781,801,822,843,863,882,901,921,941,961,981,1003,1022,1042,1061,1081,1101,1122,1142,1161,1181,1201,1222,1242,1261,1282,1301,1322,1341,1361,1381,1401,1421,1441,1461],"xSR":741.5,"ySR":573.95,"xT1":424.9,"yT1":0,"xT2":1058.1,"yT2":0,"toosoon":0,"cond_shown":"randomdotsizeEA","ratio_trial":750,"smaller_num":"3","larger_num":"4","correct_side":1,"subjID":"isabellsophiaosmagarcia","gender":"1","age":"10","school":"6"},{"start_time":1551892715752,"click_time":1551892716799,"finger_time":1551892716378,"fix_duration":1151.2329887478031,"trial":3,"RT":626,"MT":421,"sideResp":1,"stimulus":"img/500/randomdotsizeEA/L/4_Ratio_500_L_18_R_9.png","xmouse":[787,787,787,787,787,787,787,787,787,787,787,787,787,787,787,787,787,787,787,787,787,787,787,787,787,787,787,787,787,787,787,808,855,870,931,938,940,940,940,940,940,940,921,864,744,634,569,539,532,531,531,523,495],"ymouse":[587,587,587,587,587,587,587,587,587,587,587,587,587,587,587,587,587,587,587,587,587,587,587,587,587,587,587,587,587,587,587,564,519,505,463,457,455,455,455,455,455,455,451,443,420,379,334,293,269,224,196,133,35],"timestamp_mouse":[9,32,46,66,87,107,127,146,166,187,206,227,247,267,287,306,326,346,367,387,406,427,446,468,488,507,527,547,568,586,606,626,647,667,686,706,726,747,766,786,806,826,846,866,888,906,926,946,966,986,1006,1026,1047],"xSR":741.5,"ySR":573.95,"xT1":424.9,"yT1":0,"xT2":1058.1,"yT2":0,"toosoon":0,"cond_shown":"randomdotsizeEA","ratio_trial":500,"smaller_num":"9","larger_num":"18","correct_side":1,"subjID":"isabellsophiaosmagarcia","gender":"1","age":"10","school":"6"},{"start_time":1551892724442,"click_time":1551892725058,"finger_time":1551892724738,"fix_duration":681.3236884281753,"trial":4,"RT":296,"MT":320,"sideResp":2,"stimulus":"img/250/equaldotanddens/R/11_Ratio_250_L_3_R_12.png","xmouse":[793,793,793,793,793,793,793,793,793,793,793,793,793,800,856,888,918,936,972,993,1003,1007,1008,1008,1013,1018,1020,1020,1020,1053,1084],"ymouse":[614,614,614,614,614,614,614,614,614,614,614,614,614,608,525,469,401,333,206,133,98,78,67,65,52,44,43,43,43,32,16],"timestamp_mouse":[16,47,56,77,98,116,136,157,177,196,217,237,256,277,296,317,336,356,376,396,416,436,456,476,496,517,536,556,576,596,616],"xSR":741.5,"ySR":573.95,"xT1":424.9,"yT1":0,"xT2":1058.1,"yT2":0,"toosoon":0,"cond_shown":"equaldotanddens","ratio_trial":250,"smaller_num":"3","larger_num":"12","correct_side":2,"subjID":"isabellsophiaosmagarcia","gender":"1","age":"10","school":"6"},{"start_time":1551892726079,"click_time":1551892727360,"finger_time":1551892726498,"fix_duration":459.28495490533993,"trial":5,"RT":419,"MT":862,"sideResp":2,"stimulus":"img/250/randomdotsizeEA/R/9_Ratio_250_L_3_R_12.png","xmouse":[751,751,751,751,751,751,751,751,751,751,751,751,751,751,752,753,756,761,773,797,815,823,827,861,895,909,929,937,939,939,940,945,949,950,950,961,972,972,972,972,972,972,972,974,986,990,990,990,990,964,944,938,938,938,938,938,938,938,938,938,938,938,956,1050,1083],"ymouse":[625,625,625,625,625,625,625,625,625,625,625,625,625,625,623,619,616,612,604,589,576,568,563,506,432,403,345,293,258,252,247,239,234,232,232,224,216,208,206,206,206,206,206,201,189,183,183,183,183,182,189,190,190,190,190,190,190,190,190,190,190,190,175,76,22],"timestamp_mouse":[1,26,39,59,79,100,119,139,159,180,199,219,240,261,280,299,320,340,359,379,399,419,440,459,481,499,520,540,560,579,600,619,639,659,680,699,720,740,759,780,799,820,839,859,881,899,919,941,959,979,1000,1019,1039,1060,1081,1100,1120,1139,1159,1180,1200,1219,1240,1259,1281],"xSR":741.5,"ySR":573.95,"xT1":424.9,"yT1":0,"xT2":1058.1,"yT2":0,"toosoon":0,"cond_shown":"randomdotsizeEA","ratio_trial":250,"smaller_num":"3","larger_num":"12","correct_side":2,"subjID":"isabellsophiaosmagarcia","gender":"1","age":"10","school":"6"},{"start_time":1551892729202,"click_time":1551892730038,"finger_time":1551892729378,"fix_duration":783.4168818547122,"trial":6,"RT":176,"MT":660,"sideResp":1,"stimulus":"img/250/randomdotsizeEA/L/3_Ratio_250_L_8_R_2.png","xmouse":[776,776,777,779,782,786,794,798,799,801,803,809,824,845,876,911,943,974,1000,1006,1010,1009,1000,984,946,870,632,502,341,306,291,288,294,303,310,319,348,377,383,398,421,441],"ymouse":[601,601,601,599,594,589,579,575,573,571,569,565,551,533,504,471,438,396,361,347,335,316,304,293,276,255,187,166,145,139,131,122,110,93,78,65,43,34,32,32,34,36],"timestamp_mouse":[18,49,57,77,96,118,136,157,176,198,216,236,256,277,296,316,336,357,376,396,416,436,456,476,497,516,536,556,576,596,617,637,656,676,696,717,736,757,776,798,817,836],"xSR":741.5,"ySR":573.95,"xT1":424.9,"yT1":0,"xT2":1058.1,"yT2":0,"toosoon":0,"cond_shown":"randomdotsizeEA","ratio_trial":250,"smaller_num":"2","larger_num":"8","correct_side":1,"subjID":"isabellsophiaosmagarcia","gender":"1","age":"10","school":"6"},{"start_time":1551892732716,"click_time":1551892733400,"finger_time":1551892733138,"fix_duration":555.1054119532594,"trial":7,"RT":422,"MT":262,"sideResp":1,"stimulus":"img/750/randomdotsizeEA/L/9_Ratio_750_L_4_R_3.png","xmouse":[803,803,803,803,803,803,803,803,803,803,803,803,803,803,803,803,803,813,824,828,831,832,824,798,742,702,561,513,499,492,492,510,512,518,518],"ymouse":[628,628,628,628,628,628,628,628,628,628,628,628,628,628,628,628,628,616,603,595,589,573,564,549,528,512,460,433,415,395,383,312,296,166,58],"timestamp_mouse":[10,22,42,63,82,104,122,144,162,182,204,223,242,264,283,302,322,342,362,383,403,422,442,462,483,503,523,542,562,583,602,622,642,662,683],"xSR":741.5,"ySR":573.95,"xT1":424.9,"yT1":0,"xT2":1058.1,"yT2":0,"toosoon":0,"cond_shown":"randomdotsizeEA","ratio_trial":750,"smaller_num":"3","larger_num":"4","correct_side":1,"subjID":"isabellsophiaosmagarcia","gender":"1","age":"10","school":"6"},{"start_time":1551892736181,"click_time":1551892736899,"finger_time":1551892736558,"fix_duration":442.32960276497624,"trial":8,"RT":377,"MT":341,"sideResp":2,"stimulus":"img/250/equaldotanddens/R/6_Ratio_250_L_6_R_24.png","xmouse":[785,785,785,785,785,785,785,785,785,785,785,785,785,785,785,785,785,792,834,853,864,880,902,947,986,1008,1019,1030,1030,1030,1030,1030,1030,1030,1039,1066],"ymouse":[625,625,625,625,625,625,625,625,625,625,625,625,625,625,625,625,625,609,550,520,497,464,418,308,216,168,129,90,89,89,89,89,89,89,86,80],"timestamp_mouse":[17,49,57,77,98,118,137,157,177,197,218,237,258,278,299,318,337,357,377,397,418,437,457,477,498,518,538,557,578,597,618,637,658,677,698,718],"xSR":741.5,"ySR":573.95,"xT1":424.9,"yT1":0,"xT2":1058.1,"yT2":0,"toosoon":0,"cond_shown":"equaldotanddens","ratio_trial":250,"smaller_num":"6","larger_num":"24","correct_side":2,"subjID":"isabellsophiaosmagarcia","gender":"1","age":"10","school":"6"},{"start_time":1551892739718,"click_time":1551892740538,"finger_time":1551892740359,"fix_duration":459.01967260732323,"trial":9,"RT":641,"MT":179,"sideResp":2,"stimulus":"img/750/equaldotanddens/R/7_Ratio_750_L_3_R_4.png","xmouse":[789,789,789,789,789,789,789,789,789,789,789,789,789,789,789,789,789,789,789,789,789,789,789,789,789,789,789,789,790,792,796,819,845,877,889,943,1049,1087,1108,1116,1121,1126],"ymouse":[671,671,671,671,671,671,671,671,671,671,671,671,671,671,671,671,671,671,671,671,671,671,671,671,670,669,668,667,665,662,656,624,586,530,512,416,231,162,127,112,103,92],"timestamp_mouse":[10,34,40,60,81,100,121,140,161,182,202,220,242,260,281,302,320,341,360,381,401,421,440,462,481,501,521,540,561,581,600,620,641,660,680,700,721,740,760,780,801,820],"xSR":741.5,"ySR":573.95,"xT1":424.9,"yT1":0,"xT2":1058.1,"yT2":0,"toosoon":0,"cond_shown":"equaldotanddens","ratio_trial":750,"smaller_num":"3","larger_num":"4","correct_side":2,"subjID":"isabellsophiaosmagarcia","gender":"1","age":"10","school":"6"},{"start_time":1551892741951,"click_time":1551892742618,"finger_time":1551892742439,"fix_duration":511.8082253578624,"trial":10,"RT":488,"MT":179,"sideResp":1,"stimulus":"img/250/equaldotanddens/L/15_Ratio_250_L_12_R_3.png","xmouse":[794,794,794,794,794,794,794,794,794,794,794,794,794,794,794,794,794,794,794,794,794,793,792,758,719,666,612,564,520,509,503,503,503],"ymouse":[609,609,609,609,609,609,609,609,609,609,609,609,609,609,609,609,609,609,609,609,609,609,608,561,526,481,435,385,290,237,181,129,83],"timestamp_mouse":[11,50,68,87,107,128,148,167,187,207,228,248,269,287,307,328,348,367,387,407,427,447,467,488,507,527,547,568,587,607,627,648,667],"xSR":741.5,"ySR":573.95,"xT1":424.9,"yT1":0,"xT2":1058.1,"yT2":0,"toosoon":0,"cond_shown":"equaldotanddens","ratio_trial":250,"smaller_num":"3","larger_num":"12","correct_side":1,"subjID":"isabellsophiaosmagarcia","gender":"1","age":"10","school":"6"},{"start_time":1551892744445,"click_time":1551892745679,"finger_time":1551892745418,"fix_duration":1146.396134044463,"trial":11,"RT":973,"MT":261,"sideResp":1,"stimulus":"img/750/randomdotsizeEA/L/1_Ratio_750_L_20_R_15.png","xmouse":[758,758,758,758,758,758,758,758,758,758,758,758,758,758,758,760,766,769,771,772,772,772,772,772,772,772,772,772,772,772,772,772,772,773,774,775,777,780,785,804,808,811,812,812,812,812,811,799,780,754,720,696,679,664,578,538,475,474,474,474,474,480],"ymouse":[641,641,641,641,641,641,641,641,641,641,641,641,641,641,641,640,635,632,631,629,628,627,627,627,626,625,625,625,625,625,625,625,623,622,618,618,615,613,609,596,592,590,589,589,589,589,589,583,561,510,450,423,403,378,224,167,105,103,103,101,100,99],"timestamp_mouse":[15,40,53,73,93,113,133,153,174,195,213,235,253,274,293,315,333,353,373,393,414,433,453,474,493,513,533,554,573,593,613,633,653,675,693,713,733,753,773,793,813,833,854,873,893,914,933,953,973,993,1013,1033,1053,1075,1093,1113,1133,1154,1174,1193,1213,1234],"xSR":741.5,"ySR":573.95,"xT1":424.9,"yT1":0,"xT2":1058.1,"yT2":0,"toosoon":0,"cond_shown":"randomdotsizeEA","ratio_trial":750,"smaller_num":"15","larger_num":"20","correct_side":1,"subjID":"isabellsophiaosmagarcia","gender":"1","age":"10","school":"6"},{"start_time":1551892748619,"click_time":1551892749378,"finger_time":1551892749199,"fix_duration":599.1931765737656,"trial":12,"RT":580,"MT":179,"sideResp":2,"stimulus":"img/250/equaldotsize/R/4_Ratio_250_L_3_R_12.png","xmouse":[794,794,794,794,794,794,794,794,794,794,794,794,794,794,794,794,794,794,794,794,794,794,794,794,794,794,808,852,893,938,976,1015,1035,1071,1099,1100,1094],"ymouse":[624,624,624,624,624,624,624,624,624,624,624,624,624,624,624,624,624,624,624,624,624,624,624,624,624,624,604,559,516,467,419,354,318,239,124,100,86],"timestamp_mouse":[47,59,79,99,119,140,160,180,200,220,240,259,279,299,319,340,359,379,400,419,440,461,479,499,519,539,559,580,599,619,639,660,679,699,719,741,759],"xSR":741.5,"ySR":573.95,"xT1":424.9,"yT1":0,"xT2":1058.1,"yT2":0,"toosoon":0,"cond_shown":"equaldotsize","ratio_trial":250,"smaller_num":"3","larger_num":"12","correct_side":2,"subjID":"isabellsophiaosmagarcia","gender":"1","age":"10","school":"6"},{"start_time":1551892750690,"click_time":1551892751618,"finger_time":1551892751438,"fix_duration":569.7964574121975,"trial":13,"RT":748,"MT":180,"sideResp":2,"stimulus":"img/750/equaldotsize/R/12_Ratio_750_L_3_R_4.png","xmouse":[775,775,775,775,775,775,775,775,775,775,775,775,775,775,775,775,775,775,775,775,775,775,775,775,775,775,775,775,775,775,775,775,783,784,792,800,812,847,876,910,934,982,1061,1092,1118,1125,1129],"ymouse":[628,628,628,628,628,628,628,628,628,628,628,628,628,628,628,628,628,628,628,628,628,628,628,628,628,628,628,628,628,628,628,625,616,613,604,592,577,536,497,450,425,366,256,208,157,128,97],"timestamp_mouse":[10,30,49,68,88,108,128,149,168,188,209,230,248,269,289,310,328,349,369,388,409,429,448,468,489,510,529,548,569,588,608,629,649,669,688,708,728,748,768,788,808,829,848,868,888,908,928],"xSR":741.5,"ySR":573.95,"xT1":424.9,"yT1":0,"xT2":1058.1,"yT2":0,"toosoon":0,"cond_shown":"equaldotsize","ratio_trial":750,"smaller_num":"3","larger_num":"4","correct_side":2,"subjID":"isabellsophiaosmagarcia","gender":"1","age":"10","school":"6"},{"start_time":1551892753305,"click_time":1551892754019,"finger_time":1551892753759,"fix_duration":885.6376225775238,"trial":14,"RT":454,"MT":260,"sideResp":1,"stimulus":"img/250/randomdotsizeEA/L/2_Ratio_250_L_16_R_4.png","xmouse":[780,780,780,780,780,780,780,780,780,780,780,780,780,780,780,780,780,780,780,780,780,774,753,737,715,689,661,636,636,636,638,629,603,557,530,503],"ymouse":[618,618,618,618,618,618,618,618,618,618,618,618,618,618,618,618,618,618,618,618,618,604,569,538,499,458,413,345,318,293,268,198,155,106,81,58],"timestamp_mouse":[13,46,53,73,94,114,133,153,173,193,214,233,254,274,294,313,333,353,374,393,413,433,454,473,493,513,533,553,573,593,614,633,654,674,694,713],"xSR":741.5,"ySR":573.95,"xT1":424.9,"yT1":0,"xT2":1058.1,"yT2":0,"toosoon":0,"cond_shown":"randomdotsizeEA","ratio_trial":250,"smaller_num":"4","larger_num":"16","correct_side":1,"subjID":"isabellsophiaosmagarcia","gender":"1","age":"10","school":"6"},{"start_time":1551892756213,"click_time":1551892756919,"finger_time":1551892756738,"fix_duration":1253.994248882327,"trial":15,"RT":525,"MT":181,"sideResp":2,"stimulus":"img/500/randomdotsizeEA/R/6_Ratio_500_L_9_R_18.png","xmouse":[812,812,812,812,812,812,812,812,812,812,812,812,812,812,812,812,812,812,812,812,812,812,812,816,818,822,844,875,906,947,988,1065,1094,1114,1133,1146],"ymouse":[614,614,614,614,614,614,614,614,614,614,614,614,614,614,614,614,614,614,614,614,614,614,614,612,608,605,585,553,509,447,373,232,172,140,116,99],"timestamp_mouse":[9,25,45,66,85,106,126,145,166,186,206,225,246,265,286,306,325,345,366,387,406,425,446,466,485,506,525,545,565,585,606,626,645,665,685,706],"xSR":741.5,"ySR":573.95,"xT1":424.9,"yT1":0,"xT2":1058.1,"yT2":0,"toosoon":0,"cond_shown":"randomdotsizeEA","ratio_trial":500,"smaller_num":"9","larger_num":"18","correct_side":2,"subjID":"isabellsophiaosmagarcia","gender":"1","age":"10","school":"6"},{"start_time":1551892759734,"click_time":1551892760618,"finger_time":1551892760238,"fix_duration":414.58027284667907,"trial":16,"RT":504,"MT":380,"sideResp":1,"stimulus":"img/500/randomdotsizeEA/L/5_Ratio_500_L_4_R_2.png","xmouse":[796,796,796,796,796,796,796,796,796,796,796,796,796,796,796,796,796,796,796,796,795,792,781,763,722,694,677,670,670,660,654,631,610,590,555,546,543,541,541,532,520,508,497,494],"ymouse":[635,635,635,635,635,635,635,635,635,635,635,635,635,635,635,635,635,635,635,635,634,628,615,597,547,518,495,483,483,433,410,347,306,274,220,200,181,164,160,135,118,108,102,99],"timestamp_mouse":[15,49,64,85,105,124,145,164,184,205,226,254,265,284,304,325,346,365,384,404,425,444,464,485,504,524,544,564,584,605,624,644,664,684,704,724,744,764,784,804,825,844,864,884],"xSR":741.5,"ySR":573.95,"xT1":424.9,"yT1":0,"xT2":1058.1,"yT2":0,"toosoon":0,"cond_shown":"randomdotsizeEA","ratio_trial":500,"smaller_num":"2","larger_num":"4","correct_side":1,"subjID":"isabellsophiaosmagarcia","gender":"1","age":"10","school":"6"},{"start_time":1551892761973,"click_time":1551892762758,"finger_time":1551892762538,"fix_duration":533.5025950874721,"trial":17,"RT":565,"MT":220,"sideResp":2,"stimulus":"img/500/equaldotsize/R/9_Ratio_500_L_2_R_4.png","xmouse":[768,768,768,768,768,768,768,768,768,768,768,768,768,768,768,768,768,768,768,768,768,768,768,768,768,772,777,789,875,904,947,974,990,1016,1022,1026,1030,1033,1046,1066],"ymouse":[642,642,642,642,642,642,642,642,642,642,642,642,642,642,642,642,642,642,642,642,642,642,642,642,642,637,629,611,503,468,399,339,297,204,177,163,155,147,127,86],"timestamp_mouse":[10,31,46,65,85,105,125,145,165,185,205,225,246,265,286,305,325,346,365,385,405,425,445,465,486,505,526,545,565,586,605,625,645,665,685,706,725,745,765,784],"xSR":741.5,"ySR":573.95,"xT1":424.9,"yT1":0,"xT2":1058.1,"yT2":0,"toosoon":0,"cond_shown":"equaldotsize","ratio_trial":500,"smaller_num":"2","larger_num":"4","correct_side":2,"subjID":"isabellsophiaosmagarcia","gender":"1","age":"10","school":"6"},{"start_time":1551892764152,"click_time":1551892765438,"finger_time":1551892764778,"fix_duration":571.3676486463617,"trial":18,"RT":626,"MT":660,"sideResp":2,"stimulus":"img/750/equaldotanddens/L/9_Ratio_750_L_4_R_3.png","xmouse":[805,805,805,805,805,805,805,805,805,805,805,805,805,805,805,805,805,802,802,800,797,791,790,790,790,789,789,788,788,788,787,786,786,784,781,772,763,752,734,692,661,634,610,608,606,604,604,608,630,671,709,722,768,779,873,927,967,976,988,1004,1007,1010,1017,1029,1075],"ymouse":[618,618,618,618,618,618,618,618,618,618,618,618,618,618,618,618,618,613,610,606,599,590,589,588,585,584,583,580,578,575,574,572,571,568,564,549,534,519,500,463,438,415,392,390,386,384,383,383,383,383,378,374,359,353,312,277,233,214,185,140,126,117,108,101,79],"timestamp_mouse":[11,41,46,67,86,106,126,147,166,187,206,227,246,266,285,307,326,346,367,385,406,426,447,466,486,506,526,546,566,586,607,626,646,666,686,706,726,746,766,786,807,826,846,866,886,907,927,946,966,986,1006,1026,1046,1066,1085,1106,1125,1146,1167,1186,1206,1226,1247,1267,1285],"xSR":741.5,"ySR":573.95,"xT1":424.9,"yT1":0,"xT2":1058.1,"yT2":0,"toosoon":0,"cond_shown":"equaldotanddens","ratio_trial":750,"smaller_num":"3","larger_num":"4","correct_side":1,"subjID":"isabellsophiaosmagarcia","gender":"1","age":"10","school":"6"},{"start_time":1551892767278,"click_time":1551892767978,"finger_time":1551892767879,"fix_duration":1039.8723268630888,"trial":19,"RT":601,"MT":99,"sideResp":2,"stimulus":"img/500/equaldotsize/R/9_Ratio_500_L_2_R_4.png","xmouse":[797,797,797,797,797,797,797,797,797,797,797,797,797,797,797,797,797,797,797,797,797,797,797,797,797,797,797,797,797,800,844,910,991,1079,1079,1097],"ymouse":[631,631,631,631,631,631,631,631,631,631,631,631,631,631,631,631,631,631,631,631,631,631,631,631,631,631,631,631,631,629,576,503,412,269,215,65],"timestamp_mouse":[8,20,40,60,80,101,120,140,160,180,201,220,240,259,280,301,321,340,361,380,400,421,440,461,480,500,520,541,560,580,601,620,640,660,680,700],"xSR":741.5,"ySR":573.95,"xT1":424.9,"yT1":0,"xT2":1058.1,"yT2":0,"toosoon":0,"cond_shown":"equaldotsize","ratio_trial":500,"smaller_num":"2","larger_num":"4","correct_side":2,"subjID":"isabellsophiaosmagarcia","gender":"1","age":"10","school":"6"},{"start_time":1551892769189,"click_time":1551892770058,"finger_time":1551892769658,"fix_duration":250,"trial":20,"RT":469,"MT":400,"sideResp":1,"stimulus":"img/750/equaldotanddens/L/6_Ratio_750_L_24_R_18.png","xmouse":[796,796,796,796,796,796,796,796,796,796,796,796,796,796,796,796,796,796,796,796,796,796,795,791,786,782,760,709,674,617,600,593,568,556,548,544,544,543,543,543,543,543,532,493],"ymouse":[586,586,586,586,586,586,586,586,586,586,586,586,586,586,586,586,586,586,586,586,586,586,579,568,559,555,540,507,485,437,415,404,355,331,310,295,290,281,258,230,214,184,139,76],"timestamp_mouse":[11,43,48,69,89,110,130,149,169,189,209,230,249,269,290,310,330,350,370,390,409,429,449,469,489,509,529,548,569,589,610,629,650,669,689,709,730,749,770,789,810,829,849,869],"xSR":741.5,"ySR":573.95,"xT1":424.9,"yT1":0,"xT2":1058.1,"yT2":0,"toosoon":0,"cond_shown":"equaldotanddens","ratio_trial":750,"smaller_num":"18","larger_num":"24","correct_side":1,"subjID":"isabellsophiaosmagarcia","gender":"1","age":"10","school":"6"},{"start_time":1551892774022,"click_time":1551892774938,"finger_time":1551892774619,"fix_duration":1462.9097488018122,"trial":21,"RT":597,"MT":319,"sideResp":1,"stimulus":"img/250/equaldotsize/L/3_Ratio_250_L_8_R_2.png","xmouse":[784,784,784,784,784,784,784,784,784,784,784,784,784,784,784,784,784,784,784,784,784,784,784,784,784,784,784,770,750,708,615,586,558,550,550,567,580,580,577,565,528,515,505,501,500,498],"ymouse":[637,637,637,637,637,637,637,637,637,637,637,637,637,637,637,637,637,637,637,637,637,637,637,637,637,637,634,612,584,529,413,363,301,254,212,99,10,0,0,0,0,0,0,0,0,4],"timestamp_mouse":[16,36,56,76,96,117,136,156,176,197,217,236,257,276,297,316,336,356,376,396,416,436,456,476,496,516,537,556,576,597,616,635,656,677,696,716,735,756,777,796,817,836,856,876,897,916],"xSR":741.5,"ySR":573.95,"xT1":424.9,"yT1":0,"xT2":1058.1,"yT2":0,"toosoon":0,"cond_shown":"equaldotsize","ratio_trial":250,"smaller_num":"2","larger_num":"8","correct_side":1,"subjID":"isabellsophiaosmagarcia","gender":"1","age":"10","school":"6"},{"start_time":1551892776616,"click_time":1551892777520,"finger_time":1551892777138,"fix_duration":936.5288213527585,"trial":22,"RT":522,"MT":382,"sideResp":2,"stimulus":"img/900/randomdotsizeEA/R/13_Ratio_900_L_18_R_20.png","xmouse":[780,780,780,780,780,780,780,780,780,780,780,780,780,780,780,780,780,780,781,782,782,784,787,790,796,803,816,826,833,844,884,915,928,949,950,994,1038,1065,1085,1095,1100,1101,1101,1101,1097],"ymouse":[660,660,660,660,660,660,660,660,660,660,660,660,660,660,656,644,627,617,613,609,605,602,598,592,582,573,556,546,537,526,482,443,423,398,397,335,261,220,190,163,138,123,113,104,89],"timestamp_mouse":[10,50,62,82,103,122,142,162,182,202,223,242,262,282,302,322,342,362,382,403,423,442,463,481,503,522,543,562,583,602,622,642,662,683,702,722,741,762,782,803,822,842,862,882,903],"xSR":741.5,"ySR":573.95,"xT1":424.9,"yT1":0,"xT2":1058.1,"yT2":0,"toosoon":0,"cond_shown":"randomdotsizeEA","ratio_trial":900,"smaller_num":"18","larger_num":"20","correct_side":2,"subjID":"isabellsophiaosmagarcia","gender":"1","age":"10","school":"6"},{"start_time":1551892780716,"click_time":1551892781720,"finger_time":1551892781339,"fix_duration":1036.1773721065904,"trial":23,"RT":623,"MT":381,"sideResp":2,"stimulus":"img/750/equaldotanddens/R/12_Ratio_750_L_3_R_4.png","xmouse":[795,795,795,795,795,795,795,795,795,795,795,795,795,795,795,795,795,795,795,795,795,795,795,795,795,795,796,796,796,796,804,855,900,913,950,978,990,991,991,982,975,970,970,971,979,988,1006,1018,1033,1049,1068],"ymouse":[634,634,634,634,634,634,634,634,634,634,634,634,634,634,634,634,634,634,634,634,634,634,634,634,634,634,634,634,634,634,624,554,498,482,433,383,338,318,282,256,244,214,199,181,166,154,136,127,118,106,93],"timestamp_mouse":[11,33,42,62,83,102,123,143,163,183,203,223,242,263,283,302,322,343,362,382,402,422,443,463,482,502,523,542,563,582,603,623,642,662,683,702,723,742,762,782,802,822,843,862,882,903,922,942,963,983,1003],"xSR":741.5,"ySR":573.95,"xT1":424.9,"yT1":0,"xT2":1058.1,"yT2":0,"toosoon":0,"cond_shown":"equaldotanddens","ratio_trial":750,"smaller_num":"3","larger_num":"4","correct_side":2,"subjID":"isabellsophiaosmagarcia","gender":"1","age":"10","school":"6"},{"start_time":1551892783777,"click_time":1551892784578,"finger_time":1551892784338,"fix_duration":1238.6138253607385,"trial":24,"RT":561,"MT":240,"sideResp":2,"stimulus":"img/900/equaldotsize/R/14_Ratio_900_L_18_R_20.png","xmouse":[784,784,784,784,784,784,784,784,784,784,784,784,784,784,784,784,784,784,784,784,784,784,784,784,784,793,809,839,942,990,1027,1067,1081,1093,1093,1093,1093,1093,1093,1097,1099],"ymouse":[654,654,654,654,654,654,654,654,654,654,654,654,654,654,654,654,654,654,654,654,654,654,654,654,654,643,625,592,487,437,385,315,286,229,220,200,173,153,141,111,96],"timestamp_mouse":[8,22,41,61,81,102,122,141,161,182,202,221,241,262,282,301,321,341,361,381,401,421,440,462,482,501,522,542,561,581,601,621,641,661,680,701,721,743,761,781,801],"xSR":741.5,"ySR":573.95,"xT1":424.9,"yT1":0,"xT2":1058.1,"yT2":0,"toosoon":0,"cond_shown":"equaldotsize","ratio_trial":900,"smaller_num":"18","larger_num":"20","correct_side":2,"subjID":"isabellsophiaosmagarcia","gender":"1","age":"10","school":"6"},{"start_time":1551892785933,"click_time":1551892786799,"finger_time":1551892786418,"fix_duration":613.8573369011913,"trial":25,"RT":485,"MT":381,"sideResp":1,"stimulus":"img/250/randomdotsizeEA/L/1_Ratio_250_L_8_R_2.png","xmouse":[758,758,758,758,758,758,758,758,758,758,758,758,758,758,758,758,758,761,765,767,769,769,767,752,726,641,580,540,501,476,455,440,432,421,413,406,406,409,412,412,414,418,422,430],"ymouse":[624,624,624,624,624,624,624,624,624,624,624,624,624,624,624,624,625,625,625,625,624,620,608,588,555,457,396,346,296,251,180,130,104,79,57,11,0,0,0,0,0,0,1,9],"timestamp_mouse":[13,34,45,65,84,105,125,146,166,185,206,225,244,265,286,305,325,345,366,385,405,426,445,465,485,505,524,546,566,586,605,625,645,666,685,704,724,746,766,785,805,825,845,866],"xSR":741.5,"ySR":573.95,"xT1":424.9,"yT1":0,"xT2":1058.1,"yT2":0,"toosoon":0,"cond_shown":"randomdotsizeEA","ratio_trial":250,"smaller_num":"2","larger_num":"8","correct_side":1,"subjID":"isabellsophiaosmagarcia","gender":"1","age":"10","school":"6"},{"start_time":1551892788499,"click_time":1551892789298,"finger_time":1551892788938,"fix_duration":920.214083982245,"trial":26,"RT":439,"MT":360,"sideResp":2,"stimulus":"img/500/equaldotanddens/R/14_Ratio_500_L_5_R_10.png","xmouse":[801,801,801,801,801,801,801,801,801,801,801,801,801,801,801,804,811,814,818,821,826,841,899,950,973,987,994,999,1027,1030,1036,1052,1057,1062,1062,1062,1065,1070,1075,1080],"ymouse":[638,638,638,638,638,638,638,638,638,638,638,638,638,638,638,635,615,607,597,589,579,555,463,386,339,315,296,285,224,217,203,156,136,118,118,118,113,107,101,97],"timestamp_mouse":[19,39,59,80,99,119,139,160,179,199,219,240,259,280,299,319,339,359,379,400,419,439,459,479,500,520,540,559,579,600,619,639,660,679,699,719,738,758,779,799],"xSR":741.5,"ySR":573.95,"xT1":424.9,"yT1":0,"xT2":1058.1,"yT2":0,"toosoon":0,"cond_shown":"equaldotanddens","ratio_trial":500,"smaller_num":"5","larger_num":"10","correct_side":2,"subjID":"isabellsophiaosmagarcia","gender":"1","age":"10","school":"6"},{"start_time":1551892790852,"click_time":1551892791578,"finger_time":1551892791159,"fix_duration":731.831884822855,"trial":27,"RT":307,"MT":419,"sideResp":1,"stimulus":"img/250/randomdotsizeEA/L/3_Ratio_250_L_8_R_2.png","xmouse":[775,775,775,775,775,775,775,775,775,775,775,775,775,773,759,730,689,667,648,617,604,593,589,578,569,564,564,564,568,568,561,554,548,541,520,512,504],"ymouse":[628,628,628,628,628,628,628,628,628,628,628,628,625,620,604,578,544,523,503,444,417,397,387,366,349,319,283,261,235,200,183,173,163,149,115,101,87],"timestamp_mouse":[15,35,45,67,86,105,127,145,166,186,206,227,246,266,286,307,326,347,367,386,406,426,446,467,486,507,526,546,566,586,606,626,647,666,686,706,726],"xSR":741.5,"ySR":573.95,"xT1":424.9,"yT1":0,"xT2":1058.1,"yT2":0,"toosoon":0,"cond_shown":"randomdotsizeEA","ratio_trial":250,"smaller_num":"2","larger_num":"8","correct_side":1,"subjID":"isabellsophiaosmagarcia","gender":"1","age":"10","school":"6"},{"start_time":1551892793949,"click_time":1551892794599,"finger_time":1551892794358,"fix_duration":250,"trial":28,"RT":409,"MT":241,"sideResp":2,"stimulus":"img/750/equaldotsize/R/4_Ratio_750_L_15_R_20.png","xmouse":[802,802,802,802,802,802,802,802,802,802,802,802,802,802,802,802,802,802,802,812,847,877,918,959,1011,1035,1047,1053,1064,1082,1085,1091,1096],"ymouse":[643,643,643,643,643,643,643,643,643,643,643,643,643,643,643,643,643,643,638,617,565,516,456,394,306,257,232,215,191,147,133,112,97],"timestamp_mouse":[10,38,49,69,89,109,129,150,170,189,210,229,250,269,290,310,329,350,369,389,409,429,450,469,489,509,529,550,569,589,609,629,650],"xSR":741.5,"ySR":573.95,"xT1":424.9,"yT1":0,"xT2":1058.1,"yT2":0,"toosoon":0,"cond_shown":"equaldotsize","ratio_trial":750,"smaller_num":"15","larger_num":"20","correct_side":2,"subjID":"isabellsophiaosmagarcia","gender":"1","age":"10","school":"6"},{"start_time":1551892795971,"click_time":1551892796798,"finger_time":1551892796498,"fix_duration":611.995860051717,"trial":29,"RT":527,"MT":300,"sideResp":1,"stimulus":"img/750/randomdotsizeEA/R/2_Ratio_750_L_6_R_8.png","xmouse":[791,791,791,791,791,791,791,791,791,791,791,791,791,791,791,791,791,791,791,791,791,791,791,790,780,761,734,689,604,561,513,502,501,503,504,504,504,504,503,503,504,504],"ymouse":[634,634,634,634,634,634,634,634,634,634,634,634,634,634,634,634,634,634,634,634,634,634,634,635,621,594,560,507,402,337,262,228,203,169,161,159,157,156,148,136,105,81],"timestamp_mouse":[10,30,48,68,87,107,127,146,167,188,207,227,248,267,288,307,327,347,368,387,408,427,448,477,487,508,527,546,566,588,607,627,647,667,687,707,727,747,766,788,807,827],"xSR":741.5,"ySR":573.95,"xT1":424.9,"yT1":0,"xT2":1058.1,"yT2":0,"toosoon":0,"cond_shown":"randomdotsizeEA","ratio_trial":750,"smaller_num":"6","larger_num":"8","correct_side":2,"subjID":"isabellsophiaosmagarcia","gender":"1","age":"10","school":"6"},{"start_time":1551892798528,"click_time":1551892799438,"finger_time":1551892799058,"fix_duration":1008.6140990688868,"trial":30,"RT":530,"MT":380,"sideResp":1,"stimulus":"img/250/equaldotsize/L/14_Ratio_250_L_12_R_3.png","xmouse":[785,785,785,785,785,785,785,785,785,785,785,785,785,785,785,790,794,795,799,802,804,805,805,805,805,782,762,730,702,669,645,636,634,634,634,634,634,634,631,628,605,597,574,553,530,458],"ymouse":[641,641,641,641,641,641,641,641,641,641,641,641,641,641,641,640,637,636,632,629,627,627,627,623,620,591,567,530,493,453,427,410,378,334,285,222,206,191,178,166,125,117,99,88,77,54],"timestamp_mouse":[14,30,51,70,90,110,131,150,171,190,211,230,250,270,289,311,329,350,370,391,410,431,450,471,490,510,530,550,571,590,610,630,650,671,690,710,730,750,771,790,811,831,850,871,890,910],"xSR":741.5,"ySR":573.95,"xT1":424.9,"yT1":0,"xT2":1058.1,"yT2":0,"toosoon":0,"cond_shown":"equaldotsize","ratio_trial":250,"smaller_num":"3","larger_num":"12","correct_side":1,"subjID":"isabellsophiaosmagarcia","gender":"1","age":"10","school":"6"},{"start_time":1551892800967,"click_time":1551892801719,"finger_time":1551892801498,"fix_duration":627.3999246251718,"trial":31,"RT":531,"MT":221,"sideResp":2,"stimulus":"img/750/randomdotsizeEA/R/12_Ratio_750_L_3_R_4.png","xmouse":[750,750,751,751,751,751,751,751,751,751,751,751,751,751,751,751,751,751,751,751,754,758,766,775,803,815,828,844,863,923,977,1010,1039,1064,1069,1073,1073,1074],"ymouse":[604,604,605,605,605,605,605,605,605,605,605,605,605,605,605,605,605,605,605,605,605,605,603,599,586,577,567,552,529,450,371,320,274,213,169,132,116,95],"timestamp_mouse":[11,34,51,71,90,112,131,151,172,191,212,231,251,272,292,312,331,351,371,391,411,431,452,471,491,511,531,552,571,592,611,631,651,671,691,711,731,752],"xSR":741.5,"ySR":573.95,"xT1":424.9,"yT1":0,"xT2":1058.1,"yT2":0,"toosoon":0,"cond_shown":"randomdotsizeEA","ratio_trial":750,"smaller_num":"3","larger_num":"4","correct_side":2,"subjID":"isabellsophiaosmagarcia","gender":"1","age":"10","school":"6"},{"start_time":1551892804015,"click_time":1551892804898,"finger_time":1551892804438,"fix_duration":1415.686228317949,"trial":32,"RT":423,"MT":460,"sideResp":2,"stimulus":"img/900/equaldotanddens/R/13_Ratio_900_L_18_R_20.png","xmouse":[787,787,787,787,787,787,787,787,787,787,787,787,787,787,787,787,787,787,787,791,795,808,818,833,856,885,955,959,960,984,1009,1025,1040,1042,1040,1037,1032,1032,1032,1032,1032,1038,1047,1056,1066],"ymouse":[625,625,625,625,625,625,625,625,625,625,625,625,625,625,625,625,625,623,612,599,586,559,545,526,505,480,429,424,424,392,347,319,276,266,249,235,205,201,182,165,148,121,105,93,81],"timestamp_mouse":[8,24,43,63,84,103,123,143,163,184,203,223,243,264,284,303,323,343,363,383,404,423,442,464,484,504,522,542,563,583,603,623,643,663,683,704,724,744,763,783,803,823,842,863,883],"xSR":741.5,"ySR":573.95,"xT1":424.9,"yT1":0,"xT2":1058.1,"yT2":0,"toosoon":0,"cond_shown":"equaldotanddens","ratio_trial":900,"smaller_num":"18","larger_num":"20","correct_side":2,"subjID":"isabellsophiaosmagarcia","gender":"1","age":"10","school":"6"},{"start_time":1551892808030,"click_time":1551892808938,"finger_time":1551892808559,"fix_duration":768.202673330973,"trial":33,"RT":529,"MT":379,"sideResp":2,"stimulus":"img/500/randomdotsizeEA/R/6_Ratio_500_L_9_R_18.png","xmouse":[784,784,784,784,784,784,784,784,784,784,784,784,784,784,784,784,784,784,784,784,784,784,784,784,790,835,858,895,939,986,1020,1033,1038,1040,1041,1043,1045,1047,1049,1052,1062,1067,1073,1078,1079,1086],"ymouse":[640,640,640,640,640,640,640,640,640,640,640,640,640,640,640,640,640,640,640,640,640,640,640,640,634,592,572,528,471,417,355,316,285,268,256,232,220,206,193,178,146,130,116,109,105,92],"timestamp_mouse":[10,38,48,68,88,109,128,149,168,187,208,229,248,268,289,309,328,349,368,389,408,429,448,468,488,508,529,548,568,589,608,628,648,668,688,708,728,748,769,788,808,827,848,868,888,908],"xSR":741.5,"ySR":573.95,"xT1":424.9,"yT1":0,"xT2":1058.1,"yT2":0,"toosoon":0,"cond_shown":"randomdotsizeEA","ratio_trial":500,"smaller_num":"9","larger_num":"18","correct_side":2,"subjID":"isabellsophiaosmagarcia","gender":"1","age":"10","school":"6"},{"start_time":1551892810459,"click_time":1551892811538,"finger_time":1551892810959,"fix_duration":620.5331922501114,"trial":34,"RT":500,"MT":579,"sideResp":1,"stimulus":"img/500/equaldotsize/L/13_Ratio_500_L_12_R_6.png","xmouse":[767,767,767,767,767,767,767,767,767,767,767,767,767,767,767,767,767,767,767,767,767,767,766,756,738,737,725,709,681,673,663,658,647,622,614,609,606,602,599,588,563,529,510,488,488,485,483,483,483,485,488,492,499,507],"ymouse":[650,650,650,650,650,650,650,650,650,650,651,651,651,651,651,651,651,651,651,651,650,647,640,614,583,583,563,532,465,438,401,389,368,329,316,304,290,280,265,251,228,201,188,155,152,143,134,129,121,118,115,111,105,98],"timestamp_mouse":[21,43,60,80,99,119,139,159,179,199,219,239,260,280,299,319,339,360,379,399,419,438,459,479,500,519,539,559,579,599,619,639,659,679,700,719,739,759,779,798,820,840,860,879,900,919,939,960,979,999,1019,1039,1060,1079],"xSR":741.5,"ySR":573.95,"xT1":424.9,"yT1":0,"xT2":1058.1,"yT2":0,"toosoon":0,"cond_shown":"equaldotsize","ratio_trial":500,"smaller_num":"6","larger_num":"12","correct_side":1,"subjID":"isabellsophiaosmagarcia","gender":"1","age":"10","school":"6"},{"start_time":1551892813639,"click_time":1551892814298,"finger_time":1551892814138,"fix_duration":1140.6589432024532,"trial":35,"RT":499,"MT":160,"sideResp":2,"stimulus":"img/750/equaldotsize/R/2_Ratio_750_L_6_R_8.png","xmouse":[779,779,779,779,779,779,779,779,779,779,779,779,779,779,779,779,779,779,779,779,779,779,779,795,833,853,903,942,981,1045,1070,1092,1109],"ymouse":[604,604,604,604,604,604,604,604,604,604,604,604,604,604,604,604,604,604,604,604,604,604,604,589,548,524,458,400,341,229,187,133,95],"timestamp_mouse":[31,39,59,80,99,119,140,159,179,199,220,240,260,280,299,320,340,359,379,400,419,440,459,479,499,519,539,560,579,599,619,639,659],"xSR":741.5,"ySR":573.95,"xT1":424.9,"yT1":0,"xT2":1058.1,"yT2":0,"toosoon":0,"cond_shown":"equaldotsize","ratio_trial":750,"smaller_num":"6","larger_num":"8","correct_side":2,"subjID":"isabellsophiaosmagarcia","gender":"1","age":"10","school":"6"},{"start_time":1551892815650,"click_time":1551892816439,"finger_time":1551892816079,"fix_duration":250,"trial":36,"RT":429,"MT":360,"sideResp":2,"stimulus":"img/500/equaldotanddens/R/1_Ratio_500_L_9_R_18.png","xmouse":[791,791,791,791,791,791,791,791,791,791,791,791,791,791,791,791,791,791,792,800,806,814,825,836,877,920,944,965,986,1033,1047,1056,1062,1071,1091,1102,1107,1110,1110,1112],"ymouse":[657,657,657,657,657,657,657,657,657,657,657,657,657,657,657,642,634,628,619,596,581,569,553,534,482,433,404,377,347,282,266,250,235,215,176,156,140,129,119,97],"timestamp_mouse":[15,41,48,69,89,108,129,148,169,189,209,228,248,269,288,308,328,348,368,388,408,429,448,467,487,508,528,548,569,588,608,629,648,669,687,707,728,748,768,789],"xSR":741.5,"ySR":573.95,"xT1":424.9,"yT1":0,"xT2":1058.1,"yT2":0,"toosoon":0,"cond_shown":"equaldotanddens","ratio_trial":500,"smaller_num":"9","larger_num":"18","correct_side":2,"subjID":"isabellsophiaosmagarcia","gender":"1","age":"10","school":"6"},{"start_time":1551892817678,"click_time":1551892818498,"finger_time":1551892818158,"fix_duration":379.39588578054605,"trial":37,"RT":480,"MT":340,"sideResp":2,"stimulus":"img/900/randomdotsizeEA/L/8_Ratio_900_L_20_R_18.png","xmouse":[796,796,796,796,796,796,796,796,796,796,796,796,796,796,796,796,796,796,796,796,797,801,807,825,840,855,874,896,957,980,992,1000,1016,1041,1065,1077,1088,1096,1106,1109,1112,1115],"ymouse":[623,623,623,623,623,623,623,623,623,623,623,623,623,623,623,623,623,623,623,623,622,618,612,591,569,549,524,495,421,390,373,359,333,282,236,213,195,179,152,133,109,86],"timestamp_mouse":[8,20,40,60,80,100,121,140,160,180,201,220,240,260,280,300,320,340,360,380,400,421,440,459,480,500,520,541,560,580,600,619,641,660,681,700,721,740,760,780,800,820],"xSR":741.5,"ySR":573.95,"xT1":424.9,"yT1":0,"xT2":1058.1,"yT2":0,"toosoon":0,"cond_shown":"randomdotsizeEA","ratio_trial":900,"smaller_num":"18","larger_num":"20","correct_side":1,"subjID":"isabellsophiaosmagarcia","gender":"1","age":"10","school":"6"},{"start_time":1551892821494,"click_time":1551892822317,"finger_time":1551892822019,"fix_duration":574.0008230403743,"trial":38,"RT":525,"MT":298,"sideResp":2,"stimulus":"img/250/equaldotsize/R/4_Ratio_250_L_3_R_12.png","xmouse":[775,775,775,775,775,775,775,775,775,775,775,775,775,775,775,775,775,775,775,775,775,775,775,775,783,808,833,925,956,994,1022,1037,1057,1069,1073,1078,1080,1091,1097,1105,1120,1144],"ymouse":[617,617,617,617,617,617,617,617,617,617,617,617,617,617,617,617,617,617,617,617,617,617,617,617,607,576,549,432,390,331,294,272,235,214,204,196,190,169,156,139,103,41],"timestamp_mouse":[10,23,43,63,84,104,124,144,163,185,203,223,244,264,285,304,324,343,364,384,405,425,443,464,483,503,524,545,563,584,604,624,643,664,683,705,724,744,763,784,804,823],"xSR":741.5,"ySR":573.95,"xT1":424.9,"yT1":0,"xT2":1058.1,"yT2":0,"toosoon":0,"cond_shown":"equaldotsize","ratio_trial":250,"smaller_num":"3","larger_num":"12","correct_side":2,"subjID":"isabellsophiaosmagarcia","gender":"1","age":"10","school":"6"},{"start_time":1551892825571,"click_time":1551892826558,"finger_time":1551892826178,"fix_duration":890.8574747236172,"trial":39,"RT":607,"MT":380,"sideResp":1,"stimulus":"img/900/equaldotanddens/L/4_Ratio_900_L_20_R_18.png","xmouse":[800,800,800,800,800,800,800,800,800,800,800,800,800,800,800,800,800,800,800,800,800,800,800,800,800,800,800,800,800,779,749,712,659,537,495,464,441,428,406,395,392,391,391,394,405,408,409,410,421,447],"ymouse":[636,636,636,636,636,636,636,636,636,636,636,636,636,636,636,636,636,636,636,636,636,636,636,636,636,636,636,636,636,592,539,487,425,312,264,222,187,166,138,121,112,101,87,71,45,40,39,38,38,38],"timestamp_mouse":[19,47,47,68,86,107,127,146,166,186,206,226,246,267,287,306,326,347,366,388,407,427,447,467,486,506,528,547,566,586,607,628,647,666,686,706,726,747,766,787,806,826,847,866,887,906,927,948,966,987],"xSR":741.5,"ySR":573.95,"xT1":424.9,"yT1":0,"xT2":1058.1,"yT2":0,"toosoon":0,"cond_shown":"equaldotanddens","ratio_trial":900,"smaller_num":"18","larger_num":"20","correct_side":1,"subjID":"isabellsophiaosmagarcia","gender":"1","age":"10","school":"6"},{"start_time":1551892828919,"click_time":1551892830138,"finger_time":1551892829377,"fix_duration":1479.3914330371988,"trial":40,"RT":458,"MT":761,"sideResp":2,"stimulus":"img/250/equaldotsize/R/11_Ratio_250_L_3_R_12.png","xmouse":[761,761,761,761,761,761,761,761,761,761,761,761,761,761,761,761,761,761,761,761,761,761,765,812,851,930,1055,1084,1098,1100,1100,1093,1090,1087,1087,1087,1089,1089,1088,1088,1087,1087,1087,1088,1089,1089,1092,1093,1094,1094,1094,1095,1095,1096,1096,1096,1097,1097,1097,1097,1096,1094],"ymouse":[582,582,582,582,582,582,582,582,582,582,582,582,582,582,582,582,582,582,582,582,582,582,580,555,533,479,384,347,319,297,294,271,258,244,239,237,210,207,199,195,194,191,186,182,176,171,158,147,137,131,128,124,121,114,114,114,114,114,114,114,109,95],"timestamp_mouse":[1,20,40,60,78,99,120,139,159,179,200,219,239,258,279,298,318,338,359,380,399,418,438,458,479,500,518,538,558,579,600,618,638,658,678,698,718,738,759,780,800,819,840,858,878,898,918,938,958,979,999,1019,1038,1059,1079,1098,1119,1139,1159,1178,1199,1218],"xSR":741.5,"ySR":573.95,"xT1":424.9,"yT1":0,"xT2":1058.1,"yT2":0,"toosoon":0,"cond_shown":"equaldotsize","ratio_trial":250,"smaller_num":"3","larger_num":"12","correct_side":2,"subjID":"isabellsophiaosmagarcia","gender":"1","age":"10","school":"6"},{"start_time":1551892831584,"click_time":1551892832718,"finger_time":1551892832117,"fix_duration":444.0737103952093,"trial":41,"RT":533,"MT":601,"sideResp":1,"stimulus":"img/900/randomdotsizeEA/L/4_Ratio_900_L_20_R_18.png","xmouse":[782,782,782,782,782,782,782,782,782,782,782,782,782,782,782,782,782,782,782,782,784,785,793,802,806,811,813,813,808,803,786,784,765,727,700,681,663,663,657,656,652,647,628,597,570,552,541,530,530,528,519,507,493,490,490,490,490],"ymouse":[653,653,653,653,653,653,653,653,653,653,653,653,653,653,653,653,653,653,653,652,645,643,625,603,593,578,564,541,522,508,478,476,453,416,395,380,368,368,361,359,348,340,319,293,263,240,223,185,185,170,156,139,113,102,102,100,94],"timestamp_mouse":[15,36,53,75,94,113,135,154,174,195,214,234,253,274,293,313,335,354,373,393,413,434,454,474,494,514,533,553,575,593,615,633,653,673,693,713,734,754,774,794,813,834,853,873,894,914,933,954,975,993,1013,1033,1054,1073,1093,1113,1134],"xSR":741.5,"ySR":573.95,"xT1":424.9,"yT1":0,"xT2":1058.1,"yT2":0,"toosoon":0,"cond_shown":"randomdotsizeEA","ratio_trial":900,"smaller_num":"18","larger_num":"20","correct_side":1,"subjID":"isabellsophiaosmagarcia","gender":"1","age":"10","school":"6"},{"start_time":1551892834513,"click_time":1551892835778,"finger_time":1551892835057,"fix_duration":1013.2770729457266,"trial":42,"RT":544,"MT":721,"sideResp":2,"stimulus":"img/900/equaldotanddens/R/13_Ratio_900_L_18_R_20.png","xmouse":[776,776,776,776,776,776,776,776,776,776,776,776,776,776,776,776,776,776,776,776,776,776,776,776,777,778,803,825,827,848,866,894,902,916,920,924,935,940,954,975,1002,1063,1075,1076,1077,1078,1083,1086,1086,1086,1088,1088,1088,1089,1089,1090,1090,1091,1091,1091,1091,1091,1094,1095],"ymouse":[618,618,618,618,618,618,618,618,618,618,618,618,618,618,618,618,618,618,618,618,618,618,618,618,618,618,578,546,539,489,450,389,361,321,312,304,291,288,279,267,252,210,196,191,182,178,164,160,160,159,157,155,153,150,149,147,140,132,130,129,129,115,102,94],"timestamp_mouse":[10,40,46,64,85,106,126,145,165,185,204,224,246,264,284,306,324,345,365,384,405,424,446,466,485,505,524,544,565,584,605,625,645,664,686,705,725,744,764,785,805,825,844,864,885,904,924,945,965,985,1006,1024,1044,1065,1085,1106,1125,1145,1165,1185,1206,1225,1245,1264],"xSR":741.5,"ySR":573.95,"xT1":424.9,"yT1":0,"xT2":1058.1,"yT2":0,"toosoon":0,"cond_shown":"equaldotanddens","ratio_trial":900,"smaller_num":"18","larger_num":"20","correct_side":2,"subjID":"isabellsophiaosmagarcia","gender":"1","age":"10","school":"6"},{"start_time":1551892838595,"click_time":1551892839538,"finger_time":1551892839158,"fix_duration":635.2985595962726,"trial":43,"RT":563,"MT":380,"sideResp":1,"stimulus":"img/500/randomdotsizeEA/L/10_Ratio_500_L_4_R_2.png","xmouse":[795,795,795,795,795,795,795,795,795,795,795,795,795,795,795,795,795,795,795,795,795,795,795,795,795,795,795,783,749,734,680,657,571,513,468,419,396,385,388,400,409,422,453,466,473,486,500,523],"ymouse":[615,615,615,615,615,615,615,615,615,615,615,615,615,615,615,615,615,615,615,615,615,615,615,615,615,615,615,599,565,549,477,450,364,310,270,229,206,186,181,173,170,166,155,149,145,137,123,91],"timestamp_mouse":[9,22,42,62,84,103,124,143,162,183,202,223,243,264,283,302,324,343,362,382,402,422,443,462,484,503,522,542,563,582,603,623,642,662,682,703,723,742,762,782,803,823,843,863,882,903,923,942],"xSR":741.5,"ySR":573.95,"xT1":424.9,"yT1":0,"xT2":1058.1,"yT2":0,"toosoon":0,"cond_shown":"randomdotsizeEA","ratio_trial":500,"smaller_num":"2","larger_num":"4","correct_side":1,"subjID":"isabellsophiaosmagarcia","gender":"1","age":"10","school":"6"},{"start_time":1551892841130,"click_time":1551892841719,"finger_time":1551892841537,"fix_duration":250,"trial":44,"RT":407,"MT":182,"sideResp":2,"stimulus":"img/900/randomdotsizeEA/L/1_Ratio_900_L_10_R_9.png","xmouse":[780,780,780,780,780,780,780,780,780,780,780,780,780,780,780,780,783,788,798,813,876,932,956,980,998,1020,1034,1059,1081,1103],"ymouse":[616,616,616,616,616,616,616,616,616,616,616,616,616,616,616,614,609,603,593,578,506,440,408,363,322,256,224,167,128,90],"timestamp_mouse":[10,40,47,68,88,107,127,148,167,187,209,228,247,269,288,307,327,348,368,388,407,427,448,467,488,507,527,547,568,589],"xSR":741.5,"ySR":573.95,"xT1":424.9,"yT1":0,"xT2":1058.1,"yT2":0,"toosoon":0,"cond_shown":"randomdotsizeEA","ratio_trial":900,"smaller_num":"9","larger_num":"10","correct_side":1,"subjID":"isabellsophiaosmagarcia","gender":"1","age":"10","school":"6"},{"start_time":1551892845510,"click_time":1551892846057,"finger_time":1551892845838,"fix_duration":1410.794814886044,"trial":45,"RT":328,"MT":219,"sideResp":1,"stimulus":"img/750/randomdotsizeEA/R/4_Ratio_750_L_15_R_20.png","xmouse":[789,789,789,789,789,789,789,789,789,789,789,789,789,789,788,777,736,712,690,675,665,646,638,614,595,573,550,509],"ymouse":[626,626,626,626,626,626,626,626,626,626,626,626,626,626,623,599,533,499,471,447,423,370,336,271,228,191,157,97],"timestamp_mouse":[10,31,48,68,88,107,128,148,167,187,208,227,247,269,287,307,328,347,367,388,407,427,449,467,488,508,527,547],"xSR":741.5,"ySR":573.95,"xT1":424.9,"yT1":0,"xT2":1058.1,"yT2":0,"toosoon":0,"cond_shown":"randomdotsizeEA","ratio_trial":750,"smaller_num":"15","larger_num":"20","correct_side":2,"subjID":"isabellsophiaosmagarcia","gender":"1","age":"10","school":"6"},{"start_time":1551892847029,"click_time":1551892847997,"finger_time":1551892847637,"fix_duration":250,"trial":46,"RT":608,"MT":360,"sideResp":2,"stimulus":"img/900/randomdotsizeEA/R/12_Ratio_900_L_18_R_20.png","xmouse":[803,803,803,803,803,803,803,803,803,803,803,803,803,803,803,803,803,803,803,803,803,803,803,803,803,803,803,807,815,825,843,893,899,916,932,947,953,953,957,962,971,979,982,984,989,1016,1049,1071,1085],"ymouse":[628,628,628,628,628,628,628,628,628,628,628,628,628,628,628,628,628,628,628,628,628,628,628,628,628,628,628,623,611,594,566,480,467,419,367,315,295,295,281,266,241,227,216,212,204,172,134,101,76],"timestamp_mouse":[14,45,49,69,88,110,129,149,169,189,208,228,250,268,288,309,329,349,369,388,408,428,449,469,490,508,528,549,568,588,608,628,648,668,690,708,729,748,770,789,808,828,849,868,889,908,928,948,968],"xSR":741.5,"ySR":573.95,"xT1":424.9,"yT1":0,"xT2":1058.1,"yT2":0,"toosoon":0,"cond_shown":"randomdotsizeEA","ratio_trial":900,"smaller_num":"18","larger_num":"20","correct_side":2,"subjID":"isabellsophiaosmagarcia","gender":"1","age":"10","school":"6"},{"start_time":1551892849109,"click_time":1551892850038,"finger_time":1551892849578,"fix_duration":250,"trial":47,"RT":469,"MT":460,"sideResp":2,"stimulus":"img/500/equaldotsize/R/9_Ratio_500_L_2_R_4.png","xmouse":[800,800,800,800,800,800,800,800,800,800,800,800,800,800,800,800,800,800,800,800,803,818,835,850,862,871,874,881,889,903,919,985,1014,1039,1050,1060,1066,1067,1069,1070,1071,1073,1073,1073,1073,1075,1080],"ymouse":[606,606,606,606,606,606,606,606,606,606,606,606,606,606,606,606,606,606,606,606,604,594,574,554,536,519,510,500,483,459,437,336,285,228,207,182,161,155,143,133,126,110,107,106,105,101,96],"timestamp_mouse":[10,29,48,69,88,108,128,149,168,189,210,228,249,270,290,309,330,348,369,389,410,428,448,469,488,508,528,548,569,589,610,629,649,668,689,709,728,748,768,789,809,828,849,869,889,909,929],"xSR":741.5,"ySR":573.95,"xT1":424.9,"yT1":0,"xT2":1058.1,"yT2":0,"toosoon":0,"cond_shown":"equaldotsize","ratio_trial":500,"smaller_num":"2","larger_num":"4","correct_side":2,"subjID":"isabellsophiaosmagarcia","gender":"1","age":"10","school":"6"},{"start_time":1551892851983,"click_time":1551892852758,"finger_time":1551892852559,"fix_duration":1044.3101272407932,"trial":48,"RT":576,"MT":199,"sideResp":2,"stimulus":"img/500/equaldotsize/R/15_Ratio_500_L_1_R_2.png","xmouse":[795,795,795,795,795,795,795,795,795,795,795,795,795,795,795,795,795,795,795,795,795,795,795,795,795,795,800,840,852,901,923,942,981,996,1012,1018,1027,1045,1060],"ymouse":[623,623,623,623,623,623,623,623,623,623,623,623,623,623,623,623,623,623,623,623,623,623,623,623,623,623,621,588,574,511,475,440,312,253,195,176,150,101,59],"timestamp_mouse":[20,47,54,75,95,115,135,156,174,195,214,235,254,275,294,314,334,356,374,394,415,435,456,474,495,516,534,555,575,594,614,634,654,674,694,715,735,754,775],"xSR":741.5,"ySR":573.95,"xT1":424.9,"yT1":0,"xT2":1058.1,"yT2":0,"toosoon":0,"cond_shown":"equaldotsize","ratio_trial":500,"smaller_num":"1","larger_num":"2","correct_side":2,"subjID":"isabellsophiaosmagarcia","gender":"1","age":"10","school":"6"},{"start_time":1551892853883,"click_time":1551892854557,"finger_time":1551892854298,"fix_duration":262.30547793844596,"trial":49,"RT":415,"MT":259,"sideResp":1,"stimulus":"img/750/randomdotsizeEA/L/8_Ratio_750_L_4_R_3.png","xmouse":[802,802,802,802,802,802,802,802,802,802,802,802,802,802,802,802,802,812,824,835,841,844,846,846,841,825,799,699,654,613,574,542,494,476],"ymouse":[620,620,620,620,620,620,620,620,620,620,620,620,620,620,620,620,620,606,593,580,572,566,557,551,534,515,491,423,392,361,323,272,124,52],"timestamp_mouse":[15,34,55,74,96,115,135,154,174,195,214,236,255,274,296,314,335,354,375,396,415,435,455,475,494,515,534,554,575,595,615,636,655,674],"xSR":741.5,"ySR":573.95,"xT1":424.9,"yT1":0,"xT2":1058.1,"yT2":0,"toosoon":0,"cond_shown":"randomdotsizeEA","ratio_trial":750,"smaller_num":"3","larger_num":"4","correct_side":1,"subjID":"isabellsophiaosmagarcia","gender":"1","age":"10","school":"6"},{"start_time":1551892858334,"click_time":1551892859177,"finger_time":1551892858937,"fix_duration":1454.4376327729583,"trial":50,"RT":603,"MT":240,"sideResp":1,"stimulus":"img/500/equaldotsize/L/7_Ratio_500_L_10_R_5.png","xmouse":[799,799,799,799,799,799,799,799,799,799,799,799,799,799,799,799,799,799,799,799,799,799,803,812,819,820,820,818,804,748,685,645,614,585,563,561,561,561,559,538,519,496],"ymouse":[646,646,646,646,646,646,646,646,646,646,646,646,646,646,646,646,646,646,646,646,646,646,637,625,614,612,609,603,591,557,514,482,444,387,306,277,247,217,191,136,102,64],"timestamp_mouse":[21,53,63,84,105,124,143,165,184,203,224,245,263,284,305,324,344,364,383,404,425,444,464,484,503,524,543,563,585,603,625,643,664,683,703,723,744,763,783,803,823,843],"xSR":741.5,"ySR":573.95,"xT1":424.9,"yT1":0,"xT2":1058.1,"yT2":0,"toosoon":0,"cond_shown":"equaldotsize","ratio_trial":500,"smaller_num":"5","larger_num":"10","correct_side":1,"subjID":"isabellsophiaosmagarcia","gender":"1","age":"10","school":"6"},{"start_time":1551892862198,"click_time":1551892863199,"finger_time":1551892862737,"fix_duration":738.309331042827,"trial":51,"RT":539,"MT":462,"sideResp":2,"stimulus":"img/750/equaldotanddens/R/7_Ratio_750_L_3_R_4.png","xmouse":[792,792,792,792,792,792,792,792,792,792,792,792,792,792,792,792,792,792,787,783,780,779,779,779,780,787,818,853,869,870,873,896,908,920,929,937,951,961,967,974,984,1011,1023,1034,1046,1061,1093,1117,1128,1137],"ymouse":[633,633,633,633,633,633,633,633,633,633,633,633,633,633,633,633,633,633,626,622,617,615,615,611,608,598,557,505,476,474,466,408,379,352,333,315,285,267,256,245,232,206,194,185,174,163,139,119,106,94],"timestamp_mouse":[19,39,60,81,99,119,139,160,180,201,219,240,261,279,300,320,340,361,379,399,421,439,459,480,500,520,539,560,579,599,619,639,660,679,699,721,739,759,779,800,819,839,860,879,899,921,939,959,979,1001],"xSR":741.5,"ySR":573.95,"xT1":424.9,"yT1":0,"xT2":1058.1,"yT2":0,"toosoon":0,"cond_shown":"equaldotanddens","ratio_trial":750,"smaller_num":"3","larger_num":"4","correct_side":2,"subjID":"isabellsophiaosmagarcia","gender":"1","age":"10","school":"6"},{"start_time":1551892865249,"click_time":1551892865999,"finger_time":1551892865637,"fix_duration":1370.7221939999085,"trial":52,"RT":388,"MT":362,"sideResp":1,"stimulus":"img/750/equaldotsize/L/1_Ratio_750_L_20_R_15.png","xmouse":[786,786,786,786,786,786,786,786,786,786,786,786,786,786,785,785,785,785,779,756,715,647,578,452,428,425,423,423,428,430,430,425,420,416,419,424,429],"ymouse":[614,614,614,614,614,614,614,614,614,614,614,614,614,614,613,611,598,585,568,536,493,434,377,287,269,258,244,229,192,171,150,129,111,83,68,61,54],"timestamp_mouse":[8,51,69,89,108,128,149,170,189,209,230,248,270,289,308,328,349,370,388,408,429,449,469,488,509,529,548,568,588,608,628,648,670,688,708,728,749],"xSR":741.5,"ySR":573.95,"xT1":424.9,"yT1":0,"xT2":1058.1,"yT2":0,"toosoon":0,"cond_shown":"equaldotsize","ratio_trial":750,"smaller_num":"15","larger_num":"20","correct_side":1,"subjID":"isabellsophiaosmagarcia","gender":"1","age":"10","school":"6"},{"start_time":1551892867703,"click_time":1551892868519,"finger_time":1551892868098,"fix_duration":1124.8491090442242,"trial":53,"RT":395,"MT":421,"sideResp":2,"stimulus":"img/500/randomdotsizeEA/R/15_Ratio_500_L_1_R_2.png","xmouse":[795,795,795,795,795,795,797,797,798,798,800,805,808,814,817,820,825,830,840,851,863,880,897,912,931,947,961,977,988,1000,1011,1023,1028,1034,1037,1038,1041,1046,1051,1058,1066],"ymouse":[644,644,644,644,641,639,638,637,636,636,633,628,623,615,611,605,596,589,575,559,543,515,487,464,430,403,377,340,313,279,245,213,195,171,162,158,145,135,123,109,96],"timestamp_mouse":[16,35,54,75,94,115,136,155,175,194,214,235,255,275,295,315,334,354,375,395,414,434,454,475,496,515,534,554,575,595,615,634,656,675,694,714,734,754,774,796,816],"xSR":741.5,"ySR":573.95,"xT1":424.9,"yT1":0,"xT2":1058.1,"yT2":0,"toosoon":0,"cond_shown":"randomdotsizeEA","ratio_trial":500,"smaller_num":"1","larger_num":"2","correct_side":2,"subjID":"isabellsophiaosmagarcia","gender":"1","age":"10","school":"6"},{"start_time":1551892871049,"click_time":1551892872178,"finger_time":1551892871498,"fix_duration":250,"trial":54,"RT":449,"MT":680,"sideResp":1,"stimulus":"img/500/equaldotanddens/L/7_Ratio_500_L_10_R_5.png","xmouse":[795,795,795,795,795,795,795,795,795,795,795,795,795,795,795,795,795,795,790,780,766,742,710,639,628,599,589,580,572,570,568,565,563,557,554,547,543,541,539,537,536,534,534,534,532,528,526,524,523,521,519,517,517,508,500,490],"ymouse":[633,633,633,633,633,633,633,633,633,633,633,633,633,633,633,633,633,633,620,603,582,550,516,434,422,387,373,360,348,343,336,330,324,312,305,293,284,276,261,250,234,215,192,147,142,129,124,122,120,118,117,115,115,109,100,86],"timestamp_mouse":[10,49,68,90,110,128,149,170,189,210,228,248,268,290,309,329,349,368,388,408,428,449,470,489,508,528,549,569,588,608,628,648,670,688,709,728,750,769,788,809,829,848,869,889,908,928,948,968,988,1009,1028,1048,1070,1089,1108,1129],"xSR":741.5,"ySR":573.95,"xT1":424.9,"yT1":0,"xT2":1058.1,"yT2":0,"toosoon":0,"cond_shown":"equaldotanddens","ratio_trial":500,"smaller_num":"5","larger_num":"10","correct_side":1,"subjID":"isabellsophiaosmagarcia","gender":"1","age":"10","school":"6"},{"start_time":1551892874140,"click_time":1551892875137,"finger_time":1551892874518,"fix_duration":800.9136180244262,"trial":55,"RT":378,"MT":619,"sideResp":1,"stimulus":"img/750/equaldotanddens/L/1_Ratio_750_L_20_R_15.png","xmouse":[795,795,795,795,795,795,795,795,795,795,795,795,795,795,795,795,798,806,814,825,831,836,839,839,839,836,836,836,838,856,870,894,908,924,958,971,976,979,980,980,978,957,905,821,645,566,512,490,477,457],"ymouse":[605,605,605,605,605,605,605,605,605,605,605,605,605,605,605,605,593,575,560,536,523,505,495,487,482,471,466,458,443,392,362,328,307,284,230,211,203,199,197,196,195,192,184,173,149,136,122,112,106,95],"timestamp_mouse":[32,39,57,79,97,118,138,158,177,198,217,238,259,277,298,318,337,357,378,398,419,437,457,477,497,517,537,558,579,597,618,637,658,678,698,717,737,757,778,798,819,838,857,877,897,918,937,959,978,997],"xSR":741.5,"ySR":573.95,"xT1":424.9,"yT1":0,"xT2":1058.1,"yT2":0,"toosoon":0,"cond_shown":"equaldotanddens","ratio_trial":750,"smaller_num":"15","larger_num":"20","correct_side":1,"subjID":"isabellsophiaosmagarcia","gender":"1","age":"10","school":"6"},{"start_time":1551892877136,"click_time":1551892878017,"finger_time":1551892877537,"fix_duration":1136.443273152156,"trial":56,"RT":401,"MT":480,"sideResp":1,"stimulus":"img/500/equaldotanddens/L/8_Ratio_500_L_8_R_4.png","xmouse":[777,777,777,777,777,777,777,777,777,777,777,777,777,777,777,777,777,777,777,773,752,724,715,685,665,653,630,614,599,592,565,558,552,548,545,538,531,530,527,519,500,491,485,481,478],"ymouse":[625,625,625,625,625,625,625,625,625,625,625,625,625,625,625,625,625,625,615,601,573,541,531,489,459,439,397,373,352,342,284,261,235,221,210,183,167,164,161,149,123,111,106,103,99],"timestamp_mouse":[9,38,42,61,81,102,123,141,162,183,202,222,241,262,281,302,322,342,362,381,401,421,442,462,482,501,521,542,561,582,602,621,641,661,681,701,721,742,761,781,801,822,841,861,881],"xSR":741.5,"ySR":573.95,"xT1":424.9,"yT1":0,"xT2":1058.1,"yT2":0,"toosoon":0,"cond_shown":"equaldotanddens","ratio_trial":500,"smaller_num":"4","larger_num":"8","correct_side":1,"subjID":"isabellsophiaosmagarcia","gender":"1","age":"10","school":"6"},{"start_time":1551892879976,"click_time":1551892880638,"finger_time":1551892880338,"fix_duration":1317.5605528196309,"trial":57,"RT":362,"MT":300,"sideResp":1,"stimulus":"img/500/equaldotanddens/L/11_Ratio_500_L_12_R_6.png","xmouse":[807,807,807,807,807,807,807,807,807,807,807,807,807,807,807,805,798,784,727,698,664,649,641,638,638,638,637,634,609,569,541,514,486,443],"ymouse":[642,642,642,642,642,642,642,642,642,642,642,642,642,642,642,631,623,603,538,507,464,439,413,381,374,365,355,339,279,217,178,137,110,69],"timestamp_mouse":[11,21,42,61,82,101,121,142,161,183,201,222,242,261,282,301,321,341,362,381,401,421,442,462,482,502,521,541,561,582,601,622,642,661],"xSR":741.5,"ySR":573.95,"xT1":424.9,"yT1":0,"xT2":1058.1,"yT2":0,"toosoon":0,"cond_shown":"equaldotanddens","ratio_trial":500,"smaller_num":"6","larger_num":"12","correct_side":1,"subjID":"isabellsophiaosmagarcia","gender":"1","age":"10","school":"6"},{"start_time":1551892883823,"click_time":1551892884736,"finger_time":1551892884357,"fix_duration":1025.8274321980161,"trial":58,"RT":534,"MT":379,"sideResp":1,"stimulus":"img/900/equaldotsize/L/10_Ratio_900_L_20_R_18.png","xmouse":[788,788,788,788,788,788,788,788,788,788,788,788,788,788,788,788,788,788,788,788,788,788,788,788,788,779,730,710,634,578,525,509,498,492,489,485,480,473,468,468,468,469,470,472,473,474],"ymouse":[631,631,631,631,631,631,631,631,631,631,631,631,631,631,631,631,631,631,631,631,631,631,631,631,631,624,581,564,500,444,342,295,257,239,226,200,183,163,144,139,133,130,125,117,110,95],"timestamp_mouse":[14,38,53,74,93,113,134,154,173,193,214,233,253,273,293,313,333,353,373,395,413,435,453,473,494,513,534,553,574,593,613,633,655,673,693,713,734,753,773,793,813,833,854,874,893,913],"xSR":741.5,"ySR":573.95,"xT1":424.9,"yT1":0,"xT2":1058.1,"yT2":0,"toosoon":0,"cond_shown":"equaldotsize","ratio_trial":900,"smaller_num":"18","larger_num":"20","correct_side":1,"subjID":"isabellsophiaosmagarcia","gender":"1","age":"10","school":"6"},{"start_time":1551892886499,"click_time":1551892887276,"finger_time":1551892886956,"fix_duration":1119.8404261032465,"trial":59,"RT":457,"MT":320,"sideResp":1,"stimulus":"img/250/equaldotsize/L/15_Ratio_250_L_12_R_3.png","xmouse":[811,811,811,811,811,811,811,811,811,811,811,811,811,811,811,811,811,811,811,810,810,780,758,727,693,679,662,650,634,612,591,547,517,502,491,487,476,465,452],"ymouse":[633,633,633,633,633,633,633,633,633,633,633,633,633,633,633,633,633,633,633,633,630,597,573,540,493,465,408,360,313,252,217,170,146,133,125,121,111,101,88],"timestamp_mouse":[18,38,57,79,97,118,137,157,178,199,217,237,257,278,297,318,337,358,377,397,417,437,457,477,497,517,537,557,577,598,617,637,657,677,698,717,737,757,777],"xSR":741.5,"ySR":573.95,"xT1":424.9,"yT1":0,"xT2":1058.1,"yT2":0,"toosoon":0,"cond_shown":"equaldotsize","ratio_trial":250,"smaller_num":"3","larger_num":"12","correct_side":1,"subjID":"isabellsophiaosmagarcia","gender":"1","age":"10","school":"6"},{"start_time":1551892888777,"click_time":1551892889676,"finger_time":1551892889216,"fix_duration":679.8667414396357,"trial":60,"RT":439,"MT":460,"sideResp":2,"stimulus":"img/250/equaldotanddens/R/13_Ratio_250_L_2_R_8.png","xmouse":[788,788,785,785,785,785,785,785,785,785,785,785,785,785,785,785,785,785,785,785,798,810,831,849,872,896,919,963,974,981,994,999,1011,1015,1015,1018,1023,1030,1035,1043,1048,1053,1068,1073,1077],"ymouse":[633,633,633,633,633,633,633,633,633,633,633,633,633,633,633,633,633,633,618,612,587,569,534,504,464,424,377,293,276,263,237,227,199,193,193,187,177,166,160,150,143,135,114,103,92],"timestamp_mouse":[19,53,59,79,101,119,140,160,179,199,220,240,259,279,299,320,340,359,381,399,419,439,460,479,500,519,539,559,579,599,619,640,661,680,699,720,740,759,780,799,819,840,859,879,899],"xSR":741.5,"ySR":573.95,"xT1":424.9,"yT1":0,"xT2":1058.1,"yT2":0,"toosoon":0,"cond_shown":"equaldotanddens","ratio_trial":250,"smaller_num":"2","larger_num":"8","correct_side":2,"subjID":"isabellsophiaosmagarcia","gender":"1","age":"10","school":"6"},{"start_time":1551892891496,"click_time":1551892892396,"finger_time":1551892891916,"fix_duration":798.2120386821908,"trial":61,"RT":420,"MT":480,"sideResp":2,"stimulus":"img/250/equaldotanddens/R/9_Ratio_250_L_3_R_12.png","xmouse":[773,773,773,773,773,773,773,773,773,773,773,773,773,773,773,773,775,789,801,815,835,858,946,1003,1050,1100,1137,1167,1188,1200,1207,1211,1213,1213,1212,1209,1203,1193,1182,1172,1161,1151,1148,1148,1148,1149],"ymouse":[608,608,608,608,608,608,608,608,608,608,608,608,608,608,608,609,609,608,602,594,583,567,509,473,439,399,366,320,279,254,230,212,199,189,180,174,166,160,155,149,140,132,121,112,104,96],"timestamp_mouse":[8,21,40,60,80,100,120,140,160,180,200,221,240,262,281,301,321,340,360,380,401,420,440,460,481,500,521,540,560,581,601,620,640,660,680,701,720,741,760,780,800,820,840,861,880,900],"xSR":741.5,"ySR":573.95,"xT1":424.9,"yT1":0,"xT2":1058.1,"yT2":0,"toosoon":0,"cond_shown":"equaldotanddens","ratio_trial":250,"smaller_num":"3","larger_num":"12","correct_side":2,"subjID":"isabellsophiaosmagarcia","gender":"1","age":"10","school":"6"},{"start_time":1551892893889,"click_time":1551892894477,"finger_time":1551892894336,"fix_duration":612.1046982876024,"trial":62,"RT":447,"MT":141,"sideResp":1,"stimulus":"img/250/randomdotsizeEA/L/2_Ratio_250_L_16_R_4.png","xmouse":[784,784,784,784,784,784,784,784,784,784,784,784,781,779,778,777,776,776,775,773,770,765,742,724,701,669,649,580,529,497],"ymouse":[654,654,654,654,654,654,654,654,654,654,654,652,646,641,638,632,628,622,620,616,610,599,559,521,469,381,318,164,76,23],"timestamp_mouse":[10,46,48,67,87,107,128,148,167,188,207,228,247,267,287,307,327,347,367,388,407,428,447,468,487,507,528,547,567,587],"xSR":741.5,"ySR":573.95,"xT1":424.9,"yT1":0,"xT2":1058.1,"yT2":0,"toosoon":0,"cond_shown":"randomdotsizeEA","ratio_trial":250,"smaller_num":"4","larger_num":"16","correct_side":1,"subjID":"isabellsophiaosmagarcia","gender":"1","age":"10","school":"6"},{"start_time":1551892896965,"click_time":1551892897836,"finger_time":1551892897416,"fix_duration":265.6918928594358,"trial":63,"RT":451,"MT":420,"sideResp":2,"stimulus":"img/900/equaldotanddens/L/4_Ratio_900_L_20_R_18.png","xmouse":[785,785,785,785,785,785,785,785,785,785,785,785,785,785,785,785,785,785,785,785,785,793,808,848,872,889,910,929,960,979,987,991,996,1001,1006,1011,1016,1022,1035,1041,1043,1045,1050,1066],"ymouse":[607,607,607,607,607,607,607,607,607,607,607,607,607,607,607,607,607,607,607,607,607,594,567,498,464,437,400,357,286,248,230,215,199,174,159,147,136,123,101,89,87,85,82,77],"timestamp_mouse":[12,35,52,72,92,113,132,152,171,192,213,231,252,271,292,311,332,351,371,392,411,432,451,471,491,511,531,552,571,591,611,632,653,671,691,711,732,751,771,791,811,832,852,871],"xSR":741.5,"ySR":573.95,"xT1":424.9,"yT1":0,"xT2":1058.1,"yT2":0,"toosoon":0,"cond_shown":"equaldotanddens","ratio_trial":900,"smaller_num":"18","larger_num":"20","correct_side":1,"subjID":"isabellsophiaosmagarcia","gender":"1","age":"10","school":"6"},{"start_time":1551892900336,"click_time":1551892901337,"finger_time":1551892900776,"fix_duration":1478.1981711466526,"trial":64,"RT":440,"MT":561,"sideResp":2,"stimulus":"img/250/randomdotsizeEA/R/4_Ratio_250_L_3_R_12.png","xmouse":[801,801,801,801,801,801,801,801,801,801,801,801,801,801,801,801,801,801,801,811,831,840,855,860,867,871,874,878,879,896,908,919,935,952,984,1000,1017,1027,1032,1045,1052,1056,1061,1066,1072,1085,1092,1101,1105,1109],"ymouse":[642,642,642,642,642,642,642,642,642,642,642,642,642,642,642,642,642,642,637,610,581,565,542,532,518,510,501,494,492,449,423,396,363,334,283,257,232,219,211,186,168,157,149,142,134,122,116,109,105,98],"timestamp_mouse":[11,50,61,81,101,120,140,160,180,200,221,240,262,281,301,320,341,360,381,400,420,440,461,482,500,520,542,560,580,601,620,640,661,680,700,720,741,760,780,800,820,840,860,881,900,920,940,960,980,1001],"xSR":741.5,"ySR":573.95,"xT1":424.9,"yT1":0,"xT2":1058.1,"yT2":0,"toosoon":0,"cond_shown":"randomdotsizeEA","ratio_trial":250,"smaller_num":"3","larger_num":"12","correct_side":2,"subjID":"isabellsophiaosmagarcia","gender":"1","age":"10","school":"6"},{"start_time":1551892903748,"click_time":1551892904477,"finger_time":1551892904156,"fix_duration":1410.530113830758,"trial":65,"RT":408,"MT":321,"sideResp":2,"stimulus":"img/500/equaldotsize/R/14_Ratio_500_L_5_R_10.png","xmouse":[771,771,771,771,771,771,771,771,771,771,771,771,771,771,771,771,771,774,779,784,819,857,891,903,942,955,971,986,996,1016,1023,1027,1032,1036,1048,1054,1060],"ymouse":[616,616,616,616,616,616,616,616,616,616,616,616,616,616,616,616,616,615,610,607,572,523,467,446,352,323,271,227,194,146,123,111,100,91,74,65,59],"timestamp_mouse":[9,38,50,69,89,108,128,148,168,190,209,228,249,268,288,310,328,348,368,388,408,428,448,469,488,508,528,549,570,588,608,628,649,669,688,708,728],"xSR":741.5,"ySR":573.95,"xT1":424.9,"yT1":0,"xT2":1058.1,"yT2":0,"toosoon":0,"cond_shown":"equaldotsize","ratio_trial":500,"smaller_num":"5","larger_num":"10","correct_side":2,"subjID":"isabellsophiaosmagarcia","gender":"1","age":"10","school":"6"},{"start_time":1551892906105,"click_time":1551892906736,"finger_time":1551892906617,"fix_duration":747.0038743960886,"trial":66,"RT":512,"MT":119,"sideResp":1,"stimulus":"img/250/randomdotsizeEA/L/7_Ratio_250_L_8_R_2.png","xmouse":[812,812,812,812,812,812,812,812,812,812,812,812,813,813,813,813,813,813,813,813,813,810,801,791,781,766,714,671,604,556,506,439],"ymouse":[653,653,653,653,653,653,653,653,653,653,653,653,652,652,652,652,646,641,636,630,628,618,607,597,585,561,468,403,323,252,181,67],"timestamp_mouse":[14,43,51,72,91,111,132,151,172,191,211,231,251,271,291,311,331,351,372,391,411,431,451,471,491,512,531,551,572,592,611,631],"xSR":741.5,"ySR":573.95,"xT1":424.9,"yT1":0,"xT2":1058.1,"yT2":0,"toosoon":0,"cond_shown":"randomdotsizeEA","ratio_trial":250,"smaller_num":"2","larger_num":"8","correct_side":1,"subjID":"isabellsophiaosmagarcia","gender":"1","age":"10","school":"6"},{"start_time":1551892909178,"click_time":1551892910336,"finger_time":1551892909636,"fix_duration":1479.0562764476845,"trial":67,"RT":458,"MT":700,"sideResp":2,"stimulus":"img/900/equaldotsize/L/8_Ratio_900_L_20_R_18.png","xmouse":[781,781,781,781,781,781,781,781,781,781,781,781,781,781,781,781,781,781,781,782,799,819,835,848,852,856,861,864,882,889,897,907,921,951,964,973,980,985,994,999,1004,1007,1009,1011,1015,1018,1020,1021,1024,1025,1026,1026,1026,1027,1034,1041,1048,1056,1067],"ymouse":[649,649,649,649,649,649,649,649,649,649,649,649,649,649,649,649,649,649,649,650,629,607,589,570,562,555,541,520,393,347,315,284,244,187,159,134,114,95,61,47,35,28,26,23,22,22,22,22,22,22,22,22,22,22,25,29,31,35,39],"timestamp_mouse":[1,18,39,58,78,98,119,138,159,179,198,219,238,258,279,298,319,338,360,379,398,418,438,458,478,498,518,538,559,579,598,619,638,658,678,698,718,739,758,778,799,818,838,858,878,899,918,939,958,979,999,1018,1038,1058,1078,1099,1118,1140,1158],"xSR":741.5,"ySR":573.95,"xT1":424.9,"yT1":0,"xT2":1058.1,"yT2":0,"toosoon":0,"cond_shown":"equaldotsize","ratio_trial":900,"smaller_num":"18","larger_num":"20","correct_side":1,"subjID":"isabellsophiaosmagarcia","gender":"1","age":"10","school":"6"},{"start_time":1551892911805,"click_time":1551892912816,"finger_time":1551892912157,"fix_duration":506.95143300309064,"trial":68,"RT":352,"MT":659,"sideResp":2,"stimulus":"img/750/equaldotanddens/R/2_Ratio_750_L_6_R_8.png","xmouse":[784,784,784,784,784,784,784,784,784,784,784,784,784,784,784,792,820,842,845,847,847,847,847,847,851,857,888,926,968,1014,1055,1120,1157,1182,1203,1219,1239,1241,1239,1230,1220,1208,1205,1203,1199,1196,1193,1175,1163,1159,1158],"ymouse":[619,619,619,619,619,619,619,619,619,619,619,619,619,619,619,619,612,606,603,601,596,589,587,586,581,577,563,546,523,493,459,374,313,259,203,148,70,27,6,0,0,0,0,0,0,0,0,12,23,28,31],"timestamp_mouse":[14,44,52,72,92,112,133,153,171,191,212,232,252,272,291,312,331,352,371,392,412,431,451,471,491,512,531,551,571,591,612,631,651,673,692,712,731,751,772,791,812,831,851,872,892,912,931,951,971,991,1011],"xSR":741.5,"ySR":573.95,"xT1":424.9,"yT1":0,"xT2":1058.1,"yT2":0,"toosoon":0,"cond_shown":"equaldotanddens","ratio_trial":750,"smaller_num":"6","larger_num":"8","correct_side":2,"subjID":"isabellsophiaosmagarcia","gender":"1","age":"10","school":"6"},{"start_time":1551892914561,"click_time":1551892915436,"finger_time":1551892914936,"fix_duration":404.24464881320176,"trial":69,"RT":375,"MT":500,"sideResp":2,"stimulus":"img/500/equaldotsize/R/3_Ratio_500_L_10_R_20.png","xmouse":[767,767,767,767,767,767,767,767,767,767,767,767,767,767,767,767,767,767,762,759,756,754,753,753,754,759,771,787,843,912,955,987,1015,1063,1075,1082,1085,1086,1089,1092,1096,1101,1104,1110],"ymouse":[595,595,595,595,595,595,595,595,595,595,595,595,595,595,595,595,595,592,557,547,536,529,524,516,511,507,497,488,456,407,368,335,298,229,210,196,191,187,178,169,161,149,134,99],"timestamp_mouse":[17,39,55,75,95,115,136,155,175,195,215,237,255,276,295,316,335,355,375,396,415,436,455,475,495,515,536,555,575,595,615,635,655,675,695,716,735,755,775,795,815,836,855,875],"xSR":741.5,"ySR":573.95,"xT1":424.9,"yT1":0,"xT2":1058.1,"yT2":0,"toosoon":0,"cond_shown":"equaldotsize","ratio_trial":500,"smaller_num":"10","larger_num":"20","correct_side":2,"subjID":"isabellsophiaosmagarcia","gender":"1","age":"10","school":"6"},{"start_time":1551892918599,"click_time":1551892919416,"finger_time":1551892919217,"fix_duration":881.2396875514368,"trial":70,"RT":618,"MT":199,"sideResp":2,"stimulus":"img/900/equaldotsize/L/8_Ratio_900_L_20_R_18.png","xmouse":[803,803,803,803,803,803,803,803,803,803,803,803,803,803,803,803,803,803,803,803,803,803,803,803,803,803,803,806,809,814,825,861,881,899,921,958,1030,1053,1071,1082,1091],"ymouse":[593,593,593,593,593,593,593,593,593,593,593,593,593,593,593,593,593,593,593,593,593,593,593,593,593,593,590,586,582,575,562,513,484,460,425,373,241,184,146,119,99],"timestamp_mouse":[17,49,57,78,98,117,139,158,177,198,218,238,257,277,298,319,338,358,377,397,417,437,457,479,499,517,537,558,577,597,618,637,657,677,698,717,737,757,777,798,817],"xSR":741.5,"ySR":573.95,"xT1":424.9,"yT1":0,"xT2":1058.1,"yT2":0,"toosoon":0,"cond_shown":"equaldotsize","ratio_trial":900,"smaller_num":"18","larger_num":"20","correct_side":1,"subjID":"isabellsophiaosmagarcia","gender":"1","age":"10","school":"6"},{"start_time":1551892920789,"click_time":1551892921636,"finger_time":1551892921317,"fix_duration":250,"trial":71,"RT":528,"MT":319,"sideResp":1,"stimulus":"img/250/equaldotsize/L/3_Ratio_250_L_8_R_2.png","xmouse":[781,781,781,781,781,781,781,781,781,781,781,781,781,781,781,781,781,781,781,781,781,781,780,773,761,745,728,708,674,671,668,667,665,662,658,650,640,613,602,591,562,523,468],"ymouse":[616,616,616,616,616,616,616,616,616,616,616,616,616,616,616,616,616,616,616,616,616,616,616,608,597,578,553,519,456,443,428,415,399,383,367,347,328,290,273,252,207,145,61],"timestamp_mouse":[10,32,47,68,87,107,129,148,167,187,207,229,247,268,289,308,328,347,367,387,407,427,447,467,487,508,528,547,568,587,607,627,647,667,688,708,728,747,767,787,807,828,847],"xSR":741.5,"ySR":573.95,"xT1":424.9,"yT1":0,"xT2":1058.1,"yT2":0,"toosoon":0,"cond_shown":"equaldotsize","ratio_trial":250,"smaller_num":"2","larger_num":"8","correct_side":1,"subjID":"isabellsophiaosmagarcia","gender":"1","age":"10","school":"6"},{"start_time":1551892924925,"click_time":1551892925776,"finger_time":1551892925416,"fix_duration":1066.5017406543404,"trial":72,"RT":491,"MT":360,"sideResp":2,"stimulus":"img/500/equaldotanddens/R/6_Ratio_500_L_9_R_18.png","xmouse":[787,787,787,787,787,787,787,787,787,787,787,787,787,787,787,787,787,787,787,787,787,787,806,833,864,892,948,968,982,991,1002,1010,1014,1018,1022,1029,1031,1034,1037,1041,1046,1052,1059],"ymouse":[626,626,626,626,626,626,626,626,626,626,626,626,626,626,626,626,626,626,626,626,626,627,611,587,558,526,451,421,395,372,337,305,291,276,262,227,208,185,166,148,121,108,97],"timestamp_mouse":[11,39,51,71,91,111,131,151,171,192,212,232,251,271,292,312,331,352,372,392,413,431,451,472,491,511,531,552,571,591,611,631,651,673,692,712,731,751,771,791,811,831,851],"xSR":741.5,"ySR":573.95,"xT1":424.9,"yT1":0,"xT2":1058.1,"yT2":0,"toosoon":0,"cond_shown":"equaldotanddens","ratio_trial":500,"smaller_num":"9","larger_num":"18","correct_side":2,"subjID":"isabellsophiaosmagarcia","gender":"1","age":"10","school":"6"},{"start_time":1551892927443,"click_time":1551892928836,"finger_time":1551892928517,"fix_duration":345.96709694623127,"trial":73,"RT":1074,"MT":319,"sideResp":2,"stimulus":"img/750/equaldotanddens/R/3_Ratio_750_L_15_R_20.png","xmouse":[794,794,794,794,794,794,794,794,794,794,794,794,794,794,794,794,794,794,794,794,794,794,794,794,794,794,794,794,794,794,794,794,794,794,794,794,794,794,794,794,794,794,794,794,794,794,794,794,794,794,794,808,817,840,875,911,967,1001,1029,1051,1056,1060,1063,1067,1078,1086,1096,1103,1108,1110],"ymouse":[620,620,620,620,620,620,620,620,620,620,620,620,620,620,620,620,620,620,620,620,620,620,620,620,620,620,620,620,620,620,620,620,620,620,620,620,620,620,620,620,620,620,620,620,620,620,620,620,620,620,620,607,595,568,524,479,395,338,279,230,215,204,195,188,170,155,133,117,104,96],"timestamp_mouse":[15,40,53,74,94,113,134,154,174,193,215,233,253,273,294,314,333,354,374,394,414,433,453,474,493,514,534,554,575,593,614,633,653,673,694,713,733,754,773,793,814,833,854,873,893,914,934,954,973,994,1013,1033,1054,1074,1093,1113,1133,1153,1173,1193,1213,1233,1253,1274,1293,1315,1333,1354,1374,1393],"xSR":741.5,"ySR":573.95,"xT1":424.9,"yT1":0,"xT2":1058.1,"yT2":0,"toosoon":0,"cond_shown":"equaldotanddens","ratio_trial":750,"smaller_num":"15","larger_num":"20","correct_side":2,"subjID":"isabellsophiaosmagarcia","gender":"1","age":"10","school":"6"},{"start_time":1551892931199,"click_time":1551892931836,"finger_time":1551892931597,"fix_duration":1401.768097329653,"trial":74,"RT":398,"MT":239,"sideResp":2,"stimulus":"img/750/equaldotanddens/R/5_Ratio_750_L_15_R_20.png","xmouse":[774,774,774,774,774,774,774,774,774,774,774,774,774,775,775,777,787,817,832,844,856,887,909,936,954,966,992,1016,1051,1076,1098,1138],"ymouse":[637,637,637,637,637,637,637,637,637,637,637,637,637,636,636,634,624,592,578,561,544,503,479,451,430,416,386,357,308,267,216,97],"timestamp_mouse":[18,49,59,77,97,117,139,159,178,198,219,237,257,277,297,318,337,357,377,398,418,437,457,478,497,518,537,557,577,598,618,637],"xSR":741.5,"ySR":573.95,"xT1":424.9,"yT1":0,"xT2":1058.1,"yT2":0,"toosoon":0,"cond_shown":"equaldotanddens","ratio_trial":750,"smaller_num":"15","larger_num":"20","correct_side":2,"subjID":"isabellsophiaosmagarcia","gender":"1","age":"10","school":"6"},{"start_time":1551892934540,"click_time":1551892935317,"finger_time":1551892934936,"fix_duration":362.2187339414745,"trial":75,"RT":396,"MT":381,"sideResp":2,"stimulus":"img/900/equaldotsize/R/9_Ratio_900_L_18_R_20.png","xmouse":[776,776,776,776,776,776,776,776,776,776,776,776,776,776,776,776,781,799,817,884,929,962,998,1027,1071,1079,1088,1094,1101,1114,1117,1119,1120,1120,1120,1114,1106,1099,1095],"ymouse":[634,634,634,634,634,634,634,634,634,634,634,634,634,634,634,634,628,617,606,559,524,490,443,392,311,291,271,254,236,198,186,174,166,159,143,132,120,108,95],"timestamp_mouse":[16,36,57,76,97,116,136,156,176,198,217,236,256,277,296,316,337,357,376,396,417,436,457,477,496,516,536,556,577,596,616,636,656,677,696,716,736,756,777],"xSR":741.5,"ySR":573.95,"xT1":424.9,"yT1":0,"xT2":1058.1,"yT2":0,"toosoon":0,"cond_shown":"equaldotsize","ratio_trial":900,"smaller_num":"18","larger_num":"20","correct_side":2,"subjID":"isabellsophiaosmagarcia","gender":"1","age":"10","school":"6"},{"start_time":1551892937630,"click_time":1551892938536,"finger_time":1551892938056,"fix_duration":1470.4007387978115,"trial":76,"RT":426,"MT":480,"sideResp":1,"stimulus":"img/250/equaldotanddens/L/7_Ratio_250_L_8_R_2.png","xmouse":[786,786,786,786,786,786,786,786,786,786,786,786,786,786,786,786,786,786,786,782,768,743,715,701,684,675,670,660,649,585,529,468,424,403,387,386,385,384,384,384,384,385,391,407,448],"ymouse":[623,623,623,623,623,623,623,623,623,623,623,623,623,623,623,623,623,623,620,594,568,532,500,479,442,419,401,373,348,257,200,153,124,109,96,94,88,84,81,81,81,80,80,80,80],"timestamp_mouse":[8,48,67,86,106,127,147,167,186,206,226,246,266,287,306,327,346,367,387,406,426,447,466,486,506,526,546,566,587,606,627,647,666,686,706,727,746,766,786,806,828,846,866,886,906],"xSR":741.5,"ySR":573.95,"xT1":424.9,"yT1":0,"xT2":1058.1,"yT2":0,"toosoon":0,"cond_shown":"equaldotanddens","ratio_trial":250,"smaller_num":"2","larger_num":"8","correct_side":1,"subjID":"isabellsophiaosmagarcia","gender":"1","age":"10","school":"6"},{"start_time":1551892939508,"click_time":1551892940336,"finger_time":1551892939936,"fix_duration":350.1963593793228,"trial":77,"RT":428,"MT":400,"sideResp":2,"stimulus":"img/900/randomdotsizeEA/L/10_Ratio_900_L_20_R_18.png","xmouse":[804,804,804,804,804,804,804,804,804,804,804,804,804,804,804,804,805,809,813,821,827,844,866,868,887,894,908,916,928,937,948,969,974,978,979,979,986,994,1005,1022,1035,1060],"ymouse":[647,647,647,647,649,649,649,649,649,649,649,649,649,649,649,649,646,630,615,598,584,549,511,507,481,468,438,421,399,374,349,299,281,256,245,233,194,165,140,115,97,70],"timestamp_mouse":[8,28,49,68,89,110,129,148,168,188,209,229,248,270,289,308,329,348,368,388,408,428,448,468,489,509,528,548,568,588,609,628,649,668,688,709,728,748,769,788,808,828],"xSR":741.5,"ySR":573.95,"xT1":424.9,"yT1":0,"xT2":1058.1,"yT2":0,"toosoon":0,"cond_shown":"randomdotsizeEA","ratio_trial":900,"smaller_num":"18","larger_num":"20","correct_side":1,"subjID":"isabellsophiaosmagarcia","gender":"1","age":"10","school":"6"},{"start_time":1551892942002,"click_time":1551892942636,"finger_time":1551892942417,"fix_duration":764.3546931953032,"trial":78,"RT":415,"MT":219,"sideResp":2,"stimulus":"img/900/randomdotsizeEA/L/8_Ratio_900_L_20_R_18.png","xmouse":[768,768,768,768,768,768,768,768,768,768,768,768,768,768,768,768,768,768,768,782,813,857,871,883,895,905,955,982,1005,1037,1056,1076],"ymouse":[607,607,607,607,607,607,607,607,607,607,607,607,607,607,607,607,607,607,607,593,561,513,497,480,457,436,321,254,201,121,66,6],"timestamp_mouse":[14,45,54,74,94,114,134,154,174,195,214,235,256,274,295,314,334,354,374,395,415,434,455,475,494,514,534,554,574,594,615,634],"xSR":741.5,"ySR":573.95,"xT1":424.9,"yT1":0,"xT2":1058.1,"yT2":0,"toosoon":0,"cond_shown":"randomdotsizeEA","ratio_trial":900,"smaller_num":"18","larger_num":"20","correct_side":1,"subjID":"isabellsophiaosmagarcia","gender":"1","age":"10","school":"6"},{"start_time":1551892944225,"click_time":1551892945136,"finger_time":1551892944657,"fix_duration":747.1625401173941,"trial":79,"RT":432,"MT":479,"sideResp":2,"stimulus":"img/750/randomdotsizeEA/L/14_Ratio_750_L_8_R_6.png","xmouse":[818,818,818,818,818,818,818,818,818,818,818,818,815,809,802,789,783,781,781,781,793,806,817,824,829,838,840,838,832,819,802,801,806,814,824,870,918,944,985,1026,1094,1125,1138,1144,1145,1148],"ymouse":[657,657,657,657,657,657,657,657,657,657,657,657,657,655,649,634,619,610,606,601,580,564,549,537,529,495,466,451,435,418,386,379,371,360,354,346,333,316,289,251,178,139,120,109,100,89],"timestamp_mouse":[11,33,51,73,92,112,133,152,173,192,212,232,251,272,292,313,332,352,371,391,412,432,451,472,492,511,531,552,572,592,612,631,652,672,693,711,732,752,772,791,812,831,852,872,893,911],"xSR":741.5,"ySR":573.95,"xT1":424.9,"yT1":0,"xT2":1058.1,"yT2":0,"toosoon":0,"cond_shown":"randomdotsizeEA","ratio_trial":750,"smaller_num":"6","larger_num":"8","correct_side":1,"subjID":"isabellsophiaosmagarcia","gender":"1","age":"10","school":"6"},{"start_time":1551892947000,"click_time":1551892947597,"finger_time":1551892947457,"fix_duration":1082.4990160407285,"trial":80,"RT":457,"MT":140,"sideResp":2,"stimulus":"img/250/equaldotanddens/R/12_Ratio_250_L_5_R_20.png","xmouse":[752,752,752,752,752,752,752,752,752,752,752,752,752,754,758,767,784,792,802,811,823,838,887,924,963,995,1044,1055,1058,1060],"ymouse":[648,648,648,648,648,648,648,648,648,648,648,648,648,648,648,648,635,630,622,613,600,583,505,434,367,302,174,121,99,85],"timestamp_mouse":[17,49,56,77,97,118,136,157,176,197,218,238,257,277,297,316,337,357,377,396,417,436,457,477,497,517,537,556,577,597],"xSR":741.5,"ySR":573.95,"xT1":424.9,"yT1":0,"xT2