[{"start_time":1551892228457,"click_time":1551892230679,"finger_time":1551892228466,"fix_duration":453.94667044226145,"trial":0,"RT":9,"MT":2213,"sideResp":2,"stimulus":"img/900/randomdotsizeEA/R/14_Ratio_900_L_18_R_20.png","xmouse":[756,756,756,756,756,756,756,756,756,756,756,755,754,754,754,754,754,754,754,754,754,754,754,754,754,754,754,754,754,754,754,754,754,754,754,756,760,763,766,767,768,768,768,769,769,772,773,774,775,775,775,775,775,775,775,775,775,775,775,775,775,775,775,775,775,775,775,775,775,775,775,775,775,775,775,775,779,783,789,801,816,825,825,826,829,858,880,881,881,889,927,955,980,1005,1018,1029,1029,1029,1030,1033,1037,1053,1056,1056,1056,1058,1060,1062,1062,1062,1062,1062],"ymouse":[539,539,539,539,539,539,539,539,539,539,539,538,537,537,537,537,537,537,537,537,537,537,537,537,537,537,537,537,537,537,537,537,537,537,537,539,546,550,553,556,557,558,558,560,565,579,589,594,598,599,606,610,611,612,613,613,613,613,613,613,613,613,613,613,613,613,613,613,613,613,613,613,613,613,613,613,608,603,592,577,558,527,516,495,486,439,405,404,404,397,363,341,321,293,275,251,247,242,235,227,214,182,175,169,161,137,127,112,112,110,100,94],"timestamp_mouse":[9,22,44,62,83,103,122,142,162,184,204,223,244,262,282,303,323,343,362,383,403,422,443,464,483,504,523,542,562,582,603,623,643,663,683,702,722,742,763,784,804,822,842,862,883,902,923,942,963,983,1002,1022,1042,1062,1083,1102,1123,1144,1162,1182,1203,1223,1244,1263,1283,1302,1322,1342,1364,1383,1402,1424,1443,1462,1483,1502,1522,1542,1563,1582,1602,1622,1643,1663,1682,1702,1723,1743,1764,1783,1802,1822,1844,1864,1883,1903,1923,1942,1962,1982,2002,2022,2042,2063,2083,2102,2122,2143,2162,2182,2202,2222],"xSR":741.5,"ySR":481,"xT1":424.9,"yT1":0,"xT2":1058.1,"yT2":0,"toosoon":0,"cond_shown":"randomdotsizeEA","ratio_trial":900,"smaller_num":"18","larger_num":"20","correct_side":2,"subjID":"isabellsophiaosmagarcia","gender":"1","age":"10","school":"6","test":{"fix_dur":[250,1500],"timestim":300,"targets_dim":[100,100],"targets_relative_coord":[0.3,0.7],"size_stim":[880,420],"start_dim":[100,100],"size_start":[300,300],"size_fix":60,"samplingrate":20,"img_types":["equaldotsize","equaldotanddens","randomdotsizeEA"],"ratios":[250,500,750,900],"rep_conds":9,"nTrials":120,"trials_to_rest":500,"Trials_order":[119,77,45,50,19,8,68,13,53,36,20,112,95,80,74,83,65,70,59,66,72,31,39,34,40,106,86,2,85,93,35,10,94,46,84,102,62,92,81,109,1,28,43,47,55,21,17,57,71,103,9,89,115,118,104,64,108,56,60,111,52,116,105,27,24,14,29,69,5,88,91,100,96,101,73,49,117,11,12,4,26,25,41,23,38,75,82,3,22,0,33,37,67,16,113,87,78,97,90,110,44,61,6,7,15,48,18,79,58,30,114,32,54,51,99,42,63,107,76,98],"cond_shown":["randomdotsizeEA","randomdotsizeEA","equaldotsize","randomdotsizeEA","equaldotanddens","randomdotsizeEA","randomdotsizeEA","equaldotanddens","randomdotsizeEA","equaldotsize","randomdotsizeEA","equaldotanddens","randomdotsizeEA","randomdotsizeEA","randomdotsizeEA","randomdotsizeEA","randomdotsizeEA","equaldotanddens","randomdotsizeEA","equaldotsize","equaldotsize","equaldotanddens","equaldotsize","equaldotanddens","equaldotanddens","equaldotanddens","randomdotsizeEA","randomdotsizeEA","equaldotanddens","equaldotsize","randomdotsizeEA","equaldotanddens","equaldotanddens","equaldotanddens","equaldotsize","equaldotsize","randomdotsizeEA","randomdotsizeEA","equaldotsize","equaldotanddens","equaldotanddens","equaldotanddens","equaldotanddens","randomdotsizeEA","equaldotanddens","equaldotsize","randomdotsizeEA","equaldotsize","randomdotsizeEA","equaldotanddens","equaldotsize","randomdotsizeEA","equaldotanddens","equaldotanddens","randomdotsizeEA","equaldotanddens","equaldotsize","randomdotsizeEA","equaldotsize","equaldotsize","equaldotanddens","randomdotsizeEA","equaldotsize","equaldotsize","equaldotsize","randomdotsizeEA","randomdotsizeEA","equaldotsize","randomdotsizeEA","equaldotanddens","equaldotanddens","equaldotanddens","equaldotsize","randomdotsizeEA","equaldotanddens","equaldotanddens","equaldotsize","randomdotsizeEA","equaldotsize","equaldotanddens","randomdotsizeEA","equaldotanddens","randomdotsizeEA","randomdotsizeEA","randomdotsizeEA","equaldotsize","equaldotanddens","equaldotsize","equaldotanddens","equaldotsize","equaldotsize","equaldotanddens","equaldotanddens","equaldotanddens","randomdotsizeEA","equaldotsize","equaldotsize","equaldotanddens","equaldotsize","randomdotsizeEA","randomdotsizeEA","equaldotanddens","equaldotsize","equaldotanddens","equaldotsize","equaldotsize","equaldotsize","equaldotanddens","equaldotanddens","equaldotsize","equaldotsize","randomdotsizeEA","equaldotsize","equaldotsize","equaldotsize","equaldotsize","equaldotsize","randomdotsizeEA","equaldotanddens","randomdotsizeEA"],"ratio_trial":[900,500,900,250,750,750,750,250,500,250,750,500,900,750,250,900,500,900,900,750,250,750,500,900,500,900,250,250,250,900,900,900,900,900,250,750,250,750,900,250,250,500,750,900,750,900,500,900,900,750,900,500,750,900,750,500,250,750,250,500,500,750,900,500,250,250,500,900,500,500,750,500,250,500,250,250,900,900,250,500,250,250,500,900,250,500,900,500,900,250,900,250,750,500,500,500,750,250,750,250,750,250,750,750,500,250,750,750,900,750,750,750,750,500,500,750,500,900,500,250],"smaller_num":["18","5","18","3","15","15","15","4","6","5","3","4","18","15","6","18","2","9","9","3","3","18","2","9","5","18","3","4","6","9","18","18","18","9","1","15","5","15","18","3","2","4","3","18","6","9","2","18","9","15","9","10","6","9","3","2","1","15","3","9","1","15","18","3","3","3","1","9","6","2","6","9","2","2","1","4","18","18","4","4","2","3","9","18","3","1","18","2","18","3","18","5","6","10","2","9","3","3","18","4","18","2","6","15","6","1","3","15","9","6","3","3","15","1","1","18","5","9","9","2"],"larger_num":["20","10","20","12","20","20","20","16","12","20","4","8","20","20","24","20","4","10","10","4","12","24","4","10","10","20","12","16","24","10","20","20","20","10","4","20","20","20","20","12","8","8","4","20","8","10","4","20","10","20","10","20","8","10","4","4","4","20","12","18","2","20","20","6","12","12","2","10","12","4","8","18","8","4","4","16","20","20","16","8","8","12","18","20","12","2","20","4","20","12","20","20","8","20","4","18","4","12","24","16","24","8","8","20","12","4","4","20","10","8","4","4","20","2","2","24","10","10","18","8"],"correct_side":[2,2,1,2,1,2,2,2,1,2,1,1,2,2,2,2,2,2,2,1,1,1,1,2,1,2,2,1,1,2,1,1,1,2,2,2,2,2,2,1,2,1,2,1,2,2,2,1,1,2,2,2,1,2,1,1,2,1,1,2,2,2,2,2,1,2,2,2,1,1,1,2,2,1,2,1,2,2,2,1,1,2,2,1,1,2,1,2,1,2,1,2,1,2,1,1,1,1,1,2,1,1,1,2,1,2,1,1,2,1,1,1,2,2,2,1,1,1,1,1],"img_shown":["img/900/randomdotsizeEA/R/14_Ratio_900_L_18_R_20.png","img/500/randomdotsizeEA/R/14_Ratio_500_L_5_R_10.png","img/900/equaldotsize/L/10_Ratio_900_L_20_R_18.png","img/250/randomdotsizeEA/R/9_Ratio_250_L_3_R_12.png","img/750/equaldotanddens/L/1_Ratio_750_L_20_R_15.png","img/750/randomdotsizeEA/R/5_Ratio_750_L_15_R_20.png","img/750/randomdotsizeEA/R/3_Ratio_750_L_15_R_20.png","img/250/equaldotanddens/R/10_Ratio_250_L_4_R_16.png","img/500/randomdotsizeEA/L/11_Ratio_500_L_12_R_6.png","img/250/equaldotsize/R/12_Ratio_250_L_5_R_20.png","img/750/randomdotsizeEA/L/8_Ratio_750_L_4_R_3.png","img/500/equaldotanddens/L/8_Ratio_500_L_8_R_4.png","img/900/randomdotsizeEA/R/14_Ratio_900_L_18_R_20.png","img/750/randomdotsizeEA/R/4_Ratio_750_L_15_R_20.png","img/250/randomdotsizeEA/R/6_Ratio_250_L_6_R_24.png","img/900/randomdotsizeEA/R/14_Ratio_900_L_18_R_20.png","img/500/randomdotsizeEA/R/9_Ratio_500_L_2_R_4.png","img/900/equaldotanddens/R/5_Ratio_900_L_9_R_10.png","img/900/randomdotsizeEA/R/5_Ratio_900_L_9_R_10.png","img/750/equaldotsize/L/9_Ratio_750_L_4_R_3.png","img/250/equaldotsize/L/15_Ratio_250_L_12_R_3.png","img/750/equaldotanddens/L/6_Ratio_750_L_24_R_18.png","img/500/equaldotsize/L/5_Ratio_500_L_4_R_2.png","img/900/equaldotanddens/R/5_Ratio_900_L_9_R_10.png","img/500/equaldotanddens/L/7_Ratio_500_L_10_R_5.png","img/900/equaldotanddens/R/9_Ratio_900_L_18_R_20.png","img/250/randomdotsizeEA/R/9_Ratio_250_L_3_R_12.png","img/250/randomdotsizeEA/L/2_Ratio_250_L_16_R_4.png","img/250/equaldotanddens/L/5_Ratio_250_L_24_R_6.png","img/900/equaldotsize/R/7_Ratio_900_L_9_R_10.png","img/900/randomdotsizeEA/L/4_Ratio_900_L_20_R_18.png","img/900/equaldotanddens/L/8_Ratio_900_L_20_R_18.png","img/900/equaldotanddens/L/10_Ratio_900_L_20_R_18.png","img/900/equaldotanddens/R/5_Ratio_900_L_9_R_10.png","img/250/equaldotsize/R/8_Ratio_250_L_1_R_4.png","img/750/equaldotsize/R/5_Ratio_750_L_15_R_20.png","img/250/randomdotsizeEA/R/12_Ratio_250_L_5_R_20.png","img/750/randomdotsizeEA/R/4_Ratio_750_L_15_R_20.png","img/900/equaldotsize/R/13_Ratio_900_L_18_R_20.png","img/250/equaldotanddens/L/14_Ratio_250_L_12_R_3.png","img/250/equaldotanddens/R/13_Ratio_250_L_2_R_8.png","img/500/equaldotanddens/L/8_Ratio_500_L_8_R_4.png","img/750/equaldotanddens/R/7_Ratio_750_L_3_R_4.png","img/900/randomdotsizeEA/L/4_Ratio_900_L_20_R_18.png","img/750/equaldotanddens/R/2_Ratio_750_L_6_R_8.png","img/900/equaldotsize/R/15_Ratio_900_L_9_R_10.png","img/500/randomdotsizeEA/R/9_Ratio_500_L_2_R_4.png","img/900/equaldotsize/L/4_Ratio_900_L_20_R_18.png","img/900/randomdotsizeEA/L/1_Ratio_900_L_10_R_9.png","img/750/equaldotanddens/R/3_Ratio_750_L_15_R_20.png","img/900/equaldotsize/R/6_Ratio_900_L_9_R_10.png","img/500/randomdotsizeEA/R/3_Ratio_500_L_10_R_20.png","img/750/equaldotanddens/L/14_Ratio_750_L_8_R_6.png","img/900/equaldotanddens/R/3_Ratio_900_L_9_R_10.png","img/750/randomdotsizeEA/L/10_Ratio_750_L_4_R_3.png","img/500/equaldotanddens/L/5_Ratio_500_L_4_R_2.png","img/250/equaldotsize/R/8_Ratio_250_L_1_R_4.png","img/750/randomdotsizeEA/L/1_Ratio_750_L_20_R_15.png","img/250/equaldotsize/L/15_Ratio_250_L_12_R_3.png","img/500/equaldotsize/R/1_Ratio_500_L_9_R_18.png","img/500/equaldotanddens/R/12_Ratio_500_L_1_R_2.png","img/750/randomdotsizeEA/R/4_Ratio_750_L_15_R_20.png","img/900/equaldotsize/R/12_Ratio_900_L_18_R_20.png","img/500/equaldotsize/R/2_Ratio_500_L_3_R_6.png","img/250/equaldotsize/L/14_Ratio_250_L_12_R_3.png","img/250/randomdotsizeEA/R/11_Ratio_250_L_3_R_12.png","img/500/randomdotsizeEA/R/15_Ratio_500_L_1_R_2.png","img/900/equaldotsize/R/5_Ratio_900_L_9_R_10.png","img/500/randomdotsizeEA/L/13_Ratio_500_L_12_R_6.png","img/500/equaldotanddens/L/5_Ratio_500_L_4_R_2.png","img/750/equaldotanddens/L/14_Ratio_750_L_8_R_6.png","img/500/equaldotanddens/R/1_Ratio_500_L_9_R_18.png","img/250/equaldotsize/R/13_Ratio_250_L_2_R_8.png","img/500/randomdotsizeEA/L/10_Ratio_500_L_4_R_2.png","img/250/equaldotanddens/R/8_Ratio_250_L_1_R_4.png","img/250/equaldotanddens/L/2_Ratio_250_L_16_R_4.png","img/900/equaldotsize/R/13_Ratio_900_L_18_R_20.png","img/900/randomdotsizeEA/R/13_Ratio_900_L_18_R_20.png","img/250/equaldotsize/R/10_Ratio_250_L_4_R_16.png","img/500/equaldotanddens/L/8_Ratio_500_L_8_R_4.png","img/250/randomdotsizeEA/L/1_Ratio_250_L_8_R_2.png","img/250/equaldotanddens/R/4_Ratio_250_L_3_R_12.png","img/500/randomdotsizeEA/R/6_Ratio_500_L_9_R_18.png","img/900/randomdotsizeEA/L/10_Ratio_900_L_20_R_18.png","img/250/randomdotsizeEA/L/15_Ratio_250_L_12_R_3.png","img/500/equaldotsize/R/12_Ratio_500_L_1_R_2.png","img/900/equaldotanddens/L/2_Ratio_900_L_20_R_18.png","img/500/equaldotsize/R/9_Ratio_500_L_2_R_4.png","img/900/equaldotanddens/L/8_Ratio_900_L_20_R_18.png","img/250/equaldotsize/R/9_Ratio_250_L_3_R_12.png","img/900/equaldotsize/L/4_Ratio_900_L_20_R_18.png","img/250/equaldotanddens/R/12_Ratio_250_L_5_R_20.png","img/750/equaldotanddens/L/13_Ratio_750_L_8_R_6.png","img/500/equaldotanddens/R/3_Ratio_500_L_10_R_20.png","img/500/randomdotsizeEA/L/5_Ratio_500_L_4_R_2.png","img/500/equaldotsize/L/4_Ratio_500_L_18_R_9.png","img/750/equaldotsize/L/9_Ratio_750_L_4_R_3.png","img/250/equaldotanddens/L/14_Ratio_250_L_12_R_3.png","img/750/equaldotsize/L/6_Ratio_750_L_24_R_18.png","img/250/randomdotsizeEA/R/10_Ratio_250_L_4_R_16.png","img/750/randomdotsizeEA/L/6_Ratio_750_L_24_R_18.png","img/250/equaldotanddens/L/3_Ratio_250_L_8_R_2.png","img/750/equaldotsize/L/14_Ratio_750_L_8_R_6.png","img/750/equaldotanddens/R/5_Ratio_750_L_15_R_20.png","img/500/equaldotsize/L/11_Ratio_500_L_12_R_6.png","img/250/equaldotsize/R/8_Ratio_250_L_1_R_4.png","img/750/equaldotsize/L/10_Ratio_750_L_4_R_3.png","img/750/equaldotanddens/L/1_Ratio_750_L_20_R_15.png","img/900/equaldotanddens/R/6_Ratio_900_L_9_R_10.png","img/750/equaldotsize/L/13_Ratio_750_L_8_R_6.png","img/750/equaldotsize/L/8_Ratio_750_L_4_R_3.png","img/750/randomdotsizeEA/L/8_Ratio_750_L_4_R_3.png","img/750/equaldotsize/R/5_Ratio_750_L_15_R_20.png","img/500/equaldotsize/R/15_Ratio_500_L_1_R_2.png","img/500/equaldotsize/R/15_Ratio_500_L_1_R_2.png","img/750/equaldotsize/L/6_Ratio_750_L_24_R_18.png","img/500/equaldotsize/L/7_Ratio_500_L_10_R_5.png","img/900/randomdotsizeEA/L/1_Ratio_900_L_10_R_9.png","img/500/equaldotanddens/L/4_Ratio_500_L_18_R_9.png","img/250/randomdotsizeEA/L/7_Ratio_250_L_8_R_2.png"],"Rat0":[["12_Ratio_0_L_9_R_0.png","13_Ratio_0_L_6_R_0.png","5_Ratio_0_L_2_R_0.png","6_Ratio_0_L_4_R_0.png","8_Ratio_0_L_6_R_0.png"],["1_Ratio_0_L_0_R_17.png","10_Ratio_0_L_0_R_22.png","11_Ratio_0_L_0_R_1.png","14_Ratio_0_L_0_R_24.png","15_Ratio_0_L_0_R_4.png","2_Ratio_0_L_0_R_5.png","3_Ratio_0_L_0_R_17.png","4_Ratio_0_L_0_R_7.png","7_Ratio_0_L_0_R_19.png","9_Ratio_0_L_0_R_15.png"]],"Rat250":[["1_Ratio_250_L_8_R_2.png","14_Ratio_250_L_12_R_3.png","15_Ratio_250_L_12_R_3.png","2_Ratio_250_L_16_R_4.png","3_Ratio_250_L_8_R_2.png","5_Ratio_250_L_24_R_6.png","7_Ratio_250_L_8_R_2.png"],["10_Ratio_250_L_4_R_16.png","11_Ratio_250_L_3_R_12.png","12_Ratio_250_L_5_R_20.png","13_Ratio_250_L_2_R_8.png","4_Ratio_250_L_3_R_12.png","6_Ratio_250_L_6_R_24.png","8_Ratio_250_L_1_R_4.png","9_Ratio_250_L_3_R_12.png"]],"Rat500":[["10_Ratio_500_L_4_R_2.png","11_Ratio_500_L_12_R_6.png","13_Ratio_500_L_12_R_6.png","4_Ratio_500_L_18_R_9.png","5_Ratio_500_L_4_R_2.png","7_Ratio_500_L_10_R_5.png","8_Ratio_500_L_8_R_4.png"],["1_Ratio_500_L_9_R_18.png","12_Ratio_500_L_1_R_2.png","14_Ratio_500_L_5_R_10.png","15_Ratio_500_L_1_R_2.png","2_Ratio_500_L_3_R_6.png","3_Ratio_500_L_10_R_20.png","6_Ratio_500_L_9_R_18.png","9_Ratio_500_L_2_R_4.png"]],"Rat750":[["1_Ratio_750_L_20_R_15.png","10_Ratio_750_L_4_R_3.png","13_Ratio_750_L_8_R_6.png","14_Ratio_750_L_8_R_6.png","6_Ratio_750_L_24_R_18.png","8_Ratio_750_L_4_R_3.png","9_Ratio_750_L_4_R_3.png"],["11_Ratio_750_L_12_R_16.png","12_Ratio_750_L_3_R_4.png","15_Ratio_750_L_9_R_12.png","2_Ratio_750_L_6_R_8.png","3_Ratio_750_L_15_R_20.png","4_Ratio_750_L_15_R_20.png","5_Ratio_750_L_15_R_20.png","7_Ratio_750_L_3_R_4.png"]],"Rat900":[["1_Ratio_900_L_10_R_9.png","10_Ratio_900_L_20_R_18.png","2_Ratio_900_L_20_R_18.png","4_Ratio_900_L_20_R_18.png","8_Ratio_900_L_20_R_18.png"],["11_Ratio_900_L_18_R_20.png","12_Ratio_900_L_18_R_20.png","13_Ratio_900_L_18_R_20.png","14_Ratio_900_L_18_R_20.png","15_Ratio_900_L_9_R_10.png","3_Ratio_900_L_9_R_10.png","5_Ratio_900_L_9_R_10.png","6_Ratio_900_L_9_R_10.png","7_Ratio_900_L_9_R_10.png","9_Ratio_900_L_18_R_20.png"]],"Rat1000":[["10_Ratio_1000_L_16_R_16.png","11_Ratio_1000_L_6_R_6.png","12_Ratio_1000_L_14_R_14.png","13_Ratio_1000_L_20_R_20.png","15_Ratio_1000_L_15_R_15.png","2_Ratio_1000_L_17_R_17.png","4_Ratio_1000_L_9_R_9.png","5_Ratio_1000_L_6_R_6.png","6_Ratio_1000_L_19_R_19.png","8_Ratio_1000_L_14_R_14.png","9_Ratio_1000_L_25_R_25.png"],["1_Ratio_1000_L_1_R_1.png","14_Ratio_1000_L_17_R_17.png","3_Ratio_1000_L_17_R_17.png","7_Ratio_1000_L_6_R_6.png"]]}},{"start_time":1551892232919,"click_time":1551892234459,"finger_time":1551892233840,"fix_duration":978.185735484603,"trial":1,"RT":921,"MT":619,"sideResp":1,"stimulus":"img/500/randomdotsizeEA/R/14_Ratio_500_L_5_R_10.png","xmouse":[837,837,837,837,837,837,837,837,837,837,837,837,837,837,837,837,837,837,837,837,837,837,837,837,837,837,837,837,837,837,837,837,837,837,837,837,837,837,837,837,837,837,836,835,835,835,835,836,838,848,875,925,987,1051,1053,1053,1051,1051,1051,1051,1051,1052,1052,1052,1052,1052,1052,1049,1041,1036,1025,977,883,841,698,613,545,476],"ymouse":[598,598,598,598,598,598,598,598,598,598,598,598,598,598,598,598,598,598,598,598,598,598,598,598,598,598,598,598,598,598,598,598,598,598,598,598,598,598,598,598,598,597,594,589,584,576,559,536,520,490,432,349,255,158,144,134,129,129,129,126,125,125,125,125,125,125,125,125,125,125,125,125,125,125,125,123,111,96],"timestamp_mouse":[8,21,50,61,81,101,122,141,162,181,200,221,240,260,280,301,320,340,360,380,400,421,441,460,480,500,522,541,562,580,601,622,640,661,680,700,722,741,761,780,802,820,840,860,880,900,921,940,960,980,1001,1021,1040,1061,1080,1101,1120,1141,1160,1181,1200,1220,1241,1261,1281,1301,1321,1340,1360,1380,1400,1420,1441,1462,1481,1502,1521,1540],"xSR":741.5,"ySR":573.95,"xT1":424.9,"yT1":0,"xT2":1058.1,"yT2":0,"toosoon":0,"cond_shown":"randomdotsizeEA","ratio_trial":500,"smaller_num":"5","larger_num":"10","correct_side":2,"subjID":"isabellsophiaosmagarcia","gender":"1","age":"10","school":"6"},{"start_time":1551892236908,"click_time":1551892237800,"finger_time":1551892237640,"fix_duration":1366.7959590444775,"trial":2,"RT":732,"MT":160,"sideResp":2,"stimulus":"img/900/equaldotsize/L/10_Ratio_900_L_20_R_18.png","xmouse":[793,793,793,793,793,793,793,793,793,793,793,793,793,793,793,793,793,793,793,793,793,793,793,793,793,793,793,793,793,793,793,792,805,811,818,824,835,891,932,963,986,1007,1046,1076,1093],"ymouse":[639,639,639,639,639,639,639,639,639,639,639,639,639,639,639,639,639,639,639,639,639,639,639,639,639,639,639,639,639,639,639,637,611,603,591,577,556,465,400,352,305,254,168,116,94],"timestamp_mouse":[12,33,51,73,92,111,132,152,173,191,212,231,252,273,291,311,332,353,372,391,411,431,453,472,492,511,531,552,571,591,612,632,652,672,691,711,732,751,771,792,811,831,851,872,891],"xSR":741.5,"ySR":573.95,"xT1":424.9,"yT1":0,"xT2":1058.1,"yT2":0,"toosoon":0,"cond_shown":"equaldotsize","ratio_trial":900,"smaller_num":"18","larger_num":"20","correct_side":1,"subjID":"isabellsophiaosmagarcia","gender":"1","age":"10","school":"6"},{"start_time":1551892238791,"click_time":1551892239260,"finger_time":1551892239059,"fix_duration":250,"trial":3,"RT":268,"MT":201,"sideResp":1,"stimulus":"img/250/randomdotsizeEA/R/9_Ratio_250_L_3_R_12.png","xmouse":[815,815,815,815,815,815,815,815,815,815,815,814,813,806,799,789,773,751,715,660,619,582,544,493],"ymouse":[599,599,599,599,599,599,599,599,599,599,599,597,591,569,552,530,508,479,435,358,284,210,141,42],"timestamp_mouse":[9,37,49,68,89,109,128,148,169,188,209,229,248,268,288,309,329,348,368,388,408,429,449,468],"xSR":741.5,"ySR":573.95,"xT1":424.9,"yT1":0,"xT2":1058.1,"yT2":0,"toosoon":0,"cond_shown":"randomdotsizeEA","ratio_trial":250,"smaller_num":"3","larger_num":"12","correct_side":2,"subjID":"isabellsophiaosmagarcia","gender":"1","age":"10","school":"6"},{"start_time":1551892242061,"click_time":1551892242839,"finger_time":1551892242339,"fix_duration":520.8068811599064,"trial":4,"RT":278,"MT":500,"sideResp":2,"stimulus":"img/750/equaldotanddens/L/1_Ratio_750_L_20_R_15.png","xmouse":[806,806,806,806,806,806,806,806,806,806,806,813,824,837,891,925,965,985,999,1018,1025,1042,1055,1069,1079,1082,1084,1087,1090,1090,1090,1090,1090,1090,1090,1090,1090,1090,1092],"ymouse":[630,630,630,630,630,630,630,630,630,630,629,614,594,567,457,391,310,271,247,218,209,187,169,148,124,118,113,107,105,105,105,105,105,105,105,105,105,103,96],"timestamp_mouse":[31,39,58,79,99,118,139,158,180,198,218,239,259,278,299,319,339,359,378,398,418,439,458,478,499,518,538,558,578,600,620,638,658,678,700,719,740,758,778],"xSR":741.5,"ySR":573.95,"xT1":424.9,"yT1":0,"xT2":1058.1,"yT2":0,"toosoon":0,"cond_shown":"equaldotanddens","ratio_trial":750,"smaller_num":"15","larger_num":"20","correct_side":1,"subjID":"isabellsophiaosmagarcia","gender":"1","age":"10","school":"6"},{"start_time":1551892243810,"click_time":1551892244181,"finger_time":1551892244019,"fix_duration":250,"trial":5,"RT":209,"MT":162,"sideResp":1,"stimulus":"img/750/randomdotsizeEA/R/5_Ratio_750_L_15_R_20.png","xmouse":[813,813,813,813,813,813,813,813,810,789,770,750,690,642,595,554,524,466,454],"ymouse":[628,628,628,628,628,628,628,628,627,595,567,539,464,405,342,279,236,118,89],"timestamp_mouse":[10,35,49,70,89,110,129,149,171,189,209,229,249,269,290,310,330,349,370],"xSR":741.5,"ySR":573.95,"xT1":424.9,"yT1":0,"xT2":1058.1,"yT2":0,"toosoon":0,"cond_shown":"randomdotsizeEA","ratio_trial":750,"smaller_num":"15","larger_num":"20","correct_side":2,"subjID":"isabellsophiaosmagarcia","gender":"1","age":"10","school":"6"},{"start_time":1551892245771,"click_time":1551892246259,"finger_time":1551892245879,"fix_duration":849.6644373980761,"trial":6,"RT":108,"MT":380,"sideResp":1,"stimulus":"img/750/randomdotsizeEA/R/3_Ratio_750_L_15_R_20.png","xmouse":[811,811,811,808,793,776,761,748,735,731,731,731,730,728,717,714,698,672,646,593,565,550,537,535,516],"ymouse":[616,616,616,609,580,549,526,512,502,499,499,499,498,493,465,457,421,360,298,162,98,62,43,40,25],"timestamp_mouse":[9,35,50,68,89,108,128,149,168,189,209,229,248,268,288,308,328,349,369,388,409,428,449,469,488],"xSR":741.5,"ySR":573.95,"xT1":424.9,"yT1":0,"xT2":1058.1,"yT2":0,"toosoon":0,"cond_shown":"randomdotsizeEA","ratio_trial":750,"smaller_num":"15","larger_num":"20","correct_side":2,"subjID":"isabellsophiaosmagarcia","gender":"1","age":"10","school":"6"},{"start_time":1551892249823,"click_time":1551892250420,"finger_time":1551892250160,"fix_duration":642.7707162024636,"trial":7,"RT":337,"MT":260,"sideResp":2,"stimulus":"img/250/equaldotanddens/R/10_Ratio_250_L_4_R_16.png","xmouse":[799,799,799,799,799,799,799,799,799,799,799,799,799,799,804,816,835,937,983,1016,1025,1055,1064,1068,1070,1070,1070,1071,1076,1082],"ymouse":[622,622,622,622,622,622,622,622,622,622,622,622,622,619,608,586,554,386,316,255,235,168,148,136,130,127,124,119,106,91],"timestamp_mouse":[17,36,57,76,96,118,137,156,177,198,218,238,256,276,296,317,337,358,376,396,416,437,456,477,496,517,537,556,576,596],"xSR":741.5,"ySR":573.95,"xT1":424.9,"yT1":0,"xT2":1058.1,"yT2":0,"toosoon":0,"cond_shown":"equaldotanddens","ratio_trial":250,"smaller_num":"4","larger_num":"16","correct_side":2,"subjID":"isabellsophiaosmagarcia","gender":"1","age":"10","school":"6"},{"start_time":1551892253567,"click_time":1551892254299,"finger_time":1551892253919,"fix_duration":1044.4173507682287,"trial":8,"RT":352,"MT":380,"sideResp":1,"stimulus":"img/500/randomdotsizeEA/L/11_Ratio_500_L_12_R_6.png","xmouse":[791,791,791,791,791,791,791,791,791,791,791,791,791,791,788,778,769,757,739,722,681,644,606,574,530,525,523,523,523,523,523,523,522,521,515,508,494],"ymouse":[629,629,629,629,629,629,629,629,629,629,629,629,629,629,616,599,586,570,544,516,464,421,369,325,251,228,212,198,190,167,156,152,142,130,110,100,88],"timestamp_mouse":[21,39,53,73,91,112,132,152,173,192,212,232,253,272,292,312,333,352,373,392,411,432,452,473,492,512,533,552,572,592,613,632,652,672,692,712,732],"xSR":741.5,"ySR":573.95,"xT1":424.9,"yT1":0,"xT2":1058.1,"yT2":0,"toosoon":0,"cond_shown":"randomdotsizeEA","ratio_trial":500,"smaller_num":"6","larger_num":"12","correct_side":1,"subjID":"isabellsophiaosmagarcia","gender":"1","age":"10","school":"6"},{"start_time":1551892255342,"click_time":1551892255879,"finger_time":1551892255659,"fix_duration":262.8764050018261,"trial":9,"RT":317,"MT":220,"sideResp":1,"stimulus":"img/250/equaldotsize/R/12_Ratio_250_L_5_R_20.png","xmouse":[806,806,806,806,806,806,806,806,806,806,806,806,806,806,801,753,739,704,662,630,554,511,470,453,450,441,440],"ymouse":[598,598,598,598,598,598,598,598,598,598,598,598,598,596,589,536,521,483,435,395,278,218,166,139,133,101,92],"timestamp_mouse":[17,38,58,77,97,118,138,158,177,197,217,238,257,278,297,317,337,356,378,398,417,437,457,477,497,516,536],"xSR":741.5,"ySR":573.95,"xT1":424.9,"yT1":0,"xT2":1058.1,"yT2":0,"toosoon":0,"cond_shown":"equaldotsize","ratio_trial":250,"smaller_num":"5","larger_num":"20","correct_side":2,"subjID":"isabellsophiaosmagarcia","gender":"1","age":"10","school":"6"},{"start_time":1551892258951,"click_time":1551892259559,"finger_time":1551892259299,"fix_duration":250,"trial":10,"RT":348,"MT":260,"sideResp":1,"stimulus":"img/750/randomdotsizeEA/L/8_Ratio_750_L_4_R_3.png","xmouse":[799,799,799,799,799,799,799,799,799,799,799,799,799,799,799,795,768,722,651,571,444,424,419,419,420,423,428,440,456,471,491],"ymouse":[622,622,622,622,622,622,622,622,622,622,622,622,622,622,622,619,588,536,455,371,226,185,152,142,141,138,138,134,125,107,63],"timestamp_mouse":[9,37,48,68,88,109,128,147,169,189,208,228,248,268,288,308,328,347,369,389,408,429,448,468,488,508,528,547,568,589,607],"xSR":741.5,"ySR":573.95,"xT1":424.9,"yT1":0,"xT2":1058.1,"yT2":0,"toosoon":0,"cond_shown":"randomdotsizeEA","ratio_trial":750,"smaller_num":"3","larger_num":"4","correct_side":1,"subjID":"isabellsophiaosmagarcia","gender":"1","age":"10","school":"6"},{"start_time":1551892260450,"click_time":1551892261199,"finger_time":1551892260760,"fix_duration":330.754696774337,"trial":11,"RT":310,"MT":439,"sideResp":1,"stimulus":"img/500/equaldotanddens/L/8_Ratio_500_L_8_R_4.png","xmouse":[769,769,769,769,769,769,769,769,769,769,769,769,769,769,769,746,711,653,652,611,557,490,482,482,482,482,482,482,482,482,482,482,482,482,482,482,482,482],"ymouse":[598,598,598,598,598,598,598,598,598,598,598,598,598,598,593,513,431,337,336,289,222,137,119,112,109,108,108,108,108,108,108,108,108,108,108,108,107,78],"timestamp_mouse":[9,29,50,69,89,108,129,148,169,190,209,229,249,269,289,310,330,349,370,389,409,429,449,468,489,509,529,549,568,590,609,629,649,669,690,710,730,749],"xSR":741.5,"ySR":573.95,"xT1":424.9,"yT1":0,"xT2":1058.1,"yT2":0,"toosoon":0,"cond_shown":"equaldotanddens","ratio_trial":500,"smaller_num":"4","larger_num":"8","correct_side":1,"subjID":"isabellsophiaosmagarcia","gender":"1","age":"10","school":"6"},{"start_time":1551892266635,"click_time":1551892267159,"finger_time":1551892266959,"fix_duration":1275.8848344218131,"trial":12,"RT":324,"MT":200,"sideResp":2,"stimulus":"img/900/randomdotsizeEA/R/14_Ratio_900_L_18_R_20.png","xmouse":[786,786,786,786,786,786,786,786,786,786,786,786,786,786,786,788,805,823,856,888,925,1004,1022,1039,1053,1074,1141],"ymouse":[587,587,587,587,587,587,587,587,587,587,587,587,587,587,587,582,554,531,484,428,367,252,225,198,180,152,33],"timestamp_mouse":[10,38,44,64,84,105,124,144,164,185,205,224,245,265,284,304,324,344,364,384,404,424,443,464,485,504,524],"xSR":741.5,"ySR":573.95,"xT1":424.9,"yT1":0,"xT2":1058.1,"yT2":0,"toosoon":0,"cond_shown":"randomdotsizeEA","ratio_trial":900,"smaller_num":"18","larger_num":"20","correct_side":2,"subjID":"isabellsophiaosmagarcia","gender":"1","age":"10","school":"6"},{"start_time":1551892268383,"click_time":1551892268940,"finger_time":1551892268559,"fix_duration":562.4689201059953,"trial":13,"RT":176,"MT":381,"sideResp":2,"stimulus":"img/750/randomdotsizeEA/R/4_Ratio_750_L_15_R_20.png","xmouse":[752,752,755,758,764,768,776,784,812,843,870,887,899,912,950,962,991,1016,1040,1057,1058,1059,1063,1070,1070,1073,1075,1077],"ymouse":[629,629,621,617,608,602,594,584,562,532,507,488,467,439,350,323,268,227,185,147,144,139,126,115,113,109,101,92],"timestamp_mouse":[29,36,56,76,96,116,135,157,176,196,216,236,256,276,296,316,336,356,376,397,416,436,456,475,495,517,536,556],"xSR":741.5,"ySR":573.95,"xT1":424.9,"yT1":0,"xT2":1058.1,"yT2":0,"toosoon":0,"cond_shown":"randomdotsizeEA","ratio_trial":750,"smaller_num":"15","larger_num":"20","correct_side":2,"subjID":"isabellsophiaosmagarcia","gender":"1","age":"10","school":"6"},{"start_time":1551892272894,"click_time":1551892273419,"finger_time":1551892273259,"fix_duration":893.4000781175159,"trial":14,"RT":365,"MT":160,"sideResp":2,"stimulus":"img/250/randomdotsizeEA/R/6_Ratio_250_L_6_R_24.png","xmouse":[803,803,803,803,803,803,803,803,803,803,803,803,803,803,803,803,815,823,845,890,942,993,1038,1115,1127,1146,1155],"ymouse":[611,611,611,611,611,611,611,611,611,611,611,611,611,611,611,606,589,582,563,525,478,414,352,201,168,120,96],"timestamp_mouse":[19,35,46,65,85,105,126,145,165,185,206,225,246,265,285,305,325,345,365,385,405,425,446,465,486,505,525],"xSR":741.5,"ySR":573.95,"xT1":424.9,"yT1":0,"xT2":1058.1,"yT2":0,"toosoon":0,"cond_shown":"randomdotsizeEA","ratio_trial":250,"smaller_num":"6","larger_num":"24","correct_side":2,"subjID":"isabellsophiaosmagarcia","gender":"1","age":"10","school":"6"},{"start_time":1551892275950,"click_time":1551892276659,"finger_time":1551892276239,"fix_duration":250,"trial":15,"RT":289,"MT":420,"sideResp":1,"stimulus":"img/900/randomdotsizeEA/R/14_Ratio_900_L_18_R_20.png","xmouse":[786,786,786,786,786,786,786,786,786,786,786,786,778,771,760,747,730,696,656,618,588,578,571,566,563,563,563,564,566,566,564,554,545,535,528,515],"ymouse":[633,633,633,633,633,633,633,633,633,633,633,625,609,593,571,546,517,467,410,353,287,250,227,211,202,200,199,195,186,171,146,126,114,105,99,87],"timestamp_mouse":[10,41,49,69,90,109,130,149,169,189,210,229,249,269,289,309,329,349,369,389,409,430,449,470,490,509,529,550,569,589,609,629,649,669,690,709],"xSR":741.5,"ySR":573.95,"xT1":424.9,"yT1":0,"xT2":1058.1,"yT2":0,"toosoon":0,"cond_shown":"randomdotsizeEA","ratio_trial":900,"smaller_num":"18","larger_num":"20","correct_side":2,"subjID":"isabellsophiaosmagarcia","gender":"1","age":"10","school":"6"},{"start_time":1551892278201,"click_time":1551892278759,"finger_time":1551892278539,"fix_duration":639.5278929035717,"trial":16,"RT":338,"MT":220,"sideResp":2,"stimulus":"img/500/randomdotsizeEA/R/9_Ratio_500_L_2_R_4.png","xmouse":[792,792,792,792,792,792,792,792,792,792,792,792,792,792,792,792,797,816,862,908,925,951,991,1026,1039,1046,1055,1063,1081],"ymouse":[605,605,605,605,605,605,605,605,605,605,605,605,605,605,605,605,596,554,458,351,316,271,202,159,148,144,134,120,84],"timestamp_mouse":[1,19,39,58,78,98,119,139,158,178,199,217,239,258,279,298,318,338,358,377,398,419,437,458,478,498,518,538,558],"xSR":741.5,"ySR":573.95,"xT1":424.9,"yT1":0,"xT2":1058.1,"yT2":0,"toosoon":0,"cond_shown":"randomdotsizeEA","ratio_trial":500,"smaller_num":"2","larger_num":"4","correct_side":2,"subjID":"isabellsophiaosmagarcia","gender":"1","age":"10","school":"6"},{"start_time":1551892280654,"click_time":1551892282099,"finger_time":1551892280980,"fix_duration":694.2524333497053,"trial":17,"RT":326,"MT":1119,"sideResp":1,"stimulus":"img/900/equaldotanddens/R/5_Ratio_900_L_9_R_10.png","xmouse":[785,785,785,785,785,785,785,785,785,785,785,785,785,785,781,769,752,716,692,666,638,609,600,594,592,592,591,591,591,591,591,591,587,586,586,586,565,563,562,562,562,562,562,562,559,556,541,528,518,518,516,516,516,516,516,516,516,516,516,516,516,516,516,516,515,508,504,503,499,494,483,477,462],"ymouse":[610,610,610,610,610,610,610,610,610,610,610,610,610,610,607,580,551,477,433,384,325,265,251,240,237,237,237,237,237,237,237,236,218,214,214,214,178,175,174,174,174,174,174,174,172,170,163,157,153,153,152,152,152,152,152,152,152,152,152,152,152,152,152,152,151,142,130,130,124,117,107,103,92],"timestamp_mouse":[9,37,45,65,86,104,126,146,165,185,205,225,245,265,285,306,326,345,365,385,406,425,445,466,485,505,525,545,566,586,606,625,645,666,686,705,725,745,766,785,805,825,845,865,885,905,926,945,964,985,1006,1025,1044,1065,1085,1105,1125,1145,1165,1185,1205,1225,1245,1265,1285,1305,1326,1345,1366,1385,1405,1424,1445],"xSR":741.5,"ySR":573.95,"xT1":424.9,"yT1":0,"xT2":1058.1,"yT2":0,"toosoon":0,"cond_shown":"equaldotanddens","ratio_trial":900,"smaller_num":"9","larger_num":"10","correct_side":2,"subjID":"isabellsophiaosmagarcia","gender":"1","age":"10","school":"6"},{"start_time":1551892285371,"click_time":1551892286819,"finger_time":1551892286180,"fix_duration":691.6674426084261,"trial":18,"RT":809,"MT":639,"sideResp":2,"stimulus":"img/900/randomdotsizeEA/R/5_Ratio_900_L_9_R_10.png","xmouse":[773,773,773,773,773,773,773,773,773,773,773,773,773,773,773,773,773,773,773,773,773,773,773,773,773,773,773,773,773,773,773,773,773,773,772,771,767,765,765,764,781,855,986,1098,1189,1222,1226,1226,1226,1217,1201,1170,1140,1123,1113,1112,1098,1086,1063,1023,1013,1009,1009,1015,1021,1025,1028,1028,1030,1030,1040,1056,1075],"ymouse":[620,620,620,620,620,620,620,620,620,620,620,620,620,620,620,620,620,620,620,620,620,620,620,620,620,620,620,620,620,620,620,620,620,620,619,612,600,593,590,588,570,542,498,453,410,379,375,375,366,328,297,258,229,213,204,203,185,174,140,65,32,6,6,0,0,0,0,0,0,0,15,33,47],"timestamp_mouse":[10,34,48,69,88,108,128,147,168,189,208,228,249,268,288,308,328,348,368,388,408,427,448,468,488,509,528,548,568,588,608,627,649,668,689,708,727,748,768,788,809,827,848,868,888,908,928,949,968,988,1008,1028,1048,1069,1087,1108,1128,1148,1169,1188,1209,1228,1248,1268,1288,1308,1329,1349,1368,1387,1409,1428,1448],"xSR":741.5,"ySR":573.95,"xT1":424.9,"yT1":0,"xT2":1058.1,"yT2":0,"toosoon":0,"cond_shown":"randomdotsizeEA","ratio_trial":900,"smaller_num":"9","larger_num":"10","correct_side":2,"subjID":"isabellsophiaosmagarcia","gender":"1","age":"10","school":"6"},{"start_time":1551892289234,"click_time":1551892290019,"finger_time":1551892289679,"fix_duration":1311.5950396262456,"trial":19,"RT":445,"MT":340,"sideResp":1,"stimulus":"img/750/equaldotsize/L/9_Ratio_750_L_4_R_3.png","xmouse":[773,773,773,773,773,773,773,773,773,773,773,773,773,773,773,773,773,773,772,777,785,792,792,788,770,755,692,678,640,626,594,578,578,578,578,578,578,551,538,516],"ymouse":[653,653,653,653,653,653,653,653,653,653,653,653,653,653,653,653,653,653,653,642,611,589,550,513,446,410,270,231,139,111,65,45,45,45,45,45,45,48,48,48],"timestamp_mouse":[13,58,58,65,85,106,125,146,166,185,205,224,246,266,286,305,326,345,365,385,405,425,445,465,484,506,526,545,565,585,605,625,645,666,684,705,725,745,765,784],"xSR":741.5,"ySR":573.95,"xT1":424.9,"yT1":0,"xT2":1058.1,"yT2":0,"toosoon":0,"cond_shown":"equaldotsize","ratio_trial":750,"smaller_num":"3","larger_num":"4","correct_side":1,"subjID":"isabellsophiaosmagarcia","gender":"1","age":"10","school":"6"},{"start_time":1551892291976,"click_time":1551892292900,"finger_time":1551892292579,"fix_duration":1034.7070274408636,"trial":20,"RT":603,"MT":321,"sideResp":2,"stimulus":"img/250/equaldotsize/L/15_Ratio_250_L_12_R_3.png","xmouse":[821,821,820,820,820,820,820,820,820,820,820,820,820,820,820,820,820,820,820,820,820,820,820,820,820,820,820,820,820,829,853,873,905,931,1031,1069,1124,1157,1180,1196,1198,1198,1197,1190,1173,1162,1153],"ymouse":[622,622,622,622,622,622,622,622,622,622,622,622,622,622,622,622,622,622,622,622,622,622,622,622,622,622,622,622,620,601,566,542,502,473,369,332,273,235,197,161,143,134,116,97,68,54,48],"timestamp_mouse":[9,23,51,64,83,103,122,143,163,184,203,223,244,263,284,303,323,344,363,383,403,423,443,463,484,504,523,543,564,583,603,623,643,662,683,703,724,743,763,783,803,823,843,863,883,903,924],"xSR":741.5,"ySR":573.95,"xT1":424.9,"yT1":0,"xT2":1058.1,"yT2":0,"toosoon":0,"cond_shown":"equaldotsize","ratio_trial":250,"smaller_num":"3","larger_num":"12","correct_side":1,"subjID":"isabellsophiaosmagarcia","gender":"1","age":"10","school":"6"},{"start_time":1551892293870,"click_time":1551892294759,"finger_time":1551892294140,"fix_duration":250,"trial":21,"RT":270,"MT":619,"sideResp":1,"stimulus":"img/750/equaldotanddens/L/6_Ratio_750_L_24_R_18.png","xmouse":[763,763,763,763,763,763,763,763,763,762,757,749,747,737,707,687,659,650,634,620,612,602,599,590,587,584,582,565,542,524,511,506,502,496,484,462,444,432,430,430,430,430,430,430,430],"ymouse":[645,645,645,645,645,645,645,645,645,642,629,611,606,584,519,483,433,410,378,345,327,312,307,288,282,277,273,249,222,198,183,176,168,161,146,131,121,114,112,111,111,111,111,101,94],"timestamp_mouse":[13,40,49,69,89,109,130,149,169,189,209,229,249,270,289,309,329,349,369,388,409,430,450,470,489,508,529,549,570,589,609,629,649,670,688,709,729,749,769,790,809,829,849,869,889],"xSR":741.5,"ySR":573.95,"xT1":424.9,"yT1":0,"xT2":1058.1,"yT2":0,"toosoon":0,"cond_shown":"equaldotanddens","ratio_trial":750,"smaller_num":"18","larger_num":"24","correct_side":1,"subjID":"isabellsophiaosmagarcia","gender":"1","age":"10","school":"6"},{"start_time":1551892296052,"click_time":1551892296879,"finger_time":1551892296399,"fix_duration":452.26048336436673,"trial":22,"RT":347,"MT":480,"sideResp":2,"stimulus":"img/500/equaldotsize/L/5_Ratio_500_L_4_R_2.png","xmouse":[786,786,786,786,786,786,786,786,786,786,786,786,786,786,786,786,800,812,825,847,884,893,903,912,919,933,946,955,964,981,1021,1051,1078,1091,1095,1095,1095,1095,1095,1095,1095,1096],"ymouse":[619,619,619,619,619,619,619,619,619,619,619,619,619,619,619,619,585,556,530,491,404,382,352,319,295,252,214,188,167,134,65,15,0,0,0,0,0,0,0,0,0,8],"timestamp_mouse":[8,28,47,66,87,108,127,147,167,187,208,227,247,267,288,307,328,346,367,387,407,427,448,467,487,507,526,547,567,588,608,626,647,667,687,708,727,748,768,787,808,827],"xSR":741.5,"ySR":573.95,"xT1":424.9,"yT1":0,"xT2":1058.1,"yT2":0,"toosoon":0,"cond_shown":"equaldotsize","ratio_trial":500,"smaller_num":"2","larger_num":"4","correct_side":1,"subjID":"isabellsophiaosmagarcia","gender":"1","age":"10","school":"6"},{"start_time":1551892299266,"click_time":1551892299679,"finger_time":1551892299498,"fix_duration":1185.874260857023,"trial":23,"RT":232,"MT":181,"sideResp":1,"stimulus":"img/900/equaldotanddens/R/5_Ratio_900_L_9_R_10.png","xmouse":[819,819,819,819,819,819,818,801,787,778,763,755,749,741,724,709,675,628,585,508,464],"ymouse":[624,624,624,624,624,624,621,603,590,585,575,569,563,554,531,509,452,376,302,171,91],"timestamp_mouse":[14,41,53,74,93,113,133,153,174,193,213,232,253,274,293,313,333,354,373,393,413],"xSR":741.5,"ySR":573.95,"xT1":424.9,"yT1":0,"xT2":1058.1,"yT2":0,"toosoon":0,"cond_shown":"equaldotanddens","ratio_trial":900,"smaller_num":"9","larger_num":"10","correct_side":2,"subjID":"isabellsophiaosmagarcia","gender":"1","age":"10","school":"6"},{"start_time":1551892301686,"click_time":1551892302340,"finger_time":1551892301959,"fix_duration":1286.2033300174983,"trial":24,"RT":273,"MT":381,"sideResp":2,"stimulus":"img/500/equaldotanddens/L/7_Ratio_500_L_10_R_5.png","xmouse":[771,771,771,771,771,771,771,771,771,775,790,809,837,927,1008,1072,1127,1175,1232,1255,1269,1275,1281,1285,1286,1286,1286,1286,1273,1245,1211,1180,1153],"ymouse":[646,646,646,646,646,646,646,646,646,643,626,610,587,505,405,315,206,80,0,0,0,0,0,0,0,0,0,0,4,20,37,49,56],"timestamp_mouse":[14,37,53,74,94,113,133,153,173,193,214,233,253,273,293,313,333,353,373,393,414,433,453,473,492,513,534,553,573,593,613,634,653],"xSR":741.5,"ySR":573.95,"xT1":424.9,"yT1":0,"xT2":1058.1,"yT2":0,"toosoon":0,"cond_shown":"equaldotanddens","ratio_trial":500,"smaller_num":"5","larger_num":"10","correct_side":1,"subjID":"isabellsophiaosmagarcia","gender":"1","age":"10","school":"6"},{"start_time":1551892306311,"click_time":1551892307079,"finger_time":1551892306659,"fix_duration":570.976286890547,"trial":25,"RT":348,"MT":420,"sideResp":2,"stimulus":"img/900/equaldotanddens/R/9_Ratio_900_L_18_R_20.png","xmouse":[801,801,801,801,801,801,801,801,801,801,801,801,801,801,801,801,804,810,875,929,1017,1101,1206,1368,1426,1438,1439,1438,1433,1418,1397,1385,1368,1334,1309,1294,1277,1218,1147],"ymouse":[584,584,584,584,584,584,584,584,584,584,584,584,584,584,584,584,577,568,483,423,338,263,165,11,0,0,0,0,0,0,0,0,1,6,10,15,23,40,52],"timestamp_mouse":[8,39,48,69,88,108,128,148,168,188,208,228,248,268,288,309,328,348,368,389,409,429,448,468,488,508,528,548,568,588,608,627,647,668,688,708,729,748,768],"xSR":741.5,"ySR":573.95,"xT1":424.9,"yT1":0,"xT2":1058.1,"yT2":0,"toosoon":0,"cond_shown":"equaldotanddens","ratio_trial":900,"smaller_num":"18","larger_num":"20","correct_side":2,"subjID":"isabellsophiaosmagarcia","gender":"1","age":"10","school":"6"},{"start_time":1551892308472,"click_time":1551892308899,"finger_time":1551892308799,"fix_duration":611.8137364439585,"trial":26,"RT":327,"MT":100,"sideResp":1,"stimulus":"img/250/randomdotsizeEA/R/9_Ratio_250_L_3_R_12.png","xmouse":[829,829,829,829,829,829,829,829,829,829,829,829,829,829,827,823,799,766,719,606,556,510],"ymouse":[610,610,610,610,610,610,610,610,610,610,610,610,610,610,609,590,535,456,371,206,135,77],"timestamp_mouse":[9,34,48,66,87,107,128,148,167,187,206,227,248,267,287,306,327,347,368,387,406,427],"xSR":741.5,"ySR":573.95,"xT1":424.9,"yT1":0,"xT2":1058.1,"yT2":0,"toosoon":0,"cond_shown":"randomdotsizeEA","ratio_trial":250,"smaller_num":"3","larger_num":"12","correct_side":2,"subjID":"isabellsophiaosmagarcia","gender":"1","age":"10","school":"6"},{"start_time":1551892310782,"click_time":1551892311499,"finger_time":1551892311059,"fix_duration":841.626142198702,"trial":27,"RT":277,"MT":440,"sideResp":2,"stimulus":"img/250/randomdotsizeEA/L/2_Ratio_250_L_16_R_4.png","xmouse":[837,837,837,837,837,837,837,837,837,837,837,837,837,865,913,921,989,1051,1172,1241,1269,1289,1294,1294,1291,1291,1291,1290,1262,1213,1192,1178,1172,1166,1159,1148],"ymouse":[655,655,655,655,655,655,655,655,655,655,655,655,655,618,555,545,453,346,170,13,0,0,0,0,0,0,0,1,28,62,72,78,80,82,84,86],"timestamp_mouse":[17,37,59,77,98,117,137,156,177,197,217,237,257,277,297,318,337,356,377,397,417,438,457,477,498,517,538,556,577,597,617,637,656,677,696,717],"xSR":741.5,"ySR":573.95,"xT1":424.9,"yT1":0,"xT2":1058.1,"yT2":0,"toosoon":0,"cond_shown":"randomdotsizeEA","ratio_trial":250,"smaller_num":"4","larger_num":"16","correct_side":1,"subjID":"isabellsophiaosmagarcia","gender":"1","age":"10","school":"6"},{"start_time":1551892312854,"click_time":1551892313378,"finger_time":1551892313198,"fix_duration":554.1822416927016,"trial":28,"RT":344,"MT":180,"sideResp":1,"stimulus":"img/250/equaldotanddens/L/5_Ratio_250_L_24_R_6.png","xmouse":[781,781,781,781,781,781,781,781,781,781,781,781,781,781,781,780,764,743,712,680,617,594,577,563,543,511,479],"ymouse":[616,616,616,616,616,616,616,616,616,616,616,616,616,616,616,616,584,547,498,449,354,310,281,246,203,115,41],"timestamp_mouse":[9,35,44,64,84,104,124,144,164,184,204,225,244,264,285,305,325,344,365,384,404,423,445,465,485,504,523],"xSR":741.5,"ySR":573.95,"xT1":424.9,"yT1":0,"xT2":1058.1,"yT2":0,"toosoon":0,"cond_shown":"equaldotanddens","ratio_trial":250,"smaller_num":"6","larger_num":"24","correct_side":1,"subjID":"isabellsophiaosmagarcia","gender":"1","age":"10","school":"6"},{"start_time":1551892314929,"click_time":1551892315718,"finger_time":1551892315238,"fix_duration":629.2263378835034,"trial":29,"RT":309,"MT":480,"sideResp":2,"stimulus":"img/900/equaldotsize/R/7_Ratio_900_L_9_R_10.png","xmouse":[760,760,760,760,760,760,760,760,760,760,760,760,760,760,767,791,820,836,845,860,883,940,990,1006,1016,1024,1029,1032,1036,1038,1046,1073,1096,1099,1101,1101,1101,1101,1101,1101],"ymouse":[591,591,591,591,591,591,591,591,591,591,591,591,591,591,585,556,520,497,486,466,433,346,272,251,227,200,151,131,123,116,88,0,0,0,0,0,0,0,0,1],"timestamp_mouse":[10,32,49,69,89,109,128,149,169,189,209,229,249,269,289,309,330,349,369,390,410,429,448,469,490,509,529,549,569,589,610,629,649,669,689,709,729,749,770,789],"xSR":741.5,"ySR":573.95,"xT1":424.9,"yT1":0,"xT2":1058.1,"yT2":0,"toosoon":0,"cond_shown":"equaldotsize","ratio_trial":900,"smaller_num":"9","larger_num":"10","correct_side":2,"subjID":"isabellsophiaosmagarcia","gender":"1","age":"10","school":"6"},{"start_time":1551892319128,"click_time":1551892319499,"finger_time":1551892319378,"fix_duration":1108.5677337219497,"trial":30,"RT":250,"MT":121,"sideResp":1,"stimulus":"img/900/randomdotsizeEA/L/4_Ratio_900_L_20_R_18.png","xmouse":[800,800,800,800,800,800,800,800,800,800,799,787,764,731,680,621,509,474,433],"ymouse":[640,640,640,640,640,640,640,640,640,637,632,605,557,501,423,341,181,120,55],"timestamp_mouse":[18,34,50,70,90,111,130,150,170,190,210,229,250,269,291,310,330,350,371],"xSR":741.5,"ySR":573.95,"xT1":424.9,"yT1":0,"xT2":1058.1,"yT2":0,"toosoon":0,"cond_shown":"randomdotsizeEA","ratio_trial":900,"smaller_num":"18","larger_num":"20","correct_side":1,"subjID":"isabellsophiaosmagarcia","gender":"1","age":"10","school":"6"},{"start_time":1551892320610,"click_time":1551892321239,"finger_time":1551892320918,"fix_duration":250,"trial":31,"RT":308,"MT":321,"sideResp":2,"stimulus":"img/900/equaldotanddens/L/8_Ratio_900_L_20_R_18.png","xmouse":[795,795,795,795,795,795,795,795,795,795,795,795,798,803,815,829,850,904,939,963,972,985,1002,1005,1011,1015,1018,1027,1033,1041,1052,1062],"ymouse":[627,627,627,627,627,627,627,627,627,627,627,627,626,619,598,572,521,357,237,179,153,126,88,78,68,62,56,49,45,42,38,35],"timestamp_mouse":[8,30,48,68,88,109,128,148,169,188,209,228,248,268,289,308,329,348,367,388,409,428,448,468,488,509,528,548,568,588,609,629],"xSR":741.5,"ySR":573.95,"xT1":424.9,"yT1":0,"xT2":1058.1,"yT2":0,"toosoon":0,"cond_shown":"equaldotanddens","ratio_trial":900,"smaller_num":"18","larger_num":"20","correct_side":1,"subjID":"isabellsophiaosmagarcia","gender":"1","age":"10","school":"6"},{"start_time":1551892322770,"click_time":1551892323239,"finger_time":1551892323098,"fix_duration":630.3219465059893,"trial":32,"RT":328,"MT":141,"sideResp":1,"stimulus":"img/900/equaldotanddens/L/10_Ratio_900_L_20_R_18.png","xmouse":[759,759,759,759,759,759,759,759,759,759,759,759,759,759,759,768,783,789,787,738,668,614,556,512],"ymouse":[599,599,599,599,599,599,599,599,599,599,599,599,599,599,600,595,571,563,527,404,292,225,155,97],"timestamp_mouse":[12,35,48,69,88,108,129,148,168,188,209,229,248,269,289,308,328,348,368,388,408,428,448,469],"xSR":741.5,"ySR":573.95,"xT1":424.9,"yT1":0,"xT2":1058.1,"yT2":0,"toosoon":0,"cond_shown":"equaldotanddens","ratio_trial":900,"smaller_num":"18","larger_num":"20","correct_side":1,"subjID":"isabellsophiaosmagarcia","gender":"1","age":"10","school":"6"},{"start_time":1551892325414,"click_time":1551892326018,"finger_time":1551892325698,"fix_duration":1193.0014458983198,"trial":33,"RT":284,"MT":320,"sideResp":2,"stimulus":"img/900/equaldotanddens/R/5_Ratio_900_L_9_R_10.png","xmouse":[771,771,771,771,771,771,771,771,771,771,772,774,780,793,810,823,843,916,1003,1056,1078,1100,1118,1123,1129,1134,1135,1135,1135,1135,1133],"ymouse":[618,618,618,618,618,618,618,618,618,618,617,614,604,588,557,533,494,317,122,19,0,0,0,0,0,0,0,0,0,0,3],"timestamp_mouse":[10,24,44,64,84,104,124,144,164,185,204,224,244,264,284,305,325,344,364,384,405,424,444,464,485,504,525,545,565,584,604],"xSR":741.5,"ySR":573.95,"xT1":424.9,"yT1":0,"xT2":1058.1,"yT2":0,"toosoon":0,"cond_shown":"equaldotanddens","ratio_trial":900,"smaller_num":"9","larger_num":"10","correct_side":2,"subjID":"isabellsophiaosmagarcia","gender":"1","age":"10","school":"6"},{"start_time":1551892328062,"click_time":1551892328678,"finger_time":1551892328478,"fix_duration":1223.4208775455452,"trial":34,"RT":416,"MT":200,"sideResp":1,"stimulus":"img/250/equaldotsize/R/8_Ratio_250_L_1_R_4.png","xmouse":[790,790,790,790,790,790,790,790,790,790,790,790,790,790,790,790,790,790,790,790,784,773,752,720,654,610,587,567,555,531,516],"ymouse":[591,591,591,591,591,591,591,591,591,591,591,591,591,591,591,591,591,591,591,578,549,506,440,375,260,199,168,140,118,62,25],"timestamp_mouse":[34,36,56,77,96,116,136,157,176,196,216,237,257,276,296,317,336,357,376,396,416,436,456,476,496,517,536,556,577,596,616],"xSR":741.5,"ySR":573.95,"xT1":424.9,"yT1":0,"xT2":1058.1,"yT2":0,"toosoon":0,"cond_shown":"equaldotsize","ratio_trial":250,"smaller_num":"1","larger_num":"4","correct_side":2,"subjID":"isabellsophiaosmagarcia","gender":"1","age":"10","school":"6"},{"start_time":1551892329830,"click_time":1551892330538,"finger_time":1551892330158,"fix_duration":250,"trial":35,"RT":328,"MT":380,"sideResp":2,"stimulus":"img/750/equaldotsize/R/5_Ratio_750_L_15_R_20.png","xmouse":[779,779,779,779,779,779,779,779,779,779,779,779,779,779,784,793,822,935,959,1016,1064,1126,1153,1172,1182,1183,1173,1163,1163,1162,1160,1157,1154,1150,1149,1142],"ymouse":[608,608,608,608,608,608,608,608,608,608,608,608,608,608,605,592,557,423,396,326,265,159,102,58,33,26,0,0,0,0,0,0,0,0,0,3],"timestamp_mouse":[7,29,48,68,88,109,128,148,169,189,208,228,249,269,288,309,328,349,368,389,408,428,447,468,488,508,528,548,568,588,608,629,648,668,689,708],"xSR":741.5,"ySR":573.95,"xT1":424.9,"yT1":0,"xT2":1058.1,"yT2":0,"toosoon":0,"cond_shown":"equaldotsize","ratio_trial":750,"smaller_num":"15","larger_num":"20","correct_side":2,"subjID":"isabellsophiaosmagarcia","gender":"1","age":"10","school":"6"},{"start_time":1551892332302,"click_time":1551892332898,"finger_time":1551892332618,"fix_duration":843.538152878741,"trial":36,"RT":316,"MT":280,"sideResp":1,"stimulus":"img/250/randomdotsizeEA/R/12_Ratio_250_L_5_R_20.png","xmouse":[791,791,791,791,791,791,791,791,790,789,787,786,784,778,774,767,755,740,711,691,668,646,610,592,583,572,562,541,529,509],"ymouse":[631,631,631,631,631,631,631,631,631,628,624,618,613,592,576,555,526,495,443,413,380,347,289,252,232,212,191,146,122,73],"timestamp_mouse":[15,37,56,77,96,116,137,156,175,196,216,235,257,276,296,316,336,356,375,396,416,436,456,477,496,516,537,556,576,596],"xSR":741.5,"ySR":573.95,"xT1":424.9,"yT1":0,"xT2":1058.1,"yT2":0,"toosoon":0,"cond_shown":"randomdotsizeEA","ratio_trial":250,"smaller_num":"5","larger_num":"20","correct_side":2,"subjID":"isabellsophiaosmagarcia","gender":"1","age":"10","school":"6"},{"start_time":1551892335200,"click_time":1551892335598,"finger_time":1551892335519,"fix_duration":1321.426829258063,"trial":37,"RT":319,"MT":79,"sideResp":1,"stimulus":"img/750/randomdotsizeEA/R/4_Ratio_750_L_15_R_20.png","xmouse":[811,811,811,811,811,811,811,811,811,811,811,811,811,805,796,771,750,641,563,447],"ymouse":[662,662,662,662,662,662,662,662,662,662,662,662,654,629,597,537,488,311,215,74],"timestamp_mouse":[19,41,58,79,98,119,138,158,178,198,217,239,258,278,297,319,339,358,378,397],"xSR":741.5,"ySR":573.95,"xT1":424.9,"yT1":0,"xT2":1058.1,"yT2":0,"toosoon":0,"cond_shown":"randomdotsizeEA","ratio_trial":750,"smaller_num":"15","larger_num":"20","correct_side":2,"subjID":"isabellsophiaosmagarcia","gender":"1","age":"10","school":"6"},{"start_time":1551892336810,"click_time":1551892337558,"finger_time":1551892337137,"fix_duration":250,"trial":38,"RT":327,"MT":421,"sideResp":1,"stimulus":"img/900/equaldotsize/R/13_Ratio_900_L_18_R_20.png","xmouse":[762,762,762,762,762,762,762,762,762,762,762,762,762,762,763,763,764,743,684,654,648,647,618,613,594,581,571,561,558,555,553,549,545,541,535,530,525,517],"ymouse":[599,599,599,599,599,599,599,599,599,599,599,599,599,599,599,592,569,477,377,326,320,320,280,274,242,224,208,195,189,180,164,144,113,94,73,54,36,8],"timestamp_mouse":[12,31,47,68,88,109,128,148,168,188,207,228,249,267,287,309,327,348,367,388,409,429,448,468,487,508,528,548,568,588,608,628,648,668,689,708,729,748],"xSR":741.5,"ySR":573.95,"xT1":424.9,"yT1":0,"xT2":1058.1,"yT2":0,"toosoon":0,"cond_shown":"equaldotsize","ratio_trial":900,"smaller_num":"18","larger_num":"20","correct_side":2,"subjID":"isabellsophiaosmagarcia","gender":"1","age":"10","school":"6"},{"start_time":1551892339372,"click_time":1551892339878,"finger_time":1551892339678,"fix_duration":892.2449426808909,"trial":39,"RT":306,"MT":200,"sideResp":2,"stimulus":"img/250/equaldotanddens/L/14_Ratio_250_L_12_R_3.png","xmouse":[780,780,780,780,780,780,780,780,780,780,780,780,780,780,806,832,869,904,924,990,1046,1078,1106,1119,1127,1128],"ymouse":[596,596,596,596,596,596,596,596,596,596,596,596,596,596,574,549,511,468,447,356,274,235,184,151,113,75],"timestamp_mouse":[8,35,45,66,86,105,126,146,167,186,207,225,247,266,286,306,326,346,366,386,406,426,446,466,486,506],"xSR":741.5,"ySR":573.95,"xT1":424.9,"yT1":0,"xT2":1058.1,"yT2":0,"toosoon":0,"cond_shown":"equaldotanddens","ratio_trial":250,"smaller_num":"3","larger_num":"12","correct_side":1,"subjID":"isabellsophiaosmagarcia","gender":"1","age":"10","school":"6"},{"start_time":1551892340929,"click_time":1551892341398,"finger_time":1551892341138,"fix_duration":250,"trial":40,"RT":209,"MT":260,"sideResp":1,"stimulus":"img/250/equaldotanddens/R/13_Ratio_250_L_2_R_8.png","xmouse":[775,775,775,775,775,775,775,772,761,749,739,689,636,626,579,534,488,479,474,472,472,472,472,472],"ymouse":[619,619,619,619,619,619,619,619,603,590,575,520,452,440,375,312,235,213,195,181,168,148,108,90],"timestamp_mouse":[12,29,49,69,89,110,129,149,170,189,209,229,250,269,290,309,329,349,369,390,409,429,449,469],"xSR":741.5,"ySR":573.95,"xT1":424.9,"yT1":0,"xT2":1058.1,"yT2":0,"toosoon":0,"cond_shown":"equaldotanddens","ratio_trial":250,"smaller_num":"2","larger_num":"8","correct_side":2,"subjID":"isabellsophiaosmagarcia","gender":"1","age":"10","school":"6"},{"start_time":1551892342840,"click_time":1551892343178,"finger_time":1551892343018,"fix_duration":279.8003043581355,"trial":41,"RT":178,"MT":160,"sideResp":2,"stimulus":"img/500/equaldotanddens/L/8_Ratio_500_L_8_R_4.png","xmouse":[804,804,804,804,804,804,812,833,858,874,912,931,956,969,993,1051,1085],"ymouse":[602,602,602,602,602,602,595,585,574,566,537,517,490,468,388,125,34],"timestamp_mouse":[33,38,58,78,98,118,139,158,178,199,218,237,258,278,298,318,338],"xSR":741.5,"ySR":573.95,"xT1":424.9,"yT1":0,"xT2":1058.1,"yT2":0,"toosoon":0,"cond_shown":"equaldotanddens","ratio_trial":500,"smaller_num":"4","larger_num":"8","correct_side":1,"subjID":"isabellsophiaosmagarcia","gender":"1","age":"10","school":"6"},{"start_time":1551892344464,"click_time":1551892345058,"finger_time":1551892344758,"fix_duration":443.2372560356367,"trial":42,"RT":294,"MT":300,"sideResp":1,"stimulus":"img/750/equaldotanddens/R/7_Ratio_750_L_3_R_4.png","xmouse":[787,787,787,787,787,787,787,787,787,787,786,786,784,778,754,722,698,669,640,603,527,500,483,472,457,455,455,455,455,455],"ymouse":[616,616,616,616,616,616,616,616,616,616,616,616,610,587,524,466,417,359,302,238,55,0,0,0,0,0,0,0,0,7],"timestamp_mouse":[18,34,53,74,94,114,135,154,174,194,215,234,255,273,294,314,334,355,375,394,414,434,454,475,494,514,534,554,574,594],"xSR":741.5,"ySR":573.95,"xT1":424.9,"yT1":0,"xT2":1058.1,"yT2":0,"toosoon":0,"cond_shown":"equaldotanddens","ratio_trial":750,"smaller_num":"3","larger_num":"4","correct_side":2,"subjID":"isabellsophiaosmagarcia","gender":"1","age":"10","school":"6"},{"start_time":1551892350827,"click_time":1551892351579,"finger_time":1551892351179,"fix_duration":628.7437718546026,"trial":43,"RT":352,"MT":400,"sideResp":2,"stimulus":"img/900/randomdotsizeEA/L/4_Ratio_900_L_20_R_18.png","xmouse":[809,809,809,809,809,809,809,809,809,809,809,809,809,809,809,812,836,873,914,956,982,1035,1039,1045,1045,1046,1054,1056,1056,1060,1067,1068,1068,1068,1069,1070,1076,1080],"ymouse":[622,622,622,622,622,622,622,622,622,622,622,622,622,622,620,615,577,529,455,373,315,200,194,180,180,177,158,156,154,141,123,121,121,120,120,116,100,89],"timestamp_mouse":[11,32,51,71,92,111,131,151,172,191,212,231,252,271,291,312,331,352,371,390,411,431,450,471,491,511,530,550,571,591,611,632,651,671,691,712,731,751],"xSR":741.5,"ySR":573.95,"xT1":424.9,"yT1":0,"xT2":1058.1,"yT2":0,"toosoon":0,"cond_shown":"randomdotsizeEA","ratio_trial":900,"smaller_num":"18","larger_num":"20","correct_side":1,"subjID":"isabellsophiaosmagarcia","gender":"1","age":"10","school":"6"},{"start_time":1551892353839,"click_time":1551892354418,"finger_time":1551892353938,"fix_duration":999.2334296293022,"trial":44,"RT":99,"MT":480,"sideResp":1,"stimulus":"img/750/equaldotanddens/R/2_Ratio_750_L_6_R_8.png","xmouse":[748,748,748,748,748,745,724,697,677,655,640,610,593,576,568,565,557,552,551,550,549,549,549,549,549,551,551,551,525,505],"ymouse":[574,574,574,574,574,569,522,479,457,431,410,356,315,268,249,241,220,205,197,187,182,180,180,179,178,172,145,137,54,7],"timestamp_mouse":[1,19,40,60,79,99,119,139,159,180,200,219,239,259,279,299,318,338,359,379,399,419,439,460,479,500,519,539,559,579],"xSR":741.5,"ySR":573.95,"xT1":424.9,"yT1":0,"xT2":1058.1,"yT2":0,"toosoon":0,"cond_shown":"equaldotanddens","ratio_trial":750,"smaller_num":"6","larger_num":"8","correct_side":2,"subjID":"isabellsophiaosmagarcia","gender":"1","age":"10","school":"6"},{"start_time":1551892356170,"click_time":1551892356558,"finger_time":1551892356278,"fix_duration":1031.533857197487,"trial":45,"RT":108,"MT":280,"sideResp":2,"stimulus":"img/900/equaldotsize/R/15_Ratio_900_L_9_R_10.png","xmouse":[800,800,800,801,802,823,839,895,951,992,1020,1024,1043,1068,1092,1104,1121,1124,1125,1120],"ymouse":[582,582,582,582,580,567,559,529,493,459,414,410,380,342,287,213,151,138,125,94],"timestamp_mouse":[15,39,48,68,88,108,128,148,169,188,208,228,249,268,288,308,328,349,368,388],"xSR":741.5,"ySR":573.95,"xT1":424.9,"yT1":0,"xT2":1058.1,"yT2":0,"toosoon":0,"cond_shown":"equaldotsize","ratio_trial":900,"smaller_num":"9","larger_num":"10","correct_side":2,"subjID":"isabellsophiaosmagarcia","gender":"1","age":"10","school":"6"},{"start_time":1551892359032,"click_time":1551892359598,"finger_time":1551892359478,"fix_duration":250,"trial":46,"RT":446,"MT":120,"sideResp":1,"stimulus":"img/500/randomdotsizeEA/R/9_Ratio_500_L_2_R_4.png","xmouse":[820,820,820,820,820,820,820,820,820,820,820,820,820,820,820,820,820,819,809,807,795,776,642,568,520,500,490,488,483],"ymouse":[660,660,660,660,660,660,660,660,660,660,660,660,660,660,660,660,660,653,641,636,618,584,331,208,149,129,120,115,97],"timestamp_mouse":[9,39,47,66,87,107,126,146,166,187,208,226,246,265,286,306,326,345,366,387,406,426,446,466,486,506,526,547,566],"xSR":741.5,"ySR":573.95,"xT1":424.9,"yT1":0,"xT2":1058.1,"yT2":0,"toosoon":0,"cond_shown":"randomdotsizeEA","ratio_trial":500,"smaller_num":"2","larger_num":"4","correct_side":2,"subjID":"isabellsophiaosmagarcia","gender":"1","age":"10","school":"6"},{"start_time":1551892361750,"click_time":1551892362338,"finger_time":1551892362059,"fix_duration":1331.751122601262,"trial":47,"RT":309,"MT":279,"sideResp":2,"stimulus":"img/900/equaldotsize/L/4_Ratio_900_L_20_R_18.png","xmouse":[807,807,807,807,807,807,807,807,807,807,807,807,807,813,832,892,964,983,1047,1127,1183,1171,1151,1127,1104,1093,1093,1093,1093,1079],"ymouse":[625,625,625,625,625,625,625,625,625,625,625,625,625,620,610,578,535,523,468,352,69,0,0,0,0,0,0,0,0,2],"timestamp_mouse":[10,40,47,68,89,108,128,148,168,188,208,228,248,269,288,309,328,348,369,388,408,428,448,469,488,508,528,548,569,588],"xSR":741.5,"ySR":573.95,"xT1":424.9,"yT1":0,"xT2":1058.1,"yT2":0,"toosoon":0,"cond_shown":"equaldotsize","ratio_trial":900,"smaller_num":"18","larger_num":"20","correct_side":1,"subjID":"isabellsophiaosmagarcia","gender":"1","age":"10","school":"6"},{"start_time":1551892364055,"click_time":1551892364678,"finger_time":1551892364318,"fix_duration":674.6946017195194,"trial":48,"RT":263,"MT":360,"sideResp":1,"stimulus":"img/900/randomdotsizeEA/L/1_Ratio_900_L_10_R_9.png","xmouse":[804,804,804,804,804,804,804,804,804,803,800,790,775,754,735,702,690,687,671,669,641,624,615,615,615,615,614,608,591,570,526,510],"ymouse":[615,615,615,615,615,615,615,615,615,616,616,600,579,541,504,422,372,345,281,271,223,203,194,194,194,194,192,185,166,145,109,96],"timestamp_mouse":[10,34,42,63,83,104,123,144,163,183,203,223,244,263,284,304,323,343,363,383,403,423,443,463,483,504,522,543,563,584,603,623],"xSR":741.5,"ySR":573.95,"xT1":424.9,"yT1":0,"xT2":1058.1,"yT2":0,"toosoon":0,"cond_shown":"randomdotsizeEA","ratio_trial":900,"smaller_num":"9","larger_num":"10","correct_side":1,"subjID":"isabellsophiaosmagarcia","gender":"1","age":"10","school":"6"},{"start_time":1551892367938,"click_time":1551892368358,"finger_time":1551892368258,"fix_duration":1178.651870823237,"trial":49,"RT":320,"MT":100,"sideResp":2,"stimulus":"img/750/equaldotanddens/R/3_Ratio_750_L_15_R_20.png","xmouse":[812,812,812,812,812,812,812,812,812,812,812,812,812,812,812,818,878,940,997,1026,1043,1059],"ymouse":[624,624,624,624,624,624,624,624,624,624,624,623,608,602,600,585,427,272,143,83,56,31],"timestamp_mouse":[9,36,41,61,80,100,121,140,160,181,200,220,241,260,279,301,320,340,361,380,400,420],"xSR":741.5,"ySR":573.95,"xT1":424.9,"yT1":0,"xT2":1058.1,"yT2":0,"toosoon":0,"cond_shown":"equaldotanddens","ratio_trial":750,"smaller_num":"15","larger_num":"20","correct_side":2,"subjID":"isabellsophiaosmagarcia","gender":"1","age":"10","school":"6"},{"start_time":1551892370517,"click_time":1551892371238,"finger_time":1551892370878,"fix_duration":1178.0379507898028,"trial":50,"RT":361,"MT":360,"sideResp":1,"stimulus":"img/900/equaldotsize/R/6_Ratio_900_L_9_R_10.png","xmouse":[766,766,766,766,766,766,766,766,766,766,766,766,766,766,766,765,759,754,731,716,692,672,630,598,569,532,506,488,482,479,477,477,477,477,477,477,476],"ymouse":[620,620,620,620,620,620,620,620,620,620,620,620,620,620,620,615,597,580,523,483,424,375,281,187,112,26,0,0,0,0,0,0,0,0,0,0,2],"timestamp_mouse":[10,22,42,61,81,101,122,141,162,181,201,221,241,261,281,301,321,341,361,381,401,422,441,461,481,501,522,541,561,581,601,621,641,660,682,702,721],"xSR":741.5,"ySR":573.95,"xT1":424.9,"yT1":0,"xT2":1058.1,"yT2":0,"toosoon":0,"cond_shown":"equaldotsize","ratio_trial":900,"smaller_num":"9","larger_num":"10","correct_side":2,"subjID":"isabellsophiaosmagarcia","gender":"1","age":"10","school":"6"},{"start_time":1551892372961,"click_time":1551892373398,"finger_time":1551892373118,"fix_duration":839.7543240249975,"trial":51,"RT":157,"MT":280,"sideResp":2,"stimulus":"img/500/randomdotsizeEA/R/3_Ratio_500_L_10_R_20.png","xmouse":[770,770,770,770,774,777,778,779,780,780,780,780,780,788,823,860,913,959,996,1030,1074,1090],"ymouse":[595,595,595,595,591,584,578,570,567,567,567,567,566,558,528,496,441,392,349,288,180,68],"timestamp_mouse":[32,38,58,77,96,117,137,157,176,197,218,236,257,277,296,316,337,357,377,396,417,437],"xSR":741.5,"ySR":573.95,"xT1":424.9,"yT1":0,"xT2":1058.1,"yT2":0,"toosoon":0,"cond_shown":"randomdotsizeEA","ratio_trial":500,"smaller_num":"10","larger_num":"20","correct_side":2,"subjID":"isabellsophiaosmagarcia","gender":"1","age":"10","school":"6"},{"start_time":1551892375367,"click_time":1551892375838,"finger_time":1551892375677,"fix_duration":1009.2853750875223,"trial":52,"RT":310,"MT":161,"sideResp":1,"stimulus":"img/750/equaldotanddens/L/14_Ratio_750_L_8_R_6.png","xmouse":[802,802,802,802,802,802,802,802,802,802,802,800,797,791,788,772,746,713,688,606,568,543,530,521],"ymouse":[602,602,602,602,602,602,602,602,602,602,602,602,600,590,585,555,510,452,409,243,165,108,64,40],"timestamp_mouse":[11,30,52,71,91,110,130,150,170,191,212,230,251,272,291,310,332,352,371,391,411,430,451,471],"xSR":741.5,"ySR":573.95,"xT1":424.9,"yT1":0,"xT2":1058.1,"yT2":0,"toosoon":0,"cond_shown":"equaldotanddens","ratio_trial":750,"smaller_num":"6","larger_num":"8","correct_side":1,"subjID":"isabellsophiaosmagarcia","gender":"1","age":"10","school":"6"},{"start_time":1551892377050,"click_time":1551892377458,"finger_time":1551892377359,"fix_duration":551.3842979293908,"trial":53,"RT":309,"MT":99,"sideResp":2,"stimulus":"img/900/equaldotanddens/R/3_Ratio_900_L_9_R_10.png","xmouse":[800,800,800,800,800,800,800,800,800,800,800,800,800,800,810,842,864,953,997,1030,1114],"ymouse":[604,604,604,604,604,604,604,604,604,604,604,604,604,604,593,560,543,438,373,269,14],"timestamp_mouse":[9,28,49,67,87,107,127,148,168,188,209,228,248,268,288,309,328,347,368,389,408],"xSR":741.5,"ySR":573.95,"xT1":424.9,"yT1":0,"xT2":1058.1,"yT2":0,"toosoon":0,"cond_shown":"equaldotanddens","ratio_trial":900,"smaller_num":"9","larger_num":"10","correct_side":2,"subjID":"isabellsophiaosmagarcia","gender":"1","age":"10","school":"6"},{"start_time":1551892378918,"click_time":1551892379578,"finger_time":1551892379038,"fix_duration":697.5487805925314,"trial":54,"RT":120,"MT":540,"sideResp":1,"stimulus":"img/750/randomdotsizeEA/L/10_Ratio_750_L_4_R_3.png","xmouse":[812,812,812,812,808,799,787,755,740,725,707,692,661,640,613,587,567,551,549,547,547,546,546,546,546,546,546,546,546,546,546,546,541,523],"ymouse":[592,592,592,592,586,574,556,511,488,465,440,414,353,300,223,149,88,49,41,37,36,35,35,32,32,32,32,32,32,32,32,32,35,44],"timestamp_mouse":[8,21,40,61,79,100,120,140,159,180,200,220,240,260,280,300,320,340,359,380,400,420,440,459,480,501,521,541,560,581,601,620,640,660],"xSR":741.5,"ySR":573.95,"xT1":424.9,"yT1":0,"xT2":1058.1,"yT2":0,"toosoon":0,"cond_shown":"randomdotsizeEA","ratio_trial":750,"smaller_num":"3","larger_num":"4","correct_side":1,"subjID":"isabellsophiaosmagarcia","gender":"1","age":"10","school":"6"},{"start_time":1551892381724,"click_time":1551892382359,"finger_time":1551892382019,"fix_duration":1325.5201209216054,"trial":55,"RT":295,"MT":340,"sideResp":2,"stimulus":"img/500/equaldotanddens/L/5_Ratio_500_L_4_R_2.png","xmouse":[763,763,763,763,763,763,763,763,763,763,763,763,783,804,855,930,1056,1083,1105,1139,1164,1202,1222,1226,1227,1227,1227,1227,1221,1197,1169,1139],"ymouse":[604,604,604,604,604,604,604,604,604,604,604,604,589,578,544,481,365,329,277,202,97,0,0,0,0,0,0,0,5,27,50,73],"timestamp_mouse":[15,33,54,74,94,113,134,154,174,194,214,234,254,273,295,314,333,354,374,394,413,434,453,473,494,514,535,554,573,593,614,634],"xSR":741.5,"ySR":573.95,"xT1":424.9,"yT1":0,"xT2":1058.1,"yT2":0,"toosoon":0,"cond_shown":"equaldotanddens","ratio_trial":500,"smaller_num":"2","larger_num":"4","correct_side":1,"subjID":"isabellsophiaosmagarcia","gender":"1","age":"10","school":"6"},{"start_time":1551892383728,"click_time":1551892384738,"finger_time":1551892384118,"fix_duration":250,"trial":56,"RT":390,"MT":620,"sideResp":1,"stimulus":"img/250/equaldotsize/R/8_Ratio_250_L_1_R_4.png","xmouse":[800,800,800,800,800,800,800,800,800,800,800,800,800,800,800,795,790,783,773,760,743,706,680,663,651,621,600,576,545,504,440,269,251,248,248,267,280,281,287,297,337,371,394,416,433,439,442,450,462,469],"ymouse":[612,612,612,612,612,612,612,612,612,612,612,612,612,612,612,610,600,581,556,521,490,438,410,391,376,343,320,295,264,218,123,0,0,0,0,4,10,11,15,30,88,124,143,155,160,161,161,148,123,98],"timestamp_mouse":[30,51,70,89,110,130,150,170,191,209,230,251,269,291,310,330,350,370,390,409,430,450,470,490,511,530,549,569,590,611,630,650,670,689,710,731,749,770,789,810,830,850,870,890,910,929,950,969,990,1010],"xSR":741.5,"ySR":573.95,"xT1":424.9,"yT1":0,"xT2":1058.1,"yT2":0,"toosoon":0,"cond_shown":"equaldotsize","ratio_trial":250,"smaller_num":"1","larger_num":"4","correct_side":2,"subjID":"isabellsophiaosmagarcia","gender":"1","age":"10","school":"6"},{"start_time":1551892386045,"click_time":1551892386578,"finger_time":1551892386378,"fix_duration":285.67990685430857,"trial":57,"RT":333,"MT":200,"sideResp":2,"stimulus":"img/750/randomdotsizeEA/L/1_Ratio_750_L_20_R_15.png","xmouse":[795,795,795,795,795,795,795,795,795,795,795,795,795,795,802,823,846,889,921,949,1003,1027,1043,1052,1056,1057,1059],"ymouse":[666,666,666,666,666,666,666,666,666,666,666,666,666,666,652,626,589,524,456,391,262,183,131,115,106,103,99],"timestamp_mouse":[13,35,53,73,93,114,134,154,173,193,212,234,252,273,294,314,333,352,372,394,413,433,453,474,493,512,532],"xSR":741.5,"ySR":573.95,"xT1":424.9,"yT1":0,"xT2":1058.1,"yT2":0,"toosoon":0,"cond_shown":"randomdotsizeEA","ratio_trial":750,"smaller_num":"15","larger_num":"20","correct_side":1,"subjID":"isabellsophiaosmagarcia","gender":"1","age":"10","school":"6"},{"start_time":1551892390564,"click_time":1551892390979,"finger_time":1551892390878,"fix_duration":765.1614984481646,"trial":58,"RT":314,"MT":101,"sideResp":1,"stimulus":"img/250/equaldotsize/L/15_Ratio_250_L_12_R_3.png","xmouse":[802,802,802,802,802,802,802,802,802,802,802,802,802,802,799,786,765,727,676,574,519],"ymouse":[608,608,608,608,608,608,608,608,608,608,608,608,608,608,604,572,525,447,353,180,81],"timestamp_mouse":[13,40,55,73,93,114,134,154,175,194,213,233,254,274,294,314,334,353,373,394,415],"xSR":741.5,"ySR":573.95,"xT1":424.9,"yT1":0,"xT2":1058.1,"yT2":0,"toosoon":0,"cond_shown":"equaldotsize","ratio_trial":250,"smaller_num":"3","larger_num":"12","correct_side":1,"subjID":"isabellsophiaosmagarcia","gender":"1","age":"10","school":"6"},{"start_time":1551892392178,"click_time":1551892392578,"finger_time":1551892392398,"fix_duration":278.69405735936334,"trial":59,"RT":220,"MT":180,"sideResp":2,"stimulus":"img/500/equaldotsize/R/1_Ratio_500_L_9_R_18.png","xmouse":[784,784,784,784,784,784,784,784,785,785,795,803,811,826,889,932,995,1058,1066,1092,1148],"ymouse":[604,604,604,604,604,604,604,604,604,604,588,572,558,534,434,381,306,224,214,143,6],"timestamp_mouse":[5,29,41,61,81,99,120,140,159,179,200,220,239,261,280,299,320,340,359,380,399],"xSR":741.5,"ySR":573.95,"xT1":424.9,"yT1":0,"xT2":1058.1,"yT2":0,"toosoon":0,"cond_shown":"equaldotsize","ratio_trial":500,"smaller_num":"9","larger_num":"18","correct_side":2,"subjID":"isabellsophiaosmagarcia","gender":"1","age":"10","school":"6"},{"start_time":1551892393649,"click_time":1551892394219,"finger_time":1551892393937,"fix_duration":250,"trial":60,"RT":288,"MT":282,"sideResp":1,"stimulus":"img/500/equaldotanddens/R/12_Ratio_500_L_1_R_2.png","xmouse":[801,801,801,801,801,801,801,801,801,801,801,801,801,804,813,818,802,787,769,749,712,699,689,678,665,614,569,535,485],"ymouse":[626,626,626,626,626,626,626,626,626,626,626,626,622,610,573,480,425,403,386,372,356,348,342,331,315,260,201,154,76],"timestamp_mouse":[9,28,50,69,88,110,130,148,170,188,209,230,249,269,288,310,328,349,370,388,409,429,449,469,489,509,528,549,570],"xSR":741.5,"ySR":573.95,"xT1":424.9,"yT1":0,"xT2":1058.1,"yT2":0,"toosoon":0,"cond_shown":"equaldotanddens","ratio_trial":500,"smaller_num":"1","larger_num":"2","correct_side":2,"subjID":"isabellsophiaosmagarcia","gender":"1","age":"10","school":"6"},{"start_time":1551892396383,"click_time":1551892396998,"finger_time":1551892396698,"fix_duration":1203.1416884445932,"trial":61,"RT":315,"MT":300,"sideResp":2,"stimulus":"img/750/randomdotsizeEA/R/4_Ratio_750_L_15_R_20.png","xmouse":[782,782,782,782,782,782,782,782,782,782,782,782,782,782,795,815,833,858,897,933,954,962,977,992,997,1005,1013,1021,1034,1048,1064],"ymouse":[604,604,604,604,604,604,604,604,604,604,604,604,604,604,583,561,535,495,417,335,293,273,241,214,203,188,166,147,123,109,92],"timestamp_mouse":[15,41,55,75,95,116,136,155,174,195,215,234,256,274,295,315,335,355,375,394,415,435,456,475,495,515,535,555,575,595,615],"xSR":741.5,"ySR":573.95,"xT1":424.9,"yT1":0,"xT2":1058.1,"yT2":0,"toosoon":0,"cond_shown":"randomdotsizeEA","ratio_trial":750,"smaller_num":"15","larger_num":"20","correct_side":2,"subjID":"isabellsophiaosmagarcia","gender":"1","age":"10","school":"6"},{"start_time":1551892398866,"click_time":1551892399439,"finger_time":1551892399118,"fix_duration":1046.997497719759,"trial":62,"RT":252,"MT":321,"sideResp":1,"stimulus":"img/900/equaldotsize/R/12_Ratio_900_L_18_R_20.png","xmouse":[775,775,775,775,775,775,775,775,775,775,771,759,750,728,677,649,628,614,600,574,562,555,551,547,539,537,536,529,513],"ymouse":[643,643,643,643,643,643,643,643,638,636,622,595,570,528,435,387,351,319,293,248,227,208,194,183,152,137,124,98,49],"timestamp_mouse":[13,39,52,71,92,111,133,153,172,192,212,232,252,272,292,312,331,351,372,392,411,433,452,472,492,511,532,552,573],"xSR":741.5,"ySR":573.95,"xT1":424.9,"yT1":0,"xT2":1058.1,"yT2":0,"toosoon":0,"cond_shown":"equaldotsize","ratio_trial":900,"smaller_num":"18","larger_num":"20","correct_side":2,"subjID":"isabellsophiaosmagarcia","gender":"1","age":"10","school":"6"},{"start_time":1551892400409,"click_time":1551892401378,"finger_time":1551892400958,"fix_duration":250,"trial":63,"RT":549,"MT":420,"sideResp":2,"stimulus":"img/500/equaldotsize/R/2_Ratio_500_L_3_R_6.png","xmouse":[813,813,813,813,813,813,813,813,813,813,813,813,813,813,813,813,813,813,813,813,813,813,813,813,813,816,820,855,885,904,921,944,994,1010,1031,1053,1065,1079,1087,1087,1088,1090,1094,1095,1097,1097,1097,1100,1108],"ymouse":[631,631,631,631,631,631,631,631,631,631,631,631,631,631,631,631,631,631,631,631,631,631,631,631,631,628,622,585,562,545,528,504,408,368,315,268,242,204,179,177,173,162,137,132,124,123,123,113,98],"timestamp_mouse":[9,38,49,70,90,109,130,149,170,188,209,229,250,270,289,309,328,349,369,390,410,428,449,470,488,509,529,549,569,588,609,629,649,669,689,709,728,749,768,789,810,829,849,868,889,910,929,949,968],"xSR":741.5,"ySR":573.95,"xT1":424.9,"yT1":0,"xT2":1058.1,"yT2":0,"toosoon":0,"cond_shown":"equaldotsize","ratio_trial":500,"smaller_num":"3","larger_num":"6","correct_side":2,"subjID":"isabellsophiaosmagarcia","gender":"1","age":"10","school":"6"},{"start_time":1551892404339,"click_time":1551892404978,"finger_time":1551892404619,"fix_duration":698.856133360631,"trial":64,"RT":280,"MT":359,"sideResp":1,"stimulus":"img/250/equaldotsize/L/14_Ratio_250_L_12_R_3.png","xmouse":[796,796,796,796,796,796,796,796,796,796,796,796,796,796,796,796,764,734,702,672,645,610,600,589,574,564,488,462,443,435,435,435,434],"ymouse":[615,615,615,615,615,615,615,615,615,615,615,615,615,615,568,511,382,317,261,205,160,92,74,54,28,12,0,0,0,0,0,0,12],"timestamp_mouse":[1,19,39,58,80,99,118,138,159,180,198,219,240,259,279,300,319,338,359,379,399,420,438,459,479,499,519,538,558,579,600,618,639],"xSR":741.5,"ySR":573.95,"xT1":424.9,"yT1":0,"xT2":1058.1,"yT2":0,"toosoon":0,"cond_shown":"equaldotsize","ratio_trial":250,"smaller_num":"3","larger_num":"12","correct_side":1,"subjID":"isabellsophiaosmagarcia","gender":"1","age":"10","school":"6"},{"start_time":1551892406029,"click_time":1551892406719,"finger_time":1551892406379,"fix_duration":250,"trial":65,"RT":350,"MT":340,"sideResp":1,"stimulus":"img/250/randomdotsizeEA/R/11_Ratio_250_L_3_R_12.png","xmouse":[761,761,761,761,761,761,761,761,761,761,761,761,761,761,761,761,756,736,721,701,674,631,617,611,609,609,605,598,587,574,565,536,524,518,514],"ymouse":[624,624,624,624,624,624,624,624,624,624,624,624,624,624,624,624,606,550,517,478,431,354,335,325,323,320,309,287,262,236,217,156,127,108,92],"timestamp_mouse":[8,40,48,69,89,109,128,148,168,190,208,229,250,268,288,309,329,350,369,389,410,429,449,468,489,510,529,549,569,589,610,629,649,668,690],"xSR":741.5,"ySR":573.95,"xT1":424.9,"yT1":0,"xT2":1058.1,"yT2":0,"toosoon":0,"cond_shown":"randomdotsizeEA","ratio_trial":250,"smaller_num":"3","larger_num":"12","correct_side":2,"subjID":"isabellsophiaosmagarcia","gender":"1","age":"10","school":"6"},{"start_time":1551892408859,"click_time":1551892409258,"finger_time":1551892408978,"fix_duration":1419.7340956159037,"trial":66,"RT":119,"MT":280,"sideResp":2,"stimulus":"img/500/randomdotsizeEA/R/15_Ratio_500_L_1_R_2.png","xmouse":[820,820,820,820,820,827,847,869,889,911,936,955,966,977,987,1002,1022,1036,1047,1057,1081],"ymouse":[603,603,603,603,603,595,576,553,532,503,457,412,348,262,201,147,97,78,69,64,46],"timestamp_mouse":[1,30,39,60,78,99,119,139,158,180,199,219,238,259,279,299,319,339,358,379,399],"xSR":741.5,"ySR":573.95,"xT1":424.9,"yT1":0,"xT2":1058.1,"yT2":0,"toosoon":0,"cond_shown":"randomdotsizeEA","ratio_trial":500,"smaller_num":"1","larger_num":"2","correct_side":2,"subjID":"isabellsophiaosmagarcia","gender":"1","age":"10","school":"6"},{"start_time":1551892410627,"click_time":1551892410977,"finger_time":1551892410738,"fix_duration":428.4558398944595,"trial":67,"RT":111,"MT":239,"sideResp":1,"stimulus":"img/900/equaldotsize/R/5_Ratio_900_L_9_R_10.png","xmouse":[772,772,772,772,770,765,721,654,622,603,594,584,579,575,569,561,544,519],"ymouse":[600,600,600,600,590,564,461,372,339,314,301,271,256,241,220,194,138,82],"timestamp_mouse":[14,41,51,71,90,111,131,152,171,192,210,231,250,272,291,311,331,350],"xSR":741.5,"ySR":573.95,"xT1":424.9,"yT1":0,"xT2":1058.1,"yT2":0,"toosoon":0,"cond_shown":"equaldotsize","ratio_trial":900,"smaller_num":"9","larger_num":"10","correct_side":2,"subjID":"isabellsophiaosmagarcia","gender":"1","age":"10","school":"6"},{"start_time":1551892414019,"click_time":1551892414618,"finger_time":1551892414198,"fix_duration":380.0700614260012,"trial":68,"RT":179,"MT":420,"sideResp":2,"stimulus":"img/500/randomdotsizeEA/L/13_Ratio_500_L_12_R_6.png","xmouse":[784,784,784,784,784,784,784,799,825,857,907,940,950,961,973,976,991,1003,1010,1013,1013,1013,1015,1025,1037,1052,1065,1090,1092,1097],"ymouse":[620,620,620,620,620,620,620,600,564,476,358,265,242,219,194,185,160,144,136,134,134,134,134,132,130,125,119,104,102,99],"timestamp_mouse":[19,38,59,80,98,120,139,159,179,200,219,239,259,278,299,318,339,358,379,399,418,439,459,478,500,519,539,560,579,599],"xSR":741.5,"ySR":573.95,"xT1":424.9,"yT1":0,"xT2":1058.1,"yT2":0,"toosoon":0,"cond_shown":"randomdotsizeEA","ratio_trial":500,"smaller_num":"6","larger_num":"12","correct_side":1,"subjID":"isabellsophiaosmagarcia","gender":"1","age":"10","school":"6"},{"start_time":1551892417487,"click_time":1551892417977,"finger_time":1551892417818,"fix_duration":528.6316049846971,"trial":69,"RT":331,"MT":159,"sideResp":1,"stimulus":"img/500/equaldotanddens/L/5_Ratio_500_L_4_R_2.png","xmouse":[795,795,795,795,795,795,795,795,795,795,795,795,795,795,795,781,752,722,626,578,525,484,461,438,434],"ymouse":[622,622,622,622,622,622,622,622,622,622,622,622,622,622,621,602,572,539,439,399,344,291,247,145,59],"timestamp_mouse":[10,36,50,71,92,111,131,151,171,192,210,231,250,272,292,311,331,350,370,390,411,431,452,471,490],"xSR":741.5,"ySR":573.95,"xT1":424.9,"yT1":0,"xT2":1058.1,"yT2":0,"toosoon":0,"cond_shown":"equaldotanddens","ratio_trial":500,"smaller_num":"2","larger_num":"4","correct_side":1,"subjID":"isabellsophiaosmagarcia","gender":"1","age":"10","school":"6"},{"start_time":1551892419956,"click_time":1551892420578,"finger_time":1551892420259,"fix_duration":1077.3053111940699,"trial":70,"RT":303,"MT":319,"sideResp":2,"stimulus":"img/750/equaldotanddens/L/14_Ratio_750_L_8_R_6.png","xmouse":[788,788,788,788,788,788,788,788,788,788,788,788,788,790,799,892,961,1015,1050,1063,1069,1070,1072,1073,1074,1076,1082,1084,1087,1091,1101,1106],"ymouse":[636,636,636,636,636,636,636,636,636,636,636,636,636,633,623,547,493,449,406,383,367,359,340,325,312,294,259,242,232,211,133,42],"timestamp_mouse":[11,35,43,61,82,102,121,143,161,181,203,223,243,262,283,303,322,342,361,382,402,421,442,462,481,501,522,542,563,581,601,622],"xSR":741.5,"ySR":573.95,"xT1":424.9,"yT1":0,"xT2":1058.1,"yT2":0,"toosoon":0,"cond_shown":"equaldotanddens","ratio_trial":750,"smaller_num":"6","larger_num":"8","correct_side":1,"subjID":"isabellsophiaosmagarcia","gender":"1","age":"10","school":"6"},{"start_time":1551892421675,"click_time":1551892422358,"finger_time":1551892421918,"fix_duration":296.1296211670352,"trial":71,"RT":243,"MT":440,"sideResp":1,"stimulus":"img/500/equaldotanddens/R/1_Ratio_500_L_9_R_18.png","xmouse":[778,775,773,773,773,773,773,773,773,771,765,748,728,712,682,677,666,643,625,595,587,582,579,576,573,563,552,545,538,531,515,504,497,490,474],"ymouse":[640,635,632,631,631,631,631,631,631,627,615,582,550,528,486,478,455,401,358,314,303,295,291,285,281,263,241,226,211,194,155,135,119,105,75],"timestamp_mouse":[5,23,44,63,95,102,122,143,163,183,203,223,243,262,283,303,323,343,363,383,402,423,443,464,482,503,523,544,564,583,603,624,643,662,683],"xSR":741.5,"ySR":573.95,"xT1":424.9,"yT1":0,"xT2":1058.1,"yT2":0,"toosoon":0,"cond_shown":"equaldotanddens","ratio_trial":500,"smaller_num":"9","larger_num":"18","correct_side":2,"subjID":"isabellsophiaosmagarcia","gender":"1","age":"10","school":"6"},{"start_time":1551892426218,"click_time":1551892426838,"finger_time":1551892426498,"fix_duration":639.2243946442485,"trial":72,"RT":280,"MT":340,"sideResp":2,"stimulus":"img/250/equaldotsize/R/13_Ratio_250_L_2_R_8.png","xmouse":[787,787,787,787,787,787,787,787,787,787,787,787,787,798,831,873,901,924,948,974,989,1019,1034,1065,1074,1082,1088,1095,1095,1095,1095,1093],"ymouse":[624,624,624,624,624,624,624,624,624,624,624,624,624,604,572,541,519,503,477,437,408,339,308,251,229,212,190,157,143,132,115,91],"timestamp_mouse":[1,20,40,60,80,100,119,140,161,180,201,220,240,259,280,299,321,340,359,380,401,421,439,459,481,501,520,539,559,580,600,620],"xSR":741.5,"ySR":573.95,"xT1":424.9,"yT1":0,"xT2":1058.1,"yT2":0,"toosoon":0,"cond_shown":"equaldotsize","ratio_trial":250,"smaller_num":"2","larger_num":"8","correct_side":2,"subjID":"isabellsophiaosmagarcia","gender":"1","age":"10","school":"6"},{"start_time":1551892427930,"click_time":1551892428318,"finger_time":1551892428139,"fix_duration":250,"trial":73,"RT":209,"MT":179,"sideResp":1,"stimulus":"img/500/randomdotsizeEA/L/10_Ratio_500_L_4_R_2.png","xmouse":[778,778,778,778,778,778,778,778,776,766,742,684,663,635,613,595,552,527,507,492],"ymouse":[632,632,632,632,632,632,631,621,603,576,531,442,413,372,341,314,231,169,116,67],"timestamp_mouse":[7,29,49,68,88,109,129,147,169,188,209,228,247,268,289,308,328,347,368,388],"xSR":741.5,"ySR":573.95,"xT1":424.9,"yT1":0,"xT2":1058.1,"yT2":0,"toosoon":0,"cond_shown":"randomdotsizeEA","ratio_trial":500,"smaller_num":"2","larger_num":"4","correct_side":1,"subjID":"isabellsophiaosmagarcia","gender":"1","age":"10","school":"6"},{"start_time":1551892431360,"click_time":1551892432118,"finger_time":1551892431758,"fix_duration":779.3473549118366,"trial":74,"RT":398,"MT":360,"sideResp":2,"stimulus":"img/250/equaldotanddens/R/8_Ratio_250_L_1_R_4.png","xmouse":[808,808,808,808,808,808,808,808,808,808,808,808,808,808,808,808,808,812,821,853,885,911,948,985,1020,1026,1030,1033,1036,1037,1042,1048,1050,1051,1051,1052,1053,1059],"ymouse":[622,622,622,622,622,622,622,622,622,622,622,622,622,622,622,620,611,597,575,494,409,360,293,231,165,148,134,124,115,107,94,83,76,74,74,74,72,69],"timestamp_mouse":[30,38,59,78,98,119,139,157,179,198,217,238,258,278,297,318,337,359,378,398,417,438,459,478,498,518,539,559,578,597,618,638,658,679,698,718,738,758],"xSR":741.5,"ySR":573.95,"xT1":424.9,"yT1":0,"xT2":1058.1,"yT2":0,"toosoon":0,"cond_shown":"equaldotanddens","ratio_trial":250,"smaller_num":"1","larger_num":"4","correct_side":2,"subjID":"isabellsophiaosmagarcia","gender":"1","age":"10","school":"6"},{"start_time":1551892433251,"click_time":1551892433857,"finger_time":1551892433559,"fix_duration":373.9425757361031,"trial":75,"RT":308,"MT":298,"sideResp":1,"stimulus":"img/250/equaldotanddens/L/2_Ratio_250_L_16_R_4.png","xmouse":[816,816,816,816,816,816,816,816,816,815,814,814,814,814,811,789,726,661,611,555,512,435,413,403,395,390,390,391,397,406,457],"ymouse":[607,607,607,607,607,607,607,607,607,607,607,607,607,607,601,561,476,416,377,334,295,225,196,175,153,120,97,85,69,55,18],"timestamp_mouse":[8,39,47,66,87,106,126,147,168,186,206,227,247,267,286,308,326,346,368,387,407,427,447,467,487,506,526,546,567,587,606],"xSR":741.5,"ySR":573.95,"xT1":424.9,"yT1":0,"xT2":1058.1,"yT2":0,"toosoon":0,"cond_shown":"equaldotanddens","ratio_trial":250,"smaller_num":"4","larger_num":"16","correct_side":1,"subjID":"isabellsophiaosmagarcia","gender":"1","age":"10","school":"6"},{"start_time":1551892434954,"click_time":1551892435657,"finger_time":1551892435358,"fix_duration":274.5560249536704,"trial":76,"RT":404,"MT":299,"sideResp":2,"stimulus":"img/900/equaldotsize/R/13_Ratio_900_L_18_R_20.png","xmouse":[764,764,764,764,764,764,764,764,764,764,764,764,764,764,764,764,764,764,768,772,817,921,1014,1110,1187,1237,1251,1252,1255,1252,1222,1202,1185,1177,1168,1157],"ymouse":[628,628,628,628,628,629,629,629,629,629,629,629,629,629,629,629,629,629,622,618,570,496,442,388,347,296,273,270,245,216,108,73,55,50,46,44],"timestamp_mouse":[7,34,44,64,84,103,123,143,164,184,203,224,243,264,283,304,323,344,363,383,404,423,443,463,484,504,523,544,564,584,603,623,643,663,684,703],"xSR":741.5,"ySR":573.95,"xT1":424.9,"yT1":0,"xT2":1058.1,"yT2":0,"toosoon":0,"cond_shown":"equaldotsize","ratio_trial":900,"smaller_num":"18","larger_num":"20","correct_side":2,"subjID":"isabellsophiaosmagarcia","gender":"1","age":"10","school":"6"},{"start_time":1551892437479,"click_time":1551892438158,"finger_time":1551892437778,"fix_duration":859.6124973244729,"trial":77,"RT":299,"MT":380,"sideResp":1,"stimulus":"img/900/randomdotsizeEA/R/13_Ratio_900_L_18_R_20.png","xmouse":[822,822,822,822,822,822,822,822,822,822,815,804,792,782,768,735,717,679,616,445,383,360,351,346,346,346,346,346,346,346,349,360,377,400,482],"ymouse":[636,636,636,636,636,636,636,636,636,636,631,623,611,601,588,545,520,461,349,115,60,33,10,0,0,0,0,0,0,0,0,0,8,18,60],"timestamp_mouse":[2,25,43,60,78,99,118,139,159,178,198,218,238,258,278,299,318,338,358,378,399,418,439,459,478,499,519,538,558,580,598,619,639,659,679],"xSR":741.5,"ySR":573.95,"xT1":424.9,"yT1":0,"xT2":1058.1,"yT2":0,"toosoon":0,"cond_shown":"randomdotsizeEA","ratio_trial":900,"smaller_num":"18","larger_num":"20","correct_side":2,"subjID":"isabellsophiaosmagarcia","gender":"1","age":"10","school":"6"},{"start_time":1551892440331,"click_time":1551892441019,"finger_time":1551892440617,"fix_duration":1111.8528854693063,"trial":78,"RT":286,"MT":402,"sideResp":2,"stimulus":"img/250/equaldotsize/R/10_Ratio_250_L_4_R_16.png","xmouse":[772,772,772,772,772,772,772,772,772,772,772,772,778,788,805,811,879,920,937,1005,1073,1122,1196,1230,1238,1239,1239,1235,1230,1225,1216,1181,1166,1166,1118],"ymouse":[599,599,599,599,599,599,599,599,599,599,599,599,596,586,571,566,505,467,451,389,325,261,76,0,0,0,0,0,0,0,0,0,0,0,6],"timestamp_mouse":[10,26,48,66,88,106,126,146,166,188,206,226,247,266,286,306,326,346,366,387,407,427,447,466,487,507,526,546,566,586,607,627,646,667,688],"xSR":741.5,"ySR":573.95,"xT1":424.9,"yT1":0,"xT2":1058.1,"yT2":0,"toosoon":0,"cond_shown":"equaldotsize","ratio_trial":250,"smaller_num":"4","larger_num":"16","correct_side":2,"subjID":"isabellsophiaosmagarcia","gender":"1","age":"10","school":"6"},{"start_time":1551892443272,"click_time":1551892443877,"finger_time":1551892443637,"fix_duration":1494.1193136935437,"trial":79,"RT":365,"MT":240,"sideResp":2,"stimulus":"img/500/equaldotanddens/L/8_Ratio_500_L_8_R_4.png","xmouse":[798,798,798,798,798,798,798,798,798,798,798,798,798,798,798,806,813,833,855,878,879,879,886,891,901,930,944,961,988,1061,1109],"ymouse":[637,637,637,637,637,637,637,637,637,637,637,637,637,637,637,632,625,609,588,565,562,562,553,546,537,512,501,482,441,228,64],"timestamp_mouse":[16,39,46,66,85,106,125,147,165,185,207,225,245,267,286,305,326,345,365,386,405,425,445,466,485,507,526,547,566,585,605],"xSR":741.5,"ySR":573.95,"xT1":424.9,"yT1":0,"xT2":1058.1,"yT2":0,"toosoon":0,"cond_shown":"equaldotanddens","ratio_trial":500,"smaller_num":"4","larger_num":"8","correct_side":1,"subjID":"isabellsophiaosmagarcia","gender":"1","age":"10","school":"6"},{"start_time":1551892445973,"click_time":1551892446577,"finger_time":1551892446317,"fix_duration":1194.7884919419253,"trial":80,"RT":344,"MT":260,"sideResp":1,"stimulus":"img/250/randomdotsizeEA/L/1_Ratio_250_L_8_R_2.png","xmouse":[804,804,804,804,804,804,804,804,804,804,804,804,804,803,797,789,773,753,728,694,680,670,658,648,632,626,617,608,589,531,499],"ymouse":[649,649,649,649,649,649,649,649,649,649,649,649,646,641,625,609,588,564,542,517,504,493,476,459,419,398,370,332,262,80,10],"timestamp_mouse":[9,32,46,64,84,104,124,144,165,186,205,225,246,264,284,304,324,344,365,385,404,424,444,465,484,504,525,544,564,585,604],"xSR":741.5,"ySR":573.95,"xT1":424.9,"yT1":0,"xT2":1058.1,"yT2":0,"toosoon":0,"cond_shown":"randomdotsizeEA","ratio_trial":250,"smaller_num":"2","larger_num":"8","correct_side":1,"subjID":"isabellsophiaosmagarcia","gender":"1","age":"10","school":"6"},{"start_time":1551892448821,"click_time":1551892449197,"finger_time":1551892449058,"fix_duration":1461.458408606712,"trial":81,"RT":237,"MT":139,"sideResp":1,"stimulus":"img/250/equaldotanddens/R/4_Ratio_250_L_3_R_12.png","xmouse":[781,781,781,781,781,781,781,781,781,781,774,749,721,692,664,634,570,515,454],"ymouse":[628,628,628,628,628,628,628,628,628,628,611,561,511,460,405,355,243,150,63],"timestamp_mouse":[19,37,57,77,98,116,136,157,176,197,216,237,256,276,297,316,336,356,376],"xSR":741.5,"ySR":573.95,"xT1":424.9,"yT1":0,"xT2":1058.1,"yT2":0,"toosoon":0,"cond_shown":"equaldotanddens","ratio_trial":250,"smaller_num":"3","larger_num":"12","correct_side":2,"subjID":"isabellsophiaosmagarcia","gender":"1","age":"10","school":"6"},{"start_time":1551892450603,"click_time":1551892451637,"finger_time":1551892450917,"fix_duration":385.3539437440119,"trial":82,"RT":314,"MT":720,"sideResp":2,"stimulus":"img/500/randomdotsizeEA/R/6_Ratio_500_L_9_R_18.png","xmouse":[768,768,768,768,768,768,768,768,768,769,769,770,778,787,802,820,836,883,909,924,939,955,974,982,987,991,994,1000,1002,1009,1013,1015,1019,1019,1019,1019,1020,1025,1037,1041,1041,1042,1043,1052,1053,1054,1054,1054,1055,1055,1055,1061],"ymouse":[651,651,651,651,651,651,651,651,651,648,646,641,625,605,581,552,522,431,346,294,240,185,118,97,83,72,59,25,6,0,0,0,0,0,0,0,0,1,7,8,8,9,9,10,10,12,12,12,12,12,13,17],"timestamp_mouse":[14,42,54,74,96,116,135,155,174,194,214,234,254,274,294,314,336,354,374,395,415,434,454,474,494,515,535,554,575,594,614,634,655,675,695,714,734,755,775,795,815,834,854,874,894,914,935,955,974,994,1014,1034],"xSR":741.5,"ySR":573.95,"xT1":424.9,"yT1":0,"xT2":1058.1,"yT2":0,"toosoon":0,"cond_shown":"randomdotsizeEA","ratio_trial":500,"smaller_num":"9","larger_num":"18","correct_side":2,"subjID":"isabellsophiaosmagarcia","gender":"1","age":"10","school":"6"},{"start_time":1551892453584,"click_time":1551892454198,"finger_time":1551892453898,"fix_duration":1185.0554551414145,"trial":83,"RT":314,"MT":300,"sideResp":2,"stimulus":"img/900/randomdotsizeEA/L/10_Ratio_900_L_20_R_18.png","xmouse":[804,804,804,804,804,804,804,804,804,804,804,804,804,815,836,865,896,926,955,968,978,988,1004,1027,1037,1044,1046,1047,1053,1058,1059],"ymouse":[636,636,636,636,636,636,636,636,636,636,636,636,636,620,594,555,513,474,425,393,371,344,304,234,194,170,157,142,109,96,94],"timestamp_mouse":[21,40,54,73,94,113,135,153,174,194,213,234,254,273,294,314,333,353,374,393,413,434,453,473,494,515,533,553,573,593,613],"xSR":741.5,"ySR":573.95,"xT1":424.9,"yT1":0,"xT2":1058.1,"yT2":0,"toosoon":0,"cond_shown":"randomdotsizeEA","ratio_trial":900,"smaller_num":"18","larger_num":"20","correct_side":1,"subjID":"isabellsophiaosmagarcia","gender":"1","age":"10","school":"6"},{"start_time":1551892455930,"click_time":1551892456738,"finger_time":1551892456238,"fix_duration":550.7424180547074,"trial":84,"RT":308,"MT":500,"sideResp":1,"stimulus":"img/250/randomdotsizeEA/L/15_Ratio_250_L_12_R_3.png","xmouse":[789,789,789,789,789,789,789,789,789,789,789,789,789,792,804,813,813,803,789,781,766,733,714,706,701,696,689,682,671,651,640,620,613,606,598,588,566,556,545,535,521],"ymouse":[610,610,610,610,610,610,610,610,610,610,610,610,610,603,581,553,513,496,481,472,454,414,382,370,356,342,304,279,240,194,168,133,119,109,97,84,64,58,52,48,43],"timestamp_mouse":[10,41,49,67,88,107,127,147,169,188,208,229,247,268,288,308,327,348,369,387,407,427,447,468,487,508,527,548,567,588,608,627,648,667,687,707,727,747,768,787,808],"xSR":741.5,"ySR":573.95,"xT1":424.9,"yT1":0,"xT2":1058.1,"yT2":0,"toosoon":0,"cond_shown":"randomdotsizeEA","ratio_trial":250,"smaller_num":"3","larger_num":"12","correct_side":1,"subjID":"isabellsophiaosmagarcia","gender":"1","age":"10","school":"6"},{"start_time":1551892457849,"click_time":1551892458758,"finger_time":1551892458297,"fix_duration":250,"trial":85,"RT":448,"MT":461,"sideResp":1,"stimulus":"img/500/equaldotsize/R/12_Ratio_500_L_1_R_2.png","xmouse":[808,808,808,808,808,808,808,808,808,808,808,808,808,808,808,808,808,808,808,807,803,799,781,767,745,693,673,664,655,648,630,621,610,594,581,571,563,557,552,545,537,526,520,514,510,502],"ymouse":[627,627,627,627,627,627,627,627,627,627,627,627,627,627,627,627,627,627,627,626,611,603,566,539,508,438,409,393,376,359,317,287,242,185,134,107,73,56,37,19,6,0,0,0,0,1],"timestamp_mouse":[11,33,48,68,89,110,130,149,169,189,209,228,248,268,289,309,329,348,368,389,408,429,448,470,488,508,528,548,569,590,609,628,649,668,688,708,728,749,769,789,809,828,848,868,888,908],"xSR":741.5,"ySR":573.95,"xT1":424.9,"yT1":0,"xT2":1058.1,"yT2":0,"toosoon":0,"cond_shown":"equaldotsize","ratio_trial":500,"smaller_num":"1","larger_num":"2","correct_side":2,"subjID":"isabellsophiaosmagarcia","gender":"1","age":"10","school":"6"},{"start_time":1551892460092,"click_time":1551892460757,"finger_time":1551892460538,"fix_duration":433.2545507284054,"trial":86,"RT":446,"MT":219,"sideResp":2,"stimulus":"img/900/equaldotanddens/L/2_Ratio_900_L_20_R_18.png","xmouse":[807,807,807,807,807,807,807,807,807,807,807,807,807,807,807,807,807,807,809,813,818,824,833,845,882,891,899,909,935,959,1002,1043,1052,1072],"ymouse":[649,649,649,649,649,649,649,649,649,649,649,649,649,649,649,649,649,649,635,625,613,595,570,542,464,443,426,409,362,313,223,149,128,89],"timestamp_mouse":[10,32,46,65,85,107,126,145,167,185,205,225,245,266,286,305,327,345,366,385,405,426,446,466,486,505,526,546,565,585,606,625,645,665],"xSR":741.5,"ySR":573.95,"xT1":424.9,"yT1":0,"xT2":1058.1,"yT2":0,"toosoon":0,"cond_shown":"equaldotanddens","ratio_trial":900,"smaller_num":"18","larger_num":"20","correct_side":1,"subjID":"isabellsophiaosmagarcia","gender":"1","age":"10","school":"6"},{"start_time":1551892462250,"click_time":1551892463158,"finger_time":1551892462657,"fix_duration":589.6411320781872,"trial":87,"RT":407,"MT":501,"sideResp":1,"stimulus":"img/500/equaldotsize/R/9_Ratio_500_L_2_R_4.png","xmouse":[774,774,774,774,774,774,774,774,774,774,774,774,774,774,774,774,774,774,774,773,770,755,742,735,726,720,707,700,687,653,542,472,407,361,341,332,332,332,332,332,332,335,348,368,396,442],"ymouse":[593,593,593,593,593,593,593,593,593,593,593,593,593,593,593,593,593,593,587,574,553,516,492,473,455,438,398,382,349,274,76,0,0,0,0,0,0,0,0,0,0,8,24,43,64,97],"timestamp_mouse":[13,39,48,67,88,107,128,148,168,189,207,227,247,268,287,307,328,347,368,387,407,427,447,468,489,508,528,548,569,587,607,627,647,668,688,708,727,748,767,788,807,827,848,868,888,908],"xSR":741.5,"ySR":573.95,"xT1":424.9,"yT1":0,"xT2":1058.1,"yT2":0,"toosoon":0,"cond_shown":"equaldotsize","ratio_trial":500,"smaller_num":"2","larger_num":"4","correct_side":2,"subjID":"isabellsophiaosmagarcia","gender":"1","age":"10","school":"6"},{"start_time":1551892465291,"click_time":1551892465918,"finger_time":1551892465658,"fix_duration":1310.9083680318156,"trial":88,"RT":367,"MT":260,"sideResp":2,"stimulus":"img/900/equaldotanddens/L/8_Ratio_900_L_20_R_18.png","xmouse":[784,784,784,784,784,784,784,784,784,784,784,784,784,784,784,784,784,805,872,893,907,920,931,995,1013,1024,1035,1041,1055,1062,1064,1064],"ymouse":[629,629,629,629,629,629,629,629,629,629,629,629,629,629,629,629,629,605,554,539,525,509,491,390,364,339,307,284,199,140,105,81],"timestamp_mouse":[10,31,48,67,86,106,126,147,166,187,206,227,246,266,286,306,327,346,367,387,406,426,448,467,486,506,526,546,566,586,607,627],"xSR":741.5,"ySR":573.95,"xT1":424.9,"yT1":0,"xT2":1058.1,"yT2":0,"toosoon":0,"cond_shown":"equaldotanddens","ratio_trial":900,"smaller_num":"18","larger_num":"20","correct_side":1,"subjID":"isabellsophiaosmagarcia","gender":"1","age":"10","school":"6"},{"start_time":1551892467229,"click_time":1551892468058,"finger_time":1551892467557,"fix_duration":250,"trial":89,"RT":328,"MT":501,"sideResp":1,"stimulus":"img/250/equaldotsize/R/9_Ratio_250_L_3_R_12.png","xmouse":[765,765,765,765,765,765,765,765,765,765,765,765,763,760,756,746,732,721,713,675,646,604,582,570,565,562,562,564,566,566,566,566,566,566,566,565,558,549,543,535,529,524],"ymouse":[649,649,649,649,649,649,649,649,649,649,649,648,641,633,622,600,572,558,550,515,491,444,405,368,341,314,261,222,201,176,152,128,88,76,69,66,58,51,47,43,41,40],"timestamp_mouse":[12,34,50,68,89,108,128,148,169,190,208,229,248,269,289,308,328,349,368,389,409,428,449,469,489,509,528,548,568,588,609,628,648,668,690,708,729,748,768,788,809,828],"xSR":741.5,"ySR":573.95,"xT1":424.9,"yT1":0,"xT2":1058.1,"yT2":0,"toosoon":0,"cond_shown":"equaldotsize","ratio_trial":250,"smaller_num":"3","larger_num":"12","correct_side":2,"subjID":"isabellsophiaosmagarcia","gender":"1","age":"10","school":"6"},{"start_time":1551892469964,"click_time":1551892470558,"finger_time":1551892470339,"fix_duration":1024.2166128472293,"trial":90,"RT":375,"MT":219,"sideResp":2,"stimulus":"img/900/equaldotsize/L/4_Ratio_900_L_20_R_18.png","xmouse":[817,817,817,817,817,817,817,817,817,817,817,817,817,817,817,817,817,836,851,911,937,971,997,1028,1062,1108,1121,1129,1130,1125],"ymouse":[619,619,619,619,619,619,619,619,619,619,619,619,619,619,619,619,619,601,586,539,520,496,475,437,399,306,252,197,126,6],"timestamp_mouse":[14,40,53,74,93,114,133,153,174,194,214,233,255,273,294,314,333,354,375,394,413,434,455,474,493,513,533,555,574,594],"xSR":741.5,"ySR":573.95,"xT1":424.9,"yT1":0,"xT2":1058.1,"yT2":0,"toosoon":0,"cond_shown":"equaldotsize","ratio_trial":900,"smaller_num":"18","larger_num":"20","correct_side":1,"subjID":"isabellsophiaosmagarcia","gender":"1","age":"10","school":"6"},{"start_time":1551892471730,"click_time":1551892472559,"finger_time":1551892472159,"fix_duration":250,"trial":91,"RT":429,"MT":400,"sideResp":1,"stimulus":"img/250/equaldotanddens/R/12_Ratio_250_L_5_R_20.png","xmouse":[778,778,778,778,778,778,778,778,778,778,778,778,778,778,778,778,778,778,778,778,767,704,673,647,630,621,613,594,584,570,560,532,526,514,507,503,502,502,502,502,502,498],"ymouse":[646,646,646,646,646,646,646,646,646,646,646,646,646,646,646,646,646,646,622,612,574,413,338,276,246,225,206,159,133,104,78,19,11,0,0,0,0,0,0,0,0,1],"timestamp_mouse":[8,27,61,68,87,107,128,147,168,188,207,227,247,269,287,307,328,347,367,388,407,429,447,467,487,507,527,547,568,588,607,628,647,667,688,707,728,748,767,788,807,829],"xSR":741.5,"ySR":573.95,"xT1":424.9,"yT1":0,"xT2":1058.1,"yT2":0,"toosoon":0,"cond_shown":"equaldotanddens","ratio_trial":250,"smaller_num":"5","larger_num":"20","correct_side":2,"subjID":"isabellsophiaosmagarcia","gender":"1","age":"10","school":"6"},{"start_time":1551892474559,"click_time":1551892475177,"finger_time":1551892474858,"fix_duration":981.6252007376968,"trial":92,"RT":299,"MT":319,"sideResp":2,"stimulus":"img/750/equaldotanddens/L/13_Ratio_750_L_8_R_6.png","xmouse":[799,799,799,799,799,799,799,799,799,799,804,814,820,827,845,852,864,875,888,899,929,939,948,960,984,996,1011,1026,1038,1075,1092],"ymouse":[641,641,641,641,641,641,641,641,641,641,636,621,613,602,571,557,530,489,448,412,334,313,297,279,246,231,215,193,175,112,79],"timestamp_mouse":[18,39,59,79,98,119,139,158,179,198,218,239,258,279,299,318,339,359,378,398,420,439,458,478,498,519,539,559,578,598,618],"xSR":741.5,"ySR":573.95,"xT1":424.9,"yT1":0,"xT2":1058.1,"yT2":0,"toosoon":0,"cond_shown":"equaldotanddens","ratio_trial":750,"smaller_num":"6","larger_num":"8","correct_side":1,"subjID":"isabellsophiaosmagarcia","gender":"1","age":"10","school":"6"},{"start_time":1551892476229,"click_time":1551892476958,"finger_time":1551892476698,"fix_duration":250,"trial":93,"RT":469,"MT":260,"sideResp":1,"stimulus":"img/500/equaldotanddens/R/3_Ratio_500_L_10_R_20.png","xmouse":[752,752,752,752,752,752,752,752,752,752,752,752,752,752,752,752,752,752,752,752,752,752,747,741,734,724,705,694,681,666,646,613,594,568,546,522,479],"ymouse":[608,608,608,608,608,608,608,608,608,608,608,608,608,608,608,608,608,608,608,608,608,608,591,578,567,552,520,497,476,450,418,360,316,260,206,150,42],"timestamp_mouse":[9,40,49,69,88,108,128,148,168,188,208,228,249,268,288,309,329,348,368,388,408,428,448,469,489,508,528,548,568,588,609,628,649,668,688,709,729],"xSR":741.5,"ySR":573.95,"xT1":424.9,"yT1":0,"xT2":1058.1,"yT2":0,"toosoon":0,"cond_shown":"equaldotanddens","ratio_trial":500,"smaller_num":"10","larger_num":"20","correct_side":2,"subjID":"isabellsophiaosmagarcia","gender":"1","age":"10","school":"6"},{"start_time":1551892478652,"click_time":1551892479197,"finger_time":1551892478898,"fix_duration":493.56060336062444,"trial":94,"RT":246,"MT":299,"sideResp":2,"stimulus":"img/500/randomdotsizeEA/L/5_Ratio_500_L_4_R_2.png","xmouse":[764,764,764,764,764,764,767,767,772,776,781,799,814,858,892,942,1016,1052,1101,1124,1175,1186,1193,1194,1194,1180,1167,1154],"ymouse":[603,603,603,603,603,603,603,603,599,594,590,575,561,517,491,450,389,354,310,283,193,151,115,90,78,50,32,17],"timestamp_mouse":[10,33,46,66,85,106,125,145,166,185,205,225,246,266,286,305,325,345,366,386,406,425,446,465,486,506,525,545],"xSR":741.5,"ySR":573.95,"xT1":424.9,"yT1":0,"xT2":1058.1,"yT2